"Time (s)","Acceleration x (m/s^2)","Acceleration y (m/s^2)","Acceleration z (m/s^2)"
1.187935700E-2,-3.924096584E0,6.237194538E0,5.928342819E0
1.687935700E-2,-3.919308186E0,6.304232121E0,5.813420773E0
2.185835700E-2,-3.926490784E0,6.349722385E0,5.763142586E0
2.685785700E-2,-3.895366192E0,6.402394772E0,5.696105003E0
3.185752300E-2,-3.821146011E0,6.462249756E0,5.583577633E0
3.685727300E-2,-3.722983599E0,6.526893139E0,5.494992256E0
4.185707300E-2,-3.600879431E0,6.562806129E0,5.442319870E0
4.685690600E-2,-3.452438831E0,6.567594528E0,5.420772076E0
5.185619100E-2,-3.289633036E0,6.534075737E0,5.439925671E0
5.685619100E-2,-3.131615877E0,6.462249756E0,5.487809658E0
6.185619100E-2,-2.968810081E0,6.361693382E0,5.554847240E0
6.685619100E-2,-2.825158119E0,6.237194538E0,5.669768810E0
7.185610000E-2,-2.693476915E0,6.081571579E0,5.937919617E0
7.685601600E-2,-2.533065319E0,5.885247231E0,6.241982937E0
8.185593900E-2,-2.542642117E0,5.624279022E0,6.270713329E0
8.685593900E-2,-2.655169725E0,5.411195278E0,5.973832607E0
9.185593900E-2,-2.705447912E0,5.286696434E0,5.700893402E0
9.685593900E-2,-2.604891539E0,5.078401089E0,5.380070686E0
1.018558800E-1,-2.360682964E0,4.750096321E0,5.054459095E0
1.068558240E-1,-2.250549555E0,4.642356873E0,4.908412933E0
1.118557710E-1,-2.059013367E0,4.630385876E0,4.817133904E0
1.168557210E-1,-1.766920805E0,4.568136692E0,4.754884720E0
1.218556730E-1,-1.601720929E0,4.501099110E0,4.730942726E0
1.268556270E-1,-1.493981838E0,4.319139957E0,4.812345505E0
1.318556270E-1,-1.446097851E0,4.096478939E0,4.961085320E0
1.368556270E-1,-1.493981838E0,3.914519787E0,5.126285076E0
1.418556270E-1,-1.642422318E0,3.794809580E0,5.265148640E0
1.468555880E-1,-1.836352706E0,3.715801001E0,5.408801079E0
1.518555500E-1,-2.001552582E0,3.627215624E0,5.571606636E0
1.568555140E-1,-2.094926596E0,3.500322819E0,5.753565788E0
1.618554790E-1,-2.099714994E0,3.330334663E0,5.952284813E0
1.668554450E-1,-2.025494576E0,3.110068083E0,6.174945354E0
1.718561110E-1,-1.879448295E0,2.777273893E0,6.440701962E0
1.768561110E-1,-1.762132406E0,2.384624958E0,6.716034889E0
1.818561440E-1,-1.721431017E0,1.956062794E0,6.993762493E0
1.868561770E-1,-1.757344007E0,1.520318031E0,7.288249016E0
1.918562100E-1,-1.857900500E0,1.106121182E0,7.613860607E0
1.968562100E-1,-1.987187386E0,7.445967197E-1,7.980173588E0
2.018563430E-1,-2.090138197E0,4.548983276E-1,8.396764755E0
2.068563090E-1,-1.975216389E0,3.375824392E-1,9.124602318E0
2.118563090E-1,-1.941697598E0,2.370259613E-1,1.015889740E1
2.168563090E-1,-2.298433542E0,-3.112462163E-2,1.118361568E1
2.218563420E-1,-2.803610086E0,-3.854664862E-1,1.207904720E1
2.268563420E-1,-3.143586874E0,-6.631938815E-1,1.277815342E1
2.318563420E-1,-3.220201254E0,-7.278373241E-1,1.319713879E1
2.368563080E-1,-3.100491285E0,-5.722141862E-1,1.334557915E1
2.418562740E-1,-3.004723072E0,-2.801215947E-1,1.317798519E1
2.468562400E-1,-2.964021683E0,5.985504389E-2,1.275421143E1
2.518562400E-1,-3.071760893E0,4.046200812E-1,1.202398014E1
2.568562730E-1,-3.256114244E0,7.134721279E-1,1.126741219E1
2.618563060E-1,-3.560178041E0,1.007958889E0,1.050366211E1
2.668563390E-1,-4.015076160E0,1.290474772E0,9.804554939E0
2.718563390E-1,-4.587290287E0,1.575384736E0,9.170091629E0
2.768563390E-1,-5.210082054E0,1.759738207E0,8.588300705E0
2.818563050E-1,-5.736806393E0,1.857900500E0,8.025663376E0
2.868563050E-1,-6.218040943E0,2.001552582E0,7.489362240E0
2.918563050E-1,-6.656179905E0,2.173935175E0,7.178115845E0
2.968563380E-1,-6.869264126E0,2.281674147E0,7.058405876E0
3.018563710E-1,-6.912359715E0,2.327163935E0,7.087136269E0
3.068563710E-1,-6.917148113E0,2.286462545E0,7.192481041E0
3.118563710E-1,-6.876446724E0,2.135627985E0,7.290643215E0
3.168563710E-1,-6.754342079E0,1.984793186E0,7.360075474E0
3.218563710E-1,-6.560411930E0,1.903390408E0,7.393594265E0
3.268563710E-1,-6.301837921E0,1.884236693E0,7.367258072E0
3.318563370E-1,-6.043264389E0,1.903390408E0,7.266701221E0
3.368563370E-1,-5.880458832E0,1.951274395E0,7.151779652E0
3.418563370E-1,-5.791872978E0,2.030282974E0,7.056011677E0
3.468563700E-1,-5.691316605E0,2.147598982E0,7.012916088E0
3.518563700E-1,-5.552453041E0,2.305616140E0,7.012916088E0
3.568563700E-1,-5.360917091E0,2.468421936E0,6.998550892E0
3.618563360E-1,-5.128679276E0,2.607285738E0,6.921936512E0
3.668563020E-1,-4.879383087E0,2.674323320E0,6.747159481E0
3.718562680E-1,-4.632780075E0,2.652775526E0,6.500556946E0
3.768562680E-1,-4.388571739E0,2.561795712E0,6.213252544E0
3.818563010E-1,-4.170699596E0,2.439691544E0,5.906795025E0
3.868563340E-1,-3.981557369E0,2.281674147E0,5.583577633E0
3.918563670E-1,-3.787626982E0,2.075772762E0,5.289090633E0
3.968563670E-1,-3.517082214E0,1.833958507E0,5.064035892E0
4.018563670E-1,-3.045424461E0,1.671152830E0,4.963479519E0
4.068563330E-1,-2.588132143E0,1.728613615E0,5.032911301E0
4.118563330E-1,-2.523488522E0,1.422155857E0,5.193322659E0
4.168563330E-1,-2.729389906E0,8.858546019E-1,5.327397823E0
4.218563660E-1,-3.155557871E0,2.561795712E-1,5.533299446E0
4.268563990E-1,-3.763684988E0,-3.615244627E-1,5.837363243E0
4.318563990E-1,-4.503493309E0,-9.121908545E-1,6.206069946E0
4.368563650E-1,-5.274725437E0,-1.343147159E0,6.593930721E0
4.418563310E-1,-5.988197803E0,-1.666364431E0,6.960243702E0
4.468562970E-1,-6.601113319E0,-1.924938202E0,7.254730225E0
4.518562630E-1,-7.115866661E0,-2.154781580E0,7.403171062E0
4.568562630E-1,-7.520486832E0,-2.353500366E0,7.367258072E0
4.618562960E-1,-7.788637638E0,-2.513911724E0,7.113472462E0
4.668563290E-1,-7.850886822E0,-2.652775526E0,6.648997307E0
4.718563620E-1,-7.697657585E0,-2.794033289E0,6.021716595E0
4.768563620E-1,-7.391200066E0,-2.925714493E0,5.310638428E0
4.818563620E-1,-7.044040680E0,-3.031059265E0,4.604049683E0
4.868563280E-1,-6.759130478E0,-3.131615877E0,3.969586372E0
4.918563280E-1,-6.641814709E0,-3.270479441E0,3.452438831E0
4.968563280E-1,-6.660968304E0,-3.421314240E0,3.066972494E0
5.018563610E-1,-6.881235123E0,-3.600879431E0,2.825158119E0
5.068563610E-1,-7.364863873E0,-3.782838583E0,2.738966703E0
5.118563610E-1,-8.004115105E0,-3.945644379E0,2.865859509E0
5.168563610E-1,-8.743924141E0,-4.094084740E0,3.134010077E0
5.218563610E-1,-9.522039413E0,-4.254496574E0,3.509899616E0
5.268563610E-1,-1.027381897E1,-4.431667328E0,3.955221176E0
5.318563270E-1,-1.100644493E1,-4.661510944E0,4.434061527E0
5.368563270E-1,-1.170315742E1,-4.932354927E0,4.908412933E0
5.418564270E-1,-1.235437965E1,-5.205293655E0,5.356128693E0
5.468564600E-1,-1.296490192E1,-5.401618481E0,5.775113583E0
5.518564930E-1,-1.351317406E1,-5.463867664E0,6.172551155E0
5.568564930E-1,-1.397286034E1,-5.442319870E0,6.536469936E0
5.618564590E-1,-1.434396172E1,-5.382464886E0,6.866869926E0
5.668564250E-1,-1.461690044E1,-5.291484833E0,7.175721645E0
5.718564250E-1,-1.480634212E1,-5.174169064E0,7.472602844E0
5.768564250E-1,-1.494041729E1,-5.037699699E0,7.740753174E0
5.818564580E-1,-1.506012726E1,-4.908412933E0,7.972990990E0
5.868564580E-1,-1.518223190E1,-4.805162907E0,8.181286812E0
5.918564580E-1,-1.528757668E1,-4.709394932E0,8.363245964E0
5.968564580E-1,-1.534982586E1,-4.623203278E0,8.494926453E0
6.018564580E-1,-1.532348919E1,-4.556165695E0,8.530839920E0
6.068564580E-1,-1.516068363E1,-4.505887508E0,8.413523674E0
6.118564240E-1,-1.493802261E1,-4.458003521E0,8.200440407E0
6.168564240E-1,-1.470099735E1,-4.393360138E0,7.915530205E0
6.218564240E-1,-1.448761368E1,-4.355052948E0,7.575553417E0
6.268564570E-1,-1.430565453E1,-4.367023945E0,7.199663639E0
6.318564570E-1,-1.415960789E1,-4.429273129E0,6.807014942E0
6.368564570E-1,-1.406144619E1,-4.522646904E0,6.423942566E0
6.418564230E-1,-1.402074432E1,-4.656722069E0,6.064812183E0
6.468564230E-1,-1.406383991E1,-4.836287498E0,5.760748386E0
6.518564230E-1,-1.418594456E1,-5.028122902E0,5.528511047E0
6.568564560E-1,-1.431044292E1,-5.131073475E0,5.365705490E0
6.618564560E-1,-1.438466263E1,-5.097554684E0,5.267542839E0
6.668564560E-1,-1.439184570E1,-4.934749126E0,5.217264652E0
6.718564560E-1,-1.430804825E1,-4.678270340E0,5.193322659E0
6.768564560E-1,-1.412848377E1,-4.374206543E0,5.193322659E0
6.818564560E-1,-1.386033249E1,-4.055777550E0,5.224447250E0
6.868564220E-1,-1.351317406E1,-3.746925592E0,5.310638428E0
6.918562880E-1,-1.310855389E1,-3.490746021E0,5.449502468E0
6.968562880E-1,-1.271111584E1,-3.313575268E0,5.621884823E0
7.018562880E-1,-1.237113953E1,-3.220201254E0,5.832574844E0
7.068563210E-1,-1.207904720E1,-3.134010077E0,6.019322395E0
7.118563210E-1,-1.180371380E1,-3.014299870E0,6.179733753E0
7.168563210E-1,-1.151880360E1,-2.873042107E0,6.318597794E0
7.218562870E-1,-1.118840408E1,-2.738966703E0,6.423942566E0
7.268562870E-1,-1.080054283E1,-2.612074137E0,6.505345345E0
7.318562870E-1,-1.037437534E1,-2.449268341E0,6.550835133E0
7.368563200E-1,-9.972148895E0,-2.269703150E0,6.572382927E0
7.418563200E-1,-9.562741280E0,-2.066195965E0,6.558017731E0
7.468565530E-1,-9.174880028E0,-1.867477298E0,6.490980148E0
7.518565530E-1,-8.834903717E0,-1.692700624E0,6.368875980E0
7.568565530E-1,-8.509291649E0,-1.544260144E0,6.431125164E0
7.618565530E-1,-8.202834129E0,-1.410184860E0,6.656179905E0
7.668565190E-1,-7.975385189E0,-1.295263171E0,6.890811920E0
7.718565190E-1,-7.601889610E0,-1.290474772E0,7.803002834E0
7.768565190E-1,-6.196493149E0,-1.625662923E0,9.342473984E0
7.818565520E-1,-5.444714069E0,-1.460463047E0,9.838073730E0
7.868565520E-1,-5.193322659E0,-9.888052940E-1,8.511686325E0
7.918565520E-1,-5.526116848E0,-4.261679053E-1,6.579565525E0
7.968565180E-1,-5.487809658E0,-3.447650373E-1,4.728548527E0
8.018564840E-1,-5.588366032E0,-4.860229492E-1,3.849876404E0
8.068564500E-1,-5.624279022E0,-9.265560508E-1,3.639186621E0
8.118564500E-1,-5.650615215E0,-1.400607944E0,3.713406801E0
8.168564500E-1,-5.629067421E0,-1.750161409E0,3.722983599E0
8.218564830E-1,-5.420772076E0,-2.090138197E0,3.485957623E0
8.268565160E-1,-5.152621269E0,-2.363077164E0,3.136404276E0
8.318565490E-1,-4.836287498E0,-2.583343744E0,2.669534922E0
8.368565490E-1,-4.580107689E0,-2.774879694E0,2.149993181E0
8.418565490E-1,-4.381389141E0,-2.971204281E0,1.630451322E0
8.468565150E-1,-4.228160381E0,-3.201047659E0,1.189918280E0
8.518576810E-1,-4.199429989E0,-3.435679436E0,7.972691655E-1
8.568576810E-1,-4.182670593E0,-3.533841610E0,5.937620401E-1
8.618577140E-1,-4.185064793E0,-3.581725836E0,3.663128614E-1
8.668573800E-1,-4.280832767E0,-3.603273630E0,-7.182605099E-3
8.718573800E-1,-4.522646904E0,-3.636792421E0,-5.075707436E-1
8.768564800E-1,-4.881777287E0,-3.840299606E0,-1.003170490E0
8.818555800E-1,-5.169380665E0,-4.003105164E0,-1.398213744E0
8.868546800E-1,-5.399224281E0,-4.134786129E0,-1.714248419E0
8.918546800E-1,-5.629067421E0,-4.326322556E0,-1.953668594E0
8.968544800E-1,-5.641038418E0,-4.340687752E0,-1.903390408E0
9.018545130E-1,-5.451896667E0,-4.271255970E0,-1.857900500E0
9.068545460E-1,-5.633855820E0,-4.290409565E0,-2.475604534E0
9.118538790E-1,-6.151003361E0,-4.395754337E0,-3.720589399E0
9.168538790E-1,-7.000945091E0,-4.630385876E0,-5.205293655E0
9.218538450E-1,-7.853281021E0,-4.906018734E0,-6.627449512E0
9.268534110E-1,-8.676886559E0,-5.195716858E0,-7.652167797E0
9.318525110E-1,-9.581894875E0,-5.435137272E0,-7.826944828E0
9.368518770E-1,-1.007988834E1,-5.724835396E0,-7.149385452E0
9.418515430E-1,-9.785401344E0,-6.261136532E0,-5.681739807E0
9.468515430E-1,-9.711181641E0,-6.984185696E0,-3.394978046E0
9.518514760E-1,-1.010383034E1,-7.573159218E0,-1.632845521E0
9.568511760E-1,-1.037676907E1,-7.860463619E0,-6.895300746E-1
9.618505090E-1,-1.048211479E1,-7.649773598E0,-7.374141216E-1
9.668498420E-1,-1.031691456E1,-7.237970829E0,-1.185129881E0
9.718498080E-1,-9.933841705E0,-6.852504730E0,-1.369483352E0
9.768498080E-1,-9.531616211E0,-6.514922142E0,-1.268926859E0
9.818498080E-1,-9.131784439E0,-6.349722385E0,-9.576807022E-1
9.868498410E-1,-8.748712540E0,-6.306626320E0,-6.392518282E-1
9.918498410E-1,-8.324938774E0,-6.541258335E0,-2.585737705E-1
9.968489740E-1,-7.984961987E0,-6.728005886E0,4.309562966E-2
1.001847774E0,-7.714416981E0,-6.912359715E0,2.873041928E-1
1.006847774E0,-7.525275230E0,-7.146991253E0,5.027823448E-1
1.011847774E0,-7.534852028E0,-7.180510044E0,8.331822157E-1
1.016848140E0,-7.544428825E0,-6.948272705E0,1.168370485E0
1.021848140E0,-7.206846237E0,-6.076783180E0,9.696516991E-1
1.026849006E0,-6.179733753E0,-4.910807133E0,-9.097966552E-1
1.031849872E0,-4.666299343E0,-6.869264126E0,-1.242590666E0
1.036849872E0,-3.454833031E0,-8.435071945E0,-1.510741234E0
1.041849872E0,-2.149993181E0,-1.031930828E1,-2.305616140E0
1.046849838E0,-1.098938584E0,-1.244296551E1,-4.256890774E0
1.051849804E0,-1.580173135E0,-1.358978844E1,-4.438849926E0
1.056849804E0,-2.422932148E0,-1.372386360E1,-3.955221176E0
1.061850504E0,-3.315969467E0,-1.305348682E1,-3.694253206E0
1.066850537E0,-4.082113743E0,-1.219875717E1,-3.629609823E0
1.071850537E0,-4.745307922E0,-1.160020638E1,-3.608062029E0
1.076850937E0,-5.277119637E0,-1.131050777E1,-3.505111217E0
1.081851803E0,-5.444714069E0,-1.131529617E1,-3.141192675E0
1.086852436E0,-5.473444462E0,-1.130093098E1,-2.724601507E0
1.091852769E0,-5.511751652E0,-1.108784771E1,-2.420537949E0
1.096852769E0,-5.576395035E0,-1.087715721E1,-2.315192938E0
1.101852869E0,-5.569212437E0,-1.067843914E1,-2.372653961E0
1.106853202E0,-5.523722649E0,-1.056351757E1,-2.525882721E0
1.111853235E0,-5.377676487E0,-1.047732544E1,-2.525882721E0
1.116853901E0,-5.229235649E0,-1.041747093E1,-2.468421936E0
1.121853901E0,-5.073612690E0,-1.036001015E1,-2.308010340E0
1.126853867E0,-4.886565685E0,-1.025945377E1,-2.169146776E0
1.131853867E0,-4.663905144E0,-1.007031155E1,-2.099714994E0
1.136853867E0,-4.458003521E0,-9.850045204E0,-2.075772762E0
1.141853900E0,-4.290409565E0,-9.668086052E0,-2.085349798E0
1.146854766E0,-4.252102375E0,-9.522039413E0,-2.049436569E0
1.151854766E0,-4.254496574E0,-9.263465881E0,-1.963245392E0
1.156853866E0,-4.256890774E0,-9.057564735E0,-1.893813491E0
1.161853832E0,-4.220977783E0,-8.839692116E0,-1.865083098E0
1.166853798E0,-4.194641590E0,-8.657732964E0,-1.879448295E0
1.171853798E0,-4.199429989E0,-8.554781914E0,-1.944091797E0
1.176853798E0,-4.197035789E0,-8.499714851E0,-2.003946781E0
1.181853831E0,-4.177882195E0,-8.502109528E0,-2.023100376E0
1.186854731E0,-4.151545525E0,-8.518868446E0,-2.008735180E0
1.191854764E0,-4.228160381E0,-8.492532730E0,-1.970427990E0
1.196853897E0,-4.290409565E0,-8.470984459E0,-1.941697598E0
1.201853897E0,-4.364629745E0,-8.442254066E0,-1.970427990E0
1.206853863E0,-4.450820923E0,-8.418312073E0,-2.056619167E0
1.211853863E0,-4.570530891E0,-8.418312073E0,-2.169146776E0
1.216853863E0,-4.699818134E0,-8.420706749E0,-2.226607561E0
1.221853896E0,-4.783615112E0,-8.435071945E0,-2.214636564E0
1.226853896E0,-4.745307922E0,-8.459013939E0,-2.181117773E0
1.231853896E0,-4.627991676E0,-8.454225540E0,-2.147598982E0
1.236852996E0,-4.501099110E0,-8.391976357E0,-2.133233786E0
1.241853529E0,-4.393360138E0,-8.332120895E0,-2.130839586E0
1.246852862E0,-4.292803764E0,-8.269871712E0,-2.154781580E0
1.251852162E0,-4.192247391E0,-8.226776123E0,-2.152387381E0
1.256851528E0,-4.101267338E0,-8.245929718E0,-2.102109194E0
1.261852194E0,-4.046200752E0,-8.327332497E0,-2.020706177E0
1.266852227E0,-4.007893562E0,-8.394370079E0,-1.963245392E0
1.271852227E0,-3.986345768E0,-8.427888870E0,-1.963245392E0
1.276851927E0,-3.981557369E0,-8.439860344E0,-1.991975784E0
1.281851893E0,-3.991134167E0,-8.406341553E0,-2.042253971E0
1.286851893E0,-4.041412354E0,-8.291419983E0,-2.082955360E0
1.291851893E0,-4.098873138E0,-8.123826027E0,-2.111685991E0
1.296851926E0,-4.094084740E0,-7.951443195E0,-2.118868589E0
1.301851959E0,-3.983951569E0,-7.893982410E0,-2.075772762E0
1.306852825E0,-3.842693806E0,-7.893982410E0,-2.020706177E0
1.311852825E0,-3.675099611E0,-7.963414192E0,-1.960851192E0
1.316852825E0,-3.524264812E0,-8.056788445E0,-1.948880196E0
1.321852825E0,-3.394978046E0,-8.150161743E0,-1.972822189E0
1.326852825E0,-3.289633036E0,-8.233959198E0,-1.987187386E0
1.331852791E0,-3.282450438E0,-8.368034363E0,-1.970427990E0
1.336852791E0,-3.378218651E0,-8.538022995E0,-1.905784607E0
1.341852791E0,-3.438073635E0,-8.700828552E0,-1.831564307E0
1.346853691E0,-3.514688015E0,-8.818143845E0,-1.778891921E0
1.351853691E0,-3.627215624E0,-8.966584206E0,-1.762132406E0
1.356853691E0,-3.732560396E0,-9.115025520E0,-1.733402014E0
1.361853657E0,-3.833117008E0,-9.282619476E0,-1.685518026E0
1.366853657E0,-3.914519787E0,-9.419088364E0,-1.625662923E0
1.371853657E0,-3.995922565E0,-9.514857292E0,-1.570596337E0
1.376853690E0,-4.043806553E0,-9.586683273E0,-1.551442742E0
1.381854123E0,-4.046200752E0,-9.651326180E0,-1.558625340E0
1.386855023E0,-3.998316765E0,-9.675268173E0,-1.558625340E0
1.391854489E0,-3.921702385E0,-9.687239647E0,-1.541865945E0
1.396855155E0,-3.845088005E0,-9.687239647E0,-1.510741234E0
1.401855821E0,-3.782838583E0,-9.646537781E0,-1.489193439E0
1.406856421E0,-3.749319792E0,-9.553164482E0,-1.493981838E0
1.411856421E0,-3.696647406E0,-9.421483040E0,-1.539471745E0
1.416856421E0,-3.627215624E0,-9.304166794E0,-1.575384736E0
1.421856454E0,-3.524264812E0,-9.196428299E0,-1.563413739E0
1.426856787E0,-3.416525841E0,-9.112630844E0,-1.508347034E0
1.431856787E0,-3.330334663E0,-9.038411140E0,-1.419761658E0
1.436856753E0,-3.272873640E0,-8.957007408E0,-1.323993564E0
1.441856719E0,-3.275267839E0,-8.870816231E0,-1.288080573E0
1.446856719E0,-3.301604033E0,-8.777442932E0,-1.290474772E0
1.451856719E0,-3.378218651E0,-8.691251755E0,-1.383848548E0
1.456856752E0,-3.469198227E0,-8.626607895E0,-1.515529633E0
1.461856752E0,-3.531447411E0,-8.617031097E0,-1.668758631E0
1.466856752E0,-3.560178041E0,-8.621819496E0,-1.776497602E0
1.471856752E0,-3.536235809E0,-8.715193748E0,-1.860294700E0
1.476856752E0,-3.485957623E0,-8.834903717E0,-1.908178806E0
1.481856085E0,-3.445256233E0,-8.930671692E0,-1.929726601E0
1.486856051E0,-3.406949043E0,-9.016862869E0,-1.953668594E0
1.491855384E0,-3.392583847E0,-9.079112053E0,-1.989581585E0
1.496854717E0,-3.387795448E0,-9.107842445E0,-2.008735180E0
1.501854117E0,-3.368641853E0,-9.074323654E0,-1.996764183E0
1.506853450E0,-3.349488258E0,-9.016862869E0,-1.984793186E0
1.511853450E0,-3.354276657E0,-8.930671692E0,-1.951274395E0
1.516853416E0,-3.375824451E0,-8.849268913E0,-1.889025092E0
1.521852716E0,-3.416525841E0,-8.839692116E0,-1.764526606E0
1.526852682E0,-3.517082214E0,-8.861239433E0,-1.541865945E0
1.531852582E0,-3.667917013E0,-8.839692116E0,-1.189918280E0
1.536851948E0,-3.852270603E0,-8.820538521E0,-7.493851185E-1
1.541851981E0,-4.010287762E0,-8.851662636E0,-2.657563984E-1
1.546852014E0,-4.122815132E0,-8.897152901E0,1.053448766E-1
1.551852047E0,-4.153939724E0,-8.949825287E0,1.939303428E-1
1.556852047E0,-4.139574528E0,-9.016862869E0,7.182604820E-2
1.561852013E0,-4.003105164E0,-9.131784439E0,-5.051765442E-1
1.566851979E0,-3.768473387E0,-9.337685585E0,-1.544260144E0
1.571851979E0,-3.670311213E0,-9.519645691E0,-2.377442360E0
1.576851979E0,-3.701435804E0,-9.627384186E0,-2.671929121E0
1.581852012E0,-3.749319792E0,-9.632172585E0,-2.487575531E0
1.586852012E0,-3.751713991E0,-9.541193008E0,-2.044648170E0
1.591852012E0,-3.718195200E0,-9.402329445E0,-1.625662923E0
1.596851978E0,-3.694253206E0,-9.273042679E0,-1.364694953E0
1.601851944E0,-3.643975019E0,-9.098265648E0,-1.309628367E0
1.606851910E0,-3.569754839E0,-8.923488617E0,-1.350329757E0
1.611851910E0,-3.452438831E0,-8.712799072E0,-1.458068848E0
1.616851943E0,-3.323152065E0,-8.502109528E0,-1.561019540E0
1.621851976E0,-3.217807055E0,-8.308178902E0,-1.620874524E0
1.626852009E0,-3.112462282E0,-8.142979622E0,-1.601720929E0
1.631852675E0,-2.992752075E0,-7.980173588E0,-1.503558636E0
1.636852675E0,-2.880224705E0,-7.819762230E0,-1.412579060E0
1.641853308E0,-2.791639090E0,-7.611466408E0,-1.331176162E0
1.646853974E0,-2.726995707E0,-7.407959461E0,-1.271321058E0
1.651854607E0,-2.719813108E0,-7.166144848E0,-1.209071875E0
1.656855307E0,-2.746149302E0,-6.890811920E0,-1.094150186E0
1.661855307E0,-2.765302896E0,-6.802226067E0,-1.017535686E0
1.666855307E0,-2.774879694E0,-6.962637901E0,-1.063025594E0
1.671855973E0,-2.784456491E0,-7.312191486E0,-1.096544385E0
1.676855973E0,-2.789244890E0,-7.745541573E0,-1.098938584E0
1.681855639E0,-2.786850691E0,-8.171710014E0,-1.098938584E0
1.686856272E0,-2.765302896E0,-8.554781914E0,-1.089361787E0
1.691856238E0,-2.736572504E0,-8.921094894E0,-1.074996591E0
1.696856238E0,-2.731784105E0,-9.217975616E0,-1.055842996E0
1.701856238E0,-2.748543501E0,-9.409511566E0,-1.036689281E0
1.706856271E0,-2.770091295E0,-9.541193008E0,-1.022324085E0
1.711856271E0,-2.789244890E0,-9.553164482E0,-1.039083481E0
1.716856271E0,-2.746149302E0,-9.411906242E0,-1.197100878E0
1.721856237E0,-2.710236311E0,-9.160514832E0,-1.314416766E0
1.726856237E0,-2.707842112E0,-8.889969826E0,-1.367089152E0
1.731856237E0,-2.758120298E0,-8.605060577E0,-1.319205165E0
1.736856270E0,-2.827552319E0,-8.344092369E0,-1.149216771E0
1.741856270E0,-2.894589901E0,-8.181286812E0,-9.074024558E-1
1.746856270E0,-2.949656487E0,-8.104672432E0,-6.751648784E-1
1.751856270E0,-2.913743496E0,-8.068758965E0,-5.123591423E-1
1.756856270E0,-2.782062292E0,-8.044816971E0,-5.027823448E-1
1.761856270E0,-2.612074137E0,-8.061576843E0,-5.793967843E-1
1.766856236E0,-2.442085743E0,-8.147768021E0,-7.015010715E-1
1.771856236E0,-2.250549555E0,-8.315361977E0,-9.050082564E-1
1.776855669E0,-2.063801765E0,-8.571541786E0,-1.137245774E0
1.781855135E0,-1.917755604E0,-8.861239433E0,-1.290474772E0
1.786855801E0,-1.805228114E0,-9.057564735E0,-1.285686255E0
1.791855134E0,-1.680729628E0,-9.093477249E0,-1.060631394E0
1.796854434E0,-1.582567334E0,-9.050381660E0,-8.140285611E-1
1.801854400E0,-1.534683347E0,-8.904335022E0,-6.871358752E-1
1.806854400E0,-1.472434044E0,-8.688857079E0,-6.775590777E-1
1.811854433E0,-1.448492050E0,-8.478167534E0,-7.445967197E-1
1.816854466E0,-1.606509328E0,-8.408735275E0,-8.571242094E-1
1.821854466E0,-1.944091797E0,-8.497321129E0,-9.720458984E-1
1.826854466E0,-2.111685991E0,-8.571541786E0,-1.055842996E0
1.831854466E0,-1.968033791E0,-8.545205116E0,-1.072602391E0
1.836854466E0,-1.702277422E0,-8.511686325E0,-1.041477680E0
1.841854466E0,-1.278503656E0,-8.423100471E0,-9.576807022E-1
1.846854432E0,-8.810662031E-1,-8.298602104E0,-8.571242094E-1
1.851854432E0,-4.525041282E-1,-8.116642952E0,-7.757213712E-1
1.856854432E0,-9.097966552E-2,-7.817368031E0,-7.302315235E-1
1.861854465E0,7.661445439E-2,-7.381623268E0,-7.996633649E-1
1.866854465E0,1.556231081E-1,-6.938695908E0,-8.499416113E-1
1.871854465E0,1.412578970E-1,-6.541258335E0,-8.403648138E-1
1.876854431E0,1.149216816E-1,-6.177339554E0,-7.996633649E-1
1.881854431E0,7.422025502E-2,-5.772719383E0,-7.445967197E-1
1.886854431E0,2.873042040E-2,-5.370493889E0,-6.847416759E-1
1.891854464E0,9.576806799E-3,-4.896441936E0,-5.410895944E-1
1.896854464E0,1.436521020E-2,-4.460397720E0,-3.591302633E-1
1.901854464E0,-2.394201607E-2,-4.010287762E0,-1.532289088E-1
1.906854464E0,-8.858546615E-2,-3.557783842E0,-1.675941236E-2
1.911854464E0,-1.604115069E-1,-3.148375273E0,8.858546615E-2
1.916854464E0,-2.274491638E-1,-2.784456491E0,1.723825186E-1
1.921853764E0,-2.753331959E-1,-2.480392933E0,2.561795712E-1
1.926853397E0,-3.040636182E-1,-2.236184359E0,3.519476354E-1
1.931853963E0,-3.256114423E-1,-2.063801765E0,4.740519226E-1
1.936853329E0,-3.567360640E-1,-1.944091797E0,5.530605912E-1
1.941854029E0,-3.806780577E-1,-1.884236693E0,5.363011956E-1
1.946854695E0,-4.381389022E-1,-1.845929503E0,3.734954596E-1
1.951854295E0,-6.392518282E-1,-1.953668594E0,1.244984865E-1
1.956854261E0,-1.000776291E0,-2.190694571E0,-1.316810995E-1
1.961854227E0,-1.376665950E0,-2.434903145E0,-3.711012602E-1
1.966854093E0,-1.654393315E0,-2.636016130E0,-5.961562395E-1
1.971853193E0,-1.819593310E0,-2.784456491E0,-7.613561153E-1
1.976852326E0,-1.867477298E0,-2.806004286E0,-8.355764151E-1
1.981851692E0,-1.769315004E0,-2.779668093E0,-8.858546019E-1
1.986851425E0,-1.604115129E0,-2.762908697E0,-9.361328483E-1
1.991851425E0,-1.915361285E-1,-5.569212437E0,-8.403648138E-1
1.996851425E0,2.315192938E0,-1.200722122E1,-1.738190413E0
2.001851391E0,7.283460617E0,-2.279579353E1,-3.773261786E0
2.006851391E0,1.309418869E1,-3.365379715E1,-5.339369297E0
2.011851391E0,1.641285133E1,-4.183508301E1,-5.516540051E0
2.016851424E0,1.623328590E1,-4.492869186E1,-4.797980309E0
2.021851424E0,1.345810699E1,-4.273051453E1,-3.555389643E0
2.026851424E0,1.048450851E1,-3.882078171E1,-2.413355350E0
2.031851390E0,7.527669430E0,-3.335212708E1,-1.517923832E0
2.036851356E0,5.087977886E0,-2.814234543E1,-8.451532125E-1
2.041851322E0,3.253720045E0,-2.316449928E1,-3.806780577E-1
2.046851322E0,1.948880196E0,-1.884775352E1,-6.703764945E-2
2.051851322E0,1.070208192E0,-1.522293282E1,1.484405100E-1
2.056851355E0,4.692635238E-1,-1.224903488E1,3.064578176E-1
2.061851388E0,1.197100803E-2,-9.869198799E0,3.711012602E-1
2.066851421E0,-3.423708379E-1,-8.030451775E0,2.777273953E-1
2.071852087E0,-6.248866320E-1,-6.689698696E0,1.077390760E-1
2.076852987E0,-8.690952063E-1,-5.712864399E0,-4.070143029E-2
2.081852953E0,-1.077390790E0,-5.210082054E0,-2.442085743E-1
2.086852953E0,-1.201889277E0,-5.119102478E0,-4.716577232E-1
2.091852953E0,-1.003170490E0,-5.863699436E0,-7.015010715E-1
2.096852986E0,-5.291185975E-1,-7.123049259E0,-8.595184088E-1
2.101853386E0,1.292868853E-1,-8.655338287E0,-9.361328483E-1
2.106853386E0,8.571242094E-1,-1.019959831E1,-9.983820915E-1
2.111852719E0,1.493981838E0,-1.147570801E1,-1.103726983E0
2.116852819E0,1.867477298E0,-1.219157410E1,-1.266532660E0
2.121853719E0,1.774103403E0,-1.200722122E1,-1.458068848E0
2.126854585E0,1.505952835E0,-1.148289108E1,-1.637633920E0
2.131855251E0,1.132457376E0,-1.068322754E1,-1.802833915E0
2.136855551E0,8.283938169E-1,-9.957783699E0,-1.929726601E0
2.141855584E0,6.679822803E-1,-9.395146370E0,-1.987187386E0
2.146855584E0,6.248866320E-1,-9.074323654E0,-1.963245392E0
2.151855584E0,6.607996821E-1,-8.992920876E0,-1.862688899E0
2.156855550E0,7.374141216E-1,-9.088688850E0,-1.704671621E0
2.161855516E0,8.499416113E-1,-9.299378395E0,-1.496376038E0
2.166855482E0,9.624691010E-1,-9.498097420E0,-1.295263171E0
2.171855482E0,1.082179189E0,-9.665691376E0,-1.101332784E0
2.176855482E0,1.194706678E0,-9.783007622E0,-9.313444495E-1
2.181855515E0,1.297657371E0,-9.818920135E0,-7.709329724E-1
2.186855548E0,1.405396342E0,-9.809343338E0,-6.296750307E-1
2.191855581E0,1.510741234E0,-9.754277229E0,-5.051765442E-1
2.196855581E0,1.623268723E0,-9.687239647E0,-3.974374831E-1
2.201855581E0,1.738190413E0,-9.620202065E0,-3.088520169E-1
2.206855547E0,1.850717902E0,-9.565135002E0,-2.394201756E-1
2.211855547E0,1.956062794E0,-9.538799286E0,-1.867477298E-1
2.216855547E0,2.056619167E0,-9.531616211E0,-1.484405100E-1
2.221855580E0,2.149993181E0,-9.548376083E0,-1.268926859E-1
2.226855580E0,2.240972757E0,-9.579500198E0,-1.173158810E-1
2.231855580E0,2.334346771E0,-9.629778862E0,-1.173158810E-1
2.236855546E0,2.420537949E0,-9.680056572E0,-1.244984865E-1
2.241855512E0,2.501940727E0,-9.708786964E0,-1.364694983E-1
2.246855478E0,2.573766708E0,-9.706393242E0,-1.484405100E-1
2.251855478E0,2.631227732E0,-9.675268173E0,-1.604115069E-1
2.256855511E0,2.669534922E0,-9.608230591E0,-1.723825186E-1
2.261856211E0,2.681505919E0,-9.502885818E0,-1.819593310E-1
2.266856244E0,2.676717520E0,-9.402329445E0,-1.915361285E-1
2.271856244E0,2.669534922E0,-9.304166794E0,-2.106897533E-1
2.276856244E0,2.655169725E0,-9.220370293E0,-2.298433632E-1
2.281856210E0,2.633621931E0,-9.160514832E0,-2.561795712E-1
2.286856210E0,2.612074137E0,-9.129390717E0,-2.849099934E-1
2.291856210E0,2.600103140E0,-9.119813919E0,-3.112462163E-1
2.296856243E0,2.590526342E0,-9.129390717E0,-3.351882398E-1
2.301856276E0,2.585737944E0,-9.148544312E0,-3.519476354E-1
2.306856276E0,2.588132143E0,-9.177274704E0,-3.639186621E-1
2.311856276E0,2.597708941E0,-9.210793495E0,-3.687070608E-1
2.316856276E0,2.607285738E0,-9.244312286E0,-3.687070608E-1
2.321856276E0,2.621650934E0,-9.292196274E0,-3.639186621E-1
2.326856276E0,2.636016130E0,-9.337685585E0,-3.591302633E-1
2.331856242E0,2.652775526E0,-9.390357971E0,-3.495534360E-1
2.336856242E0,2.671929121E0,-9.457395554E0,-3.375824392E-1
2.341856242E0,2.679111719E0,-9.522039413E0,-3.232172430E-1
2.346856275E0,2.674323320E0,-9.565135002E0,-3.064578176E-1
2.351856275E0,2.655169725E0,-9.605836868E0,-2.873041928E-1
2.356856275E0,2.628833532E0,-9.639355659E0,-2.705447972E-1
2.361856241E0,2.590526342E0,-9.672874451E0,-2.537853718E-1
2.366856207E0,2.542642117E0,-9.694421768E0,-2.418143749E-1
2.371856173E0,2.477998734E0,-9.687239647E0,-2.394201756E-1
2.376856173E0,2.418143749E0,-9.675268173E0,-2.442085743E-1
2.381856206E0,2.351106167E0,-9.624990463E0,-2.561795712E-1
2.386856239E0,2.291250944E0,-9.548376083E0,-2.729389966E-1
2.391856272E0,2.245761156E0,-9.474155426E0,-2.992752194E-1
2.396856272E0,2.221819162E0,-9.409511566E0,-3.327940404E-1
2.401856272E0,2.207453966E0,-9.299378395E0,-3.687070608E-1
2.406856238E0,2.209848166E0,-9.227552414E0,-4.022258818E-1
2.411856238E0,2.236184359E0,-9.174880028E0,-4.405331016E-1
2.416856238E0,2.267308950E0,-9.150938034E0,-4.740519226E-1
2.421856271E0,2.310404539E0,-9.138967514E0,-5.075707436E-1
2.426856304E0,2.348711967E0,-9.117419243E0,-5.410895944E-1
2.431856304E0,2.379836559E0,-9.074323654E0,-5.746083856E-1
2.436856270E0,2.408566952E0,-9.024045944E0,-6.105214357E-1
2.441856236E0,2.446874142E0,-8.971372604E0,-6.464344859E-1
2.446856202E0,2.480392933E0,-8.928277016E0,-6.823474765E-1
2.451856168E0,2.513911724E0,-8.882787704E0,-7.182605267E-1
2.456856168E0,2.559401512E0,-8.844480515E0,-7.541735172E-1
2.461856201E0,2.616862535E0,-8.834903717E0,-7.876923680E-1
2.466856234E0,2.674323320E0,-8.846874237E0,-8.188169599E-1
2.471856267E0,2.750937700E0,-8.937853813E0,-8.547300100E-1
2.476856267E0,2.846705914E0,-9.076718330E0,-8.954314590E-1
2.481856267E0,2.928108692E0,-9.251494408E0,-9.313444495E-1
2.486856233E0,2.983175278E0,-9.452607155E0,-9.504981041E-1
2.491856233E0,3.009511471E0,-9.670479774E0,-9.552865028E-1
2.496856233E0,2.999934673E0,-9.900322914E0,-9.504981041E-1
2.501856266E0,2.928108692E0,-1.010861874E1,-9.361328483E-1
2.506856266E0,2.820369720E0,-1.028339577E1,-9.121908545E-1
2.511856266E0,2.636016130E0,-1.038634586E1,-8.667010069E-1
2.516856266E0,2.434903145E0,-1.043422985E1,-8.188169599E-1
2.521856266E0,2.205059767E0,-1.040071106E1,-7.613561153E-1
2.526856266E0,1.972822189E0,-1.032170296E1,-7.038952708E-1
2.531856232E0,1.762132406E0,-1.021875191E1,-6.464344859E-1
2.536856232E0,1.589749932E0,-1.011340714E1,-5.961562395E-1
2.541856232E0,1.465251446E0,-1.002003384E1,-5.578489900E-1
2.546856265E0,1.386242747E0,-9.950601578E0,-5.243301988E-1
2.551856298E0,1.343147159E0,-9.909899712E0,-4.908113480E-1
2.556856298E0,1.326387763E0,-9.888352394E0,-4.548983276E-1
2.561856264E0,1.328781962E0,-9.890746117E0,-3.998316824E-1
2.566856230E0,1.309628367E0,-9.909899712E0,-3.208230138E-1
2.571856230E0,1.256955862E0,-9.931447983E0,-1.843535304E-1
2.576856230E0,1.201889277E0,-9.938630104E0,-1.436521020E-2
2.581856263E0,1.177947283E0,-9.926659584E0,1.460463107E-1
2.586855363E0,1.359906554E0,-9.859622002E0,1.628057212E-1
2.591854496E0,1.515529633E0,-9.804554939E0,1.675941199E-1
2.596853629E0,1.647210717E0,-9.754277229E0,1.651999205E-1
2.601852762E0,1.759738207E0,-9.711181641E0,1.556231081E-1
2.606852762E0,1.855506301E0,-9.675268173E0,1.412578970E-1
2.611852728E0,1.958456993E0,-9.634567261E0,9.816227108E-2
2.616852728E0,2.061407566E0,-9.593865395E0,4.548983276E-2
2.621852728E0,2.173935175E0,-9.560346603E0,-3.112462163E-2
2.626852761E0,2.279279947E0,-9.526827812E0,-1.173158810E-1
2.631852761E0,2.375048161E0,-9.493309021E0,-2.035071403E-1
2.636852761E0,2.463633537E0,-9.471760750E0,-2.944868207E-1
2.641852727E0,2.545036316E0,-9.457395554E0,-3.902548850E-1
2.646852727E0,2.616862535E0,-9.447818756E0,-4.716577232E-1
2.651852727E0,2.683900118E0,-9.438241959E0,-5.530605912E-1
2.656852760E0,2.731784105E0,-9.428665161E0,-6.224924326E-1
2.661852760E0,2.767697096E0,-9.414299965E0,-6.871358752E-1
2.666852760E0,2.794033289E0,-9.397541046E0,-7.445967197E-1
2.671852760E0,2.803610086E0,-9.385569572E0,-7.972691655E-1
2.676852760E0,2.808398485E0,-9.373599052E0,-8.403648138E-1
2.681852760E0,2.803610086E0,-9.366415977E0,-8.786720037E-1
2.686852726E0,2.791639090E0,-9.359233856E0,-9.145850539E-1
2.691852692E0,2.772485495E0,-9.361627579E0,-9.481038451E-1
2.696852692E0,2.753331900E0,-9.366415977E0,-9.792284966E-1
2.701852692E0,2.736572504E0,-9.368810654E0,-1.007958889E0
2.706852725E0,2.717418909E0,-9.378387451E0,-1.034295082E0
2.711852725E0,2.679111719E0,-9.383175850E0,-1.060631394E0
2.716851858E0,2.643198729E0,-9.385569572E0,-1.082179189E0
2.721851824E0,2.612074137E0,-9.385569572E0,-1.098938584E0
2.726851824E0,2.568978310E0,-9.392752647E0,-1.108515382E0
2.731851824E0,2.513911724E0,-9.404723167E0,-1.113303781E0
2.736852757E0,2.458845139E0,-9.423876762E0,-1.115697980E0
2.741852757E0,2.396595955E0,-9.443030357E0,-1.118092179E0
2.746853623E0,2.334346771E0,-9.459790230E0,-1.122880578E0
2.751854489E0,2.279279947E0,-9.476549149E0,-1.127668977E0
2.756854489E0,2.233790159E0,-9.486125946E0,-1.130063176E0
2.761854489E0,2.188300371E0,-9.486125946E0,-1.130063176E0
2.766854455E0,2.152387381E0,-9.490914345E0,-1.130063176E0
2.771854455E0,2.126051188E0,-9.495702744E0,-1.130063176E0
2.776854455E0,2.102109194E0,-9.500492096E0,-1.122880578E0
2.781854488E0,2.075772762E0,-9.502885818E0,-1.110909581E0
2.786854488E0,2.059013367E0,-9.507674217E0,-1.089361787E0
2.791854488E0,2.044648170E0,-9.524434090E0,-1.063025594E0
2.796854454E0,2.032677174E0,-9.541193008E0,-1.036689281E0
2.801854420E0,2.023100376E0,-9.557952881E0,-1.005564690E0
2.806854386E0,2.018311977E0,-9.567529678E0,-9.720458984E-1
2.811854386E0,2.020706177E0,-9.577106476E0,-9.361328483E-1
2.816854386E0,2.025494576E0,-9.581894875E0,-9.002198577E-1
2.821854419E0,2.035071373E0,-9.584288597E0,-8.643068075E-1
2.826854452E0,2.047042370E0,-9.581894875E0,-8.307880163E-1
2.831854485E0,2.056619167E0,-9.577106476E0,-7.924807668E-1
2.836854485E0,2.066195965E0,-9.569923401E0,-7.541735172E-1
2.841854485E0,2.075772762E0,-9.562741280E0,-7.182605267E-1
2.846854451E0,2.090138197E0,-9.557952881E0,-6.847416759E-1
2.851854451E0,2.104503393E0,-9.555558205E0,-6.560112834E-1
2.856854451E0,2.121262789E0,-9.555558205E0,-6.296750307E-1
2.861854484E0,2.140416384E0,-9.555558205E0,-6.033388376E-1
2.866855350E0,2.149993181E0,-9.555558205E0,-5.770025849E-1
2.871855350E0,2.149993181E0,-9.548376083E0,-5.554547906E-1
2.876855316E0,2.154781580E0,-9.543587685E0,-5.386953950E-1
2.881855282E0,2.166752577E0,-9.543587685E0,-5.267243981E-1
2.886855248E0,2.188300371E0,-9.545981407E0,-5.195417404E-1
2.891856114E0,2.202665567E0,-9.545981407E0,-5.171475410E-1
2.896856147E0,2.219424963E0,-9.543587685E0,-5.171475410E-1
2.901856180E0,2.233790159E0,-9.526827812E0,-5.195417404E-1
2.906856213E0,2.245761156E0,-9.517251015E0,-5.267243981E-1
2.911856213E0,2.255337954E0,-9.507674217E0,-5.363011956E-1
2.916856213E0,2.260126352E0,-9.502885818E0,-5.506663918E-1
2.921856179E0,2.264914751E0,-9.498097420E0,-5.674257874E-1
2.926855479E0,2.272097349E0,-9.495702744E0,-5.865794420E-1
2.931854579E0,2.291250944E0,-9.495702744E0,-6.081272364E-1
2.936853712E0,2.310404539E0,-9.495702744E0,-6.344634295E-1
2.941852845E0,2.339135170E0,-9.493309021E0,-6.679822803E-1
2.946852178E0,2.365471363E0,-9.488520622E0,-7.015010715E-1
2.951851511E0,2.398990154E0,-9.474155426E0,-7.398083210E-1
2.956850611E0,2.430114746E0,-9.459790230E0,-7.781155705E-1
2.961849944E0,2.463633537E0,-9.440636635E0,-8.164227605E-1
2.966849044E0,2.489969730E0,-9.419088364E0,-8.523358107E-1
2.971848110E0,2.513911724E0,-9.402329445E0,-8.906430602E-1
2.976847443E0,2.530671120E0,-9.387964249E0,-9.241618514E-1
2.981847443E0,2.549824715E0,-9.380781174E0,-9.552865028E-1
2.986847043E0,2.564189911E0,-9.383175850E0,-9.816226959E-1
2.991847043E0,2.576161146E0,-9.387964249E0,-1.005564690E0
2.996847043E0,2.585737944E0,-9.399934769E0,-1.022324085E0
3.001847009E0,2.590526342E0,-9.409511566E0,-1.041477680E0
3.006846342E0,2.592920542E0,-9.423876762E0,-1.055842996E0
3.011846342E0,2.585737944E0,-9.431059837E0,-1.060631394E0
3.016846375E0,2.578555346E0,-9.431059837E0,-1.063025594E0
3.021846375E0,2.559401512E0,-9.431059837E0,-1.063025594E0
3.026846375E0,2.533065319E0,-9.428665161E0,-1.058237195E0
3.031846375E0,2.501940727E0,-9.419088364E0,-1.048660398E0
3.036845975E0,2.477998734E0,-9.409511566E0,-1.043871999E0
3.041845075E0,2.449268341E0,-9.402329445E0,-1.039083481E0
3.046844541E0,2.427720547E0,-9.404723167E0,-1.034295082E0
3.051844507E0,2.410961151E0,-9.416694641E0,-1.034295082E0
3.056844507E0,2.406172752E0,-9.431059837E0,-1.036689281E0
3.061844540E0,2.401384354E0,-9.443030357E0,-1.041477680E0
3.066844573E0,2.401384354E0,-9.459790230E0,-1.046266198E0
3.071844573E0,2.403778553E0,-9.471760750E0,-1.048660398E0
3.076845239E0,2.406172752E0,-9.481337547E0,-1.051054597E0
3.081846105E0,2.410961151E0,-9.483732224E0,-1.053448796E0
3.086846971E0,2.418143749E0,-9.481337547E0,-1.053448796E0
3.091847837E0,2.425326347E0,-9.476549149E0,-1.043871999E0
3.096848503E0,2.427720547E0,-9.471760750E0,-1.031900883E0
3.101849203E0,2.432508945E0,-9.469367027E0,-1.017535686E0
3.106850136E0,2.432508945E0,-9.464578629E0,-9.983820915E-1
3.111850836E0,2.425326347E0,-9.464578629E0,-9.720458984E-1
3.116851736E0,2.415749550E0,-9.464578629E0,-9.481038451E-1
3.121852636E0,2.406172752E0,-9.464578629E0,-9.193734527E-1
3.126853269E0,2.396595955E0,-9.464578629E0,-8.930372596E-1
3.131853269E0,2.384624958E0,-9.462183952E0,-8.643068075E-1
3.136853702E0,2.367865562E0,-9.462183952E0,-8.379706144E-1
3.141853735E0,2.358288765E0,-9.457395554E0,-8.188169599E-1
3.146853735E0,2.353500366E0,-9.452607155E0,-8.020575643E-1
3.151853735E0,2.348711967E0,-9.457395554E0,-7.924807668E-1
3.156854368E0,2.343923569E0,-9.466972351E0,-7.876923680E-1
3.161854334E0,2.336740971E0,-9.478943825E0,-7.900865674E-1
3.166854300E0,2.329558372E0,-9.488520622E0,-7.972691655E-1
3.171854300E0,2.331952572E0,-9.495702744E0,-8.116343617E-1
3.176854300E0,2.334346771E0,-9.500492096E0,-8.283938169E-1
3.181854333E0,2.331952572E0,-9.500492096E0,-8.451532125E-1
3.186854766E0,2.331952572E0,-9.502885818E0,-8.619126081E-1
3.191855699E0,2.329558372E0,-9.502885818E0,-8.834604025E-1
3.196856199E0,2.329558372E0,-9.502885818E0,-9.026140571E-1
3.201856199E0,2.329558372E0,-9.493309021E0,-9.193734527E-1
3.206856165E0,2.324769735E0,-9.483732224E0,-9.385270476E-1
3.211856165E0,2.319981337E0,-9.466972351E0,-9.600749016E-1
3.216856165E0,2.310404539E0,-9.459790230E0,-9.792284966E-1
3.221856198E0,2.308010340E0,-9.457395554E0,-9.983820915E-1
3.226856198E0,2.310404539E0,-9.459790230E0,-1.015141487E0
3.231856198E0,2.317587137E0,-9.471760750E0,-1.027112484E0
3.236856198E0,2.324769735E0,-9.483732224E0,-1.036689281E0
3.241856198E0,2.339135170E0,-9.483732224E0,-1.043871999E0
3.246856198E0,2.351106167E0,-9.474155426E0,-1.053448796E0
3.251856164E0,2.367865562E0,-9.474155426E0,-1.063025594E0
3.256856164E0,2.382230759E0,-9.478943825E0,-1.067813993E0
3.261856164E0,2.387019157E0,-9.495702744E0,-1.070208192E0
3.266856197E0,2.391807556E0,-9.514857292E0,-1.072602391E0
3.271856197E0,2.403778553E0,-9.529222488E0,-1.074996591E0
3.276856197E0,2.418143749E0,-9.534010887E0,-1.079784989E0
3.281856163E0,2.454056740E0,-9.526827812E0,-1.091755986E0
3.286856129E0,2.499546528E0,-9.510068893E0,-1.108515382E0
3.291856095E0,2.554613113E0,-9.478943825E0,-1.120486379E0
3.296856095E0,2.616862535E0,-9.438241959E0,-1.132457376E0
3.301856095E0,2.669534922E0,-9.402329445E0,-1.134851575E0
3.306856128E0,2.710236311E0,-9.368810654E0,-1.134851575E0
3.311856161E0,2.741360903E0,-9.337685585E0,-1.125274777E0
3.316856194E0,2.765302896E0,-9.316138268E0,-1.113303781E0
3.321856194E0,2.777273893E0,-9.301773071E0,-1.089361787E0
3.326856194E0,2.782062292E0,-9.296984673E0,-1.063025594E0
3.331856160E0,2.777273893E0,-9.299378395E0,-1.029506683E0
3.336856160E0,2.770091295E0,-9.308955193E0,-1.000776291E0
3.341856160E0,2.750937700E0,-9.320926666E0,-9.672574997E-1
3.346856193E0,2.717418909E0,-9.340080261E0,-9.337386489E-1
3.351856193E0,2.671929121E0,-9.352050781E0,-9.002198577E-1
3.356856193E0,2.621650934E0,-9.366415977E0,-8.714894056E-1
3.361856159E0,2.564189911E0,-9.380781174E0,-8.499416113E-1
3.366855859E0,2.504334927E0,-9.399934769E0,-8.355764151E-1
3.371855825E0,2.449268341E0,-9.419088364E0,-8.259995580E-1
3.376855825E0,2.394201756E0,-9.435848236E0,-8.259995580E-1
3.381855858E0,2.336740971E0,-9.447818756E0,-8.379706144E-1
3.386855891E0,2.279279947E0,-9.462183952E0,-8.571242094E-1
3.391855924E0,2.231395960E0,-9.478943825E0,-8.834604025E-1
3.396855924E0,2.185906172E0,-9.493309021E0,-9.097966552E-1
3.401855924E0,2.149993181E0,-9.502885818E0,-9.385270476E-1
3.406855890E0,2.126051188E0,-9.517251015E0,-9.696516991E-1
3.411855890E0,2.109291792E0,-9.531616211E0,-9.959878922E-1
3.416855890E0,2.094926596E0,-9.543587685E0,-1.015141487E0
3.421855923E0,2.087743998E0,-9.550769806E0,-1.029506683E0
3.426855956E0,2.085349798E0,-9.553164482E0,-1.034295082E0
3.431855956E0,2.099714994E0,-9.550769806E0,-1.027112484E0
3.436855956E0,2.121262789E0,-9.548376083E0,-1.015141487E0
3.441855956E0,2.145204782E0,-9.538799286E0,-9.983820915E-1
3.446855956E0,2.176329374E0,-9.531616211E0,-9.768342972E-1
3.451855956E0,2.209848166E0,-9.522039413E0,-9.552865028E-1
3.456855922E0,2.248155355E0,-9.510068893E0,-9.313444495E-1
3.461855922E0,2.288856745E0,-9.500492096E0,-9.145850539E-1
3.466857022E0,2.331952572E0,-9.488520622E0,-9.002198577E-1
3.471856655E0,2.372653961E0,-9.478943825E0,-8.858546019E-1
3.476856655E0,2.406172752E0,-9.464578629E0,-8.738836050E-1
3.481856655E0,2.442085743E0,-9.457395554E0,-8.690952063E-1
3.486856621E0,2.475604534E0,-9.455001831E0,-8.643068075E-1
3.491856587E0,2.504334927E0,-9.459790230E0,-8.667010069E-1
3.496856553E0,2.533065319E0,-9.462183952E0,-8.690952063E-1
3.501856553E0,2.557007313E0,-9.459790230E0,-8.690952063E-1
3.506856586E0,2.573766708E0,-9.450213432E0,-8.714894056E-1
3.511856619E0,2.580949545E0,-9.426271439E0,-8.738836050E-1
3.516856919E0,2.573766708E0,-9.404723167E0,-8.762778044E-1
3.521856919E0,2.559401512E0,-9.385569572E0,-8.786720037E-1
3.526856919E0,2.545036316E0,-9.375992775E0,-8.786720037E-1
3.531856885E0,2.525882721E0,-9.383175850E0,-8.810662031E-1
3.536856885E0,2.501940727E0,-9.402329445E0,-8.906430602E-1
3.541856885E0,2.477998734E0,-9.426271439E0,-8.978256583E-1
3.546856918E0,2.451662540E0,-9.452607155E0,-9.074024558E-1
3.551856951E0,2.420537949E0,-9.476549149E0,-9.193734527E-1
3.556856951E0,2.391807556E0,-9.498097420E0,-9.337386489E-1
3.561856917E0,2.365471363E0,-9.512462616E0,-9.504981041E-1
3.566856883E0,2.341529369E0,-9.526827812E0,-9.672574997E-1
3.571856849E0,2.327163935E0,-9.534010887E0,-9.840168953E-1
3.576856815E0,2.315192938E0,-9.545981407E0,-9.983820915E-1
3.581856815E0,2.303221941E0,-9.550769806E0,-1.012747288E0
3.586856848E0,2.293645144E0,-9.553164482E0,-1.027112484E0
3.591856881E0,2.284068346E0,-9.545981407E0,-1.039083481E0
3.596856914E0,2.274491549E0,-9.534010887E0,-1.043871999E0
3.601856914E0,2.269703150E0,-9.514857292E0,-1.041477680E0
3.606856914E0,2.264914751E0,-9.493309021E0,-1.036689281E0
3.611856880E0,2.252943754E0,-9.471760750E0,-1.022324085E0
3.616855780E0,2.243366957E0,-9.457395554E0,-1.005564690E0
3.621856180E0,2.243366957E0,-9.450213432E0,-9.840168953E-1
3.626856213E0,2.240972757E0,-9.452607155E0,-9.624691010E-1
3.631856213E0,2.238578558E0,-9.455001831E0,-9.457096457E-1
3.636856213E0,2.243366957E0,-9.462183952E0,-9.289502501E-1
3.641856213E0,2.250549555E0,-9.471760750E0,-9.169792533E-1
3.646856213E0,2.260126352E0,-9.476549149E0,-9.074024558E-1
3.651856213E0,2.274491549E0,-9.481337547E0,-9.026140571E-1
3.656856179E0,2.284068346E0,-9.488520622E0,-9.050082564E-1
3.661856179E0,2.296039343E0,-9.493309021E0,-9.026140571E-1
3.666856179E0,2.305616140E0,-9.495702744E0,-9.002198577E-1
3.671856212E0,2.312798738E0,-9.505280495E0,-9.026140571E-1
3.676856245E0,2.324769735E0,-9.507674217E0,-9.026140571E-1
3.684664575E0,2.336740971E0,-9.512462616E0,-9.050082564E-1
3.689664541E0,2.346317768E0,-9.510068893E0,-9.026140571E-1
3.694664507E0,2.355894566E0,-9.505280495E0,-9.026140571E-1
3.699664507E0,2.363077164E0,-9.498097420E0,-8.954314590E-1
3.704664507E0,2.365471363E0,-9.483732224E0,-8.858546019E-1
3.709664540E0,2.370259762E0,-9.469367027E0,-8.762778044E-1
3.714664540E0,2.375048161E0,-9.457395554E0,-8.619126081E-1
3.719664540E0,2.377442360E0,-9.447818756E0,-8.475474119E-1
3.724664540E0,2.384624958E0,-9.440636635E0,-8.307880163E-1
3.729664540E0,2.387019157E0,-9.433453560E0,-8.164227605E-1
3.734664540E0,2.387019157E0,-9.433453560E0,-8.044517636E-1
3.739664506E0,2.391807556E0,-9.431059837E0,-7.948749661E-1
3.744664506E0,2.401384354E0,-9.428665161E0,-7.924807668E-1
3.749664506E0,2.413355350E0,-9.428665161E0,-7.948749661E-1
3.754664539E0,2.427720547E0,-9.433453560E0,-7.996633649E-1
3.759664539E0,2.442085743E0,-9.435848236E0,-8.116343617E-1
3.764664539E0,2.456450939E0,-9.435848236E0,-8.259995580E-1
3.769664505E0,2.468421936E0,-9.435848236E0,-8.427590132E-1
3.774664505E0,2.480392933E0,-9.438241959E0,-8.571242094E-1
3.779664505E0,2.487575531E0,-9.440636635E0,-8.738836050E-1
3.784664538E0,2.492363930E0,-9.447818756E0,-8.930372596E-1
3.789664538E0,2.492363930E0,-9.443030357E0,-9.097966552E-1
3.794664538E0,2.489969730E0,-9.443030357E0,-9.289502501E-1
3.799664538E0,2.487575531E0,-9.438241959E0,-9.433154464E-1
3.804664538E0,2.482787132E0,-9.435848236E0,-9.648633003E-1
3.809664538E0,2.480392933E0,-9.433453560E0,-9.816226959E-1
3.814664504E0,2.475604534E0,-9.431059837E0,-9.983820915E-1
3.819664470E0,2.470816135E0,-9.433453560E0,-1.012747288E0
3.824664470E0,2.463633537E0,-9.433453560E0,-1.027112484E0
3.829664470E0,2.451662540E0,-9.431059837E0,-1.034295082E0
3.834664503E0,2.439691544E0,-9.421483040E0,-1.041477680E0
3.839664503E0,2.432508945E0,-9.414299965E0,-1.048660398E0
3.844664503E0,2.418143749E0,-9.395146370E0,-1.053448796E0
3.849664469E0,2.408566952E0,-9.380781174E0,-1.055842996E0
3.854664469E0,2.408566952E0,-9.371204376E0,-1.060631394E0
3.859664469E0,2.415749550E0,-9.375992775E0,-1.065419793E0
3.864664502E0,2.430114746E0,-9.397541046E0,-1.072602391E0
3.869664502E0,2.446874142E0,-9.423876762E0,-1.082179189E0
3.874664502E0,2.463633537E0,-9.447818756E0,-1.086967587E0
3.879664502E0,2.475604534E0,-9.462183952E0,-1.089361787E0
3.884664502E0,2.485181332E0,-9.466972351E0,-1.082179189E0
3.889664502E0,2.487575531E0,-9.457395554E0,-1.072602391E0
3.894664468E0,2.482787132E0,-9.443030357E0,-1.058237195E0
3.899664468E0,2.477998734E0,-9.428665161E0,-1.039083481E0
3.904664468E0,2.466027737E0,-9.421483040E0,-1.015141487E0
3.909664501E0,2.461239338E0,-9.419088364E0,-9.935936928E-1
3.914664501E0,2.456450939E0,-9.421483040E0,-9.672574997E-1
3.919664501E0,2.451662540E0,-9.428665161E0,-9.433154464E-1
3.924664101E0,2.451662540E0,-9.435848236E0,-9.241618514E-1
3.929663401E0,2.454056740E0,-9.445425034E0,-9.121908545E-1
3.934662701E0,2.456450939E0,-9.450213432E0,-9.050082564E-1
3.939662034E0,2.466027737E0,-9.447818756E0,-9.002198577E-1
3.944662034E0,2.475604534E0,-9.450213432E0,-9.050082564E-1
3.949661167E0,2.477998734E0,-9.445425034E0,-9.097966552E-1
3.954660533E0,2.482787132E0,-9.438241959E0,-9.145850539E-1
3.959659666E0,2.487575531E0,-9.431059837E0,-9.193734527E-1
3.964658766E0,2.485181332E0,-9.426271439E0,-9.217676520E-1
3.969657866E0,2.489969730E0,-9.419088364E0,-9.241618514E-1
3.974657166E0,2.489969730E0,-9.416694641E0,-9.241618514E-1
3.979656266E0,2.489969730E0,-9.411906242E0,-9.241618514E-1
3.984656266E0,2.494758129E0,-9.409511566E0,-9.241618514E-1
3.989656299E0,2.501940727E0,-9.414299965E0,-9.217676520E-1
3.994656299E0,2.506729126E0,-9.416694641E0,-9.217676520E-1
3.999655632E0,2.511517525E0,-9.423876762E0,-9.217676520E-1
4.004655598E0,2.521094322E0,-9.423876762E0,-9.265560508E-1
4.009655164E0,2.530671120E0,-9.423876762E0,-9.265560508E-1
4.014655130E0,2.535459518E0,-9.426271439E0,-9.265560508E-1
4.019655130E0,2.537853718E0,-9.426271439E0,-9.289502501E-1
4.024655863E0,2.540247917E0,-9.423876762E0,-9.313444495E-1
4.029655229E0,2.535459518E0,-9.416694641E0,-9.313444495E-1
4.034655262E0,2.530671120E0,-9.411906242E0,-9.337386489E-1
4.039655262E0,2.528276920E0,-9.402329445E0,-9.361328483E-1
4.044654862E0,2.530671120E0,-9.402329445E0,-9.361328483E-1
4.049654828E0,2.528276920E0,-9.402329445E0,-9.361328483E-1
4.054654794E0,2.528276920E0,-9.409511566E0,-9.385270476E-1
4.059654794E0,2.525882721E0,-9.416694641E0,-9.433154464E-1
4.064654827E0,2.523488522E0,-9.423876762E0,-9.481038451E-1
4.069654860E0,2.523488522E0,-9.426271439E0,-9.504981041E-1
4.074655226E0,2.523488522E0,-9.426271439E0,-9.528923035E-1
4.079655892E0,2.516305923E0,-9.426271439E0,-9.504981041E-1
4.084656425E0,2.497152328E0,-9.404723167E0,-9.457096457E-1
4.089657091E0,2.482787132E0,-9.385569572E0,-9.385270476E-1
4.094657091E0,2.482787132E0,-9.385569572E0,-9.313444495E-1
4.099657724E0,2.487575531E0,-9.399934769E0,-9.241618514E-1
4.104658390E0,2.497152328E0,-9.428665161E0,-9.193734527E-1
4.109659290E0,2.513911724E0,-9.455001831E0,-9.193734527E-1
4.114660223E0,2.530671120E0,-9.478943825E0,-9.217676520E-1
4.119661123E0,2.542642117E0,-9.488520622E0,-9.265560508E-1
4.124661789E0,2.549824715E0,-9.488520622E0,-9.337386489E-1
4.129661989E0,2.542642117E0,-9.478943825E0,-9.337386489E-1
4.134661989E0,2.533065319E0,-9.462183952E0,-9.241618514E-1
4.139661989E0,2.516305923E0,-9.443030357E0,-9.121908545E-1
4.144662022E0,2.492363930E0,-9.423876762E0,-9.002198577E-1
4.149662688E0,2.470816135E0,-9.409511566E0,-8.858546019E-1
4.154662688E0,2.444479942E0,-9.402329445E0,-8.738836050E-1
4.159663088E0,2.425326347E0,-9.404723167E0,-8.690952063E-1
4.164663088E0,2.413355350E0,-9.407117844E0,-8.643068075E-1
4.169663088E0,2.396595955E0,-9.414299965E0,-8.667010069E-1
4.174662354E0,2.379836559E0,-9.416694641E0,-8.738836050E-1
4.179662987E0,2.367865562E0,-9.416694641E0,-8.834604025E-1
4.184662987E0,2.358288765E0,-9.414299965E0,-8.954314590E-1
4.189663020E0,2.351106167E0,-9.407117844E0,-9.074024558E-1
4.194663453E0,2.343923569E0,-9.399934769E0,-9.169792533E-1
4.199663453E0,2.334346771E0,-9.395146370E0,-9.265560508E-1
4.204663453E0,2.324769735E0,-9.392752647E0,-9.313444495E-1
4.209663419E0,2.322375536E0,-9.395146370E0,-9.361328483E-1
4.214663419E0,2.319981337E0,-9.399934769E0,-9.313444495E-1
4.219663419E0,2.317587137E0,-9.409511566E0,-9.289502501E-1
4.224663452E0,2.312798738E0,-9.419088364E0,-9.265560508E-1
4.229663452E0,2.312798738E0,-9.428665161E0,-9.169792533E-1
4.234663585E0,2.317587137E0,-9.438241959E0,-9.097966552E-1
4.239663585E0,2.319981337E0,-9.445425034E0,-9.050082564E-1
4.244663585E0,2.319981337E0,-9.459790230E0,-9.002198577E-1
4.249663818E0,2.315192938E0,-9.474155426E0,-8.906430602E-1
4.254663784E0,2.310404539E0,-9.493309021E0,-8.834604025E-1
4.259663784E0,2.303221941E0,-9.505280495E0,-8.762778044E-1
4.264663784E0,2.296039343E0,-9.517251015E0,-8.714894056E-1
4.269663817E0,2.291250944E0,-9.524434090E0,-8.667010069E-1
4.274663817E0,2.286462545E0,-9.524434090E0,-8.619126081E-1
4.279664483E0,2.284068346E0,-9.522039413E0,-8.619126081E-1
4.284664449E0,2.276885748E0,-9.514857292E0,-8.619126081E-1
4.289664415E0,2.276885748E0,-9.512462616E0,-8.595184088E-1
4.294664381E0,2.284068346E0,-9.510068893E0,-8.595184088E-1
4.299664381E0,2.293645144E0,-9.505280495E0,-8.619126081E-1
4.304664381E0,2.308010340E0,-9.502885818E0,-8.643068075E-1
4.309664414E0,2.324769735E0,-9.498097420E0,-8.667010069E-1
4.314664447E0,2.348711967E0,-9.498097420E0,-8.667010069E-1
4.319664480E0,2.370259762E0,-9.502885818E0,-8.667010069E-1
4.324664480E0,2.396595955E0,-9.507674217E0,-8.690952063E-1
4.329664480E0,2.420537949E0,-9.507674217E0,-8.714894056E-1
4.334664446E0,2.439691544E0,-9.502885818E0,-8.714894056E-1
4.339664446E0,2.456450939E0,-9.500492096E0,-8.738836050E-1
4.344664446E0,2.475604534E0,-9.493309021E0,-8.786720037E-1
4.349664479E0,2.487575531E0,-9.486125946E0,-8.858546019E-1
4.354664479E0,2.501940727E0,-9.476549149E0,-8.954314590E-1
4.359664479E0,2.516305923E0,-9.466972351E0,-9.050082564E-1
4.364664445E0,2.530671120E0,-9.462183952E0,-9.193734527E-1
4.369664411E0,2.537853718E0,-9.459790230E0,-9.361328483E-1
4.374664377E0,2.545036316E0,-9.450213432E0,-9.552865028E-1
4.379664377E0,2.547430515E0,-9.443030357E0,-9.744400978E-1
4.384664410E0,2.545036316E0,-9.433453560E0,-9.983820915E-1
4.389664443E0,2.547430515E0,-9.426271439E0,-1.019929886E0
4.394664476E0,2.549824715E0,-9.419088364E0,-1.043871999E0
4.399664476E0,2.554613113E0,-9.407117844E0,-1.067813993E0
4.404664476E0,2.559401512E0,-9.392752647E0,-1.084573388E0
4.409664442E0,2.564189911E0,-9.380781174E0,-1.098938584E0
4.414664442E0,2.564189911E0,-9.371204376E0,-1.110909581E0
4.419664442E0,2.564189911E0,-9.366415977E0,-1.115697980E0
4.424664475E0,2.559401512E0,-9.366415977E0,-1.110909581E0
4.429664508E0,2.552218914E0,-9.366415977E0,-1.103726983E0
4.434664508E0,2.540247917E0,-9.375992775E0,-1.086967587E0
4.439664508E0,2.535459518E0,-9.387964249E0,-1.070208192E0
4.444664508E0,2.533065319E0,-9.392752647E0,-1.048660398E0
4.449664508E0,2.528276920E0,-9.402329445E0,-1.027112484E0
4.454664508E0,2.525882721E0,-9.409511566E0,-1.010353088E0
4.459664474E0,2.525882721E0,-9.416694641E0,-9.959878922E-1
4.464664474E0,2.525882721E0,-9.423876762E0,-9.816226959E-1
4.469664474E0,2.521094322E0,-9.428665161E0,-9.648633003E-1
4.474664507E0,2.516305923E0,-9.433453560E0,-9.481038451E-1
4.479664507E0,2.509123325E0,-9.440636635E0,-9.313444495E-1
4.484664507E0,2.499546528E0,-9.443030357E0,-9.097966552E-1
4.489664473E0,2.489969730E0,-9.447818756E0,-8.882488012E-1
4.494664473E0,2.480392933E0,-9.455001831E0,-8.667010069E-1
4.499664473E0,2.468421936E0,-9.464578629E0,-8.451532125E-1
4.504664506E0,2.454056740E0,-9.471760750E0,-8.259995580E-1
4.509664506E0,2.442085743E0,-9.476549149E0,-8.044517636E-1
4.514664506E0,2.430114746E0,-9.478943825E0,-7.852981687E-1
4.519664506E0,2.418143749E0,-9.481337547E0,-7.661445141E-1
4.524664506E0,2.406172752E0,-9.476549149E0,-7.493851185E-1
4.529664506E0,2.394201756E0,-9.469367027E0,-7.350199223E-1
4.534664472E0,2.389413357E0,-9.459790230E0,-7.278373241E-1
4.539664472E0,2.387019157E0,-9.455001831E0,-7.230489254E-1
4.544664472E0,2.389413357E0,-9.452607155E0,-7.230489254E-1
4.549664505E0,2.391807556E0,-9.450213432E0,-7.254431248E-1
4.554664538E0,2.396595955E0,-9.447818756E0,-7.398083210E-1
4.559664538E0,2.403778553E0,-9.452607155E0,-7.541735172E-1
4.564664504E0,2.413355350E0,-9.450213432E0,-7.733271718E-1
4.569664470E0,2.418143749E0,-9.450213432E0,-7.900865674E-1
4.574664436E0,2.422932148E0,-9.455001831E0,-8.068459630E-1
4.579664402E0,2.425326347E0,-9.459790230E0,-8.236053586E-1
4.584664402E0,2.425326347E0,-9.464578629E0,-8.403648138E-1
4.589664435E0,2.422932148E0,-9.466972351E0,-8.547300100E-1
4.594664468E0,2.415749550E0,-9.471760750E0,-8.667010069E-1
4.599664501E0,2.398990154E0,-9.474155426E0,-8.762778044E-1
4.604664501E0,2.387019157E0,-9.471760750E0,-8.834604025E-1
4.609664501E0,2.375048161E0,-9.471760750E0,-8.906430602E-1
4.614664467E0,2.358288765E0,-9.471760750E0,-8.978256583E-1
4.619664467E0,2.341529369E0,-9.471760750E0,-9.026140571E-1
4.624664467E0,2.322375536E0,-9.476549149E0,-9.074024558E-1
4.629664500E0,2.303221941E0,-9.478943825E0,-9.074024558E-1
4.634664500E0,2.288856745E0,-9.481337547E0,-9.074024558E-1
4.639664500E0,2.279279947E0,-9.488520622E0,-9.074024558E-1
4.644664466E0,2.274491549E0,-9.495702744E0,-9.026140571E-1
4.649664432E0,2.262520552E0,-9.498097420E0,-8.930372596E-1
4.654664398E0,2.255337954E0,-9.502885818E0,-8.834604025E-1
4.659664398E0,2.250549555E0,-9.505280495E0,-8.714894056E-1
4.664664431E0,2.248155355E0,-9.507674217E0,-8.523358107E-1
4.669664464E0,2.243366957E0,-9.510068893E0,-8.331822157E-1
4.674664497E0,2.240972757E0,-9.512462616E0,-8.116343617E-1
4.679664530E0,2.236184359E0,-9.514857292E0,-7.924807668E-1
4.684664530E0,2.240972757E0,-9.519645691E0,-7.685387731E-1
4.689664496E0,2.243366957E0,-9.522039413E0,-7.445967197E-1
4.694664462E0,2.245761156E0,-9.517251015E0,-7.206547260E-1
4.699664462E0,2.250549555E0,-9.510068893E0,-6.943184733E-1
4.704664462E0,2.255337954E0,-9.502885818E0,-6.727706790E-1
4.709664495E0,2.255337954E0,-9.500492096E0,-6.512228847E-1
4.714664495E0,2.260126352E0,-9.493309021E0,-6.344634295E-1
4.719664495E0,2.269703150E0,-9.486125946E0,-6.200982332E-1
4.724664495E0,2.281674147E0,-9.483732224E0,-6.105214357E-1
4.729664495E0,2.291250944E0,-9.481337547E0,-6.033388376E-1
4.734664495E0,2.303221941E0,-9.481337547E0,-5.985504389E-1
4.739664461E0,2.317587137E0,-9.483732224E0,-6.009446383E-1
4.744664461E0,2.331952572E0,-9.490914345E0,-6.033388376E-1
4.749664461E0,2.341529369E0,-9.493309021E0,-6.081272364E-1
4.754664494E0,2.343923569E0,-9.498097420E0,-6.105214357E-1
4.759664494E0,2.339135170E0,-9.500492096E0,-6.129156351E-1
4.764664494E0,2.336740971E0,-9.502885818E0,-6.153098345E-1
4.769664460E0,2.329558372E0,-9.500492096E0,-6.153098345E-1
4.774664460E0,2.322375536E0,-9.495702744E0,-6.153098345E-1
4.779664460E0,2.319981337E0,-9.488520622E0,-6.200982332E-1
4.784664493E0,2.319981337E0,-9.481337547E0,-6.272808313E-1
4.789664493E0,2.319981337E0,-9.471760750E0,-6.368576288E-1
4.794664493E0,2.317587137E0,-9.464578629E0,-6.512228847E-1
4.799664493E0,2.319981337E0,-9.455001831E0,-6.655880809E-1
4.804664493E0,2.324769735E0,-9.450213432E0,-6.847416759E-1
4.809664493E0,2.329558372E0,-9.447818756E0,-7.038952708E-1
4.814664459E0,2.331952572E0,-9.440636635E0,-7.230489254E-1
4.819664425E0,2.331952572E0,-9.433453560E0,-7.422025204E-1
4.824664425E0,2.336740971E0,-9.428665161E0,-7.637503147E-1
4.829664425E0,2.341529369E0,-9.428665161E0,-7.829039693E-1
4.834664458E0,2.343923569E0,-9.428665161E0,-8.020575643E-1
4.839664458E0,2.351106167E0,-9.431059837E0,-8.212111592E-1
4.844664458E0,2.355894566E0,-9.438241959E0,-8.379706144E-1
4.849664424E0,2.363077164E0,-9.445425034E0,-8.523358107E-1
4.854664424E0,2.365471363E0,-9.452607155E0,-8.619126081E-1
4.859664424E0,2.365471363E0,-9.457395554E0,-8.690952063E-1
4.864664457E0,2.365471363E0,-9.462183952E0,-8.738836050E-1
4.869664457E0,2.363077164E0,-9.464578629E0,-8.762778044E-1
4.874664457E0,2.360682964E0,-9.471760750E0,-8.738836050E-1
4.879664457E0,2.355894566E0,-9.474155426E0,-8.714894056E-1
4.884664457E0,2.348711967E0,-9.476549149E0,-8.667010069E-1
4.889664457E0,2.336740971E0,-9.481337547E0,-8.595184088E-1
4.894664423E0,2.327163935E0,-9.483732224E0,-8.523358107E-1
4.899664423E0,2.315192938E0,-9.483732224E0,-8.475474119E-1
4.904664423E0,2.308010340E0,-9.481337547E0,-8.379706144E-1
4.909664456E0,2.303221941E0,-9.481337547E0,-8.331822157E-1
4.914664456E0,2.303221941E0,-9.478943825E0,-8.307880163E-1
4.919664456E0,2.303221941E0,-9.478943825E0,-8.283938169E-1
4.924664422E0,2.305616140E0,-9.471760750E0,-8.236053586E-1
4.929663722E0,2.312798738E0,-9.464578629E0,-8.236053586E-1
4.934663055E0,2.322375536E0,-9.462183952E0,-8.212111592E-1
4.939663088E0,2.336740971E0,-9.462183952E0,-8.188169599E-1
4.944662988E0,2.355894566E0,-9.464578629E0,-8.188169599E-1
4.949662988E0,2.372653961E0,-9.466972351E0,-8.212111592E-1
4.954662321E0,2.391807556E0,-9.464578629E0,-8.212111592E-1
4.959661421E0,2.410961151E0,-9.462183952E0,-8.188169599E-1
4.964660521E0,2.430114746E0,-9.459790230E0,-8.140285611E-1
4.969659621E0,2.446874142E0,-9.455001831E0,-8.140285611E-1
4.974658687E0,2.458845139E0,-9.452607155E0,-8.092401624E-1
4.979657787E0,2.470816135E0,-9.450213432E0,-8.044517636E-1
4.984657787E0,2.477998734E0,-9.450213432E0,-8.020575643E-1
4.989657820E0,2.482787132E0,-9.450213432E0,-7.972691655E-1
4.994657153E0,2.482787132E0,-9.452607155E0,-7.924807668E-1
4.999656486E0,2.485181332E0,-9.455001831E0,-7.876923680E-1
5.004656452E0,2.482787132E0,-9.455001831E0,-7.876923680E-1
5.009656418E0,2.477998734E0,-9.452607155E0,-7.852981687E-1
5.014656384E0,2.470816135E0,-9.459790230E0,-7.900865674E-1
5.019656384E0,2.458845139E0,-9.462183952E0,-7.900865674E-1
5.024656150E0,2.444479942E0,-9.469367027E0,-7.924807668E-1
5.029655516E0,2.432508945E0,-9.474155426E0,-7.972691655E-1
5.034655716E0,2.420537949E0,-9.478943825E0,-7.996633649E-1
5.039655716E0,2.408566952E0,-9.474155426E0,-8.092401624E-1
5.044655716E0,2.401384354E0,-9.464578629E0,-8.140285611E-1
5.049655682E0,2.398990154E0,-9.455001831E0,-8.140285611E-1
5.054655648E0,2.394201756E0,-9.447818756E0,-8.164227605E-1
5.059655648E0,2.391807556E0,-9.443030357E0,-8.188169599E-1
5.064655681E0,2.401384354E0,-9.438241959E0,-8.236053586E-1
5.069655714E0,2.418143749E0,-9.438241959E0,-8.355764151E-1
5.074655714E0,2.434903145E0,-9.440636635E0,-8.427590132E-1
5.079656380E0,2.454056740E0,-9.435848236E0,-8.499416113E-1
5.084657013E0,2.466027737E0,-9.435848236E0,-8.547300100E-1
5.089656979E0,2.482787132E0,-9.435848236E0,-8.619126081E-1
5.094657079E0,2.497152328E0,-9.431059837E0,-8.643068075E-1
5.099657079E0,2.511517525E0,-9.431059837E0,-8.643068075E-1
5.104657779E0,2.523488522E0,-9.433453560E0,-8.619126081E-1
5.109658712E0,2.528276920E0,-9.433453560E0,-8.571242094E-1
5.114659645E0,2.530671120E0,-9.435848236E0,-8.475474119E-1
5.119659878E0,2.525882721E0,-9.431059837E0,-8.451532125E-1
5.124660778E0,2.523488522E0,-9.426271439E0,-8.403648138E-1
5.129661644E0,2.513911724E0,-9.423876762E0,-8.331822157E-1
5.134661644E0,2.501940727E0,-9.421483040E0,-8.236053586E-1
5.139661644E0,2.477998734E0,-9.421483040E0,-8.164227605E-1
5.144662344E0,2.449268341E0,-9.428665161E0,-8.116343617E-1
5.149663010E0,2.418143749E0,-9.435848236E0,-8.116343617E-1
5.154663010E0,2.384624958E0,-9.447818756E0,-8.092401624E-1
5.159663010E0,2.353500366E0,-9.457395554E0,-8.116343617E-1
5.164663010E0,2.331952572E0,-9.466972351E0,-8.140285611E-1
5.169663010E0,2.315192938E0,-9.471760750E0,-8.283938169E-1
5.174663243E0,2.308010340E0,-9.474155426E0,-8.427590132E-1
5.179663876E0,2.305616140E0,-9.471760750E0,-8.619126081E-1
5.184663709E0,2.312798738E0,-9.474155426E0,-8.810662031E-1
5.189663742E0,2.319981337E0,-9.478943825E0,-9.002198577E-1
5.194663775E0,2.322375536E0,-9.474155426E0,-9.169792533E-1
5.199663775E0,2.324769735E0,-9.466972351E0,-9.313444495E-1
5.204663775E0,2.331952572E0,-9.457395554E0,-9.385270476E-1
5.209663741E0,2.341529369E0,-9.447818756E0,-9.409212470E-1
5.214663741E0,2.346317768E0,-9.445425034E0,-9.361328483E-1
5.219663741E0,2.351106167E0,-9.447818756E0,-9.289502501E-1
5.224663774E0,2.355894566E0,-9.452607155E0,-9.169792533E-1
5.229663774E0,2.360682964E0,-9.459790230E0,-9.050082564E-1
5.234663774E0,2.365471363E0,-9.469367027E0,-8.954314590E-1
5.239663774E0,2.367865562E0,-9.471760750E0,-8.858546019E-1
5.244663774E0,2.367865562E0,-9.471760750E0,-8.762778044E-1
5.249663774E0,2.367865562E0,-9.476549149E0,-8.690952063E-1
5.254663740E0,2.358288765E0,-9.476549149E0,-8.619126081E-1
5.259663740E0,2.348711967E0,-9.478943825E0,-8.571242094E-1
5.264663740E0,2.339135170E0,-9.481337547E0,-8.523358107E-1
5.269664440E0,2.327163935E0,-9.486125946E0,-8.475474119E-1
5.274664440E0,2.312798738E0,-9.490914345E0,-8.379706144E-1
5.279664440E0,2.303221941E0,-9.493309021E0,-8.307880163E-1
5.284664406E0,2.296039343E0,-9.495702744E0,-8.259995580E-1
5.289664406E0,2.288856745E0,-9.500492096E0,-8.212111592E-1
5.294664406E0,2.291250944E0,-9.510068893E0,-8.188169599E-1
5.299664439E0,2.293645144E0,-9.517251015E0,-8.188169599E-1
5.304664472E0,2.293645144E0,-9.514857292E0,-8.212111592E-1
5.309664472E0,2.296039343E0,-9.510068893E0,-8.259995580E-1
5.314664472E0,2.296039343E0,-9.498097420E0,-8.283938169E-1
5.319664472E0,2.296039343E0,-9.490914345E0,-8.307880163E-1
5.324664472E0,2.291250944E0,-9.486125946E0,-8.355764151E-1
5.329663905E0,2.286462545E0,-9.488520622E0,-8.355764151E-1
5.334663871E0,2.281674147E0,-9.498097420E0,-8.379706144E-1
5.339663871E0,2.281674147E0,-9.505280495E0,-8.403648138E-1
5.344663871E0,2.286462545E0,-9.512462616E0,-8.451532125E-1
5.349663904E0,2.291250944E0,-9.512462616E0,-8.547300100E-1
5.354663904E0,2.298433542E0,-9.505280495E0,-8.667010069E-1
5.359663904E0,2.305616140E0,-9.495702744E0,-8.762778044E-1
5.364663870E0,2.305616140E0,-9.483732224E0,-8.858546019E-1
5.369663836E0,2.308010340E0,-9.474155426E0,-8.930372596E-1
5.374663802E0,2.300827742E0,-9.469367027E0,-8.954314590E-1
5.379663802E0,2.293645144E0,-9.469367027E0,-8.930372596E-1
5.384663835E0,2.286462545E0,-9.476549149E0,-8.834604025E-1
5.389663868E0,2.276885748E0,-9.481337547E0,-8.714894056E-1
5.394663901E0,2.264914751E0,-9.486125946E0,-8.547300100E-1
5.399663901E0,2.255337954E0,-9.490914345E0,-8.403648138E-1
5.404663901E0,2.250549555E0,-9.498097420E0,-8.212111592E-1
5.409663867E0,2.243366957E0,-9.505280495E0,-8.068459630E-1
5.414663867E0,2.243366957E0,-9.512462616E0,-7.924807668E-1
5.419663867E0,2.245761156E0,-9.519645691E0,-7.829039693E-1
5.424663900E0,2.248155355E0,-9.526827812E0,-7.709329724E-1
5.429663933E0,2.252943754E0,-9.529222488E0,-7.565677166E-1
5.434663933E0,2.255337954E0,-9.526827812E0,-7.398083210E-1
5.439663899E0,2.252943754E0,-9.524434090E0,-7.254431248E-1
5.444663865E0,2.250549555E0,-9.517251015E0,-7.110779285E-1
5.449663831E0,2.248155355E0,-9.512462616E0,-6.943184733E-1
5.454663797E0,2.243366957E0,-9.512462616E0,-6.799532771E-1
5.459663797E0,2.243366957E0,-9.507674217E0,-6.679822803E-1
5.464663830E0,2.245761156E0,-9.512462616E0,-6.631938815E-1
5.469663863E0,2.252943754E0,-9.514857292E0,-6.607996821E-1
5.474663896E0,2.260126352E0,-9.517251015E0,-6.679822803E-1
5.479664462E0,2.267308950E0,-9.514857292E0,-6.775590777E-1
5.484664462E0,2.281674147E0,-9.502885818E0,-6.919242740E-1
5.489664428E0,2.291250944E0,-9.488520622E0,-7.062895298E-1
5.494664428E0,2.300827742E0,-9.471760750E0,-7.206547260E-1
5.499664428E0,2.310404539E0,-9.462183952E0,-7.326257229E-1
5.504664461E0,2.315192938E0,-9.450213432E0,-7.445967197E-1
5.509664461E0,2.322375536E0,-9.445425034E0,-7.541735172E-1
5.514664461E0,2.331952572E0,-9.450213432E0,-7.685387731E-1
5.519664461E0,2.341529369E0,-9.457395554E0,-7.852981687E-1
5.524664461E0,2.363077164E0,-9.457395554E0,-8.068459630E-1
5.529664461E0,2.387019157E0,-9.459790230E0,-8.283938169E-1
5.534664427E0,2.406172752E0,-9.459790230E0,-8.451532125E-1
5.539664427E0,2.420537949E0,-9.459790230E0,-8.643068075E-1
5.544664427E0,2.430114746E0,-9.457395554E0,-8.810662031E-1
5.549664460E0,2.427720547E0,-9.455001831E0,-8.930372596E-1
5.554664493E0,2.422932148E0,-9.455001831E0,-9.050082564E-1
5.559664493E0,2.418143749E0,-9.450213432E0,-9.097966552E-1
5.564664459E0,2.408566952E0,-9.445425034E0,-9.145850539E-1
5.569664425E0,2.394201756E0,-9.445425034E0,-9.145850539E-1
5.574664425E0,2.382230759E0,-9.450213432E0,-9.121908545E-1
5.579664425E0,2.367865562E0,-9.455001831E0,-9.121908545E-1
5.584664458E0,2.355894566E0,-9.457395554E0,-9.097966552E-1
5.589664458E0,2.351106167E0,-9.462183952E0,-9.121908545E-1
5.594664458E0,2.353500366E0,-9.464578629E0,-9.145850539E-1
5.599664458E0,2.358288765E0,-9.462183952E0,-9.145850539E-1
5.604664458E0,2.365471363E0,-9.457395554E0,-9.169792533E-1
5.609664458E0,2.372653961E0,-9.459790230E0,-9.145850539E-1
5.614664424E0,2.382230759E0,-9.457395554E0,-9.050082564E-1
5.619664424E0,2.387019157E0,-9.455001831E0,-8.954314590E-1
5.624664424E0,2.387019157E0,-9.455001831E0,-8.786720037E-1
5.629664457E0,2.387019157E0,-9.462183952E0,-8.595184088E-1
5.634664457E0,2.389413357E0,-9.466972351E0,-8.379706144E-1
5.639664457E0,2.394201756E0,-9.466972351E0,-8.140285611E-1
5.644664423E0,2.396595955E0,-9.462183952E0,-7.948749661E-1
5.649664389E0,2.403778553E0,-9.462183952E0,-7.805097699E-1
5.654664355E0,2.410961151E0,-9.457395554E0,-7.709329724E-1
5.659664355E0,2.413355350E0,-9.457395554E0,-7.637503147E-1
5.664664388E0,2.415749550E0,-9.455001831E0,-7.613561153E-1
5.669664421E0,2.413355350E0,-9.455001831E0,-7.637503147E-1
5.674664454E0,2.410961151E0,-9.457395554E0,-7.661445141E-1
5.679664487E0,2.413355350E0,-9.462183952E0,-7.685387731E-1
5.684664487E0,2.403778553E0,-9.471760750E0,-7.733271718E-1
5.689664453E0,2.389413357E0,-9.478943825E0,-7.805097699E-1
5.694664419E0,2.379836559E0,-9.478943825E0,-7.900865674E-1
5.699664419E0,2.365471363E0,-9.476549149E0,-7.972691655E-1
5.704664419E0,2.353500366E0,-9.469367027E0,-8.020575643E-1
5.709664452E0,2.336740971E0,-9.462183952E0,-8.092401624E-1
5.714664452E0,2.312798738E0,-9.464578629E0,-8.092401624E-1
5.719665418E0,2.288856745E0,-9.466972351E0,-8.068459630E-1
5.724665384E0,2.272097349E0,-9.481337547E0,-8.044517636E-1
5.729665350E0,2.262520552E0,-9.493309021E0,-8.020575643E-1
5.734665316E0,2.264914751E0,-9.505280495E0,-8.044517636E-1
5.739665316E0,2.262520552E0,-9.512462616E0,-8.092401624E-1
5.744665349E0,2.276885748E0,-9.512462616E0,-8.188169599E-1
5.749665382E0,2.288856745E0,-9.502885818E0,-8.283938169E-1
5.754665415E0,2.303221941E0,-9.493309021E0,-8.379706144E-1
5.759665415E0,2.310404539E0,-9.476549149E0,-8.427590132E-1
5.764665415E0,2.312798738E0,-9.471760750E0,-8.427590132E-1
5.769665381E0,2.317587137E0,-9.464578629E0,-8.427590132E-1
5.774665381E0,2.329558372E0,-9.469367027E0,-8.403648138E-1
5.779665381E0,2.343923569E0,-9.471760750E0,-8.331822157E-1
5.784665414E0,2.360682964E0,-9.469367027E0,-8.283938169E-1
5.789665414E0,2.375048161E0,-9.469367027E0,-8.236053586E-1
5.794665414E0,2.387019157E0,-9.469367027E0,-8.188169599E-1
5.799665414E0,2.396595955E0,-9.469367027E0,-8.140285611E-1
5.804665414E0,2.406172752E0,-9.471760750E0,-8.068459630E-1
5.809665414E0,2.410961151E0,-9.476549149E0,-7.948749661E-1
5.814665380E0,2.408566952E0,-9.478943825E0,-7.852981687E-1
5.819665346E0,2.401384354E0,-9.483732224E0,-7.733271718E-1
5.824665346E0,2.389413357E0,-9.486125946E0,-7.637503147E-1
5.829665346E0,2.375048161E0,-9.486125946E0,-7.565677166E-1
5.834665379E0,2.363077164E0,-9.488520622E0,-7.469909191E-1
5.839665045E0,2.353500366E0,-9.488520622E0,-7.445967197E-1
5.844665045E0,2.343923569E0,-9.486125946E0,-7.422025204E-1
5.849665011E0,2.329558372E0,-9.486125946E0,-7.445967197E-1
5.854665011E0,2.317587137E0,-9.483732224E0,-7.517793179E-1
5.859665011E0,2.305616140E0,-9.481337547E0,-7.565677166E-1
5.864665044E0,2.303221941E0,-9.478943825E0,-7.565677166E-1
5.869664077E0,2.300827742E0,-9.483732224E0,-7.589619160E-1
5.874664077E0,2.300827742E0,-9.483732224E0,-7.637503147E-1
5.879664077E0,2.305616140E0,-9.481337547E0,-7.685387731E-1
5.884664077E0,2.310404539E0,-9.476549149E0,-7.733271718E-1
5.889664077E0,2.319981337E0,-9.471760750E0,-7.829039693E-1
5.894664043E0,2.336740971E0,-9.466972351E0,-7.900865674E-1
5.899663376E0,2.351106167E0,-9.462183952E0,-7.996633649E-1
5.904663376E0,2.365471363E0,-9.455001831E0,-8.116343617E-1
5.909663409E0,2.379836559E0,-9.455001831E0,-8.212111592E-1
5.914663409E0,2.391807556E0,-9.457395554E0,-8.331822157E-1
5.919663409E0,2.398990154E0,-9.462183952E0,-8.427590132E-1
5.924663375E0,2.403778553E0,-9.464578629E0,-8.547300100E-1
5.929662441E0,2.406172752E0,-9.466972351E0,-8.643068075E-1
5.934662441E0,2.406172752E0,-9.469367027E0,-8.714894056E-1
5.939662474E0,2.406172752E0,-9.471760750E0,-8.786720037E-1
5.944661607E0,2.401384354E0,-9.471760750E0,-8.858546019E-1
5.949661240E0,2.396595955E0,-9.466972351E0,-8.906430602E-1
5.954660340E0,2.398990154E0,-9.469367027E0,-8.954314590E-1
5.959659440E0,2.396595955E0,-9.478943825E0,-8.978256583E-1
5.964658773E0,2.391807556E0,-9.481337547E0,-8.978256583E-1
5.969657873E0,2.387019157E0,-9.478943825E0,-9.026140571E-1
5.974656939E0,2.387019157E0,-9.462183952E0,-9.050082564E-1
5.979656039E0,2.389413357E0,-9.445425034E0,-9.026140571E-1
5.984655605E0,2.387019157E0,-9.433453560E0,-8.954314590E-1
5.989655971E0,2.387019157E0,-9.428665161E0,-8.810662031E-1
5.994655304E0,2.387019157E0,-9.435848236E0,-8.643068075E-1
5.999655304E0,2.391807556E0,-9.447818756E0,-8.475474119E-1
6.004655270E0,2.398990154E0,-9.455001831E0,-8.331822157E-1
6.009655270E0,2.408566952E0,-9.457395554E0,-8.212111592E-1
6.014654603E0,2.422932148E0,-9.452607155E0,-8.140285611E-1
6.019654636E0,2.437297344E0,-9.447818756E0,-8.092401624E-1
6.024654302E0,2.444479942E0,-9.438241959E0,-8.068459630E-1
6.029654302E0,2.449268341E0,-9.438241959E0,-8.044517636E-1
6.034654302E0,2.444479942E0,-9.440636635E0,-7.996633649E-1
6.039654302E0,2.432508945E0,-9.447818756E0,-7.972691655E-1
6.044654302E0,2.420537949E0,-9.452607155E0,-7.924807668E-1
6.049654935E0,2.403778553E0,-9.466972351E0,-7.900865674E-1
6.054654901E0,2.387019157E0,-9.476549149E0,-7.924807668E-1
6.059654901E0,2.372653961E0,-9.476549149E0,-7.948749661E-1
6.064654934E0,2.360682964E0,-9.481337547E0,-7.996633649E-1
6.069654967E0,2.346317768E0,-9.481337547E0,-8.092401624E-1
6.074654967E0,2.341529369E0,-9.483732224E0,-8.188169599E-1
6.079655867E0,2.334346771E0,-9.486125946E0,-8.259995580E-1
6.084655833E0,2.327163935E0,-9.481337547E0,-8.307880163E-1
6.089655799E0,2.319981337E0,-9.476549149E0,-8.307880163E-1
6.094656665E0,2.319981337E0,-9.476549149E0,-8.307880163E-1
6.099657031E0,2.317587137E0,-9.474155426E0,-8.259995580E-1
6.104657964E0,2.317587137E0,-9.478943825E0,-8.212111592E-1
6.109658897E0,2.319981337E0,-9.483732224E0,-8.140285611E-1
6.114659597E0,2.322375536E0,-9.483732224E0,-8.068459630E-1
6.119660497E0,2.329558372E0,-9.483732224E0,-8.044517636E-1
6.124661397E0,2.336740971E0,-9.481337547E0,-8.020575643E-1
6.129662263E0,2.343923569E0,-9.481337547E0,-7.972691655E-1
6.134662696E0,2.348711967E0,-9.478943825E0,-7.996633649E-1
6.139662696E0,2.355894566E0,-9.478943825E0,-7.996633649E-1
6.144663396E0,2.351106167E0,-9.478943825E0,-8.044517636E-1
6.149663396E0,2.348711967E0,-9.483732224E0,-8.068459630E-1
6.154663396E0,2.343923569E0,-9.488520622E0,-8.116343617E-1
6.159663362E0,2.346317768E0,-9.488520622E0,-8.164227605E-1
6.164663995E0,2.343923569E0,-9.490914345E0,-8.236053586E-1
6.169663961E0,2.341529369E0,-9.490914345E0,-8.307880163E-1
6.174664294E0,2.346317768E0,-9.486125946E0,-8.403648138E-1
6.179664294E0,2.343923569E0,-9.486125946E0,-8.499416113E-1
6.184664327E0,2.339135170E0,-9.488520622E0,-8.595184088E-1
6.189664360E0,2.339135170E0,-9.488520622E0,-8.667010069E-1
6.194664393E0,2.331952572E0,-9.488520622E0,-8.714894056E-1
6.199664393E0,2.324769735E0,-9.488520622E0,-8.714894056E-1
6.204664393E0,2.319981337E0,-9.486125946E0,-8.714894056E-1
6.209664359E0,2.310404539E0,-9.483732224E0,-8.667010069E-1
6.214664359E0,2.303221941E0,-9.481337547E0,-8.619126081E-1
6.219664359E0,2.300827742E0,-9.481337547E0,-8.595184088E-1
6.224664392E0,2.296039343E0,-9.486125946E0,-8.523358107E-1
6.229664392E0,2.288856745E0,-9.483732224E0,-8.451532125E-1
6.234664392E0,2.281674147E0,-9.488520622E0,-8.355764151E-1
6.239664392E0,2.279279947E0,-9.495702744E0,-8.283938169E-1
6.244664392E0,2.279279947E0,-9.505280495E0,-8.188169599E-1
6.249664392E0,2.281674147E0,-9.510068893E0,-8.140285611E-1
6.254664358E0,2.284068346E0,-9.507674217E0,-8.068459630E-1
6.259664358E0,2.291250944E0,-9.510068893E0,-7.996633649E-1
6.264664358E0,2.296039343E0,-9.502885818E0,-7.924807668E-1
6.269664391E0,2.303221941E0,-9.495702744E0,-7.829039693E-1
6.274664391E0,2.312798738E0,-9.495702744E0,-7.757213712E-1
6.279664391E0,2.327163935E0,-9.493309021E0,-7.709329724E-1
6.284664357E0,2.341529369E0,-9.490914345E0,-7.637503147E-1
6.289664357E0,2.353500366E0,-9.483732224E0,-7.565677166E-1
6.294664357E0,2.370259762E0,-9.478943825E0,-7.565677166E-1
6.299664390E0,2.387019157E0,-9.471760750E0,-7.589619160E-1
6.304664423E0,2.406172752E0,-9.466972351E0,-7.685387731E-1
6.309664423E0,2.420537949E0,-9.459790230E0,-7.781155705E-1
6.314664423E0,2.437297344E0,-9.450213432E0,-7.900865674E-1
6.319664423E0,2.449268341E0,-9.443030357E0,-8.020575643E-1
6.324664423E0,2.456450939E0,-9.440636635E0,-8.140285611E-1
6.329664423E0,2.461239338E0,-9.435848236E0,-8.283938169E-1
6.334664389E0,2.458845139E0,-9.435848236E0,-8.403648138E-1
6.339664389E0,2.454056740E0,-9.443030357E0,-8.547300100E-1
6.344664389E0,2.446874142E0,-9.445425034E0,-8.690952063E-1
6.349664422E0,2.442085743E0,-9.450213432E0,-8.810662031E-1
6.354664422E0,2.434903145E0,-9.452607155E0,-8.978256583E-1
6.359664422E0,2.427720547E0,-9.455001831E0,-9.121908545E-1
6.364664388E0,2.420537949E0,-9.455001831E0,-9.289502501E-1
6.369664354E0,2.410961151E0,-9.452607155E0,-9.433154464E-1
6.374664320E0,2.406172752E0,-9.452607155E0,-9.552865028E-1
6.379664320E0,2.398990154E0,-9.455001831E0,-9.672574997E-1
6.384664353E0,2.391807556E0,-9.457395554E0,-9.744400978E-1
6.389664386E0,2.384624958E0,-9.462183952E0,-9.720458984E-1
6.394664419E0,2.379836559E0,-9.464578629E0,-9.624691010E-1
6.399664419E0,2.375048161E0,-9.462183952E0,-9.528923035E-1
6.404664419E0,2.375048161E0,-9.457395554E0,-9.433154464E-1
6.409664385E0,2.375048161E0,-9.455001831E0,-9.289502501E-1
6.414664385E0,2.377442360E0,-9.457395554E0,-9.169792533E-1
6.419664018E0,2.379836559E0,-9.459790230E0,-9.026140571E-1
6.424664051E0,2.377442360E0,-9.464578629E0,-8.882488012E-1
6.429664084E0,2.379836559E0,-9.471760750E0,-8.714894056E-1
6.434664084E0,2.382230759E0,-9.474155426E0,-8.571242094E-1
6.439664050E0,2.379836559E0,-9.476549149E0,-8.403648138E-1
6.444664016E0,2.370259762E0,-9.476549149E0,-8.236053586E-1
6.449663982E0,2.360682964E0,-9.478943825E0,-8.068459630E-1
6.454663948E0,2.351106167E0,-9.481337547E0,-7.876923680E-1
6.459663948E0,2.339135170E0,-9.486125946E0,-7.709329724E-1
6.464663981E0,2.329558372E0,-9.488520622E0,-7.589619160E-1
6.469664014E0,2.322375536E0,-9.493309021E0,-7.493851185E-1
6.474664047E0,2.315192938E0,-9.498097420E0,-7.422025204E-1
6.479664047E0,2.310404539E0,-9.500492096E0,-7.398083210E-1
6.484664047E0,2.308010340E0,-9.502885818E0,-7.374141216E-1
6.489664013E0,2.303221941E0,-9.505280495E0,-7.374141216E-1
6.494664013E0,2.303221941E0,-9.502885818E0,-7.398083210E-1
6.499664013E0,2.305616140E0,-9.495702744E0,-7.422025204E-1
6.504664046E0,2.310404539E0,-9.490914345E0,-7.469909191E-1
6.509664046E0,2.315192938E0,-9.481337547E0,-7.517793179E-1
6.514664046E0,2.317587137E0,-9.478943825E0,-7.637503147E-1
6.519664046E0,2.324769735E0,-9.474155426E0,-7.757213712E-1
6.524664046E0,2.327163935E0,-9.474155426E0,-7.829039693E-1
6.529664046E0,2.331952572E0,-9.474155426E0,-7.924807668E-1
6.534664012E0,2.339135170E0,-9.474155426E0,-8.044517636E-1
6.539664012E0,2.343923569E0,-9.469367027E0,-8.188169599E-1
6.544664012E0,2.348711967E0,-9.466972351E0,-8.331822157E-1
6.549664045E0,2.353500366E0,-9.466972351E0,-8.427590132E-1
6.554664078E0,2.353500366E0,-9.466972351E0,-8.523358107E-1
6.559664078E0,2.355894566E0,-9.464578629E0,-8.619126081E-1
6.564664044E0,2.358288765E0,-9.466972351E0,-8.690952063E-1
6.569664377E0,2.353500366E0,-9.469367027E0,-8.762778044E-1
6.574664377E0,2.348711967E0,-9.469367027E0,-8.834604025E-1
6.579664377E0,2.341529369E0,-9.466972351E0,-8.882488012E-1
6.584664410E0,2.331952572E0,-9.466972351E0,-8.954314590E-1
6.589664410E0,2.327163935E0,-9.469367027E0,-9.002198577E-1
6.594664410E0,2.322375536E0,-9.476549149E0,-8.978256583E-1
6.599664410E0,2.319981337E0,-9.478943825E0,-8.930372596E-1
6.604664410E0,2.312798738E0,-9.483732224E0,-8.858546019E-1
6.609664410E0,2.310404539E0,-9.481337547E0,-8.762778044E-1
6.614664376E0,2.310404539E0,-9.483732224E0,-8.643068075E-1
6.619664376E0,2.312798738E0,-9.486125946E0,-8.523358107E-1
6.624664376E0,2.319981337E0,-9.486125946E0,-8.403648138E-1
6.629664409E0,2.331952572E0,-9.483732224E0,-8.283938169E-1
6.634664409E0,2.339135170E0,-9.481337547E0,-8.164227605E-1
6.639664409E0,2.343923569E0,-9.478943825E0,-8.044517636E-1
6.644664375E0,2.351106167E0,-9.474155426E0,-7.924807668E-1
6.649664375E0,2.358288765E0,-9.471760750E0,-7.805097699E-1
6.654664375E0,2.367865562E0,-9.464578629E0,-7.661445141E-1
6.659664408E0,2.377442360E0,-9.464578629E0,-7.589619160E-1
6.664664408E0,2.382230759E0,-9.462183952E0,-7.565677166E-1
6.669664408E0,2.391807556E0,-9.459790230E0,-7.565677166E-1
6.674664408E0,2.398990154E0,-9.457395554E0,-7.565677166E-1
6.679664408E0,2.403778553E0,-9.462183952E0,-7.589619160E-1
6.684664408E0,2.406172752E0,-9.459790230E0,-7.637503147E-1
6.689664374E0,2.406172752E0,-9.457395554E0,-7.709329724E-1
6.694664340E0,2.403778553E0,-9.457395554E0,-7.781155705E-1
6.699664340E0,2.401384354E0,-9.457395554E0,-7.900865674E-1
6.704664340E0,2.396595955E0,-9.464578629E0,-7.972691655E-1
6.709664373E0,2.384624958E0,-9.476549149E0,-8.020575643E-1
6.714664373E0,2.375048161E0,-9.483732224E0,-8.068459630E-1
6.719664373E0,2.370259762E0,-9.490914345E0,-8.164227605E-1
6.724664339E0,2.365471363E0,-9.490914345E0,-8.212111592E-1
6.729664339E0,2.358288765E0,-9.493309021E0,-8.283938169E-1
6.734664339E0,2.351106167E0,-9.490914345E0,-8.355764151E-1
6.739664372E0,2.343923569E0,-9.483732224E0,-8.379706144E-1
6.744664372E0,2.334346771E0,-9.476549149E0,-8.403648138E-1
6.749664372E0,2.322375536E0,-9.471760750E0,-8.403648138E-1
6.754664372E0,2.312798738E0,-9.471760750E0,-8.379706144E-1
6.759664372E0,2.300827742E0,-9.476549149E0,-8.355764151E-1
6.764664372E0,2.288856745E0,-9.481337547E0,-8.307880163E-1
6.769664338E0,2.279279947E0,-9.483732224E0,-8.283938169E-1
6.774664338E0,2.272097349E0,-9.483732224E0,-8.259995580E-1
6.779664338E0,2.267308950E0,-9.483732224E0,-8.236053586E-1
6.784664371E0,2.264914751E0,-9.488520622E0,-8.259995580E-1
6.789664371E0,2.262520552E0,-9.493309021E0,-8.307880163E-1
6.794664371E0,2.264914751E0,-9.500492096E0,-8.307880163E-1
6.799664337E0,2.267308950E0,-9.502885818E0,-8.331822157E-1
6.804664303E0,2.269703150E0,-9.507674217E0,-8.331822157E-1
6.809664269E0,2.274491549E0,-9.510068893E0,-8.331822157E-1
6.814664269E0,2.279279947E0,-9.517251015E0,-8.307880163E-1
6.819664269E0,2.291250944E0,-9.519645691E0,-8.283938169E-1
6.824664302E0,2.303221941E0,-9.517251015E0,-8.307880163E-1
6.829664335E0,2.322375536E0,-9.522039413E0,-8.307880163E-1
6.834664368E0,2.334346771E0,-9.524434090E0,-8.355764151E-1
6.839664368E0,2.343923569E0,-9.519645691E0,-8.403648138E-1
6.844664368E0,2.343923569E0,-9.490914345E0,-8.403648138E-1
6.849664334E0,2.343923569E0,-9.462183952E0,-8.331822157E-1
6.854664334E0,2.336740971E0,-9.433453560E0,-8.188169599E-1
6.859664334E0,2.329558372E0,-9.416694641E0,-8.068459630E-1
6.864664367E0,2.327163935E0,-9.421483040E0,-7.924807668E-1
6.869664367E0,2.324769735E0,-9.445425034E0,-7.805097699E-1
6.874664367E0,2.331952572E0,-9.471760750E0,-7.781155705E-1
6.879664333E0,2.343923569E0,-9.486125946E0,-7.781155705E-1
6.884664299E0,2.358288765E0,-9.481337547E0,-7.852981687E-1
6.889664265E0,2.367865562E0,-9.474155426E0,-7.948749661E-1
6.894664265E0,2.375048161E0,-9.464578629E0,-8.044517636E-1
6.899664298E0,2.375048161E0,-9.455001831E0,-8.140285611E-1
6.904664331E0,2.370259762E0,-9.452607155E0,-8.236053586E-1
6.909664364E0,2.367865562E0,-9.457395554E0,-8.283938169E-1
6.914664364E0,2.360682964E0,-9.462183952E0,-8.307880163E-1
6.919664364E0,2.358288765E0,-9.464578629E0,-8.331822157E-1
6.924664330E0,2.363077164E0,-9.462183952E0,-8.331822157E-1
6.929664296E0,2.367865562E0,-9.464578629E0,-8.355764151E-1
6.934663629E0,2.377442360E0,-9.466972351E0,-8.355764151E-1
6.939663429E0,2.387019157E0,-9.466972351E0,-8.379706144E-1
6.944662795E0,2.391807556E0,-9.471760750E0,-8.427590132E-1
6.949662128E0,2.396595955E0,-9.471760750E0,-8.403648138E-1
6.954661228E0,2.396595955E0,-9.466972351E0,-8.379706144E-1
6.959660328E0,2.396595955E0,-9.462183952E0,-8.355764151E-1
6.964659428E0,2.394201756E0,-9.457395554E0,-8.283938169E-1
6.969658528E0,2.394201756E0,-9.455001831E0,-8.188169599E-1
6.974657594E0,2.396595955E0,-9.457395554E0,-8.068459630E-1
6.979656694E0,2.398990154E0,-9.457395554E0,-7.972691655E-1
6.984656694E0,2.403778553E0,-9.464578629E0,-7.876923680E-1
6.989656727E0,2.408566952E0,-9.464578629E0,-7.805097699E-1
6.994656060E0,2.415749550E0,-9.464578629E0,-7.757213712E-1
6.999655393E0,2.422932148E0,-9.466972351E0,-7.709329724E-1
7.004655359E0,2.434903145E0,-9.466972351E0,-7.733271718E-1
7.009654959E0,2.442085743E0,-9.462183952E0,-7.757213712E-1
7.014654959E0,2.454056740E0,-9.462183952E0,-7.781155705E-1
7.019654992E0,2.461239338E0,-9.455001831E0,-7.829039693E-1
7.024654592E0,2.466027737E0,-9.452607155E0,-7.876923680E-1
7.029653925E0,2.466027737E0,-9.447818756E0,-7.948749661E-1
7.034653925E0,2.458845139E0,-9.440636635E0,-8.020575643E-1
7.039653925E0,2.454056740E0,-9.435848236E0,-8.092401624E-1
7.044653925E0,2.451662540E0,-9.440636635E0,-8.140285611E-1
7.049653891E0,2.444479942E0,-9.452607155E0,-8.236053586E-1
7.054653857E0,2.430114746E0,-9.462183952E0,-8.331822157E-1
7.059653857E0,2.415749550E0,-9.464578629E0,-8.475474119E-1
7.064653890E0,2.396595955E0,-9.462183952E0,-8.595184088E-1
7.069653923E0,2.379836559E0,-9.457395554E0,-8.738836050E-1
7.074653923E0,2.363077164E0,-9.450213432E0,-8.810662031E-1
7.079653923E0,2.343923569E0,-9.447818756E0,-8.882488012E-1
7.084654556E0,2.319981337E0,-9.457395554E0,-8.930372596E-1
7.089654789E0,2.305616140E0,-9.471760750E0,-8.978256583E-1
7.094655455E0,2.291250944E0,-9.483732224E0,-9.026140571E-1
7.099656155E0,2.276885748E0,-9.493309021E0,-9.026140571E-1
7.104658055E0,2.269703150E0,-9.498097420E0,-9.002198577E-1
7.109658955E0,2.264914751E0,-9.502885818E0,-8.978256583E-1
7.114659855E0,2.262520552E0,-9.500492096E0,-8.882488012E-1
7.119660755E0,2.262520552E0,-9.495702744E0,-8.810662031E-1
7.124661655E0,2.262520552E0,-9.488520622E0,-8.667010069E-1
7.129662521E0,2.267308950E0,-9.483732224E0,-8.523358107E-1
7.134661854E0,2.272097349E0,-9.478943825E0,-8.355764151E-1
7.139661854E0,2.276885748E0,-9.478943825E0,-8.188169599E-1
7.144662554E0,2.276885748E0,-9.478943825E0,-7.972691655E-1
7.149663220E0,2.284068346E0,-9.481337547E0,-7.781155705E-1
7.154663220E0,2.288856745E0,-9.486125946E0,-7.613561153E-1
7.159663586E0,2.293645144E0,-9.486125946E0,-7.445967197E-1
7.164663552E0,2.303221941E0,-9.483732224E0,-7.302315235E-1
7.169663518E0,2.310404539E0,-9.478943825E0,-7.206547260E-1
7.174663918E0,2.317587137E0,-9.476549149E0,-7.182605267E-1
7.179664584E0,2.329558372E0,-9.474155426E0,-7.110779285E-1
7.184664617E0,2.341529369E0,-9.478943825E0,-7.062895298E-1
7.189664650E0,2.348711967E0,-9.483732224E0,-7.038952708E-1
7.194664683E0,2.355894566E0,-9.493309021E0,-7.015010715E-1
7.199664683E0,2.363077164E0,-9.502885818E0,-7.015010715E-1
7.204664683E0,2.370259762E0,-9.505280495E0,-7.062895298E-1
7.209664649E0,2.379836559E0,-9.507674217E0,-7.134721279E-1
7.214664649E0,2.384624958E0,-9.505280495E0,-7.230489254E-1
7.219664649E0,2.389413357E0,-9.500492096E0,-7.326257229E-1
7.224664682E0,2.391807556E0,-9.498097420E0,-7.422025204E-1
7.229664682E0,2.389413357E0,-9.490914345E0,-7.493851185E-1
7.234664682E0,2.384624958E0,-9.486125946E0,-7.589619160E-1
7.239664648E0,2.387019157E0,-9.481337547E0,-7.661445141E-1
7.244664614E0,2.382230759E0,-9.474155426E0,-7.757213712E-1
7.249664580E0,2.379836559E0,-9.469367027E0,-7.876923680E-1
7.254663580E0,2.377442360E0,-9.469367027E0,-8.044517636E-1
7.259663613E0,2.384624958E0,-9.435848236E0,-9.002198577E-1
7.264663646E0,2.408566952E0,-9.450213432E0,-9.265560508E-1
7.269663679E0,2.430114746E0,-9.447818756E0,-9.528923035E-1
7.274663679E0,2.427720547E0,-9.440636635E0,-9.840168953E-1
7.279663679E0,2.439691544E0,-9.428665161E0,-9.648633003E-1
7.284664312E0,2.425326347E0,-9.431059837E0,-1.000776291E0
7.289664312E0,2.410961151E0,-9.450213432E0,-9.816226959E-1
7.294664312E0,2.389413357E0,-9.469367027E0,-9.648633003E-1
7.299664345E0,2.422932148E0,-9.476549149E0,-9.816226959E-1
7.304664378E0,2.408566952E0,-9.469367027E0,-9.672574997E-1
7.309664378E0,2.425326347E0,-9.459790230E0,-9.624691010E-1
7.314664378E0,2.413355350E0,-9.450213432E0,-9.576807022E-1
7.319664378E0,2.415749550E0,-9.459790230E0,-9.672574997E-1
7.324664378E0,2.387019157E0,-9.440636635E0,-9.481038451E-1
7.329664378E0,2.382230759E0,-9.438241959E0,-9.433154464E-1
7.334664344E0,2.382230759E0,-9.443030357E0,-9.313444495E-1
7.339664344E0,2.370259762E0,-9.459790230E0,-9.097966552E-1
7.344664344E0,2.391807556E0,-9.474155426E0,-9.097966552E-1
7.349664377E0,2.365471363E0,-9.462183952E0,-8.954314590E-1
7.354664377E0,2.363077164E0,-9.476549149E0,-8.571242094E-1
7.359664377E0,2.377442360E0,-9.474155426E0,-8.523358107E-1
7.364664343E0,2.353500366E0,-9.486125946E0,-8.427590132E-1
7.369664343E0,2.363077164E0,-9.481337547E0,-8.188169599E-1
7.374664343E0,2.322375536E0,-9.493309021E0,-7.948749661E-1
7.379664376E0,2.379836559E0,-9.490914345E0,-7.757213712E-1
7.384664376E0,2.367865562E0,-9.486125946E0,-7.589619160E-1
7.389664376E0,2.389413357E0,-9.476549149E0,-7.326257229E-1
7.394664376E0,2.379836559E0,-9.490914345E0,-7.182605267E-1
7.399664376E0,2.355894566E0,-9.500492096E0,-6.991068721E-1
7.404664376E0,2.353500366E0,-9.495702744E0,-6.751648784E-1
7.409664342E0,2.324769735E0,-9.495702744E0,-6.751648784E-1
7.414664342E0,2.303221941E0,-9.519645691E0,-6.655880809E-1
7.419664342E0,2.284068346E0,-9.526827812E0,-6.512228847E-1
7.424664375E0,2.286462545E0,-9.507674217E0,-6.536170840E-1
7.429664408E0,2.260126352E0,-9.534010887E0,-6.847416759E-1
7.434664408E0,2.260126352E0,-9.522039413E0,-7.038952708E-1
7.439664374E0,2.260126352E0,-9.510068893E0,-7.182605267E-1
7.444664340E0,2.236184359E0,-9.517251015E0,-7.350199223E-1
7.449664306E0,2.231395960E0,-9.522039413E0,-7.685387731E-1
7.454664272E0,2.212242365E0,-9.488520622E0,-7.900865674E-1
7.459664272E0,2.205059767E0,-9.517251015E0,-8.212111592E-1
7.464664305E0,2.217030764E0,-9.510068893E0,-8.403648138E-1
7.469664338E0,2.229001760E0,-9.507674217E0,-8.667010069E-1
7.474664371E0,2.229001760E0,-9.493309021E0,-8.858546019E-1
7.479664371E0,2.229001760E0,-9.486125946E0,-8.954314590E-1
7.484664371E0,2.236184359E0,-9.486125946E0,-9.217676520E-1
7.489664337E0,2.233790159E0,-9.500492096E0,-9.193734527E-1
7.494664337E0,2.260126352E0,-9.502885818E0,-9.241618514E-1
7.499664337E0,2.248155355E0,-9.493309021E0,-9.481038451E-1
7.504664370E0,2.264914751E0,-9.488520622E0,-9.433154464E-1
7.509664370E0,2.250549555E0,-9.505280495E0,-9.504981041E-1
7.514664370E0,2.264914751E0,-9.500492096E0,-9.337386489E-1
7.519664336E0,2.272097349E0,-9.526827812E0,-9.313444495E-1
7.524664302E0,2.276885748E0,-9.543587685E0,-9.169792533E-1
7.529664268E0,2.267308950E0,-9.543587685E0,-9.169792533E-1
7.534664268E0,2.257732153E0,-9.541193008E0,-8.954314590E-1
7.539664301E0,2.262520552E0,-9.531616211E0,-8.858546019E-1
7.544664334E0,2.245761156E0,-9.495702744E0,-8.834604025E-1
7.549664367E0,2.257732153E0,-9.510068893E0,-8.738836050E-1
7.554664400E0,2.252943754E0,-9.483732224E0,-8.403648138E-1
7.559664400E0,2.286462545E0,-9.495702744E0,-8.140285611E-1
7.564664366E0,2.264914751E0,-9.478943825E0,-8.020575643E-1
7.569664332E0,2.269703150E0,-9.495702744E0,-8.020575643E-1
7.574664332E0,2.296039343E0,-9.471760750E0,-7.852981687E-1
7.579664332E0,2.322375536E0,-9.457395554E0,-7.852981687E-1
7.584664365E0,2.346317768E0,-9.476549149E0,-7.924807668E-1
7.589664365E0,2.355894566E0,-9.469367027E0,-7.709329724E-1
7.594664365E0,2.391807556E0,-9.466972351E0,-7.685387731E-1
7.599664365E0,2.420537949E0,-9.488520622E0,-7.565677166E-1
7.604664365E0,2.427720547E0,-9.464578629E0,-7.685387731E-1
7.609664365E0,2.456450939E0,-9.471760750E0,-7.613561153E-1
7.614664331E0,2.482787132E0,-9.490914345E0,-7.613561153E-1
7.619664331E0,2.487575531E0,-9.488520622E0,-7.876923680E-1
7.624664331E0,2.485181332E0,-9.478943825E0,-7.948749661E-1
7.629664364E0,2.487575531E0,-9.466972351E0,-8.212111592E-1
7.634664364E0,2.492363930E0,-9.452607155E0,-8.331822157E-1
7.639664364E0,2.468421936E0,-9.450213432E0,-8.331822157E-1
7.644664330E0,2.454056740E0,-9.452607155E0,-8.499416113E-1
7.649664330E0,2.427720547E0,-9.476549149E0,-8.499416113E-1
7.654664330E0,2.425326347E0,-9.471760750E0,-8.714894056E-1
7.659664363E0,2.394201756E0,-9.462183952E0,-8.571242094E-1
7.664664363E0,2.358288765E0,-9.471760750E0,-8.810662031E-1
7.669664363E0,2.343923569E0,-9.445425034E0,-8.906430602E-1
7.674664363E0,2.341529369E0,-9.476549149E0,-8.762778044E-1
7.679664363E0,2.346317768E0,-9.447818756E0,-9.026140571E-1
7.684664363E0,2.324769735E0,-9.445425034E0,-8.930372596E-1
7.689664329E0,2.339135170E0,-9.450213432E0,-8.810662031E-1
7.694664295E0,2.341529369E0,-9.466972351E0,-8.619126081E-1
7.699664295E0,2.327163935E0,-9.476549149E0,-8.595184088E-1
7.704664295E0,2.329558372E0,-9.488520622E0,-8.379706144E-1
7.709664328E0,2.331952572E0,-9.478943825E0,-8.283938169E-1
7.714664328E0,2.329558372E0,-9.493309021E0,-7.996633649E-1
7.719664328E0,2.346317768E0,-9.481337547E0,-7.876923680E-1
7.724664294E0,2.336740971E0,-9.490914345E0,-7.829039693E-1
7.729664294E0,2.334346771E0,-9.495702744E0,-7.733271718E-1
7.734664294E0,2.353500366E0,-9.483732224E0,-7.565677166E-1
7.739664327E0,2.377442360E0,-9.495702744E0,-7.445967197E-1
7.744664327E0,2.348711967E0,-9.488520622E0,-7.445967197E-1
7.749664327E0,2.346317768E0,-9.466972351E0,-7.350199223E-1
7.754664327E0,2.355894566E0,-9.476549149E0,-7.374141216E-1
7.759664327E0,2.382230759E0,-9.450213432E0,-7.661445141E-1
7.764664327E0,2.375048161E0,-9.455001831E0,-7.613561153E-1
7.769664293E0,2.384624958E0,-9.466972351E0,-7.709329724E-1
7.774664293E0,2.384624958E0,-9.466972351E0,-7.924807668E-1
7.779664293E0,2.396595955E0,-9.455001831E0,-8.020575643E-1
7.784664326E0,2.418143749E0,-9.466972351E0,-8.092401624E-1
7.789664326E0,2.434903145E0,-9.452607155E0,-8.283938169E-1
7.794664326E0,2.427720547E0,-9.450213432E0,-8.523358107E-1
7.799664292E0,2.446874142E0,-9.445425034E0,-8.595184088E-1
7.804664258E0,2.451662540E0,-9.438241959E0,-8.667010069E-1
7.809664224E0,2.458845139E0,-9.440636635E0,-8.954314590E-1
7.814664224E0,2.442085743E0,-9.419088364E0,-8.858546019E-1
7.819664224E0,2.442085743E0,-9.443030357E0,-9.121908545E-1
7.824664257E0,2.449268341E0,-9.421483040E0,-9.313444495E-1
7.829664290E0,2.449268341E0,-9.426271439E0,-9.265560508E-1
7.834664323E0,2.425326347E0,-9.452607155E0,-9.385270476E-1
7.839664323E0,2.422932148E0,-9.426271439E0,-9.409212470E-1
7.844664323E0,2.430114746E0,-9.464578629E0,-9.552865028E-1
7.849664289E0,2.415749550E0,-9.457395554E0,-9.409212470E-1
7.854664289E0,2.410961151E0,-9.469367027E0,-9.313444495E-1
7.859664289E0,2.379836559E0,-9.483732224E0,-9.361328483E-1
7.864664322E0,2.360682964E0,-9.478943825E0,-9.217676520E-1
7.869664322E0,2.375048161E0,-9.488520622E0,-9.074024558E-1
7.874664322E0,2.353500366E0,-9.502885818E0,-9.050082564E-1
7.879664288E0,2.336740971E0,-9.476549149E0,-8.834604025E-1
7.884664254E0,2.346317768E0,-9.474155426E0,-8.427590132E-1
7.889664220E0,2.339135170E0,-9.464578629E0,-8.331822157E-1
7.894664220E0,2.334346771E0,-9.459790230E0,-7.924807668E-1
7.899664253E0,2.341529369E0,-9.476549149E0,-7.805097699E-1
7.904664286E0,2.363077164E0,-9.488520622E0,-7.733271718E-1
7.909664319E0,2.353500366E0,-9.474155426E0,-7.541735172E-1
7.914664319E0,2.355894566E0,-9.486125946E0,-7.350199223E-1
7.919664319E0,2.382230759E0,-9.500492096E0,-7.182605267E-1
7.924663919E0,2.375048161E0,-9.478943825E0,-7.326257229E-1
7.929663519E0,2.384624958E0,-9.469367027E0,-7.254431248E-1
7.934662852E0,2.396595955E0,-9.457395554E0,-7.422025204E-1
7.939662218E0,2.379836559E0,-9.452607155E0,-7.230489254E-1
7.944661584E0,2.401384354E0,-9.435848236E0,-7.589619160E-1
7.949660917E0,2.403778553E0,-9.409511566E0,-7.805097699E-1
7.954660017E0,2.413355350E0,-9.407117844E0,-7.996633649E-1
7.959659117E0,2.394201756E0,-9.431059837E0,-8.188169599E-1
7.964658317E0,2.387019157E0,-9.426271439E0,-8.259995580E-1
7.969657417E0,2.406172752E0,-9.459790230E0,-8.331822157E-1
7.974656717E0,2.389413357E0,-9.464578629E0,-8.427590132E-1
7.979655917E0,2.406172752E0,-9.466972351E0,-8.619126081E-1
7.984655917E0,2.401384354E0,-9.481337547E0,-8.643068075E-1
7.989655950E0,2.418143749E0,-9.471760750E0,-8.571242094E-1
7.994655283E0,2.398990154E0,-9.483732224E0,-8.667010069E-1
7.999654616E0,2.382230759E0,-9.474155426E0,-8.667010069E-1
8.004654582E0,2.382230759E0,-9.464578629E0,-8.523358107E-1
8.009654582E0,2.358288765E0,-9.469367027E0,-8.379706144E-1
8.014654582E0,2.348711967E0,-9.474155426E0,-8.379706144E-1
8.019654615E0,2.367865562E0,-9.495702744E0,-8.212111592E-1
8.024654615E0,2.379836559E0,-9.490914345E0,-8.236053586E-1
8.029654615E0,2.367865562E0,-9.490914345E0,-8.068459630E-1
8.034654215E0,2.367865562E0,-9.481337547E0,-8.020575643E-1
8.039653548E0,2.367865562E0,-9.495702744E0,-8.068459630E-1
8.044652881E0,2.391807556E0,-9.481337547E0,-7.781155705E-1
8.049652847E0,2.384624958E0,-9.476549149E0,-7.757213712E-1
8.054652813E0,2.377442360E0,-9.457395554E0,-7.829039693E-1
8.059652813E0,2.384624958E0,-9.478943825E0,-7.685387731E-1
8.064652846E0,2.418143749E0,-9.498097420E0,-7.876923680E-1
8.069652879E0,2.396595955E0,-9.502885818E0,-7.876923680E-1
8.074653245E0,2.391807556E0,-9.478943825E0,-8.212111592E-1
8.079653611E0,2.413355350E0,-9.466972351E0,-8.331822157E-1
8.084654244E0,2.408566952E0,-9.474155426E0,-8.499416113E-1
8.089654910E0,2.379836559E0,-9.474155426E0,-8.643068075E-1
8.094655576E0,2.384624958E0,-9.457395554E0,-8.643068075E-1
8.099656276E0,2.367865562E0,-9.481337547E0,-8.786720037E-1
8.104657176E0,2.367865562E0,-9.478943825E0,-9.002198577E-1
8.109658076E0,2.353500366E0,-9.493309021E0,-9.145850539E-1
8.114658476E0,2.348711967E0,-9.493309021E0,-9.265560508E-1
8.119659376E0,2.319981337E0,-9.498097420E0,-9.337386489E-1
8.124660042E0,2.303221941E0,-9.522039413E0,-9.504981041E-1
8.129660808E0,2.298433542E0,-9.526827812E0,-9.648633003E-1
8.134660808E0,2.312798738E0,-9.512462616E0,-9.624691010E-1
8.139660808E0,2.279279947E0,-9.510068893E0,-9.672574997E-1
8.144661508E0,2.250549555E0,-9.502885818E0,-9.744400978E-1
8.149662174E0,2.238578558E0,-9.498097420E0,-9.696516991E-1
8.154662174E0,2.212242365E0,-9.505280495E0,-9.552865028E-1
8.159662140E0,2.200271368E0,-9.507674217E0,-9.457096457E-1
8.164662106E0,2.214636564E0,-9.502885818E0,-9.265560508E-1
8.169662072E0,2.200271368E0,-9.500492096E0,-9.265560508E-1
8.174662072E0,2.212242365E0,-9.471760750E0,-9.026140571E-1
8.179662072E0,2.224213362E0,-9.462183952E0,-8.954314590E-1
8.184662505E0,2.240972757E0,-9.438241959E0,-8.786720037E-1
8.189663205E0,2.248155355E0,-9.445425034E0,-8.571242094E-1
8.194663905E0,2.267308950E0,-9.483732224E0,-8.475474119E-1
8.199663905E0,2.269703150E0,-9.471760750E0,-8.140285611E-1
8.204663905E0,2.298433542E0,-9.469367027E0,-7.972691655E-1
8.209663871E0,2.303221941E0,-9.512462616E0,-7.805097699E-1
8.214663871E0,2.327163935E0,-9.486125946E0,-7.637503147E-1
8.219663871E0,2.322375536E0,-9.502885818E0,-7.637503147E-1
8.224663904E0,2.324769735E0,-9.490914345E0,-7.565677166E-1
8.229663904E0,2.341529369E0,-9.510068893E0,-7.565677166E-1
8.234663904E0,2.367865562E0,-9.507674217E0,-7.541735172E-1
8.239663870E0,2.377442360E0,-9.488520622E0,-7.469909191E-1
8.244663836E0,2.391807556E0,-9.498097420E0,-7.709329724E-1
8.249663802E0,2.406172752E0,-9.505280495E0,-7.733271718E-1
8.254663802E0,2.394201756E0,-9.505280495E0,-7.924807668E-1
8.259663835E0,2.430114746E0,-9.483732224E0,-8.236053586E-1
8.264664268E0,2.434903145E0,-9.462183952E0,-8.331822157E-1
8.269664301E0,2.437297344E0,-9.464578629E0,-8.499416113E-1
8.274664301E0,2.418143749E0,-9.457395554E0,-8.523358107E-1
8.279664301E0,2.420537949E0,-9.443030357E0,-8.810662031E-1
8.284664267E0,2.410961151E0,-9.455001831E0,-8.810662031E-1
8.289664267E0,2.401384354E0,-9.486125946E0,-8.858546019E-1
8.294664267E0,2.398990154E0,-9.474155426E0,-8.930372596E-1
8.299664300E0,2.384624958E0,-9.464578629E0,-8.954314590E-1
8.304664333E0,2.396595955E0,-9.474155426E0,-9.145850539E-1
8.309664333E0,2.382230759E0,-9.481337547E0,-9.050082564E-1
8.314664333E0,2.351106167E0,-9.486125946E0,-9.265560508E-1
8.319664333E0,2.370259762E0,-9.498097420E0,-9.217676520E-1
8.324664333E0,2.353500366E0,-9.510068893E0,-9.241618514E-1
8.329664333E0,2.334346771E0,-9.534010887E0,-9.145850539E-1
8.334664299E0,2.303221941E0,-9.522039413E0,-9.026140571E-1
8.339664299E0,2.319981337E0,-9.510068893E0,-9.193734527E-1
8.344664299E0,2.310404539E0,-9.450213432E0,-9.193734527E-1
8.349664332E0,2.291250944E0,-9.464578629E0,-8.834604025E-1
8.354664332E0,2.291250944E0,-9.471760750E0,-8.906430602E-1
8.359664332E0,2.274491549E0,-9.462183952E0,-8.643068075E-1
8.364664298E0,2.272097349E0,-9.483732224E0,-8.403648138E-1
8.369664298E0,2.279279947E0,-9.469367027E0,-8.475474119E-1
8.374664298E0,2.324769735E0,-9.478943825E0,-8.451532125E-1
8.379664331E0,2.319981337E0,-9.459790230E0,-8.331822157E-1
8.384664331E0,2.372653961E0,-9.447818756E0,-8.283938169E-1
8.389664331E0,2.394201756E0,-9.438241959E0,-8.379706144E-1
8.394664331E0,2.401384354E0,-9.462183952E0,-8.092401624E-1
8.399664331E0,2.389413357E0,-9.459790230E0,-7.924807668E-1
8.404664331E0,2.384624958E0,-9.483732224E0,-7.852981687E-1
8.409664297E0,2.406172752E0,-9.464578629E0,-7.829039693E-1
8.414664297E0,2.391807556E0,-9.476549149E0,-7.565677166E-1
8.419664297E0,2.384624958E0,-9.483732224E0,-7.637503147E-1
8.424664330E0,2.377442360E0,-9.495702744E0,-7.589619160E-1
8.429664363E0,2.379836559E0,-9.502885818E0,-7.661445141E-1
8.434664363E0,2.358288765E0,-9.524434090E0,-7.709329724E-1
8.439664329E0,2.348711967E0,-9.507674217E0,-7.852981687E-1
8.444664295E0,2.351106167E0,-9.502885818E0,-7.948749661E-1
8.449664295E0,2.310404539E0,-9.498097420E0,-7.996633649E-1
8.454664295E0,2.305616140E0,-9.486125946E0,-8.020575643E-1
8.459664328E0,2.288856745E0,-9.464578629E0,-8.212111592E-1
8.464664328E0,2.317587137E0,-9.478943825E0,-8.403648138E-1
8.469664328E0,2.312798738E0,-9.481337547E0,-8.523358107E-1
8.474664328E0,2.339135170E0,-9.483732224E0,-8.643068075E-1
8.479664328E0,2.346317768E0,-9.476549149E0,-8.571242094E-1
8.484664328E0,2.372653961E0,-9.464578629E0,-8.786720037E-1
8.489664294E0,2.389413357E0,-9.438241959E0,-8.906430602E-1
8.494664294E0,2.391807556E0,-9.445425034E0,-8.978256583E-1
8.499664294E0,2.410961151E0,-9.459790230E0,-9.074024558E-1
8.504664327E0,2.430114746E0,-9.450213432E0,-9.265560508E-1
8.509664327E0,2.410961151E0,-9.457395554E0,-9.097966552E-1
8.514664327E0,2.425326347E0,-9.471760750E0,-9.313444495E-1
8.519664293E0,2.439691544E0,-9.471760750E0,-9.217676520E-1
8.524664259E0,2.444479942E0,-9.455001831E0,-9.361328483E-1
8.529664225E0,2.434903145E0,-9.440636635E0,-9.457096457E-1
8.534664225E0,2.442085743E0,-9.452607155E0,-9.528923035E-1
8.539664258E0,2.427720547E0,-9.452607155E0,-9.504981041E-1
8.544664291E0,2.442085743E0,-9.438241959E0,-9.361328483E-1
8.549664324E0,2.403778553E0,-9.464578629E0,-9.504981041E-1
8.554664357E0,2.387019157E0,-9.474155426E0,-9.289502501E-1
8.559664357E0,2.379836559E0,-9.464578629E0,-9.289502501E-1
8.564664323E0,2.372653961E0,-9.502885818E0,-9.097966552E-1
8.569664289E0,2.348711967E0,-9.486125946E0,-8.930372596E-1
8.574664289E0,2.324769735E0,-9.481337547E0,-8.643068075E-1
8.579664289E0,2.336740971E0,-9.476549149E0,-8.259995580E-1
8.584664322E0,2.327163935E0,-9.474155426E0,-8.259995580E-1
8.589664322E0,2.324769735E0,-9.488520622E0,-7.924807668E-1
8.594664322E0,2.351106167E0,-9.490914345E0,-7.900865674E-1
8.599664288E0,2.360682964E0,-9.476549149E0,-7.948749661E-1
8.604664254E0,2.379836559E0,-9.478943825E0,-7.517793179E-1
8.609664220E0,2.384624958E0,-9.481337547E0,-7.469909191E-1
8.614664220E0,2.403778553E0,-9.476549149E0,-7.565677166E-1
8.619664253E0,2.420537949E0,-9.471760750E0,-7.493851185E-1
8.624664286E0,2.425326347E0,-9.466972351E0,-7.637503147E-1
8.629664319E0,2.451662540E0,-9.476549149E0,-7.733271718E-1
8.634664319E0,2.444479942E0,-9.481337547E0,-7.781155705E-1
8.639664319E0,2.456450939E0,-9.486125946E0,-7.733271718E-1
8.644664285E0,2.454056740E0,-9.483732224E0,-7.996633649E-1
8.649664285E0,2.466027737E0,-9.469367027E0,-8.164227605E-1
8.654664285E0,2.470816135E0,-9.447818756E0,-8.499416113E-1
8.659664318E0,2.463633537E0,-9.452607155E0,-8.475474119E-1
8.664664318E0,2.442085743E0,-9.481337547E0,-8.667010069E-1
8.669664318E0,2.410961151E0,-9.488520622E0,-9.050082564E-1
8.674664318E0,2.415749550E0,-9.469367027E0,-9.050082564E-1
8.679664318E0,2.406172752E0,-9.474155426E0,-9.050082564E-1
8.684664318E0,2.382230759E0,-9.462183952E0,-9.265560508E-1
8.689664284E0,2.358288765E0,-9.476549149E0,-9.193734527E-1
8.694664250E0,2.358288765E0,-9.447818756E0,-9.385270476E-1
8.699664250E0,2.329558372E0,-9.447818756E0,-9.409212470E-1
8.704664250E0,2.312798738E0,-9.471760750E0,-9.481038451E-1
8.709664283E0,2.296039343E0,-9.488520622E0,-9.528923035E-1
8.714664283E0,2.288856745E0,-9.490914345E0,-9.504981041E-1
8.719664283E0,2.279279947E0,-9.486125946E0,-9.624691010E-1
8.724664249E0,2.269703150E0,-9.478943825E0,-9.696516991E-1
8.729664249E0,2.284068346E0,-9.481337547E0,-9.576807022E-1
8.734664249E0,2.262520552E0,-9.481337547E0,-9.481038451E-1
8.739664282E0,2.245761156E0,-9.474155426E0,-9.337386489E-1
8.744664282E0,2.276885748E0,-9.512462616E0,-9.265560508E-1
8.749664282E0,2.257732153E0,-9.490914345E0,-8.930372596E-1
8.754664282E0,2.257732153E0,-9.486125946E0,-8.714894056E-1
8.759664282E0,2.250549555E0,-9.478943825E0,-8.523358107E-1
8.764664282E0,2.262520552E0,-9.495702744E0,-8.283938169E-1
8.769664248E0,2.257732153E0,-9.495702744E0,-8.116343617E-1
8.774664248E0,2.281674147E0,-9.498097420E0,-8.020575643E-1
8.779664248E0,2.293645144E0,-9.517251015E0,-7.948749661E-1
8.784664281E0,2.317587137E0,-9.495702744E0,-7.709329724E-1
8.789664281E0,2.317587137E0,-9.478943825E0,-7.805097699E-1
8.794664281E0,2.329558372E0,-9.486125946E0,-7.493851185E-1
8.799664247E0,2.351106167E0,-9.469367027E0,-7.350199223E-1
8.804664213E0,2.351106167E0,-9.443030357E0,-7.350199223E-1
8.809664179E0,2.355894566E0,-9.440636635E0,-7.230489254E-1
8.814664179E0,2.382230759E0,-9.435848236E0,-7.398083210E-1
8.819664179E0,2.406172752E0,-9.466972351E0,-7.182605267E-1
8.824664212E0,2.437297344E0,-9.466972351E0,-7.206547260E-1
8.829664245E0,2.468421936E0,-9.450213432E0,-7.422025204E-1
8.834664278E0,2.466027737E0,-9.452607155E0,-7.350199223E-1
8.839664278E0,2.468421936E0,-9.466972351E0,-7.445967197E-1
8.844664278E0,2.487575531E0,-9.457395554E0,-7.493851185E-1
8.849664244E0,2.477998734E0,-9.452607155E0,-7.541735172E-1
8.854664244E0,2.475604534E0,-9.443030357E0,-7.469909191E-1
8.859664244E0,2.442085743E0,-9.462183952E0,-7.589619160E-1
8.864664277E0,2.422932148E0,-9.459790230E0,-7.685387731E-1
8.869664277E0,2.434903145E0,-9.466972351E0,-7.805097699E-1
8.874664277E0,2.401384354E0,-9.476549149E0,-7.876923680E-1
8.879664243E0,2.377442360E0,-9.517251015E0,-8.044517636E-1
8.884664209E0,2.389413357E0,-9.507674217E0,-8.164227605E-1
8.889664175E0,2.360682964E0,-9.517251015E0,-8.403648138E-1
8.894664175E0,2.343923569E0,-9.514857292E0,-8.738836050E-1
8.899664208E0,2.341529369E0,-9.519645691E0,-8.978256583E-1
8.904664241E0,2.298433542E0,-9.495702744E0,-9.050082564E-1
8.909664274E0,2.300827742E0,-9.488520622E0,-9.193734527E-1
8.914664274E0,2.293645144E0,-9.488520622E0,-9.337386489E-1
8.919664274E0,2.291250944E0,-9.459790230E0,-9.409212470E-1
8.924663907E0,2.308010340E0,-9.450213432E0,-9.528923035E-1
8.929663207E0,2.319981337E0,-9.462183952E0,-9.600749016E-1
8.934662540E0,2.331952572E0,-9.455001831E0,-9.792284966E-1
8.939661906E0,2.334346771E0,-9.447818756E0,-9.888052940E-1
8.944661272E0,2.353500366E0,-9.443030357E0,-9.935936928E-1
8.949660605E0,2.339135170E0,-9.443030357E0,-9.983820915E-1
8.954659938E0,2.365471363E0,-9.466972351E0,-9.840168953E-1
8.959659038E0,2.375048161E0,-9.459790230E0,-9.792284966E-1
8.964658138E0,2.384624958E0,-9.447818756E0,-9.576807022E-1
8.969657238E0,2.391807556E0,-9.464578629E0,-9.552865028E-1
8.974656304E0,2.377442360E0,-9.471760750E0,-9.361328483E-1
8.979655404E0,2.372653961E0,-9.478943825E0,-9.121908545E-1
8.984655404E0,2.370259762E0,-9.469367027E0,-8.906430602E-1
8.989655437E0,2.334346771E0,-9.466972351E0,-8.643068075E-1
8.994654770E0,2.336740971E0,-9.481337547E0,-8.283938169E-1
8.999655070E0,2.319981337E0,-9.476549149E0,-8.044517636E-1
9.004654370E0,2.303221941E0,-9.512462616E0,-7.900865674E-1
9.009654370E0,2.305616140E0,-9.519645691E0,-7.733271718E-1
9.014653703E0,2.298433542E0,-9.536404610E0,-7.469909191E-1
9.019653736E0,2.303221941E0,-9.514857292E0,-7.398083210E-1
9.024653736E0,2.310404539E0,-9.519645691E0,-7.398083210E-1
9.029653336E0,2.317587137E0,-9.534010887E0,-7.182605267E-1
9.034652636E0,2.284068346E0,-9.490914345E0,-7.182605267E-1
9.039652636E0,2.281674147E0,-9.478943825E0,-7.206547260E-1
9.044652636E0,2.308010340E0,-9.471760750E0,-6.967126727E-1
9.049652602E0,2.298433542E0,-9.486125946E0,-6.967126727E-1
9.054652568E0,2.291250944E0,-9.488520622E0,-7.110779285E-1
9.059652568E0,2.274491549E0,-9.498097420E0,-7.158663273E-1
9.064652601E0,2.312798738E0,-9.481337547E0,-7.398083210E-1
9.069652634E0,2.327163935E0,-9.455001831E0,-7.661445141E-1
9.074652967E0,2.391807556E0,-9.474155426E0,-8.164227605E-1
9.079653633E0,2.389413357E0,-9.462183952E0,-8.427590132E-1
9.084654266E0,2.403778553E0,-9.462183952E0,-8.643068075E-1
9.089654932E0,2.394201756E0,-9.469367027E0,-8.786720037E-1
9.094655598E0,2.408566952E0,-9.455001831E0,-9.026140571E-1
9.099656298E0,2.408566952E0,-9.462183952E0,-9.145850539E-1
9.104656964E0,2.398990154E0,-9.455001831E0,-9.217676520E-1
9.109657864E0,2.427720547E0,-9.478943825E0,-9.217676520E-1
9.114658764E0,2.406172752E0,-9.471760750E0,-9.169792533E-1
9.119659664E0,2.394201756E0,-9.476549149E0,-9.193734527E-1
9.124660064E0,2.396595955E0,-9.476549149E0,-9.241618514E-1
9.129660930E0,2.408566952E0,-9.445425034E0,-9.145850539E-1
9.134660930E0,2.451662540E0,-9.438241959E0,-9.576807022E-1
9.139660930E0,2.437297344E0,-9.433453560E0,-9.457096457E-1
9.144661630E0,2.458845139E0,-9.431059837E0,-9.433154464E-1
9.149661330E0,2.444479942E0,-9.443030357E0,-9.169792533E-1
9.154661996E0,2.427720547E0,-9.466972351E0,-8.930372596E-1
9.159661962E0,2.422932148E0,-9.481337547E0,-8.643068075E-1
9.164662595E0,2.384624958E0,-9.514857292E0,-8.355764151E-1
9.169662561E0,2.365471363E0,-9.514857292E0,-8.140285611E-1
9.174662561E0,2.391807556E0,-9.490914345E0,-7.829039693E-1
9.179662961E0,2.375048161E0,-9.490914345E0,-7.733271718E-1
9.184663694E0,2.348711967E0,-9.493309021E0,-7.781155705E-1
9.189663727E0,2.367865562E0,-9.476549149E0,-7.661445141E-1
9.194663760E0,2.351106167E0,-9.498097420E0,-7.709329724E-1
9.199663760E0,2.353500366E0,-9.522039413E0,-7.733271718E-1
9.204663760E0,2.346317768E0,-9.519645691E0,-7.829039693E-1
9.209663726E0,2.339135170E0,-9.512462616E0,-7.613561153E-1
9.214663726E0,2.319981337E0,-9.498097420E0,-7.948749661E-1
9.219663726E0,2.322375536E0,-9.498097420E0,-7.876923680E-1
9.224663759E0,2.308010340E0,-9.469367027E0,-7.972691655E-1
9.229663759E0,2.308010340E0,-9.495702744E0,-7.781155705E-1
9.234663759E0,2.305616140E0,-9.493309021E0,-7.852981687E-1
9.239663725E0,2.303221941E0,-9.478943825E0,-7.924807668E-1
9.244663691E0,2.329558372E0,-9.466972351E0,-7.805097699E-1
9.249663657E0,2.334346771E0,-9.478943825E0,-8.116343617E-1
9.254663657E0,2.343923569E0,-9.466972351E0,-8.188169599E-1
9.259663690E0,2.348711967E0,-9.469367027E0,-8.283938169E-1
9.264663723E0,2.384624958E0,-9.462183952E0,-8.547300100E-1
9.269663756E0,2.394201756E0,-9.466972351E0,-8.643068075E-1
9.274664256E0,2.382230759E0,-9.466972351E0,-8.547300100E-1
9.279664256E0,2.396595955E0,-9.462183952E0,-8.523358107E-1
9.284664222E0,2.365471363E0,-9.457395554E0,-8.667010069E-1
9.289664188E0,2.355894566E0,-9.447818756E0,-8.810662031E-1
9.294664154E0,2.355894566E0,-9.452607155E0,-8.738836050E-1
9.299664154E0,2.331952572E0,-9.445425034E0,-8.738836050E-1
9.304664154E0,2.322375536E0,-9.459790230E0,-8.595184088E-1
9.309664187E0,2.329558372E0,-9.447818756E0,-8.906430602E-1
9.314664220E0,2.319981337E0,-9.462183952E0,-9.074024558E-1
9.319664253E0,2.312798738E0,-9.469367027E0,-9.289502501E-1
9.324664253E0,2.339135170E0,-9.478943825E0,-9.337386489E-1
9.329664253E0,2.339135170E0,-9.478943825E0,-9.409212470E-1
9.334664219E0,2.353500366E0,-9.500492096E0,-9.457096457E-1
9.339664219E0,2.331952572E0,-9.502885818E0,-9.217676520E-1
9.344664219E0,2.365471363E0,-9.526827812E0,-9.002198577E-1
9.349664252E0,2.351106167E0,-9.505280495E0,-9.026140571E-1
9.354664252E0,2.355894566E0,-9.481337547E0,-8.762778044E-1
9.359664252E0,2.360682964E0,-9.486125946E0,-8.714894056E-1
9.364664218E0,2.324769735E0,-9.459790230E0,-8.595184088E-1
9.369664184E0,2.351106167E0,-9.469367027E0,-8.283938169E-1
9.374664150E0,2.360682964E0,-9.462183952E0,-8.283938169E-1
9.379664150E0,2.396595955E0,-9.464578629E0,-8.212111592E-1
9.384664183E0,2.449268341E0,-9.469367027E0,-8.283938169E-1
9.389664216E0,2.451662540E0,-9.457395554E0,-8.379706144E-1
9.394664249E0,2.473210335E0,-9.462183952E0,-8.499416113E-1
9.399664249E0,2.482787132E0,-9.464578629E0,-8.427590132E-1
9.404664249E0,2.489969730E0,-9.426271439E0,-8.259995580E-1
9.409664215E0,2.492363930E0,-9.428665161E0,-8.188169599E-1
9.414664215E0,2.485181332E0,-9.431059837E0,-8.451532125E-1
9.419664215E0,2.489969730E0,-9.455001831E0,-8.307880163E-1
9.424664248E0,2.468421936E0,-9.459790230E0,-8.188169599E-1
9.429664281E0,2.454056740E0,-9.459790230E0,-8.283938169E-1
9.434664281E0,2.415749550E0,-9.445425034E0,-8.427590132E-1
9.439664281E0,2.394201756E0,-9.438241959E0,-8.451532125E-1
9.444664281E0,2.403778553E0,-9.445425034E0,-8.475474119E-1
9.449664281E0,2.382230759E0,-9.459790230E0,-8.571242094E-1
9.454664281E0,2.343923569E0,-9.486125946E0,-8.619126081E-1
9.459664247E0,2.353500366E0,-9.502885818E0,-8.667010069E-1
9.464664247E0,2.319981337E0,-9.519645691E0,-8.882488012E-1
9.469664247E0,2.293645144E0,-9.538799286E0,-8.954314590E-1
9.474664280E0,2.291250944E0,-9.526827812E0,-8.738836050E-1
9.479664280E0,2.276885748E0,-9.543587685E0,-8.762778044E-1
9.484664280E0,2.257732153E0,-9.524434090E0,-8.619126081E-1
9.489664246E0,2.233790159E0,-9.505280495E0,-8.667010069E-1
9.494664246E0,2.221819162E0,-9.481337547E0,-8.499416113E-1
9.499664246E0,2.207453966E0,-9.469367027E0,-8.379706144E-1
9.504664279E0,2.205059767E0,-9.490914345E0,-8.307880163E-1
9.509664279E0,2.205059767E0,-9.469367027E0,-8.116343617E-1
9.514664279E0,2.243366957E0,-9.474155426E0,-8.044517636E-1
9.519664279E0,2.257732153E0,-9.493309021E0,-8.140285611E-1
9.524664279E0,2.248155355E0,-9.500492096E0,-8.092401624E-1
9.529664279E0,2.257732153E0,-9.498097420E0,-8.164227605E-1
9.534664245E0,2.298433542E0,-9.469367027E0,-8.259995580E-1
9.539664245E0,2.319981337E0,-9.481337547E0,-8.068459630E-1
9.544664245E0,2.336740971E0,-9.481337547E0,-8.092401624E-1
9.549664278E0,2.343923569E0,-9.471760750E0,-7.996633649E-1
9.554664311E0,2.372653961E0,-9.483732224E0,-7.805097699E-1
9.559664311E0,2.394201756E0,-9.495702744E0,-7.757213712E-1
9.564664277E0,2.394201756E0,-9.514857292E0,-7.709329724E-1
9.569664243E0,2.384624958E0,-9.498097420E0,-7.733271718E-1
9.574664243E0,2.389413357E0,-9.512462616E0,-7.637503147E-1
9.579664243E0,2.379836559E0,-9.481337547E0,-7.685387731E-1
9.584664276E0,2.387019157E0,-9.505280495E0,-7.637503147E-1
9.589664276E0,2.401384354E0,-9.505280495E0,-7.422025204E-1
9.594664276E0,2.355894566E0,-9.495702744E0,-7.374141216E-1
9.599664276E0,2.360682964E0,-9.493309021E0,-7.374141216E-1
9.604664276E0,2.358288765E0,-9.519645691E0,-7.589619160E-1
9.609664276E0,2.355894566E0,-9.519645691E0,-7.469909191E-1
9.614664242E0,2.339135170E0,-9.469367027E0,-7.733271718E-1
9.619664242E0,2.384624958E0,-9.486125946E0,-7.900865674E-1
9.624664242E0,2.360682964E0,-9.524434090E0,-7.852981687E-1
9.629664275E0,2.339135170E0,-9.498097420E0,-8.116343617E-1
9.634664275E0,2.315192938E0,-9.447818756E0,-8.331822157E-1
9.639664275E0,2.334346771E0,-9.375992775E0,-8.595184088E-1
9.644664241E0,2.336740971E0,-9.359233856E0,-8.523358107E-1
9.649664241E0,2.296039343E0,-9.349657059E0,-8.475474119E-1
9.654664241E0,2.276885748E0,-9.438241959E0,-8.259995580E-1
9.659664274E0,2.291250944E0,-9.517251015E0,-8.355764151E-1
9.664664274E0,2.334346771E0,-9.596260071E0,-8.523358107E-1
9.669664274E0,2.365471363E0,-9.598653793E0,-8.738836050E-1
9.674664274E0,2.422932148E0,-9.567529678E0,-9.145850539E-1
9.679664274E0,2.475604534E0,-9.519645691E0,-9.457096457E-1
9.684664274E0,2.477998734E0,-9.445425034E0,-9.672574997E-1
9.689664240E0,2.482787132E0,-9.409511566E0,-9.792284966E-1
9.694664206E0,2.466027737E0,-9.399934769E0,-9.481038451E-1
9.699664206E0,2.444479942E0,-9.433453560E0,-9.337386489E-1
9.704664206E0,2.410961151E0,-9.457395554E0,-9.026140571E-1
9.709664239E0,2.408566952E0,-9.483732224E0,-8.882488012E-1
9.714664239E0,2.384624958E0,-9.510068893E0,-8.595184088E-1
9.719664239E0,2.365471363E0,-9.498097420E0,-8.523358107E-1
9.724664205E0,2.346317768E0,-9.502885818E0,-8.403648138E-1
9.729664205E0,2.331952572E0,-9.481337547E0,-8.475474119E-1
9.734664205E0,2.324769735E0,-9.476549149E0,-8.379706144E-1
9.739664238E0,2.315192938E0,-9.498097420E0,-8.523358107E-1
9.744664238E0,2.319981337E0,-9.493309021E0,-8.475474119E-1
9.749664238E0,2.284068346E0,-9.471760750E0,-8.259995580E-1
9.754664238E0,2.276885748E0,-9.476549149E0,-8.116343617E-1
9.759664238E0,2.248155355E0,-9.476549149E0,-7.924807668E-1
9.764664238E0,2.240972757E0,-9.478943825E0,-7.805097699E-1
9.769664204E0,2.260126352E0,-9.483732224E0,-7.781155705E-1
9.774664204E0,2.279279947E0,-9.471760750E0,-7.781155705E-1
9.779664204E0,2.291250944E0,-9.464578629E0,-7.661445141E-1
9.784664237E0,2.331952572E0,-9.474155426E0,-7.852981687E-1
9.789664237E0,2.363077164E0,-9.428665161E0,-7.805097699E-1
9.794664237E0,2.396595955E0,-9.452607155E0,-7.709329724E-1
9.799664203E0,2.413355350E0,-9.457395554E0,-7.685387731E-1
9.804664169E0,2.432508945E0,-9.481337547E0,-7.805097699E-1
9.809664135E0,2.437297344E0,-9.490914345E0,-7.781155705E-1
9.814664135E0,2.446874142E0,-9.498097420E0,-7.781155705E-1
9.819664135E0,2.439691544E0,-9.512462616E0,-7.613561153E-1
9.824664168E0,2.410961151E0,-9.486125946E0,-7.637503147E-1
9.829664201E0,2.389413357E0,-9.474155426E0,-7.445967197E-1
9.834664234E0,2.379836559E0,-9.459790230E0,-7.398083210E-1
9.839664234E0,2.343923569E0,-9.476549149E0,-7.374141216E-1
9.844664234E0,2.327163935E0,-9.483732224E0,-7.254431248E-1
9.849664200E0,2.308010340E0,-9.483732224E0,-7.398083210E-1
9.854664200E0,2.274491549E0,-9.495702744E0,-7.326257229E-1
9.859664200E0,2.262520552E0,-9.514857292E0,-7.541735172E-1
9.864664233E0,2.262520552E0,-9.507674217E0,-7.422025204E-1
9.869664233E0,2.255337954E0,-9.490914345E0,-7.541735172E-1
9.874664233E0,2.248155355E0,-9.478943825E0,-7.613561153E-1
9.879664199E0,2.243366957E0,-9.500492096E0,-7.781155705E-1
9.884664165E0,2.264914751E0,-9.500492096E0,-7.781155705E-1
9.889664131E0,2.260126352E0,-9.493309021E0,-7.948749661E-1
9.894664131E0,2.296039343E0,-9.469367027E0,-8.068459630E-1
9.899664164E0,2.327163935E0,-9.457395554E0,-8.116343617E-1
9.904664197E0,2.346317768E0,-9.476549149E0,-8.068459630E-1
9.909664230E0,2.353500366E0,-9.490914345E0,-8.212111592E-1
9.914664230E0,2.365471363E0,-9.483732224E0,-8.164227605E-1
9.919664230E0,2.375048161E0,-9.512462616E0,-8.092401624E-1
9.924664196E0,2.363077164E0,-9.507674217E0,-8.307880163E-1
9.929663496E0,2.370259762E0,-9.486125946E0,-8.236053586E-1
9.934662829E0,2.382230759E0,-9.474155426E0,-8.212111592E-1
9.939661962E0,2.389413357E0,-9.455001831E0,-8.283938169E-1
9.944661328E0,2.403778553E0,-9.450213432E0,-8.451532125E-1
9.949660661E0,2.396595955E0,-9.435848236E0,-8.331822157E-1
9.954660661E0,2.420537949E0,-9.447818756E0,-8.475474119E-1
9.959659994E0,2.415749550E0,-9.452607155E0,-8.667010069E-1
9.964659094E0,2.408566952E0,-9.459790230E0,-8.547300100E-1
9.969658194E0,2.363077164E0,-9.476549149E0,-8.451532125E-1
9.974657260E0,2.375048161E0,-9.464578629E0,-8.499416113E-1
9.979656360E0,2.372653961E0,-9.486125946E0,-8.643068075E-1
9.984656360E0,2.343923569E0,-9.478943825E0,-8.499416113E-1
9.989655726E0,2.360682964E0,-9.514857292E0,-8.475474119E-1
9.994655059E0,2.353500366E0,-9.517251015E0,-8.523358107E-1
9.999654892E0,2.367865562E0,-9.529222488E0,-8.571242094E-1
1.000465486E1,2.375048161E0,-9.502885818E0,-8.738836050E-1
1.000965486E1,2.391807556E0,-9.493309021E0,-8.619126081E-1
1.001465486E1,2.396595955E0,-9.488520622E0,-8.906430602E-1
1.001965422E1,2.406172752E0,-9.483732224E0,-8.786720037E-1
1.002465422E1,2.387019157E0,-9.469367027E0,-8.619126081E-1
1.002965422E1,2.343923569E0,-9.474155426E0,-8.667010069E-1
1.003465422E1,2.331952572E0,-9.478943825E0,-8.499416113E-1
1.003965422E1,2.336740971E0,-9.474155426E0,-8.427590132E-1
1.004465382E1,2.315192938E0,-9.459790230E0,-8.116343617E-1
1.004965369E1,2.329558372E0,-9.443030357E0,-8.283938169E-1
1.005465366E1,2.315192938E0,-9.450213432E0,-8.283938169E-1
1.005965366E1,2.334346771E0,-9.447818756E0,-8.475474119E-1
1.006465369E1,2.322375536E0,-9.466972351E0,-8.523358107E-1
1.006965372E1,2.351106167E0,-9.498097420E0,-8.379706144E-1
1.007465372E1,2.346317768E0,-9.512462616E0,-8.355764151E-1
1.007965439E1,2.324769735E0,-9.522039413E0,-8.140285611E-1
1.008465502E1,2.303221941E0,-9.502885818E0,-7.972691655E-1
1.008965589E1,2.293645144E0,-9.502885818E0,-8.044517636E-1
1.009465652E1,2.300827742E0,-9.486125946E0,-7.924807668E-1
1.009965719E1,2.296039343E0,-9.493309021E0,-7.852981687E-1
1.010465722E1,2.276885748E0,-9.481337547E0,-7.876923680E-1
1.010965792E1,2.269703150E0,-9.490914345E0,-7.996633649E-1
1.011465885E1,2.291250944E0,-9.502885818E0,-7.900865674E-1
1.011965975E1,2.272097349E0,-9.505280495E0,-8.092401624E-1
1.012466065E1,2.264914751E0,-9.507674217E0,-8.116343617E-1
1.012966152E1,2.243366957E0,-9.505280495E0,-8.068459630E-1
1.013466152E1,2.260126352E0,-9.507674217E0,-7.972691655E-1
1.013966218E1,2.250549555E0,-9.507674217E0,-8.116343617E-1
1.014466288E1,2.260126352E0,-9.505280495E0,-8.331822157E-1
1.014966305E1,2.284068346E0,-9.490914345E0,-8.331822157E-1
1.015466305E1,2.303221941E0,-9.500492096E0,-8.427590132E-1
1.015966302E1,2.305616140E0,-9.483732224E0,-8.523358107E-1
1.016466298E1,2.343923569E0,-9.493309021E0,-8.595184088E-1
1.016966362E1,2.339135170E0,-9.488520622E0,-8.738836050E-1
1.017466362E1,2.396595955E0,-9.481337547E0,-8.786720037E-1
