"Time (s)","Acceleration x (m/s^2)","Acceleration y (m/s^2)","Acceleration z (m/s^2)"
2.946532000E-3,1.727617979E0,5.036891460E0,7.456035137E0
7.796897000E-3,1.653440475E0,4.945964336E0,7.408178806E0
1.264736600E-2,1.794616938E0,4.735395908E0,7.250252724E0
1.749778200E-2,1.806581140E0,4.721039295E0,7.034898758E0
2.234819900E-2,1.672582984E0,4.931607246E0,7.034898758E0
2.719856300E-2,1.648654819E0,5.048855782E0,7.164111137E0
3.204898000E-2,1.734796405E0,5.041677475E0,7.233502865E0
3.689939700E-2,1.940579176E0,4.957928658E0,7.410571575E0
4.174981300E-2,2.203789711E0,4.826323509E0,7.556533813E0
4.660017800E-2,2.206182480E0,4.680361271E0,7.889136314E0
5.145059500E-2,2.328216314E0,4.572684288E0,8.097311974E0
5.630101100E-2,2.488535643E0,4.467400074E0,8.238488197E0
6.115137600E-2,2.598605394E0,4.395615101E0,8.379665375E0
6.600179300E-2,2.533999205E0,4.462614059E0,8.623732567E0
7.085220900E-2,2.380858421E0,4.603790760E0,8.915657043E0
7.570257400E-2,2.167897224E0,4.773681164E0,9.087940216E0
8.055299100E-2,2.019542217E0,4.984249592E0,9.102297783E0
8.540340700E-2,1.875972986E0,5.044070244E0,8.968298912E0
9.025382400E-2,1.976471543E0,5.032105923E0,8.645268440E0
9.510418800E-2,2.163111687E0,4.967499733E0,8.303094864E0
9.995460500E-2,2.344966173E0,4.855037212E0,7.999206066E0
1.048050220E-1,2.373680115E0,4.771288395E0,7.733603001E0
1.096554380E-1,2.455035925E0,4.713860512E0,7.472784996E0
1.145058030E-1,2.593819857E0,4.687539577E0,7.381857872E0
1.193562200E-1,2.644068956E0,4.620540619E0,7.207181931E0
1.242066360E-1,2.835494757E0,4.704289436E0,7.137789726E0
1.290570010E-1,2.821137905E0,4.701896667E0,7.144968510E0
1.339074180E-1,2.935993433E0,4.730610371E0,7.054041386E0
1.387578340E-1,2.811566591E0,4.716253281E0,7.077969551E0
1.436081990E-1,2.845066071E0,4.790431023E0,7.066005230E0
1.484586160E-1,2.730210543E0,4.716253281E0,7.243073940E0
1.533090320E-1,2.790031195E0,4.766502857E0,7.343572617E0
1.581594490E-1,2.670390129E0,4.670789719E0,7.539783955E0
1.630098130E-1,2.660818815E0,4.697110653E0,7.628318787E0
1.678602300E-1,2.553141832E0,4.694717884E0,7.853243828E0
1.727106470E-1,2.359323025E0,4.670789719E0,7.960920811E0
1.775610110E-1,2.254039049E0,4.761716843E0,8.066205025E0
1.824114280E-1,2.009970903E0,4.682754040E0,8.133204460E0
1.872618450E-1,1.964507341E0,4.723432064E0,8.080561638E0
1.921122610E-1,1.849651933E0,4.768895626E0,8.140382767E0
1.969626260E-1,1.651047587E0,4.771288395E0,8.154739380E0
2.018130430E-1,1.701296926E0,4.761716843E0,8.171489716E0
2.066634590E-1,1.811366796E0,4.677968502E0,8.159524918E0
2.115138760E-1,1.950150490E0,4.567898273E0,8.039883614E0
2.163642410E-1,2.210968018E0,4.534399033E0,8.039883614E0
2.212146570E-1,2.435893536E0,4.386044025E0,7.970492363E0
2.260650740E-1,2.596212626E0,4.194618225E0,7.814958572E0
2.309154380E-1,2.821137905E0,4.043870449E0,7.712067604E0
2.357658550E-1,2.974278450E0,3.912265062E0,7.625925541E0
2.406162720E-1,3.060420275E0,3.756731510E0,7.479963779E0
2.453716360E-1,3.395415306E0,3.747160196E0,7.429714203E0
2.501269490E-1,3.591626883E0,3.718446493E0,7.369893551E0
2.548822610E-1,3.572484255E0,3.605983734E0,7.293323517E0
2.596375740E-1,3.388236761E0,3.510270834E0,7.243073940E0
2.643928340E-1,3.144168854E0,3.357130051E0,7.228717327E0
2.691481470E-1,3.019742250E0,3.237488985E0,7.178467751E0
2.739034590E-1,2.926422119E0,3.170490026E0,7.243073940E0
2.786587200E-1,2.854637384E0,3.160918713E0,7.183253765E0
2.834140320E-1,2.842673302E0,3.084348440E0,7.066005230E0
2.881693450E-1,2.892922640E0,3.055634499E0,6.888936520E0
2.929246050E-1,2.928814888E0,3.065205812E0,6.680760860E0
2.976799180E-1,2.950350285E0,3.215953588E0,6.518048763E0
3.024352300E-1,3.165704250E0,3.316452265E0,6.400800705E0
3.071905430E-1,3.574877024E0,3.225524902E0,6.080162525E0
3.119458030E-1,4.053441525E0,3.024527788E0,5.828916073E0
3.167011160E-1,4.366901398E0,2.847458839E0,5.685346603E0
3.214564280E-1,4.567898273E0,2.677568436E0,5.659025669E0
3.262116880E-1,4.579862595E0,2.612962246E0,5.778666496E0
3.309670010E-1,4.271188259E0,2.545963287E0,5.848058701E0
3.357223130E-1,3.787838221E0,2.443071842E0,5.900700569E0
3.404775740E-1,3.254238844E0,2.007578135E0,5.761917114E0
3.452328860E-1,3.024527788E0,1.780260086E0,5.804987907E0
3.499881990E-1,3.136990547E0,1.718046665E0,5.982056618E0
3.547435110E-1,3.352344513E0,1.777867198E0,6.175875187E0
3.594987720E-1,3.448057413E0,1.871187329E0,6.340980053E0
3.642540840E-1,3.467200041E0,1.942971945E0,6.580262184E0
3.690093970E-1,3.393022537E0,1.966900229E0,6.776473522E0
3.737646570E-1,3.328416348E0,1.909472466E0,6.987041950E0
3.785199700E-1,3.321237803E0,1.734796405E0,7.135396957E0
3.832752820E-1,3.335594654E0,1.596012712E0,7.154539585E0
3.880305430E-1,3.395415306E0,1.512263894E0,7.130611420E0
3.927858550E-1,3.491128206E0,1.564906001E0,6.936792850E0
3.975411680E-1,3.371487141E0,1.617548108E0,6.522834301E0
4.022964280E-1,3.194418192E0,1.713261008E0,6.037091732E0
4.070517410E-1,3.144168854E0,1.655833244E0,5.436492920E0
4.118070530E-1,3.084348440E0,1.615155339E0,4.917250633E0
4.165623660E-1,2.782852650E0,1.727617979E0,4.292723656E0
4.213176260E-1,2.670390129E0,1.844866276E0,3.649054527E0
4.260729380E-1,2.739781857E0,1.919043779E0,3.136990547E0
4.308282510E-1,3.002992392E0,1.935793519E0,2.825923443E0
4.355835110E-1,3.486342669E0,1.868794441E0,2.718246460E0
4.403388240E-1,3.996013880E0,1.777867198E0,2.677568436E0
4.450941360E-1,4.395615101E0,1.749153376E0,2.684746981E0
4.498494490E-1,4.673182487E0,1.710868239E0,2.792423964E0
4.546047090E-1,4.864608288E0,1.732403636E0,3.019742250E0
4.593600220E-1,4.974678040E0,1.773081541E0,3.452843189E0
4.641153340E-1,5.146961689E0,1.658226132E0,3.996013880E0
4.688705950E-1,5.276174068E0,1.517049551E0,4.503292084E0
4.736259070E-1,5.240281582E0,1.454836130E0,4.926821709E0
4.783812200E-1,5.307280540E0,1.318445325E0,5.213960648E0
4.831364800E-1,5.352744102E0,1.354337573E0,5.355136871E0
4.878917930E-1,5.271388054E0,1.596012712E0,5.273781300E0
4.926471050E-1,5.544169903E0,1.768295884E0,5.283352375E0
4.974023660E-1,5.709274769E0,2.139183521E0,5.146961689E0
5.021576780E-1,5.994020939E0,2.481357098E0,4.864608288E0
5.069129910E-1,6.197410583E0,2.892922640E0,4.685146809E0
5.116683030E-1,6.558726788E0,3.153740168E0,4.606183529E0
5.164235630E-1,6.910471916E0,3.404986620E0,4.390829563E0
5.211788760E-1,7.604390144E0,3.364308596E0,4.247260094E0
5.259341880E-1,8.681160927E0,3.132204771E0,4.266402721E0
5.306894490E-1,9.511469841E0,3.010170937E0,4.331008911E0
5.354447610E-1,9.836894035E0,3.072384357E0,4.383651257E0
5.402000740E-1,9.982855797E0,3.290131092E0,4.496113777E0
5.449553340E-1,1.021256733E1,3.438486099E0,4.606183529E0
5.497106470E-1,1.048295593E1,3.546163082E0,4.744967461E0
5.544659590E-1,1.052363396E1,3.620340586E0,4.886143684E0
5.592212200E-1,1.039681435E1,3.675375462E0,4.924428940E0
5.639765320E-1,1.012403297E1,3.766302824E0,4.945964336E0
5.687318450E-1,9.851250648E0,3.833301783E0,4.902893543E0
5.734871570E-1,9.533005714E0,4.036691666E0,4.855037212E0
5.782424180E-1,9.281759262E0,4.235296249E0,4.800002098E0
5.829977300E-1,9.157332420E0,4.359723091E0,4.694717884E0
5.877530430E-1,9.231510162E0,4.189832687E0,4.558327198E0
5.925083030E-1,9.073583603E0,4.331008911E0,4.400400639E0
5.972636160E-1,9.145368576E0,4.419543266E0,4.098905087E0
6.020189280E-1,9.473184586E0,4.453042984E0,4.048655987E0
6.067741880E-1,9.937392235E0,4.474578381E0,4.185046673E0
6.115295010E-1,1.057627583E1,4.433900356E0,4.479363918E0
6.162848130E-1,1.124865913E1,4.500899315E0,4.826323509E0
6.210401260E-1,1.176790142E1,4.627718925E0,5.161318302E0
6.257953860E-1,1.195693493E1,4.776073933E0,5.532206059E0
6.305506990E-1,1.196411324E1,4.764110088E0,5.812166214E0
6.353059590E-1,1.196650600E1,4.644468784E0,5.934200287E0
6.400612720E-1,1.205982590E1,4.543970108E0,5.967699528E0
6.448165840E-1,1.203350544E1,4.460221291E0,5.972485542E0
6.495718970E-1,1.193300629E1,4.438685894E0,5.965306759E0
6.543271570E-1,1.183729362E1,4.431507587E0,5.809773445E0
6.590824700E-1,1.173679543E1,4.431507587E0,5.474778175E0
6.638377820E-1,1.168893814E1,4.424329281E0,5.070391178E0
6.685930430E-1,1.175115204E1,4.390829563E0,4.577469826E0
6.733483550E-1,1.174875927E1,4.398007870E0,4.204189301E0
6.781036680E-1,1.209811115E1,4.232903481E0,3.603590965E0
6.828589280E-1,1.174158096E1,4.546362877E0,3.230310678E0
6.876142410E-1,1.088016415E1,4.890929699E0,2.840280533E0
6.923695530E-1,1.060977554E1,4.895715237E0,2.636890650E0
6.971248130E-1,1.053320503E1,4.589433670E0,2.400001049E0
7.018801260E-1,1.092084217E1,3.979264021E0,2.457428932E0
7.066354380E-1,1.133480072E1,3.543770313E0,2.720639229E0
7.113906990E-1,1.159083271E1,3.505485058E0,3.060420275E0
7.161460110E-1,1.170568848E1,3.706482172E0,3.419343472E0
7.209013240E-1,1.177029419E1,3.811766386E0,3.749552965E0
7.256565840E-1,1.188036442E1,3.739981890E0,3.972085476E0
7.304118970E-1,1.196411324E1,3.543770313E0,4.130012035E0
7.351672090E-1,1.193061352E1,3.369094372E0,4.213760853E0
7.399225220E-1,1.177986622E1,3.275774240E0,4.259224415E0
7.446777820E-1,1.157169056E1,3.261417150E0,4.208974838E0
7.494330950E-1,1.132522964E1,3.206382275E0,4.041477680E0
7.541884070E-1,1.099262714E1,3.122633457E0,3.799802303E0
7.589436680E-1,1.067916775E1,2.967100143E0,3.622733593E0
7.636989800E-1,1.044945621E1,2.825923443E0,3.500699520E0
7.684542930E-1,1.031306553E1,2.691925526E0,3.381058455E0
7.732095530E-1,1.038006496E1,2.555534601E0,3.440878868E0
7.779648660E-1,1.041117096E1,2.478964329E0,3.412165165E0
7.827201780E-1,1.026042366E1,2.572284460E0,3.249453068E0
7.874754380E-1,1.012642574E1,2.600998163E0,3.211168051E0
7.922307510E-1,9.946963310E0,2.455035925E0,3.196810961E0
7.969860630E-1,9.729216576E0,2.285145521E0,3.127419233E0
8.017413240E-1,9.549755096E0,2.096112728E0,2.976671457E0
8.064966360E-1,9.456435204E0,1.990828395E0,2.797209740E0
8.112519490E-1,9.396614075E0,1.914258122E0,2.634497643E0
8.160072090E-1,9.535398483E0,1.732403636E0,2.574677229E0
8.207625220E-1,9.454042435E0,1.844866276E0,2.378465652E0
8.255178340E-1,9.518648148E0,1.859223247E0,2.199003935E0
8.302730950E-1,9.695717812E0,1.732403636E0,2.134397745E0
8.350284070E-1,9.836894035E0,1.564906001E0,2.184647083E0
8.397837200E-1,9.863214493E0,1.430907965E0,2.232503414E0
8.445389800E-1,9.836894035E0,1.325623751E0,2.270788670E0
8.492942930E-1,9.812965393E0,1.244267821E0,2.189432621E0
8.540496050E-1,9.738788605E0,1.158126116E0,2.079362869E0
8.588048660E-1,9.678967476E0,1.079162955E0,1.962114573E0
8.635601780E-1,9.702896118E0,1.067198873E0,1.904686809E0
8.683154910E-1,9.903892517E0,1.050449133E0,1.978864312E0
8.730707510E-1,1.015274620E1,1.138983607E0,2.029113531E0
8.778260630E-1,1.045424175E1,1.337587833E0,2.108076811E0
8.825813760E-1,1.068395329E1,1.581655741E0,2.199003935E0
8.873366360E-1,1.076291656E1,1.780260086E0,2.232503414E0
8.920919490E-1,1.065045357E1,1.892722726E0,2.215753794E0
8.968472610E-1,1.043509960E1,1.897508383E0,2.132004976E0
9.016025220E-1,1.017906761E1,1.816152334E0,2.074577332E0
9.063578340E-1,1.007617569E1,1.756331801E0,2.036292076E0
9.111131470E-1,1.002353382E1,1.718046665E0,2.036292076E0
9.158684590E-1,1.004985523E1,1.653440475E0,2.024327993E0
9.206237200E-1,1.010967541E1,1.641476393E0,2.110469580E0
9.253790320E-1,1.028674412E1,1.617548108E0,2.220539331E0
9.301342930E-1,1.044945621E1,1.646261930E0,2.270788670E0
9.348896050E-1,1.064327526E1,1.746760488E0,2.304288149E0
9.396449180E-1,1.087777138E1,1.885544300E0,2.347358942E0
9.444002300E-1,1.110509014E1,2.045863390E0,2.416750908E0
9.491554910E-1,1.138026428E1,2.239681959E0,2.543570518E0
9.539108030E-1,1.173918819E1,2.443071842E0,2.761317253E0
9.586661160E-1,1.201196957E1,2.598605394E0,3.034099102E0
9.634213760E-1,1.234696484E1,2.656033039E0,3.543770313E0
9.681766880E-1,1.229432297E1,2.998206854E0,3.701696634E0
9.729320010E-1,1.248574829E1,3.115455151E0,3.589233875E0
9.776872610E-1,1.276570892E1,3.086741209E0,3.426522017E0
9.824425740E-1,1.294995594E1,2.914458036E0,3.203989506E0
9.871978860E-1,1.272263813E1,2.986242771E0,3.012563705E0
9.919531470E-1,1.223928738E1,3.101098061E0,2.648854733E0
9.967084590E-1,1.195454216E1,3.034099102E0,2.349751949E0
1.001463772E0,1.185165024E1,2.660818815E0,2.163111687E0
1.006219032E0,1.158843994E1,2.507678032E0,1.890329838E0
1.010974345E0,1.134197903E1,2.495713949E0,1.505085468E0
1.015729657E0,1.131326580E1,2.397608280E0,1.174875975E0
1.020484918E0,1.147597694E1,2.182254314E0,9.308080077E-1
1.025240230E0,1.146640587E1,2.086541414E0,6.891329288E-1
1.029995543E0,1.127737331E1,2.134397745E0,1.555334777E-1
1.034750803E0,1.112662506E1,2.120040894E0,-3.996013701E-1
1.039506116E0,1.105723381E1,1.890329838E0,-7.513462901E-1
1.044261428E0,1.093759251E1,1.722832322E0,-1.167697430E0
1.049016688E0,1.082273674E1,1.684547186E0,-1.430907965E0
1.053772001E0,1.086341476E1,1.624726534E0,-1.691725612E0
1.058527313E0,1.093759251E1,1.564906001E0,-1.674975872E0
1.063282574E0,1.087298584E1,1.490728498E0,-1.584048629E0
1.068037886E0,1.086820030E1,1.306481123E0,-1.677368641E0
1.072793199E0,1.088016415E1,1.052842021E0,-1.643869162E0
1.077548459E0,1.083230782E1,6.963114142E-1,-1.462014675E0
1.082303772E0,1.073420238E1,3.541377485E-1,-1.471585870E0
1.087059032E0,1.065763187E1,-3.637090325E-1,-2.141576290E0
1.091814345E0,1.003071213E1,-7.752745152E-1,-3.141776085E0
1.096569657E0,9.300901413E0,-7.824530005E-1,-3.584448338E0
1.101324970E0,8.623732567E0,-3.708875179E-1,-3.651447296E0
1.106080230E0,8.693124771E0,-3.565305769E-1,-2.746960402E0
1.110835543E0,8.874979019E0,-5.718846321E-1,-1.603191137E0
1.115590803E0,8.908478737E0,-9.714859724E-1,-5.288137794E-1
1.120346116E0,8.743373871E0,-1.304088354E0,3.732803464E-1
1.125101428E0,8.489734650E0,-1.584048629E0,1.500299811E0
1.129856688E0,8.228917122E0,-1.811366796E0,2.354537487E0
1.134612001E0,7.822137356E0,-2.227717876E0,2.876172781E0
1.139367313E0,7.003791809E0,-2.237289190E0,3.333201885E0
1.144122574E0,6.271588326E0,-2.076970100E0,3.594019651E0
1.148877886E0,5.907878876E0,-2.210968018E0,3.871587038E0
1.153633199E0,5.821737289E0,-2.687139750E0,3.337987661E0
1.158388511E0,6.269195557E0,-2.823530674E0,3.206382275E0
1.163143772E0,6.817151546E0,-2.880958557E0,3.208775282E0
1.167899084E0,7.221538544E0,-2.675175667E0,3.055634499E0
1.172654345E0,7.654639721E0,-2.371287346E0,3.077169895E0
1.177409657E0,8.135597229E0,-2.196611166E0,3.017349243E0
1.182164970E0,8.640482903E0,-2.153540373E0,2.723032236E0
1.186920230E0,8.930013657E0,-2.081755638E0,2.160718918E0
1.191675543E0,9.128618240E0,-1.919043779E0,1.713261008E0
1.196430855E0,9.049654961E0,-1.663011789E0,1.624726534E0
1.201186116E0,8.791230202E0,-1.500299811E0,1.562513232E0
1.205941428E0,8.573483467E0,-1.428515077E0,1.533799291E0
1.210696741E0,8.276773453E0,-1.110269666E0,1.787438512E0
1.215452001E0,8.090133667E0,-1.055234790E0,1.741974831E0
1.220207313E0,7.980063438E0,-7.752745152E-1,1.981257200E0
1.224962626E0,8.035098076E0,-6.364908218E-1,2.268395901E0
1.229717886E0,7.893921852E0,-7.680960894E-1,2.651247501E0
1.234473199E0,8.157132149E0,-9.571290612E-1,2.653640270E0
1.239228511E0,8.408378601E0,-1.048056364E0,2.129612207E0
1.243983772E0,8.539983749E0,-8.829515576E-1,1.593619823E0
1.248739084E0,8.432307243E0,-7.082754970E-1,1.655833244E0
1.253494397E0,8.642875671E0,-7.226324677E-1,1.923829436E0
1.258249657E0,9.403793335E0,-8.901300430E-1,1.959721804E0
1.263004970E0,1.009771156E1,-9.786644578E-1,2.297109842E0
1.267760282E0,1.097827053E1,-1.040877819E0,2.763710260E0
1.272515543E0,1.170808125E1,-1.016949654E0,2.854637384E0
1.277270855E0,1.184686470E1,-9.619147182E-1,2.256431818E0
1.282026168E0,1.216989613E1,-9.188438654E-1,1.734796405E0
1.286781428E0,1.227039433E1,-8.422735929E-1,1.361516118E0
1.291536741E0,1.254078388E1,-8.087740541E-1,1.316052437E0
1.296292053E0,1.262692547E1,-9.236295223E-1,1.569691658E0
1.301047313E0,1.193539906E1,-9.092726111E-1,2.038684845E0
1.305802626E0,1.129890823E1,-7.896314859E-1,2.727817774E0
1.310557938E0,1.083948612E1,-5.766702294E-1,3.282952785E0
1.315313199E0,1.093998528E1,-9.164510965E-1,3.323630571E0
1.320068511E0,1.068156052E1,-1.356730461E0,3.522234917E0
1.324823824E0,1.052363396E1,-1.935793519E0,2.909672260E0
1.329579084E0,1.014556789E1,-2.201396942E0,2.428714991E0
1.334334397E0,9.568898201E0,-2.330609322E0,1.995614052E0
1.339089709E0,8.918049812E0,-2.490928411E0,1.612762451E0
1.343844970E0,8.336593628E0,-2.708675146E0,1.469193101E0
1.348600282E0,8.276773453E0,-3.050848961E0,1.517049551E0
1.353355595E0,7.948956966E0,-3.208775282E0,1.684547186E0
1.358110855E0,7.692924976E0,-3.407379389E0,1.789831281E0
1.362866168E0,7.484749317E0,-3.617947817E0,2.036292076E0
1.367621480E0,7.257431030E0,-3.893122435E0,2.194218397E0
1.372376741E0,7.010970116E0,-4.189832687E0,2.347358942E0
1.377132053E0,6.644868374E0,-4.376472473E0,2.612962246E0
1.381887366E0,6.209374905E0,-4.551148891E0,2.775674343E0
1.386642626E0,5.776273727E0,-4.785645485E0,3.254238844E0
1.391397938E0,5.558526993E0,-5.067998409E0,3.340380430E0
1.396153199E0,5.862415314E0,-5.328815937E0,3.431307554E0
1.400908511E0,6.534798622E0,-5.730810165E0,3.244667530E0
1.405663824E0,7.092326164E0,-5.838487148E0,2.974278450E0
1.410419136E0,7.599604607E0,-5.819344521E0,2.806781054E0
1.415174397E0,8.106883049E0,-5.757131100E0,2.797209740E0
1.419929709E0,8.358129501E0,-5.668596745E0,2.725425005E0
1.424684970E0,8.487341881E0,-5.599205017E0,2.715853691E0
1.429440282E0,8.568697929E0,-5.615954876E0,2.615355253E0
1.434195595E0,8.362915039E0,-5.568098068E0,2.533999205E0
1.438950855E0,8.231309891E0,-5.532206059E0,2.514856577E0
1.443706168E0,8.300702095E0,-5.503491879E0,2.538784742E0
1.448461480E0,8.463413239E0,-5.477170944E0,2.502892494E0
1.453216741E0,8.733802795E0,-5.460421085E0,2.651247501E0
1.457972053E0,8.729017258E0,-5.460421085E0,2.529213428E0
1.462727366E0,8.836693764E0,-5.405386448E0,2.368894339E0
1.467482626E0,8.977870941E0,-5.505885124E0,2.203789711E0
1.472237938E0,9.274580956E0,-5.761917114E0,2.210968018E0
1.476993251E0,9.743574142E0,-5.943771362E0,2.285145521E0
1.481748511E0,1.036331463E1,-6.099305153E0,1.899901152E0
1.486503824E0,1.107159042E1,-6.288337708E0,1.775474429E0
1.491259136E0,1.168654537E1,-6.309873104E0,1.674975872E0
1.496014397E0,1.267717457E1,-6.455835342E0,1.469193101E0
1.500769709E0,1.350269794E1,-6.683153629E0,1.421336651E0
1.505525022E0,1.329212952E1,-6.448657036E0,1.170090318E0
1.510280282E0,1.241396427E1,-6.185446739E0,1.174875975E0
1.515035595E0,1.144965649E1,-5.924628735E0,1.220339537E0
1.519790855E0,1.093998528E1,-5.795416355E0,1.237089276E0
1.524546168E0,1.042792130E1,-5.900700569E0,9.834501147E-1
1.529301480E0,9.853643417E0,-5.982056618E0,9.092726111E-1
1.534056741E0,9.205188751E0,-5.943771362E0,1.146162033E0
1.538812053E0,8.614161491E0,-5.721239090E0,1.385444283E0
1.543567366E0,8.090133667E0,-5.376672268E0,1.421336651E0
1.548322626E0,7.846065521E0,-5.173282623E0,1.464407444E0
1.553077938E0,7.709674358E0,-5.053641319E0,1.658226132E0
1.557833251E0,7.630711555E0,-4.893322468E0,1.689332843E0
1.562588511E0,7.276573658E0,-4.689932346E0,1.770688772E0
1.567343824E0,6.929614544E0,-4.589433670E0,1.971685886E0
1.572099136E0,6.407979012E0,-4.546362877E0,2.227717876E0
1.576854397E0,5.757131100E0,-4.548755646E0,2.514856577E0
1.581609709E0,5.182853699E0,-4.606183529E0,2.687139750E0
1.586365022E0,4.642076015E0,-4.699503899E0,2.792423964E0
1.591120282E0,4.256831646E0,-4.785645485E0,2.742174864E0
1.595875595E0,3.885943890E0,-4.859822750E0,2.691925526E0
1.600630907E0,3.694518089E0,-4.862215519E0,2.691925526E0
1.605386168E0,3.495913982E0,-4.790431023E0,2.790031195E0
1.610141480E0,3.292523861E0,-4.764110088E0,2.866601467E0
1.614896741E0,3.144168854E0,-4.862215519E0,3.058027267E0
1.619652053E0,3.141776085E0,-5.072783947E0,3.144168854E0
1.624407366E0,3.275774240E0,-5.434100151E0,3.321237803E0
1.629162626E0,3.237488985E0,-5.759523869E0,3.491128206E0
1.633917938E0,3.079562664E0,-5.996413708E0,3.505485058E0
1.638673251E0,2.806781054E0,-6.238088608E0,3.450450182E0
1.643428511E0,2.629712105E0,-6.489335060E0,3.330809116E0
1.648183824E0,2.813959360E0,-6.362515450E0,3.227917671E0
1.652939136E0,3.105883837E0,-6.003592014E0,3.237488985E0
1.657694397E0,3.400201082E0,-5.577669621E0,3.594019651E0
1.662449709E0,3.378665686E0,-5.034498692E0,3.802195072E0
1.667205022E0,3.072384357E0,-4.443471432E0,3.780659676E0
1.671960282E0,3.189632654E0,-4.680361271E0,3.567698479E0
1.676715595E0,2.981456995E0,-4.761716843E0,2.957528830E0
1.681470907E0,2.859423161E0,-5.187639713E0,1.868794441E0
1.686226168E0,3.414557934E0,-5.484349728E0,1.313659668E0
1.690981480E0,3.723232031E0,-5.513063431E0,1.062413216E0
1.695736741E0,3.885943890E0,-5.453242779E0,9.523434043E-1
1.700492053E0,3.742374659E0,-5.204389095E0,1.079162955E0
1.705247366E0,3.259024382E0,-4.945964336E0,1.347159147E0
1.710002626E0,2.522035122E0,-4.524827480E0,1.648654819E0
1.714757938E0,1.603191137E0,-3.840480328E0,2.069791555E0
1.719513251E0,9.595218897E-1,-3.443271875E0,2.201396942E0
1.724268511E0,2.153540403E-2,-3.321237803E0,2.076970100E0
1.729023824E0,-7.441678643E-1,-3.720839262E0,1.911865234E0
1.733779136E0,-1.150947690E0,-4.436293125E0,1.749153376E0
1.738534397E0,-9.810572863E-1,-5.211567879E0,1.610369682E0
1.743289709E0,-6.317051649E-1,-5.974878311E0,1.524227977E0
1.748045022E0,1.483550072E-1,-6.817151546E0,9.834501147E-1
1.752800282E0,1.409372568E0,-7.585247993E0,6.867401004E-1
1.757555595E0,2.782852650E0,-8.575876236E0,-5.982056633E-2
1.762310907E0,3.768695593E0,-9.688538551E0,-6.436693072E-1
1.767066168E0,4.584648132E0,-1.124387360E1,-1.100698471E0
1.771821480E0,4.603790760E0,-1.286620712E1,-1.122233868E0
1.776576741E0,4.182653904E0,-1.385683632E1,-1.643869162E0
1.781332053E0,4.366901398E0,-1.540738487E1,-1.998006940E0
1.786087366E0,5.381458282E0,-1.730489349E1,-1.990828395E0
1.790842626E0,5.879165173E0,-1.883390617E1,-1.627119422E0
1.795597938E0,6.104090691E0,-1.990349960E1,-7.848458290E-1
1.800353251E0,6.101697922E0,-2.057588196E1,4.307080805E-2
1.805108511E0,5.453242779E0,-2.027199364E1,1.201196909E0
1.809863824E0,4.484149456E0,-1.956850433E1,2.830709219E0
1.814619136E0,3.737588882E0,-1.852044678E1,3.687339783E0
1.819374397E0,2.964707375E0,-1.730967903E1,4.043870449E0
1.824129709E0,2.244467735E0,-1.569213104E1,4.529613495E0
1.828885022E0,1.641476393E0,-1.415593910E1,4.869394302E0
1.833640282E0,1.117448211E0,-1.262931824E1,5.249852657E0
1.838395595E0,7.010970116E-1,-1.093280697E1,5.745167255E0
1.843150855E0,3.637090325E-1,-9.714859962E0,6.439085960E0
1.847906168E0,1.579262912E-1,-9.590433121E0,6.912864685E0
1.852661480E0,-2.249253243E-1,-9.552147865E0,7.168896675E0
1.857416741E0,-5.647061467E-1,-9.621540070E0,7.190432072E0
1.862172053E0,-5.048855543E-1,-9.607182503E0,6.848258495E0
1.866927366E0,-1.292124242E-1,-9.475577354E0,6.367300987E0
1.871682626E0,2.249253243E-1,-9.343972206E0,5.886343479E0
1.876437938E0,4.498506486E-1,-9.272188187E0,5.395814896E0
1.881193251E0,5.790630579E-1,-9.255437851E0,5.020142078E0
1.885948511E0,6.987041831E-1,-9.241081238E0,4.771288395E0
1.890703824E0,8.925228715E-1,-9.209974289E0,4.637290478E0
1.895459136E0,1.184447169E0,-9.178867340E0,4.615755081E0
1.900214397E0,1.617548108E0,-9.071190834E0,4.673182487E0
1.904969709E0,2.014756680E0,-9.190832138E0,4.603790760E0
1.909725022E0,2.373680115E0,-9.336793900E0,4.577469826E0
1.914480282E0,2.612962246E0,-9.540184021E0,4.555934429E0
1.919235595E0,1.337587833E0,-5.891129494E0,4.484149456E0
1.923990855E0,2.981456995E0,-8.963513374E0,4.639683247E0
1.928746168E0,4.074976921E0,-1.073898792E1,4.912465096E0
1.933501480E0,4.474578381E0,-1.105005455E1,4.945964336E0
1.938256741E0,4.926821709E0,-1.137787151E1,4.682754040E0
1.943012053E0,5.570491314E0,-1.164826107E1,3.579662561E0
1.947767366E0,1.031067276E1,-1.288774300E1,-1.339023590E1
1.952522626E0,1.533320713E1,-1.402194023E1,-2.016431618E1
1.957277938E0,1.614676666E1,-1.401476192E1,-1.566341686E1
1.962033251E0,1.415833187E1,-1.326341629E1,-6.704689026E0
1.966788511E0,1.204307652E1,-1.260060406E1,9.571290761E-2
1.971543824E0,1.059781170E1,-1.215075302E1,4.017549038E0
1.976299136E0,9.796216011E0,-1.168415260E1,5.807380676E0
1.981054397E0,9.312865257E0,-1.112901783E1,6.443871498E0
1.985809709E0,9.044869423E0,-1.047817039E1,6.252445698E0
1.990564970E0,8.858229637E0,-9.772287369E0,5.254638672E0
1.995320282E0,8.700303078E0,-9.006584167E0,3.596412420E0
2.000075595E0,8.697910309E0,-8.276773453E0,1.969292998E0
2.004830855E0,8.714659691E0,-7.652246952E0,8.111668825E-1
2.009586168E0,8.779266357E0,-7.142575741E0,4.426721931E-1
2.014341480E0,9.073583603E0,-6.843472958E0,7.585247755E-1
2.019096741E0,9.231510162E0,-6.664011002E0,1.198804140E0
2.023852053E0,9.738788605E0,-6.666403770E0,1.354337573E0
2.028607366E0,1.045902824E1,-6.838686943E0,7.968099117E-1
2.033362626E0,1.135633659E1,-7.085147858E0,-1.794617027E-1
2.038117938E0,1.213400364E1,-7.334001541E0,-1.103091240E0
2.042873251E0,1.280877972E1,-7.601997375E0,-1.902294040E0
2.047628511E0,1.344048500E1,-7.877171993E0,-2.488535643E0
2.052383824E0,1.384247875E1,-8.090133667E0,-3.086741209E0
2.057139084E0,1.422293758E1,-8.228917122E0,-3.795016766E0
2.061894397E0,1.456511116E1,-8.303094864E0,-4.622933388E0
2.066649709E0,1.465603828E1,-8.315058708E0,-5.362315655E0
2.071404970E0,1.449571991E1,-8.173882484E0,-5.769095421E0
2.076160282E0,1.408176136E1,-7.970492363E0,-5.546562672E0
2.080915595E0,1.337109280E1,-7.716853142E0,-4.278367043E0
2.085670855E0,1.265803146E1,-7.501499176E0,-2.136790514E0
2.090426168E0,1.203829098E1,-7.180860519E0,5.264209956E-2
2.095181480E0,1.144247818E1,-7.015756130E0,2.112862349E0
2.099936741E0,1.086820030E1,-7.003791809E0,3.467200041E0
2.104692053E0,1.032263660E1,-7.104290485E0,3.962514400E0
2.109447366E0,9.667003632E0,-7.322037220E0,3.558127165E0
2.114202626E0,8.925228119E0,-7.625925541E0,2.672782898E0
2.118957938E0,8.214560509E0,-8.061419487E0,2.182254314E0
2.123713199E0,7.771887779E0,-8.640482903E0,2.031506538E0
2.128468511E0,7.444071293E0,-9.288937569E0,2.048256159E0
2.133223824E0,7.195217609E0,-9.970891953E0,2.179861546E0
2.137979084E0,7.061219692E0,-1.055713367E1,2.201396942E0
2.142734397E0,6.905686378E0,-1.130369377E1,2.127219439E0
2.147489709E0,6.829115868E0,-1.213161087E1,1.875972986E0
2.152244970E0,6.886543751E0,-1.304806232E1,1.574477315E0
2.157000282E0,7.109076023E0,-1.399561977E1,1.100698471E0
2.161755595E0,7.312466145E0,-1.508674717E1,2.943171859E-1
2.166510855E0,7.379465103E0,-1.628076553E1,-8.733802438E-1
2.171266168E0,7.267002583E0,-1.754896164E1,-2.098505497E0
2.176021428E0,6.920042992E0,-1.867358780E1,-2.818745136E0
2.180776741E0,6.283552170E0,-1.940339851E1,-2.435893536E0
2.185532053E0,5.534598827E0,-1.993221283E1,-1.007378340E0
2.190287313E0,4.704289436E0,-2.008535385E1,5.024927258E-1
2.195042626E0,4.103690624E0,-1.989632034E1,1.488335729E0
2.199797938E0,3.558127165E0,-1.946082687E1,1.945364833E0
2.204553199E0,2.883351326E0,-1.880519295E1,1.258624673E0
2.209308511E0,2.340180635E0,-1.780260086E1,1.076770201E-1
2.214063824E0,1.765903115E0,-1.681675720E1,-7.728816867E-1
2.218819084E0,1.227517962E0,-1.586441422E1,-1.256231904E0
2.223574397E0,7.633104324E-1,-1.503888988E1,-1.205982566E0
2.228329709E0,3.134597540E-1,-1.443589878E1,-7.106683254E-1
2.233084970E0,-2.799602449E-1,-1.403151226E1,6.221338734E-2
2.237840282E0,-7.680960894E-1,-1.381137276E1,8.255237937E-1
2.242595543E0,-1.016949654E0,-1.358405399E1,1.653440475E0
2.247350855E0,-9.475577474E-1,-1.325145149E1,2.416750908E0
2.252106168E0,-7.226324677E-1,-1.293799210E1,3.031706333E0
2.256861428E0,-4.259224236E-1,-1.238046455E1,3.237488985E0
2.261616741E0,-1.531406492E-1,-1.169133186E1,2.986242771E0
2.266372053E0,-1.914258115E-2,-1.087298584E1,2.469393015E0
2.271127313E0,-2.416750938E-1,-9.997213364E0,1.797009826E0
2.275882626E0,-1.052841991E-1,-9.059226990E0,8.925228715E-1
2.280637938E0,4.426721931E-1,-8.214560509E0,1.579262912E-1
2.285393199E0,9.427721500E-1,-7.405786037E0,-3.708875179E-1
2.290148511E0,1.399801254E0,-6.742974281E0,-5.790630579E-1
2.294903772E0,1.904686809E0,-6.139982700E0,-5.096712112E-1
2.299659084E0,2.500499725E0,-5.608776093E0,-2.895315289E-1
2.304414397E0,3.031706333E0,-5.187639713E0,-2.632104978E-2
2.309169657E0,3.500699520E0,-4.881358147E0,3.038884699E-1
2.313924970E0,4.012763500E0,-4.553541660E0,4.067798555E-1
2.318680282E0,4.433900356E0,-4.319045067E0,5.048855543E-1
2.323435543E0,4.704289436E0,-4.137190342E0,6.293123364E-1
2.328190855E0,4.871787071E0,-3.907479286E0,6.747759581E-1
2.332946116E0,4.969892502E0,-3.773481369E0,6.675975323E-1
2.337701428E0,5.032105923E0,-3.555734396E0,6.604190469E-1
2.342456741E0,4.945964336E0,-3.385843992E0,6.221339107E-1
2.347212001E0,4.582255363E0,-3.282952785E0,6.029912829E-1
2.351967313E0,4.094119549E0,-3.175275564E0,5.503492355E-1
2.356722626E0,3.450450182E0,-3.172882795E0,4.857429862E-1
2.361477886E0,2.656033039E0,-3.290131092E0,4.115654826E-1
2.366233199E0,1.797009826E0,-3.586841106E0,3.086741269E-1
2.370988511E0,9.044869542E-1,-4.012763500E0,1.124626622E-1
2.375743772E0,1.746760458E-1,-4.414757729E0,-1.435693540E-2
2.380499084E0,-3.900300860E-1,-4.697110653E0,-5.503492057E-2
2.385254345E0,-9.260223508E-1,-4.855037212E0,-3.589234129E-2
2.390009657E0,-1.371087432E0,-4.878965378E0,4.067798331E-2
2.394764970E0,-1.797009826E0,-4.800002098E0,1.292124242E-1
2.399520230E0,-2.108076811E0,-4.622933388E0,1.986042857E-1
2.404275543E0,-2.373680115E0,-4.429114819E0,1.938186288E-1
2.409030855E0,-2.632104874E0,-4.208974838E0,1.938186288E-1
2.413786116E0,-2.935993433E0,-3.988835335E0,2.153540403E-1
2.418541428E0,-3.230310678E0,-3.704089403E0,2.368894368E-1
2.423296688E0,-3.385843992E0,-3.481556892E0,2.129612118E-1
2.428052001E0,-3.582055569E0,-3.242274761E0,2.057827413E-1
2.432807313E0,-3.701696634E0,-3.074777126E0,2.201396823E-1
2.437562574E0,-3.716053486E0,-2.907279491E0,2.703889608E-1
2.442317886E0,-3.692125320E0,-2.782852650E0,2.727817893E-1
2.447073199E0,-3.658625841E0,-2.711068153E0,2.775674164E-1
2.451828459E0,-3.586841106E0,-2.701496840E0,1.794617027E-1
2.456583772E0,-3.364308596E0,-2.756531715E0,1.483550072E-1
2.461339032E0,-3.175275564E0,-2.847458839E0,2.871387079E-2
2.466094345E0,-2.964707375E0,-2.938386202E0,-2.368894368E-1
2.470849657E0,-2.612962246E0,-3.177668571E0,-5.862415433E-1
2.475604918E0,-1.911865234E0,-3.426522017E0,-1.033699393E0
2.480360230E0,-1.107876897E0,-3.699303865E0,-1.775474429E0
2.485115543E0,-2.943171859E-1,-3.976871252E0,-2.713460922E0
2.489870803E0,5.335994363E-1,-4.278367043E0,-3.725624800E0
2.494626116E0,1.466800332E0,-4.687539577E0,-4.735395908E0
2.499381428E0,2.579462767E0,-5.204389095E0,-5.493920803E0
2.504136688E0,4.005585194E0,-5.852844238E0,-5.654240131E0
2.508892001E0,5.740381718E0,-6.745367050E0,-4.776073933E0
2.513647261E0,7.841279984E0,-7.762316704E0,-2.682354212E0
2.518402574E0,1.061456108E1,-8.726624489E0,5.455635786E-1
2.523157886E0,1.305763340E1,-9.327222824E0,3.878765583E0
2.527913147E0,1.504606915E1,-9.549755096E0,7.106683254E0
2.532668459E0,1.659901047E1,-9.611968994E0,9.468399048E0
2.537423772E0,1.818066597E1,-9.784252167E0,1.033938694E1
2.542179032E0,2.008535385E1,-9.951749802E0,9.652647018E0
2.546934345E0,2.293041992E1,-1.015753174E1,7.087540627E0
2.551689605E0,2.567259407E1,-1.031545830E1,3.639483213E0
2.556444918E0,2.739781952E1,-9.990034103E0,7.010970116E-1
2.561200230E0,2.841476822E1,-9.812965393E0,-1.426122308E0
2.565955491E0,2.893879700E1,-9.678967476E0,-2.225325108E0
2.570710803E0,2.898186874E1,-9.647860527E0,-2.340180635E0
2.575466116E0,2.875933456E1,-9.690931320E0,-2.160718918E0
2.580221376E0,2.878087044E1,-9.509077072E0,-1.521835208E0
2.584976688E0,2.827120018E1,-8.819944382E0,-4.785645306E-1
2.589731949E0,2.701975250E1,-7.802994728E0,3.684946895E-1
2.594487261E0,2.500021172E1,-6.762116909E0,7.250252366E-1
2.599242574E0,2.212403870E1,-5.680561066E0,6.364908218E-1
2.603997834E0,1.836969948E1,-4.704289436E0,2.656033039E-1
2.608753147E0,1.447418404E1,-3.964907169E0,-5.982056633E-2
2.613508459E0,1.084905815E1,-3.474378586E0,-3.349951655E-2
2.618263720E0,7.745566845E0,-3.213560820E0,3.996013701E-1
2.623019032E0,5.113461971E0,-3.170490026E0,9.140582681E-1
2.627774293E0,2.967100143E0,-3.318845034E0,1.785045743E0
2.632529605E0,1.002592683E0,-3.541377544E0,2.761317253E0
2.637284918E0,-4.139583111E-1,-3.780659676E0,3.562912941E0
2.642040178E0,-1.294517040E0,-4.015156269E0,3.701696634E0
2.646795491E0,-2.368894339E0,-3.952943087E0,2.373680115E0
2.651550803E0,-4.185046673E0,-3.804588079E0,-1.406979680E0
2.656306063E0,-7.690532207E0,-4.266402721E0,-8.257631302E0
2.661061376E0,-1.198804188E1,-6.235695839E0,-1.626640892E1
2.665816636E0,-1.505803299E1,-9.604789734E0,-2.352862549E1
2.670571949E0,-1.401236916E1,-1.264606762E1,-2.406222534E1
2.675327261E0,-1.002592659E1,-1.433779335E1,-1.844148445E1
2.680082522E0,-5.005784988E0,-1.488814259E1,-9.820143700E0
2.684837834E0,-7.393822074E-1,-1.471585941E1,-1.395015597E0
2.689593147E0,1.945364833E0,-1.396929836E1,4.438685894E0
2.694348407E0,3.448057413E0,-1.397169113E1,6.238088608E0
2.699103720E0,4.716253281E0,-1.544088459E1,6.149554253E0
2.703858980E0,5.888736725E0,-1.758006859E1,6.530013084E0
2.708614293E0,6.678368092E0,-1.978864288E1,7.391428947E0
2.713369605E0,7.228717327E0,-2.203071785E1,8.360522270E0
2.718124866E0,7.451249599E0,-2.396172523E1,9.205188751E0
2.722880178E0,7.089933395E0,-2.524427795E1,9.044869423E0
2.727635438E0,5.680561066E0,-2.544766808E1,7.659425259E0
2.732390751E0,3.254238844E0,-2.430150604E1,5.654240131E0
2.737146063E0,9.714859724E-1,-2.250688934E1,3.778266907E0
2.741901324E0,9.571290761E-2,-1.995853424E1,2.665604353E0
2.746656636E0,8.590233326E-1,-1.692443466E1,2.170290232E0
2.751411949E0,2.084148407E0,-1.416551018E1,1.698904037E0
2.756167209E0,2.919243574E0,-1.191625690E1,1.148554921E0
2.760922522E0,2.876172781E0,-9.970891953E0,7.489534616E-1
2.765677782E0,2.275574446E0,-8.317451477E0,3.876372576E-1
2.770433095E0,1.751546144E0,-7.097112179E0,2.871387079E-2
2.775188407E0,1.610369682E0,-6.211767673E0,-1.674975827E-2
2.779943668E0,1.524227977E0,-5.553741455E0,-1.076770201E-1
2.784698980E0,1.265803218E0,-4.989035130E0,-1.507478207E-1
2.789454293E0,1.069591761E0,-4.536791801E0,-2.656033039E-1
2.794209553E0,5.742774606E-1,-4.015156269E0,-4.187439680E-1
2.798964866E0,8.279166222E-1,-3.751945972E0,-7.896314561E-2
2.803720126E0,9.164510965E-1,-3.369094372E0,1.746760458E-1
2.808475438E0,8.231309652E-1,-3.105883837E0,2.321037948E-1
2.813230751E0,9.451649189E-1,-2.909672260E0,2.727817893E-1
2.817986011E0,8.997012973E-1,-2.792423964E0,2.679961324E-1
2.822741324E0,8.685946465E-1,-2.790031195E0,2.344966233E-1
2.827496636E0,9.475577474E-1,-3.199203968E0,1.028913707E-1
2.832251897E0,1.095912814E0,-3.960121393E0,-5.264209956E-2
2.837007209E0,1.294517040E0,-4.910071850E0,-8.614161611E-2
2.841762470E0,1.497906923E0,-5.886343479E0,-1.435693540E-2
2.846517782E0,1.806581140E0,-6.970292568E0,1.387837082E-1
2.851273095E0,2.170290232E0,-8.128418922E0,4.331009090E-1
2.856028355E0,2.567498684E0,-9.281759262E0,8.327022791E-1
2.860783668E0,2.971885681E0,-1.054516983E1,1.177268744E0
2.865538928E0,3.230310678E0,-1.179900837E1,1.450050473E0
2.870294241E0,3.517449379E0,-1.294038486E1,1.883151412E0
2.875049553E0,3.725624800E0,-1.396212006E1,2.349751949E0
2.879804813E0,3.842873096E0,-1.478525066E1,2.935993433E0
2.884560126E0,4.091726780E0,-1.524228001E1,3.725624800E0
2.889315386E0,4.393222332E0,-1.546002674E1,4.644468784E0
2.894070699E0,4.881358147E0,-1.517049599E1,5.709274769E0
2.898826011E0,5.352744102E0,-1.452921867E1,6.563512325E0
2.903581272E0,5.448457241E0,-1.351705551E1,6.781259537E0
2.908336584E0,5.257031441E0,-1.230867958E1,6.549155712E0
2.913091897E0,4.934000492E0,-1.117448139E1,6.400800705E0
2.917847157E0,4.486542225E0,-1.019581699E1,6.187839508E0
2.922602470E0,3.957728624E0,-9.466006279E0,5.871986866E0
2.927357730E0,3.268595695E0,-8.898907661E0,5.393422127E0
2.932113043E0,2.703889608E0,-8.370093346E0,4.919643402E0
2.936868355E0,2.270788670E0,-7.889136314E0,4.512863636E0
2.941623616E0,1.954936147E0,-7.503891945E0,4.187439442E0
2.946378928E0,1.797009826E0,-7.221538544E0,3.991228104E0
2.951134188E0,1.660618901E0,-6.994220734E0,3.919443607E0
2.955889501E0,1.524227977E0,-6.814758778E0,4.048655987E0
2.960644813E0,1.074377418E0,-6.664011002E0,4.063013077E0
2.965400074E0,6.891329288E-1,-6.549155712E0,3.964907169E0
2.970155386E0,4.331009090E-1,-6.446264267E0,3.864408493E0
2.974910647E0,2.440679073E-1,-6.448657036E0,3.661018610E0
2.979665959E0,1.483550072E-1,-6.537191391E0,3.486342669E0
2.984421272E0,8.374879509E-2,-6.608976364E0,3.409772158E0
2.989176532E0,1.459621787E-1,-6.757331371E0,3.314059258E0
2.993931845E0,2.225325108E-1,-6.900900364E0,3.136990547E0
2.998687105E0,3.254238665E-1,-6.994220734E0,3.012563705E0
3.003442418E0,2.464607358E-1,-7.037291527E0,2.926422119E0
3.008197730E0,2.201396823E-1,-6.941578388E0,2.902493954E0
3.012952991E0,6.939185411E-2,-6.853044033E0,2.852244616E0
3.017708303E0,-6.699903309E-2,-6.790830612E0,2.854637384E0
3.022463563E0,-1.316052526E-1,-6.714260101E0,2.811566591E0
3.027218876E0,-5.264209956E-2,-6.735795975E0,2.742174864E0
3.031974188E0,1.890329868E-1,-6.824330330E0,2.703889608E0
3.036729449E0,4.881358147E-1,-6.958328247E0,2.667997360E0
3.041484761E0,7.800601721E-1,-7.140182972E0,2.634497643E0
3.046240022E0,1.105484009E0,-7.343572617E0,2.600998163E0
3.050995334E0,1.483550072E0,-7.585247993E0,2.550748825E0
3.055750647E0,1.926222205E0,-7.865208149E0,2.440679073E0
3.060505907E0,2.388036966E0,-8.193024635E0,2.309073925E0
3.065261220E0,2.933600664E0,-8.592626572E0,2.093719721E0
3.070016480E0,3.467200041E0,-9.061619759E0,1.797009826E0
3.074771793E0,4.055834293E0,-9.614361763E0,1.469193101E0
3.079527105E0,4.699503899E0,-1.034895802E1,1.014556766E0
3.084282366E0,5.565705299E0,-1.103569794E1,-7.513462901E-1
3.089037678E0,1.317248821E1,-1.242353535E1,-3.103491020E1
3.093792938E0,1.839602089E1,-1.318206024E1,-3.310948563E1
3.098548251E0,1.532602882E1,-1.261017513E1,-1.609412575E1
3.103303563E0,1.076530933E1,-1.219143105E1,-5.910272002E-1
3.108058824E0,8.941978455E0,-1.205982590E1,5.893522263E0
3.112814136E0,8.788837433E0,-1.194975662E1,7.838887215E0
3.117569397E0,9.257830620E0,-1.169372463E1,8.054241180E0
3.122324709E0,9.793823242E0,-1.137308598E1,7.676175117E0
3.127080022E0,1.036570740E1,-1.087059307E1,7.231110096E0
3.131835282E0,1.078684425E1,-1.028435135E1,6.608976364E0
3.136590595E0,1.080359459E1,-9.504291534E0,5.874379635E0
3.141345855E0,1.056431198E1,-8.606983185E0,5.245067120E0
3.146101168E0,1.024606609E1,-7.709674358E0,4.567898273E0
3.150856480E0,1.004746246E1,-6.927221775E0,3.749552965E0
3.155611741E0,9.951749802E0,-6.269195557E0,2.742174864E0
3.160367053E0,1.019820976E1,-5.840879917E0,1.093519926E0
3.165122313E0,1.118644619E1,-5.809773445E0,-2.402393818E0
3.169877626E0,1.205264759E1,-6.283552170E0,-5.000999451E0
3.174632938E0,1.250249863E1,-7.051648140E0,-6.130411625E0
3.179388199E0,1.253599739E1,-7.793423176E0,-5.391029358E0
3.184143511E0,1.213878918E1,-8.451449394E0,-3.924229145E0
3.188898772E0,1.181815147E1,-9.047262192E0,-2.579462767E0
3.193654084E0,1.186122227E1,-9.621540070E0,-1.694118381E0
3.198409397E0,1.205025482E1,-1.016949654E1,-1.351944804E0
3.203164657E0,1.238525009E1,-1.068395329E1,-1.454836130E0
3.207919970E0,1.287338543E1,-1.122473145E1,-1.945364833E0
3.212675230E0,1.346201992E1,-1.169611740E1,-2.636890650E0
3.217430543E0,1.372283745E1,-1.189232826E1,-2.890529871E0
3.222185803E0,1.331845093E1,-1.162672520E1,-1.548156261E0
3.226941116E0,1.240439224E1,-1.082991505E1,4.570291340E-1
3.231696428E0,1.160519028E1,-9.779465675E0,1.552941918E0
3.236451688E0,1.102373409E1,-8.662017822E0,1.694118381E0
3.241207001E0,1.061695385E1,-7.649854183E0,1.576870084E0
3.245962261E0,1.009531879E1,-6.812366009E0,1.646261930E0
3.250717574E0,9.427721024E0,-6.180660725E0,2.239681959E0
3.255472886E0,9.001798630E0,-5.790630817E0,2.337787628E0
3.260228147E0,8.853444099E0,-5.769095421E0,2.153540373E0
3.264983459E0,8.858229637E0,-6.051448345E0,1.832902193E0
3.269738720E0,8.812766075E0,-6.630511761E0,1.316052437E0
3.274494032E0,8.690732002E0,-7.594819069E0,8.685946465E-1
3.279249345E0,8.441878319E0,-8.958727837E0,4.618147612E-1
3.284004605E0,8.185846329E0,-1.066241741E1,2.177468538E-1
3.288759918E0,8.056633949E0,-1.262692547E1,6.460621208E-2
3.293515178E0,8.073383331E0,-1.468953800E1,0.000000000E0
3.298270491E0,8.051848412E0,-1.680957985E1,1.890329868E-1
3.303025751E0,7.963313580E0,-1.882672882E1,4.474578202E-1
3.307781063E0,7.872386456E0,-2.086780548E1,7.082754970E-1
3.312536376E0,7.642675400E0,-2.286342049E1,8.183453679E-1
3.317291636E0,7.245467186E0,-2.496910477E1,1.071984529E0
3.322046949E0,6.558726788E0,-2.704607391E1,1.411765337E0
3.326802209E0,5.790630817E0,-2.854876709E1,1.440479279E0
3.331557522E0,5.158925533E0,-2.964228630E1,1.459621787E0
3.336312834E0,4.465006828E0,-3.020938683E1,1.842473388E0
3.341068095E0,3.665804386E0,-3.025245667E1,2.533999205E0
3.345823407E0,2.926422119E0,-2.940300369E1,3.280559778E0
3.350578668E0,2.057827473E0,-2.736431885E1,3.838087559E0
3.355334061E0,5.694918036E-1,-2.488774872E1,4.299902439E0
3.360089322E0,-9.332008362E-1,-2.228914261E1,4.749752998E0
3.364844634E0,-2.239681959E0,-1.975992966E1,4.931607246E0
3.369599947E0,-3.414557934E0,-1.725225067E1,3.682554007E0
3.374355207E0,-4.268795490E0,-1.461775398E1,-8.255237937E-1
3.379110519E0,-4.591826439E0,-1.222014523E1,-3.972085476E0
3.383865780E0,-4.295116425E0,-1.021496010E1,-3.735196114E0
3.388621092E0,-3.689732552E0,-8.944371223E0,-1.234696507E0
3.393376353E0,-3.369094372E0,-8.312665939E0,1.060020447E0
3.398131665E0,-3.203989506E0,-8.059026718E0,2.474178553E0
3.402886978E0,-3.225524902E0,-7.982456207E0,3.263810158E0
3.407642238E0,-3.120240688E0,-7.972885132E0,3.330809116E0
3.412397551E0,-2.847458839E0,-7.898707390E0,2.828316450E0
3.417152811E0,-2.490928411E0,-7.762316704E0,1.947757602E0
3.421908124E0,-2.098505497E0,-7.635497093E0,9.595218897E-1
3.426663436E0,-1.749153376E0,-7.369893551E0,1.004985496E-1
3.431418697E0,-1.316052437E0,-7.080362320E0,-5.958128572E-1
3.436174009E0,-8.039883971E-1,-6.740581512E0,-1.155733347E0
3.440929269E0,-2.153540403E-1,-6.388836384E0,-1.464407444E0
3.445684582E0,3.637090325E-1,-5.967699528E0,-1.567298889E0
3.450439842E0,1.107876897E0,-5.608776093E0,-1.512263894E0
3.455195155E0,2.002792597E0,-5.386243820E0,-9.954141974E-1
3.459950467E0,2.895315409E0,-5.166104317E0,-1.746760458E-1
3.464705728E0,3.565305710E0,-4.986642361E0,6.771687865E-1
3.469461040E0,4.007977962E0,-4.874179840E0,1.502692580E0
3.474216301E0,4.321437836E0,-4.761716843E0,2.098505497E0
3.478971613E0,4.517649174E0,-4.656432629E0,2.464607239E0
3.483726874E0,4.488935471E0,-4.539184570E0,2.744567633E0
3.488482186E0,4.225724697E0,-4.366901398E0,2.885744095E0
3.493237447E0,3.574877024E0,-4.113262177E0,2.921636343E0
3.497992759E0,2.495713949E0,-3.955335855E0,2.768495798E0
3.502748072E0,1.141376376E0,-3.876372576E0,2.411965132E0
3.507503332E0,-2.297109663E-1,-4.034298897E0,1.859223247E0
3.512258644E0,-1.366301775E0,-4.302295208E0,1.356730461E0
3.517013905E0,-2.230110645E0,-4.570291042E0,9.858429432E-1
3.521769217E0,-2.902493954E0,-4.735395908E0,5.814558864E-1
3.526524478E0,-3.603590965E0,-4.747360229E0,-1.196411345E-2
3.531279790E0,-4.283152580E0,-4.613361835E0,-6.652047038E-1
3.536035103E0,-4.852644444E0,-4.424329281E0,-1.194018483E0
3.540790363E0,-5.302495003E0,-4.280759811E0,-1.557727575E0
3.545545676E0,-5.625525951E0,-4.115654945E0,-1.813759565E0
3.550300936E0,-5.781059742E0,-3.979264021E0,-1.885544300E0
3.555056249E0,-5.927021503E0,-3.905086517E0,-1.816152334E0
3.559811509E0,-5.857629776E0,-3.845266104E0,-1.828116536E0
3.564566822E0,-5.967699528E0,-3.857230186E0,-1.933400750E0
3.569322082E0,-6.049055576E0,-3.845266104E0,-2.256431818E0
3.574077394E0,-6.135197163E0,-3.912265062E0,-2.756531715E0
3.578832707E0,-6.044270039E0,-3.993621111E0,-3.376272678E0
3.583587967E0,-5.673382282E0,-4.139583111E0,-4.003192425E0
3.588343280E0,-4.986642361E0,-4.299902439E0,-4.680361271E0
3.593098540E0,-3.816552162E0,-4.436293125E0,-4.907679081E0
3.597853853E0,-2.421536446E0,-4.565505505E0,-5.170889854E0
3.602609113E0,-1.079162955E0,-4.677968502E0,-5.321637630E0
3.607364426E0,1.148554832E-1,-4.823930264E0,-5.096712112E0
3.612119686E0,1.107876897E0,-4.984249592E0,-4.986642361E0
3.616874999E0,1.993221283E0,-5.304887772E0,-5.414957523E0
3.621630311E0,2.885744095E0,-5.862415314E0,-6.690331936E0
3.626385572E0,3.996013880E0,-6.714260101E0,-8.683553696E0
3.631140884E0,5.321637630E0,-7.800601959E0,-1.131565857E1
3.635896144E0,6.941578388E0,-8.953942299E0,-1.293559933E1
3.640651457E0,8.810373306E0,-9.473184586E0,-1.221775246E1
3.645406769E0,1.086580753E1,-9.178867340E0,-8.817551613E0
3.650162030E0,1.235653591E1,-8.291130066E0,-1.481157184E0
3.654917342E0,1.237089348E1,-6.884150982E0,1.080120182E1
3.659672603E0,1.286620712E1,-5.903093338E0,2.181057930E1
3.664427915E0,1.601994705E1,-6.022734642E0,2.661536598E1
3.669183176E0,2.013560295E1,-7.422535896E0,2.465803719E1
3.673938488E0,2.535195541E1,-9.509077072E0,1.678565025E1
3.678693749E0,3.021656418E1,-1.152144146E1,7.089933395E0
3.683449061E0,3.011845779E1,-1.231825066E1,1.572084427E0
3.688204374E0,2.863251495E1,-1.266999626E1,-1.828116536E0
3.692959634E0,2.695754051E1,-1.275374508E1,-2.639283419E0
3.697714947E0,2.612005234E1,-1.294517040E1,-2.108076811E0
3.702470207E0,2.590709114E1,-1.312223911E1,-1.146162033E0
3.707225519E0,2.461257362E1,-1.288295746E1,-3.541377485E-1
3.711980780E0,2.254039001E1,-1.221296692E1,3.828516230E-2
3.716736092E0,1.926700783E1,-1.110269737E1,3.517449200E-1
3.721491353E0,1.564906025E1,-9.932606697E0,5.096712112E-1
3.726246665E0,1.212682533E1,-8.829515457E0,4.331009090E-1
3.731001978E0,9.178867340E0,-7.891529083E0,4.402793646E-1
3.735757238E0,6.905686378E0,-7.161718369E0,8.015955687E-1
3.740512551E0,5.120640278E0,-6.721438885E0,1.294517040E0
3.745267811E0,3.613162279E0,-6.671189308E0,1.710868239E0
3.750023124E0,2.275574446E0,-7.334001541E0,1.342373490E0
3.754778384E0,1.105484009E0,-9.092725754E0,-1.337587833E0
3.759533697E0,-1.387837172E0,-1.203589821E1,-1.153819084E1
3.764289009E0,-4.934000492E0,-1.527338696E1,-2.109751701E1
3.769044269E0,-3.670589924E0,-1.674497223E1,-1.866880226E1
3.773799582E0,-3.900300860E-1,-1.694836235E1,-9.525827408E0
3.778554842E0,2.792423964E0,-1.668036652E1,1.071984529E0
3.783310155E0,4.543970108E0,-1.700579071E1,7.733603001E0
3.788065415E0,5.584847927E0,-1.857548141E1,7.826922894E0
3.792820728E0,6.221338749E0,-2.076491547E1,3.529413462E0
3.797575988E0,6.644868374E0,-2.173640060E1,3.206382394E-1
3.802331301E0,6.288337708E0,-2.088934135E1,8.566305041E-1
3.807086561E0,5.448457241E0,-1.917368698E1,1.201196909E0
3.811841874E0,4.426722050E0,-1.711585999E1,4.043870270E-1
3.816597186E0,3.254238844E0,-1.519442368E1,4.809573591E-1
3.821352447E0,2.041077614E0,-1.376830196E1,7.441678643E-1
3.826107759E0,7.106683254E-1,-1.255992603E1,9.619147182E-1
3.830863019E0,-3.278166950E-1,-1.167218876E1,1.100698471E0
3.835618332E0,-9.738788009E-1,-1.095194912E1,1.002592683E0
3.840373592E0,-1.244267821E0,-1.023410225E1,9.140582681E-1
3.845128905E0,-1.289731383E0,-9.561718941E0,7.633104324E-1
3.849884165E0,-1.208375454E0,-8.968298912E0,5.288137794E-1
3.854639478E0,-1.014556766E0,-8.518448830E0,3.613162339E-1
3.859394790E0,-9.954141974E-1,-8.161917686E0,2.775674164E-1
3.864150051E0,-1.146162033E0,-7.795815945E0,2.608176768E-1
3.868905363E0,-1.280160069E0,-7.377072334E0,1.411765367E-1
3.873660624E0,-1.423729420E0,-6.848258495E0,6.221338734E-2
3.878415936E0,-1.519442320E0,-6.336194515E0,9.810572863E-2
3.883171197E0,-1.603191137E0,-6.020341873E0,2.009970993E-1
3.887926509E0,-1.674975872E0,-5.862415314E0,3.661018610E-1
3.892681769E0,-1.797009826E0,-5.826523304E0,4.713860750E-1
3.897437082E0,-1.911865234E0,-5.998806477E0,5.934200287E-1
3.902192342E0,-1.914258122E0,-6.352943897E0,7.226324677E-1
3.906947655E0,-1.785045743E0,-6.915257454E0,8.566305041E-1
3.911702967E0,-1.533799291E0,-7.606783390E0,1.038485050E0
3.916458228E0,-1.201196909E0,-8.300702095E0,1.237089276E0
3.921213540E0,-8.015955687E-1,-8.970691681E0,1.471585870E0
3.925968801E0,-3.756731451E-1,-9.559326172E0,1.739582062E0
3.930724113E0,1.052841991E-1,-1.011446095E1,1.964507341E0
3.935479374E0,5.144568682E-1,-1.066720295E1,2.014756680E0
3.940234686E0,8.614161611E-1,-1.117926693E1,1.969292998E0
3.944989947E0,1.129412293E0,-1.166979599E1,2.091326952E0
3.949745259E0,1.320838094E0,-1.210768223E1,2.220539331E0
3.954500519E0,1.509871125E0,-1.250489140E1,2.493321180E0
3.959255832E0,1.684547186E0,-1.273460197E1,2.919243574E0
3.964011092E0,1.761117458E0,-1.283031464E1,3.450450182E0
3.968766405E0,1.751546144E0,-1.277528000E1,4.089334011E0
3.973521665E0,1.710868239E0,-1.253121185E1,4.996213913E0
3.978276978E0,1.574477315E0,-1.204786205E1,5.776273727E0
3.983032290E0,1.457229018E0,-1.138983536E1,6.154339790E0
3.987787551E0,1.421336651E0,-1.066481018E1,6.235695839E0
3.992542863E0,1.447657704E0,-9.863214493E0,6.072983742E0
3.997298124E0,1.478764415E0,-9.107083321E0,5.807380676E0
4.002053436E0,1.473978758E0,-8.489734650E0,5.503491879E0
4.006808697E0,1.160519004E0,-7.989634991E0,5.228317261E0
4.011564009E0,7.872386575E-1,-7.621140003E0,4.984249592E0
4.016319269E0,4.881358147E-1,-7.176074982E0,4.819144726E0
4.021074582E0,3.445664644E-1,-6.754938126E0,4.594219685E0
4.025829842E0,2.991028428E-1,-6.506084919E0,4.342973232E0
4.030585155E0,2.249253243E-1,-6.412764549E0,4.060619831E0
4.035340467E0,3.445664644E-1,-6.398407936E0,3.603590965E0
4.040095728E0,8.183453679E-1,-6.537191391E0,3.158525944E0
4.044851040E0,1.347159147E0,-6.774080753E0,2.792423964E0
4.049606301E0,1.732403636E0,-7.101897717E0,2.486142635E0
4.054361613E0,2.024327993E0,-7.429714203E0,2.189432621E0
4.059116874E0,2.232503414E0,-7.769495010E0,1.907079697E0
4.063872186E0,2.383251429E0,-8.123632431E0,1.655833244E0
4.068627447E0,2.522035122E0,-8.465806961E0,1.469193101E0
4.073382759E0,2.730210543E0,-8.743373871E0,1.354337573E0
4.078138019E0,2.952743053E0,-9.028120041E0,1.378265858E0
4.082893332E0,3.189632654E0,-9.260223389E0,1.552941918E0
4.087648592E0,3.500699520E0,-9.501898766E0,1.847259045E0
4.092403905E0,3.799802303E0,-9.731609344E0,2.127219439E0
4.097159165E0,4.082155228E0,-9.985248566E0,2.352144718E0
4.101914478E0,4.409972191E0,-1.014078236E1,2.524427891E0
4.106669738E0,4.766502857E0,-1.029153061E1,2.636890650E0
4.111425051E0,5.087141037E0,-1.041595650E1,2.718246460E0
4.116180363E0,5.371886730E0,-1.056431198E1,2.742174864E0
4.120935624E0,5.625525951E0,-1.064806080E1,2.739781857E0
4.125690936E0,5.843272686E0,-1.077009487E1,2.667997360E0
4.130446197E0,6.025127411E0,-1.089452171E1,2.541177750E0
4.135201509E0,6.120840549E0,-1.092802143E1,2.402393818E0
4.139956769E0,6.128018856E0,-1.096630573E1,2.227717876E0
4.144712082E0,6.092126369E0,-1.101894855E1,2.060220242E0
4.149467342E0,6.010770321E0,-1.099023438E1,1.931007862E0
4.154222655E0,5.855237007E0,-1.097348499E1,1.837687731E0
4.158977915E0,5.690132141E0,-1.087059307E1,1.734796405E0
4.163733228E0,5.477170944E0,-1.064566803E1,1.548156261E0
4.168488488E0,5.211567879E0,-1.035374355E1,1.323230863E0
4.173243801E0,5.017749310E0,-9.946963310E0,1.060020447E0
4.177999061E0,4.785645485E0,-9.513862610E0,8.542376757E-1
4.182754374E0,4.515256405E0,-9.037691116E0,7.058826685E-1
4.187509686E0,4.237689018E0,-8.556734085E0,6.125625968E-1
4.192264947E0,3.955335855E0,-8.080561638E0,4.857429862E-1
4.197020259E0,3.716053486E0,-7.661818027E0,1.770688742E-1
4.201775519E0,3.503092289E0,-7.374679565E0,-3.158525825E-1
4.206530832E0,3.302095175E0,-7.211967468E0,-1.517049551E0
4.211286092E0,3.560520172E0,-7.281359196E0,-2.030070686E1
4.216041405E0,4.496113777E0,-8.047062874E0,-3.611487198E1
4.220796665E0,5.158925533E0,-8.365307808E0,-2.187757683E1
4.225551978E0,5.637490273E0,-8.250452042E0,-5.242674351E0
4.230307238E0,5.998806477E0,-8.116454124E0,2.519642353E0
4.235062551E0,6.120840549E0,-8.133204460E0,5.749952793E0
4.239817811E0,6.515655994E0,-8.408378601E0,6.714260101E0
4.244573124E0,7.099504948E0,-8.781659126E0,7.044469833E0
4.249328384E0,7.537391186E0,-9.205188751E0,7.477570534E0
4.254083697E0,7.704888821E0,-9.662218094E0,7.759923935E0
4.258838957E0,7.489534855E0,-9.985248566E0,7.625925541E0
4.263594269E0,7.123433113E0,-1.017906761E1,7.262216568E0
4.268349530E0,6.671189308E0,-1.018863869E1,6.802794933E0
4.273104842E0,6.319444656E0,-1.011924744E1,6.388836384E0
4.277860155E0,6.034698486E0,-1.003549862E1,6.065805435E0
4.282615415E0,6.015556335E0,-1.003789139E1,5.692524910E0
4.287370728E0,6.307480335E0,-1.014796066E1,4.924428940E0
4.292125988E0,7.039684296E0,-1.041595650E1,3.168097258E0
4.296881249E0,8.106883049E0,-1.089212894E1,5.144568682E-1
4.301636561E0,9.025727272E0,-1.136590767E1,-2.038684845E0
4.306391874E0,9.564111710E0,-1.175833035E1,-2.773281336E0
4.311147134E0,9.695717812E0,-1.194018459E1,-1.356730461E0
4.315902447E0,9.597611427E0,-1.198804188E1,5.694918036E-1
4.320657707E0,9.597611427E0,-1.199282742E1,1.856830359E0
4.325413019E0,9.765109062E0,-1.199043465E1,2.254039049E0
4.330168280E0,1.006660461E1,-1.180140114E1,2.108076811E0
4.334923592E0,1.024606609E1,-1.146162033E1,1.629512191E0
4.339678853E0,1.031306553E1,-1.096391296E1,9.954141974E-1
4.344434165E0,1.036331463E1,-1.040638542E1,3.086741269E-1
4.349189426E0,1.046859932E1,-9.879964828E0,-3.948157430E-1
4.353944738E0,1.069113159E1,-9.365508080E0,-9.260223508E-1
4.358699999E0,1.088734341E1,-8.824729919E0,-7.872386575E-1
4.363455311E0,1.075573826E1,-8.197810173E0,4.977070987E-1
4.368210572E0,1.039920712E1,-7.525427341E0,2.050648928E0
4.372965884E0,1.028674412E1,-6.970292568E0,3.058027267E0
4.377721144E0,1.037767220E1,-6.589833736E0,3.148954630E0
4.382476457E0,1.075334454E1,-6.424728870E0,2.311466694E0
4.387231717E0,1.114098263E1,-6.388836384E0,1.426122308E0
4.391987030E0,1.114098263E1,-6.494120598E0,1.574477315E0
4.396742290E0,1.079880905E1,-6.853044033E0,2.431107759E0
4.401497603E0,1.044467068E1,-7.381857872E0,3.254238844E0
4.406252863E0,1.003549862E1,-8.087740898E0,3.469592810E0
4.411008176E0,9.439684868E0,-8.831908226E0,3.194418192E0
4.415763436E0,8.635697365E0,-9.578469276E0,2.543570518E0
4.420518749E0,7.714460373E0,-1.041595650E1,1.730010748E0
4.425274009E0,6.776473522E0,-1.142333508E1,9.667003751E-1
4.430029322E0,5.998806477E0,-1.258864021E1,3.637090325E-1
4.434784582E0,5.627918720E0,-1.385922909E1,1.028913707E-1
4.439539894E0,5.580062389E0,-1.519203091E1,9.571290761E-2
4.444295155E0,5.740381718E0,-1.660858154E1,2.057827413E-1
4.449050467E0,6.044270039E0,-1.788156319E1,4.977070987E-1
4.453805728E0,6.290730953E0,-1.913061714E1,7.585247755E-1
4.458561040E0,6.491727829E0,-2.030070686E1,8.877372146E-1
4.463316301E0,6.453442574E0,-2.144686890E1,7.920243144E-1
4.468071613E0,6.005984783E0,-2.251167488E1,7.704889178E-1
4.472826874E0,5.381458282E0,-2.344009018E1,1.098305583E0
4.477582186E0,4.673182487E0,-2.401436806E1,1.579262972E0
4.482337447E0,3.742374659E0,-2.426322174E1,1.942971945E0
4.487092759E0,2.706282377E0,-2.412443733E1,2.088934183E0
4.491848019E0,1.478764415E0,-2.346641159E1,2.146361828E0
4.496603332E0,1.914258115E-2,-2.237767792E1,2.261217356E0
4.501358592E0,-1.428515077E0,-2.111905289E1,2.648854733E0
4.506113905E0,-2.622533560E0,-1.974796486E1,3.089133978E0
4.510869165E0,-3.491128206E0,-1.843430519E1,3.438486099E0
4.515624478E0,-4.127619267E0,-1.709671783E1,3.783052683E0
4.520379738E0,-4.651647091E0,-1.590748501E1,3.285345554E0
4.525135051E0,-5.769095421E0,-1.460100365E1,-7.202396393E-1
4.529890311E0,-6.776473522E0,-1.302174091E1,-5.431707382E0
4.534645624E0,-6.585047722E0,-1.141854954E1,-6.381658077E0
4.539400884E0,-5.364708424E0,-1.051645565E1,-3.366701365E0
4.544156197E0,-4.469792843E0,-1.033699417E1,-1.962114573E-1
4.548911457E0,-4.508078098E0,-1.051645565E1,1.849651933E0
4.553666769E0,-4.859822750E0,-1.062413216E1,2.548356056E0
4.558422030E0,-4.965106964E0,-1.064327526E1,2.165504456E0
4.563177342E0,-4.539184570E0,-1.041595650E1,8.805587292E-1
4.567932603E0,-3.816552162E0,-9.982855797E0,-5.503492355E-1
4.572687915E0,-2.964707375E0,-9.401400566E0,-1.509871125E0
4.577443176E0,-2.160718918E0,-8.786444664E0,-1.811366796E0
4.582198488E0,-1.380658627E0,-8.154739380E0,-1.390229940E0
4.586953749E0,-4.881358147E-1,-7.546962738E0,-8.709874153E-1
4.591709061E0,3.852444589E-1,-6.982256413E0,-6.053841114E-1
4.596464322E0,1.284945726E0,-6.360122681E0,-6.604190469E-1
4.601219634E0,2.179861546E0,-5.694917679E0,-8.159525394E-1
4.605974894E0,3.002992392E0,-5.118247509E0,-9.092726111E-1
4.610730207E0,3.699303865E0,-4.673182487E0,-8.494520187E-1
4.615485467E0,4.264009953E0,-4.302295208E0,-5.838487148E-1
4.620240780E0,4.618147850E0,-3.943371773E0,-1.986042857E-1
4.624996040E0,4.869394302E0,-3.627519131E0,1.459621787E-1
4.629751353E0,4.998606682E0,-3.328416348E0,5.431707501E-1
4.634506613E0,5.075176716E0,-3.041277647E0,7.154539824E-1
4.639261926E0,4.977071285E0,-2.792423964E0,7.920243144E-1
4.644017186E0,4.878965378E0,-2.538784742E0,8.327022791E-1
4.648772499E0,4.517649174E0,-2.352144718E0,7.130611539E-1
4.653527759E0,3.799802303E0,-2.309073925E0,5.862415433E-1
4.658283072E0,2.641676188E0,-2.493321180E0,4.187439680E-1
4.663038332E0,1.335195065E0,-2.981456995E0,2.919243574E-1
4.667793644E0,2.608176768E-1,-3.546163082E0,3.326023519E-1
4.672548905E0,-6.149554253E-1,-4.084548473E0,4.881358147E-1
4.677304217E0,-1.373480201E0,-4.510470867E0,6.221339107E-1
4.682059478E0,-2.115255117E0,-4.747360229E0,6.747759581E-1
4.686814790E0,-2.742174864E0,-4.845465660E0,6.149554253E-1
4.691570051E0,-3.285345554E0,-4.821537495E0,4.833501875E-1
4.696325363E0,-3.826123476E0,-4.752145767E0,3.421736360E-1
4.701080624E0,-4.307080746E0,-4.637290478E0,1.962114573E-1
4.705835936E0,-4.625326157E0,-4.527220249E0,1.555334777E-1
4.710591197E0,-4.900500774E0,-4.421936035E0,5.982056633E-2
4.715346509E0,-5.144568920E0,-4.321437836E0,2.632104978E-2
4.720101769E0,-5.276174068E0,-4.264009953E0,-1.148554832E-1
4.724857030E0,-5.450850010E0,-4.254438877E0,-4.881358147E-1
4.729612342E0,-5.362315655E0,-4.333401680E0,-8.255237937E-1
4.734367603E0,-5.247459888E0,-4.457828522E0,-1.311266780E0
4.739122915E0,-5.108676434E0,-4.603790760E0,-1.842473388E0
4.743878176E0,-4.962714195E0,-4.823930264E0,-2.435893536E0
4.748633488E0,-4.536791801E0,-5.072783947E0,-3.038884640E0
4.753388749E0,-3.215953588E0,-5.402993679E0,-3.701696634E0
4.758144061E0,-1.478764415E0,-5.639883041E0,-4.606183529E0
4.762899322E0,8.614161611E-2,-5.869594097E0,-6.034698486E0
4.767654634E0,1.435693622E0,-6.233303070E0,-7.709674358E0
4.772409894E0,2.672782898E0,-6.733402729E0,-9.097511292E0
4.777165207E0,3.826123476E0,-7.436892986E0,-9.954142570E0
4.781920467E0,5.101497650E0,-8.453842163E0,-1.014556789E1
4.786675780E0,6.714260101E0,-9.518648148E0,-9.418149948E0
4.791431040E0,8.982656479E0,-1.025803089E1,-6.963113785E0
4.796186353E0,1.099262714E1,-1.020778179E1,-1.404586911E0
4.800941613E0,1.157886887E1,-9.336793900E0,8.712266922E0
4.805696926E0,1.205025482E1,-8.547162056E0,1.873101616E1
4.810452186E0,1.469671631E1,-8.762516975E0,2.403351021E1
4.815207499E0,1.823330879E1,-1.009292603E1,2.324387932E1
4.819962759E0,2.189672089E1,-1.182772255E1,1.587637806E1
4.824718072E0,2.486860657E1,-1.281595802E1,8.446663857E0
4.829473332E0,2.447618294E1,-1.294277763E1,4.931607246E0
4.834228592E0,2.386122704E1,-1.277288723E1,2.711068153E0
4.838983905E0,2.365783691E1,-1.253599739E1,8.327022791E-1
4.843739165E0,2.331805611E1,-1.232064342E1,-6.388836503E-1
4.848494478E0,2.244467545E1,-1.194257736E1,-1.373480201E0
4.853249738E0,2.131287193E1,-1.124626637E1,-1.576870084E0
4.858005051E0,1.992264175E1,-1.047099209E1,-1.351944804E0
4.862760311E0,1.845344734E1,-9.595218658E0,-1.014556766E0
4.867515624E0,1.673779488E1,-8.602197647E0,-6.580262184E-1
4.872270884E0,1.491685677E1,-7.635497093E0,-3.014956415E-1
4.877026197E0,1.305524063E1,-6.496513367E0,1.316052526E-1
4.881781457E0,1.101655579E1,-5.460421085E0,5.527420044E-1
4.886536769E0,8.822337151E0,-4.594219685E0,1.026520967E0
4.891292030E0,6.537191391E0,-4.077369690E0,1.560120344E0
4.896047342E0,4.498506546E0,-3.761517286E0,1.938186288E0
4.900802603E0,3.022135019E0,-3.878765583E0,2.041077614E0
4.905557915E0,2.787638426E0,-5.000999451E0,1.744367719E0
4.910313176E0,2.969492912E0,-6.381658077E0,1.074377418E0
4.915068488E0,3.122633457E0,-7.594819069E0,-2.775674164E-1
4.919823749E0,2.112862349E0,-9.722038269E0,-7.951349735E0
4.924579009E0,1.684547186E0,-1.176072311E1,-9.477970123E0
4.929334322E0,2.983849764E0,-1.299541950E1,-3.957728624E0
4.934089582E0,3.871587038E0,-1.449811268E1,2.129612118E-1
4.938844894E0,4.079762459E0,-1.643151283E1,1.062413216E0
4.943600155E0,3.148954630E0,-1.945364761E1,-2.373680115E0
4.948355467E0,2.280359983E0,-2.231067848E1,-5.570491314E0
4.953110728E0,1.727617979E0,-2.398804665E1,-5.044070244E0
4.957866040E0,1.261017561E0,-2.452643204E1,-2.914458036E0
4.962621301E0,8.614161611E-1,-2.379183578E1,-1.253839016E0
4.967376613E0,-4.307080805E-2,-2.161915207E1,4.618147612E-1
4.972131874E0,-8.207381964E-1,-1.905404663E1,1.533799291E0
4.976887186E0,-6.867401004E-1,-1.680479431E1,2.596212626E0
4.981642447E0,-8.135596663E-2,-1.490489197E1,3.053241730E0
4.986397759E0,5.072783828E-1,-1.328734398E1,2.854637384E0
4.991153019E0,8.590233326E-1,-1.195454216E1,2.234896421E0
4.995908280E0,8.925228715E-1,-1.076770210E1,1.653440475E0
5.000663592E0,6.149554253E-1,-9.755537987E0,1.241874933E0
5.005418853E0,2.919243574E-1,-8.800801277E0,7.489534616E-1
5.010174165E0,-2.392822690E-2,-7.987242222E0,4.091726840E-1
5.014929426E0,-2.871387303E-1,-7.271788120E0,2.416750938E-1
5.019684738E0,-5.647061467E-1,-6.671189308E0,2.344966233E-1
5.024439999E0,-7.417750359E-1,-6.151947021E0,2.943171859E-1
5.029195311E0,-9.427721500E-1,-5.749952793E0,2.991028428E-1
5.033950572E0,-1.117448211E0,-5.405386448E0,2.273181528E-1
5.038705884E0,-1.213161111E0,-5.242674351E0,1.866401732E-1
5.043461144E0,-1.251446247E0,-5.185246468E0,1.004985496E-1
5.048216457E0,-1.186840057E0,-5.204389095E0,-3.349951655E-2
5.052971717E0,-1.060020447E0,-5.228317261E0,-1.387837082E-1
5.057727030E0,-7.920243144E-1,-5.388636589E0,-2.153540403E-1
5.062482290E0,-3.421736360E-1,-5.783452511E0,-2.201396823E-1
5.067237551E0,-1.196411345E-2,-6.281159401E0,-1.603191197E-1
5.071992863E0,2.823530734E-1,-6.910471916E0,4.785645287E-3
5.076748124E0,4.187439680E-1,-7.525427341E0,1.387837082E-1
5.081503436E0,5.718846321E-1,-8.195417404E0,3.326023519E-1
5.086258697E0,5.647061467E-1,-8.855836868E0,7.010970116E-1
5.091014009E0,4.402793646E-1,-9.657432556E0,1.268195987E0
5.095769269E0,5.216353536E-1,-1.057149029E1,1.921436548E0
5.100524582E0,6.987041831E-1,-1.148554897E1,2.943171740E0
5.105279842E0,1.067198873E0,-1.241635704E1,4.362115860E0
5.110035155E0,1.383051515E0,-1.324427319E1,5.670989513E0
5.114790415E0,1.569691658E0,-1.371565914E1,6.989434719E0
5.119545676E0,1.540977836E0,-1.380658627E1,7.996813297E0
5.124300988E0,1.287338614E0,-1.355533981E1,8.317451477E0
5.129056249E0,1.019342422E0,-1.297627735E1,8.465806961E0
5.133811561E0,7.154539824E-1,-1.218185997E1,8.908478737E0
5.138566822E0,4.737788737E-1,-1.135155106E1,9.107083321E0
5.143322134E0,2.273181528E-1,-1.055952644E1,8.989834785E0
5.148077394E0,-2.153540403E-2,-9.762716293E0,8.623732567E0
5.152832707E0,-1.483550072E-1,-8.930013657E0,8.037490845E0
5.157587967E0,-2.321037948E-1,-8.152346611E0,7.384250641E0
5.162343228E0,-1.794617027E-1,-7.566105366E0,6.652047157E0
5.167098540E0,7.657032460E-2,-7.209574699E0,5.752345562E0
5.171853801E0,4.354937077E-1,-6.905686378E0,5.065605640E0
5.176609113E0,7.920243144E-1,-6.711867332E0,4.364508629E0
5.181364374E0,1.064806104E0,-6.690331936E0,3.629911900E0
5.186119686E0,1.325623751E0,-6.728617191E0,2.921636343E0
5.190874947E0,1.574477315E0,-6.771687984E0,2.366501570E0
5.195630259E0,1.734796405E0,-6.943971157E0,1.830509305E0
5.200385519E0,1.801795483E0,-7.164111137E0,1.320838094E0
5.205140832E0,1.866401672E0,-7.401000500E0,8.757730722E-1
5.209896092E0,1.990828395E0,-7.688138962E0,5.623133183E-1
5.214651353E0,2.160718918E0,-8.001599312E0,4.187439680E-1
5.219406665E0,2.388036966E0,-8.315058708E0,4.498506486E-1
5.224161926E0,2.653640270E0,-8.638090134E0,5.790630579E-1
5.228917238E0,2.902493954E0,-8.965906143E0,7.992027402E-1
5.233672499E0,3.134597778E0,-9.300901413E0,1.019342422E0
5.238427811E0,3.352344513E0,-9.600004196E0,1.170090318E0
5.243183072E0,3.553341627E0,-9.927821159E0,1.311266780E0
5.247938332E0,3.663411379E0,-1.026281643E1,1.418943882E0
5.252693644E0,3.795016766E0,-1.053559780E1,1.397408366E0
5.257448905E0,3.926621914E0,-1.072223854E1,1.385444283E0
5.262204217E0,4.051048756E0,-1.096869946E1,1.366301775E0
5.266959478E0,4.132404804E0,-1.113858986E1,1.328016520E0
5.271714790E0,4.163511276E0,-1.126062298E1,1.215553880E0
5.276470051E0,4.211368084E0,-1.141376400E1,1.071984529E0
5.281225363E0,4.218546391E0,-1.152861977E1,9.355936646E-1
5.285980624E0,4.230510235E0,-1.152383423E1,7.776673436E-1
5.290735936E0,4.292723656E0,-1.145683479E1,4.977070987E-1
5.295491197E0,4.393222332E0,-1.131326580E1,3.326023519E-1
5.300246457E0,4.546362877E0,-1.111944675E1,3.828516230E-2
5.305001769E0,4.661218643E0,-1.085384369E1,-4.139583111E-1
5.309757030E0,6.053841114E0,-1.083948612E1,-1.199522018E1
5.314512342E0,9.501898766E0,-1.117448139E1,-2.874737167E1
5.319267603E0,9.686145782E0,-1.060259724E1,-2.494038963E1
5.324022915E0,8.248059273E0,-9.394221306E0,-1.132283688E1
5.328778176E0,6.826723099E0,-8.288737297E0,-2.550748825E0
5.333533488E0,5.548955917E0,-7.671389580E0,1.490728498E0
5.338288749E0,5.319244862E0,-7.518248558E0,3.385843992E0
5.343044009E0,5.680561066E0,-7.628318787E0,4.249652863E0
5.347799322E0,6.156732559E0,-7.920242786E0,4.675575256E0
5.352554582E0,6.632904530E0,-8.240880966E0,4.862215519E0
5.357309894E0,7.063612461E0,-8.559126854E0,4.960321426E0
5.362065155E0,7.389036179E0,-8.757730484E0,4.867001057E0
5.366820415E0,7.415357590E0,-8.846264839E0,4.579862595E0
5.371575728E0,7.015756130E0,-8.798408508E0,4.357329845E0
5.376330988E0,6.340980053E0,-8.628518105E0,4.314259052E0
5.381086301E0,5.599205017E0,-8.465806961E0,4.335794449E0
5.385841561E0,4.960321426E0,-8.338987350E0,4.409972191E0
5.390596874E0,4.606183529E0,-8.288737297E0,4.510470867E0
5.395352134E0,4.524827480E0,-8.291130066E0,4.610969067E0
5.400107394E0,4.713860512E0,-8.336593628E0,4.685146809E0
5.404862707E0,5.142175674E0,-8.434700012E0,4.654039860E0
5.409617967E0,5.702096462E0,-8.559126854E0,4.630111694E0
5.414373280E0,6.269195557E0,-8.700303078E0,4.658825874E0
5.419128540E0,6.778866768E0,-8.870193481E0,4.804787636E0
5.423883853E0,7.195217609E0,-9.037691116E0,4.898108006E0
5.428639113E0,7.590033531E0,-9.260223389E0,4.948357105E0
5.433394374E0,7.946564198E0,-9.521040916E0,4.843072891E0
5.438149686E0,8.322237015E0,-9.812965393E0,4.505684853E0
5.442904947E0,8.717052460E0,-1.014078236E1,3.500699520E0
5.447660259E0,9.355937004E0,-1.059302616E1,1.232303619E0
5.452415519E0,9.992427826E0,-1.115294647E1,-2.292324066E0
5.457170832E0,1.037527943E1,-1.166979599E1,-6.166304111E0
5.461926092E0,1.031545830E1,-1.208854008E1,-8.140382767E0
5.466681353E0,1.014556789E1,-1.222253799E1,-6.910471916E0
5.471436665E0,1.000199890E1,-1.217946720E1,-4.125226021E0
5.476191926E0,9.832108498E0,-1.189232826E1,-1.272981644E0
5.480947238E0,9.549755096E0,-1.127498055E1,1.076770186E0
5.485702499E0,9.516255379E0,-1.061934662E1,1.995614052E0
5.490457811E0,9.712467194E0,-1.001396275E1,1.787438512E0
5.495213072E0,1.003071213E1,-9.449256897E0,6.436693072E-1
5.499968332E0,1.043509960E1,-9.006584167E0,-9.738788009E-1
5.504723644E0,1.042552853E1,-8.520841599E0,-1.581655741E0
5.509478905E0,9.724431038E0,-7.994420528E0,-4.474578202E-1
5.514234217E0,8.925228119E0,-7.599604607E0,1.222732425E0
5.518989478E0,8.377271652E0,-7.412964344E0,2.268395901E0
5.523744738E0,8.157132149E0,-7.463213921E0,2.510071039E0
5.528500051E0,8.116454124E0,-7.728816986E0,2.234896421E0
5.533255311E0,8.070990562E0,-8.123632431E0,1.801795483E0
5.538010624E0,7.934599876E0,-8.676374435E0,1.387837172E0
5.542765884E0,7.599604607E0,-9.408578873E0,9.714859724E-1
5.547521197E0,7.166503906E0,-1.023410225E1,6.795616150E-1
5.552276457E0,6.673582554E0,-1.120558834E1,4.857429862E-1
5.557031717E0,6.273981094E0,-1.224407387E1,2.679961324E-1
5.561787030E0,6.010770321E0,-1.340698528E1,1.914258152E-1
5.566542290E0,5.919843197E0,-1.461057472E1,2.703889608E-1
5.571297603E0,5.850451469E0,-1.588834190E1,3.804588020E-1
5.576052863E0,5.915057659E0,-1.717568016E1,4.953143001E-1
5.580808176E0,6.025127411E0,-1.851326942E1,4.929214716E-1
5.585563436E0,5.994020939E0,-1.985085678E1,5.048855543E-1
5.590318697E0,5.623133183E0,-2.122433662E1,7.393822074E-1
5.595074009E0,5.190032482E0,-2.237049866E1,9.762716293E-1
5.599829269E0,4.589433670E0,-2.327259254E1,1.328016520E0
5.604584582E0,3.828516245E0,-2.388515472E1,1.598405480E0
5.609339842E0,2.837887764E0,-2.419143677E1,1.899901152E0
5.614095103E0,1.411765337E0,-2.387079811E1,2.280359983E0
5.618850415E0,-3.828516230E-2,-2.304048920E1,2.785245657E0
5.623605676E0,-1.485942841E0,-2.177229309E1,3.323630571E0
5.628360988E0,-2.605783939E0,-2.036770630E1,3.814159393E0
5.633116249E0,-3.306880951E0,-1.887458420E1,4.141975880E0
5.637871509E0,-3.682554007E0,-1.748674774E1,4.386044025E0
5.642626822E0,-3.761517286E0,-1.612762451E1,4.694717884E0
5.647382082E0,-3.498306751E0,-1.460100365E1,5.053641319E0
5.652137394E0,-2.993421078E0,-1.313898945E1,5.350351334E0
5.656892655E0,-2.337787628E0,-1.151186943E1,1.658226132E0
5.661647915E0,-1.564906001E0,-9.461220741E0,-6.879364967E0
5.666403228E0,-1.399801254E0,-7.905886173E0,-1.005224800E1
5.671158488E0,-1.852044702E0,-7.678567886E0,-7.278966427E0
5.675913801E0,-2.376072884E0,-8.082955360E0,-3.316452265E0
5.680669061E0,-3.414557934E0,-8.650053978E0,8.853443712E-2
5.685424322E0,-3.821337700E0,-9.011369705E0,1.890329838E0
5.690179634E0,-3.424129248E0,-9.147761345E0,2.234896421E0
5.694934894E0,-2.775674343E0,-9.152546883E0,1.689332843E0
5.699690207E0,-1.940579176E0,-8.958727837E0,5.934200287E-1
5.704445467E0,-7.561319470E-1,-8.535198212E0,-8.925228715E-1
5.709200728E0,4.857429862E-1,-7.881958008E0,-2.311466694E0
5.713956040E0,1.627119422E0,-7.250252724E0,-2.742174864E0
5.718711301E0,2.402393818E0,-6.623332977E0,-2.347358942E0
5.723466613E0,2.883351326E0,-6.001199245E0,-1.639083505E0
5.728221874E0,3.278167009E0,-5.436492920E0,-9.044869542E-1
5.732977134E0,3.548556089E0,-4.979464054E0,-3.349951804E-1
5.737732447E0,3.737588882E0,-4.589433670E0,1.244267747E-1
5.742487707E0,3.871587038E0,-4.197010994E0,5.431707501E-1
5.747243019E0,4.051048756E0,-3.852444410E0,6.915257573E-1
5.751998280E0,3.986442566E0,-3.510270834E0,8.350951076E-1
5.756753540E0,3.948157310E0,-3.280559778E0,9.164510965E-1
5.761508853E0,3.735196114E0,-3.055634499E0,9.714859724E-1
5.766264113E0,3.304488182E0,-2.914458036E0,9.284151793E-1
5.771019426E0,2.696711063E0,-2.847458839E0,9.092726111E-1
5.775774686E0,1.916650891E0,-2.900100946E0,8.829515576E-1
5.780529947E0,1.028913736E0,-3.132204771E0,8.542376757E-1
5.785285259E0,1.339980662E-1,-3.462414265E0,8.279166222E-1
5.790040519E0,-5.599204898E-1,-3.804588079E0,8.566305041E-1
5.794795780E0,-1.098305583E0,-4.132404804E0,9.212366939E-1
5.799551092E0,-1.531406522E0,-4.369294167E0,9.954141974E-1
5.804306353E0,-1.969292998E0,-4.484149456E0,9.571290612E-1
5.809061665E0,-2.409572363E0,-4.508078098E0,7.633104324E-1
5.813816926E0,-2.821137905E0,-4.460221291E0,4.570291340E-1
5.818572186E0,-3.136990547E0,-4.364508629E0,1.124626622E-1
5.823327499E0,-3.421736479E0,-4.287938118E0,-1.962114573E-1
5.828082759E0,-3.720839262E0,-4.213760853E0,-4.857429862E-1
5.832838019E0,-4.065405846E0,-4.151547432E0,-7.992027402E-1
5.837593332E0,-4.381258488E0,-4.175475597E0,-1.081555843E0
5.842348592E0,-4.491328239E0,-4.326223373E0,-1.354337573E0
5.847103905E0,-4.419543266E0,-4.517649174E0,-1.543370605E0
5.851859165E0,-4.443471432E0,-4.610969067E0,-1.739582062E0
5.856614426E0,-4.515256405E0,-4.735395908E0,-2.009970903E0
5.861369738E0,-4.503292084E0,-4.838287354E0,-2.352144718E0
5.866124999E0,-4.304687977E0,-4.996213913E0,-2.866601467E0
5.870880311E0,-3.646661758E0,-5.201996326E0,-3.507878065E0
5.875635572E0,-2.330609322E0,-5.410171986E0,-4.280759811E0
5.880390832E0,-7.920243144E-1,-5.618347645E0,-5.431707382E0
5.885146144E0,6.675975323E-1,-5.883950710E0,-6.774080753E0
5.889901405E0,2.057827473E0,-6.235695839E0,-7.776673794E0
5.894656665E0,3.342773199E0,-6.711867332E0,-7.980063438E0
5.899411978E0,4.491328239E0,-7.324429989E0,-7.089933395E0
5.904167238E0,5.706882000E0,-8.020741463E0,-5.000999451E0
5.908922499E0,7.178467751E0,-8.645268440E0,-1.586441398E0
5.913677811E0,8.063812256E0,-8.472985268E0,2.758924484E0
5.918433072E0,8.738588333E0,-8.027919769E0,7.556533813E0
5.923188384E0,9.473184586E0,-7.908278942E0,1.200000572E1
5.927943644E0,1.093759251E1,-8.583054543E0,1.554377556E1
5.932698957E0,1.320598793E1,-9.973284721E0,1.666122437E1
5.937454217E0,1.619940948E1,-1.155972576E1,1.592423439E1
5.942209478E0,1.909711838E1,-1.314138222E1,1.333759308E1
5.946964738E0,2.139661980E1,-1.447896957E1,8.240880966E0
5.951720051E0,2.213600159E1,-1.517767429E1,4.759324074E0
5.956475311E0,2.184168434E1,-1.536670685E1,2.804388046E0
5.961230624E0,2.178186417E1,-1.522074509E1,1.619940877E0
5.965985884E0,2.163350868E1,-1.476371574E1,8.925228715E-1
5.970741144E0,2.122912216E1,-1.400040531E1,3.708875179E-1
5.975496457E0,2.040359879E1,-1.300977707E1,1.100698411E-1
5.980251717E0,1.939622116E1,-1.182532978E1,-8.853443712E-2
5.985007030E0,1.820459557E1,-1.061216831E1,-3.445664644E-1
5.989762290E0,1.681197166E1,-9.442078590E0,-4.953143001E-1
5.994517551E0,1.549591923E1,-8.415556908E0,-5.024927258E-1
5.999272863E0,1.426840115E1,-7.568498135E0,-3.110669553E-1
6.004028124E0,1.321316624E1,-6.893722057E0,2.392822690E-2
6.008783384E0,1.235892868E1,-6.431907177E0,4.785645306E-1
6.013538697E0,1.178704453E1,-6.463014126E0,1.009771109E0
6.018293957E0,1.148794174E1,-7.432106972E0,1.433300734E0
6.023049217E0,1.092084217E1,-9.073583603E0,1.404586911E0
6.027804530E0,9.681360245E0,-1.084905815E1,7.776673436E-1
6.032559790E0,8.370093346E0,-1.264606762E1,-9.571290761E-2
6.037315051E0,7.259823799E0,-1.449332714E1,-1.031306505E0
6.042070363E0,6.623332977E0,-1.610130310E1,-1.000199914E0
6.046825624E0,6.252445698E0,-1.743410492E1,2.392822690E-2
6.051580884E0,5.539384365E0,-1.844626999E1,1.105484009E0
6.056336197E0,4.323830605E0,-1.910668945E1,1.954936147E0
6.061091457E0,3.077169895E0,-1.937707710E1,2.273181438E0
6.065846769E0,1.964507341E0,-1.909233093E1,2.359323025E0
6.070602030E0,7.202396393E-1,-1.813041687E1,2.368894339E0
6.075357290E0,-1.507478207E-1,-1.678325844E1,2.239681959E0
6.080112603E0,-6.317051649E-1,-1.527577972E1,1.861616015E0
6.084867863E0,-5.718846321E-1,-1.361037540E1,1.674975872E0
6.089623124E0,-5.575276613E-1,-1.173440266E1,1.696511269E0
6.094378436E0,-5.886343718E-1,-9.966106415E0,1.550549030E0
6.099133697E0,-7.058826685E-1,-8.571090698E0,1.414158225E0
6.103888957E0,-7.585247755E-1,-7.580461979E0,1.296909928E0
6.108644269E0,-6.795616150E-1,-6.841079712E0,1.177268744E0
6.113399530E0,-6.771687865E-1,-6.242874146E0,1.043270707E0
6.118154842E0,-8.327022791E-1,-5.795416355E0,8.446664214E-1
6.122910103E0,-1.086341500E0,-5.525027275E0,6.317051649E-1
6.127665363E0,-1.538584948E0,-5.484349728E0,5.240281820E-1
6.132420624E0,-2.266003132E0,-5.426921844E0,3.972085714E-1
6.137175936E0,-2.689532757E0,-5.501099110E0,8.614161611E-2
6.141931197E0,-2.909672260E0,-5.685346603E0,-1.028913707E-1
6.146686509E0,-3.014956474E0,-5.891129494E0,-3.038884699E-1
6.151441769E0,-3.062813044E0,-6.156732559E0,-5.048855543E-1
6.156197030E0,-2.943171740E0,-6.446264267E0,-6.891329288E-1
6.160952342E0,-2.634497643E0,-6.932007313E0,-7.848458290E-1
6.165707603E0,-2.258824587E0,-7.379465103E0,-8.662018180E-1
6.170462863E0,-1.782652855E0,-7.738388538E0,-8.542376757E-1
6.175218176E0,-1.234696507E0,-8.102097511E0,-8.207381964E-1
6.179973436E0,-5.312066078E-1,-8.487341881E0,-7.561319470E-1
6.184728697E0,1.722832322E-1,-8.870193481E0,-6.317051649E-1
6.189484009E0,7.752745152E-1,-9.351150513E0,-4.283152521E-1
6.194239269E0,1.213161111E0,-9.832108498E0,-1.531406492E-1
6.198994530E0,1.519442320E0,-1.014317513E1,1.483550072E-1
6.203749842E0,1.789831281E0,-1.042074299E1,4.354937077E-1
6.208505103E0,1.861616015E0,-1.071506023E1,7.369893789E-1
6.213260363E0,1.868794441E0,-1.101177025E1,1.064806104E0
6.218015676E0,1.887937069E0,-1.146162033E1,1.289731383E0
6.222770936E0,1.670190215E0,-1.184686470E1,1.462014675E0
6.227526197E0,1.136590719E0,-1.204546928E1,1.727617979E0
6.232281509E0,7.178468108E-1,-1.211964703E1,1.964507341E0
6.237036769E0,1.244267747E-1,-1.209332561E1,2.337787628E0
6.241792030E0,-3.110669553E-1,-1.183250809E1,2.584248543E0
6.246547342E0,-6.149554253E-1,-1.131087303E1,2.816352367E0
6.251302603E0,-7.896314859E-1,-1.063370419E1,3.134597778E0
6.256057863E0,-7.824530005E-1,-9.918250084E0,3.668197155E0
6.260813176E0,-3.828516304E-1,-9.303294182E0,4.500899315E0
6.265568436E0,4.833501875E-1,-8.918049812E0,4.778466702E0
6.270323697E0,1.095912814E0,-8.544769287E0,4.919643402E0
6.275079009E0,1.328016520E0,-8.094919205E0,5.335994720E0
6.279834269E0,1.409372568E0,-7.692924976E0,5.675775528E0
6.284589530E0,1.485942841E0,-7.434499741E0,5.505885124E0
6.289344790E0,1.387837172E0,-7.245467186E0,5.271388054E0
6.294100103E0,1.227517962E0,-7.116254330E0,5.242674351E0
6.298855363E0,1.117448211E0,-7.013363361E0,5.292923450E0
6.303610676E0,1.083948612E0,-6.977470875E0,5.225924492E0
6.308365936E0,1.148554921E0,-7.020541668E0,5.170889854E0
6.313121197E0,1.275374413E0,-7.142575741E0,5.096712112E0
6.317876509E0,1.476371527E0,-7.269395351E0,4.847858906E0
6.322631769E0,1.749153376E0,-7.456035137E0,4.551148891E0
6.327387030E0,2.012363911E0,-7.762316704E0,4.381258488E0
6.332142342E0,2.352144718E0,-8.049455643E0,4.254438877E0
6.336897603E0,2.766103029E0,-8.422736168E0,4.127619267E0
6.341652863E0,3.160918713E0,-8.791230202E0,4.144368649E0
6.346408124E0,3.558127165E0,-9.209974289E0,4.173082829E0
6.351163436E0,4.034298897E0,-9.631111145E0,4.139583111E0
6.355918697E0,4.692325115E0,-1.001396275E1,4.149154663E0
6.360673957E0,5.453242779E0,-1.032742214E1,4.194618225E0
6.365429269E0,6.218945980E0,-1.063370419E1,4.268795490E0
6.370184530E0,6.979863644E0,-1.092562866E1,4.333401680E0
6.374939790E0,7.590033531E0,-1.108355427E1,4.242474556E0
6.379695103E0,8.176275253E0,-1.124148083E1,4.204189301E0
6.384450363E0,8.575876236E0,-1.129172993E1,4.182653904E0
6.389205624E0,8.855836868E0,-1.120080280E1,4.007977962E0
6.393960936E0,8.922835350E0,-1.100937653E1,3.763910055E0
6.398716197E0,8.774480820E0,-1.079641533E1,3.321237803E0
6.403471457E0,8.465806961E0,-1.060977554E1,2.734996319E0
6.408226717E0,7.987242222E0,-1.028435135E1,2.050648928E0
6.412982030E0,7.420143127E0,-9.738788605E0,1.416550994E0
6.417737290E0,6.805187702E0,-9.245866776E0,7.010970116E-1
6.422492551E0,6.357729912E0,-8.647661209E0,-3.397808075E-1
6.427247863E0,6.147161484E0,-8.226524353E0,-2.115255117E0
6.432003124E0,6.809973240E0,-7.989634991E0,-1.275374508E1
6.436758384E0,7.836493969E0,-8.159524918E0,-3.020459938E1
6.441513697E0,8.080561638E0,-8.224131584E0,-2.957528877E1
6.446268957E0,7.475177765E0,-8.126026154E0,-1.586919975E1
6.451024217E0,7.477570534E0,-7.573283672E0,-4.445864677E0
6.455779530E0,7.613961697E0,-7.013363361E0,2.368894339E0
6.460534790E0,6.888936520E0,-6.611369133E0,7.499105930E0
6.465290051E0,4.701896667E0,-6.661618233E0,9.839286804E0
6.470045363E0,2.392822742E0,-7.056434155E0,9.513862610E0
6.474800624E0,5.264210105E-1,-7.585247993E0,7.881958008E0
6.479555884E0,-8.709874153E-1,-8.082955360E0,5.814558983E0
6.484311144E0,-2.079362869E0,-8.683553696E0,3.060420275E0
6.489066457E0,-3.079562664E0,-9.389435768E0,1.100698411E-1
6.493821717E0,-3.428914785E0,-1.021496010E1,-1.749153376E0
6.498576978E0,-3.091526747E0,-1.096391296E1,-1.789831281E0
6.503332290E0,-2.347358942E0,-1.144247818E1,-5.886343718E-1
6.508087551E0,-1.471585870E0,-1.164108181E1,9.164510965E-1
6.512842811E0,-8.183453679E-1,-1.164347458E1,2.084148407E0
6.517598072E0,-5.647061467E-1,-1.167697430E1,2.813959360E0
6.522353384E0,-5.455635786E-1,-1.183729362E1,3.096312523E0
6.527108644E0,-5.718846321E-1,-1.217468166E1,3.048455954E0
6.531863905E0,-3.637090325E-1,-1.258624744E1,2.876172781E0
6.536619165E0,9.571290761E-2,-1.291406345E1,2.758924484E0
6.541374478E0,7.992027402E-1,-1.308634663E1,2.758924484E0
6.546129738E0,1.775474429E0,-1.308395386E1,2.857030153E0
6.550884999E0,2.914458036E0,-1.293320656E1,3.086741209E0
6.555640311E0,4.098905087E0,-1.279681587E1,3.450450182E0
6.560395572E0,5.111069202E0,-1.266042423E1,3.818944931E0
6.565150832E0,5.807380676E0,-1.252881908E1,4.046263218E0
6.569906144E0,6.173482418E0,-1.240439224E1,4.264009953E0
6.574661405E0,6.329015732E0,-1.223450184E1,4.402793884E0
6.579416665E0,6.307480335E0,-1.202154064E1,4.455435753E0
6.584171926E0,6.221338749E0,-1.180618668E1,4.441078663E0
6.588927238E0,6.209374905E0,-1.162672520E1,4.371686935E0
6.593682499E0,6.206982136E0,-1.154776192E1,4.180261135E0
6.598437759E0,6.333801746E0,-1.157408333E1,3.864408493E0
6.603193019E0,6.539584160E0,-1.168893814E1,3.426522017E0
6.607948332E0,6.728617191E0,-1.181815147E1,2.957528830E0
6.612703592E0,6.896114826E0,-1.193779182E1,2.567498684E0
6.617458853E0,7.042077065E0,-1.205504036E1,2.325823545E0
6.622214165E0,7.104290485E0,-1.216271782E1,2.275574446E0
6.626969426E0,7.049255371E0,-1.223928738E1,2.316252232E0
6.631724686E0,6.924828529E0,-1.235414314E1,2.359323025E0
6.636479947E0,6.879364967E0,-1.249053383E1,2.344966173E0
6.641235259E0,6.817151546E0,-1.272024536E1,2.196611166E0
6.645990519E0,6.831508636E0,-1.301695538E1,1.883151412E0
6.650745780E0,7.034898758E0,-1.332323647E1,1.555334687E0
6.655501040E0,7.446464062E0,-1.361755371E1,1.275374413E0
6.660256353E0,7.891529083E0,-1.389033508E1,1.146162033E0
6.665011613E0,8.518448830E0,-1.408654690E1,1.172483087E0
6.669766874E0,9.020941734E0,-1.415115356E1,1.323230863E0
6.674522134E0,9.245866776E0,-1.400758362E1,1.421336651E0
6.679277447E0,9.255437851E0,-1.359601784E1,1.524227977E0
6.684032707E0,9.080761909E0,-1.292602825E1,1.512263894E0
6.688787967E0,8.879764557E0,-1.210289669E1,1.514656782E0
6.693543280E0,8.709874153E0,-1.121515942E1,1.591227055E0
6.698298540E0,8.650053978E0,-1.034895802E1,1.799402595E0
6.703053801E0,8.676374435E0,-9.580862045E0,2.275574446E0
6.707809061E0,8.693124771E0,-8.934800148E0,2.746960402E0
6.712564374E0,8.846264839E0,-8.475378036E0,2.775674343E0
6.717319634E0,9.054440498E0,-8.207381248E0,2.328216314E0
6.722074894E0,9.274580956E0,-8.140382767E0,2.048256159E0
6.726830155E0,9.456435204E0,-8.243273735E0,1.895115495E0
6.731585467E0,9.427721024E0,-8.508877754E0,1.797009826E0
6.736340728E0,9.145368576E0,-8.872586250E0,1.749153376E0
6.741095988E0,8.645268440E0,-9.365508080E0,1.787438512E0
6.745851249E0,8.066205025E0,-1.000917721E1,1.902294040E0
6.750606561E0,7.441678524E0,-1.078205872E1,2.005185366E0
6.755361822E0,6.936792850E0,-1.174875927E1,1.883151412E0
6.760117082E0,6.482156754E0,-1.268674564E1,1.471585870E0
6.764872342E0,6.106483459E0,-1.365105343E1,8.542376757E-1
6.769627655E0,5.862415314E0,-1.461057472E1,2.440679073E-1
6.774382915E0,5.577669621E0,-1.544088459E1,-3.804588020E-1
6.779138176E0,5.123033047E0,-1.626640892E1,-8.685946465E-1
6.783893488E0,4.453042984E0,-1.709193230E1,-1.107876897E0
6.788648749E0,3.821337700E0,-1.773560143E1,-1.062413216E0
6.793404009E0,3.328416348E0,-1.810888100E1,-9.547362328E-1
6.798159269E0,2.806781054E0,-1.828116417E1,-1.100698471E0
6.802914530E0,2.143969059E0,-1.812802505E1,-1.490728498E0
6.807669842E0,1.406979680E0,-1.766142464E1,-2.132004976E0
6.812425103E0,6.412764788E-1,-1.696750450E1,-2.964707375E0
6.817180363E0,-1.914258115E-2,-1.616351700E1,-3.747160196E0
6.821935624E0,-3.828516304E-1,-1.533320713E1,-3.950550079E0
6.826690936E0,-4.139583111E-1,-1.460578918E1,-3.610769272E0
6.831446197E0,-2.967100143E-1,-1.408415413E1,-2.976671457E0
6.836201457E0,-1.818545163E-1,-1.375633717E1,-2.364108801E0
6.840956717E0,-1.986042857E-1,-1.369651699E1,-1.732403636E0
6.845712030E0,-3.278166950E-1,-1.387119293E1,-1.249053478E0
6.850467290E0,-4.881358147E-1,-1.412004662E1,-8.135597110E-1
6.855222551E0,-6.197410822E-1,-1.437607861E1,-6.317051649E-1
6.859977811E0,-7.010970116E-1,-1.453161144E1,-4.450650215E-1
6.864733124E0,-8.494520187E-1,-1.454836178E1,-2.153540403E-1
6.869488384E0,-7.609176040E-1,-1.439522076E1,4.546362907E-2
6.874243644E0,-6.771687865E-1,-1.410568905E1,3.732803464E-1
6.878998905E0,-5.216353536E-1,-1.376590824E1,5.814558864E-1
6.883754165E0,-3.326023519E-1,-1.333041477E1,6.029912829E-1
6.888509478E0,-1.052841991E-1,-1.266042423E1,4.163511395E-1
6.893264738E0,2.057827413E-1,-1.191147137E1,2.057827413E-1
6.898019999E0,7.274180651E-1,-1.106201935E1,-3.589234129E-2
6.902775259E0,1.143769264E0,-1.009771156E1,-7.417750359E-2
6.907530572E0,1.655833244E0,-9.260223389E0,4.785645381E-2
6.912285832E0,1.950150490E0,-8.427521706E0,1.148554832E-1
6.917041092E0,2.189432621E0,-7.530212879E0,3.852444589E-1
6.921796353E0,2.404786825E0,-6.855436802E0,5.647061467E-1
6.926551665E0,2.639283419E0,-6.159125328E0,6.699903607E-1
6.931306926E0,2.761317253E0,-5.417350292E0,7.800601721E-1
6.936062186E0,2.902493954E0,-4.783252239E0,1.002592683E0
6.940817447E0,3.062813044E0,-4.235296249E0,1.150947690E0
6.945572759E0,3.294916868E0,-3.751945972E0,1.251446247E0
6.950328019E0,3.701696634E0,-3.409772158E0,1.272981644E0
6.955083280E0,4.039084435E0,-3.227917671E0,1.272981644E0
6.959838540E0,4.197010994E0,-3.201596737E0,1.287338614E0
6.964593801E0,4.608576298E0,-3.199203968E0,1.354337573E0
6.969349113E0,5.032105923E0,-3.280559778E0,1.502692580E0
6.974104374E0,5.448457241E0,-3.462414265E0,1.653440475E0
6.978859634E0,5.716453075E0,-3.677768469E0,1.682154298E0
6.983614894E0,5.962913990E0,-3.993621111E0,1.591227055E0
6.988370155E0,6.010770321E0,-4.419543266E0,1.409372568E0
6.993125467E0,5.891129494E0,-4.864608288E0,1.301695466E0
6.997880728E0,5.534598827E0,-5.376672268E0,1.229910851E0
7.002635988E0,5.020142078E0,-5.905486107E0,1.182054400E0
7.007391249E0,4.316651821E0,-6.415157318E0,1.136590719E0
7.012146509E0,3.613162279E0,-6.893722057E0,1.186840057E0
7.016901822E0,2.957528830E0,-7.245467186E0,1.320838094E0
7.021657082E0,2.347358942E0,-7.506284714E0,1.471585870E0
7.026412342E0,1.758724689E0,-7.647460938E0,1.519442320E0
7.031167603E0,1.165304661E0,-7.678567886E0,1.481157184E0
7.035922863E0,5.934200287E-1,-7.633104324E0,1.344766378E0
7.040678176E0,4.307080805E-2,-7.479963779E0,1.227517962E0
7.045433436E0,-4.570291340E-1,-7.252645493E0,1.105484009E0
7.050188697E0,-9.140582681E-1,-6.922435760E0,1.021735311E0
7.054943957E0,-1.184447169E0,-6.585047722E0,8.997012973E-1
7.059699269E0,-1.320838094E0,-6.147161484E0,8.518448472E-1
7.064454530E0,-1.296909928E0,-5.642275810E0,7.848458290E-1
7.069209790E0,-1.016949654E0,-4.943571568E0,8.255237937E-1
7.073965051E0,-6.891329288E-1,-4.316651821E0,8.733802438E-1
7.078720311E0,-3.876372576E-1,-3.708875179E0,8.039883971E-1
7.083475572E0,-1.507478207E-1,-3.141776085E0,7.872386575E-1
7.088230884E0,1.914258115E-2,-2.646461725E0,6.915257573E-1
7.092986144E0,3.996013701E-1,-2.091326952E0,6.891329288E-1
7.097741405E0,8.279166222E-1,-1.600798368E0,7.130611539E-1
7.102496665E0,1.184447169E0,-1.026520967E0,6.556333899E-1
7.107251926E0,1.634297848E0,-5.623133183E-1,6.197410822E-1
7.112007238E0,2.093719721E0,-1.914258152E-1,6.197410822E-1
7.116762499E0,2.600998163E0,4.067798331E-2,6.221339107E-1
7.121517759E0,3.156133175E0,1.674975902E-1,8.327022791E-1
7.126273019E0,3.775874138E0,2.943171859E-1,1.179661512E0
7.131028280E0,4.381258488E0,3.062812984E-1,1.689332843E0
7.135783592E0,4.871787071E0,2.679961324E-1,2.388036966E0
7.140538853E0,5.221138954E0,2.153540403E-1,3.247060299E0
7.145294113E0,5.398207664E0,6.221338734E-2,4.072584152E0
7.150049374E0,5.484349728E0,-1.100698411E-1,4.821537495E0
7.154804634E0,5.563312531E0,-3.062812984E-1,5.347958565E0
7.159559947E0,5.682953835E0,-5.742774606E-1,5.721239090E0
7.164315207E0,5.917450428E0,-8.063812256E-1,5.867201328E0
7.169070467E0,6.264409542E0,-1.079162955E0,5.912664890E0
7.173825728E0,6.771687984E0,-1.332802176E0,5.876772404E0
7.178580988E0,7.288537979E0,-1.586441398E0,5.778666496E0
7.183336249E0,7.750352383E0,-1.820937991E0,5.659025669E0
7.188091561E0,8.047062874E0,-2.045863390E0,5.575276852E0
7.192846822E0,8.317451477E0,-2.277967215E0,5.558526993E0
7.197602082E0,8.683553696E0,-2.469393015E0,5.216353416E0
7.202357342E0,9.135796547E0,-2.646461725E0,4.390829563E0
7.207112603E0,9.635896683E0,-2.847458839E0,3.433700562E0
7.211867863E0,1.011446095E1,-3.079562664E0,2.904886723E0
7.216623176E0,1.068395329E1,-3.306880951E0,2.742174864E0
7.221378436E0,1.149272728E1,-3.610769272E0,2.600998163E0
7.226133697E0,1.269870949E1,-3.871587038E0,2.404786825E0
7.230888957E0,1.403629780E1,-4.101297855E0,2.878565550E0
7.235644217E0,1.517528152E1,-4.287938118E0,4.797609329E0
7.240399530E0,1.596491241E1,-4.627718925E0,7.566105366E0
7.245154790E0,1.698904037E1,-5.295316696E0,9.047262192E0
7.249910051E0,1.855155373E1,-6.317051888E0,7.508677483E0
7.254665311E0,2.003031921E1,-7.549355507E0,2.701496840E0
7.259420572E0,2.076970100E1,-8.985049248E0,-2.806781054E0
7.264175832E0,1.849173355E1,-1.102373409E1,-6.242874146E0
7.268931092E0,1.345244884E1,-1.281835079E1,-6.860222340E0
7.273686405E0,9.810572624E0,-1.411526108E1,-4.309473515E0
7.278441665E0,7.542177200E0,-1.503649712E1,7.465606928E-1
7.283196926E0,5.895915031E0,-1.559641838E1,5.359922886E0
7.287952186E0,4.417150497E0,-1.570409489E1,7.166503906E0
7.292707447E0,3.125026464E0,-1.541934872E1,6.714260101E0
7.297462707E0,2.019542217E0,-1.484985733E1,5.257031441E0
7.302218019E0,1.184447169E0,-1.402433395E1,3.668197155E0
7.306973280E0,4.354937077E-1,-1.292842102E1,2.088934183E0
7.311728540E0,-2.392822690E-2,-1.169372463E1,9.379864931E-1
7.316483801E0,-4.785645287E-3,-1.055474091E1,6.556333899E-1
7.321239061E0,4.546363056E-1,-9.645467758E0,8.901300430E-1
7.325994322E0,1.062413216E0,-8.946763992E0,1.174875975E0
7.330749634E0,1.612762451E0,-8.338987350E0,1.485942841E0
7.335504894E0,2.060220242E0,-7.767102242E0,1.871187329E0
7.340260155E0,2.431107759E0,-7.223931789E0,2.397608280E0
7.345015415E0,2.720639229E0,-6.707081795E0,2.859423161E0
7.349770676E0,3.041277647E0,-6.345765591E0,3.196810961E0
7.354525936E0,3.448057413E0,-6.183053493E0,3.321237803E0
7.359281249E0,3.838087559E0,-6.333801746E0,3.340380430E0
7.364036509E0,4.134797573E0,-6.656832695E0,3.170490026E0
7.368791769E0,4.335794449E0,-7.118647575E0,2.892922640E0
7.373547030E0,4.529613495E0,-7.630711555E0,2.639283419E0
7.378302290E0,4.646861553E0,-8.219346046E0,2.450250387E0
7.383057551E0,4.740181446E0,-8.805587769E0,2.311466694E0
7.387812811E0,4.733003139E0,-9.394221306E0,2.306680918E0
7.392568124E0,4.680361271E0,-9.978070259E0,2.411965132E0
7.397323384E0,4.474578381E0,-1.046620655E1,2.608176708E0
7.402078644E0,4.268795490E0,-1.089930725E1,2.828316450E0
7.406833905E0,4.108476639E0,-1.128215885E1,3.062813044E0
7.411589165E0,3.914657831E0,-1.155972576E1,3.220739365E0
7.416344426E0,3.802195072E0,-1.172004509E1,3.302095175E0
7.421099686E0,3.749552965E0,-1.181097221E1,3.266202927E0
7.425854999E0,3.768695593E0,-1.176072311E1,3.182454109E0
7.430610259E0,3.792623997E0,-1.163868904E1,3.072384357E0
7.435365519E0,3.912265062E0,-1.137787151E1,2.945564747E0
7.440120780E0,4.074976921E0,-1.097348499E1,2.811566591E0
7.444876040E0,4.256831646E0,-1.053081226E1,2.696711063E0
7.449631301E0,4.376472473E0,-1.008814049E1,2.541177750E0
7.454386561E0,4.398007870E0,-9.571290970E0,2.383251429E0
7.459141822E0,4.441078663E0,-9.138189316E0,2.189432621E0
7.463897134E0,4.462614059E0,-8.733802795E0,2.060220242E0
7.468652394E0,4.429114819E0,-8.377271652E0,1.940579176E0
7.473407655E0,4.414757729E0,-8.059026718E0,1.852044702E0
7.478162915E0,4.395615101E0,-7.807780266E0,1.773081541E0
7.482918176E0,4.316651821E0,-7.633104324E0,1.674975872E0
7.487673436E0,4.240081787E0,-7.479963779E0,1.533799291E0
7.492428697E0,4.151547432E0,-7.393822193E0,1.409372568E0
7.497184009E0,4.053441525E0,-7.355536938E0,1.311266780E0
7.501939269E0,4.043870449E0,-7.374679565E0,1.222732425E0
7.506694530E0,4.010370731E0,-7.439285755E0,1.174875975E0
7.511449790E0,3.972085476E0,-7.475177765E0,1.119840980E0
7.516205051E0,3.962514400E0,-7.537391186E0,1.110269666E0
7.520960311E0,3.984049797E0,-7.601997375E0,1.095912814E0
7.525715572E0,4.000799656E0,-7.680960655E0,1.093519926E0
7.530470832E0,4.074976921E0,-7.771887779E0,1.122233868E0
7.535226092E0,4.177868366E0,-7.855636597E0,1.124626637E0
7.539981405E0,4.345366001E0,-7.948956966E0,1.182054400E0
7.544736665E0,4.555934429E0,-7.984848976E0,1.232303619E0
7.549491926E0,4.811966419E0,-8.063812256E0,1.296909928E0
7.554247186E0,4.993820667E0,-8.070990562E0,1.359123230E0
7.559002447E0,5.154139996E0,-8.075776100E0,1.356730461E0
7.563757707E0,5.230710506E0,-8.011170387E0,1.339980721E0
7.568512967E0,5.290530682E0,-7.944170952E0,1.301695466E0
7.573268228E0,5.309673309E0,-7.932207108E0,1.282552958E0
7.578023488E0,5.283352375E0,-7.822137356E0,1.261017561E0
7.582778749E0,5.249852657E0,-7.683353424E0,1.241874933E0
7.587534061E0,5.230710506E0,-7.544569969E0,1.229910851E0
7.592289322E0,5.204389095E0,-7.379465103E0,1.215553880E0
7.597044582E0,5.206781864E0,-7.161718369E0,1.179661512E0
7.601799842E0,5.276174068E0,-6.965506554E0,1.124626637E0
7.606555103E0,5.359922886E0,-6.793223381E0,1.112662554E0
7.611310363E0,5.393422127E0,-6.644868374E0,1.136590719E0
7.616065624E0,5.400600910E0,-6.515655994E0,1.153340459E0
7.620820884E0,5.393422127E0,-6.405586243E0,1.155733347E0
7.625576144E0,5.414957523E0,-6.288337708E0,1.198804140E0
7.630331457E0,5.469992638E0,-6.245266914E0,1.411765337E0
7.635086717E0,5.501099110E0,-6.206982136E0,1.837687731E0
7.639841978E0,5.376672268E0,-6.273981094E0,2.452643156E0
7.644597238E0,5.120640278E0,-6.350551128E0,2.938386202E0
7.649352499E0,5.285745144E0,-6.618547440E0,3.256631613E0
7.654107759E0,5.697310925E0,-6.802794933E0,3.804588079E0
7.658863019E0,6.312266350E0,-7.207181931E0,5.316852093E0
7.663618280E0,6.352943897E0,-7.235895634E0,5.541777134E0
7.668373540E0,6.544369698E0,-7.135396957E0,5.603990555E0
7.673128801E0,6.561119556E0,-7.204789162E0,5.843272686E0
7.677884113E0,6.384050846E0,-7.357929707E0,5.836094379E0
7.682639374E0,6.084948063E0,-7.458428383E0,5.907878876E0
7.687394634E0,6.111268997E0,-7.561319351E0,5.773880959E0
7.692149894E0,5.726024628E0,-7.633104324E0,5.450850010E0
7.696905155E0,5.546562672E0,-7.563712597E0,5.271388054E0
7.701660415E0,5.446064472E0,-7.511070251E0,5.245067120E0
7.706415676E0,5.111069202E0,-7.489534855E0,5.398207664E0
7.711170936E0,4.752145767E0,-7.515855789E0,5.218746185E0
7.715926197E0,4.512863636E0,-7.544569969E0,4.855037212E0
7.720681457E0,4.254438877E0,-7.623532772E0,4.412364960E0
7.725436717E0,3.869194269E0,-7.685746193E0,4.130012035E0
7.730192030E0,3.527020693E0,-7.738388538E0,3.929014683E0
7.734947290E0,3.058027267E0,-7.721638680E0,3.553341627E0
7.739702551E0,2.593819857E0,-7.774280548E0,2.868994236E0
7.744457811E0,2.187039852E0,-7.925028801E0,2.074577332E0
7.749213072E0,1.866401672E0,-8.164310455E0,1.081555843E0
7.753968332E0,1.689332843E0,-8.461020470E0,-1.363908947E-1
7.758723592E0,1.205982566E0,-8.784051895E0,-1.911865234E0
7.763478853E0,1.674975902E-1,-9.207581520E0,-6.721438885E0
7.768234113E0,-6.891329288E-1,-9.834501266E0,-9.195617676E0
7.772989374E0,-6.843472719E-1,-1.056670475E1,-1.028913784E1
7.777744634E0,-9.571290761E-2,-1.126301575E1,-9.985248566E0
7.782499894E0,8.063812256E-1,-1.174397373E1,-7.130611420E0
7.787255155E0,1.335195065E0,-1.184925747E1,-2.945564747E0
7.792010415E0,1.409372568E0,-1.184207916E1,-8.542376757E-1
7.796765676E0,1.253839016E0,-1.163390350E1,2.055434704E0
7.801520988E0,9.690931439E-1,-1.143290615E1,4.067798615E0
7.806276249E0,8.135597110E-1,-1.123908806E1,4.831109047E0
7.811031509E0,5.790630579E-1,-1.106201935E1,4.771288395E0
7.815786769E0,3.158525825E-1,-1.086580753E1,4.024727821E0
7.820542030E0,1.268195957E-1,-1.074855900E1,2.555534601E0
7.825297290E0,1.531406492E-1,-1.074616623E1,8.063812256E-1
7.830052551E0,4.522434771E-1,-1.083230782E1,-5.383850932E-1
7.834807811E0,8.757730722E-1,-1.088495064E1,-7.848458290E-1
7.839563072E0,1.342373490E0,-1.089212894E1,1.507478207E-1
7.844318332E0,1.679761529E0,-1.096152020E1,1.548156261E0
7.849073592E0,1.998006940E0,-1.115055370E1,2.770888567E0
7.853828853E0,2.335394859E0,-1.137069321E1,3.519842148E0
7.858584113E0,2.679961443E0,-1.173440266E1,3.696911097E0
7.863339374E0,2.888136864E0,-1.220100307E1,3.450450182E0
7.868094634E0,2.921636343E0,-1.285185051E1,2.955136061E0
7.872849947E0,2.945564747E0,-1.356969738E1,2.388036966E0
7.877605207E0,3.074777126E0,-1.430190086E1,1.830509305E0
7.882360467E0,3.287738323E0,-1.485464287E1,1.447657704E0
7.887115728E0,3.524627686E0,-1.523270893E1,1.316052437E0
7.891870988E0,3.754338741E0,-1.537388515E1,1.397408366E0
7.896626249E0,4.017549038E0,-1.529252911E1,1.689332843E0
7.901381509E0,4.378865242E0,-1.500778389E1,2.048256159E0
7.906136769E0,4.785645485E0,-1.461057472E1,2.356930256E0
7.910892030E0,5.139782906E0,-1.415833187E1,2.565105915E0
7.915647290E0,5.553741455E0,-1.387119293E1,2.639283419E0
7.920402551E0,5.965306759E0,-1.371565914E1,2.603390932E0
7.925157811E0,6.407979012E0,-1.365105343E1,2.483749866E0
7.929913072E0,6.970292568E0,-1.359601784E1,2.361716032E0
7.934668332E0,7.661818027E0,-1.339023590E1,2.321038008E0
7.939423592E0,8.415556908E0,-1.309113312E1,2.316252232E0
7.944178853E0,9.195617676E0,-1.263171101E1,2.373680115E0
7.948934113E0,9.915857315E0,-1.204546928E1,2.467000246E0
7.953689374E0,1.055234814E1,-1.144965649E1,2.517249346E0
7.958444634E0,1.109312534E1,-1.088734341E1,2.467000246E0
7.963199894E0,1.162911797E1,-1.037767220E1,2.237289190E0
7.967955155E0,1.206700420E1,-1.002114105E1,1.835294962E0
7.972710467E0,1.237567902E1,-9.702896118E0,1.320838094E0
7.977465728E0,1.244028473E1,-9.499505997E0,8.255237937E-1
7.982220988E0,1.220100307E1,-9.396614075E0,4.546363056E-1
7.986976249E0,1.172004509E1,-9.351150513E0,2.608176768E-1
7.991731509E0,1.120798111E1,-9.348757744E0,2.440679073E-1
7.996486769E0,1.075334454E1,-9.372686386E0,4.331009090E-1
8.001242030E0,1.029153061E1,-9.384650230E0,7.800601721E-1
8.005997290E0,9.717252731E0,-9.312865257E0,1.143769264E0
8.010752551E0,9.090332985E0,-9.150154114E0,1.502692580E0
8.015507811E0,8.453842163E0,-8.975478172E0,1.789831281E0
8.020263072E0,7.901100159E0,-8.784051895E0,2.005185366E0
8.025018332E0,7.434499741E0,-8.650053978E0,2.206182480E0
8.029773592E0,7.018148899E0,-8.587840080E0,2.421536446E0
8.034528853E0,6.647261143E0,-8.635697365E0,2.629712105E0
8.039284113E0,6.314659119E0,-8.784051895E0,2.813959360E0
8.044039374E0,6.027520180E0,-9.037691116E0,2.892922640E0
8.048794634E0,5.788238049E0,-9.394221306E0,2.943171740E0
8.053549894E0,5.572884083E0,-9.791430473E0,3.050848961E0
8.058305155E0,5.343173027E0,-1.021017456E1,3.105883837E0
8.063060415E0,5.089533806E0,-1.073898792E1,2.971885681E0
8.067815676E0,4.795216560E0,-1.129890823E1,2.567498684E0
8.072570936E0,4.453042984E0,-1.176072311E1,2.043470621E0
8.077326197E0,4.065405846E0,-1.216750336E1,1.502692580E0
8.082081457E0,3.629911900E0,-1.251446247E1,1.071984529E0
8.086836717E0,3.170490026E0,-1.280399418E1,8.853443861E-1
8.091591978E0,2.730210543E0,-1.299781227E1,8.231309652E-1
8.096347238E0,2.376072884E0,-1.306481171E1,8.422735929E-1
8.101102499E0,2.057827473E0,-1.299541950E1,8.901300430E-1
8.105857759E0,1.696511269E0,-1.281835079E1,8.997012973E-1
8.110613019E0,1.332802176E0,-1.255514050E1,8.709874153E-1
8.115368280E0,9.882357717E-1,-1.219382381E1,8.494520187E-1
8.120123540E0,6.077769399E-1,-1.172243786E1,8.590233326E-1
8.124878801E0,3.493520916E-1,-1.125344467E1,8.494520187E-1
8.129634061E0,2.009970993E-1,-1.077009487E1,8.973084688E-1
8.134389322E0,2.201396823E-1,-1.027717304E1,9.332008362E-1
8.139144582E0,5.455635786E-1,-9.789037704E0,6.412764788E-1
8.143899842E0,1.064806104E0,-9.343972206E0,6.939185411E-2
8.148655103E0,1.409372568E0,-9.202795982E0,-9.571290761E-2
8.153410363E0,1.708475351E0,-9.358329773E0,1.028913707E-1
8.158165624E0,2.067398787E0,-9.595218658E0,4.570291340E-1
8.162920884E0,2.189432621E0,-9.920642853E0,7.872386575E-1
8.167676144E0,2.270788670E0,-1.018385315E1,9.571290612E-1
8.172431405E0,2.230110645E0,-1.046381378E1,9.044869542E-1
8.177186665E0,2.373680115E0,-1.076530933E1,6.771687865E-1
8.181941926E0,2.598605394E0,-1.082991505E1,2.847459018E-1
8.186697186E0,2.797209740E0,-1.085623646E1,-3.038884699E-1
8.191452447E0,3.081955671E0,-1.074855900E1,-7.417750359E-1
8.196207707E0,3.359523058E0,-1.060977554E1,-7.585247755E-1
8.200962967E0,3.692125320E0,-1.045902824E1,-2.129612118E-1
8.205718228E0,4.082155228E0,-1.033938694E1,4.474578202E-1
8.210473488E0,4.331008911E0,-1.022453117E1,9.667003751E-1
8.215228749E0,4.622933388E0,-1.011685371E1,1.246660590E0
8.219984009E0,4.800002098E0,-9.970891953E0,1.308874011E0
8.224739269E0,4.783252239E0,-9.731609344E0,1.194018483E0
8.229494530E0,4.496113777E0,-9.499505997E0,1.215553880E0
8.234249790E0,3.957728624E0,-9.329615593E0,1.454836130E0
8.239005051E0,3.349951744E0,-9.205188751E0,1.794616938E0
8.243760311E0,2.720639229E0,-9.123832703E0,2.277967215E0
8.248515572E0,2.280359983E0,-8.987442017E0,2.849851847E0
8.253270832E0,2.057827473E0,-8.793622971E0,3.270988464E0
8.258026092E0,2.038684845E0,-8.671588898E0,3.462414265E0
8.262781353E0,2.249253273E0,-8.501698494E0,3.414557934E0
8.267536613E0,2.569891453E0,-8.338987350E0,3.043670416E0
8.272291874E0,3.055634499E0,-8.231309891E0,2.512463808E0
8.277047134E0,3.639483213E0,-8.154739380E0,1.969292998E0
8.281802394E0,4.091726780E0,-8.142775536E0,1.478764415E0
8.286557655E0,4.534399033E0,-8.193024635E0,1.275374413E0
8.291312915E0,4.874179840E0,-8.245666504E0,1.318445325E0
8.296068176E0,5.178068161E0,-8.305487633E0,1.304088354E0
8.300823436E0,5.355136871E0,-8.441878319E0,1.189232826E0
8.305578697E0,5.467599869E0,-8.616554260E0,1.045663476E0
8.310333957E0,5.570491314E0,-8.819944382E0,9.308080077E-1
8.315089217E0,5.635097504E0,-8.956335068E0,8.231309652E-1
8.319844478E0,5.711667538E0,-9.154939651E0,8.327022791E-1
8.324599738E0,5.761917114E0,-9.245866776E0,9.332008362E-1
8.329354999E0,5.771488190E0,-9.200403214E0,1.043270707E0
8.334110259E0,5.709274769E0,-9.114261627E0,1.184447169E0
8.338865519E0,5.553741455E0,-8.906085968E0,1.287338614E0
8.343620780E0,5.276174068E0,-8.597412109E0,1.366301775E0
8.348376040E0,4.876572609E0,-8.190631866E0,1.385444283E0
8.353131301E0,4.510470867E0,-7.755138397E0,1.387837172E0
8.357886561E0,4.065405846E0,-7.207181931E0,1.306481123E0
8.362641822E0,3.718446493E0,-6.654439926E0,1.263410330E0
8.367397082E0,3.282952785E0,-6.058627129E0,1.205982566E0
8.372152342E0,2.842673302E0,-5.465207100E0,1.095912814E0
8.376907603E0,2.390429735E0,-4.953142643E0,1.040877819E0
8.381662863E0,1.890329838E0,-4.476971149E0,9.332008362E-1
8.386418124E0,1.378265858E0,-4.074976921E0,8.135597110E-1
8.391173384E0,9.810572863E-1,-3.845266104E0,7.058826685E-1
8.395928644E0,7.824530005E-1,-3.665804386E0,6.747759581E-1
8.400683905E0,7.034898400E-1,-3.555734396E0,7.034898400E-1
8.405439165E0,7.465606928E-1,-3.471985579E0,8.422735929E-1
8.410194426E0,8.446664214E-1,-3.400201082E0,9.236295223E-1
8.414949686E0,9.044869542E-1,-3.345165968E0,9.786644578E-1
8.419704947E0,9.667003751E-1,-3.333201885E0,1.282552958E0
8.424460207E0,1.016949654E0,-3.326023579E0,1.481157184E0
8.429215415E0,1.060020447E0,-3.263810158E0,1.593619823E0
8.433970676E0,1.205982566E0,-3.309273720E0,1.799402595E0
8.438725936E0,1.392622828E0,-3.349951744E0,2.038684845E0
8.443481197E0,1.569691658E0,-3.321237803E0,2.213361025E0
8.448236457E0,1.947757602E0,-3.369094372E0,2.411965132E0
8.452991717E0,2.333002090E0,-3.316452265E0,2.624926329E0
8.457746978E0,2.703889608E0,-3.125026464E0,2.780459881E0
8.462502238E0,3.192025423E0,-3.065205812E0,2.964707375E0
8.467257499E0,3.625126362E0,-2.926422119E0,3.249453068E0
8.472012759E0,3.969692707E0,-2.797209740E0,3.634697676E0
8.476768019E0,4.311866283E0,-2.699103832E0,3.996013880E0
8.481523280E0,4.577469826E0,-2.443071842E0,4.120440483E0
8.486278540E0,4.785645485E0,-2.268395901E0,4.185046673E0
8.491033801E0,4.929214478E0,-2.031506538E0,4.237689018E0
8.495789061E0,5.089533806E0,-1.787438512E0,4.421936035E0
8.500544322E0,5.295316696E0,-1.667797327E0,4.680361271E0
8.505299582E0,5.393422127E0,-1.521835208E0,4.843072891E0
8.510054842E0,5.431707382E0,-1.397408366E0,4.931607246E0
8.514810103E0,5.505885124E0,-1.363908887E0,4.948357105E0
8.519565363E0,5.639883041E0,-1.363908887E0,5.017749310E0
8.524320624E0,5.764309883E0,-1.378265858E0,5.015356064E0
8.529075832E0,5.917450428E0,-1.466800332E0,4.931607246E0
8.533831092E0,6.082555294E0,-1.586441398E0,4.821537495E0
8.538586353E0,6.175875187E0,-1.727617979E0,4.615755081E0
8.543341613E0,6.384050846E0,-1.907079697E0,4.381258488E0
8.548096874E0,6.549155712E0,-2.139183521E0,4.149154663E0
8.552852134E0,6.599404812E0,-2.440679073E0,3.924229145E0
8.557607394E0,6.604190350E0,-2.651247501E0,3.775874138E0
8.562362655E0,6.534798622E0,-2.919243574E0,3.632304668E0
8.567117915E0,6.436692715E0,-3.139383316E0,3.460021496E0
8.571873176E0,6.293123722E0,-3.333201885E0,3.232703447E0
8.576628436E0,6.271588326E0,-3.505485058E0,2.804388046E0
8.581383697E0,6.479763508E0,-3.615555048E0,1.813759565E0
8.586138957E0,7.044469833E0,-3.651447296E0,3.852444589E-1
8.590894217E0,8.023134232E0,-3.756731510E0,-9.499505758E-1
8.595649478E0,9.408578873E0,-3.976871252E0,-2.048256159E0
8.600404738E0,1.155733299E1,-4.295116425E0,-7.728816867E-1
8.605159999E0,1.393340588E1,-4.890929699E0,5.245067120E0
8.609915259E0,1.556770420E1,-6.022734642E0,1.293081379E1
8.614670467E0,1.742453384E1,-7.582854748E0,1.745803452E1
8.619425728E0,1.903969002E1,-9.176474571E0,1.589312840E1
8.624180988E0,2.139901352E1,-1.007617569E1,5.596812248E0
8.628936249E0,2.457668114E1,-1.050209904E1,-6.259624004E0
8.633691509E0,2.542374039E1,-1.140180016E1,-9.427721024E0
8.638446769E0,2.256192398E1,-1.276810169E1,-5.795416355E0
8.643202030E0,1.705843353E1,-1.425643730E1,-1.198804140E0
8.647957290E0,1.267238903E1,-1.533559990E1,2.426322222E0
8.652712551E0,9.595218658E0,-1.596730518E1,4.773681164E0
8.657467811E0,7.085147858E0,-1.605344772E1,5.429314613E0
8.662223072E0,5.053641319E0,-1.553659725E1,5.087141037E0
8.666978332E0,3.527020693E0,-1.448375511E1,5.005784988E0
8.671733592E0,2.122433662E0,-1.309352589E1,4.828716278E0
8.676488853E0,8.614161611E-1,-1.141854954E1,4.433900356E0
8.681244113E0,-1.794617027E-1,-9.731609344E0,3.728017569E0
8.685999322E0,-7.896314859E-1,-8.379665375E0,2.845066071E0
8.690754582E0,-1.048056364E0,-7.439285755E0,2.057827473E0
8.695509842E0,-6.915257573E-1,-6.943971157E0,1.588834286E0
8.700265103E0,-5.024927482E-2,-6.642475605E0,1.287338614E0
8.705020363E0,9.355936646E-1,-6.479763508E0,1.363908887E0
8.709775624E0,2.359323025E0,-6.410371780E0,1.921436548E0
8.714530884E0,3.929014683E0,-6.345765591E0,2.734996319E0
8.719286144E0,5.290530682E0,-6.352943897E0,3.385843992E0
8.724041405E0,6.412764549E0,-6.489335060E0,3.668197155E0
8.728796665E0,7.133004189E0,-6.740581512E0,3.565305710E0
8.733551926E0,7.479963779E0,-7.109076023E0,3.072384357E0
8.738307186E0,7.539783955E0,-7.534998417E0,2.342573404E0
8.743062447E0,7.178467751E0,-8.030312538E0,1.710868239E0
8.747817707E0,6.496513367E0,-8.556734085E0,1.567298889E0
8.752572915E0,5.871986866E0,-9.047262192E0,1.904686809E0
8.757328176E0,5.307280540E0,-9.420542717E0,2.361716032E0
8.762083436E0,4.864608288E0,-9.693324089E0,2.734996319E0
8.766838697E0,4.505684853E0,-9.812965393E0,3.069991350E0
8.771593957E0,4.225724697E0,-9.796216011E0,3.361915827E0
8.776349217E0,4.017549038E0,-9.707681656E0,3.570091486E0
8.781104478E0,3.888336897E0,-9.566504478E0,3.692125320E0
8.785859738E0,3.754338741E0,-9.406186104E0,3.716053486E0
8.790614999E0,3.663411379E0,-9.212367058E0,3.632304668E0
8.795370259E0,3.531806231E0,-9.042476654E0,3.416950703E0
8.800125519E0,3.438486099E0,-8.898907661E0,3.134597778E0
8.804880728E0,3.371487141E0,-8.772088051E0,2.768495798E0
8.809635988E0,3.311666489E0,-8.690732002E0,2.354537487E0
8.814391249E0,3.251846075E0,-8.583054543E0,1.986042738E0
8.819146509E0,3.148954630E0,-8.513663292E0,1.677368641E0
8.823901769E0,3.050848961E0,-8.429914474E0,1.438086390E0
8.828657030E0,3.062813044E0,-8.348558426E0,1.316052437E0
8.833412290E0,3.043670416E0,-8.257631302E0,1.323230863E0
8.838167551E0,3.048455954E0,-8.173882484E0,1.390229940E0
8.842922811E0,3.091526747E0,-8.073383331E0,1.488335729E0
8.847678072E0,3.089133978E0,-7.941778183E0,1.612762451E0
8.852433332E0,3.086741209E0,-7.855636597E0,1.720439434E0
8.857188540E0,3.117847919E0,-7.858029366E0,1.782652855E0
8.861943801E0,3.192025423E0,-7.901100159E0,1.799402595E0
8.866699061E0,3.302095175E0,-7.975277901E0,1.775474429E0
8.871454322E0,3.409772158E0,-8.080561638E0,1.794616938E0
8.876209582E0,3.519842148E0,-8.224131584E0,1.768295884E0
8.880964842E0,3.620340586E0,-8.350951195E0,1.713261008E0
8.885720103E0,3.670589924E0,-8.501698494E0,1.605584025E0
8.890475363E0,3.687339783E0,-8.712266922E0,1.543370605E0
8.895230624E0,3.708875179E0,-8.853444099E0,1.462014675E0
8.899985884E0,3.751945972E0,-8.956335068E0,1.366301775E0
8.904741144E0,3.723232031E0,-9.111868858E0,1.277767301E0
8.909496353E0,3.689732552E0,-9.243474007E0,1.179661512E0
8.914251613E0,3.644268990E0,-9.418149948E0,1.105484009E0
8.919006874E0,3.586841106E0,-9.528220177E0,1.048056364E0
8.923762134E0,3.589233875E0,-9.611968994E0,9.978070259E-1
8.928517394E0,3.517449379E0,-9.659825325E0,9.499505758E-1
8.933272655E0,3.464807272E0,-9.674181938E0,9.547362328E-1
8.938027915E0,3.407379389E0,-9.616754532E0,9.547362328E-1
8.942783176E0,3.424129248E0,-9.530612946E0,9.547362328E-1
8.947538384E0,3.402593851E0,-9.430113792E0,9.451649189E-1
8.952293644E0,3.426522017E0,-9.300901413E0,9.714859724E-1
8.957048905E0,3.474378586E0,-9.109476089E0,9.810572863E-1
8.961804165E0,3.541377544E0,-8.889336586E0,9.978070259E-1
8.966559426E0,3.586841106E0,-8.578269005E0,9.978070259E-1
8.971314686E0,3.653840065E0,-8.379665375E0,1.033699393E0
8.976069947E0,3.704089403E0,-8.128418922E0,1.033699393E0
8.980825207E0,3.802195072E0,-7.903493404E0,1.057627559E0
8.985580467E0,3.878765583E0,-7.685746193E0,1.081555843E0
8.990335676E0,3.914657831E0,-7.463213921E0,1.091127157E0
8.995090936E0,3.924229145E0,-7.188039303E0,1.064806104E0
8.999846197E0,3.948157310E0,-6.967899323E0,1.009771109E0
9.004601457E0,3.931407690E0,-6.769295216E0,9.738788009E-1
9.009356717E0,3.902693748E0,-6.606583118E0,9.451649189E-1
9.014111978E0,3.864408493E0,-6.405586243E0,8.997012973E-1
9.018867238E0,3.864408493E0,-6.297909260E0,8.422735929E-1
9.023622499E0,3.840480328E0,-6.214160442E0,7.896314859E-1
9.028377759E0,3.871587038E0,-6.218945980E0,7.465606928E-1
9.033132967E0,3.888336897E0,-6.161518097E0,6.843472719E-1
9.037888228E0,3.948157310E0,-6.269195557E0,6.532405615E-1
9.042643488E0,4.041477680E0,-6.396014690E0,5.982056856E-1
9.047398749E0,4.094119549E0,-6.532405853E0,5.383850932E-1
9.052154009E0,4.266402721E0,-6.759724140E0,4.953143001E-1
9.056909269E0,4.431507587E0,-6.967899323E0,4.881358147E-1
9.061664530E0,4.675575256E0,-7.257431030E0,5.000999570E-1
9.066419790E0,4.888536453E0,-7.501499176E0,6.269195080E-1
9.071174999E0,5.242674351E0,-7.786244869E0,8.733802438E-1
9.075930259E0,5.726024628E0,-8.147561073E0,1.213161111E0
9.080685519E0,6.058627129E0,-8.439485550E0,1.473978758E0
9.085440780E0,6.431907177E0,-8.714659691E0,1.660618901E0
9.090196040E0,6.668796539E0,-8.918049812E0,1.856830359E0
9.094951301E0,6.747759819E0,-9.181260109E0,2.153540373E0
9.099706561E0,6.587440968E0,-9.379864693E0,2.349751949E0
9.104461822E0,6.393621922E0,-9.571290970E0,2.567498684E0
9.109217030E0,6.238088608E0,-9.753145218E0,2.713460922E0
9.113972290E0,6.135197163E0,-9.887143135E0,2.811566591E0
9.118727551E0,5.922235966E0,-9.896714211E0,2.892922640E0
9.123482811E0,5.649454117E0,-9.762716293E0,2.957528830E0
9.128238072E0,5.448457241E0,-9.635896683E0,2.986242771E0
9.132993332E0,5.259424210E0,-9.511469841E0,2.993421078E0
9.137748592E0,5.111069202E0,-9.348757744E0,2.959921598E0
9.142503853E0,4.991427898E0,-9.217152596E0,2.866601467E0
9.147259061E0,4.843072891E0,-8.982656479E0,2.766103029E0
9.152014322E0,4.668396950E0,-8.788837433E0,2.737389088E0
9.156769582E0,4.541577339E0,-8.616554260E0,2.689532757E0
9.161524842E0,4.342973232E0,-8.437092781E0,2.584248543E0
9.166280103E0,4.000799656E0,-8.286344528E0,2.510071039E0
9.171035363E0,3.663411379E0,-8.181060791E0,2.464607239E0
9.175790624E0,3.395415306E0,-8.102097511E0,2.464607239E0
9.180545884E0,3.132204771E0,-8.035098076E0,2.443071842E0
9.185301092E0,2.818745136E0,-8.008777618E0,2.457428932E0
9.190056353E0,2.543570518E0,-8.011170387E0,2.392822742E0
9.194811613E0,2.337787628E0,-8.018348694E0,2.364108801E0
9.199566874E0,2.148754835E0,-8.059026718E0,2.287538528E0
9.204322134E0,2.009970903E0,-8.169096947E0,2.206182480E0
9.209077394E0,1.875972986E0,-8.307880402E0,2.081755638E0
9.213832655E0,1.643869162E0,-8.451449394E0,2.084148407E0
9.218587915E0,1.414158225E0,-8.690732002E0,2.086541414E0
9.223343124E0,1.119840980E0,-8.965906143E0,2.189432621E0
9.228098384E0,8.422735929E-1,-9.255437851E0,2.402393818E0
9.232853644E0,5.024927258E-1,-9.542576790E0,2.600998163E0
9.237608905E0,1.052841991E-1,-9.690931320E0,2.871387243E0
9.242364165E0,1.435693540E-2,-9.841679573E0,3.132204771E0
9.247119426E0,-3.062812984E-1,-9.949356079E0,3.373879910E0
9.251874634E0,-6.364908218E-1,-1.004506969E1,3.462414265E0
9.256629894E0,-7.968099117E-1,-1.014317513E1,3.373879910E0
9.261385155E0,-9.020941257E-1,-1.007856941E1,3.113062143E0
9.266140415E0,-8.733802438E-1,-9.968499184E0,2.883351326E0
9.270895676E0,-9.810572863E-1,-9.812965393E0,2.543570518E0
9.275650936E0,-1.146162033E0,-9.616754532E0,2.287538528E0
9.280406197E0,-1.607976794E0,-9.410971642E0,1.887937069E0
9.285161405E0,-2.062613010E0,-9.315258980E0,1.643869162E0
9.289916665E0,-2.847458839E0,-9.310472488E0,-7.992027402E-1
9.294671926E0,-4.594219685E0,-9.688538551E0,-1.556052589E1
9.299427186E0,-3.969692707E0,-1.056909752E1,-2.125544357E1
9.304182447E0,-3.318845034E0,-1.030827999E1,-6.649653912E0
9.308937707E0,-2.574677229E0,-1.025085258E1,8.231309652E-1
9.313692967E0,-2.656033039E0,-1.014317513E1,4.125226021E0
9.318448176E0,-2.624926329E0,-9.973284721E0,6.520441532E0
9.323203436E0,-1.619940877E0,-9.894321442E0,6.967899323E0
9.327958697E0,5.503492057E-2,-9.889535904E0,6.240481377E0
9.332713957E0,2.045863390E0,-9.990034103E0,4.287938118E0
9.337469217E0,4.151547432E0,-1.023170948E1,1.505085468E0
9.342224478E0,5.711667538E0,-1.050209904E1,-9.092726111E-1
9.346979738E0,6.118447304E0,-1.071984577E1,-1.399801254E0
9.351734947E0,5.458028316E0,-1.081555843E1,-7.178468257E-2
9.356490207E0,4.850251675E0,-1.088255692E1,1.617548108E0
9.361245467E0,4.527220249E0,-1.094716358E1,2.959921598E0
9.366000728E0,4.505684853E0,-1.101655579E1,3.706482172E0
9.370755988E0,4.603790760E0,-1.112901783E1,3.979264021E0
9.375511249E0,4.910071850E0,-1.123669529E1,4.070191383E0
9.380266457E0,5.388636589E0,-1.135633659E1,4.003192425E0
9.385021717E0,6.056233883E0,-1.143769264E1,3.847658873E0
9.389776978E0,6.886543751E0,-1.152383423E1,3.658625841E0
9.394532238E0,7.640282631E0,-1.152861977E1,3.550948858E0
9.399287499E0,8.341380119E0,-1.155015469E1,3.483949661E0
9.404042759E0,9.138189316E0,-1.147837067E1,3.177668571E0
9.408797967E0,1.013838959E1,-1.152622700E1,2.256431818E0
9.413553228E0,1.184207916E1,-1.174875927E1,-1.653440475E0
9.418308488E0,1.442872047E1,-1.221057415E1,-6.975078106E0
9.423063749E0,1.572084522E1,-1.249053383E1,-8.796015739E0
9.427819009E0,1.497428417E1,-1.235175037E1,-6.867401123E0
9.432574269E0,1.349551964E1,-1.178465176E1,-3.326023579E0
9.437329530E0,1.221775246E1,-1.105962658E1,-2.943171859E-1
9.442084738E0,1.165543938E1,-1.029153061E1,1.272981644E0
9.446839999E0,1.161476135E1,-9.552147865E0,1.598405480E0
9.451595259E0,1.191147137E1,-8.827122688E0,9.858429432E-1
9.456350519E0,1.235653591E1,-8.116454124E0,-3.278166950E-1
9.461105780E0,1.258864021E1,-7.369893551E0,-1.359123230E0
9.465861040E0,1.241157150E1,-6.635297298E0,-1.643869162E0
9.470616249E0,1.184925747E1,-5.970092297E0,-1.033699393E0
9.475371509E0,1.099023438E1,-5.419743061E0,1.507478207E-1
9.480126769E0,1.016949654E1,-5.170889854E0,1.323230863E0
9.484882030E0,9.528220177E0,-5.163711071E0,2.055434704E0
9.489637290E0,9.142974854E0,-5.422136307E0,2.189432621E0
9.494392551E0,8.786444664E0,-6.003592014E0,2.050648928E0
9.499147759E0,8.305487633E0,-6.848258495E0,1.911865234E0
9.503903019E0,7.941778183E0,-7.898707390E0,1.952543259E0
9.508658280E0,7.692924976E0,-9.131011009E0,2.136790514E0
9.513413540E0,7.396214962E0,-1.050688457E1,2.285145521E0
9.518168801E0,7.082755089E0,-1.189711380E1,2.361716032E0
9.522924061E0,6.647261143E0,-1.332084370E1,2.282752752E0
9.527679269E0,6.180660725E0,-1.471107388E1,2.141576290E0
9.532434530E0,5.804987907E0,-1.600798416E1,2.079362869E0
9.537189790E0,5.711667538E0,-1.716132355E1,2.024327993E0
9.541945051E0,5.649454117E0,-1.829552269E1,2.215753794E0
9.546700311E0,5.527420521E0,-1.936511421E1,2.407179594E0
9.551455572E0,5.297709465E0,-2.013320923E1,2.340180635E0
9.556210780E0,5.123033047E0,-2.076012993E1,2.086541414E0
9.560966040E0,4.795216560E0,-2.126501465E1,1.887937069E0
9.565721301E0,4.280759811E0,-2.153779602E1,1.942971945E0
9.570476561E0,3.663411379E0,-2.147079849E1,1.957328916E0
9.575231822E0,2.940778971E0,-2.115733719E1,2.031506538E0
9.579987030E0,1.914258122E0,-2.044666862E1,2.232503414E0
9.584742290E0,6.005984545E-1,-1.926461601E1,2.651247501E0
9.589497551E0,-7.178468108E-1,-1.785284996E1,3.132204771E0
9.594252811E0,-1.514656782E0,-1.650329781E1,3.696911097E0
9.599008072E0,-1.993221283E0,-1.519920921E1,4.316651821E0
9.603763332E0,-2.349751949E0,-1.395015621E1,4.840680122E0
9.608518540E0,-2.579462767E0,-1.290209961E1,5.216353416E0
9.613273801E0,-2.569891453E0,-1.198804188E1,5.292923450E0
9.618029061E0,-2.277967215E0,-1.135394382E1,5.067998409E0
9.622784322E0,-1.844866276E0,-1.078923702E1,4.728217602E0
9.627539582E0,-1.450050473E0,-1.031785107E1,4.467400074E0
9.632294842E0,-1.079162955E0,-9.949356079E0,4.347758770E0
9.637050051E0,-8.853443861E-1,-9.655039787E0,4.314259052E0
9.641805311E0,-7.680960894E-1,-9.401400566E0,4.187439442E0
9.646560572E0,-7.298108935E-1,-9.312865257E0,3.986442566E0
9.651315832E0,-8.518448472E-1,-9.274580956E0,3.661018610E0
9.656071040E0,-1.074377418E0,-9.291330338E0,3.232703447E0
9.660826301E0,-1.062413216E0,-9.320044518E0,1.986042738E0
9.665581561E0,-5.383850932E-1,-9.286544800E0,-6.221339107E-1
9.670336822E0,7.178468257E-2,-9.236295700E0,-2.835494757E0
9.675092082E0,1.579262912E-1,-9.272188187E0,-3.742374659E0
9.679847342E0,-2.153540403E-1,-9.355937004E0,-3.476771355E0
9.684602603E0,-6.221339107E-1,-9.384650230E0,-2.813959360E0
9.689357811E0,-9.810572863E-1,-9.415757179E0,-2.158325911E0
9.694113072E0,-1.119840980E0,-9.276973724E0,-1.643869162E0
9.698868332E0,-1.141376376E0,-8.975478172E0,-1.354337573E0
9.703623592E0,-7.896314859E-1,-8.518448830E0,-1.270588875E0
9.708378853E0,-4.546362907E-2,-8.030312538E0,-1.174875975E0
9.713134061E0,7.178468108E-1,-7.470392227E0,-9.068797827E-1
9.717889322E0,1.514656782E0,-6.927221775E0,-5.479564071E-1
9.722644582E0,2.232503414E0,-6.372086525E0,-2.392822653E-1
9.727399842E0,2.761317253E0,-5.814558983E0,1.674975827E-2
9.732155103E0,3.101098061E0,-5.285745144E0,3.230310678E-1
9.736910311E0,3.282952785E0,-4.876572609E0,6.747759581E-1
9.741665572E0,3.409772158E0,-4.515256405E0,9.834501147E-1
9.746420832E0,3.364308596E0,-4.211368084E0,1.258624673E0
9.751176092E0,3.266202927E0,-3.931407690E0,1.438086390E0
9.755931353E0,3.067598581E0,-3.728017569E0,1.540977836E0
9.760686613E0,2.663211584E0,-3.620340586E0,1.560120344E0
9.765441822E0,1.976471543E0,-3.696911097E0,1.428515077E0
9.770197082E0,1.117448211E0,-4.046263218E0,1.115055323E0
9.774952342E0,2.775674164E-1,-4.520041943E0,8.709874153E-1
9.779707603E0,-3.732803464E-1,-4.977071285E0,7.178468108E-1
9.784462811E0,-9.164510965E-1,-5.374279499E0,5.838487148E-1
9.789218072E0,-1.363908887E0,-5.706882000E0,3.326023519E-1
9.793973332E0,-1.674975872E0,-5.943771362E0,-1.124626622E-1
9.798728592E0,-1.921436548E0,-6.084948063E0,-7.561319470E-1
9.803483853E0,-2.124826431E0,-6.183053493E0,-1.311266780E0
9.808239113E0,-2.239681959E0,-6.206982136E0,-1.586441398E0
9.812994322E0,-2.380858421E0,-6.228517532E0,-1.646261930E0
9.817749582E0,-2.548356056E0,-6.245266914E0,-1.725225091E0
9.822504842E0,-2.648854733E0,-6.250052929E0,-1.828116536E0
9.827260103E0,-2.699103832E0,-6.252445698E0,-1.895115495E0
9.832015311E0,-2.665604353E0,-6.142375946E0,-1.856830359E0
9.836770572E0,-2.746960402E0,-6.017949104E0,-1.885544300E0
9.841525832E0,-2.813959360E0,-5.864808083E0,-1.916650891E0
9.846281092E0,-2.474178553E0,-5.690132141E0,-1.856830359E0
9.851036353E0,-2.244467735E0,-5.513063431E0,-1.938186288E0
9.855791561E0,-1.818545222E0,-5.335994720E0,-2.043470621E0
9.860546822E0,-1.186840057E0,-5.240281582E0,-2.139183521E0
9.865302082E0,-4.570291340E-1,-5.173282623E0,-2.294716835E0
9.870057342E0,2.225325108E-1,-5.173282623E0,-2.589034081E0
9.874812603E0,8.159525394E-1,-5.324030399E0,-2.998206854E0
9.879567811E0,1.414158225E0,-5.656632900E0,-3.428914785E0
