"Time (s)","Gyroscope x (rad/s)","Gyroscope y (rad/s)","Gyroscope z (rad/s)"
1.152736600E-2,1.036942974E-1,-1.814268380E-1,-8.796452731E-2
1.637778200E-2,4.566214234E-2,-1.429423541E-1,-9.040798992E-2
2.122819900E-2,-1.847865991E-2,-9.896009415E-2,-9.285144508E-2
2.607856300E-2,-8.506292105E-2,-6.658425927E-2,-8.552107215E-2
3.092898000E-2,-1.467602700E-1,-5.497783050E-2,-7.513637096E-2
3.577939700E-2,-2.023489624E-1,-5.925388262E-2,-6.780599058E-2
4.062981300E-2,-2.481638193E-1,-8.491020650E-2,-6.597339362E-2
4.548017800E-2,-2.829830945E-1,-1.331685185E-1,-7.086031139E-2
5.033059500E-2,-2.976438701E-1,-1.905898154E-1,-7.330377400E-2
5.518101100E-2,-2.952004075E-1,-2.193004489E-1,-8.429934084E-2
6.003137600E-2,-2.768744528E-1,-1.942549944E-1,-1.032361463E-1
6.488179300E-2,-2.457203567E-1,-1.404989064E-1,-1.307250559E-1
6.973220900E-2,-2.072358727E-1,-8.735366166E-2,-1.551596522E-1
7.458257400E-2,-1.644753367E-1,-6.475166976E-2,-1.728747338E-1
7.943299100E-2,-1.211039424E-1,-7.513637096E-2,-1.826485693E-1
8.428340700E-2,-7.895427197E-2,-9.712749720E-2,-1.869246215E-1
8.913382400E-2,-4.169152305E-2,-9.590577334E-2,-1.875354946E-1
9.398418800E-2,-1.359174121E-2,-9.468404204E-2,-1.893680841E-1
9.883460500E-2,2.290742937E-3,-8.552107215E-2,-1.966984570E-1
1.036850220E-1,3.512472380E-3,-7.330377400E-2,-2.150243968E-1
1.085354380E-1,-1.420260593E-2,-6.902772188E-2,-2.357937992E-1
1.133858030E-1,-4.780016840E-2,-9.590577334E-2,-2.632827163E-1
1.182362200E-1,-8.628465235E-2,-1.191186309E-1,-2.968802750E-1
1.230866360E-1,-1.296560466E-1,-1.240055487E-1,-3.353647590E-1
1.279370010E-1,-1.711948514E-1,-1.637117565E-1,-3.775144219E-1
1.327874180E-1,-2.127336562E-1,-1.936441362E-1,-4.190532267E-1
1.376378340E-1,-2.597702444E-1,-2.596175373E-1,-4.612029195E-1
1.424881990E-1,-3.055851161E-1,-3.231474757E-1,-4.990765154E-1
1.473386160E-1,-3.489564955E-1,-4.043924809E-1,-5.345066786E-1
1.521890320E-1,-3.868301213E-1,-4.654789567E-1,-5.626064539E-1
1.570394490E-1,-4.179842174E-1,-5.351175666E-1,-5.907062292E-1
1.618898130E-1,-4.405862093E-1,-5.595521331E-1,-6.114756465E-1
1.667402300E-1,-4.558578432E-1,-5.772672296E-1,-6.310232878E-1
1.715906470E-1,-4.552469850E-1,-5.674933791E-1,-6.438514590E-1
1.764410110E-1,-4.473057389E-1,-5.296197534E-1,-6.462949514E-1
1.812914280E-1,-4.326449931E-1,-4.893026948E-1,-6.401863098E-1
1.861418450E-1,-4.161516428E-1,-4.062250853E-1,-6.206386089E-1
1.909922610E-1,-3.978256881E-1,-3.457494676E-1,-5.937605500E-1
1.958426260E-1,-3.746128380E-1,-2.840521336E-1,-5.577195287E-1
2.006930430E-1,-3.483456373E-1,-2.364046723E-1,-5.106829405E-1
2.055434590E-1,-3.165806830E-1,-2.174678594E-1,-4.593703151E-1
2.103938760E-1,-2.878700197E-1,-1.850920320E-1,-4.068359435E-1
2.152442410E-1,-2.628245652E-1,-1.857028902E-1,-3.549124300E-1
2.200946570E-1,-2.347247899E-1,-2.040288299E-1,-3.103193045E-1
2.249450740E-1,-2.047924101E-1,-2.125809491E-1,-2.736674249E-1
2.297954380E-1,-1.773035079E-1,-2.357937992E-1,-2.480110973E-1
2.346458550E-1,-1.485928595E-1,-2.913824916E-1,-2.327394783E-1
2.394962720E-1,-1.211039424E-1,-3.488037884E-1,-2.247982323E-1
2.442516360E-1,-9.789107740E-2,-4.288270772E-1,-2.254091054E-1
2.490069490E-1,-6.673697382E-2,-5.326740742E-1,-2.370155305E-1
2.537622610E-1,-3.008509055E-2,-6.206386089E-1,-2.510654330E-1
2.585175740E-1,5.955931731E-3,-6.969966888E-1,-2.596175373E-1
2.632728340E-1,4.566214234E-2,-7.727439404E-1,-2.571740746E-1
2.680281470E-1,9.392046183E-2,-8.417716622E-1,-2.382372618E-1
2.727834590E-1,1.531743407E-1,-9.016364217E-1,-2.083048970E-1
2.775387200E-1,2.240346521E-1,-9.266818762E-1,-1.679878086E-1
2.822940320E-1,3.010036349E-1,-9.529490471E-1,-1.215620935E-1
2.870493450E-1,3.767508566E-1,-9.767727852E-1,-7.086031139E-2
2.918046050E-1,4.494437575E-1,-1.005483389E0,-2.809977904E-2
2.965599180E-1,5.135845542E-1,-1.029307127E0,-1.221729559E-3
3.013152300E-1,5.661189556E-1,-1.034194112E0,5.497782957E-3
3.060705430E-1,5.978838801E-1,-1.070235133E0,-8.552107029E-3
3.108258030E-1,5.978838801E-1,-1.152091026E0,-4.398226365E-2
3.155811160E-1,5.722275972E-1,-1.267544389E0,-9.834922850E-2
3.203364280E-1,5.288561583E-1,-1.414151907E0,-1.600465775E-1
3.250916880E-1,4.860956371E-1,-1.554039955E0,-2.193004489E-1
3.298470010E-1,4.579958618E-1,-1.679267287E0,-2.541197538E-1
3.346023130E-1,4.445568323E-1,-1.769675255E0,-2.571740746E-1
3.393575740E-1,4.427242577E-1,-1.840535522E0,-2.174678594E-1
3.441128860E-1,4.415025115E-1,-1.935219646E0,-1.343902498E-1
3.488681990E-1,4.482220411E-1,-2.027460098E0,-3.665188700E-2
3.536235110E-1,4.683805704E-1,-2.128863811E0,5.192350596E-2
3.583787720E-1,5.025889874E-1,-2.275471210E0,1.185077652E-1
3.631340840E-1,5.612320304E-1,-2.467282772E0,1.631008983E-1
3.678893970E-1,6.498073936E-1,-2.680474758E0,1.887572110E-1
3.726446570E-1,7.707586288E-1,-2.905883789E0,2.046397030E-1
3.773999700E-1,9.228639603E-1,-3.144120932E0,2.156352699E-1
3.821552820E-1,1.098793030E0,-3.397629976E0,2.290742993E-1
3.869105430E-1,1.288771987E0,-3.651749611E0,2.480110973E-1
3.916658550E-1,1.478750944E0,-3.911978006E0,2.645044625E-1
3.964211680E-1,1.652236462E0,-4.164875984E0,2.797760665E-1
4.011764280E-1,1.790902853E0,-4.409832954E0,3.048215210E-1
4.059317410E-1,1.883754253E0,-4.626079082E0,3.506363928E-1
4.106870530E-1,1.912464857E0,-4.839881420E0,4.245510101E-1
4.154423660E-1,1.891084671E0,-5.028638840E0,5.198459029E-1
4.201976260E-1,1.826332927E0,-5.118435860E0,6.230821013E-1
4.249529380E-1,1.715766430E0,-5.119657516E0,7.391464114E-1
4.297082510E-1,1.574045777E0,-5.049408436E0,8.588758707E-1
4.344635110E-1,1.417664409E0,-4.912574768E0,9.676098228E-1
4.392188240E-1,1.260672212E0,-4.737256527E0,1.053130865E0
4.439741360E-1,1.107345104E0,-4.549109936E0,1.112995625E0
4.487294490E-1,9.631810188E-1,-4.357298374E0,1.156367064E0
4.534847090E-1,8.373429179E-1,-4.174649715E0,1.183855891E0
4.582400220E-1,7.341067195E-1,-4.028653145E0,1.208290577E0
4.629953340E-1,6.608029604E-1,-3.942521334E0,1.233946800E0
4.677505950E-1,6.284271479E-1,-3.926028013E0,1.256548882E0
4.725059070E-1,6.369792223E-1,-3.971231937E0,1.282205224E0
4.772612200E-1,6.809614897E-1,-4.068359375E0,1.324965715E0
4.820164800E-1,7.438805699E-1,-4.205803871E0,1.380554438E0
4.867717930E-1,8.061888218E-1,-4.358520031E0,1.453858137E0
4.915271050E-1,8.471167088E-1,-4.502073288E0,1.554039955E0
4.962823660E-1,8.507819176E-1,-4.643794060E0,1.673769474E0
5.010376780E-1,8.373429179E-1,-4.692052364E0,1.785557747E0
5.057929910E-1,7.951932549E-1,-4.641961575E0,1.886961341E0
5.105483030E-1,7.255546451E-1,-4.486190796E0,1.981645346E0
5.153035630E-1,6.357575059E-1,-4.234514713E0,2.066555500E0
5.200588760E-1,5.276344419E-1,-3.893041134E0,2.139859438E0
5.248141880E-1,3.956876695E-1,-3.524689674E0,2.192393780E0
5.295694490E-1,2.533561587E-1,-3.158170938E0,2.208276272E0
5.343247610E-1,1.134681329E-1,-2.795928001E0,2.198502302E0
5.390800740E-1,-8.704823442E-3,-2.448346138E0,2.182008982E0
5.438353340E-1,-1.082757786E-1,-2.140470266E0,2.161850452E0
5.485906470E-1,-1.840230078E-1,-1.901011229E0,2.134361506E0
5.533459590E-1,-2.377791107E-1,-1.745240688E0,2.093433619E0
5.581012200E-1,-2.713766694E-1,-1.661552191E0,2.050062180E0
5.628565320E-1,-2.872591615E-1,-1.632230639E0,2.017686367E0
5.676118450E-1,-2.878700197E-1,-1.626732945E0,2.000582218E0
5.723671570E-1,-2.854265571E-1,-1.649334908E0,1.998138666E0
5.771224180E-1,-2.903134823E-1,-1.687819362E0,2.011577606E0
5.818777300E-1,-3.061959743E-1,-1.724471331E0,2.035401344E0
5.866330430E-1,-3.391826749E-1,-1.745851517E0,2.072664261E0
5.913883030E-1,-3.929387629E-1,-1.755014539E0,2.123365879E0
5.961436160E-1,-4.442514181E-1,-1.669493437E0,2.180176497E0
6.008989280E-1,-4.992292523E-1,-1.524107575E0,2.243095398E0
6.056541880E-1,-5.633700490E-1,-1.369558811E0,2.298073292E0
6.104095010E-1,-6.305651665E-1,-1.221729517E0,2.324951410E0
6.151648130E-1,-6.824886799E-1,-1.080008984E0,2.324340582E0
6.199201260E-1,-7.099775672E-1,-9.370665550E-1,2.302349329E0
6.246753860E-1,-7.130318880E-1,-7.941241860E-1,2.262643099E0
6.294306990E-1,-6.916516423E-1,-6.701186895E-1,2.213773966E0
6.341859590E-1,-6.513345838E-1,-5.766563416E-1,2.166126490E0
6.389412720E-1,-5.975784659E-1,-5.204567909E-1,2.120311737E0
6.436965840E-1,-5.297724605E-1,-4.941896200E-1,2.077551126E0
6.484518970E-1,-4.491383433E-1,-4.966330528E-1,2.036012411E0
6.532071570E-1,-3.587303460E-1,-5.326740742E-1,1.993862629E0
6.579624700E-1,-2.701549530E-1,-6.029235125E-1,1.953545570E0
6.627177820E-1,-1.919642538E-1,-7.061597109E-1,1.915671945E0
6.674730430E-1,-1.339320987E-1,-8.289434910E-1,1.875354886E0
6.722283550E-1,-1.192713454E-1,-9.926552773E-1,1.838703036E0
6.769836680E-1,-1.363755614E-1,-1.130710721E0,1.800829411E0
6.817389280E-1,-1.736383140E-1,-1.169195175E0,1.740964651E0
6.864942410E-1,-2.414443046E-1,-1.126434684E0,1.702480197E0
6.912495530E-1,-3.428478539E-1,-1.007315993E0,1.711643100E0
6.960048130E-1,-4.528035223E-1,-8.075632453E-1,1.740353703E0
7.007601260E-1,-5.676460862E-1,-5.723803043E-1,1.770286083E0
7.055154380E-1,-6.806560755E-1,-3.591884971E-1,1.775783896E0
7.102706990E-1,-7.722858191E-1,-1.771507859E-1,1.756236196E0
7.150260110E-1,-8.309288025E-1,-2.626718581E-2,1.726303816E0
7.197813240E-1,-8.516982198E-1,8.552107215E-2,1.693317175E0
7.245365840E-1,-8.437569737E-1,1.478292793E-1,1.654221773E0
7.292918970E-1,-8.126028776E-1,1.594357044E-1,1.605352640E0
7.340472090E-1,-7.594576478E-1,1.252272725E-1,1.548542261E0
7.388025220E-1,-6.910407543E-1,6.352993846E-2,1.490510106E0
7.435577820E-1,-6.116283536E-1,-9.773836471E-3,1.436143041E0
7.483130950E-1,-5.316050649E-1,-8.429934084E-2,1.392160773E0
7.530684070E-1,-4.576904476E-1,-1.600465775E-1,1.354898095E0
7.578236680E-1,-3.959930837E-1,-2.351829410E-1,1.326798320E0
7.625789800E-1,-3.489564955E-1,-3.103193045E-1,1.304807186E0
7.673342930E-1,-3.123046160E-1,-3.707949221E-1,1.288924694E0
7.720895530E-1,-2.823722363E-1,-4.105011225E-1,1.276096582E0
7.768448660E-1,-2.573267817E-1,-4.398226440E-1,1.265100956E0
7.816001780E-1,-2.267835438E-1,-4.184423685E-1,1.250440240E0
7.863554380E-1,-1.950185746E-1,-3.494146466E-1,1.237612009E0
7.911107510E-1,-1.730274558E-1,-2.687804997E-1,1.230892539E0
7.958660630E-1,-1.565341055E-1,-1.918115467E-1,1.232114315E0
8.006213240E-1,-1.388190240E-1,-1.197294965E-1,1.241277218E0
8.053766360E-1,-1.223256737E-1,-5.253437161E-2,1.258381486E0
8.101319490E-1,-1.058323234E-1,4.886918236E-3,1.279761672E0
8.148872090E-1,-9.728021920E-2,3.543015569E-2,1.302363753E0
8.196425220E-1,-8.811724186E-2,4.520399496E-2,1.316413641E0
8.243978340E-1,-6.918043643E-2,7.208204269E-2,1.323743939E0
8.291530950E-1,-5.513054505E-2,8.002328873E-2,1.329241753E0
8.339084070E-1,-4.474584386E-2,6.169734150E-2,1.322522283E0
8.386637200E-1,-3.313941509E-2,2.809977904E-2,1.309083223E0
8.434189800E-1,-1.542433538E-2,-6.719512399E-3,1.295033336E0
8.481742930E-1,9.621120058E-3,-2.626718581E-2,1.289535522E0
8.529296050E-1,3.711003438E-2,-2.687804960E-2,1.287092090E0
8.576848660E-1,5.665770918E-2,-1.771507785E-2,1.287092090E0
8.624401780E-1,6.765327603E-2,-6.719512399E-3,1.284037709E0
8.671954910E-1,7.070759684E-2,1.832594397E-3,1.277929068E0
8.719507510E-1,7.376192510E-2,1.649334840E-2,1.266322732E0
8.767060630E-1,9.147699922E-2,6.597339362E-2,1.246775031E0
8.814613760E-1,1.171333194E-1,1.288924664E-1,1.221118689E0
8.862166360E-1,1.452330947E-1,1.783725172E-1,1.185077667E0
8.909719490E-1,1.696676910E-1,2.052505612E-1,1.144760609E0
8.957272610E-1,1.904370934E-1,2.193004489E-1,1.105054379E0
9.004825220E-1,2.099847645E-1,2.284634262E-1,1.075732827E0
9.052378340E-1,2.270889878E-1,2.376264036E-1,1.060461283E0
9.099931470E-1,2.448040545E-1,2.455676347E-1,1.054352641E0
9.147484590E-1,2.612974048E-1,2.541197538E-1,1.053130865E0
9.195037200E-1,2.784016132E-1,2.675587833E-1,1.054352641E0
9.242590320E-1,2.973384261E-1,2.840521336E-1,1.051298261E0
9.290142930E-1,3.199404180E-1,3.005454838E-1,1.044578791E0
9.337696050E-1,3.492619395E-1,3.194822669E-1,1.032972336E0
9.385249180E-1,3.798051775E-1,3.353647590E-1,1.014035583E0
9.432802300E-1,4.121810198E-1,3.384190798E-1,9.853248596E-1
9.480354910E-1,4.482220411E-1,3.298669755E-1,9.474512935E-1
9.527908030E-1,4.909825623E-1,3.109301627E-1,9.046907425E-1
9.575461160E-1,5.477929711E-1,2.785543501E-1,8.582650423E-1
9.623013760E-1,6.137663722E-1,2.070831656E-1,8.032872081E-1
9.670566880E-1,6.962331533E-1,1.148425788E-1,7.397572398E-1
9.718120010E-1,8.098539710E-1,8.552107215E-2,6.756164432E-1
9.765672610E-1,9.246965647E-1,7.819069177E-2,6.133082509E-1
9.813225740E-1,1.019991517E0,6.230820715E-2,5.400044918E-1
9.860778860E-1,1.088408351E0,1.038470119E-2,4.593703151E-1
9.908331470E-1,1.156825185E0,-1.221729559E-3,3.836230934E-1
9.955884590E-1,1.222187757E0,3.543015569E-2,3.341430426E-1
1.000343772E0,1.269224286E0,7.513637096E-2,3.017672002E-1
1.005099032E0,1.294880629E0,8.124501258E-2,2.730565667E-1
1.009854345E0,1.319926023E0,1.075121984E-1,2.480110973E-1
1.014609657E0,1.335808516E0,1.484401375E-1,2.333503515E-1
1.019364918E0,1.335808516E0,1.759290546E-1,2.113592178E-1
1.024120230E0,1.318704367E0,1.728747338E-1,1.777616441E-1
1.028875543E0,1.300989270E0,1.832594275E-1,1.343902498E-1
1.033630803E0,1.269224286E0,2.199113220E-1,9.590577334E-2
1.038386116E0,1.211802959E0,2.492328286E-1,6.230820715E-2
1.043141428E0,1.136055827E0,2.559523284E-1,2.321286127E-2
1.047896688E0,1.044426084E0,2.467893660E-1,-1.710421406E-2
1.052652001E0,9.466876984E-1,2.247982323E-1,-5.619955808E-2
1.057407313E0,8.440623879E-1,1.875354946E-1,-1.020144150E-1
1.062162574E0,7.426588535E-1,1.502727419E-1,-1.557705253E-1
1.066917886E0,6.424770355E-1,1.123991162E-1,-2.095266134E-1
1.071673199E0,5.392408967E-1,7.635809481E-2,-2.608392537E-1
1.076428459E0,4.360047281E-1,5.131264031E-2,-3.109301627E-1
1.081183772E0,3.419315517E-1,4.031707719E-2,-3.604102135E-1
1.085939032E0,2.417497337E-1,5.009091273E-2,-4.025598764E-1
1.090694345E0,1.006399691E-1,1.056796089E-1,-4.416552484E-1
1.095449657E0,-9.239330143E-2,2.193004489E-1,-4.550942481E-1
1.100204970E0,-3.147480786E-1,3.561341763E-1,-4.324922562E-1
1.104960230E0,-5.401571989E-1,4.654789567E-1,-3.830122054E-1
1.109715543E0,-7.276926637E-1,5.198459029E-1,-3.463603258E-1
1.114470803E0,-8.559742570E-1,5.400044918E-1,-3.335321844E-1
1.119226116E0,-9.298889041E-1,5.467239618E-1,-3.353647590E-1
1.123981428E0,-9.561560750E-1,5.540543795E-1,-3.433060050E-1
1.128736688E0,-9.311106205E-1,5.540543795E-1,-3.536907136E-1
1.133492001E0,-8.767436743E-1,5.393936038E-1,-3.640754223E-1
1.138247313E0,-8.071050644E-1,5.100721121E-1,-3.634645343E-1
1.143002574E0,-7.258600593E-1,4.691441655E-1,-3.280344009E-1
1.147757886E0,-6.293434501E-1,4.251618981E-1,-2.590066791E-1
1.152513199E0,-5.328267813E-1,3.335321844E-1,-1.667660922E-1
1.157268511E0,-4.961749315E-1,1.716530025E-1,-3.543015569E-2
1.162023772E0,-4.356993139E-1,1.484401375E-1,6.719512492E-2
1.166779084E0,-3.599520624E-1,2.211330533E-1,1.288924664E-1
1.171534345E0,-2.768744528E-1,2.370155305E-1,1.710421443E-1
1.176289657E0,-1.913533956E-1,2.205221802E-1,1.912006736E-1
1.181044970E0,-1.143844277E-1,1.710421443E-1,1.991419196E-1
1.185800230E0,-6.734783947E-2,9.224057943E-2,2.113592178E-1
1.190555543E0,-6.551524997E-2,7.696896046E-2,2.241873741E-1
1.195310855E0,-1.027780026E-1,1.288924664E-1,2.290742993E-1
1.200066116E0,-1.492037177E-1,1.930332631E-1,2.302960157E-1
1.204821428E0,-1.986837685E-1,2.761108875E-1,2.382372618E-1
1.209576741E0,-2.402225733E-1,3.072649837E-1,2.626718581E-1
1.214332001E0,-2.707658112E-1,2.919933498E-1,3.060432673E-1
1.219087313E0,-3.275762498E-1,1.960875988E-1,3.695732057E-1
1.223842626E0,-3.410152495E-1,1.557705253E-1,4.233292937E-1
1.228597886E0,-3.043633699E-1,1.514944583E-1,4.728093445E-1
1.233353199E0,-2.310595959E-1,2.107483447E-1,5.320632458E-1
1.238108511E0,-1.571449637E-1,1.844811589E-1,6.108647585E-1
1.242863772E0,-1.314886510E-1,3.726275265E-2,7.098248601E-1
1.247619084E0,-1.430950761E-1,-1.728747338E-1,8.271108866E-1
1.252374397E0,-1.608101577E-1,-2.883281708E-1,9.505056143E-1
1.257129657E0,-1.797469556E-1,-3.683514595E-1,1.058628678E0
1.261884970E0,-2.072358727E-1,-4.587594569E-1,1.132543325E0
1.266640282E0,-2.261726856E-1,-5.100721121E-1,1.176525593E0
1.271395543E0,-2.335030586E-1,-4.972439408E-1,1.186910272E0
1.276150855E0,-2.658788860E-1,-4.337140024E-1,1.192408085E0
1.280906168E0,-3.526217043E-1,-2.993237376E-1,1.210123181E0
1.285661428E0,-4.381427765E-1,-1.282816008E-2,1.191186309E0
1.290416741E0,-5.273290277E-1,3.090975881E-1,1.155756116E0
1.295172053E0,-6.256782413E-1,5.907062292E-1,1.117271662E0
1.299927313E0,-7.111993432E-1,7.861829996E-1,1.088561058E0
1.304682626E0,-7.631227970E-1,9.034690261E-1,1.084895849E0
1.309437938E0,-7.637336850E-1,9.303470850E-1,1.105665207E0
1.314193199E0,-7.185297012E-1,9.352339506E-1,1.119715095E0
1.318948511E0,-6.378955245E-1,9.346231222E-1,1.124602079E0
1.323703824E0,-5.285507441E-1,9.346231222E-1,1.142317176E0
1.328459084E0,-4.295906425E-1,9.584468603E-1,1.166751742E0
1.333214397E0,-3.556760252E-1,9.309579134E-1,1.214399219E0
1.337969709E0,-3.208567202E-1,8.588758707E-1,1.293200731E0
1.342724970E0,-3.190241456E-1,7.580831647E-1,1.398880363E0
1.347480282E0,-3.306305707E-1,6.511818767E-1,1.517388105E0
1.352235595E0,-3.397935331E-1,5.534434915E-1,1.630398154E0
1.356990855E0,-3.355174661E-1,4.587594569E-1,1.747684121E0
1.361746168E0,-3.251327872E-1,3.659079969E-1,1.867413640E0
1.366501480E0,-3.049742281E-1,2.779434621E-1,1.985921383E0
1.371256741E0,-2.848156989E-1,2.083048970E-1,2.108094454E0
1.376012053E0,-2.597702444E-1,1.557705253E-1,2.236986876E0
1.380767366E0,-2.249509543E-1,1.185077652E-1,2.381150961E0
1.385522626E0,-1.724165827E-1,7.513637096E-2,2.539364815E0
1.390277938E0,-9.117157012E-2,4.886918236E-3,2.707352638E0
1.395033199E0,4.123337101E-3,-6.963858753E-2,2.870453596E0
1.399788511E0,1.006399691E-1,-1.423314959E-1,3.004843950E0
1.404543824E0,1.886045039E-1,-2.021962404E-1,3.097084522E0
1.409299136E0,2.600756884E-1,-2.321286201E-1,3.150840521E0
1.414054397E0,3.260490894E-1,-2.382372618E-1,3.175885916E0
1.418809709E0,3.908007443E-1,-2.254091054E-1,3.179551125E0
1.423564970E0,4.494437575E-1,-2.040288299E-1,3.177107811E0
1.428320282E0,5.056433082E-1,-1.814268380E-1,3.175885916E0
1.433075595E0,5.496255755E-1,-1.435532272E-1,3.179551125E0
1.437830855E0,5.795579553E-1,-9.773836285E-2,3.199709654E0
1.442586168E0,5.936078429E-1,-6.414080411E-2,3.224144220E0
1.447341480E0,5.923861265E-1,-5.436696485E-2,3.243081093E0
1.452096741E0,5.893318057E-1,-6.352993846E-2,3.246746302E0
1.456852053E0,5.887209177E-1,-9.346231073E-2,3.237583399E0
1.461607366E0,5.801688433E-1,-1.435532272E-1,3.227198601E0
1.466362626E0,5.636754632E-1,-1.973093301E-1,3.213759661E0
1.471117938E0,5.404626131E-1,-2.131918073E-1,3.186881542E0
1.475873251E0,5.093085170E-1,-2.498437017E-1,3.141066790E0
1.480628511E0,4.604393244E-1,-3.084867001E-1,3.070817232E0
1.485383824E0,3.724747896E-1,-3.316995800E-1,2.970024586E0
1.490139136E0,2.637408674E-1,-3.023780584E-1,2.842964649E0
1.494894397E0,1.299614757E-1,-2.382372618E-1,2.693302870E0
1.499649709E0,-3.252854943E-2,-2.028071135E-1,2.514319420E0
1.504405022E0,-2.109010667E-1,-1.899789423E-1,2.309679747E0
1.509160282E0,-4.057669342E-1,-1.857028902E-1,2.113592148E0
1.513915595E0,-6.061306000E-1,-1.771507859E-1,1.941939116E0
1.518670855E0,-7.979421020E-1,-1.429423541E-1,1.791055560E0
1.523426168E0,-9.842558503E-1,-9.162971377E-2,1.646280527E0
1.528181480E0,-1.176067472E0,-4.459312931E-2,1.520442486E0
1.532936741E0,-1.366046309E0,2.687804960E-2,1.419038892E0
1.537692053E0,-1.543807983E0,1.447749585E-1,1.351232886E0
1.542447366E0,-1.709963202E0,3.139844835E-1,1.327409148E0
1.547202626E0,-1.865122914E0,5.296197534E-1,1.348789454E0
1.551957938E0,-2.005010843E0,7.446441650E-1,1.409875870E0
1.556713251E0,-2.118021011E0,9.242383838E-1,1.504559994E0
1.561468511E0,-2.205374479E0,1.059850335E0,1.624289393E0
1.566223824E0,-2.274402380E0,1.164308310E0,1.766010046E0
1.570979136E0,-2.322660685E0,1.243109822E0,1.925445795E0
1.575734397E0,-2.349538565E0,1.276096582E0,2.106261730E0
1.580489709E0,-2.350760460E0,1.237612009E0,2.307236195E0
1.585245022E0,-2.326936722E0,1.120936871E0,2.522871494E0
1.590000282E0,-2.282954454E0,9.242383838E-1,2.748891592E0
1.594755595E0,-2.221868038E0,6.652317643E-1,2.980409145E0
1.599510907E0,-2.147953272E0,3.927860558E-1,3.210094452E0
1.604266168E0,-2.087477684E0,3.402516842E-1,3.424507856E0
1.609021480E0,-2.028223753E0,4.728093445E-1,3.619373798E0
1.613776741E0,-1.949422240E0,5.803215504E-1,3.803244114E0
1.618532053E0,-1.838244796E0,6.414080262E-1,3.984060049E0
1.623287366E0,-1.697135091E0,6.065887213E-1,4.161211014E0
1.628042626E0,-1.518151641E0,4.660898149E-1,4.327977180E0
1.632797938E0,-1.288466573E0,2.437350452E-1,4.497186661E0
1.637553251E0,-1.015409946E0,-3.787361458E-2,4.673115730E0
1.642308511E0,-7.136427760E-1,-3.475820720E-1,4.844768524E0
1.647063824E0,-3.911061883E-1,-6.133082509E-1,4.993819714E0
1.651819136E0,-4.046979174E-2,-7.061597109E-1,5.063457966E0
1.656574397E0,3.584249020E-1,-5.412262082E-1,5.001150131E0
1.661329709E0,8.312342763E-1,-1.490510106E-1,4.774518967E0
1.666085022E0,1.337641120E0,3.787361681E-1,4.441597939E0
1.670840282E0,1.794568062E0,8.472694755E-1,4.048811913E0
1.675595595E0,2.074954987E0,9.254601598E-1,3.555233002E0
1.680350907E0,2.158032656E0,6.426297426E-1,3.108690977E0
1.685106168E0,2.059072495E0,1.166751757E-1,2.752556801E0
1.689861480E0,1.859930515E0,-5.192350745E-1,2.367100954E0
1.694616741E0,1.625969291E0,-1.172860384E0,1.986532211E0
1.699372053E0,1.373682141E0,-1.830150843E0,1.629176378E0
1.704127366E0,1.129947066E0,-2.475224018E0,1.318246245E0
1.708882626E0,9.198096395E-1,-3.071428061E0,1.078787208E0
1.713637938E0,7.768672705E-1,-3.545459270E0,9.401208758E-1
1.718393251E0,7.170025110E-1,-3.835619926E0,9.107993841E-1
1.723148511E0,7.078395486E-1,-3.988336086E0,9.553925395E-1
1.727903824E0,7.469348907E-1,-3.944964647E0,1.092837095E0
1.732659136E0,8.275690675E-1,-3.702451468E0,1.294422507E0
1.737414397E0,9.424116611E-1,-3.251022339E0,1.510057688E0
1.742169709E0,1.076801896E0,-2.621831656E0,1.699425817E0
1.746925022E0,1.195309639E0,-1.932165265E0,1.845422506E0
1.751680282E0,1.262504816E0,-1.261435747E0,1.918115377E0
1.756435595E0,1.272278666E0,-6.114756465E-1,1.890015602E0
1.761190907E0,1.214857340E0,1.221729536E-2,1.751349330E0
1.765946168E0,1.096960425E0,6.047561169E-1,1.521664143E0
1.770701480E0,9.411898851E-1,1.162475705E0,1.227227330E0
1.775456741E0,7.762564421E-1,1.676212907E0,9.138537049E-1
1.780212053E0,5.508472919E-1,2.005469084E0,5.998691916E-1
1.784967366E0,2.814559340E-1,2.169791698E0,2.663370371E-1
1.789722626E0,-1.725693047E-2,2.215606451E0,-1.484401375E-1
1.794477938E0,-3.074176908E-1,2.191171885E0,-6.175842881E-1
1.799233251E0,-5.542070866E-1,2.027460098E0,-1.097113132E0
1.803988511E0,-7.447968721E-1,1.736077666E0,-1.546098709E0
1.808743824E0,-8.578068614E-1,1.324965715E0,-1.896735191E0
1.813499136E0,-8.883501291E-1,8.387173414E-1,-2.111759424E0
1.818254397E0,-8.694133162E-1,4.331031144E-1,-2.222936869E0
1.823009709E0,-8.168789148E-1,1.942549944E-1,-2.246760607E0
1.827765022E0,-7.246383429E-1,1.038470119E-1,-2.197280645E0
1.832520282E0,-5.926915407E-1,1.319467872E-1,-2.100764036E0
1.837275595E0,-4.167625010E-1,2.541197538E-1,-1.973093271E0
1.842030855E0,-1.907425225E-1,4.367683232E-1,-1.834426880E0
1.846786168E0,8.536835015E-2,6.133082509E-1,-1.688430309E0
1.851541480E0,3.999637067E-1,7.580831647E-1,-1.535103202E0
1.856296741E0,7.371610999E-1,8.478803039E-1,-1.354287267E0
1.861052053E0,1.062752008E0,8.979712129E-1,-1.142317176E0
1.865807366E0,1.341917157E0,9.523382187E-1,-9.352339506E-1
1.870562626E0,1.556330800E0,1.013424635E0,-7.635809779E-1
1.875317938E0,1.710879564E0,1.036026716E0,-6.194168925E-1
1.880073251E0,1.813504815E0,1.042746186E0,-4.911352694E-1
1.884828511E0,1.871536970E0,1.051298261E0,-3.744601011E-1
1.889583824E0,1.890473723E0,1.053130865E0,-2.626718581E-1
1.894339136E0,1.881310821E0,1.039691806E0,-1.508836001E-1
1.899094397E0,1.848935008E0,9.853248596E-1,-4.214967042E-2
1.903849709E0,1.803120136E0,8.692606091E-1,6.047561392E-2
1.908605022E0,1.729816318E0,7.318159938E-1,1.618791670E-1
1.913360282E0,1.632077932E0,5.632173419E-1,2.681696415E-1
1.918115595E0,1.512959361E0,3.512472510E-1,3.952295184E-1
1.922870855E0,1.366351843E0,8.918625861E-2,5.821541548E-1
1.927626168E0,1.229518056E0,-1.814268380E-1,7.354812026E-1
1.932381480E0,1.114675522E0,-4.721984863E-1,8.576541543E-1
1.937136741E0,1.008995891E0,-7.568614483E-1,9.889900684E-1
1.941892053E0,9.014837146E-1,-9.761618972E-1,1.125212908E0
1.946647366E0,6.498073936E-1,-1.031750560E0,1.233335972E0
1.951402626E0,-2.976438701E-1,-4.208858311E-1,1.122158647E0
1.956157938E0,-1.544418931E0,7.055488229E-1,7.648026943E-1
1.960913251E0,-2.483318090E0,1.680489063E0,3.799578846E-1
1.965668511E0,-2.968344688E0,2.260810614E0,9.590577334E-2
1.970423824E0,-3.129612923E0,2.499047756E0,-9.040798992E-2
1.975179136E0,-3.112508774E0,2.503934622E0,-2.113592178E-1
1.979934397E0,-3.011716127E0,2.369544506E0,-2.864955962E-1
1.984689709E0,-2.859610796E0,2.181398153E0,-3.188714087E-1
1.989444970E0,-2.684292555E0,1.999971271E0,-3.127627671E-1
1.994200282E0,-2.513861179E0,1.908341527E0,-2.785543501E-1
1.998955595E0,-2.367864609E0,1.985921383E0,-2.186895907E-1
2.003710855E0,-2.243859053E0,2.227823734E0,-1.466075480E-1
2.008466168E0,-2.132070780E0,2.553414822E0,-6.719512492E-2
2.013221480E0,-2.018450022E0,2.833190918E0,1.404988952E-2
2.017976741E0,-1.893833518E0,2.953531265E0,9.040798992E-2
2.022732053E0,-1.767384529E0,2.872897148E0,1.612683088E-1
2.027487366E0,-1.662315726E0,2.601673126E0,2.131918073E-1
2.032242626E0,-1.611613989E0,2.179565430E0,2.321286201E-1
2.036997938E0,-1.627496481E0,1.646280527E0,2.058614343E-1
2.041753251E0,-1.692859054E0,1.080008984E0,1.319467872E-1
2.046508511E0,-1.783877850E0,5.662716627E-1,1.343902480E-2
2.051263824E0,-1.876118422E0,1.802051067E-1,-1.466075480E-1
2.056019084E0,-1.962861300E0,-2.321286127E-2,-3.378082216E-1
2.060774397E0,-2.043495417E0,-3.909534588E-2,-5.583304167E-1
2.065529709E0,-2.130849123E0,8.429934084E-2,-7.990111113E-1
2.070284970E0,-2.230420113E0,2.681696415E-1,-1.045189619E0
2.075040282E0,-2.337932110E0,4.331031144E-1,-1.281594276E0
2.079795595E0,-2.427729368E0,5.381718874E-1,-1.496007800E0
2.084550855E0,-2.457050800E0,5.803215504E-1,-1.680489063E0
2.089306168E0,-2.398407936E0,5.418370366E-1,-1.838092089E0
2.094061480E0,-2.257909060E0,3.530798554E-1,-1.968206286E0
2.098816741E0,-2.052047491E0,6.719512399E-3,-2.083048820E0
2.103572053E0,-1.804647326E0,-4.074468017E-1,-2.185674191E0
2.108327366E0,-1.548694968E0,-7.715222239E-1,-2.279136419E0
2.113082626E0,-1.319620609E0,-9.944878817E-1,-2.360992432E0
2.117837938E0,-1.147967696E0,-1.007315993E0,-2.419635296E0
2.122593199E0,-1.019075155E0,-8.643736839E-1,-2.456287384E0
2.127348511E0,-9.158390164E-1,-6.585122347E-1,-2.482554436E0
2.132103824E0,-8.290961981E-1,-4.196641147E-1,-2.508821726E0
2.136859084E0,-7.509055138E-1,-1.643226296E-1,-2.532645464E0
2.141614397E0,-6.867647171E-1,1.142317131E-1,-2.568686485E0
2.146369709E0,-6.446150541E-1,4.190532267E-1,-2.610225201E0
2.151124970E0,-6.336194873E-1,7.660244107E-1,-2.662148714E0
2.155880282E0,-6.574432254E-1,1.126434684E0,-2.724457026E0
2.160635595E0,-7.252492309E-1,1.453858137E0,-2.808145285E0
2.165390855E0,-8.535308242E-1,1.692095399E0,-2.910159826E0
2.170146168E0,-1.057559609E0,1.820376992E0,-3.021337271E0
2.174901428E0,-1.340390086E0,1.825263977E0,-3.130681992E0
2.179656741E0,-1.661094069E0,1.726303816E0,-3.219257355E0
2.184412053E0,-1.945757031E0,1.594967961E0,-3.280343771E0
2.189167313E0,-2.125962257E0,1.466686368E0,-3.304167509E0
2.193922626E0,-2.182161808E0,1.342680812E0,-3.287063360E0
2.198677938E0,-2.110690594E0,1.255937934E0,-3.246746302E0
2.203433199E0,-1.907272577E0,1.291368127E0,-3.196655273E0
2.208188511E0,-1.661704898E0,1.428201914E0,-3.133125544E0
2.212943824E0,-1.442404509E0,1.594967961E0,-3.057989120E0
2.217699084E0,-1.267697096E0,1.725082159E0,-2.966970205E0
2.222454397E0,-1.136972070E0,1.799607635E0,-2.853960276E0
2.227209709E0,-1.031292439E0,1.824042201E0,-2.715904713E0
2.231964970E0,-9.311106205E-1,1.815490127E0,-2.554636478E0
2.236720282E0,-8.229875565E-1,1.781892538E0,-2.362824917E0
2.241475543E0,-7.026472092E-1,1.729358196E0,-2.153909206E0
2.246230855E0,-5.664243698E-1,1.639561057E0,-1.942549944E0
2.250986168E0,-4.094321132E-1,1.478292823E0,-1.745240688E0
2.255741428E0,-2.377791107E-1,1.241888046E0,-1.572365999E0
2.260496741E0,-6.429351866E-2,9.602794051E-1,-1.429423571E0
2.265252053E0,1.000291109E-1,6.585122347E-1,-1.320689678E0
2.270007313E0,2.399171442E-1,3.787361681E-1,-1.229059935E0
2.274762626E0,3.523162603E-1,1.698204130E-1,-1.135597587E0
2.279517938E0,4.298960865E-1,1.954767294E-2,-1.049465656E0
2.284273199E0,4.769326746E-1,-8.429934084E-2,-9.859357476E-1
2.289028511E0,5.031998754E-1,-1.221729591E-1,-9.376774430E-1
2.293783772E0,5.233584046E-1,-1.020144150E-1,-8.979712129E-1
2.298539084E0,5.465712547E-1,-4.764745384E-2,-8.662062287E-1
2.303294397E0,5.746710300E-1,1.466075517E-2,-8.454368711E-1
2.308049657E0,6.088794470E-1,7.941242307E-2,-8.307760954E-1
2.312804970E0,6.467530727E-1,1.276707351E-1,-8.240565658E-1
2.317560282E0,6.821832657E-1,1.527161896E-1,-8.277217746E-1
2.322315543E0,7.121156454E-1,1.588248461E-1,-8.405499458E-1
2.327070855E0,7.377719283E-1,1.514944583E-1,-8.582650423E-1
2.331826116E0,7.560978532E-1,1.404989064E-1,-8.765909672E-1
2.336581428E0,7.677043080E-1,1.343902498E-1,-9.004147053E-1
2.341336741E0,7.750346661E-1,1.233946830E-1,-9.242383838E-1
2.346092001E0,7.823650837E-1,9.896009415E-2,-9.431751966E-1
2.350847313E0,7.921388745E-1,6.291907281E-2,-9.480621219E-1
2.355602626E0,8.000801206E-1,1.404988952E-2,-9.327905178E-1
2.360357886E0,8.092431426E-1,-3.787361458E-2,-8.943060637E-1
2.365113199E0,8.190169334E-1,-8.796452731E-2,-8.295543790E-1
2.369868511E0,8.251255751E-1,-1.288924664E-1,-7.446441650E-1
2.374623772E0,8.251255751E-1,-1.508836001E-1,-6.426297426E-1
2.379379084E0,8.196278214E-1,-1.594357044E-1,-5.357283950E-1
2.384134345E0,8.159626126E-1,-1.631008983E-1,-4.294379354E-1
2.388889657E0,8.141300082E-1,-1.661552191E-1,-3.268126547E-1
2.393644970E0,8.171843290E-1,-1.667660922E-1,-2.241873741E-1
2.398400230E0,8.232930303E-1,-1.679878086E-1,-1.246164143E-1
2.403155543E0,8.287907839E-1,-1.722638607E-1,-3.176496923E-2
2.407910855E0,8.294016719E-1,-1.765399277E-1,5.681042373E-2
2.412666116E0,8.245147467E-1,-1.777616441E-1,1.447749585E-1
2.417421428E0,8.141300082E-1,-1.704312712E-1,2.327394783E-1
2.422176688E0,7.982475758E-1,-1.545487940E-1,3.243691921E-1
2.426932001E0,7.786998749E-1,-1.258381456E-1,4.166097939E-1
2.431687313E0,7.548761368E-1,-8.918625861E-2,5.082395077E-1
2.436442574E0,7.322741747E-1,-4.764745384E-2,5.992583632E-1
2.441197886E0,7.115047574E-1,-1.099556591E-2,6.884446144E-1
2.445953199E0,6.931788325E-1,2.015853859E-2,7.715222239E-1
2.450708459E0,6.742420197E-1,4.398226365E-2,8.533781171E-1
2.455463772E0,6.504182816E-1,5.436696485E-2,9.279035926E-1
2.460219032E0,6.241511106E-1,4.825831577E-2,9.963204265E-1
2.464974345E0,5.874992013E-1,2.015853859E-2,1.059239507E0
2.469729657E0,5.325213671E-1,-3.970621154E-2,1.125212908E0
2.474484918E0,4.586067200E-1,-1.362228394E-1,1.186299443E0
2.479240230E0,3.590357602E-1,-2.693913579E-1,1.234557748E0
2.483995543E0,2.258672565E-1,-4.361574650E-1,1.263879180E0
2.488750803E0,5.360338464E-2,-6.432406306E-1,1.280372620E0
2.493506116E0,-1.510363221E-1,-8.875865340E-1,1.283426881E0
2.498261428E0,-3.733910918E-1,-1.142317176E0,1.275485635E0
2.503016688E0,-5.896372199E-1,-1.365282774E0,1.251661897E0
2.507772001E0,-7.625119686E-1,-1.536935806E0,1.199127555E0
2.512527261E0,-8.449786901E-1,-1.638339281E0,1.105054379E0
2.517282574E0,-7.893900275E-1,-1.650556684E0,9.511164427E-1
2.522037886E0,-5.871937871E-1,-1.643837094E0,7.305942774E-1
2.526793147E0,-2.591593862E-1,-1.658497930E0,4.691441655E-1
2.531548459E0,1.641699076E-1,-1.691484571E0,2.034179717E-1
2.536303772E0,6.235402226E-1,-1.787390351E0,-1.160643063E-2
2.541059032E0,1.048702121E0,-1.974314928E0,-1.301141977E-1
2.545814345E0,1.367573500E0,-2.152076721E0,-1.551596522E-1
2.550569605E0,1.525787473E0,-2.122144222E0,-9.346231073E-2
2.555324918E0,1.515402794E0,-1.842979074E0,1.081230640E-1
2.560080230E0,1.365130067E0,-1.360395908E0,4.636463821E-1
2.564835491E0,1.144607902E0,-6.829468012E-1,9.498947263E-1
2.569590803E0,9.191987514E-1,4.398226365E-2,1.499062181E0
2.574346116E0,7.463240623E-1,7.984002829E-1,1.980423570E0
2.579101376E0,6.314814687E-1,1.543655276E0,2.251036644E0
2.583856688E0,5.795579553E-1,2.165515661E0,2.219882727E0
2.588611949E0,6.003273726E-1,2.639546633E0,1.918115377E0
2.593367261E0,6.803506613E-1,3.032332659E0,1.449582100E0
2.598122574E0,7.884737253E-1,3.392132044E0,9.138537049E-1
2.602877834E0,8.837686181E-1,3.692066669E0,4.025598764E-1
2.607633147E0,9.369138479E-1,3.883878231E0,-1.466075517E-2
2.612388459E0,9.448550940E-1,3.944964647E0,-3.109301627E-1
2.617143720E0,9.216422439E-1,3.880213022E0,-4.929678738E-1
2.621899032E0,8.825469017E-1,3.682292938E0,-5.821541548E-1
2.626654293E0,8.312342763E-1,3.332267284E0,-6.004800797E-1
2.631409605E0,7.884737253E-1,2.828914881E0,-5.626064539E-1
2.636164918E0,7.701478004E-1,2.210719585E0,-4.795288444E-1
2.640920178E0,7.841976881E-1,1.550985694E0,-3.720166385E-1
2.645675491E0,8.165735006E-1,9.608902931E-1,-2.602283955E-1
2.650430803E0,8.202387094E-1,5.510000587E-1,-1.301141977E-1
2.655186063E0,6.956222653E-1,3.262017965E-1,6.047561392E-2
2.659941376E0,3.046688139E-1,1.313359290E-1,3.921751976E-1
2.664696636E0,-3.984365463E-1,-2.205221802E-1,9.071341753E-1
2.669451949E0,-1.273194909E0,-6.927206516E-1,1.504559994E0
2.674207261E0,-1.929263711E0,-9.993748069E-1,1.954767346E0
2.678962522E0,-2.111301422E0,-9.999856353E-1,2.118479013E0
2.683717834E0,-1.789375663E0,-7.751874328E-1,1.985921383E0
2.688473147E0,-1.174234867E0,-5.357283950E-1,1.658497930E0
2.693228407E0,-5.902481079E-1,-4.605920315E-1,1.262046576E0
2.697983720E0,-2.005163580E-1,-5.742129087E-1,8.472694755E-1
2.702738980E0,6.459894776E-2,-8.087849617E-1,3.946186602E-1
2.707494293E0,3.016144931E-1,-1.156367064E0,-9.346231073E-2
2.712249605E0,5.270236135E-1,-1.679878116E0,-5.919279456E-1
2.717004866E0,7.157807946E-1,-2.448956966E0,-1.048854828E0
2.721760178E0,8.287907839E-1,-3.426951408E0,-1.399491191E0
2.726515438E0,8.135191798E-1,-4.421439171E0,-1.568089843E0
2.731270751E0,6.363683939E-1,-5.185631275E0,-1.458134174E0
2.736026063E0,3.211621642E-1,-5.579638958E0,-1.012813807E0
2.740781324E0,-4.780016840E-2,-5.656607628E0,-3.115410507E-1
2.745536636E0,-3.617846668E-1,-5.572308540E0,4.636463821E-1
2.750291949E0,-5.664243698E-1,-5.404931545E0,1.116660833E0
2.755047209E0,-6.714931130E-1,-5.143481255E0,1.560759544E0
2.759802522E0,-7.032580972E-1,-4.773908138E0,1.828318238E0
2.764557782E0,-6.183478832E-1,-4.163043499E0,1.976758480E0
2.769313095E0,-4.314232469E-1,-3.298669815E0,2.045786142E0
2.774068407E0,-2.377791107E-1,-2.419024467E0,2.046396971E0
2.778823668E0,-6.918043643E-2,-1.635895848E0,1.991419196E0
2.783578980E0,5.421425030E-2,-9.938769937E-1,1.910174131E0
2.788334293E0,1.262962967E-1,-5.064069033E-1,1.825874805E0
2.793089553E0,1.507308781E-1,-1.521053314E-1,1.746462345E0
2.797844866E0,1.379027218E-1,1.117882580E-1,1.686597705E0
2.802600126E0,1.183550507E-1,2.834412456E-1,1.614515662E0
2.807355438E0,1.018617004E-1,4.043924809E-1,1.531437993E0
2.812110751E0,8.170316368E-2,5.100721121E-1,1.448360443E0
2.816866011E0,5.360338464E-2,6.078104377E-1,1.357341528E0
2.821621324E0,1.695149764E-2,7.055488229E-1,1.264490128E0
2.826376636E0,-3.619373962E-2,8.075632453E-1,1.171027780E0
2.831131897E0,-1.113301069E-1,9.095776677E-1,1.079398036E0
2.835887209E0,-2.109010667E-1,1.005483389E0,9.957095981E-1
2.840642470E0,-3.239110410E-1,1.081841469E0,9.236275554E-1
2.845397782E0,-4.387536347E-1,1.133764982E0,8.655954003E-1
2.850153095E0,-5.554288030E-1,1.154534459E0,8.234457374E-1
2.854908355E0,-6.653844714E-1,1.143538833E0,7.947350740E-1
2.859663668E0,-7.680097222E-1,1.092837095E0,7.800742984E-1
2.864418928E0,-8.743002415E-1,9.767727852E-1,7.800742984E-1
2.869174241E0,-9.866993427E-1,8.069523573E-1,8.106175661E-1
2.873929553E0,-1.094822407E0,6.029235125E-1,8.741474748E-1
2.878684813E0,-1.198058605E0,3.524689674E-1,9.755510688E-1
2.883440126E0,-1.285412192E0,7.574722916E-2,1.117882490E0
2.888195386E0,-1.328172803E0,-2.199113220E-1,1.276707411E0
2.892950699E0,-1.296407819E0,-5.430588126E-1,1.426369309E0
2.897706011E0,-1.164461017E0,-8.460476995E-1,1.529605389E0
2.902461272E0,-9.372192621E-1,-1.065348148E0,1.550374866E0
2.907216584E0,-6.421716213E-1,-1.166751742E0,1.497229576E0
2.911971897E0,-3.147480786E-1,-1.149647474E0,1.396436930E0
2.916727157E0,3.527744114E-2,-1.004261732E0,1.260824919E0
2.921482470E0,3.889681399E-1,-7.422007322E-1,1.109330416E0
2.926237730E0,7.267763615E-1,-4.062250853E-1,9.602794051E-1
2.930993043E0,1.030987024E0,-2.138026804E-2,8.271108866E-1
2.935748355E0,1.295491457E0,3.903425932E-1,7.110465765E-1
2.940503616E0,1.517235398E0,8.014546037E-1,6.114756465E-1
2.945258928E0,1.699273109E0,1.195462346E0,5.283980370E-1
2.950014188E0,1.847102404E0,1.552818298E0,4.624246359E-1
2.954769501E0,1.963777542E0,1.860694170E0,4.208858311E-1
2.959524813E0,2.054796457E0,2.146578789E0,4.062250853E-1
2.964280074E0,2.118326426E0,2.394589901E0,4.245510101E-1
2.969035386E0,2.152534723E0,2.561356068E0,4.831940532E-1
2.973790647E0,2.158032656E0,2.633438110E0,5.723803043E-1
2.978545959E0,2.130543709E0,2.631605387E0,6.798924804E-1
2.983301272E0,2.073122263E0,2.589455843E0,7.941241860E-1
2.988056532E0,1.994931698E0,2.525315046E0,9.101884961E-1
2.992811845E0,1.895971537E0,2.437350512E0,1.016479015E0
2.997567105E0,1.780518174E0,2.320675373E0,1.109330416E0
3.002322418E0,1.653458238E0,2.169180870E0,1.192408085E0
3.007077730E0,1.520900607E0,2.000582218E0,1.276096582E0
3.011832991E0,1.386510372E0,1.830150843E0,1.363450170E0
3.016588303E0,1.250898361E0,1.673158646E0,1.461799383E0
3.021343563E0,1.121394992E0,1.523496747E0,1.573587656E0
3.026098876E0,9.992220402E-1,1.383608699E0,1.695149779E0
3.030854188E0,8.776599765E-1,1.251051068E0,1.814268351E0
3.035609449E0,7.646499872E-1,1.112384796E0,1.918115377E0
3.040364761E0,6.608029604E-1,9.529490471E-1,2.006690741E0
3.045120022E0,5.667297840E-1,7.684679031E-1,2.081827164E0
3.049875334E0,4.842630625E-1,5.668824911E-1,2.143524408E0
3.054630647E0,4.158461988E-1,3.506363928E-1,2.186895847E0
3.059385907E0,3.627009690E-1,1.307250559E-1,2.214995623E0
3.064141220E0,3.236056268E-1,-7.941242307E-2,2.222936869E0
3.068896480E0,2.985601723E-1,-2.687804997E-1,2.212552309E0
3.073651793E0,2.961167097E-1,-4.147771895E-1,2.185063362E0
3.078407105E0,3.462076187E-1,-4.502073526E-1,2.144746304E0
3.083162366E0,4.799869955E-1,-2.803869247E-1,2.094655275E0
3.087917678E0,4.793761373E-1,1.606574357E-1,2.014021158E0
3.092672938E0,-5.755873322E-1,1.415984511E0,1.659108758E0
3.097428251E0,-1.625053048E0,3.068373680E0,1.160643101E0
3.102183563E0,-1.924376726E0,3.875326157E0,9.077450633E-1
3.106938824E0,-1.649487615E0,3.906480312E0,9.480621219E-1
3.111694136E0,-1.220660567E0,3.503920317E0,1.131321549E0
3.116449397E0,-8.071050644E-1,2.881449223E0,1.326798320E0
3.121204709E0,-4.857902229E-1,2.150243998E0,1.473405838E0
3.125960022E0,-2.664897740E-1,1.386052132E0,1.537546635E0
3.130715282E0,-1.430950761E-1,6.377428174E-1,1.521664143E0
3.135470595E0,-8.994983882E-2,1.832594397E-3,1.431256175E0
3.140225855E0,-8.811724186E-2,-4.056142271E-1,1.281594276E0
3.144981168E0,-1.149952933E-1,-5.204567909E-1,1.095891356E0
3.149736480E0,-1.687513888E-1,-3.310887218E-1,8.826996088E-1
3.154491741E0,-2.536616027E-1,1.191186309E-1,6.530144215E-1
3.159247053E0,-3.788888752E-1,7.373138070E-1,4.184423685E-1
3.164002313E0,-5.804742575E-1,1.423925757E0,1.863137633E-1
3.168757626E0,-9.127846956E-1,2.097098827E0,-4.886918142E-2
3.173512938E0,-1.322064042E0,2.672533512E0,-2.687804997E-1
3.178268199E0,-1.711184978E0,3.073260784E0,-4.489856064E-1
3.183023511E0,-1.991571903E0,3.252243996E0,-5.772672296E-1
3.187778772E0,-2.140622854E0,3.221090078E0,-6.499601007E-1
3.192534084E0,-2.185826778E0,3.010341644E0,-6.866120100E-1
3.197289397E0,-2.171166182E0,2.652374983E0,-7.214313149E-1
3.202044657E0,-2.134514332E0,2.190561056E0,-7.739656568E-1
3.206799970E0,-2.102138519E0,1.682321548E0,-8.582650423E-1
3.211555230E0,-2.093586206E0,1.183855891E0,-9.865466356E-1
3.216310543E0,-2.108857870E0,7.525854111E-1,-1.165529966E0
3.221065803E0,-2.108857870E0,4.471530318E-1,-1.368947983E0
3.225821116E0,-2.012341261E0,2.700022459E-1,-1.552207351E0
3.230576428E0,-1.810145020E0,1.441640854E-1,-1.689041138E0
3.235331688E0,-1.575572968E0,-1.404988952E-2,-1.796553373E0
3.240087001E0,-1.364824653E0,-2.376264036E-1,-1.904065490E0
3.244842261E0,-1.186452150E0,-4.984656572E-1,-2.026849270E0
3.249597574E0,-1.025183797E0,-7.599157691E-1,-2.159406900E0
3.254352886E0,-8.584177494E-1,-1.006705165E0,-2.290742874E0
3.259108147E0,-7.081450224E-1,-1.239444613E0,-2.430630922E0
3.263863459E0,-5.884155035E-1,-1.442251801E0,-2.597397089E0
3.268618720E0,-5.004509687E-1,-1.606574416E0,-2.795317173E0
3.273374032E0,-4.497492015E-1,-1.704923630E0,-3.014617682E0
3.278129345E0,-4.326449931E-1,-1.729969025E0,-3.237583399E0
3.282884605E0,-4.497492015E-1,-1.700647593E0,-3.445277452E0
3.287639918E0,-4.955640435E-1,-1.632230639E0,-3.633423805E0
3.292395178E0,-5.633700490E-1,-1.525940180E0,-3.807520151E0
3.297150491E0,-6.519454122E-1,-1.372002244E0,-3.961458206E0
3.301905751E0,-7.557924390E-1,-1.155145288E0,-4.086685181E0
3.306661063E0,-8.706350327E-1,-8.729257584E-1,-4.183201790E0
3.311416376E0,-9.940297008E-1,-5.418370366E-1,-4.259560108E0
3.316171636E0,-1.129641652E0,-1.233946830E-1,-4.318813801E0
3.320926949E0,-1.260366797E0,3.885099888E-1,-4.356076717E0
3.325682209E0,-1.366657257E0,9.401208758E-1,-4.365239620E0
3.330437522E0,-1.447291374E0,1.472184062E0,-4.350578785E0
3.335192834E0,-1.505934358E0,2.000582218E0,-4.320035934E0
3.339948095E0,-1.526092887E0,2.587012291E0,-4.280940533E0
3.344703407E0,-1.491273642E0,3.241859436E0,-4.247953892E0
3.349458668E0,-1.394757032E0,3.871660948E0,-4.223518848E0
3.354214061E0,-1.241429925E0,4.408611298E0,-4.180758476E0
3.358969322E0,-1.036790252E0,4.855153084E0,-4.081187725E0
3.363724634E0,-7.845031023E-1,5.186852932E0,-3.918086767E0
3.368479947E0,-5.114465356E-1,5.364614487E0,-3.694510221E0
3.373235207E0,-3.263545036E-1,5.216174126E0,-3.420842648E0
3.377990519E0,-3.788888752E-1,4.538725376E0,-3.123962402E0
3.382745780E0,-5.413789153E-1,3.492313862E0,-2.844797373E0
3.387501092E0,-5.432115197E-1,2.403752804E0,-2.609003544E0
3.392256353E0,-2.933678031E-1,1.526551127E0,-2.417191982E0
3.397011665E0,1.269071549E-1,8.869756460E-1,-2.241873741E0
3.401766978E0,6.101012230E-1,3.995055556E-1,-2.060446978E0
3.406522238E0,1.078023672E0,-1.282816008E-2,-1.862526655E0
3.411277551E0,1.484248757E0,-3.995055556E-1,-1.655443549E0
3.416032811E0,1.796400547E0,-7.751874328E-1,-1.450192928E0
3.420788124E0,2.002872944E0,-1.134986758E0,-1.255327106E0
3.425543436E0,2.101833105E0,-1.464853764E0,-1.075121999E0
3.430298697E0,2.116493702E0,-1.754403591E0,-9.083559513E-1
3.435054009E0,2.070678949E0,-1.977980137E0,-7.568614483E-1
3.439809269E0,1.980270863E0,-2.116646528E0,-6.249146461E-1
3.444564582E0,1.864817500E0,-2.144135475E0,-5.112938285E-1
3.449319842E0,1.742644548E0,-2.033568859E0,-4.153880477E-1
3.454075155E0,1.616806388E0,-1.808770657E0,-3.402516842E-1
3.458830467E0,1.509904981E0,-1.538157463E0,-2.968802750E-1
3.463585728E0,1.433546901E0,-1.266322732E0,-2.858847082E-1
3.468341040E0,1.391397238E0,-1.021365881E0,-2.993237376E-1
3.473096301E0,1.378569126E0,-8.155044913E-1,-3.292561173E-1
3.477851613E0,1.390786409E0,-6.566796303E-1,-3.726275265E-1
3.482606874E0,1.418275356E0,-5.332849622E-1,-4.294379354E-1
3.487362186E0,1.456759810E0,-4.355465770E-1,-4.935787320E-1
3.492117447E0,1.500742078E0,-3.506363928E-1,-5.503891706E-1
3.496872759E0,1.547778606E0,-2.681696415E-1,-5.876519084E-1
3.501628072E0,1.589317441E0,-1.661552191E-1,-5.852084756E-1
3.506383332E0,1.616806388E0,-3.726275265E-2,-5.369501114E-1
3.511138644E0,1.623525858E0,1.185077652E-1,-4.550942481E-1
3.515893905E0,1.613141179E0,2.809978127E-1,-3.524689674E-1
3.520649217E0,1.592982650E0,4.129445851E-1,-2.382372618E-1
3.525404478E0,1.561828494E0,4.886918366E-1,-1.197294965E-1
3.530159790E0,1.511126757E0,4.893026948E-1,8.552107029E-3
3.534915103E0,1.441488147E0,4.019490182E-1,1.521053314E-1
3.539670363E0,1.359632254E0,2.211330533E-1,3.078758419E-1
3.544425676E0,1.278387308E0,-3.787361458E-2,4.703658819E-1
3.549180936E0,1.205083489E0,-3.396408260E-1,6.352993846E-1
3.553936249E0,1.150716543E0,-6.469057798E-1,7.947350740E-1
3.558691509E0,1.117729783E0,-9.358448386E-1,9.505056143E-1
3.563446822E0,1.099403858E0,-1.196073294E0,1.099556565E0
3.568202082E0,1.084132314E0,-1.438586593E0,1.252883673E0
3.572957394E0,1.060308576E0,-1.676212907E0,1.413541079E0
3.577712707E0,1.013271928E0,-1.915671945E0,1.581528902E0
3.582467967E0,9.393573403E-1,-2.150854826E0,1.748905897E0
3.587223280E0,8.434515595E-1,-2.367100954E0,1.905287266E0
3.591978540E0,7.279980779E-1,-2.545473576E0,2.034790516E0
3.596733853E0,6.088794470E-1,-2.686583281E0,2.120922565E0
3.601489113E0,4.909825623E-1,-2.770271778E0,2.158185244E0
3.606244426E0,3.834703565E-1,-2.792262793E0,2.156352758E0
3.610999686E0,3.052796721E-1,-2.769660950E0,2.124587774E0
3.615754999E0,2.533561587E-1,-2.717737436E0,2.078161955E0
3.620510311E0,2.160934210E-1,-2.629772902E0,2.027460098E0
3.625265572E0,1.678351015E-1,-2.462395906E0,1.983477950E0
3.630020884E0,5.849030241E-2,-2.169791698E0,1.941328287E0
3.634776144E0,-1.748600453E-1,-1.731190801E0,1.885739565E0
3.639531457E0,-5.297724605E-1,-1.199738383E0,1.796553373E0
3.644286769E0,-9.378301501E-1,-6.896663308E-1,1.653000116E0
3.649042030E0,-1.282357931E0,-3.457494676E-1,1.447749496E0
3.653797342E0,-1.359326839E0,-3.805687428E-1,1.229059935E0
3.658552603E0,-9.378301501E-1,-1.039080977E0,1.089171886E0
3.663307915E0,-8.139773458E-2,-2.298684120E0,1.012813807E0
3.668063176E0,8.935424685E-1,-3.822791815E0,8.833104968E-1
3.672818488E0,1.706603527E0,-5.018254280E0,6.597339511E-1
3.677573749E0,2.179412842E0,-5.050630093E0,3.347539008E-1
3.682329061E0,2.248440504E0,-3.977340460E0,9.773836471E-3
3.687084374E0,2.033416033E0,-2.508821726E0,-9.773836285E-2
3.691839634E0,1.662621260E0,-1.000596523E0,5.742128938E-2
3.696594947E0,1.244789720E0,2.797760665E-1,3.842339516E-1
3.701350207E0,8.507819176E-1,1.190575480E0,6.841685772E-1
3.706105519E0,5.276344419E-1,1.781281710E0,7.990111113E-1
3.710860780E0,2.997818887E-1,2.234543324E0,7.061597109E-1
3.715616092E0,1.776089370E-1,2.687804937E0,4.502073526E-1
3.720371353E0,1.623373181E-1,3.186881542E0,1.233946830E-1
3.725126665E0,2.325867712E-1,3.737881660E0,-1.942549944E-1
3.729881978E0,3.419315517E-1,4.304153442E0,-4.550942481E-1
3.734637238E0,4.696022868E-1,4.791623116E0,-6.432406306E-1
3.739392551E0,6.094903350E-1,5.119046688E0,-7.703005075E-1
3.744147811E0,7.591522336E-1,5.261989117E0,-8.478803039E-1
3.748903124E0,9.161444306E-1,5.260767460E0,-8.924734592E-1
3.753658384E0,1.053588986E0,5.240609169E0,-9.181297421E-1
3.758413697E0,1.059697628E0,5.452579021E0,-9.364557266E-1
3.763169009E0,5.801688433E-1,6.029846191E0,-8.857539296E-1
3.767924269E0,-3.666715920E-1,6.454397202E0,-7.128791809E-1
3.772679582E0,-1.245095134E0,6.356048107E0,-5.931497216E-1
3.777434842E0,-1.698356748E0,5.738463879E0,-6.126973629E-1
3.782190155E0,-1.655596256E0,4.569268703E0,-7.330377102E-1
3.786945415E0,-1.276249290E0,2.983463526E0,-8.759800792E-1
3.791700728E0,-8.187115192E-1,1.160643101E0,-9.932661057E-1
3.796455988E0,-4.075995386E-1,-7.843503952E-1,-1.062293887E0
3.801211301E0,-1.527161949E-4,-2.482554436E0,-1.096502304E0
3.805966561E0,3.877464235E-1,-3.494757414E0,-1.092226267E0
3.810721874E0,6.754637361E-1,-3.875936985E0,-1.042135358E0
3.815477186E0,8.177952170E-1,-3.889986992E0,-9.535599351E-1
3.820232447E0,8.642209172E-1,-3.778809547E0,-8.460476995E-1
3.824987759E0,8.312342763E-1,-3.649917126E0,-7.293725610E-1
3.829743019E0,7.341067195E-1,-3.535074472E0,-5.925388336E-1
3.834498332E0,5.850557685E-1,-3.409236431E0,-4.410443604E-1
3.839253592E0,3.932442069E-1,-3.232085466E0,-2.944368124E-1
3.844008905E0,1.757763475E-1,-2.996902704E0,-1.643226296E-1
3.848764165E0,-5.513054505E-2,-2.706741810E0,-6.414080411E-2
3.853519478E0,-2.927569449E-1,-2.368322849E0,6.108647678E-3
3.858274790E0,-5.297724605E-1,-1.992030025E0,4.703658819E-2
3.863030051E0,-7.631227970E-1,-1.573587656E0,7.391463965E-2
3.867785363E0,-9.873101711E-1,-1.117882490E0,1.038470119E-1
3.872540624E0,-1.196226001E0,-6.682860851E-1,1.423314959E-1
3.877295936E0,-1.375209332E0,-2.877173126E-1,1.979201883E-1
3.882051197E0,-1.516929984E0,1.954767294E-2,2.687804997E-1
3.886806509E0,-1.624442220E0,2.748891413E-1,3.543015718E-1
3.891561769E0,-1.699578524E0,5.027416945E-1,4.538725317E-1
3.896317082E0,-1.749058604E0,7.153226733E-1,5.674933791E-1
3.901072342E0,-1.778990984E0,9.175189137E-1,6.988292933E-1
3.905827655E0,-1.791208267E0,1.116050005E0,8.393282294E-1
3.910582967E0,-1.793040872E0,1.303585410E0,9.737184644E-1
3.915338228E0,-1.783877850E0,1.470962405E0,1.089171886E0
3.920093540E0,-1.759443283E0,1.615126491E0,1.179579854E0
3.924848801E0,-1.723402262E0,1.737299442E0,1.243720651E0
3.929604113E0,-1.675754786E0,1.833205223E0,1.281594276E0
3.934359374E0,-1.624442220E0,1.895513415E0,1.296255112E0
3.939114686E0,-1.580459952E0,1.908341527E0,1.289535522E0
3.943869947E0,-1.553581834E0,1.843589902E0,1.275485635E0
3.948625259E0,-1.540142775E0,1.689651966E0,1.262046576E0
3.953380519E0,-1.537088513E0,1.453247309E0,1.256548882E0
3.958135832E0,-1.538921118E0,1.132543325E0,1.260824919E0
3.962891092E0,-1.531590700E0,7.183769941E-1,1.277929068E0
3.967646405E0,-1.505934358E0,2.076940238E-1,1.313970089E0
3.972401665E0,-1.455232620E0,-3.958403766E-1,1.372002244E0
3.977156978E0,-1.359326839E0,-1.085506678E0,1.450803876E0
3.981912290E0,-1.209664941E0,-1.789222956E0,1.542433619E0
3.986667551E0,-1.008690476E0,-2.398865938E0,1.630398154E0
3.991422863E0,-7.716749310E-1,-2.879005671E0,1.704312682E0
3.996178124E0,-5.120574236E-1,-3.245524645E0,1.763566613E0
4.000933436E0,-2.420551628E-1,-3.507585526E0,1.804494500E0
4.005688697E0,3.344484791E-2,-3.668242931E0,1.832594395E0
4.010444009E0,3.058905303E-1,-3.717723131E0,1.856418014E0
4.015199269E0,5.795579553E-1,-3.657858372E0,1.882074356E0
4.019954582E0,8.477275968E-1,-3.513694286E0,1.908952475E0
4.024709842E0,1.106734276E0,-3.312108755E0,1.928500056E0
4.029465155E0,1.349858403E0,-3.059821606E0,1.940717459E0
4.034220467E0,1.568548083E0,-2.761719704E0,1.943160892E0
4.038975728E0,1.743255377E0,-2.445902586E0,1.932165265E0
4.043731040E0,1.866039157E0,-2.159406900E0,1.904065490E0
4.048486301E0,1.939342976E0,-1.934608698E0,1.866191864E0
4.053241613E0,1.962555766E0,-1.766620994E0,1.824653149E0
4.057996874E0,1.941786408E0,-1.637117624E0,1.789222956E0
4.062752186E0,1.879478216E0,-1.521664143E0,1.761734009E0
4.067507447E0,1.779296398E0,-1.393382549E0,1.750738502E0
4.072262759E0,1.642462730E0,-1.241888046E0,1.759901404E0
4.077018019E0,1.479972601E0,-1.100778341E0,1.784946918E0
4.081773332E0,1.306487083E0,-9.847140312E-1,1.824042201E0
4.086528592E0,1.137888312E0,-9.010255337E-1,1.874133110E0
4.091283905E0,9.870047569E-1,-8.509346247E-1,1.929721832E0
4.096039165E0,8.568905592E-1,-8.210022449E-1,1.981034517E0
4.100794478E0,7.457131743E-1,-7.929024696E-1,2.029903650E0
4.105549738E0,6.553052068E-1,-7.470875978E-1,2.069609880E0
4.110305051E0,5.820014477E-1,-6.835576892E-1,2.094655275E0
4.115060363E0,5.337430835E-1,-6.047561169E-1,2.102596521E0
4.119815624E0,5.074759126E-1,-5.192350745E-1,2.093433619E0
4.124570936E0,5.031998754E-1,-4.410443604E-1,2.070220709E0
4.129326197E0,5.227475166E-1,-3.652971387E-1,2.034790516E0
4.134081509E0,5.618428588E-1,-2.858847082E-1,1.985921383E0
4.138836769E0,6.155989766E-1,-1.979201883E-1,1.929111004E0
4.143592082E0,6.821832657E-1,-8.491020650E-2,1.870467901E0
4.148347342E0,7.615956664E-1,5.131264031E-2,1.811824918E0
4.153102655E0,8.562797308E-1,2.101374865E-1,1.750738502E0
4.157857915E0,9.644027948E-1,3.982838392E-1,1.690873742E0
4.162613228E0,1.082910538E0,6.285798550E-1,1.627954602E0
4.167368488E0,1.198974848E0,9.193515182E-1,1.562592149E0
4.172123801E0,1.306487083E0,1.276707411E0,1.492953539E0
4.176879061E0,1.398116708E0,1.678045511E0,1.418428063E0
4.181634374E0,1.481805205E0,2.101374865E0,1.346956849E0
4.186389686E0,1.570380688E0,2.527147532E0,1.284648657E0
4.191144947E0,1.671173334E0,2.957807302E0,1.235168576E0
4.195900259E0,1.777463794E0,3.394575596E0,1.200960159E0
4.200655519E0,1.869093537E0,3.835009098E0,1.188742876E0
4.205410832E0,1.924071312E0,4.268112183E0,1.204625368E0
4.210166092E0,1.791513681E0,4.716486931E0,1.255937934E0
4.214921405E0,6.498073936E-1,5.134318352E0,1.317024469E0
4.219676665E0,-1.176067472E0,5.141037941E0,1.352454662E0
4.224431978E0,-2.120464325E0,4.903411388E0,1.366504550E0
4.229187238E0,-2.113133907E0,4.678002357E0,1.361617565E0
4.233942551E0,-1.691637278E0,4.403724194E0,1.342069864E0
4.238697811E0,-1.168126225E0,3.973064423E0,1.303585410E0
4.243453124E0,-6.989820004E-1,3.367086649E0,1.217453480E0
4.248208384E0,-3.452913165E-1,2.641379356E0,1.069624186E0
4.252963697E0,-9.605848789E-2,1.786779523E0,8.949168921E-1
4.257718957E0,4.871646687E-2,8.558215499E-1,7.232639194E-1
4.262474269E0,9.269873053E-2,-2.504545636E-2,5.668824911E-1
4.267229530E0,5.299251899E-2,-7.257073522E-1,4.361574650E-1
4.271984842E0,-3.985892609E-2,-1.142317176E0,3.280344009E-1
4.276740155E0,-1.620318890E-1,-1.236390352E0,2.388481349E-1
4.281495415E0,-3.019199073E-1,-1.035415769E0,1.582139730E-1
4.286250728E0,-4.528035223E-1,-6.310232878E-1,8.857539296E-2
4.291005988E0,-6.244565248E-1,-1.380554438E-1,1.893680729E-2
4.295761249E0,-8.474221826E-1,3.145953715E-1,-5.681042373E-2
4.300516561E0,-1.127198219E0,6.291907430E-1,-1.398880333E-1
4.305271874E0,-1.414304733E0,8.448259830E-1,-2.186895907E-1
4.310027134E0,-1.599396706E0,1.041524410E0,-2.785543501E-1
4.314782447E0,-1.612224817E0,1.233946800E0,-3.133736253E-1
4.319537707E0,-1.480888963E0,1.359174132E0,-3.268126547E-1
4.324293019E0,-1.289688230E0,1.338404775E0,-3.347539008E-1
4.329048280E0,-1.109483123E0,1.146593213E0,-3.610210717E-1
4.333803592E0,-9.793689847E-1,8.148936033E-1,-4.159989059E-1
4.338558853E0,-9.005674124E-1,4.184423685E-1,-4.996874034E-1
4.343314165E0,-8.688024282E-1,2.504545636E-2,-6.065887213E-1
4.348069426E0,-8.749110699E-1,-3.280344009E-1,-7.269290686E-1
4.352824738E0,-9.036217332E-1,-6.206386089E-1,-8.570432663E-1
4.357579999E0,-9.390518665E-1,-8.472694755E-1,-9.975422025E-1
4.362335311E0,-9.408844709E-1,-1.014646411E0,-1.142317176E0
4.367090572E0,-8.626937866E-1,-1.148425817E0,-1.273653030E0
4.371845884E0,-7.093667388E-1,-1.290757298E0,-1.388495684E0
4.376601144E0,-5.279398561E-1,-1.479514480E0,-1.500894785E0
4.381356457E0,-3.758345544E-1,-1.729969025E0,-1.627954602E0
4.386111717E0,-2.945895493E-1,-2.023795128E0,-1.779449105E0
4.390867030E0,-2.756527364E-1,-2.323118687E0,-1.949880362E0
4.395622290E0,-2.499964088E-1,-2.589455843E0,-2.123365879E0
4.400377603E0,-1.766926348E-1,-2.801425934E0,-2.293186426E0
4.405132863E0,-5.940660089E-2,-2.955974579E0,-2.466061115E0
4.409888176E0,6.826414168E-2,-3.035997868E0,-2.644433737E0
4.414643436E0,1.757763475E-1,-3.029278517E0,-2.812421560E0
4.419398749E0,2.417497337E-1,-2.946200848E0,-2.952920437E0
4.424154009E0,2.551887631E-1,-2.804480314E0,-3.050047874E0
4.428909322E0,2.203694731E-1,-2.617555618E0,-3.098917007E0
4.433664582E0,1.372918636E-1,-2.389092207E0,-3.108690977E0
4.438419894E0,2.183841541E-2,-2.134972334E0,-3.101360559E0
4.443175155E0,-1.064431891E-1,-1.855196357E0,-3.105636597E0
4.447930467E0,-2.341139317E-1,-1.536935806E0,-3.140455723E0
4.452685728E0,-3.483456373E-1,-1.186299443E0,-3.219868183E0
4.457441040E0,-4.466948807E-1,-8.142827749E-1,-3.350593328E0
4.462196301E0,-5.401571989E-1,-4.202749729E-1,-3.532020092E0
4.466951613E0,-6.543889046E-1,3.420842811E-2,-3.751320601E0
4.471706874E0,-7.881683111E-1,5.674933791E-1,-3.985281706E0
4.476462186E0,-9.048434496E-1,1.128267288E0,-4.207636833E0
4.481217447E0,-9.812015295E-1,1.693317175E0,-4.400059223E0
4.485972759E0,-1.025183797E0,2.266308308E0,-4.549720764E0
4.490728019E0,-1.049007535E0,2.845408201E0,-4.646848202E0
4.495483332E0,-1.058170557E0,3.425118923E0,-4.671893597E0
4.500238592E0,-1.048396707E0,3.990168810E0,-4.605309486E0
4.504993905E0,-9.995275140E-1,4.519788265E0,-4.455036640E0
4.509749165E0,-8.975130916E-1,4.965108871E0,-4.243677616E0
4.514504478E0,-7.490729094E-1,5.287034512E0,-3.988336086E0
4.519259738E0,-5.633700490E-1,5.479456902E0,-3.715890408E0
4.524015051E0,-4.124864340E-1,5.417759895E0,-3.430616617E0
4.528770311E0,-4.509709179E-1,4.753139019E0,-3.117853880E0
4.533525624E0,-5.878046155E-1,3.379303932E0,-2.816086531E0
4.538280884E0,-5.951350331E-1,1.740964651E0,-2.592510223E0
4.543036197E0,-3.880518377E-1,5.375609994E-1,-2.461174250E0
4.547791457E0,-1.725693047E-2,-8.246674389E-2,-2.360992432E0
4.552546769E0,4.286743701E-1,-3.097084463E-1,-2.214995623E0
4.557302030E0,8.556688428E-1,-3.420842886E-1,-1.999360442E0
4.562057342E0,1.186757565E0,-3.158170879E-1,-1.737910271E0
4.566812603E0,1.377347350E0,-3.133736253E-1,-1.466075420E0
4.571567915E0,1.432325244E0,-3.634645343E-1,-1.216231823E0
4.576323176E0,1.389564633E0,-4.679224193E-1,-9.999856353E-1
4.581078488E0,1.312595725E0,-6.023126841E-1,-8.222240210E-1
4.585833749E0,1.250287533E0,-7.428115606E-1,-6.829468012E-1
4.590589061E0,1.216079116E0,-8.839213252E-1,-5.803215504E-1
4.595344322E0,1.200807452E0,-9.859357476E-1,-5.119046569E-1
4.600099634E0,1.191033602E0,-1.008537769E0,-4.783071280E-1
4.604854894E0,1.179427147E0,-9.627228975E-1,-4.697550237E-1
4.609610207E0,1.164155602E0,-8.668171167E-1,-4.770853817E-1
4.614365467E0,1.147051334E0,-7.489202023E-1,-4.960221946E-1
4.619120780E0,1.135444880E0,-6.395754218E-1,-5.192350745E-1
4.623876040E0,1.134223223E0,-5.601630211E-1,-5.381718874E-1
4.628631353E0,1.143386126E0,-5.119046569E-1,-5.485565662E-1
4.633386613E0,1.155603409E0,-4.929678738E-1,-5.528326035E-1
4.638141926E0,1.165377259E0,-5.021308661E-1,-5.497782826E-1
4.642897186E0,1.168431640E0,-5.302306414E-1,-5.424479246E-1
4.647652499E0,1.165377259E0,-5.705476999E-1,-5.345066786E-1
4.652407759E0,1.148273110E0,-6.181951761E-1,-5.265654325E-1
4.657163072E0,1.115897179E0,-6.633991599E-1,-5.125155449E-1
4.661918332E0,1.069471478E0,-6.670643687E-1,-4.856374860E-1
4.666673644E0,1.015104532E0,-6.017017961E-1,-4.459312856E-1
4.671428905E0,9.613484740E-1,-4.795288444E-1,-4.031707644E-1
4.676184217E0,9.130901098E-1,-3.249800503E-1,-3.622428179E-1
4.680939478E0,8.764382601E-1,-1.618791670E-1,-3.194822669E-1
4.685694790E0,8.434515595E-1,-1.588248461E-2,-2.651153207E-1
4.690450051E0,8.110756874E-1,1.050687432E-1,-2.015853822E-1
4.695205363E0,7.805324793E-1,1.930332631E-1,-1.288924664E-1
4.699960624E0,7.487674952E-1,2.321286201E-1,-4.214967042E-2
4.704715936E0,7.243329287E-1,2.272416949E-1,5.803215504E-2
4.709471197E0,7.108938694E-1,1.863137633E-1,1.649334878E-1
4.714226509E0,7.096721530E-1,1.233946830E-1,2.809978127E-1
4.718981769E0,7.231112123E-1,4.337139800E-2,4.068359435E-1
4.723737030E0,7.420479655E-1,-4.520399496E-2,5.418370366E-1
4.728492342E0,7.573196292E-1,-1.331685185E-1,6.866120100E-1
4.733247603E0,7.640390992E-1,-2.162461281E-1,8.332195878E-1
4.738002915E0,7.567087412E-1,-2.907716334E-1,9.822705388E-1
4.742758176E0,7.334958911E-1,-3.585776389E-1,1.144149780E0
4.747513488E0,6.907353401E-1,-4.178315103E-1,1.321300507E0
4.752268749E0,6.278162599E-1,-4.838049114E-1,1.500283957E0
4.757024061E0,5.422952175E-1,-5.668824911E-1,1.645669699E0
4.761779322E0,4.213439822E-1,-6.652317643E-1,1.742186308E0
4.766534634E0,2.448040545E-1,-7.623592615E-1,1.800829411E0
4.771289894E0,9.621120058E-3,-8.283326626E-1,1.831983447E0
4.776045207E0,-2.658788860E-1,-8.319978118E-1,1.836259484E0
4.780800467E0,-5.517635942E-1,-7.373138070E-1,1.818544507E0
4.785555780E0,-8.303179741E-1,-5.424479246E-1,1.775173068E0
4.790311040E0,-1.108872294E0,-3.292561173E-1,1.695760608E0
4.795066353E0,-1.367268085E0,-2.803869247E-1,1.574198484E0
4.799821613E0,-1.471725941E0,-6.615665555E-1,1.454469085E0
4.804576926E0,-1.207221508E0,-1.742186308E0,1.456912518E0
4.809332186E0,-5.713112950E-1,-3.442223072E0,1.582750678E0
4.814087499E0,2.270889878E-1,-5.385384083E0,1.741575480E0
4.818842759E0,9.472985864E-1,-6.929649830E0,1.882685304E0
4.823598072E0,1.439655542E0,-7.222254276E0,1.985310555E0
4.828353332E0,1.680947185E0,-6.462338448E0,2.089768410E0
4.833108592E0,1.770133376E0,-5.346288681E0,2.280358315E0
4.837863905E0,1.746309638E0,-4.185034752E0,2.484997988E0
4.842619165E0,1.613141179E0,-3.118464708E0,2.593121052E0
4.847374478E0,1.397505879E0,-2.173456907E0,2.577238560E0
4.852129738E0,1.148883939E0,-1.367115378E0,2.460563421E0
4.856885051E0,9.149227142E-1,-6.847794056E-1,2.258367062E0
4.861640311E0,7.279980779E-1,-9.712749720E-2,1.984699726E0
4.866395624E0,5.844448805E-1,4.159989059E-1,1.653610945E0
4.871150884E0,4.860956371E-1,8.710931540E-1,1.294422507E0
4.875906197E0,4.207331240E-1,1.277929068E0,9.242383838E-1
4.880661457E0,3.975202441E-1,1.631008983E0,5.644390583E-1
4.885416769E0,4.213439822E-1,1.955989003E0,2.278525680E-1
4.890172030E0,4.989238083E-1,2.284634352E0,-6.597339362E-2
4.894927342E0,6.345357895E-1,2.646266222E0,-3.139844835E-1
4.899682603E0,8.208495378E-1,3.036608934E0,-5.167915821E-1
4.904437915E0,1.010828495E0,3.355480194E0,-7.006618977E-1
4.909193176E0,1.123227596E0,3.454440355E0,-9.071341753E-1
4.913948488E0,1.141553521E0,3.402516842E0,-1.158810496E0
4.918703749E0,1.049923897E0,3.499644279E0,-1.441030025E0
4.923459009E0,6.852375865E-1,4.307818413E0,-1.725692987E0
4.928214322E0,2.521344423E-1,5.137372971E0,-2.012799501E0
4.932969582E0,2.733619884E-2,5.230224133E0,-2.298073292E0
4.937724894E0,-5.574141070E-2,4.769632339E0,-2.533256292E0
4.942480155E0,-1.559232324E-1,4.063472748E0,-2.717737436E0
4.947235467E0,-4.607447684E-1,3.134347200E0,-2.795928001E0
4.951990728E0,-9.097303748E-1,2.056170940E0,-2.762941360E0
4.956746040E0,-1.213330150E0,1.014646411E0,-2.618166447E0
4.961501301E0,-1.161406636E0,6.169734150E-2,-2.328005791E0
4.966256613E0,-9.286671877E-1,-8.246674538E-1,-1.885128736E0
4.971011874E0,-7.057015300E-1,-1.420260668E0,-1.340848207E0
4.975767186E0,-5.206094980E-1,-1.783114314E0,-8.222240210E-1
4.980522447E0,-3.410152495E-1,-1.981645346E0,-4.428769648E-1
4.985277759E0,-1.773035079E-1,-2.051894903E0,-2.193004489E-1
4.990033019E0,-6.062832847E-2,-2.039677382E0,-1.185077652E-1
4.994788280E0,-1.298087649E-2,-1.995695233E0,-9.590577334E-2
4.999543592E0,-3.008509055E-2,-1.941939116E0,-1.099556610E-1
5.004298853E0,-9.422589093E-2,-1.864359260E0,-1.276707351E-1
5.009054165E0,-1.956294477E-1,-1.747684121E0,-1.392771751E-1
5.013809426E0,-3.202458620E-1,-1.593746185E0,-1.368337125E-1
5.018564738E0,-4.546361268E-1,-1.403156400E0,-1.172860414E-1
5.023319999E0,-5.816959739E-1,-1.164308310E0,-7.696896046E-2
5.028075311E0,-6.965385675E-1,-9.016364217E-1,-1.832594350E-2
5.032830572E0,-8.016073108E-1,-6.524035931E-1,6.414080411E-2
5.037585884E0,-8.981239200E-1,-4.520399272E-1,1.734855920E-1
5.042341144E0,-9.848667383E-1,-2.993237376E-1,3.029889166E-1
5.047096457E0,-1.068555236E0,-1.808159798E-1,4.447095692E-1
5.051851717E0,-1.154076338E0,-9.285144508E-2,5.870410800E-1
5.056607030E0,-1.245705962E0,-3.115410358E-2,7.238747478E-1
5.061362290E0,-1.343444347E0,1.832594350E-2,8.350521326E-1
5.066117551E0,-1.450345755E0,5.436696485E-2,9.083559513E-1
5.070872863E0,-1.560301304E0,7.635809481E-2,9.511164427E-1
5.075628124E0,-1.665370107E0,8.613193035E-2,9.724967480E-1
5.080383436E0,-1.771049738E0,7.880155742E-2,9.920443892E-1
5.085138697E0,-1.873064160E0,4.337139800E-2,1.009148598E0
5.089894009E0,-1.967137337E0,-1.954767294E-2,1.036026716E0
5.094649269E0,-2.047771454E0,-1.105665267E-1,1.074511170E0
5.099404582E0,-2.107025385E0,-2.327394783E-1,1.125212908E0
5.104159842E0,-2.116799116E0,-4.037816226E-1,1.183855891E0
5.108915155E0,-2.056323528E0,-6.444623470E-1,1.244331598E0
5.113670415E0,-1.921933293E0,-9.731075764E-1,1.306639791E0
5.118425676E0,-1.714850187E0,-1.423925757E0,1.375667453E0
5.123180988E0,-1.437517524E0,-1.926667571E0,1.455690742E0
5.127936249E0,-1.104596257E0,-2.343888044E0,1.545487881E0
5.132691561E0,-7.331904769E-1,-2.652374983E0,1.642004490E0
5.137446822E0,-3.184132576E-1,-2.894888163E0,1.745851517E0
5.142202134E0,1.262962967E-1,-3.056156397E0,1.846033335E0
5.146957394E0,5.795579553E-1,-3.112967014E0,1.935219646E0
5.151712707E0,1.019991517E0,-3.060432434E0,2.015242815E0
5.156467967E0,1.429881692E0,-2.918101072E0,2.083659649E0
5.161223228E0,1.801898360E0,-2.715904713E0,2.142302752E0
5.165978540E0,2.123213291E0,-2.474613190E0,2.190561056E0
5.170733801E0,2.382220030E0,-2.244317293E0,2.224158764E0
5.175489113E0,2.584416151E0,-2.078161955E0,2.238819361E0
5.180244374E0,2.730412960E0,-1.980423570E0,2.238208532E0
5.184999686E0,2.816544771E0,-1.916893721E0,2.220493555E0
5.189754947E0,2.848920584E0,-1.864970207E0,2.190561056E0
5.194510259E0,2.830594778E0,-1.811824918E0,2.150854826E0
5.199265519E0,2.764621258E0,-1.735466838E0,2.110537767E0
5.204020832E0,2.651000500E0,-1.622456908E0,2.075718403E0
5.208776092E0,2.496451616E0,-1.474016666E0,2.053727388E0
5.213531353E0,2.312581301E0,-1.314581037E0,2.042731762E0
5.218286665E0,2.117104530E0,-1.175914645E0,2.042120934E0
5.223041926E0,1.922849655E0,-1.073289394E0,2.043953657E0
5.227797238E0,1.741422772E0,-1.006705165E0,2.048840523E0
5.232552499E0,1.578932762E0,-9.608902931E-1,2.054338217E0
5.237307811E0,1.442098975E0,-9.193515182E-1,2.056781769E0
5.242063072E0,1.324813008E0,-8.704823256E-1,2.054949045E0
5.246818332E0,1.225852847E0,-8.118392825E-1,2.050673008E0
5.251573644E0,1.146440506E0,-7.403681278E-1,2.045175314E0
5.256328905E0,1.083521366E0,-6.603448391E-1,2.040899277E0
5.261084217E0,1.039539099E0,-5.797106624E-1,2.034179688E0
5.265839478E0,1.018158913E0,-4.905244112E-1,2.026849270E0
5.270594790E0,1.015715361E0,-3.762927055E-1,2.017075539E0
5.275350051E0,1.025489211E0,-2.290742993E-1,2.005469084E0
5.280105363E0,1.050534725E0,-4.276053607E-2,1.995084405E0
5.284860624E0,1.086575747E0,1.759290546E-1,1.984699726E0
5.289615936E0,1.130558014E0,4.306596816E-1,1.967595458E0
5.294371197E0,1.178816319E0,7.244856358E-1,1.943160892E0
5.299126457E0,1.231961489E0,1.047022223E0,1.905287266E0
5.303881769E0,1.303432703E0,1.440419197E0,1.854585528E0
5.308637030E0,1.389564633E0,2.070831537E0,1.800218463E0
5.313392342E0,8.764382601E-1,3.084867239E0,1.683543324E0
5.318147603E0,-3.513999581E-1,4.051866055E0,1.461188555E0
5.322902915E0,-1.267697096E0,4.530173302E0,1.290757298E0
5.327658176E0,-1.480278134E0,4.656622410E0,1.224783897E0
5.332413488E0,-1.290299177E0,4.566214085E0,1.241277218E0
5.337168749E0,-9.647082090E-1,4.251618862E0,1.310304999E0
5.341924009E0,-6.342303753E-1,3.712225199E0,1.375667453E0
5.346679322E0,-3.568977416E-1,2.999346018E0,1.403767228E0
5.351434582E0,-1.510363221E-1,2.177122116E0,1.386052132E0
5.356189894E0,-2.092211880E-2,1.298087597E0,1.322522283E0
5.360945155E0,3.711003438E-2,4.190532267E-1,1.216842651E0
5.365700415E0,3.894263133E-2,-3.885099888E-1,1.064737320E0
5.370455728E0,-7.635809598E-4,-1.031750560E0,8.765909672E-1
5.375210988E0,-6.307178736E-2,-1.448360443E0,6.927206516E-1
5.379966301E0,-1.345429718E-1,-1.632230639E0,5.485565662E-1
5.384721561E0,-2.102901936E-1,-1.586415887E0,4.563159943E-1
5.389476874E0,-2.842048407E-1,-1.337182999E0,4.068359435E-1
5.394232134E0,-3.550651670E-1,-9.291253090E-1,3.854556680E-1
5.398987394E0,-4.259254634E-1,-4.263836145E-1,3.762927055E-1
5.403742707E0,-4.986183643E-1,1.136208475E-1,3.628536761E-1
5.408497967E0,-5.743656158E-1,6.090322137E-1,3.384190798E-1
5.413253280E0,-6.433933377E-1,9.578359723E-1,2.987128794E-1
5.418008540E0,-6.885973215E-1,1.100778341E0,2.504545450E-1
5.422763853E0,-6.928733587E-1,1.059239507E0,1.991419196E-1
5.427519113E0,-6.470585465E-1,8.875865340E-1,1.429423541E-1
5.432274374E0,-5.511527658E-1,6.365211010E-1,7.819069177E-2
5.437029686E0,-4.167625010E-1,3.530798554E-1,-6.108647794E-4
5.441784947E0,-2.677114904E-1,6.719512492E-2,-9.957095981E-2
5.446540259E0,-1.540906429E-1,-2.083048970E-1,-2.278525680E-1
5.451295519E0,-1.553123742E-1,-4.673115611E-1,-3.915643096E-1
5.456050832E0,-3.318522871E-1,-6.847794056E-1,-5.803215504E-1
5.460806092E0,-6.751583219E-1,-7.929024696E-1,-7.666352987E-1
5.465561353E0,-1.056337953E0,-7.122683525E-1,-9.327905178E-1
5.470316665E0,-1.310457706E0,-4.514290690E-1,-1.075121999E0
5.475071926E0,-1.377652764E0,-9.529490769E-2,-1.200349331E0
5.479827238E0,-1.284801364E0,2.241873741E-1,-1.319467902E0
5.484582499E0,-1.105817914E0,3.830122054E-1,-1.438586593E0
5.489337811E0,-9.304997921E-1,3.310887218E-1,-1.568700790E0
5.494093072E0,-8.266527653E-1,8.429934084E-2,-1.714697480E0
5.498848332E0,-8.333722949E-1,-2.938259542E-1,-1.875965714E0
5.503603644E0,-9.488257170E-1,-7.238747478E-1,-2.043953657E0
5.508358905E0,-1.089324594E0,-1.145371437E0,-2.191171885E0
5.513114217E0,-1.146745920E0,-1.502116442E0,-2.290742874E0
5.517869478E0,-1.089935541E0,-1.759290576E0,-2.351218462E0
5.522624738E0,-9.524909258E-1,-1.904676437E0,-2.401309490E0
5.527380051E0,-7.881683111E-1,-1.944993496E0,-2.469115496E0
5.532135311E0,-6.275108457E-1,-1.900400281E0,-2.561966896E0
5.536890624E0,-4.931205809E-1,-1.805716276E0,-2.674976826E0
5.541645884E0,-3.868301213E-1,-1.698204041E0,-2.794706345E0
5.546401197E0,-3.196350038E-1,-1.607185245E0,-2.908327103E0
5.551156457E0,-2.823722363E-1,-1.537546635E0,-3.006676435E0
5.555911717E0,-2.762635946E-1,-1.456301689E0,-3.093419313E0
5.560667030E0,-3.104720116E-1,-1.334128737E0,-3.168555498E0
5.565422290E0,-3.758345544E-1,-1.156977892E0,-3.240026712E0
5.570177603E0,-4.540252388E-1,-9.248492718E-1,-3.324937105E0
5.574932863E0,-5.419898033E-1,-6.377428174E-1,-3.425729752E0
5.579688176E0,-6.348412037E-1,-3.109301627E-1,-3.558287382E0
5.584443436E0,-7.350230217E-1,4.764745384E-2,-3.730551243E0
5.589198697E0,-8.400917649E-1,4.282162189E-1,-3.928471327E0
5.593954009E0,-9.359975457E-1,8.246674538E-1,-4.119060993E0
5.598709269E0,-1.016631722E0,1.302363753E0,-4.292546749E0
5.603464582E0,-1.072831273E0,1.844811678E0,-4.444652081E0
5.608219842E0,-1.099098444E0,2.407418013E0,-4.555218697E0
5.612975103E0,-1.101541877E0,2.988350391E0,-4.600422859E0
5.617730415E0,-1.075885534E0,3.562563419E0,-4.546666622E0
5.622485676E0,-1.008690476E0,4.096459389E0,-4.384176731E0
5.627240988E0,-8.981239200E-1,4.572322845E0,-4.127613544E0
5.631996249E0,-7.478511930E-1,4.952280998E0,-3.803244114E0
5.636751509E0,-5.615374446E-1,5.261378288E0,-3.462992430E0
5.641506822E0,-3.397935331E-1,5.524661064E0,-3.141677618E0
5.646262082E0,-6.062832847E-2,5.713418484E0,-2.860679865E0
5.651017394E0,3.016144931E-1,5.774504662E0,-2.631605387E0
5.655772655E0,7.353284955E-1,5.625453949E0,-2.453233004E0
5.660527915E0,9.845613241E-1,4.916850567E0,-2.328005791E0
5.665283228E0,8.605557680E-1,3.424507856E0,-2.250425816E0
5.670038488E0,6.125446558E-1,1.755625367E0,-2.182008982E0
5.674793801E0,5.062541962E-1,4.966330528E-1,-2.075107574E0
5.679549061E0,5.954404473E-1,-3.066541255E-1,-1.902232885E0
5.684304322E0,8.269581795E-1,-7.996219993E-1,-1.648724079E0
5.689059634E0,1.111010313E0,-1.117271662E0,-1.357952356E0
5.693814894E0,1.366351843E0,-1.342680812E0,-1.083063245E0
5.698570207E0,1.540448308E0,-1.499673009E0,-8.503237963E-1
5.703325467E0,1.610697746E0,-1.587637544E0,-6.719512343E-1
5.708080728E0,1.575267553E0,-1.605963469E0,-5.589412451E-1
5.712836040E0,1.456759810E0,-1.542433619E0,-5.057960153E-1
5.717591301E0,1.309541345E0,-1.419038892E0,-4.978547990E-1
5.722346613E0,1.180038095E0,-1.266933560E0,-5.119046569E-1
5.727101874E0,1.090240955E0,-1.120936871E0,-5.247328281E-1
5.731857134E0,1.037706494E0,-1.001207352E0,-5.290089250E-1
5.736612447E0,1.014493704E0,-9.126319885E-1,-5.198459029E-1
5.741367707E0,1.013271928E0,-8.552106619E-1,-4.978547990E-1
5.746123019E0,1.026100159E0,-8.289434910E-1,-4.660898149E-1
5.750878280E0,1.041371703E0,-8.093958497E-1,-4.318813980E-1
5.755633540E0,1.057254195E0,-7.880155444E-1,-3.933969140E-1
5.760388853E0,1.069471478E0,-7.586940527E-1,-3.536907136E-1
5.765144113E0,1.078634501E0,-7.269290686E-1,-3.115410507E-1
5.769899426E0,1.080467105E0,-6.988292933E-1,-2.669478953E-1
5.774654686E0,1.075580120E0,-6.786707640E-1,-2.193004489E-1
5.779409947E0,1.062752008E0,-6.652317643E-1,-1.661552191E-1
5.784165259E0,1.043204308E0,-6.328558922E-1,-1.099556610E-1
5.788920519E0,1.018158913E0,-5.681042671E-1,-5.742128938E-2
5.793675780E0,9.918916821E-1,-4.758636653E-1,-1.160643063E-2
5.798431092E0,9.674571157E-1,-3.714057803E-1,2.809977904E-2
5.803186353E0,9.466876984E-1,-2.583957911E-1,6.169734150E-2
5.807941665E0,9.253074527E-1,-1.313359290E-1,9.590577334E-2
5.812696926E0,8.929315805E-1,4.276053514E-3,1.380554438E-1
5.817452186E0,8.495602012E-1,1.404989064E-1,1.924224049E-1
5.822207499E0,7.970257998E-1,2.626718581E-1,2.565632164E-1
5.826962759E0,7.402154207E-1,3.634645343E-1,3.347539008E-1
5.831718019E0,6.840158105E-1,4.428769648E-1,4.300487936E-1
5.836473332E0,6.308705807E-1,5.057960153E-1,5.467239618E-1
5.841228592E0,5.789470673E-1,5.534434915E-1,6.762273312E-1
5.845983905E0,5.294670463E-1,5.821541548E-1,8.106175661E-1
5.850739165E0,4.818195999E-1,5.870410800E-1,9.456186891E-1
5.855494426E0,4.360047281E-1,5.711585879E-1,1.081841469E0
5.860249738E0,3.840812445E-1,5.357283950E-1,1.227227330E0
5.865004999E0,3.193295598E-1,4.862483740E-1,1.378110886E0
5.869760311E0,2.386954129E-1,4.282162189E-1,1.527772784E0
5.874515572E0,1.354592592E-1,3.665188551E-1,1.658497930E0
5.879270832E0,2.290742937E-3,3.054323792E-1,1.745851517E0
5.884026144E0,-1.724165827E-1,2.700022459E-1,1.789833784E0
5.888781405E0,-3.892735839E-1,2.962694168E-1,1.800218463E0
5.893536665E0,-6.323977709E-1,4.141663313E-1,1.777005672E0
5.898291978E0,-8.639155030E-1,6.047561169E-1,1.720195174E0
5.903047238E0,-1.044120669E0,8.173370957E-1,1.634674191E0
5.907802499E0,-1.138193846E0,9.706641436E-1,1.523496747E0
5.912557811E0,-1.130863428E0,9.107993841E-1,1.401323795E0
5.917313072E0,-1.038622856E0,4.514290690E-1,1.312748432E0
5.922068384E0,-8.504765034E-1,-4.673115611E-1,1.298698545E0
5.926823644E0,-5.426006317E-1,-1.720195174E0,1.360395908E0
5.931578957E0,-1.333212405E-1,-3.117853880E0,1.474627614E0
5.936334217E0,2.857320011E-1,-4.486190796E0,1.605963469E0
5.941089478E0,6.388118267E-1,-5.654164314E0,1.731801629E0
5.945844738E0,8.684970140E-1,-6.313287258E0,1.850309372E0
5.950600051E0,9.753983617E-1,-6.075661182E0,1.999971271E0
5.955355311E0,1.049923897E0,-5.097666740E0,2.218050003E0
5.960110624E0,1.094516993E0,-3.846004725E0,2.474613190E0
5.964865884E0,1.090851784E0,-2.677420378E0,2.667646408E0
5.969621144E0,1.038317442E0,-1.752571106E0,2.733009100E0
5.974376457E0,9.448550940E-1,-1.070235133E0,2.677420378E0
5.979131717E0,8.336777091E-1,-5.668824911E-1,2.530812740E0
5.983887030E0,7.273872495E-1,-1.704312712E-1,2.315177441E0
5.988642290E0,6.394227147E-1,2.058614343E-1,2.058614254E0
5.993397551E0,5.728384256E-1,5.955931544E-1,1.783114314E0
5.998152863E0,5.319104791E-1,9.828814268E-1,1.497229576E0
6.002908124E0,5.190823674E-1,1.331685185E0,1.204625368E0
6.007663384E0,5.361865759E-1,1.632230639E0,8.979712129E-1
6.012418697E0,5.874992013E-1,1.875354886E0,5.681042671E-1
6.017173957E0,6.711876988E-1,2.040288448E0,1.948658675E-1
6.021929217E0,7.646499872E-1,2.127031088E0,-2.419024557E-1
6.026684530E0,8.318451047E-1,2.171013355E0,-7.269290686E-1
6.031439790E0,8.330668211E-1,2.191782713E0,-1.194240689E0
6.036195051E0,7.414371371E-1,2.194226265E0,-1.610850453E0
6.040950363E0,5.734493136E-1,2.167959213E0,-1.963930249E0
6.045705624E0,3.853029609E-1,2.036012411E0,-2.257145405E0
6.050460884E0,2.228129357E-1,1.725082159E0,-2.493550062E0
6.055216197E0,8.414662629E-2,1.252272844E0,-2.647487879E0
6.059971457E0,-3.802633286E-2,7.177661061E-1,-2.702465773E0
6.064726769E0,-1.455385387E-1,2.284634262E-1,-2.666424751E0
6.069482030E0,-2.316704690E-1,-1.649334878E-1,-2.543640852E0
6.074237290E0,-2.835939825E-1,-4.361574650E-1,-2.339001179E0
6.078992603E0,-3.068068326E-1,-5.797106624E-1,-2.088546753E0
6.083747863E0,-3.013090491E-1,-5.839866996E-1,-1.845422506E0
6.088503124E0,-2.280052751E-1,-3.970620930E-1,-1.663995624E0
6.093258436E0,-6.429351866E-2,-3.481929377E-2,-1.550374866E0
6.098013697E0,1.238528341E-1,3.561341763E-1,-1.481957912E0
6.102768957E0,2.796233594E-1,6.481275558E-1,-1.430034399E0
6.107524269E0,3.944659233E-1,8.307760954E-1,-1.377500057E0
6.112279530E0,4.860956371E-1,9.352339506E-1,-1.327409148E0
6.117034842E0,5.685623884E-1,9.993748069E-1,-1.276707411E0
6.121790103E0,6.412553191E-1,1.034194112E0,-1.215010047E0
6.126545363E0,7.035635114E-1,1.039691806E0,-1.133764982E0
6.131300624E0,7.493783832E-1,1.023809314E0,-1.025031090E0
6.136055936E0,7.579304576E-1,1.003039956E0,-8.808670044E-1
6.140811197E0,7.133373618E-1,9.902117848E-1,-7.073814273E-1
6.145566509E0,6.265945435E-1,9.993748069E-1,-5.186241865E-1
6.150321769E0,5.038107038E-1,1.043967962E0,-3.127627671E-1
6.155077030E0,3.559814394E-1,1.114828229E0,-8.796452731E-2
6.159832342E0,1.898262352E-1,1.174692988E0,1.423314959E-1
6.164587603E0,1.679878100E-3,1.177136421E0,3.707949221E-1
6.169342863E0,-2.127336562E-1,1.107497811E0,5.900954008E-1
6.174098176E0,-4.515817761E-1,9.505056143E-1,7.825177908E-1
6.178853436E0,-7.136427760E-1,7.073814273E-1,9.285144806E-1
6.183608697E0,-9.915862679E-1,3.946186602E-1,1.012202978E0
6.188364009E0,-1.268918872E0,4.092793912E-2,1.027474523E0
6.193119269E0,-1.526092887E0,-3.054323792E-1,9.810488224E-1
6.197874530E0,-1.744171619E0,-5.980366468E-1,9.004147053E-1
6.202629842E0,-1.912770391E0,-8.332195878E-1,8.020654321E-1
6.207385103E0,-2.034943342E0,-1.022587657E0,6.939423680E-1
6.212140363E0,-2.111301422E0,-1.169195175E0,5.968148708E-1
6.216895676E0,-2.147342443E0,-1.279150844E0,5.106829405E-1
6.221650936E0,-2.160781384E0,-1.373834848E0,4.331031144E-1
6.226406197E0,-2.156505346E0,-1.452636480E0,3.817904890E-1
6.231161509E0,-2.135735989E0,-1.506392598E0,3.830122054E-1
6.235916769E0,-2.101527452E0,-1.537546635E0,4.404335022E-1
6.240672030E0,-2.043495417E0,-1.558926940E0,5.571087003E-1
6.245427342E0,-1.961028695E0,-1.560759544E0,7.226530313E-1
6.250182603E0,-1.848629594E0,-1.537546635E0,9.236275554E-1
6.254937863E0,-1.703243732E0,-1.513112068E0,1.136819363E0
6.259693176E0,-1.514486551E0,-1.528383732E0,1.340848207E0
6.264448436E0,-1.281136155E0,-1.614515662E0,1.509446859E0
6.269203697E0,-1.030070782E0,-1.756847143E0,1.617569923E0
6.273959009E0,-7.722858191E-1,-1.950491190E0,1.676823854E0
6.278714269E0,-4.986183643E-1,-2.190561056E0,1.714086533E0
6.283469530E0,-2.121227980E-1,-2.436739683E0,1.741575480E0
6.288224790E0,6.826414168E-2,-2.616944790E0,1.758068800E0
6.292980103E0,3.370446563E-1,-2.701244116E0,1.771507859E0
6.297735363E0,5.984947681E-1,-2.704298496E0,1.791666389E0
6.302490676E0,8.507819176E-1,-2.648098707E0,1.822820544E0
6.307245936E0,1.087186575E0,-2.583957911E0,1.863137603E0
6.312001197E0,1.297934890E0,-2.551582098E0,1.912617683E0
6.316756509E0,1.478139997E0,-2.534477949E0,1.971871495E0
6.321511769E0,1.618638992E0,-2.520428181E0,2.036012411E0
6.326267030E0,1.718209863E0,-2.514930248E0,2.109316111E0
6.331022342E0,1.776242018E0,-2.500269651E0,2.189950228E0
6.335777603E0,1.795178890E0,-2.480111122E0,2.268751860E0
6.340532863E0,1.782350659E0,-2.445902586E0,2.341444731E0
6.345288124E0,1.745698810E0,-2.382983446E0,2.409250736E0
6.350043436E0,1.688888431E0,-2.283412457E0,2.472169876E0
6.354798697E0,1.619249821E0,-2.139859438E0,2.525315046E0
6.359553957E0,1.548389554E0,-1.973093271E0,2.553414822E0
6.364309269E0,1.490357399E0,-1.802662015E0,2.545473576E0
6.369064530E0,1.450040221E0,-1.636506796E0,2.499047756E0
6.373819790E0,1.424383998E0,-1.448360443E0,2.412305117E0
6.378575103E0,1.405447125E0,-1.207679629E0,2.288299561E0
6.383330363E0,1.398727655E0,-9.199623466E-1,2.130085468E0
6.388085624E0,1.405447125E0,-5.913171172E-1,1.952323794E0
6.392840936E0,1.424994826E0,-2.064722925E-1,1.766010046E0
6.397596197E0,1.453705430E0,2.437350452E-1,1.583361506E0
6.402351457E0,1.482416153E0,7.593049407E-1,1.419038892E0
6.407106717E0,1.499520302E0,1.333517790E0,1.286481261E0
6.411862030E0,1.505018115E0,1.960265040E0,1.192408085E0
6.416617290E0,1.530674458E0,2.701244116E0,1.139873624E0
6.421372551E0,1.601534724E0,3.626704216E0,1.128267288E0
6.426127863E0,1.676060200E0,4.698161125E0,1.142928004E0
6.430883124E0,1.643073559E0,5.936995029E0,1.159421325E0
6.435638384E0,1.024878383E0,7.539904118E0,1.116660833E0
6.440393697E0,-3.349066079E-1,8.369458199E0,1.016479015E0
6.445148957E0,-1.482721567E0,7.699950695E0,9.071341753E-1
6.449904217E0,-1.828470945E0,5.968759537E0,8.350521326E-1
6.454659530E0,-1.539531946E0,3.812407017E0,7.788525820E-1
6.459414790E0,-9.677625299E-1,1.664606571E0,6.951641440E-1
6.464170051E0,-2.390008420E-1,-1.936441362E-1,6.102539301E-1
6.468925363E0,4.665479660E-1,-1.465464592E0,5.760455132E-1
6.473680624E0,1.017547965E0,-2.099542141E0,6.017017961E-1
6.478435884E0,1.345582366E0,-2.223547697E0,6.811142564E-1
6.483191144E0,1.432325244E0,-1.977980137E0,8.081740737E-1
6.487946457E0,1.260672212E0,-1.524718523E0,9.883792400E-1
6.492701717E0,8.611665964E-1,-9.608902931E-1,1.196684122E0
6.497456978E0,3.437641561E-1,-3.384190798E-1,1.392160773E0
6.502212290E0,-1.375972927E-1,2.956585586E-1,1.523496747E0
6.506967551E0,-4.747946560E-1,8.717040420E-1,1.569311619E0
6.511722811E0,-6.385064125E-1,1.295644164E0,1.526551127E0
6.516478072E0,-6.611084342E-1,1.505170822E0,1.429423571E0
6.521233384E0,-5.981893539E-1,1.518609881E0,1.322522283E0
6.525988644E0,-5.157225728E-1,1.424536705E0,1.233946800E0
6.530743905E0,-4.570795596E-1,1.312137604E0,1.175303817E0
6.535499165E0,-4.375318885E-1,1.247385859E0,1.138041139E0
6.540254478E0,-4.515817761E-1,1.261435747E0,1.110552192E0
6.545009738E0,-4.967857897E-1,1.350011110E0,1.076343775E0
6.549764999E0,-5.694786906E-1,1.477071047E0,1.020755053E0
6.554520311E0,-6.629409790E-1,1.597411394E0,9.358448386E-1
6.559275572E0,-7.643445730E-1,1.675602078E0,8.258891702E-1
6.564030832E0,-8.596394658E-1,1.704312682E0,7.006618977E-1
6.568786144E0,-9.421061873E-1,1.699425817E0,5.760455132E-1
6.573541405E0,-1.005025268E0,1.662773967E0,4.648680985E-1
6.578296665E0,-1.041677117E0,1.598633170E0,3.714057803E-1
6.583051926E0,-1.055116177E0,1.500894785E0,2.968802750E-1
6.587807238E0,-1.045342326E0,1.369558811E0,2.388481349E-1
6.592562499E0,-1.017853379E0,1.204625368E0,1.991419196E-1
6.597317759E0,-9.830341339E-1,1.020755053E0,1.753181964E-1
6.602073019E0,-9.457713962E-1,8.423825502E-1,1.655443609E-1
6.606828332E0,-9.152281284E-1,6.841685772E-1,1.631008983E-1
6.611583592E0,-8.871283531E-1,5.601630211E-1,1.637117565E-1
6.616338853E0,-8.596394658E-1,4.679224193E-1,1.661552191E-1
6.621094165E0,-8.229875565E-1,4.025598764E-1,1.692095399E-1
6.625849426E0,-7.808378935E-1,3.518581092E-1,1.704312712E-1
6.630604686E0,-7.264709473E-1,3.133736253E-1,1.692095399E-1
6.635359947E0,-6.684387922E-1,2.822195292E-1,1.624900252E-1
6.640115259E0,-6.140718460E-1,2.559523284E-1,1.435532272E-1
6.644870519E0,-5.743656158E-1,2.339612097E-1,1.123991162E-1
6.649625780E0,-5.535961986E-1,2.131918073E-1,6.536252797E-2
6.654381040E0,-5.542070866E-1,1.924224049E-1,-5.497782957E-3
6.659136353E0,-5.658134818E-1,1.765399277E-1,-1.075121984E-1
6.663891613E0,-5.871937871E-1,1.496618688E-1,-2.394589931E-1
6.668646874E0,-6.110175252E-1,8.307760954E-2,-4.037816226E-1
6.673402134E0,-6.360629797E-1,-1.038470119E-2,-5.900954008E-1
6.678157447E0,-6.562215090E-1,-1.056796089E-1,-7.825177908E-1
6.682912707E0,-6.739365458E-1,-1.850920320E-1,-9.718858600E-1
6.687667967E0,-6.818777919E-1,-2.302960157E-1,-1.153923512E0
6.692423280E0,-6.794343591E-1,-2.528980076E-1,-1.326798320E0
6.697178540E0,-6.574432254E-1,-2.675587833E-1,-1.492342710E0
6.701933801E0,-6.018545032E-1,-2.864955962E-1,-1.654832721E0
6.706689061E0,-4.973966479E-1,-3.219257295E-1,-1.810603261E0
6.711444374E0,-3.459021747E-1,-3.775144219E-1,-1.959043384E0
6.716199634E0,-1.785252392E-1,-4.721984863E-1,-2.104429245E0
6.720954894E0,-2.458730713E-2,-6.096430421E-1,-2.250425816E0
6.725710155E0,1.091920808E-1,-7.825177908E-1,-2.398255110E0
6.730465467E0,2.246455252E-1,-9.749401808E-1,-2.548527956E0
6.735220728E0,3.260490894E-1,-1.151480079E0,-2.693913698E0
6.739975988E0,4.207331240E-1,-1.279761672E0,-2.824638844E0
6.744731249E0,5.099193454E-1,-1.353065491E0,-2.937648773E0
6.749486561E0,5.887209177E-1,-1.371391416E0,-3.029889345E0
6.754241822E0,6.382009983E-1,-1.327409148E0,-3.109301805E0
6.758997082E0,6.412553191E-1,-1.221118689E0,-3.183827162E0
6.763752342E0,5.832231641E-1,-1.061072111E0,-3.251633167E0
6.768507655E0,4.622719288E-1,-8.808670044E-1,-3.312719584E0
6.773262915E0,3.010036349E-1,-7.214313149E-1,-3.373195410E0
6.778018176E0,1.122464016E-1,-5.894845128E-1,-3.428783894E0
6.782773488E0,-9.300415963E-2,-4.276053309E-1,-3.475209713E0
6.787528749E0,-2.952004075E-1,-1.759290546E-1,-3.508196354E0
6.792284009E0,-4.607447684E-1,1.521053314E-1,-3.536906958E0
6.797039269E0,-5.786416531E-1,5.485565662E-1,-3.566228628E0
6.801794530E0,-6.617192626E-1,1.016479015E0,-3.591884851E0
6.806549842E0,-7.118101716E-1,1.516777277E0,-3.596160889E0
6.811305103E0,-7.307469845E-1,1.984088778E0,-3.568671942E0
6.816060363E0,-7.185297012E-1,2.366490126E0,-3.514915943E0
6.820815624E0,-6.788234711E-1,2.627940178E0,-3.447109938E0
6.825570936E0,-6.085740328E-1,2.788597822E0,-3.381747484E0
6.830326197E0,-5.065596104E-1,2.883281708E0,-3.325547934E0
6.835081457E0,-3.770562708E-1,2.933983564E0,-3.279122114E0
6.839836717E0,-2.316704690E-1,2.928485870E0,-3.228420258E0
6.844592030E0,-8.506292105E-2,2.879616499E0,-3.167333841E0
6.849347290E0,5.054906011E-2,2.804480314E0,-3.089754105E0
6.854102551E0,1.708894223E-1,2.698189735E0,-2.992626667E0
6.858857811E0,2.637408674E-1,2.568075418E0,-2.883281708E0
6.863613124E0,3.352120519E-1,2.414137602E0,-2.766606569E0
6.868368384E0,3.877464235E-1,2.228434801E0,-2.649931431E0
6.873123644E0,4.298960865E-1,2.006690741E0,-2.543640852E0
6.877878905E0,4.671588540E-1,1.733023405E0,-2.448346138E0
6.882634165E0,4.946477413E-1,1.419649720E0,-2.368933678E0
6.887389478E0,5.062541962E-1,1.110552192E0,-2.309068918E0
6.892144738E0,4.989238083E-1,8.564324379E-1,-2.268141031E0
6.896899999E0,4.769326746E-1,6.957749724E-1,-2.250425816E0
6.901655259E0,4.451677203E-1,6.224712133E-1,-2.260810614E0
6.906410572E0,4.103484154E-1,6.139190793E-1,-2.291964769E0
6.911165832E0,3.816377819E-1,6.493492723E-1,-2.342055559E0
6.915921092E0,3.590357602E-1,7.208204269E-1,-2.399476767E0
6.920676353E0,3.462076187E-1,8.203914165E-1,-2.458730698E0
6.925431665E0,3.388772309E-1,9.370665550E-1,-2.516762972E0
6.930186926E0,3.315468729E-1,1.065348148E0,-2.570518970E0
6.934942186E0,3.315468729E-1,1.207068801E0,-2.614501238E0
6.939697447E0,3.413206935E-1,1.352454662E0,-2.647487879E0
6.944452759E0,3.590357602E-1,1.483790517E0,-2.673144341E0
6.949208019E0,3.810268939E-1,1.564424753E0,-2.694524527E0
6.953963280E0,4.011854529E-1,1.584583282E0,-2.718959093E0
6.958718540E0,4.176788032E-1,1.555872560E0,-2.746448040E0
6.963473801E0,4.311178327E-1,1.495396972E0,-2.771493435E0
6.968229113E0,4.451677203E-1,1.396436930E0,-2.803258419E0
6.972984374E0,4.653262496E-1,1.274874806E0,-2.845408201E0
6.977739634E0,4.958694875E-1,1.151480079E0,-2.897942543E0
6.982494894E0,5.306887627E-1,1.049465656E0,-2.952920437E0
6.987250155E0,5.648971796E-1,9.700532556E-1,-3.006676435E0
6.992005467E0,5.905535221E-1,8.998038173E-1,-3.045771837E0
6.996760728E0,6.107120514E-1,8.436042666E-1,-3.065930367E0
7.001515988E0,6.308705807E-1,7.886264324E-1,-3.055545568E0
7.006271249E0,6.491965652E-1,7.312051654E-1,-3.008508921E0
7.011026509E0,6.675224900E-1,6.866120100E-1,-2.922377110E0
7.015781822E0,6.901245117E-1,6.621774435E-1,-2.803869247E0
7.020537082E0,7.163916826E-1,6.481275558E-1,-2.662148714E0
7.025292342E0,7.457131743E-1,6.249146461E-1,-2.505156517E0
7.030047603E0,7.719803452E-1,5.790998340E-1,-2.336557865E0
7.034802863E0,7.903063297E-1,5.009090900E-1,-2.156352758E0
7.039558176E0,7.970257998E-1,4.013381600E-1,-1.969428062E0
7.044313436E0,7.909171581E-1,2.932150960E-1,-1.775783896E0
7.049068697E0,7.725912333E-1,1.875354946E-1,-1.578474641E0
7.053823957E0,7.408262491E-1,8.491020650E-2,-1.380554438E0
7.058579269E0,6.986765862E-1,-2.565632015E-2,-1.188132048E0
7.063334530E0,6.504182816E-1,-1.435532272E-1,-1.005483389E0
7.068089790E0,6.046034098E-1,-2.669478953E-1,-8.393282294E-1
7.072845051E0,5.679515004E-1,-3.958403766E-1,-7.098248601E-1
7.077600311E0,5.343539715E-1,-5.070177913E-1,-6.114756465E-1
7.082355572E0,5.007563829E-1,-5.766563416E-1,-5.393936038E-1
7.087110884E0,4.653262496E-1,-6.010909677E-1,-4.783071280E-1
7.091866144E0,4.286743701E-1,-5.870410800E-1,-4.239401519E-1
7.096621405E0,3.920224607E-1,-5.595521331E-1,-3.744601011E-1
7.101376665E0,3.572031856E-1,-5.363392830E-1,-3.249800503E-1
7.106131926E0,3.217730224E-1,-5.112938285E-1,-2.669478953E-1
7.110887238E0,2.857320011E-1,-4.807505906E-1,-2.009745091E-1
7.115642499E0,2.496909797E-1,-4.300487936E-1,-1.258381456E-1
7.120397759E0,2.148716897E-1,-3.469711840E-1,-4.825831577E-2
7.125153019E0,1.910479665E-1,-2.254091054E-1,2.626718581E-2
7.129908280E0,1.824958473E-1,-6.536252797E-2,8.979712427E-2
7.134663592E0,1.910479665E-1,1.185077652E-1,1.411097646E-1
7.139418853E0,2.160934210E-1,3.084867001E-1,1.814268380E-1
7.144174113E0,2.588539422E-1,4.789179862E-1,2.156352699E-1
7.148929374E0,3.101665974E-1,6.206386089E-1,2.535088956E-1
7.153684634E0,3.645335436E-1,7.299833894E-1,2.950477004E-1
7.158439947E0,4.109592736E-1,8.032872081E-1,3.396408260E-1
7.163195207E0,4.421133697E-1,8.350521326E-1,3.830122054E-1
7.167950467E0,4.537198246E-1,8.332195878E-1,4.202749729E-1
7.172705728E0,4.470002949E-1,8.100066781E-1,4.459312856E-1
7.177460988E0,4.225656986E-1,7.641918659E-1,4.599811733E-1
7.182216249E0,3.840812445E-1,6.957749724E-1,4.630354941E-1
7.186971561E0,3.346011937E-1,5.998691916E-1,4.667007029E-1
7.191726822E0,2.814559340E-1,4.752528071E-1,4.813614488E-1
7.196482082E0,2.283107042E-1,3.298669755E-1,5.106829405E-1
7.201237342E0,1.629481763E-1,1.942549944E-1,5.467239618E-1
7.205992603E0,6.887500733E-2,1.081230640E-1,5.864301920E-1
7.210747863E0,-5.329795182E-2,6.658425927E-2,6.279689670E-1
7.215503176E0,-1.785252392E-1,4.398226365E-2,6.743947268E-1
7.220258436E0,-2.835939825E-1,9.773836471E-3,7.287616730E-1
7.225013697E0,-3.697259128E-1,-2.871064469E-2,7.819069028E-1
7.229768957E0,-4.302015305E-1,-5.558869615E-2,8.252783418E-1
7.234524217E0,-4.271472096E-1,-9.712749720E-2,8.680388331E-1
7.239279530E0,-3.086394370E-1,-2.614501119E-1,9.297361970E-1
7.244034790E0,-7.589995116E-2,-6.200277805E-1,1.029307127E0
7.248790051E0,1.831067204E-1,-1.059239507E0,1.145371437E0
7.253545311E0,3.431532979E-1,-1.296255112E0,1.240055561E0
7.258300572E0,2.973384261E-1,-1.054963470E0,1.301752806E0
7.263055832E0,4.932733253E-2,-3.439168632E-1,1.340237379E0
7.267811092E0,-3.074176908E-1,5.051851869E-1,1.411708474E0
7.272566405E0,-6.482802629E-1,1.103221774E0,1.552207351E0
7.277321665E0,-8.364266157E-1,1.202181935E0,1.706756234E0
7.282076926E0,-7.875574231E-1,7.385355234E-1,1.825874805E0
7.286832186E0,-5.438223481E-1,-6.230820715E-2,1.899178624E0
7.291587447E0,-2.481638193E-1,-8.454368711E-1,1.937663078E0
7.296342707E0,-9.926552884E-3,-1.404378176E0,1.955378175E0
7.301098019E0,1.171333194E-1,-1.681099892E0,1.968817234E0
7.305853280E0,1.391244531E-1,-1.707367063E0,1.990197420E0
7.310608540E0,6.459894776E-2,-1.543044448E0,2.026238441E0
7.315363801E0,-7.406735420E-2,-1.260824919E0,2.075718403E0
7.320119061E0,-2.328922004E-1,-9.321796298E-1,2.116035700E0
7.324874322E0,-3.813323379E-1,-6.071996093E-1,2.124587774E0
7.329629634E0,-5.145008564E-1,-3.005454838E-1,2.092211962E0
7.334384894E0,-6.281217337E-1,-3.359756246E-2,2.027460098E0
7.339140155E0,-7.136427760E-1,1.765399277E-1,1.946215153E0
7.343895415E0,-7.698423266E-1,3.152062297E-1,1.856418014E0
7.348650676E0,-7.942769527E-1,3.927860558E-1,1.767231822E0
7.353405936E0,-7.936660647E-1,4.208858311E-1,1.681710720E0
7.358161249E0,-7.741183639E-1,4.233292937E-1,1.597411394E0
7.362916509E0,-7.411317229E-1,4.324922562E-1,1.516777277E0
7.367671769E0,-7.032580972E-1,4.746419191E-1,1.445306063E0
7.372427030E0,-6.733257174E-1,5.552760959E-1,1.390328288E0
7.377182290E0,-6.574432254E-1,6.658425927E-1,1.351232886E0
7.381937551E0,-6.543889046E-1,7.971785665E-1,1.333517790E0
7.386692811E0,-6.641627550E-1,9.334014058E-1,1.333517790E0
7.391448124E0,-6.818777919E-1,1.048243999E0,1.356730700E0
7.396203384E0,-7.020363212E-1,1.124602079E0,1.402545571E0
7.400958644E0,-7.240274549E-1,1.157588720E0,1.469740629E0
7.405713905E0,-7.392991185E-1,1.142928004E0,1.555261731E0
7.410469165E0,-7.472403646E-1,1.084285021E0,1.657276154E0
7.415224426E0,-7.509055138E-1,9.902117848E-1,1.772729635E0
7.419979686E0,-7.515164018E-1,8.674280047E-1,1.894291639E0
7.424734999E0,-7.496837974E-1,7.263182402E-1,2.015853882E0
7.429490259E0,-7.466294765E-1,5.766563416E-1,2.129474640E0
7.434245519E0,-7.447968721E-1,4.221075773E-1,2.229045630E0
7.439000780E0,-7.411317229E-1,2.681696415E-1,2.306014538E0
7.443756040E0,-7.368556261E-1,1.227838174E-1,2.351829290E0
7.448511301E0,-7.307469845E-1,-1.893680729E-2,2.366490126E0
7.453266561E0,-7.283035517E-1,-1.612683088E-1,2.361603260E0
7.458021822E0,-7.276926637E-1,-2.999345958E-1,2.339612007E0
7.462777134E0,-7.313578725E-1,-4.355465770E-1,2.307847023E0
7.467532394E0,-7.386882305E-1,-5.662716627E-1,2.267529964E0
7.472287655E0,-7.502946854E-1,-6.951641440E-1,2.227823734E0
7.477042915E0,-7.612902522E-1,-8.185588121E-1,2.190561056E0
7.481798176E0,-7.765618563E-1,-9.358448386E-1,2.156352758E0
7.486553436E0,-7.936660647E-1,-1.042135358E0,2.123365879E0
7.491308697E0,-8.150463104E-1,-1.138041139E0,2.095266104E0
7.496064009E0,-8.382592201E-1,-1.222951293E0,2.070220709E0
7.500819269E0,-8.602503538E-1,-1.298698545E0,2.053727388E0
7.505574530E0,-8.846849203E-1,-1.367726207E0,2.043953657E0
7.510329790E0,-9.103412628E-1,-1.423925757E0,2.039066553E0
7.515085051E0,-9.341649413E-1,-1.473405838E0,2.040899277E0
7.519840311E0,-9.567669630E-1,-1.520442486E0,2.047618628E0
7.524595572E0,-9.720385671E-1,-1.569311619E0,2.057392597E0
7.529350832E0,-9.842558503E-1,-1.618180752E0,2.075718403E0
7.534106092E0,-9.909753799E-1,-1.668271661E0,2.097098827E0
7.538861405E0,-9.928079844E-1,-1.725692987E0,2.121533394E0
7.543616665E0,-9.897536635E-1,-1.789833784E0,2.142302752E0
7.548371926E0,-9.805907011E-1,-1.862526655E0,2.153909206E0
7.553127186E0,-9.616538882E-1,-1.946826100E0,2.158796072E0
7.557882447E0,-9.335541129E-1,-2.032958031E0,2.153298378E0
7.562637707E0,-8.962913752E-1,-2.115424633E0,2.139859438E0
7.567392967E0,-8.486438990E-1,-2.192393780E0,2.121533394E0
7.572148228E0,-7.912226319E-1,-2.254091024E0,2.095877171E0
7.576903488E0,-7.221949100E-1,-2.294408083E0,2.064112186E0
7.581658749E0,-6.421716213E-1,-2.312123299E0,2.027460098E0
7.586414061E0,-5.511527658E-1,-2.316399336E0,1.985921383E0
7.591169322E0,-4.534143806E-1,-2.313344955E0,1.940717459E0
7.595924582E0,-3.550651670E-1,-2.313344955E0,1.891237378E0
7.600679842E0,-2.640463114E-1,-2.318231821E0,1.834426880E0
7.605435103E0,-1.858556122E-1,-2.316399336E0,1.764788389E0
7.610190363E0,-1.217148080E-1,-2.295018911E0,1.681710720E0
7.614945624E0,-6.979130208E-2,-2.260199785E0,1.588248372E0
7.619700884E0,-2.580903657E-2,-2.223547697E0,1.492342710E0
7.624456144E0,6.566796452E-3,-2.194226265E0,1.396436930E0
7.629211457E0,3.100138716E-2,-2.155130863E0,1.303585410E0
7.633966717E0,4.871646687E-2,-2.060446978E0,1.207068801E0
7.638721978E0,7.376192510E-2,-1.855196357E0,1.105054379E0
7.643477238E0,1.207985133E-1,-1.508225083E0,9.999856353E-1
7.648232499E0,1.916588247E-1,-1.131932378E0,8.998038173E-1
7.652987759E0,2.826776803E-1,-8.570432663E-1,8.100066781E-1
7.657743019E0,4.109592736E-1,-6.407971382E-1,7.214313149E-1
7.662498280E0,5.874992013E-1,-2.926042378E-1,6.243038177E-1
7.667253540E0,7.585413456E-1,4.764745384E-2,5.161807537E-1
7.672008801E0,9.063706398E-1,3.793470263E-1,3.866774142E-1
7.676764113E0,1.030376196E0,7.776308656E-1,2.583957911E-1
7.681519374E0,1.125060201E0,1.189353704E0,1.521053314E-1
7.686274634E0,1.188590169E0,1.633452415E0,6.841685623E-2
7.691029894E0,1.206916094E0,2.088546753E0,-9.162971750E-3
7.695785155E0,1.186757565E0,2.461174250E0,-7.880155742E-2
7.700540415E0,1.153770804E0,2.689026833E0,-1.502727419E-1
7.705295676E0,1.123838425E0,2.803258419E0,-2.266308367E-1
7.710050936E0,1.105512500E0,2.902829409E0,-3.029889166E-1
7.714806197E0,1.083521366E0,2.964526892E0,-3.793470263E-1
7.719561457E0,1.050534725E0,2.944979191E0,-4.575377107E-1
7.724316717E0,1.007163286E0,2.853349447E0,-5.345066786E-1
7.729072030E0,9.674571157E-1,2.758054495E0,-6.059778333E-1
7.733827290E0,9.363030195E-1,2.684139729E0,-6.640099883E-1
7.738582551E0,9.057597518E-1,2.615112066E0,-7.031053901E-1
7.743337811E0,8.587231636E-1,2.559523344E0,-7.165443897E-1
7.748093072E0,7.896954417E-1,2.543640852E0,-7.092140317E-1
7.752848332E0,6.840158105E-1,2.580903769E0,-6.896663308E-1
7.757603592E0,5.264127254E-1,2.679863691E0,-6.579013467E-1
7.762358853E0,2.716821134E-1,2.913214207E0,-6.010909677E-1
7.767114113E0,-1.864664704E-1,3.392742872E0,-4.996874034E-1
7.771869374E0,-7.680097222E-1,3.844782829E0,-3.677406013E-1
7.776624634E0,-1.398422241E0,3.904036760E0,-2.425133139E-1
7.781379894E0,-1.984852433E0,3.517970324E0,-1.447749585E-1
7.786135155E0,-2.243859053E0,2.896109819E0,-7.696896046E-2
7.790890415E0,-1.933539748E0,2.163072109E0,8.552107029E-3
7.795645676E0,-1.473558545E0,1.130710721E0,1.417206228E-1
7.800400988E0,-9.304997921E-1,1.117882580E-1,3.072649837E-1
7.805156249E0,-3.648389876E-1,-7.244856358E-1,4.685332775E-1
7.809911509E0,1.348484010E-1,-1.317635298E0,5.900954008E-1
7.814666769E0,5.050324798E-1,-1.661552191E0,6.701186895E-1
7.819422030E0,7.139481902E-1,-1.783114314E0,7.342594862E-1
7.824177290E0,7.414371371E-1,-1.674380302E0,8.045089245E-1
7.828932551E0,5.874992013E-1,-1.324965715E0,8.802561760E-1
7.833687811E0,2.936732471E-1,-7.941241860E-1,9.523382187E-1
7.838443072E0,-5.696314201E-2,-1.960875988E-1,1.009759426E0
7.843198332E0,-3.831649423E-1,3.549124300E-1,1.051298261E0
7.847953592E0,-6.391173005E-1,7.947350740E-1,1.084895849E0
7.852708853E0,-8.107702732E-1,1.078176379E0,1.115439057E0
7.857464113E0,-8.926261663E-1,1.192408085E0,1.141706228E0
7.862219374E0,-8.993456960E-1,1.171027780E0,1.163697362E0
7.866974634E0,-8.498656154E-1,1.074511170E0,1.184466839E0
7.871729947E0,-7.741183639E-1,9.602794051E-1,1.208290577E0
7.876485207E0,-6.965385675E-1,8.692606091E-1,1.229670763E0
7.881240467E0,-6.372846961E-1,8.130609989E-1,1.236390352E0
7.885995728E0,-6.000219584E-1,7.819069028E-1,1.231503367E0
7.890750988E0,-5.829176903E-1,7.611374855E-1,1.219286084E0
7.895506249E0,-5.786416531E-1,7.483093739E-1,1.206457973E0
7.900261509E0,-5.847502947E-1,7.330377102E-1,1.196073294E0
7.905016769E0,-5.988001823E-1,7.012727857E-1,1.185688496E0
7.909772030E0,-6.146826744E-1,6.365211010E-1,1.171027780E0
7.914527290E0,-6.311760545E-1,5.290089250E-1,1.154534459E0
7.919282551E0,-6.440041661E-1,3.836230934E-1,1.137430191E0
7.924037811E0,-6.458367705E-1,2.199113220E-1,1.122769475E0
7.928793072E0,-6.391173005E-1,5.009091273E-2,1.111163020E0
7.933548332E0,-6.165152788E-1,-1.221729591E-1,1.098945737E0
7.938303592E0,-5.792525411E-1,-2.968802750E-1,1.079398036E0
7.943058853E0,-5.261073112E-1,-4.758636653E-1,1.043357015E0
7.947814113E0,-4.601338804E-1,-6.517927051E-1,9.871574640E-1
7.952569374E0,-3.874409795E-1,-8.191696405E-1,9.040798545E-1
7.957324634E0,-3.135263622E-1,-9.688315392E-1,7.941241860E-1
7.962079894E0,-2.506072819E-1,-1.094058871E0,6.505709887E-1
7.966835155E0,-2.096793354E-1,-1.186299443E0,4.734202027E-1
7.971590467E0,-1.999054998E-1,-1.231503367E0,2.590066791E-1
7.976345728E0,-2.255618125E-1,-1.225394726E0,1.649334840E-2
7.981100988E0,-2.799287736E-1,-1.180190802E0,-2.394589931E-1
7.985856249E0,-3.550651670E-1,-1.108108759E0,-4.850266278E-1
7.990611509E0,-4.424188137E-1,-1.017700672E0,-7.049379349E-1
7.995366769E0,-5.303833485E-1,-9.260709882E-1,-9.022472501E-1
8.000122030E0,-6.085740328E-1,-8.442151546E-1,-1.083063245E0
8.004877290E0,-6.678279042E-1,-7.727439404E-1,-1.254716277E0
8.009632551E0,-7.093667388E-1,-7.098248601E-1,-1.412319422E0
8.014387811E0,-7.289143801E-1,-6.511818767E-1,-1.556483507E0
8.019143072E0,-7.295252681E-1,-5.955931544E-1,-1.683543324E0
8.023898332E0,-7.142536640E-1,-5.424479246E-1,-1.797775030E0
8.028653592E0,-6.788234711E-1,-4.893026948E-1,-1.902232885E0
8.033408853E0,-6.256782413E-1,-4.349357188E-1,-2.001193047E0
8.038164113E0,-5.517635942E-1,-3.799578846E-1,-2.092211962E0
8.042919374E0,-4.601338804E-1,-3.262017965E-1,-2.177732944E0
8.047674634E0,-3.617846668E-1,-2.736674249E-1,-2.265697479E0
8.052429894E0,-2.609919906E-1,-2.217439115E-1,-2.354883671E0
8.057185155E0,-1.589775532E-1,-1.765399277E-1,-2.450178623E0
8.061940415E0,-6.429351866E-2,-1.423314959E-1,-2.551582098E0
8.066695676E0,9.621120058E-3,-1.032361463E-1,-2.658483505E0
8.071450936E0,4.627300799E-2,-5.070177838E-2,-2.764774084E0
8.076206197E0,4.444041103E-2,-6.719512399E-3,-2.861901522E0
8.080961457E0,8.399390616E-3,3.726275265E-2,-2.943146467E0
8.085716717E0,-5.451968312E-2,1.087339297E-1,-3.004232883E0
8.090471978E0,-1.266017258E-1,2.083048970E-1,-3.050047874E0
8.095227238E0,-1.937968582E-1,3.512472510E-1,-3.079980135E0
8.099982499E0,-2.536616027E-1,5.265654325E-1,-3.101360559E0
8.104737759E0,-3.019199073E-1,7.159335017E-1,-3.118464708E0
8.109493019E0,-3.404043913E-1,9.059124589E-1,-3.125184298E0
8.114248280E0,-3.703367710E-1,1.088561058E0,-3.113577843E0
8.119003540E0,-3.849975169E-1,1.260824919E0,-3.076925993E0
8.123758801E0,-3.849975169E-1,1.418428063E0,-3.013396025E0
8.128514061E0,-3.642281294E-1,1.571144223E0,-2.926042318E0
8.133269322E0,-3.098611534E-1,1.720806122E0,-2.824027777E0
8.138024582E0,-2.145662606E-1,1.852752924E0,-2.720180750E0
8.142779842E0,-9.239330143E-2,1.932165265E0,-2.630994558E0
8.147535103E0,3.588830680E-2,1.933387041E0,-2.563188553E0
8.152290363E0,1.684459597E-1,1.852141976E0,-2.514319420E0
8.157045624E0,3.071122766E-1,1.683543324E0,-2.483165264E0
8.161800884E0,4.482220411E-1,1.428812742E0,-2.470337152E0
8.166556144E0,5.820014477E-1,1.111773849E0,-2.464839458E0
8.171311405E0,6.925679445E-1,7.672461867E-1,-2.458730698E0
8.176066665E0,7.701478004E-1,4.294379354E-1,-2.450178623E0
8.180821926E0,8.043562174E-1,1.105665267E-1,-2.443459034E0
8.185577186E0,7.927497625E-1,-1.716530025E-1,-2.433685303E0
8.190332447E0,7.353284955E-1,-3.860665262E-1,-2.423300505E0
8.195087707E0,6.449204683E-1,-5.192350745E-1,-2.417191982E0
8.199842967E0,5.484038591E-1,-5.998691916E-1,-2.407418013E0
8.204598228E0,4.708240330E-1,-6.401863098E-1,-2.400698662E0
8.209353488E0,4.189005196E-1,-6.566796303E-1,-2.401309490E0
8.214108749E0,3.865246773E-1,-6.456840634E-1,-2.409861565E0
8.218864009E0,3.596466482E-1,-5.992583632E-1,-2.430630922E0
8.223619269E0,3.297142684E-1,-5.161807537E-1,-2.456898212E0
8.228374530E0,2.967275679E-1,-3.750709891E-1,-2.486219645E0
8.233129790E0,2.735147178E-1,-1.453858167E-1,-2.513708591E0
8.237885051E0,2.741255760E-1,1.673769504E-1,-2.533256292E0
8.242640311E0,3.010036349E-1,5.229002237E-1,-2.537532330E0
8.247395572E0,3.553705812E-1,8.741474748E-1,-2.522260666E0
8.252150832E0,4.396699369E-1,1.178358197E0,-2.492939234E0
8.256906092E0,5.465712547E-1,1.413541079E0,-2.458119869E0
8.261661353E0,6.644681692E-1,1.585194111E0,-2.425133228E0
8.266416613E0,7.841976881E-1,1.712253928E0,-2.401920319E0
8.271171874E0,8.923207521E-1,1.817322731E0,-2.396422625E0
8.275927134E0,9.778417945E-1,1.901622057E0,-2.412305117E0
8.280682394E0,1.040760875E0,1.968206286E0,-2.451400280E0
8.285437655E0,1.081688762E0,2.007912636E0,-2.502102137E0
8.290192915E0,1.113453746E0,2.001193047E0,-2.556469202E0
8.294948176E0,1.145829558E0,1.932165265E0,-2.608392715E0
8.299703436E0,1.172707677E0,1.811214089E0,-2.647487879E0
8.304458697E0,1.191644430E0,1.646280527E0,-2.665203094E0
8.309213957E0,1.199585676E0,1.455690742E0,-2.652985811E0
8.313969217E0,1.194087982E0,1.247385859E0,-2.615112066E0
8.318724478E0,1.177594543E0,1.028085470E0,-2.555247307E0
8.323479738E0,1.156214356E0,8.002328873E-1,-2.479500055E0
8.328234999E0,1.130558014E0,5.626064539E-1,-2.386648655E0
8.332990259E0,1.104901671E0,3.304778337E-1,-2.284023523E0
8.337745519E0,1.079856157E0,1.191186309E-1,-2.174067736E0
8.342500780E0,1.052978158E0,-6.414080411E-2,-2.059225082E0
8.347256040E0,1.023656607E0,-1.997527778E-1,-1.937052250E0
8.352011301E0,9.912807941E-1,-2.742782831E-1,-1.807548881E0
8.356766561E0,9.595158696E-1,-2.968802750E-1,-1.676212907E0
8.361521822E0,9.271399975E-1,-2.840521336E-1,-1.542433619E0
8.366277082E0,8.978185058E-1,-2.541197538E-1,-1.408654213E0
8.371032342E0,8.733839393E-1,-2.296851575E-1,-1.276707411E0
8.375787603E0,8.550579548E-1,-2.296851575E-1,-1.147204041E0
8.380542863E0,8.410080671E-1,-2.590066791E-1,-1.017089844E0
8.385298124E0,8.251255751E-1,-3.060432673E-1,-8.869756460E-1
8.390053384E0,8.080213666E-1,-3.573558927E-1,-7.544180155E-1
8.394808644E0,7.829759121E-1,-4.037816226E-1,-6.267472506E-1
8.399563905E0,7.536544204E-1,-4.355465770E-1,-5.131264329E-1
8.404319165E0,7.237220407E-1,-4.569268525E-1,-4.159989059E-1
8.409074426E0,6.937896609E-1,-4.789179862E-1,-3.390299380E-1
8.413829686E0,6.663007736E-1,-4.966330528E-1,-2.755000293E-1
8.418584947E0,6.375901103E-1,-5.112938285E-1,-2.205221802E-1
8.423340207E0,6.180424690E-1,-5.314523578E-1,-1.673769504E-1
8.428095415E0,6.058251262E-1,-5.613847375E-1,-1.148425788E-1
8.432850676E0,5.948295593E-1,-5.949822664E-1,-5.864302069E-2
8.437605936E0,5.874992013E-1,-6.273581386E-1,-2.443459118E-3
8.442361197E0,5.917752385E-1,-6.530144215E-1,5.681042373E-2
8.447116457E0,6.009382010E-1,-6.591231227E-1,1.178968996E-1
8.451871717E0,6.162098646E-1,-6.383537054E-1,1.728747338E-1
8.456626978E0,6.320923567E-1,-5.943714380E-1,2.254091054E-1
8.461382238E0,6.504182816E-1,-5.283980370E-1,2.773326039E-1
8.466137499E0,6.705768108E-1,-4.404335022E-1,3.213148713E-1
8.470892759E0,6.992874742E-1,-3.463603258E-1,3.579667509E-1
8.475648019E0,7.353284955E-1,-2.693913579E-1,3.958403766E-1
8.480403280E0,7.768672705E-1,-2.064722925E-1,4.288270772E-1
8.485158540E0,8.184061050E-1,-1.368337125E-1,4.630354941E-1
8.489913801E0,8.544471264E-1,-5.986474827E-2,4.978547990E-1
8.494669061E0,8.880446553E-1,2.932151034E-2,5.326740742E-1
8.499424322E0,9.289726019E-1,1.203403622E-1,5.681042671E-1
8.504179582E0,9.772309065E-1,2.058614343E-1,5.998691916E-1
8.508934842E0,1.026710987E0,2.816086709E-1,6.334667802E-1
8.513690103E0,1.076801896E0,3.494146466E-1,6.725621223E-1
8.518445363E0,1.123227596E0,4.098902643E-1,7.147117853E-1
8.523200624E0,1.166599035E0,4.593703151E-1,7.580831647E-1
8.527955832E0,1.200196624E0,4.862483740E-1,8.008437157E-1
8.532711092E0,1.222798586E0,4.899135530E-1,8.429933786E-1
8.537466353E0,1.230739832E0,4.721984863E-1,8.857539296E-1
8.542221613E0,1.221576810E0,4.386008978E-1,9.309579134E-1
8.546976874E0,1.194087982E0,3.891208768E-1,9.755510688E-1
8.551732134E0,1.152549148E0,3.304778337E-1,1.021365881E0
8.556487394E0,1.104901671E0,2.651153207E-1,1.075732827E0
8.561242655E0,1.054810762E0,1.881463528E-1,1.139262795E0
8.565997915E0,1.005330682E0,1.050687432E-1,1.218064427E0
8.570753176E0,9.570723772E-1,2.138026804E-2,1.315802693E0
8.575508436E0,9.106466770E-1,-4.703658819E-2,1.431867003E0
8.580263697E0,8.562797308E-1,-7.941242307E-2,1.560759544E0
8.585018957E0,7.622065544E-1,-4.092793912E-2,1.689651966E0
8.589774217E0,6.113229394E-1,9.529490769E-2,1.806938052E0
8.594529478E0,4.072940946E-1,3.188714087E-1,1.893680811E0
8.599284738E0,1.617264450E-1,5.888736248E-1,1.938884854E0
8.604039999E0,-1.542433538E-2,7.055488229E-1,1.918726325E0
8.608795259E0,6.215549260E-2,3.005454838E-1,1.851531148E0
8.613550467E0,4.182896614E-1,-8.051197529E-1,1.771507859E0
8.618305728E0,8.654426932E-1,-2.364046812E0,1.663384795E0
8.623060988E0,1.137277484E0,-3.627315044E0,1.530827165E0
8.627816249E0,9.699005485E-1,-3.492924690E0,1.360395908E0
8.632571509E0,4.042397738E-1,-1.883906960E0,1.166751742E0
8.637326769E0,-2.261726856E-1,2.626718581E-2,1.027474523E0
8.642082030E0,-6.378955245E-1,1.340848207E0,1.015257239E0
8.646837290E0,-7.802270651E-1,1.902232885E0,1.105665207E0
8.651592551E0,-7.057015300E-1,1.863137603E0,1.196684122E0
8.656347811E0,-4.973966479E-1,1.451414704E0,1.235168576E0
8.661103072E0,-2.750418782E-1,9.077450633E-1,1.227838159E0
8.665858332E0,-8.872810751E-2,3.982838392E-1,1.193018913E0
8.670613592E0,4.871646687E-2,-7.574722916E-2,1.158199668E0
8.675368853E0,1.226311028E-1,-5.076286197E-1,1.154534459E0
8.680124113E0,1.360701323E-1,-8.692606091E-1,1.215620875E0
8.684879322E0,8.659008145E-2,-1.130710721E0,1.348178625E0
8.689634582E0,-1.481347065E-2,-1.276096582E0,1.528383732E0
8.694389842E0,-1.516471803E-1,-1.309083223E0,1.723249555E0
8.699145103E0,-3.061959743E-1,-1.252883673E0,1.888793945E0
8.703900363E0,-4.680751264E-1,-1.122158647E0,2.001803875E0
8.708655624E0,-6.201804876E-1,-9.523382187E-1,2.048840523E0
8.713410884E0,-7.331904769E-1,-7.922916412E-1,2.021962404E0
8.718166144E0,-7.973312736E-1,-6.713404059E-1,1.930943608E0
8.722921405E0,-8.187115192E-1,-5.925388336E-1,1.801440239E0
8.727676665E0,-8.113811612E-1,-5.241219997E-1,1.665828228E0
8.732431926E0,-7.851139307E-1,-4.068359435E-1,1.553429127E0
8.737187186E0,-7.521272302E-1,-1.814268380E-1,1.475238442E0
8.741942447E0,-7.264709473E-1,1.728747338E-1,1.437364817E0
8.746697707E0,-7.179188132E-1,6.096430421E-1,1.441640854E0
8.751452915E0,-7.221949100E-1,1.020755053E0,1.478292823E0
8.756208176E0,-7.234166265E-1,1.321300507E0,1.529605389E0
8.760963436E0,-7.142536640E-1,1.499062181E0,1.577252865E0
8.765718697E0,-6.928733587E-1,1.579696298E0,1.620624304E0
8.770473957E0,-6.580541134E-1,1.577863693E0,1.657886982E0
8.775229217E0,-6.122392416E-1,1.501505613E0,1.692095399E0
8.779984478E0,-5.548179150E-1,1.362228513E0,1.720195174E0
8.784739738E0,-4.937314689E-1,1.171638608E0,1.742797256E0
8.789494999E0,-4.332558513E-1,9.450078011E-1,1.759290576E0
8.794250259E0,-3.825540543E-1,6.963858604E-1,1.766010046E0
8.799005519E0,-3.465130329E-1,4.410443604E-1,1.764177442E0
8.803760728E0,-3.300196826E-1,1.973093301E-1,1.758068800E0
8.808515988E0,-3.410152495E-1,-2.993237413E-2,1.742797256E0
8.813271249E0,-3.758345544E-1,-2.315177470E-1,1.721416950E0
8.818026509E0,-4.308123887E-1,-4.031707644E-1,1.696982384E0
8.822781769E0,-4.998401105E-1,-5.393936038E-1,1.676212907E0
8.827537030E0,-5.792525411E-1,-6.462949514E-1,1.662773967E0
8.832292290E0,-6.604975462E-1,-7.299833894E-1,1.653610945E0
8.837047551E0,-7.313578725E-1,-7.984002829E-1,1.654832721E0
8.841802811E0,-7.912226319E-1,-8.594867587E-1,1.666439176E0
8.846558072E0,-8.382592201E-1,-9.248492718E-1,1.690873742E0
8.851313332E0,-8.688024282E-1,-9.926552773E-1,1.723860383E0
8.856068540E0,-8.877392411E-1,-1.061072111E0,1.763566613E0
8.860823801E0,-8.962913752E-1,-1.130710721E0,1.805105448E0
8.865579061E0,-8.944587708E-1,-1.204625368E0,1.846033335E0
8.870334322E0,-8.840740323E-1,-1.280983448E0,1.882685304E0
8.875089582E0,-8.669698238E-1,-1.356119752E0,1.912006736E0
8.879844842E0,-8.437569737E-1,-1.423314929E0,1.933387041E0
8.884600103E0,-8.162680864E-1,-1.469129801E0,1.944993496E0
8.889355363E0,-7.869465351E-1,-1.489288330E0,1.951102138E0
8.894110624E0,-7.582359314E-1,-1.486844897E0,1.955378175E0
8.898865884E0,-7.295252681E-1,-1.466075420E0,1.955989003E0
8.903621144E0,-7.026472092E-1,-1.422704101E0,1.951712966E0
8.908376353E0,-6.806560755E-1,-1.362228513E0,1.952934742E0
8.913131613E0,-6.617192626E-1,-1.292589903E0,1.960875988E0
8.917886874E0,-6.488910913E-1,-1.218675256E0,1.979201913E0
8.922642134E0,-6.378955245E-1,-1.145371437E0,2.002414703E0
8.927397394E0,-6.305651665E-1,-1.079398036E0,2.029903650E0
8.932152655E0,-6.256782413E-1,-1.026863694E0,2.065333843E0
8.936907915E0,-6.207913160E-1,-9.889900684E-1,2.106872559E0
8.941663176E0,-6.152935624E-1,-9.688315392E-1,2.150243998E0
8.946418384E0,-6.104066372E-1,-9.663881063E-1,2.192393780E0
8.951173644E0,-6.030762792E-1,-9.816597104E-1,2.232100010E0
8.955928905E0,-5.933024287E-1,-1.013424635E0,2.267529964E0
8.960684165E0,-5.792525411E-1,-1.067180753E0,2.291353703E0
8.965439426E0,-5.627591610E-1,-1.140484571E0,2.304182053E0
8.970194686E0,-5.462658405E-1,-1.232114315E0,2.301127672E0
8.974949947E0,-5.273290277E-1,-1.346346021E0,2.289521217E0
8.979705207E0,-5.090031028E-1,-1.477681875E0,2.274249554E0
8.984460467E0,-4.888445437E-1,-1.631619811E0,2.252258539E0
8.989215676E0,-4.674642682E-1,-1.808770657E0,2.226602077E0
8.993970936E0,-4.460839927E-1,-2.000582218E0,2.196058989E0
8.998726197E0,-4.253146052E-1,-2.196669817E0,2.161239624E0
9.003481457E0,-4.063777924E-1,-2.393368244E0,2.126420259E0
9.008236717E0,-3.856084049E-1,-2.585790634E0,2.093433619E0
9.012991978E0,-3.636172712E-1,-2.770882607E0,2.064112186E0
9.017747238E0,-3.416261375E-1,-2.944979191E0,2.038455725E0
9.022502499E0,-3.184132576E-1,-3.098917007E0,2.016464710E0
9.027257759E0,-2.921460867E-1,-3.231474638E0,1.994473457E0
9.032012967E0,-2.658788860E-1,-3.338986874E0,1.971871495E0
9.036768228E0,-2.371682525E-1,-3.422064543E0,1.949269533E0
9.041523488E0,-2.072358727E-1,-3.472155333E0,1.922391415E0
9.046278749E0,-1.754709035E-1,-3.492924690E0,1.889404774E0
9.051034009E0,-1.418733448E-1,-3.481318474E0,1.853363752E0
9.055789269E0,-1.101083755E-1,-3.426340580E0,1.809992313E0
9.060544530E0,-7.956513762E-2,-3.318828344E0,1.756236196E0
9.065299790E0,-5.024362728E-2,-3.149008036E0,1.690262794E0
9.070054999E0,-1.359174121E-2,-2.908938169E0,1.609628677E0
9.074810259E0,3.649916872E-2,-2.598007917E0,1.511890292E0
9.079565519E0,1.024725661E-1,-2.225380421E0,1.390328288E0
9.084320780E0,1.818849891E-1,-1.817933559E0,1.252883673E0
9.089076040E0,2.649625838E-1,-1.404989004E0,1.103221774E0
9.093831301E0,3.553705812E-1,-9.889900684E-1,9.474512935E-1
9.098586561E0,4.549415410E-1,-5.638281703E-1,7.984002829E-1
9.103341822E0,5.557342172E-1,-1.502727419E-1,6.688969135E-1
9.108097030E0,6.620246768E-1,2.241873741E-1,5.638281703E-1
9.112852290E0,7.689260244E-1,5.400044918E-1,4.795288444E-1
9.117607551E0,8.709404469E-1,7.990111113E-1,4.056142271E-1
9.122362811E0,9.668462276E-1,1.002429128E0,3.457494676E-1
9.127118072E0,1.053588986E0,1.154534459E0,2.968802750E-1
9.131873332E0,1.130558014E0,1.257159710E0,2.498437017E-1
9.136628592E0,1.195920467E0,1.321300507E0,1.918115467E-1
9.141383853E0,1.248454928E0,1.342069864E0,1.221729591E-1
9.146139061E0,1.281441569E0,1.323743939E0,3.909534588E-2
9.150894322E0,1.302821875E0,1.282816052E0,-5.558869615E-2
9.155649582E0,1.315649986E0,1.246164203E0,-1.551596522E-1
9.160404842E0,1.316260934E0,1.224783897E0,-2.614501119E-1
9.165160103E0,1.300989270E0,1.219286084E0,-3.695732057E-1
9.169915363E0,1.272889495E0,1.232114315E0,-4.728093445E-1
9.174670624E0,1.238681078E0,1.255937934E0,-5.626064539E-1
9.179425884E0,1.201418281E0,1.281594276E0,-6.401863098E-1
9.184181092E0,1.161101222E0,1.307250619E0,-7.024945021E-1
9.188936353E0,1.120173335E0,1.337793827E0,-7.507528067E-1
9.193691613E0,1.074358463E0,1.369558811E0,-7.837395072E-1
9.198446874E0,1.023656607E0,1.406210780E0,-8.038980365E-1
9.203202134E0,9.582940936E-1,1.442251801E0,-8.155044913E-1
9.207957394E0,8.825469017E-1,1.481957912E0,-8.265000582E-1
9.212712655E0,7.939714789E-1,1.525940180E0,-8.332195878E-1
9.217467915E0,7.023417950E-1,1.577863693E0,-8.338304162E-1
9.222223124E0,6.088794470E-1,1.641393661E0,-8.258891702E-1
9.226978384E0,5.227475166E-1,1.710421324E0,-8.081740737E-1
9.231733644E0,4.524980783E-1,1.795331597E0,-7.800742984E-1
9.236488905E0,4.011854529E-1,1.897956848E0,-7.422007322E-1
9.241244165E0,3.681987524E-1,2.011577606E0,-6.969966888E-1
9.245999426E0,3.572031856E-1,2.111148596E0,-6.548470259E-1
9.250754634E0,3.608683646E-1,2.206443548E0,-6.071996093E-1
9.255509894E0,3.779725730E-1,2.309068918E0,-5.583304167E-1
9.260265155E0,3.926333487E-1,2.431852579E0,-5.155698657E-1
9.265020415E0,4.060723484E-1,2.570518970E0,-4.850266278E-1
9.269775676E0,4.097375572E-1,2.710407019E0,-4.630354941E-1
9.274530936E0,4.036289155E-1,2.842964649E0,-4.373791814E-1
9.279286197E0,3.859138191E-1,2.971246243E0,-4.025598764E-1
9.284041405E0,3.553705812E-1,3.094640970E0,-3.408625424E-1
9.288796665E0,3.034470677E-1,3.199098825E0,-2.455676347E-1
9.293551926E0,-6.872228812E-3,2.817919254E0,-8.491020650E-2
9.298307186E0,-1.158963203E0,8.436042666E-1,2.009745091E-1
9.303062447E0,-2.475376844E0,-1.419038892E0,4.856374860E-1
9.307817707E0,-2.901760340E0,-2.029903650E0,6.786707640E-1
9.312572967E0,-2.781419992E0,-1.701258421E0,8.087849617E-1
9.317328176E0,-2.312886715E0,-1.103832603E0,9.523382187E-1
9.322083436E0,-1.530979872E0,-4.471530318E-1,1.153923512E0
9.326838697E0,-6.922625303E-1,1.496618688E-1,1.351232886E0
9.331593957E0,3.283398226E-2,6.035344005E-1,1.468518972E0
9.336349217E0,5.007563829E-1,7.984002829E-1,1.457523346E0
9.341104478E0,6.559160352E-1,6.646208763E-1,1.317635298E0
9.345859738E0,5.410735011E-1,2.712239623E-1,1.100167513E0
9.350614947E0,2.997818887E-1,-1.918115467E-1,8.869756460E-1
9.355370207E0,6.032289565E-2,-5.784889460E-1,7.415898442E-1
9.360125467E0,-1.382081509E-1,-8.686497211E-1,6.756164432E-1
9.364880728E0,-3.006981909E-1,-1.103221774E0,6.750055552E-1
9.369635988E0,-4.454731345E-1,-1.301141977E0,7.275399566E-1
9.374391249E0,-5.878046155E-1,-1.470962405E0,8.216131330E-1
9.379146457E0,-7.313578725E-1,-1.622456908E0,9.346231222E-1
9.383901717E0,-8.743002415E-1,-1.743408084E0,1.047633052E0
9.388656978E0,-1.010523081E0,-1.812435746E0,1.138651967E0
9.393412238E0,-1.121700406E0,-1.810603261E0,1.182023406E0
9.398167499E0,-1.174845695E0,-1.690873742E0,1.180801630E0
9.402922759E0,-1.142469883E0,-1.411097646E0,1.142928004E0
9.407677967E0,-1.034957647E0,-9.712749720E-1,1.062904716E0
9.412433228E0,-9.152281284E-1,-3.585776389E-1,9.315688014E-1
9.417188488E0,-9.616538882E-1,4.813614488E-1,7.049379349E-1
9.421943749E0,-1.243262529E0,1.466686368E0,3.610210717E-1
9.426699009E0,-1.594509840E0,2.284023523E0,-2.015853859E-2
9.431454269E0,-1.841299176E0,2.733009100E0,-3.249800503E-1
9.436209530E0,-1.906661749E0,2.819751740E0,-5.192350745E-1
9.440964738E0,-1.829081893E0,2.632216454E0,-6.298015714E-1
9.445719999E0,-1.689193845E0,2.256534576E0,-7.134900689E-1
9.450475259E0,-1.556025267E0,1.767231822E0,-8.246674538E-1
9.455230519E0,-1.476001978E0,1.251051068E0,-1.000596523E0
9.459985780E0,-1.472947717E0,7.776308656E-1,-1.235168576E0
9.464741040E0,-1.527314663E0,3.622428179E-1,-1.504559994E0
9.469496249E0,-1.592066288E0,-1.527161989E-2,-1.775783896E0
9.474251509E0,-1.617722631E0,-3.714057803E-1,-2.021351576E0
9.479006769E0,-1.574962139E0,-6.994401813E-1,-2.223547697E0
9.483762030E0,-1.468671679E0,-9.847140312E-1,-2.383594275E0
9.488517290E0,-1.327561855E0,-1.208901405E0,-2.516762972E0
9.493272551E0,-1.178510904E0,-1.352454662E0,-2.637103319E0
9.498027759E0,-1.039233685E0,-1.419038892E0,-2.749502420E0
9.502783019E0,-9.127846956E-1,-1.435532212E0,-2.850295067E0
9.507538280E0,-7.942769527E-1,-1.449582100E0,-2.941924810E0
9.512293540E0,-6.861538887E-1,-1.502116442E0,-3.031111002E0
9.517048801E0,-5.951350331E-1,-1.604741812E0,-3.119075537E0
9.521804061E0,-5.273290277E-1,-1.728136420E0,-3.194822788E0
9.526559269E0,-4.937314689E-1,-1.807548881E0,-3.246135473E0
9.531314530E0,-4.992292523E-1,-1.798385859E0,-3.268737316E0
9.536069790E0,-5.383245945E-1,-1.707977891E0,-3.269959211E0
9.540825051E0,-5.994110703E-1,-1.541822672E0,-3.273624420E0
9.545580311E0,-6.592758298E-1,-1.315191865E0,-3.286452532E0
9.550335572E0,-7.154753804E-1,-1.034194112E0,-3.313330650E0
9.555090780E0,-7.826704979E-1,-6.835576892E-1,-3.363421440E0
9.559846040E0,-8.706350327E-1,-2.528980076E-1,-3.446499109E0
9.564601301E0,-9.665408134E-1,2.241873741E-1,-3.554011345E0
9.569356561E0,-1.044731498E0,7.397572398E-1,-3.666410446E0
9.574111822E0,-1.102152824E0,1.304807186E0,-3.772089958E0
9.578867030E0,-1.144302487E0,1.923002362E0,-3.856389284E0
9.583622290E0,-1.158963203E0,2.571740627E0,-3.884489059E0
9.588377551E0,-1.132696033E0,3.200320482E0,-3.828900337E0
9.593132811E0,-1.058781385E0,3.742768526E0,-3.688401461E0
9.597888072E0,-9.427170753E-1,4.163654327E0,-3.495368242E0
9.602643332E0,-7.771727443E-1,4.445873737E0,-3.281565666E0
9.607398540E0,-5.670352578E-1,4.582096577E0,-3.057378292E0
9.612153801E0,-3.251327872E-1,4.583318233E0,-2.829525709E0
9.616909061E0,-7.040216774E-2,4.482525826E0,-2.618777275E0
9.621664322E0,1.751654744E-1,4.292546749E0,-2.436739683E0
9.626419582E0,4.109592736E-1,4.033540249E0,-2.292575598E0
9.631174842E0,6.620246768E-1,3.723220825E0,-2.182619810E0
9.635930051E0,9.399681687E-1,3.363421440E0,-2.098931313E0
9.640685311E0,1.250287533E0,2.949866056E0,-2.025627613E0
9.645440572E0,1.574656725E0,2.482554436E0,-1.949269533E0
9.650195832E0,1.902691126E0,1.963319421E0,-1.855807185E0
