"Time (s)","Acceleration x (m/s^2)","Acceleration y (m/s^2)","Acceleration z (m/s^2)"
1.168109800E-2,2.579462767E0,4.352544308E0,7.549355507E0
1.653193100E-2,2.426322222E0,4.429114819E0,8.082955360E0
2.138271200E-2,2.344966173E0,4.548755646E0,9.485149384E0
2.623338900E-2,2.376072884E0,4.625326157E0,1.010010433E1
3.108401400E-2,2.538784742E0,4.536791801E0,1.053320503E1
3.593469200E-2,2.816352367E0,4.345366001E0,1.095434189E1
4.078531700E-2,2.974278450E0,4.201796532E0,1.110987568E1
4.563599400E-2,2.969492912E0,4.106083870E0,1.103809071E1
5.048667100E-2,2.816352367E0,4.077369690E0,1.076530933E1
5.533729600E-2,2.517249346E0,4.106083870E0,1.033938694E1
6.018797300E-2,2.141576290E0,4.074976921E0,1.001635551E1
6.503865000E-2,1.730010748E0,4.041477680E0,9.791430473E0
6.988927500E-2,1.213161111E0,3.969692707E0,9.303294182E0
7.473995200E-2,9.595218897E-1,3.835694790E0,9.116654396E0
7.959062900E-2,8.398807645E-1,3.708875179E0,9.073583603E0
8.444125400E-2,7.657032609E-1,3.601198196E0,9.154939651E0
8.929193100E-2,6.963114142E-1,3.493520975E0,9.291330338E0
9.414255600E-2,6.269195080E-1,3.414557934E0,9.351150513E0
9.899323300E-2,4.498506486E-1,3.460021496E0,9.470791817E0
1.038439100E-1,3.445664644E-1,3.464807272E0,9.590433121E0
1.086945870E-1,3.828516304E-1,3.448057413E0,9.738788605E0
1.135452120E-1,4.378865361E-1,3.402593851E0,9.860821724E0
1.183958890E-1,5.168496966E-1,3.323630571E0,9.918250084E0
1.232465140E-1,5.551348329E-1,3.278167009E0,9.951749802E0
1.280971920E-1,5.503492355E-1,3.206382275E0,9.944570541E0
1.329478690E-1,5.575276613E-1,3.148954630E0,9.956535339E0
1.377984940E-1,5.120640397E-1,3.113062143E0,9.994820595E0
1.426491710E-1,4.331009090E-1,3.113062143E0,1.007617569E1
1.474998480E-1,3.469592929E-1,3.127419233E0,1.012164021E1
1.523504730E-1,2.129612118E-1,3.163311481E0,1.015513897E1
1.572011500E-1,1.076770201E-1,3.141776085E0,1.012881851E1
1.620517750E-1,-1.196411345E-2,3.074777126E0,1.005703354E1
1.669024520E-1,-9.571290761E-2,3.007778168E0,9.954142570E0
1.717531290E-1,-1.124626622E-1,2.938386202E0,9.812965393E0
1.766037540E-1,-1.100698411E-1,2.809173822E0,9.743574142E0
1.814544310E-1,-1.076770201E-1,2.758924484E0,9.688538551E0
1.863051080E-1,-1.292124242E-1,2.715853691E0,9.676574707E0
1.911557330E-1,-1.555334777E-1,2.715853691E0,9.650253296E0
1.960064100E-1,-2.153540403E-1,2.790031195E0,9.655039787E0
2.008570350E-1,-3.469592929E-1,2.837887764E0,9.592825890E0
2.057077120E-1,-4.211367965E-1,2.799602509E0,9.506684303E0
2.105583890E-1,-4.378865361E-1,2.708675146E0,9.427721024E0
2.154090140E-1,-4.115654826E-1,2.596212626E0,9.332008362E0
2.202596920E-1,-3.613162339E-1,2.464607239E0,9.276973724E0
2.251103170E-1,-3.230310678E-1,2.361716032E0,9.279366493E0
2.299609940E-1,-3.732803464E-1,2.258824587E0,9.265008926E0
2.348116710E-1,-4.426721931E-1,2.225325108E0,9.308079720E0
2.396622960E-1,-5.647061467E-1,2.213361025E0,9.341579437E0
2.445129730E-1,-7.034898400E-1,2.254039049E0,9.389435768E0
2.493634940E-1,-8.685946465E-1,2.304288149E0,9.406186104E0
2.541190670E-1,-9.906286001E-1,2.311466694E0,9.420542717E0
2.588746390E-1,-1.129412293E0,2.304288149E0,9.401400566E0
2.636301600E-1,-1.165304661E0,2.282752752E0,9.334401131E0
2.683857330E-1,-1.160519004E0,2.249253273E0,9.224330902E0
2.731413060E-1,-1.162911773E0,2.225325108E0,9.123832703E0
2.778968270E-1,-1.177268744E0,2.208575249E0,9.066405296E0
2.826524000E-1,-1.232303619E0,2.189432621E0,9.066405296E0
2.874079210E-1,-1.261017561E0,2.203789711E0,9.049654961E0
2.921634940E-1,-1.270588875E0,2.227717876E0,9.037691116E0
2.969190670E-1,-1.304088354E0,2.237289190E0,9.013762474E0
3.016745870E-1,-1.356730461E0,2.242074728E0,9.016156197E0
3.064301600E-1,-1.371087432E0,2.244467735E0,9.042476654E0
3.111856810E-1,-1.387837172E0,2.280359983E0,9.071190834E0
3.159412540E-1,-1.378265858E0,2.297109842E0,9.097511292E0
3.206968270E-1,-1.174875975E0,2.297109842E0,9.102297783E0
3.254523480E-1,-1.040877819E0,2.359323025E0,9.075976372E0
3.302079210E-1,-1.028913736E0,2.447857618E0,9.016156197E0
3.349634420E-1,-1.074377418E0,2.545963287E0,9.023334503E0
3.397190140E-1,-1.071984529E0,2.593819857E0,9.111868858E0
3.444745870E-1,-9.834501147E-1,2.600998163E0,9.212367058E0
3.492301080E-1,-8.973084688E-1,2.560320139E0,9.269794464E0
3.539856810E-1,-8.590233326E-1,2.522035122E0,9.286544800E0
3.587412020E-1,-9.284151793E-1,2.514856577E0,9.255437851E0
3.634967750E-1,-1.055234790E0,2.490928411E0,9.245866776E0
3.682522960E-1,-1.153340459E0,2.498106956E0,9.217152596E0
3.730078690E-1,-1.241874933E0,2.467000246E0,9.188439369E0
3.777634420E-1,-1.282552958E0,2.459821701E0,9.147761345E0
3.825189620E-1,-1.239482164E0,2.435893536E0,9.133403778E0
3.872745350E-1,-1.213161111E0,2.404786825E0,9.131011009E0
3.920300560E-1,-1.198804140E0,2.361716032E0,9.159725189E0
3.967856290E-1,-1.198804140E0,2.352144718E0,9.195617676E0
4.015412020E-1,-1.191625714E0,2.337787628E0,9.274580956E0
4.062967230E-1,-1.170090318E0,2.356930256E0,9.442078590E0
4.110522960E-1,-1.138983607E0,2.347358942E0,9.743574142E0
4.158078170E-1,-1.074377418E0,2.349751949E0,1.010967541E1
4.205633890E-1,-1.043270707E0,2.356930256E0,1.041595650E1
4.253189100E-1,-1.043270707E0,2.328216314E0,1.054995537E1
4.300744830E-1,-1.186840057E0,2.299502611E0,1.092323494E1
4.348300560E-1,-1.517049551E0,2.167897224E0,1.193300629E1
4.395855770E-1,-1.612762451E0,2.134397745E0,1.221535969E1
4.443411500E-1,-1.387837172E0,2.132004976E0,1.150708389E1
4.490966710E-1,-1.296909928E0,2.021935225E0,1.066720295E1
4.538522440E-1,-1.160519004E0,1.873580098E0,1.028674412E1
4.586077640E-1,-1.050449133E0,1.789831281E0,1.016949654E1
4.633633370E-1,-1.110269666E0,1.832902193E0,9.951749802E0
4.681189100E-1,-1.263410330E0,1.976471543E0,9.583254814E0
4.728744310E-1,-1.383051515E0,2.086541414E0,9.279366493E0
4.776300040E-1,-1.402194023E0,2.167897224E0,9.159725189E0
4.823855250E-1,-1.375872970E0,2.189432621E0,9.159725189E0
4.871410980E-1,-1.349551916E0,2.122433662E0,9.248259544E0
4.918966190E-1,-1.356730461E0,2.012363911E0,9.293723106E0
4.966521920E-1,-1.387837172E0,1.926222205E0,9.243474007E0
5.014077120E-1,-1.435693622E0,1.864008784E0,9.099904060E0
5.061632850E-1,-1.452443361E0,1.789831281E0,8.930013657E0
5.109188580E-1,-1.524227977E0,1.730010748E0,8.666803360E0
5.156743790E-1,-1.622333765E0,1.710868239E0,8.427521706E0
5.204299520E-1,-1.753939033E0,1.639083505E0,8.185846329E0
5.251854730E-1,-1.722832322E0,1.667797327E0,8.109275818E0
5.299410460E-1,-1.464407444E0,1.739582062E0,8.362915039E0
5.346965670E-1,-1.170090318E0,1.871187329E0,8.941978455E0
5.394521390E-1,-9.523434043E-1,1.942971945E0,9.530612946E0
5.442076600E-1,-7.226324677E-1,2.038684845E0,9.896714211E0
5.489632330E-1,-6.005984545E-1,2.057827473E0,9.990034103E0
5.537187540E-1,-5.982056856E-1,2.029113531E0,1.002353382E1
5.584743270E-1,-6.747759581E-1,2.005185366E0,1.012403297E1
5.632299000E-1,-8.566305041E-1,1.923829436E0,1.038485050E1
5.679854210E-1,-1.083948612E0,1.852044702E0,1.064806080E1
5.727409940E-1,-1.471585870E0,1.768295884E0,1.092084217E1
5.774965140E-1,-2.117648125E0,1.732403636E0,1.112183952E1
5.822520870E-1,-2.371287346E0,1.603191137E0,1.094477081E1
5.870076080E-1,-2.612962246E0,1.574477315E0,1.061216831E1
5.917631810E-1,-2.679961443E0,1.454836130E0,1.041117096E1
5.965187020E-1,-2.675175667E0,1.440479279E0,1.024606609E1
6.012742750E-1,-2.596212626E0,1.502692580E0,1.012403297E1
6.060297960E-1,-2.533999205E0,1.591227055E0,1.000917721E1
6.107853690E-1,-2.548356056E0,1.775474429E0,1.005224800E1
6.155408890E-1,-2.457428932E0,1.998006940E0,1.009292603E1
6.202964620E-1,-2.158325911E0,2.127219439E0,1.005224800E1
6.250519830E-1,-1.840080619E0,2.309073925E0,9.901499748E0
6.298075560E-1,-1.203589797E0,2.294716835E0,9.781859398E0
6.345630770E-1,-1.304088354E0,2.600998163E0,9.138189316E0
6.393186500E-1,-1.773081541E0,3.742374659E0,8.568697929E0
6.440741710E-1,-1.581655741E0,3.522234917E0,8.506484032E0
6.488297440E-1,-1.569691658E0,3.550948858E0,7.767102242E0
6.535852640E-1,-1.509871125E0,3.605983734E0,7.896314621E0
6.583408370E-1,-1.586441398E0,3.799802303E0,7.898707390E0
6.630964100E-1,-1.840080619E0,3.996013880E0,8.135597229E0
6.678519310E-1,-2.081755638E0,4.122833252E0,8.291130066E0
6.726075040E-1,-2.301895380E0,4.177868366E0,8.331808090E0
6.773630250E-1,-2.553141832E0,4.173082829E0,8.360522270E0
6.821185980E-1,-2.967100143E0,4.053441525E0,8.401200294E0
6.868741190E-1,-3.223132133E0,3.919443607E0,8.396414757E0
6.916296920E-1,-3.316452265E0,3.754338741E0,8.458627701E0
6.963852120E-1,-3.428914785E0,3.653840065E0,8.415556908E0
7.011407850E-1,-3.627519131E0,3.613162279E0,8.190631866E0
7.058963060E-1,-3.416950703E0,3.608376503E0,8.257631302E0
7.106518790E-1,-3.189632654E0,3.560520172E0,8.233702660E0
7.154074000E-1,-2.830709219E0,3.570091486E0,8.360522270E0
7.201629730E-1,-2.615355253E0,3.565305710E0,8.202595711E0
7.249184940E-1,-2.486142635E0,3.445664644E0,7.972885132E0
7.296740670E-1,-2.242074728E0,3.247060299E0,7.697710514E0
7.344295870E-1,-2.060220242E0,3.010170937E0,7.391428947E0
7.391851600E-1,-1.954936147E0,2.830709219E0,7.427321434E0
7.439406810E-1,-1.706082582E0,2.629712105E0,7.613961697E0
7.486962540E-1,-1.904686809E0,2.378465652E0,7.286144733E0
7.534517750E-1,-2.105684042E0,2.292324066E0,7.317251682E0
7.582073480E-1,-2.246860504E0,2.287538528E0,7.403393269E0
7.629628690E-1,-2.450250387E0,2.110469580E0,6.786045074E0
7.677184420E-1,-2.507678032E0,2.273181438E0,7.101897717E0
7.724739620E-1,-2.644068956E0,2.486142635E0,6.886543751E0
7.772295350E-1,-2.821137905E0,2.787638426E0,6.704689026E0
7.819850560E-1,-3.081955671E0,3.101098061E0,6.618547440E0
7.867406290E-1,-3.433700562E0,3.395415306E0,6.597012043E0
7.914961500E-1,-3.629911900E0,3.553341627E0,6.558726788E0
7.962517230E-1,-3.713660717E0,3.639483213E0,6.496513367E0
8.010072440E-1,-3.689732552E0,3.596412420E0,6.362515450E0
8.057627640E-1,-3.644268990E0,3.555734396E0,6.233303070E0
8.105183370E-1,-3.594019651E0,3.653840065E0,6.089733601E0
8.152738580E-1,-3.558127165E0,3.840480328E0,5.871986866E0
8.200294310E-1,-3.653840065E0,4.084548473E0,5.656632900E0
8.247849520E-1,-3.560520172E0,4.249652863E0,5.551348686E0
8.295405250E-1,-3.457628727E0,4.319045067E0,5.446064472E0
8.342960460E-1,-3.306880951E0,4.314259052E0,5.335994720E0
8.390516190E-1,-3.098705292E0,4.216153622E0,5.314459324E0
8.438071390E-1,-2.991028309E0,4.127619267E0,4.855037212E0
8.485627120E-1,-2.935993433E0,3.945764542E0,5.132604599E0
8.533182330E-1,-2.912065268E0,3.701696634E0,5.393422127E0
8.580738060E-1,-2.790031195E0,3.335594654E0,5.613562107E0
8.628293270E-1,-2.711068153E0,3.060420275E0,6.206982136E0
8.675849000E-1,-2.675175667E0,2.684746981E0,6.041877270E0
8.723404210E-1,-2.560320139E0,2.397608280E0,6.226124287E0
8.770959940E-1,-2.565105915E0,2.062613010E0,6.525227547E0
8.818515140E-1,-2.639283419E0,1.713261008E0,6.608976364E0
8.866070350E-1,-2.660818815E0,1.545763373E0,6.809973240E0
8.913626080E-1,-2.701496840E0,1.277767301E0,6.719046116E0
8.961181290E-1,-2.883351326E0,1.270588875E0,6.625725746E0
9.008737020E-1,-3.074777126E0,1.366301775E0,6.491727829E0
9.056292230E-1,-3.117847919E0,1.483550072E0,6.116054535E0
9.103847960E-1,-3.203989506E0,1.679761529E0,5.871986866E0
9.151403170E-1,-3.158525944E0,1.861616015E0,5.290530682E0
9.198958890E-1,-3.125026464E0,1.902294040E0,4.811966419E0
9.246514100E-1,-3.103491068E0,2.069791555E0,4.560719967E0
9.294069310E-1,-3.122633457E0,2.232503414E0,4.230510235E0
9.341625040E-1,-3.220739365E0,2.476571321E0,3.792623997E0
9.389180770E-1,-3.440878868E0,2.548356056E0,3.460021496E0
9.436735980E-1,-3.570091486E0,2.732603550E0,3.450450182E0
9.484291190E-1,-3.529413462E0,2.833101988E0,3.852444410E0
9.531846920E-1,-3.620340586E0,2.766103029E0,3.756731510E0
9.579402120E-1,-3.912265062E0,2.471785784E0,3.646661758E0
9.626957850E-1,-4.237689018E0,2.244467735E0,3.840480328E0
9.674513060E-1,-4.572684288E0,2.050648928E0,3.725624800E0
9.722068790E-1,-4.867001057E0,1.715653777E0,3.878765583E0
9.769624000E-1,-5.242674351E0,1.619940877E0,4.086941242E0
9.817179730E-1,-5.493920803E0,1.653440475E0,4.261617184E0
9.864734940E-1,-5.606383324E0,1.725225091E0,4.316651821E0
9.912290140E-1,-5.668596745E0,1.808973908E0,4.220939159E0
9.959845870E-1,-5.816951752E0,1.969292998E0,4.043870449E0
1.000740108E0,-5.924628735E0,2.153540373E0,4.051048756E0
1.005495681E0,-6.025127411E0,2.079362869E0,3.653840065E0
1.010251202E0,-6.228517532E0,2.081755638E0,3.340380430E0
1.015006723E0,-6.448657036E0,2.141576290E0,3.239881754E0
1.019762296E0,-6.580262184E0,2.179861546E0,2.959921598E0
1.024517817E0,-6.671189308E0,2.218146563E0,2.792423964E0
1.029273389E0,-6.783652306E0,2.517249346E0,2.701496840E0
1.034028910E0,-6.955935478E0,2.811566591E0,2.677568436E0
1.038784483E0,-7.135396957E0,2.943171740E0,2.744567633E0
1.043540004E0,-7.262216568E0,2.723032236E0,2.804388046E0
1.048295525E0,-7.477570534E0,2.359323025E0,3.146561861E0
1.053051098E0,-7.972885132E0,2.031506538E0,2.854637384E0
1.057806619E0,-8.475378036E0,1.840080619E0,2.852244616E0
1.062562192E0,-8.669196129E0,1.775474429E0,2.902493954E0
1.067317712E0,-8.669196129E0,1.806581140E0,3.041277647E0
1.072073285E0,-8.628518105E0,1.820937991E0,3.235096216E0
1.076828806E0,-8.595019341E0,1.785045743E0,3.349951744E0
1.081584327E0,-8.580661774E0,1.725225091E0,3.476771355E0
1.086339900E0,-8.602197647E0,1.701296926E0,3.517449379E0
1.091095421E0,-8.650053978E0,1.696511269E0,3.481556892E0
1.095850994E0,-8.805587769E0,1.698904037E0,3.467200041E0
1.100606514E0,-9.080761909E0,1.751546144E0,3.443271875E0
1.105362035E0,-9.365508080E0,1.787438512E0,3.349951744E0
1.110117608E0,-9.580862045E0,1.873580098E0,3.213560820E0
1.114873129E0,-9.767501831E0,1.942971945E0,3.002992392E0
1.119628702E0,-1.004028416E1,2.024327993E0,2.634497643E0
1.124384223E0,-1.037049294E1,2.232503414E0,2.225325108E0
1.129139744E0,-1.067198944E1,2.500499725E0,1.868794441E0
1.133895317E0,-1.102612686E1,2.790031195E0,1.696511269E0
1.138650837E0,-1.141137123E1,2.974278450E0,1.672582984E0
1.143406410E0,-1.177268696E1,3.034099102E0,1.710868239E0
1.148161931E0,-1.193779182E1,2.979064226E0,1.883151412E0
1.152917452E0,-1.194018459E1,2.878565550E0,2.160718918E0
1.157673025E0,-1.188993549E1,2.723032236E0,2.431107759E0
1.162428546E0,-1.173200989E1,2.464607239E0,2.603390932E0
1.167184119E0,-1.152383423E1,2.167897224E0,2.825923443E0
1.171939639E0,-1.135394382E1,1.854437590E0,2.991028309E0
1.176695160E0,-1.132044411E1,1.533799291E0,2.976671457E0
1.181450733E0,-1.125344467E1,1.294517040E0,2.895315409E0
1.186206254E0,-1.117448139E1,1.179661512E0,2.816352367E0
1.190961775E0,-1.109312534E1,1.138983607E0,2.718246460E0
1.195717348E0,-1.101894855E1,1.203589797E0,2.531606436E0
1.200472869E0,-1.100698376E1,1.339980721E0,2.311466694E0
1.205228442E0,-1.102851963E1,1.564906001E0,2.100898266E0
1.209983962E0,-1.118883896E1,1.720439434E0,1.962114573E0
1.214739483E0,-1.152622700E1,1.789831281E0,1.727617979E0
1.219495056E0,-1.269392395E1,2.167897224E0,1.189232826E0
1.224250577E0,-1.269870949E1,2.076970100E0,8.303094506E-1
1.229006150E0,-1.283988667E1,1.966900229E0,3.924229145E-1
1.233761671E0,-1.281595802E1,2.105684042E0,5.479564071E-1
1.238517192E0,-1.357687569E1,2.364108801E0,1.962114573E-1
1.243272764E0,-1.329691505E1,2.371287346E0,8.877372146E-1
1.248028285E0,-1.333520031E1,2.100898266E0,5.431707501E-1
1.252783806E0,-1.402194023E1,2.165504456E0,4.283152521E-1
1.257539379E0,-1.304088306E1,1.584048629E0,8.231309652E-1
1.262294900E0,-1.272742367E1,1.313659668E0,6.604190469E-1
1.267050421E0,-1.254078388E1,1.012163997E0,6.963114142E-1
1.271805994E0,-1.224168110E1,7.992027402E-1,8.590233326E-1
1.276561514E0,-1.185882950E1,6.053841114E-1,1.055234790E0
1.281317087E0,-1.167936707E1,4.235295951E-1,1.095912814E0
1.286072608E0,-1.173200989E1,2.632105052E-1,9.571290612E-1
1.290828129E0,-1.203589821E1,2.584248483E-1,6.723831892E-1
1.295583650E0,-1.225603771E1,4.091726840E-1,3.445664644E-1
1.300339223E0,-1.233739376E1,6.867401004E-1,1.722832322E-1
1.305094744E0,-1.242832088E1,9.092726111E-1,-3.349951655E-2
1.309850317E0,-1.244985580E1,1.062413216E0,-4.618147612E-1
1.314605837E0,-1.241874981E1,1.198804140E0,-9.762716293E-1
1.319361358E0,-1.241635704E1,1.454836130E0,-1.349551916E0
1.324116931E0,-1.245464230E1,1.756331801E0,-1.567298889E0
1.328872452E0,-1.255035496E1,1.983649969E0,-1.694118381E0
1.333627973E0,-1.263171101E1,2.074577332E0,-1.586441398E0
1.338383546E0,-1.278724384E1,2.079362869E0,-1.222732425E0
1.343139067E0,-1.300259781E1,1.976471543E0,-8.350951076E-1
1.347894587E0,-1.334716511E1,1.799402595E0,-5.694918036E-1
1.352650160E0,-1.372762394E1,1.679761529E0,-4.115654826E-1
1.357405681E0,-1.422293758E1,1.612762451E0,-3.732803464E-1
1.362161202E0,-1.473739433E1,1.660618901E0,-3.062812984E-1
1.366916775E0,-1.532124329E1,1.765903115E0,-4.809573591E-1
1.371672296E0,-1.598644829E1,1.947757602E0,-9.140582681E-1
1.376427817E0,-1.640997696E1,2.189432621E0,-1.306481123E0
1.381183389E0,-1.657508278E1,2.476571321E0,-1.636690736E0
1.385938910E0,-1.657029724E1,2.756531715E0,-1.866401672E0
1.390694431E0,-1.645304871E1,2.943171740E0,-2.411965132E0
1.395450004E0,-1.631904984E1,3.148954630E0,-3.462414265E0
1.400205525E0,-1.614676666E1,3.637090445E0,-5.120640278E0
1.404961046E0,-1.607498169E1,4.347758770E0,-6.017949104E0
1.409716619E0,-1.622573090E1,4.883750916E0,-7.573283672E0
1.414472139E0,-1.627358627E1,5.235496044E0,-9.042476654E0
1.419227660E0,-1.618265915E1,5.568098068E0,-9.745966911E0
1.423983233E0,-1.641954803E1,5.819344521E0,-9.956535339E0
1.428738754E0,-1.638604927E1,5.601597786E0,-9.193224907E0
1.433494275E0,-1.483789349E1,5.005784988E0,-7.618747234E0
1.438249848E0,-1.322752380E1,4.412364960E0,-6.573083878E0
1.443005369E0,-1.235892868E1,3.742374659E0,-5.962913990E0
1.447760889E0,-1.213878918E1,3.024527788E0,-5.290530682E0
1.452516462E0,-1.225364494E1,2.330609322E0,-4.613361835E0
1.457271983E0,-1.262213898E1,1.770688772E0,-3.878765583E0
1.462027504E0,-1.287577820E1,1.323230863E0,-3.172882795E0
1.466783077E0,-1.296431351E1,1.048056364E0,-2.438286304E0
1.471538598E0,-1.287817192E1,8.255237937E-1,-1.612762451E0
1.476294119E0,-1.251685524E1,4.474578202E-1,-1.256231904E0
1.481049639E0,-1.225603771E1,1.603191197E-1,-1.136590719E0
1.485805212E0,-1.187079334E1,-1.938186288E-1,-1.328016520E0
1.490560733E0,-1.131326580E1,-5.335994363E-1,-1.497906923E0
1.495316254E0,-1.062652493E1,-8.327022791E-1,-1.636690736E0
1.500071827E0,-1.008335495E1,-1.227517962E0,-1.694118381E0
1.504827348E0,-9.568898201E0,-1.667797327E0,-1.866401672E0
1.509582869E0,-9.243474007E0,-1.873580098E0,-2.273181438E0
1.514338442E0,-8.858229637E0,-2.021935225E0,-2.175075769E0
1.519093962E0,-8.755337715E0,-2.122433662E0,-1.974078655E0
1.523849483E0,-8.882157326E0,-1.986042738E0,-1.720439434E0
1.528605004E0,-8.980263710E0,-1.849651933E0,-1.718046665E0
1.533360577E0,-8.654839516E0,-1.818545222E0,-1.806581140E0
1.538116098E0,-7.905886173E0,-2.060220242E0,-2.086541414E0
1.542871619E0,-7.085147858E0,-2.203789711E0,-2.476571321E0
1.547627192E0,-6.726224422E0,-1.758724689E0,-2.342573404E0
1.552382712E0,-6.360122681E0,-1.129412293E0,-2.297109842E0
1.557138233E0,-6.130411625E0,-6.077769399E-1,-2.019542217E0
1.561893754E0,-6.477370739E0,-2.656033039E-1,-1.339980721E0
1.566649327E0,-7.671389580E0,-6.460621208E-2,4.067798331E-2
1.571404848E0,-8.094919205E0,-3.613162339E-1,1.409372568E0
1.576160369E0,-8.475378036E0,-1.442872047E0,1.806581140E0
1.580915942E0,-9.044869423E0,-2.612962246E0,1.909472466E0
1.585671462E0,-9.784252167E0,-3.361915827E0,2.632104874E0
1.590426983E0,-1.040399265E1,-3.649054527E0,3.677768469E0
1.595182504E0,-1.068395329E1,-3.608376503E0,2.569891453E0
1.599938077E0,-1.081555843E1,-3.206382275E0,2.517249346E0
1.604693598E0,-1.057388306E1,-2.873780012E0,2.007578135E0
1.609449119E0,-9.738788605E0,-2.842673302E0,1.672582984E0
1.614204639E0,-7.853243828E0,-3.038884640E0,1.021735311E0
1.618960212E0,-6.742974281E0,-3.129812002E0,-1.746760458E-1
1.623715733E0,-5.850451469E0,-2.947957516E0,-1.392622828E0
1.628471254E0,-4.800002098E0,-2.579462767E0,-1.718046665E0
1.633226827E0,-4.321437836E0,-2.524427891E0,-2.031506538E0
1.637982348E0,-4.082155228E0,-3.153740168E0,-1.957328916E0
1.642737869E0,-3.895515203E0,-4.005585194E0,-1.239482164E0
1.647493389E0,-3.866801500E0,-4.579862595E0,-8.087740541E-1
1.652248962E0,-3.634697676E0,-4.713860512E0,-9.571290612E-1
1.657004483E0,-3.555734396E0,-4.728217602E0,-1.765903115E0
1.661760004E0,-3.620340586E0,-4.615755081E0,-2.416750908E0
1.666515525E0,-3.668197155E0,-4.493721008E0,-2.667997360E0
1.671271098E0,-3.567698479E0,-4.362115860E0,-3.055634499E0
1.676026619E0,-3.460021496E0,-4.275974274E0,-3.268595695E0
1.680782139E0,-3.589233875E0,-4.278367043E0,-3.546163082E0
1.685537660E0,-4.036691666E0,-4.441078663E0,-3.716053486E0
1.690293233E0,-4.783252239E0,-4.811966419E0,-3.897907972E0
1.695048754E0,-5.544169903E0,-5.525027275E0,-3.981656790E0
1.699804275E0,-6.350551128E0,-6.424728870E0,-3.802195072E0
1.704559796E0,-7.219145775E0,-7.278966427E0,-3.562912941E0
1.709315369E0,-8.197810173E0,-7.941778183E0,-3.407379389E0
1.714070889E0,-9.157332420E0,-8.360522270E0,-3.041277647E0
1.718826410E0,-9.891928673E0,-8.384450912E0,-2.763710260E0
1.723581931E0,-1.008574772E1,-8.293522835E0,-2.801995277E0
1.728337504E0,-1.016231823E1,-8.106883049E0,-3.002992392E0
1.733093025E0,-9.824930191E0,-7.786244869E0,-3.041277647E0
1.737848546E0,-9.463613510E0,-7.671389580E0,-3.213560820E0
1.742604067E0,-9.463613510E0,-7.759923935E0,-3.649054527E0
1.747359639E0,-9.906285286E0,-7.939385414E0,-3.969692707E0
1.752115160E0,-1.058106136E1,-8.078168869E0,-4.067798615E0
1.756870681E0,-1.136351490E1,-8.164310455E0,-4.077369690E0
1.761626202E0,-1.236610699E1,-8.228917122E0,-4.141975880E0
1.766381723E0,-1.319880962E1,-8.023134232E0,-4.225724697E0
1.771137296E0,-1.379462242E1,-7.530212879E0,-4.285545349E0
1.775892817E0,-1.372283745E1,-7.034898758E0,-4.292723656E0
1.780648337E0,-1.293081379E1,-6.608976364E0,-4.309473515E0
1.785403858E0,-1.184447193E1,-6.120840549E0,-4.587040901E0
1.790159431E0,-1.053320503E1,-5.824130535E0,-4.204189301E0
1.794914952E0,-9.262616158E0,-5.620740414E0,-3.704089403E0
1.799670473E0,-7.980063438E0,-5.503491879E0,-3.266202927E0
1.804425994E0,-6.807580471E0,-5.469992638E0,-2.947957516E0
1.809181567E0,-5.828916073E0,-5.391029358E0,-2.782852650E0
1.813937087E0,-5.027320385E0,-5.395814896E0,-2.610569477E0
1.818692608E0,-4.206582069E0,-5.371886730E0,-2.455035925E0
1.823448129E0,-3.402593851E0,-5.254638672E0,-2.395215511E0
1.828203650E0,-2.907279491E0,-4.974678040E0,-2.270788670E0
1.832959223E0,-2.878565550E0,-4.723432064E0,-1.921436548E0
1.837714744E0,-3.359523058E0,-4.496113777E0,-1.423729420E0
1.842470264E0,-3.543770313E0,-4.371686935E0,-1.217946768E0
1.847225785E0,-3.388236761E0,-4.644468784E0,-4.235295951E-1
1.851981358E0,-3.400201082E0,-4.725824833E0,-8.781659007E-1
1.856736879E0,-3.412165165E0,-4.618147850E0,-1.694118381E0
1.861492400E0,-3.491128206E0,-4.558327198E0,-2.443071842E0
1.866247921E0,-3.651447296E0,-4.601397991E0,-3.034099102E0
1.871003442E0,-3.854837179E0,-4.639683247E0,-3.591626883E0
1.875759014E0,-4.007977962E0,-4.689932346E0,-4.022335052E0
1.880514535E0,-4.278367043E0,-4.776073933E0,-4.232903481E0
1.885270056E0,-4.520041943E0,-4.867001057E0,-4.232903481E0
1.890025577E0,-4.694717884E0,-4.979464054E0,-3.984049797E0
1.894781098E0,-4.804787636E0,-5.058426857E0,-3.510270834E0
1.899536671E0,-5.046463013E0,-5.156532764E0,-3.036491871E0
1.904292192E0,-5.280959606E0,-5.316852093E0,-2.627319336E0
1.909047712E0,-5.522634506E0,-5.335994720E0,-2.246860504E0
1.913803233E0,-5.618347645E0,-5.292923450E0,-1.998006940E0
1.918558754E0,-5.548955917E0,-5.297709465E0,-1.871187329E0
1.923314327E0,-5.393422127E0,-5.328815937E0,-1.782652855E0
1.928069848E0,-5.142175674E0,-5.345565796E0,-1.895115495E0
1.932825369E0,-4.795216560E0,-5.436492920E0,-2.036292076E0
1.937580889E0,-4.850251675E0,-5.702096462E0,-2.012363911E0
1.942336410E0,-5.144568920E0,-6.123233318E0,-2.050648928E0
1.947091983E0,-5.324030399E0,-6.491727829E0,-2.431107759E0
1.951847504E0,-5.345565796E0,-6.800402164E0,-2.495713949E0
1.956603025E0,-5.424529076E0,-7.130611420E0,-2.409572363E0
1.961358546E0,-5.474778175E0,-7.386643410E0,-2.244467735E0
1.966114067E0,-5.237888813E0,-7.527820110E0,-2.323430777E0
1.970869639E0,-4.864608288E0,-7.582854748E0,-2.361716032E0
1.975625160E0,-4.728217602E0,-7.293323517E0,-2.478964329E0
1.980380681E0,-4.445864677E0,-7.178467751E0,-2.498106956E0
1.985136202E0,-4.120440483E0,-6.771687984E0,-2.565105915E0
1.989891723E0,-3.780659676E0,-6.422336102E0,-2.608176708E0
1.994647244E0,-3.452843189E0,-6.144768715E0,-2.402393818E0
1.999402764E0,-3.125026464E0,-5.893522263E0,-2.196611166E0
2.004158337E0,-2.629712105E0,-5.678168297E0,-1.663011789E0
2.008913858E0,-2.266003132E0,-5.663811207E0,-4.594219327E-1
2.013669379E0,-2.603390932E0,-5.498706341E0,-7.178468108E-1
2.018424900E0,-2.857030153E0,-5.469992638E0,-1.277767301E0
2.023180421E0,-3.129812002E0,-5.623133183E0,-1.361516118E0
2.027935994E0,-3.192025423E0,-5.828916073E0,-1.404586911E0
2.032691514E0,-3.117847919E0,-6.216553211E0,-1.660618901E0
2.037447035E0,-2.852244616E0,-6.522834301E0,-2.261217356E0
2.042202556E0,-2.703889608E0,-6.876972198E0,-2.995813847E0
2.046958077E0,-2.510071039E0,-7.307680130E0,-3.684946775E0
2.051713598E0,-2.359323025E0,-7.855636597E0,-4.266402721E0
2.056469171E0,-2.388036966E0,-8.511270523E0,-4.570291042E0
2.061224692E0,-2.816352367E0,-9.724431038E0,-4.421936035E0
2.065980212E0,-3.720839262E0,-1.241635704E1,-4.398007870E0
2.070735733E0,-5.099104881E0,-1.531167221E1,-4.307080746E0
2.075491254E0,-6.333801746E0,-1.788874245E1,-3.761517286E0
2.080246827E0,-6.924828529E0,-1.992742729E1,-3.091526747E0
2.085002348E0,-6.647261143E0,-2.146361923E1,-2.608176708E0
2.089757869E0,-6.132804394E0,-2.291127586E1,-1.986042738E0
2.094513389E0,-5.383851051E0,-2.408615303E1,-1.375872970E0
2.099268910E0,-4.658825874E0,-2.495474815E1,-1.256231904E0
2.104024431E0,-3.747160196E0,-2.543091965E1,-1.763510346E0
2.108779952E0,-2.644068956E0,-2.526342201E1,-2.306680918E0
2.113535473E0,-1.777867198E0,-2.375115776E1,-2.938386202E0
2.118291046E0,-1.459621787E0,-2.065245247E1,-3.670589924E0
2.123046567E0,-1.339980721E0,-1.706800461E1,-4.187439442E0
2.127802087E0,-1.287338614E0,-1.387837124E1,-4.500899315E0
2.132557608E0,-1.103091240E0,-1.145444202E1,-4.646861553E0
2.137313129E0,-9.164510965E-1,-9.631111145E0,-4.548755646E0
2.142068702E0,-8.398807645E-1,-8.286344528E0,-4.395615101E0
2.146824223E0,-1.004985452E0,-7.345965385E0,-4.197010994E0
2.151579744E0,-1.373480201E0,-6.742974281E0,-3.883551121E0
2.156335264E0,-1.926222205E0,-6.285944939E0,-3.503092289E0
2.161090785E0,-2.675175667E0,-6.017949104E0,-3.012563705E0
2.165846306E0,-3.460021496E0,-5.883950710E0,-2.603390932E0
2.170601827E0,-4.077369690E0,-5.883950710E0,-2.321038008E0
2.175357400E0,-4.584648132E0,-5.970092297E0,-2.100898266E0
2.180112921E0,-4.934000492E0,-6.183053493E0,-1.921436548E0
2.184868442E0,-5.240281582E0,-6.429514408E0,-1.813759565E0
2.189623962E0,-5.441278458E0,-6.719046116E0,-1.797009826E0
2.194379483E0,-5.589633465E0,-6.977470875E0,-1.880758643E0
2.199135004E0,-5.690132141E0,-7.185646534E0,-2.002792597E0
2.203890525E0,-5.797809124E0,-7.439285755E0,-2.187039852E0
2.208646098E0,-5.838487148E0,-7.647460938E0,-2.388036966E0
2.213401619E0,-5.855237007E0,-7.853243828E0,-2.553141832E0
2.218157139E0,-5.843272686E0,-7.994420528E0,-2.634497643E0
2.222912660E0,-5.814558983E0,-8.097311974E0,-2.653640270E0
2.227668181E0,-5.771488190E0,-8.183453560E0,-2.586641312E0
2.232423702E0,-5.716453075E0,-8.200202942E0,-2.469393015E0
2.237179223E0,-5.596812248E0,-8.183453560E0,-2.340180635E0
2.241934744E0,-5.335994720E0,-8.133204460E0,-2.263610125E0
2.246690317E0,-4.960321426E0,-8.066205025E0,-2.177468538E0
2.251445837E0,-4.539184570E0,-8.044670105E0,-2.100898266E0
2.256201358E0,-4.074976921E0,-8.063812256E0,-2.072184324E0
2.260956879E0,-3.680161238E0,-8.099704742E0,-2.079362869E0
2.265712400E0,-3.290131092E0,-8.154739380E0,-2.134397745E0
2.270467921E0,-2.938386202E0,-8.260024071E0,-2.208575249E0
2.275223442E0,-2.689532757E0,-8.372486115E0,-2.299502611E0
2.279978962E0,-2.445464849E0,-8.501698494E0,-2.411965132E0
2.284734535E0,-2.246860504E0,-8.618947029E0,-2.517249346E0
2.289490056E0,-2.062613010E0,-8.709874153E0,-2.608176708E0
2.294245577E0,-1.852044702E0,-8.863015175E0,-2.768495798E0
2.299001098E0,-1.682154298E0,-9.030512810E0,-2.924029350E0
2.303756619E0,-1.497906923E0,-9.200403214E0,-3.060420275E0
2.308512139E0,-1.323230863E0,-9.382257462E0,-3.134597778E0
2.313267660E0,-1.162911773E0,-9.573683739E0,-3.225524902E0
2.318023181E0,-1.026520967E0,-9.760323524E0,-3.266202927E0
2.322778754E0,-8.446664214E-1,-9.913464546E0,-3.333201885E0
2.327534275E0,-6.939185858E-1,-1.003310490E1,-3.409772158E0
2.332289796E0,-5.503492355E-1,-1.010728264E1,-3.505485058E0
2.337045317E0,-4.570291340E-1,-1.017188931E1,-3.586841106E0
2.341800837E0,-4.307080805E-1,-1.020778179E1,-3.605983734E0
2.346556358E0,-3.948157430E-1,-1.012164021E1,-3.570091486E0
2.351311879E0,-4.594219327E-1,-1.003310490E1,-3.500699520E0
2.356067400E0,-5.383850932E-1,-9.963713646E0,-3.383451223E0
2.360822921E0,-6.843472719E-1,-9.868000984E0,-3.218346357E0
2.365578494E0,-8.590233326E-1,-9.765109062E0,-3.007778168E0
2.370334014E0,-1.036092162E0,-9.674181938E0,-2.806781054E0
2.375089535E0,-1.227517962E0,-9.631111145E0,-2.641676188E0
2.379845056E0,-1.423729420E0,-9.643074989E0,-2.612962246E0
2.384600577E0,-1.607976794E0,-9.616754532E0,-2.653640270E0
2.389356098E0,-1.763510346E0,-9.614361763E0,-2.677568436E0
2.394111619E0,-1.902294040E0,-9.638289452E0,-2.708675146E0
2.398867139E0,-2.033899307E0,-9.650253296E0,-2.754138947E0
2.403622660E0,-2.148754835E0,-9.674181938E0,-2.794816732E0
2.408378233E0,-2.254039049E0,-9.712467194E0,-2.857030153E0
2.413133754E0,-2.368894339E0,-9.774680138E0,-2.971885681E0
2.417889275E0,-2.517249346E0,-9.781859398E0,-3.079562664E0
2.422644796E0,-2.646461725E0,-9.793823242E0,-3.201596737E0
2.427400317E0,-2.744567633E0,-9.767501831E0,-3.294916868E0
2.432155837E0,-2.904886723E0,-9.683753014E0,-3.326023579E0
2.436911358E0,-2.981456995E0,-9.607182503E0,-3.278167009E0
2.441666879E0,-3.093919754E0,-9.451649666E0,-3.136990547E0
2.446422400E0,-3.127419233E0,-9.265008926E0,-2.940778971E0
2.451177921E0,-3.156133175E0,-9.099904060E0,-2.706282377E0
2.455933442E0,-3.177668571E0,-8.973084450E0,-2.533999205E0
2.460688962E0,-3.196810961E0,-8.843872070E0,-2.388036966E0
2.465444535E0,-3.144168854E0,-8.750552177E0,-2.301895380E0
2.470200056E0,-3.086741209E0,-8.690732002E0,-2.297109842E0
2.474955577E0,-3.005385160E0,-8.714659691E0,-2.316252232E0
2.479711098E0,-2.861815929E0,-8.733802795E0,-2.402393818E0
2.484466619E0,-2.711068153E0,-8.788837433E0,-2.495713949E0
2.489222139E0,-2.600998163E0,-8.836693764E0,-2.589034081E0
2.493977660E0,-2.522035122E0,-8.872586250E0,-2.651247501E0
2.498733181E0,-2.467000246E0,-8.951549530E0,-2.677568436E0
2.503488702E0,-2.443071842E0,-9.006584167E0,-2.723032236E0
2.508244223E0,-2.445464849E0,-9.040083885E0,-2.756531715E0
2.512999744E0,-2.455035925E0,-9.068798065E0,-2.770888567E0
2.517755317E0,-2.421536446E0,-9.083154678E0,-2.794816732E0
2.522510837E0,-2.407179594E0,-9.104690552E0,-2.847458839E0
2.527266358E0,-2.400001049E0,-9.128618240E0,-2.883351326E0
2.532021879E0,-2.421536446E0,-9.138189316E0,-2.900100946E0
2.536777400E0,-2.462214470E0,-9.133403778E0,-2.916850805E0
2.541532921E0,-2.474178553E0,-9.095118523E0,-2.943171740E0
2.546288442E0,-2.486142635E0,-9.064012527E0,-2.928814888E0
2.551043962E0,-2.533999205E0,-9.052047729E0,-2.916850805E0
2.555799483E0,-2.543570518E0,-9.013762474E0,-2.907279491E0
2.560555004E0,-2.557927370E0,-8.999405861E0,-2.900100946E0
2.565310525E0,-2.593819857E0,-8.987442017E0,-2.892922640E0
2.570066098E0,-2.612962246E0,-8.977870941E0,-2.871387243E0
2.574821619E0,-2.660818815E0,-9.011369705E0,-2.837887764E0
2.579577139E0,-2.703889608E0,-9.020941734E0,-2.801995277E0
2.584332660E0,-2.782852650E0,-9.044869423E0,-2.785245657E0
2.589088181E0,-2.849851847E0,-9.061619759E0,-2.792423964E0
2.593843702E0,-2.928814888E0,-9.071190834E0,-2.749353170E0
2.598599223E0,-3.026920557E0,-9.049654961E0,-2.720639229E0
2.603354744E0,-3.134597778E0,-9.013762474E0,-2.658426046E0
2.608110264E0,-3.254238844E0,-8.946763992E0,-2.605783939E0
2.612865785E0,-3.333201885E0,-8.894122124E0,-2.538784742E0
2.617621306E0,-3.402593851E0,-8.829515457E0,-2.498106956E0
2.622376827E0,-3.491128206E0,-8.791230202E0,-2.478964329E0
2.627132348E0,-3.493520975E0,-8.757730484E0,-2.512463808E0
2.631887869E0,-3.529413462E0,-8.709874153E0,-2.519642353E0
2.636643442E0,-3.522234917E0,-8.729017258E0,-2.557927370E0
2.641398962E0,-3.522234917E0,-8.755337715E0,-2.593819857E0
2.646154483E0,-3.505485058E0,-8.769695282E0,-2.622533560E0
2.650910004E0,-3.464807272E0,-8.805587769E0,-2.687139750E0
2.655665525E0,-3.409772158E0,-8.810373306E0,-2.744567633E0
2.660421046E0,-3.330809116E0,-8.882157326E0,-2.780459881E0
2.665176567E0,-3.259024382E0,-8.910871506E0,-2.794816732E0
2.669932087E0,-3.170490026E0,-8.975478172E0,-2.775674343E0
2.674687608E0,-3.038884640E0,-9.013762474E0,-2.773281336E0
2.679443129E0,-2.933600664E0,-9.085547447E0,-2.780459881E0
2.684198650E0,-2.821137905E0,-9.121439934E0,-2.766103029E0
2.688954171E0,-2.696711063E0,-9.157332420E0,-2.835494757E0
2.693709692E0,-2.620140791E0,-9.200403214E0,-2.885744095E0
2.698465212E0,-2.526820660E0,-9.212367058E0,-2.924029350E0
2.703220733E0,-2.467000246E0,-9.202795982E0,-2.945564747E0
2.707976254E0,-2.426322222E0,-9.186046600E0,-2.959921598E0
2.712731775E0,-2.376072884E0,-9.147761345E0,-2.955136061E0
2.717487348E0,-2.359323025E0,-9.107083321E0,-2.912065268E0
2.722242869E0,-2.352144718E0,-9.068798065E0,-2.847458839E0
2.726998389E0,-2.368894339E0,-9.035298347E0,-2.761317253E0
2.731753910E0,-2.402393818E0,-8.977870941E0,-2.677568436E0
2.736509431E0,-2.459821701E0,-8.941978455E0,-2.600998163E0
2.741264952E0,-2.488535643E0,-8.886942863E0,-2.553141832E0
2.746020473E0,-2.550748825E0,-8.841479301E0,-2.545963287E0
2.750775994E0,-2.603390932E0,-8.786444664E0,-2.569891453E0
2.755531514E0,-2.689532757E0,-8.743373871E0,-2.639283419E0
2.760287035E0,-2.804388046E0,-8.764909744E0,-2.706282377E0
2.765042556E0,-2.919243574E0,-8.781659126E0,-2.763710260E0
2.769798077E0,-3.048455954E0,-8.774480820E0,-2.804388046E0
2.774553598E0,-3.199203968E0,-8.836693764E0,-2.787638426E0
2.779309119E0,-3.326023579E0,-8.884550095E0,-2.739781857E0
2.784064639E0,-3.448057413E0,-8.958727837E0,-2.672782898E0
2.788820160E0,-3.493520975E0,-9.032905579E0,-2.586641312E0
2.793575681E0,-3.541377544E0,-9.087940216E0,-2.495713949E0
2.798331202E0,-3.543770313E0,-9.176474571E0,-2.452643156E0
2.803086723E0,-3.505485058E0,-9.248259544E0,-2.428714991E0
2.807842296E0,-3.440878868E0,-9.303294182E0,-2.411965132E0
2.812597817E0,-3.328416348E0,-9.320044518E0,-2.464607239E0
2.817353337E0,-3.249453068E0,-9.363115311E0,-2.533999205E0
2.822108858E0,-3.192025423E0,-9.360722542E0,-2.653640270E0
2.826864379E0,-3.127419233E0,-9.384650230E0,-2.761317253E0
2.831619900E0,-3.127419233E0,-9.437292099E0,-2.873780012E0
2.836375421E0,-3.065205812E0,-9.480362892E0,-2.962314367E0
2.841130942E0,-3.005385160E0,-9.533005714E0,-3.012563705E0
2.845886462E0,-2.998206854E0,-9.600004196E0,-3.089133978E0
2.850641983E0,-3.019742250E0,-9.657432556E0,-3.165704250E0
2.855397504E0,-3.081955671E0,-9.750752449E0,-3.206382275E0
2.860153025E0,-3.134597778E0,-9.846465111E0,-3.244667530E0
2.864908546E0,-3.282952785E0,-9.958928108E0,-3.256631613E0
2.869664067E0,-3.376272678E0,-1.010967541E1,-3.278167009E0
2.874419587E0,-3.342773199E0,-1.022453117E1,-3.337987661E0
2.879175108E0,-3.196810961E0,-1.029870892E1,-3.452843189E0
2.883930629E0,-2.916850805E0,-1.036810017E1,-3.613162279E0
2.888686150E0,-2.586641312E0,-1.043031406E1,-3.785445452E0
2.893441671E0,-2.333002090E0,-1.047338486E1,-4.055834293E0
2.898197192E0,-2.194218397E0,-1.057627583E1,-4.369294167E0
2.902952712E0,-2.182254314E0,-1.068395329E1,-4.756931305E0
2.907708285E0,-2.294716835E0,-1.084666538E1,-5.233103275E0
2.912463754E0,-2.423929453E0,-1.097109222E1,-5.759523869E0
2.917219327E0,-2.514856577E0,-1.105005455E1,-6.204588890E0
2.921974848E0,-2.502892494E0,-1.104287624E1,-6.551548481E0
2.926730317E0,-2.344966173E0,-1.092802143E1,-6.656832695E0
2.931485889E0,-2.088934183E0,-1.067677498E1,-6.446264267E0
2.936241410E0,-1.823330879E0,-1.037288570E1,-6.065805435E0
2.940996931E0,-1.531406522E0,-1.003549862E1,-5.623133183E0
2.945752452E0,-1.289731383E0,-9.726823807E0,-5.201996326E0
2.950507973E0,-1.038485050E0,-9.451649666E0,-4.744967461E0
2.955263494E0,-8.733802438E-1,-9.166903496E0,-4.242474556E0
2.960019014E0,-8.446664214E-1,-8.834300995E0,-3.720839262E0
2.964774535E0,-8.518448472E-1,-8.549555779E0,-3.175275564E0
2.969530056E0,-9.499505758E-1,-8.250452042E0,-2.670390129E0
2.974285577E0,-1.019342422E0,-7.922635555E0,-2.232503414E0
2.979041098E0,-1.174875975E0,-7.578069210E0,-1.914258122E0
2.983796619E0,-1.406979680E0,-7.288537979E0,-1.698904037E0
2.988552139E0,-1.713261008E0,-6.975078106E0,-1.557727575E0
2.993307660E0,-2.048256159E0,-6.652047157E0,-1.454836130E0
2.998063181E0,-2.385644197E0,-6.405586243E0,-1.428515077E0
3.002818702E0,-2.792423964E0,-6.262016773E0,-1.502692580E0
3.007574223E0,-3.184846878E0,-6.206982136E0,-1.596012712E0
3.012329744E0,-3.498306751E0,-6.250052929E0,-1.670190215E0
3.017085264E0,-3.737588882E0,-6.324230194E0,-1.710868239E0
3.021840785E0,-3.890729666E0,-6.501298904E0,-1.646261930E0
3.026596306E0,-3.862015724E0,-6.702296257E0,-1.555334687E0
3.031351827E0,-3.799802303E0,-6.951149940E0,-1.533799291E0
3.036107348E0,-3.751945972E0,-7.240681171E0,-1.588834286E0
3.040862869E0,-3.672982693E0,-7.520641804E0,-1.715653777E0
3.045618389E0,-3.591626883E0,-7.757531166E0,-1.928615093E0
3.050373962E0,-3.505485058E0,-8.006384850E0,-2.244467735E0
3.055129483E0,-3.452843189E0,-8.188239098E0,-2.603390932E0
3.059885004E0,-3.393022537E0,-8.322237015E0,-2.988635540E0
3.064640525E0,-3.361915827E0,-8.403593063E0,-3.357130051E0
3.069396046E0,-3.321237803E0,-8.441878319E0,-3.718446493E0
3.074151567E0,-3.290131092E0,-8.449056625E0,-4.060619831E0
3.078907087E0,-3.256631613E0,-8.437092781E0,-4.366901398E0
3.083662608E0,-3.237488985E0,-8.427521706E0,-4.622933388E0
3.088418129E0,-3.263810158E0,-8.470592499E0,-4.802394867E0
3.093173650E0,-3.292523861E0,-8.494520187E0,-4.902893543E0
3.097929171E0,-3.393022537E0,-8.523234367E0,-4.924428940E0
3.102684692E0,-3.503092289E0,-8.537590981E0,-4.862215519E0
3.107440212E0,-3.582055569E0,-8.580661774E0,-4.728217602E0
3.112195733E0,-3.608376503E0,-8.590232849E0,-4.539184570E0
3.116951254E0,-3.560520172E0,-8.623732567E0,-4.357329845E0
3.121706775E0,-3.400201082E0,-8.633303642E0,-4.153940201E0
3.126462296E0,-3.211168051E0,-8.700303078E0,-4.015156269E0
3.131217817E0,-2.959921598E0,-8.724231720E0,-3.878765583E0
3.135973337E0,-2.648854733E0,-8.748159409E0,-3.790230989E0
3.140728858E0,-2.328216314E0,-8.750552177E0,-3.747160196E0
3.145484379E0,-1.981257200E0,-8.757730484E0,-3.713660717E0
3.150239900E0,-1.639083505E0,-8.726624489E0,-3.656233072E0
3.154995421E0,-1.361516118E0,-8.662017822E0,-3.567698479E0
3.159750942E0,-1.153340459E0,-8.611768723E0,-3.457628727E0
3.164506462E0,-9.714859724E-1,-8.561519623E0,-3.359523058E0
3.169261983E0,-8.709874153E-1,-8.487341881E0,-3.227917671E0
3.174017504E0,-7.968099117E-1,-8.425128937E0,-3.077169895E0
3.178773025E0,-7.322037220E-1,-8.391629219E0,-2.931207657E0
3.183528546E0,-6.436693072E-1,-8.365307808E0,-2.780459881E0
3.188284067E0,-6.173482537E-1,-8.379665375E0,-2.763710260E0
3.193039587E0,-5.718846321E-1,-8.434700012E0,-2.734996319E0
3.197795108E0,-5.288137794E-1,-8.508877754E0,-2.763710260E0
3.202550629E0,-5.120640397E-1,-8.571090698E0,-2.868994236E0
3.207306202E0,-4.833501875E-1,-8.597412109E0,-2.943171740E0
3.212061723E0,-6.005984545E-1,-8.604590416E0,-2.981456995E0
3.216817192E0,-7.896314859E-1,-8.602197647E0,-2.959921598E0
3.221572764E0,-1.112662554E0,-8.542376518E0,-2.907279491E0
3.226328285E0,-1.318445325E0,-8.401200294E0,-2.730210543E0
3.231083754E0,-1.469193101E0,-8.248059273E0,-2.522035122E0
3.235839327E0,-1.651047587E0,-8.123632431E0,-2.404786825E0
3.240594848E0,-1.813759565E0,-7.996813297E0,-2.270788670E0
3.245350369E0,-1.880758643E0,-7.855636597E0,-2.103291035E0
3.250105889E0,-1.974078655E0,-7.814958572E0,-2.024327993E0
3.254861410E0,-2.033899307E0,-7.750352383E0,-1.928615093E0
3.259616931E0,-2.053041935E0,-7.702496052E0,-1.840080619E0
3.264372452E0,-2.074577332E0,-7.702496052E0,-1.749153376E0
3.269127973E0,-2.043470621E0,-7.721638680E0,-1.725225091E0
3.273883494E0,-2.024327993E0,-7.757531166E0,-1.696511269E0
3.278639014E0,-1.945364833E0,-7.826922894E0,-1.677368641E0
3.283394535E0,-1.864008784E0,-7.922635555E0,-1.667797327E0
3.288150056E0,-1.777867198E0,-8.044670105E0,-1.698904037E0
3.292905577E0,-1.643869162E0,-8.209774017E0,-1.715653777E0
3.297661098E0,-1.536192179E0,-8.370093346E0,-1.653440475E0
3.302416619E0,-1.454836130E0,-8.559126854E0,-1.636690736E0
3.307172139E0,-1.380658627E0,-8.745766640E0,-1.591227055E0
3.311927660E0,-1.373480201E0,-8.949156761E0,-1.538584948E0
3.316683181E0,-1.323230863E0,-9.142974854E0,-1.462014675E0
3.321438702E0,-1.299302697E0,-9.253045082E0,-1.311266780E0
3.326194223E0,-1.244267821E0,-9.473184586E0,-1.402194023E0
3.330949744E0,-1.246660590E0,-9.645467758E0,-1.430907965E0
3.335705264E0,-1.201196909E0,-9.784252167E0,-1.409372568E0
3.340460785E0,-1.100698471E0,-9.942177773E0,-1.485942841E0
3.345216306E0,-1.050449133E0,-1.011446095E1,-1.581655741E0
3.349971827E0,-1.098305583E0,-1.022453117E1,-1.720439434E0
3.354727348E0,-9.738788009E-1,-1.033220863E1,-1.866401672E0
3.359482869E0,-7.920243144E-1,-1.033460140E1,-1.950150490E0
3.364238389E0,-6.460621357E-1,-1.044467068E1,-2.237289190E0
3.368993910E0,-5.694918036E-1,-1.053320503E1,-2.593819857E0
3.373749431E0,-4.522434771E-1,-1.060977554E1,-2.866601467E0
3.378504952E0,-4.043870270E-1,-1.068873882E1,-3.024527788E0
3.383260473E0,-3.756731451E-1,-1.075334454E1,-3.132204771E0
3.388015994E0,-4.354937077E-1,-1.077009487E1,-3.148954630E0
3.392771514E0,-3.828516304E-1,-1.065763187E1,-3.091526747E0
3.397527035E0,-4.785645306E-1,-1.071027374E1,-3.113062143E0
3.402282556E0,-7.776673436E-1,-1.082273674E1,-3.158525944E0
3.407038077E0,-1.071984529E0,-1.091127110E1,-3.218346357E0
3.411793598E0,-1.339980721E0,-1.099023438E1,-3.299702406E0
3.416549119E0,-1.481157184E0,-1.107398319E1,-3.349951744E0
3.421304639E0,-1.629512191E0,-1.116251755E1,-3.436093330E0
3.426060160E0,-1.739582062E0,-1.127019501E1,-3.469592810E0
3.430815681E0,-1.811366796E0,-1.136351490E1,-3.550948858E0
3.435571202E0,-1.866401672E0,-1.143769264E1,-3.608376503E0
3.440326723E0,-1.947757602E0,-1.150947666E1,-3.756731510E0
3.445082244E0,-1.966900229E0,-1.164108181E1,-3.871587038E0
3.449837764E0,-2.041077614E0,-1.178465176E1,-4.051048756E0
3.454593285E0,-2.098505497E0,-1.192822075E1,-4.273581028E0
3.459348806E0,-2.277967215E0,-1.206700420E1,-4.548755646E0
3.464104327E0,-2.560320139E0,-1.222014523E1,-4.847858906E0
3.468859900E0,-2.876172781E0,-1.231585789E1,-5.113461971E0
3.473615369E0,-3.055634499E0,-1.229910851E1,-5.304887772E0
3.478370889E0,-3.302095175E0,-1.229432297E1,-5.436492920E0
3.483126410E0,-3.579662561E0,-1.217468166E1,-5.441278458E0
3.487881931E0,-3.701696634E0,-1.189232826E1,-5.364708424E0
3.492637504E0,-3.742374659E0,-1.148076344E1,-5.204389095E0
3.497392973E0,-3.723232031E0,-1.100937653E1,-5.032105923E0
3.502148546E0,-3.713660717E0,-1.047817039E1,-4.833501816E0
3.506904067E0,-3.756731510E0,-9.973284721E0,-4.594219685E0
3.511659587E0,-3.816552162E0,-9.513862610E0,-4.280759811E0
3.516415056E0,-3.878765583E0,-9.116654396E0,-3.957728624E0
3.521170629E0,-3.890729666E0,-8.762516975E0,-3.625126362E0
3.525926150E0,-3.893122435E0,-8.511270523E0,-3.318845034E0
3.530681671E0,-3.771088600E0,-8.305487633E0,-3.019742250E0
3.535437192E0,-3.574877024E0,-8.224131584E0,-2.732603550E0
3.540192712E0,-3.302095175E0,-8.197810173E0,-2.455035925E0
3.544948233E0,-2.995813847E0,-8.262416840E0,-2.155933142E0
3.549703754E0,-2.682354212E0,-8.343772888E0,-1.897508383E0
3.554459275E0,-2.356930256E0,-8.446663857E0,-1.615155339E0
3.559214796E0,-1.978864312E0,-8.551948547E0,-1.416550994E0
3.563970317E0,-1.634297848E0,-8.635697365E0,-1.186840057E0
3.568725837E0,-1.337587833E0,-8.721838951E0,-9.355936646E-1
3.573481358E0,-1.024128079E0,-8.774480820E0,-7.202396393E-1
3.578236879E0,-7.704889178E-1,-8.812766075E0,-5.575276613E-1
3.582992400E0,-6.125625968E-1,-8.853444099E0,-4.546363056E-1
3.587747921E0,-5.072783828E-1,-8.886942863E0,-3.924229145E-1
3.592503442E0,-4.331009090E-1,-8.930013657E0,-2.847459018E-1
3.597258962E0,-4.139583111E-1,-8.970691681E0,-1.579262912E-1
3.602014483E0,-4.737788737E-1,-9.008976936E0,6.939185411E-2
3.606770004E0,-5.910272002E-1,-8.989834785E0,3.134597540E-1
3.611525525E0,-7.250252366E-1,-8.997013092E0,5.455635786E-1
3.616281046E0,-9.020941257E-1,-8.994620323E0,7.609176040E-1
3.621036567E0,-1.071984529E0,-8.968298912E0,8.877372146E-1
3.625792087E0,-1.172483087E0,-8.951549530E0,9.547362328E-1
3.630547608E0,-1.239482164E0,-8.941978455E0,9.978070259E-1
3.635303129E0,-1.356730461E0,-8.968298912E0,9.643075466E-1
3.640058650E0,-1.495514154E0,-9.013762474E0,9.451649189E-1
3.644814171E0,-1.617548108E0,-9.085547447E0,9.044869542E-1
3.649569692E0,-1.856830359E0,-9.131011009E0,8.303094506E-1
3.654325212E0,-2.124826431E0,-9.102297783E0,7.800601721E-1
3.659080733E0,-2.445464849E0,-9.114261627E0,6.675975323E-1
3.663836254E0,-2.845066071E0,-9.157332420E0,5.575276613E-1
3.668591775E0,-3.194418192E0,-9.186046600E0,3.972085714E-1
3.673347296E0,-3.479164124E0,-9.181260109E0,2.297109663E-1
3.678102817E0,-3.610769272E0,-9.214759827E0,-7.417750359E-2
3.682858337E0,-3.771088600E0,-9.281759262E0,-3.637090325E-1
3.687613858E0,-3.905086517E0,-9.329615593E0,-7.345965505E-1
3.692369379E0,-3.926621914E0,-9.358329773E0,-1.208375454E0
3.697124900E0,-3.945764542E0,-9.413364410E0,-1.720439434E0
3.701880421E0,-3.888336897E0,-9.485149384E0,-2.263610125E0
3.706635942E0,-3.747160196E0,-9.576076508E0,-2.778067112E0
3.711391462E0,-3.498306751E0,-9.643074989E0,-3.192025423E0
3.716146983E0,-3.249453068E0,-9.736394882E0,-3.515056372E0
3.720902504E0,-2.986242771E0,-9.829715729E0,-3.680161238E0
3.725658025E0,-2.715853691E0,-9.870393753E0,-3.723232031E0
3.730413546E0,-2.455035925E0,-9.899106979E0,-3.622733593E0
3.735169067E0,-2.266003132E0,-9.887143135E0,-3.364308596E0
3.739924587E0,-2.105684042E0,-9.879964828E0,-3.065205812E0
3.744680108E0,-1.966900229E0,-9.856036186E0,-2.691925526E0
3.749435629E0,-1.945364833E0,-9.827322960E0,-2.316252232E0
3.754191150E0,-1.907079697E0,-9.774680138E0,-1.926222205E0
3.758946671E0,-1.911865234E0,-9.791430473E0,-1.560120344E0
3.763702192E0,-1.942971945E0,-9.789037704E0,-1.253839016E0
3.768457712E0,-1.976471543E0,-9.760323524E0,-9.858429432E-1
3.773213233E0,-1.969292998E0,-9.722038269E0,-7.609176040E-1
3.777968754E0,-1.954936147E0,-9.671789169E0,-5.766702294E-1
3.782724275E0,-1.940579176E0,-9.616754532E0,-4.378865361E-1
3.787479796E0,-1.966900229E0,-9.540184021E0,-3.086741269E-1
3.792235317E0,-1.990828395E0,-9.427721024E0,-2.009970993E-1
3.796990837E0,-1.995614052E0,-9.305686951E0,-1.220339537E-1
3.801746358E0,-2.017149448E0,-9.159725189E0,-5.742774159E-2
3.806501879E0,-2.069791555E0,-9.044869423E0,7.178467698E-3
3.811257400E0,-2.122433662E0,-8.925228119E0,6.460621208E-2
3.816012973E0,-2.165504456E0,-8.836693764E0,7.417750359E-2
3.820768494E0,-2.218146563E0,-8.786444664E0,4.785645381E-2
3.825524014E0,-2.340180635E0,-8.791230202E0,-2.632104978E-2
3.830279483E0,-2.431107759E0,-8.836693764E0,-1.531406492E-1
3.835035056E0,-2.493321180E0,-8.898907661E0,-3.708875179E-1
3.839790577E0,-2.567498684E0,-9.037691116E0,-6.412764788E-1
3.844546098E0,-2.656033039E0,-9.188439369E0,-9.427721500E-1
3.849301619E0,-2.746960402E0,-9.284152031E0,-1.287338614E0
3.854057139E0,-2.852244616E0,-9.394221306E0,-1.655833244E0
3.858812660E0,-2.952743053E0,-9.449256897E0,-2.002792597E0
3.863568181E0,-3.058027267E0,-9.480362892E0,-2.289931297E0
3.868323702E0,-3.160918713E0,-9.477970123E0,-2.505285263E0
3.873079223E0,-3.275774240E0,-9.473184586E0,-2.615355253E0
3.877834744E0,-3.361915827E0,-9.456435204E0,-2.634497643E0
3.882590264E0,-3.426522017E0,-9.442078590E0,-2.553141832E0
3.887345785E0,-3.476771355E0,-9.432506561E0,-2.344966173E0
3.892101306E0,-3.483949661E0,-9.394221306E0,-2.086541414E0
3.896856827E0,-3.486342669E0,-9.382257462E0,-1.777867198E0
3.901612348E0,-3.440878868E0,-9.394221306E0,-1.442872047E0
3.906367869E0,-3.388236761E0,-9.363115311E0,-1.138983607E0
3.911123389E0,-3.359523058E0,-9.327222824E0,-8.662018180E-1
3.915878910E0,-3.316452265E0,-9.336793900E0,-6.077769399E-1
3.920634431E0,-3.256631613E0,-9.298508644E0,-3.948157430E-1
3.925389952E0,-3.223132133E0,-9.221938133E0,-1.866401732E-1
3.930145473E0,-3.184846878E0,-9.190832138E0,-5.982056633E-2
3.934900994E0,-3.163311481E0,-9.123832703E0,5.264209956E-2
3.939656514E0,-3.134597778E0,-9.092725754E0,1.028913707E-1
3.944412035E0,-3.132204771E0,-9.049654961E0,1.220339537E-1
3.949167556E0,-3.156133175E0,-9.042476654E0,1.004985496E-1
3.953923077E0,-3.201596737E0,-9.042476654E0,5.503492057E-2
3.958678598E0,-3.227917671E0,-9.068798065E0,-5.503492057E-2
3.963434119E0,-3.266202927E0,-9.078369141E0,-1.962114573E-1
3.968189639E0,-3.268595695E0,-9.126225471E0,-3.517449200E-1
3.972945160E0,-3.275774240E0,-9.174081802E0,-4.977070987E-1
3.977700681E0,-3.268595695E0,-9.221938133E0,-7.010970116E-1
3.982456202E0,-3.235096216E0,-9.245866776E0,-8.757730722E-1
3.987211723E0,-3.199203968E0,-9.279366493E0,-1.043270707E0
3.991967244E0,-3.194418192E0,-9.322437286E0,-1.165304661E0
3.996722764E0,-3.139383316E0,-9.341579437E0,-1.263410330E0
4.001478285E0,-3.074777126E0,-9.365508080E0,-1.323230863E0
4.006233806E0,-3.038884640E0,-9.372686386E0,-1.306481123E0
4.010989327E0,-2.993421078E0,-9.384650230E0,-1.251446247E0
4.015744848E0,-2.940778971E0,-9.384650230E0,-1.174875975E0
4.020500369E0,-2.895315409E0,-9.394221306E0,-1.067198873E0
4.025255889E0,-2.861815929E0,-9.370293617E0,-9.451649189E-1
4.030011410E0,-2.852244616E0,-9.370293617E0,-8.255237937E-1
4.034766931E0,-2.837887764E0,-9.358329773E0,-7.298108935E-1
4.039522452E0,-2.828316450E0,-9.346364975E0,-6.532405615E-1
4.044277973E0,-2.809173822E0,-9.334401131E0,-5.958128572E-1
4.049033494E0,-2.833101988E0,-9.315258980E0,-5.647061467E-1
4.053789014E0,-2.837887764E0,-9.296115875E0,-5.000999570E-1
4.058544535E0,-2.818745136E0,-9.300901413E0,-4.905286431E-1
4.063300056E0,-2.782852650E0,-9.298508644E0,-4.881358147E-1
4.068055577E0,-2.758924484E0,-9.305686951E0,-5.216353536E-1
4.072811098E0,-2.749353170E0,-9.324830055E0,-5.694918036E-1
4.077566619E0,-2.744567633E0,-9.372686386E0,-6.173482537E-1
4.082322139E0,-2.754138947E0,-9.430113792E0,-6.723831892E-1
4.087077660E0,-2.792423964E0,-9.415757179E0,-6.987041831E-1
4.091833181E0,-2.823530674E0,-9.413364410E0,-7.106683254E-1
4.096588702E0,-2.866601467E0,-9.406186104E0,-7.226324677E-1
4.101344223E0,-2.900100946E0,-9.425328255E0,-7.369893789E-1
4.106099744E0,-2.928814888E0,-9.444471359E0,-7.178468108E-1
4.110855264E0,-2.940778971E0,-9.422935486E0,-6.915257573E-1
4.115610785E0,-2.950350285E0,-9.434899330E0,-6.747759581E-1
4.120366306E0,-2.940778971E0,-9.439684868E0,-6.269195080E-1
4.125121827E0,-2.945564747E0,-9.439684868E0,-5.958128572E-1
4.129877348E0,-2.933600664E0,-9.454042435E0,-5.503492355E-1
4.134632869E0,-2.926422119E0,-9.451649666E0,-5.072783828E-1
4.139388389E0,-2.938386202E0,-9.427721024E0,-4.785645306E-1
4.144143910E0,-2.933600664E0,-9.410971642E0,-4.474578202E-1
4.148899431E0,-2.935993433E0,-9.387042999E0,-4.354937077E-1
4.153654952E0,-2.943171740E0,-9.387042999E0,-4.043870270E-1
4.158410473E0,-2.933600664E0,-9.360722542E0,-4.402793646E-1
4.163165994E0,-2.940778971E0,-9.339186668E0,-4.737788737E-1
4.167921514E0,-2.921636343E0,-9.355937004E0,-5.072783828E-1
4.172677087E0,-2.919243574E0,-9.394221306E0,-5.551348329E-1
4.177432608E0,-2.904886723E0,-9.401400566E0,-5.982056856E-1
4.182188129E0,-2.871387243E0,-9.425328255E0,-6.508477330E-1
4.186943650E0,-2.852244616E0,-9.444471359E0,-7.010970116E-1
4.191699171E0,-2.847458839E0,-9.458827972E0,-7.489534616E-1
4.196454692E0,-2.799602509E0,-9.473184586E0,-7.657032609E-1
4.201210212E0,-2.797209740E0,-9.489934921E0,-7.585247755E-1
4.205965733E0,-2.804388046E0,-9.518648148E0,-7.537391186E-1
4.210721254E0,-2.799602509E0,-9.511469841E0,-7.082754970E-1
4.215476775E0,-2.821137905E0,-9.540184021E0,-6.747759581E-1
4.220232296E0,-2.852244616E0,-9.513862610E0,-6.125625968E-1
4.224987817E0,-2.852244616E0,-9.506684303E0,-5.599204898E-1
4.229743337E0,-2.830709219E0,-9.458827972E0,-5.240281820E-1
4.234498858E0,-2.864208698E0,-9.425328255E0,-4.761717021E-1
4.239254379E0,-2.871387243E0,-9.408578873E0,-4.354937077E-1
4.244009900E0,-2.904886723E0,-9.375079155E0,-3.996013701E-1
4.248765421E0,-2.935993433E0,-9.341579437E0,-3.996013701E-1
4.253520942E0,-2.964707375E0,-9.308079720E0,-3.828516304E-1
4.258276462E0,-2.974278450E0,-9.262616158E0,-4.043870270E-1
4.263031983E0,-3.000599623E0,-9.231510162E0,-3.900300860E-1
4.267787504E0,-3.007778168E0,-9.207581520E0,-3.828516304E-1
4.272543025E0,-3.029313564E0,-9.176474571E0,-3.924229145E-1
4.277298546E0,-3.048455954E0,-9.176474571E0,-3.948157430E-1
4.282054067E0,-3.019742250E0,-9.186046600E0,-4.211367965E-1
4.286809587E0,-3.029313564E0,-9.205188751E0,-4.426721931E-1
4.291565108E0,-3.014956474E0,-9.217152596E0,-4.450650215E-1
4.296320629E0,-3.019742250E0,-9.255437851E0,-4.713860750E-1
4.301076150E0,-2.967100143E0,-9.284152031E0,-4.737788737E-1
4.305831671E0,-2.967100143E0,-9.315258980E0,-4.809573591E-1
4.310587192E0,-2.952743053E0,-9.334401131E0,-5.000999570E-1
4.315342712E0,-2.952743053E0,-9.334401131E0,-5.096712112E-1
4.320098233E0,-2.959921598E0,-9.346364975E0,-5.120640397E-1
4.324853754E0,-2.967100143E0,-9.353543282E0,-5.288137794E-1
4.329609275E0,-2.962314367E0,-9.375079155E0,-5.479564071E-1
4.334364796E0,-2.974278450E0,-9.406186104E0,-5.647061467E-1
4.339120317E0,-2.962314367E0,-9.410971642E0,-6.029912829E-1
4.343875837E0,-2.947957516E0,-9.451649666E0,-6.245267391E-1
4.348631358E0,-2.916850805E0,-9.463613510E0,-6.556333899E-1
4.353386879E0,-2.888136864E0,-9.473184586E0,-6.819544435E-1
4.358142400E0,-2.845066071E0,-9.497113228E0,-6.891329288E-1
4.362897921E0,-2.799602509E0,-9.511469841E0,-6.819544435E-1
4.367653442E0,-2.775674343E0,-9.530612946E0,-6.843472719E-1
4.372408962E0,-2.761317253E0,-9.544969559E0,-6.604190469E-1
4.377164483E0,-2.701496840E0,-9.518648148E0,-6.484549642E-1
4.381920004E0,-2.711068153E0,-9.511469841E0,-6.508477330E-1
4.386675525E0,-2.694318295E0,-9.482755661E0,-6.269195080E-1
4.391431046E0,-2.687139750E0,-9.461220741E0,-6.125625968E-1
4.396186567E0,-2.677568436E0,-9.456435204E0,-5.958128572E-1
4.400942087E0,-2.648854733E0,-9.430113792E0,-5.623133183E-1
4.405697608E0,-2.670390129E0,-9.442078590E0,-5.383850932E-1
4.410453129E0,-2.679961443E0,-9.439684868E0,-4.977070987E-1
4.415208650E0,-2.660818815E0,-9.449256897E0,-4.857429862E-1
4.419964171E0,-2.648854733E0,-9.442078590E0,-4.546363056E-1
4.424719692E0,-2.648854733E0,-9.456435204E0,-4.378865361E-1
4.429475212E0,-2.658426046E0,-9.456435204E0,-4.163511395E-1
4.434230733E0,-2.665604353E0,-9.454042435E0,-4.163511395E-1
4.438986254E0,-2.682354212E0,-9.454042435E0,-4.259224236E-1
4.443741775E0,-2.715853691E0,-9.449256897E0,-4.067798555E-1
4.448497348E0,-2.708675146E0,-9.442078590E0,-4.259224236E-1
4.453252869E0,-2.734996319E0,-9.461220741E0,-4.331009090E-1
4.458008389E0,-2.730210543E0,-9.437292099E0,-4.331009090E-1
4.462763910E0,-2.742174864E0,-9.442078590E0,-4.522434771E-1
4.467519431E0,-2.749353170E0,-9.439684868E0,-4.594219327E-1
4.472274952E0,-2.746960402E0,-9.430113792E0,-4.594219327E-1
4.477030473E0,-2.761317253E0,-9.422935486E0,-4.498506486E-1
4.481785994E0,-2.768495798E0,-9.451649666E0,-4.331009090E-1
4.486541514E0,-2.756531715E0,-9.458827972E0,-4.331009090E-1
4.491297035E0,-2.773281336E0,-9.454042435E0,-4.139583111E-1
4.496052556E0,-2.754138947E0,-9.458827972E0,-4.019941986E-1
4.500808077E0,-2.780459881E0,-9.466006279E0,-4.019941986E-1
4.505563598E0,-2.773281336E0,-9.470791817E0,-4.019941986E-1
4.510319119E0,-2.794816732E0,-9.473184586E0,-3.996013701E-1
4.515074639E0,-2.833101988E0,-9.458827972E0,-4.019941986E-1
4.519830160E0,-2.880958557E0,-9.442078590E0,-4.211367965E-1
4.524585681E0,-2.880958557E0,-9.449256897E0,-4.402793646E-1
4.529341202E0,-2.885744095E0,-9.418149948E0,-4.618147612E-1
4.534096723E0,-2.904886723E0,-9.430113792E0,-4.713860750E-1
4.538852244E0,-2.861815929E0,-9.427721024E0,-4.809573591E-1
4.543607764E0,-2.840280533E0,-9.408578873E0,-4.857429862E-1
4.548363285E0,-2.823530674E0,-9.422935486E0,-5.000999570E-1
4.553118806E0,-2.797209740E0,-9.415757179E0,-5.000999570E-1
4.557874327E0,-2.763710260E0,-9.406186104E0,-5.120640397E-1
4.562629848E0,-2.768495798E0,-9.384650230E0,-5.000999570E-1
4.567385369E0,-2.727817774E0,-9.382257462E0,-5.144568682E-1
4.572140889E0,-2.730210543E0,-9.389435768E0,-4.857429862E-1
4.576896410E0,-2.718246460E0,-9.389435768E0,-4.474578202E-1
4.581651931E0,-2.682354212E0,-9.420542717E0,-4.259224236E-1
4.586407452E0,-2.684746981E0,-9.449256897E0,-4.139583111E-1
4.591162973E0,-2.670390129E0,-9.461220741E0,-3.708875179E-1
4.595918494E0,-2.667997360E0,-9.494720459E0,-3.684946895E-1
4.600674014E0,-2.658426046E0,-9.506684303E0,-3.517449200E-1
4.605429535E0,-2.677568436E0,-9.528220177E0,-3.517449200E-1
4.610185056E0,-2.682354212E0,-9.518648148E0,-3.637090325E-1
4.614940577E0,-2.687139750E0,-9.518648148E0,-3.637090325E-1
4.619696098E0,-2.694318295E0,-9.523433685E0,-3.876372576E-1
4.624451619E0,-2.715853691E0,-9.533005714E0,-3.996013701E-1
4.629207139E0,-2.720639229E0,-9.518648148E0,-4.139583111E-1
4.633962660E0,-2.723032236E0,-9.499505997E0,-4.307080805E-1
4.638718181E0,-2.723032236E0,-9.487542152E0,-4.546363056E-1
4.643473702E0,-2.730210543E0,-9.458827972E0,-4.929214716E-1
4.648229223E0,-2.746960402E0,-9.446864128E0,-5.120640397E-1
4.652984744E0,-2.746960402E0,-9.415757179E0,-5.312066078E-1
4.657740264E0,-2.761317253E0,-9.384650230E0,-5.575276613E-1
4.662495785E0,-2.778067112E0,-9.408578873E0,-5.407779217E-1
4.667251306E0,-2.792423964E0,-9.418149948E0,-5.288137794E-1
4.672006827E0,-2.782852650E0,-9.437292099E0,-5.144568682E-1
4.676762348E0,-2.792423964E0,-9.473184586E0,-4.833501875E-1
4.681517869E0,-2.797209740E0,-9.468399048E0,-4.307080805E-1
4.686273389E0,-2.787638426E0,-9.466006279E0,-4.043870270E-1
4.691028910E0,-2.778067112E0,-9.473184586E0,-3.661018610E-1
4.695784431E0,-2.797209740E0,-9.454042435E0,-3.086741269E-1
4.700540004E0,-2.792423964E0,-9.422935486E0,-2.560320199E-1
4.705295473E0,-2.818745136E0,-9.410971642E0,-2.201396823E-1
4.710050994E0,-2.794816732E0,-9.410971642E0,-1.794617027E-1
4.714806514E0,-2.773281336E0,-9.415757179E0,-1.435693651E-1
4.719562087E0,-2.751745939E0,-9.415757179E0,-1.579262912E-1
4.724317556E0,-2.739781857E0,-9.432506561E0,-1.722832322E-1
4.729073129E0,-2.730210543E0,-9.449256897E0,-1.938186288E-1
4.733828650E0,-2.696711063E0,-9.458827972E0,-2.560320199E-1
4.738584171E0,-2.665604353E0,-9.468399048E0,-3.158525825E-1
4.743339692E0,-2.644068956E0,-9.487542152E0,-3.684946895E-1
4.748095212E0,-2.605783939E0,-9.497113228E0,-4.211367965E-1
4.752850733E0,-2.584248543E0,-9.518648148E0,-4.426721931E-1
4.757606254E0,-2.591426849E0,-9.518648148E0,-4.857429862E-1
4.762361775E0,-2.579462767E0,-9.530612946E0,-4.666004181E-1
4.767117296E0,-2.545963287E0,-9.535398483E0,-4.689932466E-1
4.771872817E0,-2.562713146E0,-9.540184021E0,-4.402793646E-1
4.776628337E0,-2.569891453E0,-9.549755096E0,-4.091726840E-1
4.781383858E0,-2.574677229E0,-9.544969559E0,-3.684946895E-1
4.786139379E0,-2.586641312E0,-9.554540634E0,-3.493520916E-1
4.790894900E0,-2.579462767E0,-9.542576790E0,-3.397808075E-1
4.795650421E0,-2.605783939E0,-9.513862610E0,-3.038884699E-1
4.800405942E0,-2.596212626E0,-9.501898766E0,-2.895315289E-1
4.805161462E0,-2.622533560E0,-9.449256897E0,-2.871387303E-1
4.809916983E0,-2.639283419E0,-9.427721024E0,-2.727817893E-1
4.814672504E0,-2.672782898E0,-9.406186104E0,-2.823530734E-1
4.819428025E0,-2.682354212E0,-9.410971642E0,-2.679961324E-1
4.824183546E0,-2.694318295E0,-9.389435768E0,-2.464607358E-1
4.828939067E0,-2.713460922E0,-9.413364410E0,-2.440679073E-1
4.833694587E0,-2.742174864E0,-9.420542717E0,-2.129612118E-1
4.838450108E0,-2.763710260E0,-9.415757179E0,-2.057827413E-1
4.843205629E0,-2.766103029E0,-9.446864128E0,-2.057827413E-1
4.847961150E0,-2.787638426E0,-9.437292099E0,-1.962114573E-1
4.852716671E0,-2.804388046E0,-9.463613510E0,-2.105683982E-1
4.857472192E0,-2.842673302E0,-9.492327690E0,-2.201396823E-1
4.862227712E0,-2.835494757E0,-9.497113228E0,-2.368894368E-1
4.866983233E0,-2.854637384E0,-9.477970123E0,-2.440679073E-1
4.871738754E0,-2.861815929E0,-9.477970123E0,-2.632105052E-1
4.876494275E0,-2.857030153E0,-9.482755661E0,-2.632105052E-1
4.881249796E0,-2.816352367E0,-9.463613510E0,-2.632105052E-1
4.886005317E0,-2.830709219E0,-9.439684868E0,-2.679961324E-1
4.890760837E0,-2.804388046E0,-9.442078590E0,-2.632105052E-1
4.895516358E0,-2.790031195E0,-9.418149948E0,-2.847459018E-1
4.900271879E0,-2.792423964E0,-9.425328255E0,-3.038884699E-1
4.905027400E0,-2.785245657E0,-9.432506561E0,-3.062812984E-1
4.909782921E0,-2.766103029E0,-9.473184586E0,-3.158525825E-1
4.914538442E0,-2.775674343E0,-9.482755661E0,-3.254238665E-1
4.919293962E0,-2.792423964E0,-9.518648148E0,-3.086741269E-1
4.924049483E0,-2.797209740E0,-9.525827408E0,-3.110669553E-1
4.928805004E0,-2.773281336E0,-9.516255379E0,-3.254238665E-1
4.933560525E0,-2.778067112E0,-9.509077072E0,-2.919243574E-1
4.938316046E0,-2.770888567E0,-9.497113228E0,-2.823530734E-1
4.943071567E0,-2.818745136E0,-9.468399048E0,-2.584248483E-1
4.947827087E0,-2.852244616E0,-9.434899330E0,-2.512463629E-1
4.952582608E0,-2.873780012E0,-9.415757179E0,-2.392822653E-1
4.957338129E0,-2.890529871E0,-9.410971642E0,-2.081755698E-1
4.962093650E0,-2.873780012E0,-9.406186104E0,-2.009970993E-1
4.966849171E0,-2.900100946E0,-9.382257462E0,-1.674975902E-1
4.971604692E0,-2.921636343E0,-9.379864693E0,-1.411765367E-1
4.976360212E0,-2.926422119E0,-9.377471924E0,-1.268195957E-1
4.981115785E0,-2.907279491E0,-9.389435768E0,-1.363908947E-1
4.985871254E0,-2.885744095E0,-9.377471924E0,-1.339980662E-1
4.990626827E0,-2.873780012E0,-9.355937004E0,-1.292124242E-1
4.995382296E0,-2.857030153E0,-9.343972206E0,-1.483550072E-1
5.000137869E0,-2.868994236E0,-9.348757744E0,-1.507478207E-1
5.004893389E0,-2.864208698E0,-9.346364975E0,-1.339980662E-1
5.009648910E0,-2.880958557E0,-9.372686386E0,-1.363908947E-1
5.014404431E0,-2.928814888E0,-9.382257462E0,-1.459621787E-1
5.019159952E0,-2.904886723E0,-9.420542717E0,-1.459621787E-1
5.023915473E0,-2.928814888E0,-9.454042435E0,-1.555334777E-1
5.028670994E0,-2.931207657E0,-9.487542152E0,-1.627119333E-1
5.033426514E0,-2.921636343E0,-9.485149384E0,-1.770688742E-1
5.038182035E0,-2.952743053E0,-9.492327690E0,-2.057827413E-1
5.042937556E0,-2.940778971E0,-9.485149384E0,-1.962114573E-1
5.047693077E0,-2.924029350E0,-9.458827972E0,-1.770688742E-1
5.052448598E0,-2.940778971E0,-9.439684868E0,-1.531406492E-1
5.057204119E0,-2.947957516E0,-9.413364410E0,-1.268195957E-1
5.061959639E0,-2.945564747E0,-9.367900848E0,-9.810572863E-2
5.066715160E0,-2.919243574E0,-9.363115311E0,-9.332008660E-2
5.071470681E0,-2.919243574E0,-9.363115311E0,-4.307080805E-2
5.076226202E0,-2.926422119E0,-9.327222824E0,-3.589234129E-2
5.080981723E0,-2.938386202E0,-9.348757744E0,-0.000000000E0
5.085737244E0,-2.926422119E0,-9.358329773E0,2.632104978E-2
5.090492764E0,-2.921636343E0,-9.348757744E0,5.024927482E-2
5.095248285E0,-2.909672260E0,-9.348757744E0,4.307080805E-2
5.100003806E0,-2.919243574E0,-9.367900848E0,4.067798331E-2
5.104759327E0,-2.919243574E0,-9.346364975E0,4.067798331E-2
5.109514848E0,-2.904886723E0,-9.363115311E0,1.914258115E-2
5.114270369E0,-2.902493954E0,-9.351150513E0,-0.000000000E0
5.119025889E0,-2.909672260E0,-9.363115311E0,-1.435693540E-2
5.123781410E0,-2.888136864E0,-9.396614075E0,-3.828516230E-2
5.128536931E0,-2.921636343E0,-9.382257462E0,-5.982056633E-2
5.133292452E0,-2.900100946E0,-9.399007797E0,-6.939185411E-2
5.138047973E0,-2.928814888E0,-9.413364410E0,-5.024927482E-2
5.142803494E0,-2.938386202E0,-9.420542717E0,-5.982056633E-2
5.147559014E0,-2.945564747E0,-9.442078590E0,-5.982056633E-2
5.152314535E0,-2.940778971E0,-9.456435204E0,-7.657032460E-2
5.157070056E0,-2.945564747E0,-9.468399048E0,-6.460621208E-2
5.161825577E0,-2.969492912E0,-9.470791817E0,-7.657032460E-2
5.166581098E0,-2.969492912E0,-9.458827972E0,-7.178468257E-2
5.171336619E0,-2.979064226E0,-9.444471359E0,-7.417750359E-2
5.176092139E0,-2.998206854E0,-9.446864128E0,-7.657032460E-2
5.180847660E0,-2.995813847E0,-9.418149948E0,-7.417750359E-2
5.185603181E0,-3.007778168E0,-9.442078590E0,-9.332008660E-2
5.190358702E0,-3.014956474E0,-9.442078590E0,-8.374879509E-2
5.195114223E0,-2.983849764E0,-9.444471359E0,-8.135596663E-2
5.199869744E0,-3.005385160E0,-9.439684868E0,-9.332008660E-2
5.204625264E0,-2.971885681E0,-9.427721024E0,-1.004985496E-1
5.209380785E0,-2.962314367E0,-9.427721024E0,-8.374879509E-2
5.214136306E0,-2.979064226E0,-9.427721024E0,-5.982056633E-2
5.218891827E0,-2.952743053E0,-9.394221306E0,-1.674975827E-2
5.223647348E0,-2.909672260E0,-9.351150513E0,1.435693540E-2
5.228402869E0,-2.900100946E0,-9.324830055E0,4.307080805E-2
5.233158389E0,-2.897708178E0,-9.334401131E0,7.657032460E-2
5.237913910E0,-2.897708178E0,-9.315258980E0,1.028913707E-1
5.242669431E0,-2.919243574E0,-9.310472488E0,1.387837082E-1
5.247424952E0,-2.943171740E0,-9.300901413E0,1.435693651E-1
5.252180473E0,-2.986242771E0,-9.310472488E0,1.363908947E-1
5.256935994E0,-3.026920557E0,-9.317651749E0,1.292124242E-1
5.261691514E0,-3.074777126E0,-9.353543282E0,8.374879509E-2
5.266447035E0,-3.127419233E0,-9.370293617E0,2.871387079E-2
5.271202556E0,-3.153740168E0,-9.391828537E0,-7.178467698E-3
5.275958077E0,-3.153740168E0,-9.406186104E0,-6.939185411E-2
5.280713598E0,-3.160918713E0,-9.451649666E0,-9.571290761E-2
5.285469119E0,-3.168097258E0,-9.456435204E0,-1.076770201E-1
5.290224692E0,-3.172882795E0,-9.430113792E0,-1.363908947E-1
5.294980212E0,-3.151347399E0,-9.408578873E0,-1.459621787E-1
5.299735681E0,-3.165704250E0,-9.387042999E0,-1.531406492E-1
5.304491254E0,-3.158525944E0,-9.358329773E0,-1.363908947E-1
5.309246775E0,-3.141776085E0,-9.343972206E0,-1.076770201E-1
5.314002296E0,-3.163311481E0,-9.320044518E0,-9.092725813E-2
5.318757817E0,-3.180061340E0,-9.312865257E0,-1.004985496E-1
5.323513337E0,-3.172882795E0,-9.334401131E0,-8.853443712E-2
5.328268858E0,-3.168097258E0,-9.310472488E0,-8.853443712E-2
5.333024379E0,-3.146561861E0,-9.353543282E0,-8.614161611E-2
5.337779900E0,-3.120240688E0,-9.375079155E0,-1.052841991E-1
5.342535421E0,-3.096312523E0,-9.372686386E0,-1.148554832E-1
5.347290942E0,-3.074777126E0,-9.382257462E0,-1.172483116E-1
5.352046462E0,-3.062813044E0,-9.394221306E0,-1.316052526E-1
5.356801983E0,-3.048455954E0,-9.420542717E0,-1.459621787E-1
5.361557504E0,-3.029313564E0,-9.418149948E0,-1.627119333E-1
5.366313025E0,-2.995813847E0,-9.399007797E0,-1.722832322E-1
5.371068546E0,-3.012563705E0,-9.389435768E0,-1.411765367E-1
5.375824067E0,-3.058027267E0,-9.387042999E0,-1.292124242E-1
5.380579587E0,-3.098705292E0,-9.377471924E0,-1.100698411E-1
5.385335108E0,-3.122633457E0,-9.363115311E0,-6.939185411E-2
5.390090629E0,-3.120240688E0,-9.320044518E0,-5.024927482E-2
5.394846150E0,-3.132204771E0,-9.320044518E0,-1.914258115E-2
5.399601671E0,-3.153740168E0,-9.332008362E0,-2.392822690E-2
5.404357192E0,-3.146561861E0,-9.312865257E0,-1.914258115E-2
5.409112712E0,-3.115455151E0,-9.327222824E0,-1.196411345E-2
5.413868233E0,-3.113062143E0,-9.343972206E0,-3.828516230E-2
5.418623754E0,-3.108276606E0,-9.358329773E0,-4.546362907E-2
5.423379275E0,-3.105883837E0,-9.389435768E0,-7.657032460E-2
5.428134796E0,-3.105883837E0,-9.401400566E0,-8.853443712E-2
5.432890317E0,-3.093919754E0,-9.420542717E0,-1.411765367E-1
5.437645837E0,-3.084348440E0,-9.449256897E0,-1.411765367E-1
5.442401358E0,-3.086741209E0,-9.451649666E0,-1.435693651E-1
5.447156879E0,-3.055634499E0,-9.497113228E0,-1.579262912E-1
5.451912400E0,-3.036491871E0,-9.470791817E0,-1.531406492E-1
5.456667921E0,-3.017349243E0,-9.451649666E0,-1.579262912E-1
5.461423442E0,-2.995813847E0,-9.456435204E0,-1.507478207E-1
5.466178962E0,-3.007778168E0,-9.444471359E0,-1.220339537E-1
5.470934483E0,-3.017349243E0,-9.382257462E0,-1.100698411E-1
5.475690004E0,-3.019742250E0,-9.370293617E0,-7.896314561E-2
5.480445525E0,-3.024527788E0,-9.370293617E0,-4.307080805E-2
5.485201046E0,-3.050848961E0,-9.372686386E0,7.178467698E-3
5.489956567E0,-3.055634499E0,-9.370293617E0,4.785645381E-2
5.494712087E0,-3.055634499E0,-9.355937004E0,7.417750359E-2
5.499467608E0,-3.036491871E0,-9.358329773E0,1.100698411E-1
5.504223129E0,-3.026920557E0,-9.384650230E0,1.076770201E-1
5.508978650E0,-2.993421078E0,-9.375079155E0,1.100698411E-1
5.513734171E0,-2.959921598E0,-9.367900848E0,7.417750359E-2
5.518489692E0,-2.952743053E0,-9.391828537E0,6.460621208E-2
5.523245212E0,-2.945564747E0,-9.399007797E0,5.024927482E-2
5.528000733E0,-2.964707375E0,-9.406186104E0,2.871387079E-2
5.532756254E0,-2.933600664E0,-9.434899330E0,-9.571290575E-3
5.537511775E0,-2.931207657E0,-9.418149948E0,-2.632104978E-2
5.542267296E0,-2.950350285E0,-9.415757179E0,-4.785645381E-2
5.547022817E0,-2.957528830E0,-9.377471924E0,-5.982056633E-2
5.551778337E0,-2.974278450E0,-9.382257462E0,-5.982056633E-2
5.556533858E0,-2.976671457E0,-9.375079155E0,-3.349951655E-2
5.561289379E0,-2.979064226E0,-9.363115311E0,-3.589234129E-2
5.566044900E0,-3.000599623E0,-9.355937004E0,-2.392822690E-2
5.570800421E0,-3.048455954E0,-9.372686386E0,-2.153540403E-2
5.575555942E0,-3.038884640E0,-9.382257462E0,-1.674975827E-2
5.580311462E0,-3.034099102E0,-9.425328255E0,-2.871387079E-2
5.585067035E0,-3.050848961E0,-9.403793335E0,-6.939185411E-2
5.589822504E0,-3.041277647E0,-9.403793335E0,-1.028913707E-1
5.594578025E0,-3.043670416E0,-9.427721024E0,-1.555334777E-1
5.599333598E0,-3.005385160E0,-9.454042435E0,-1.914258152E-1
5.604089119E0,-2.986242771E0,-9.468399048E0,-2.584248483E-1
5.608844639E0,-2.976671457E0,-9.446864128E0,-3.230310678E-1
5.613600160E0,-2.950350285E0,-9.439684868E0,-3.876372576E-1
5.618355629E0,-2.940778971E0,-9.446864128E0,-4.115654826E-1
5.623111202E0,-2.935993433E0,-9.461220741E0,-4.307080805E-1
5.627866723E0,-2.947957516E0,-9.449256897E0,-4.115654826E-1
5.632622244E0,-2.955136061E0,-9.401400566E0,-3.469592929E-1
5.637377764E0,-2.947957516E0,-9.396614075E0,-2.895315289E-1
5.642133285E0,-2.964707375E0,-9.396614075E0,-2.153540403E-1
5.646888806E0,-2.959921598E0,-9.394221306E0,-1.100698411E-1
5.651644327E0,-2.979064226E0,-9.403793335E0,-2.871387079E-2
5.656399848E0,-2.969492912E0,-9.401400566E0,2.632104978E-2
5.661155369E0,-2.952743053E0,-9.408578873E0,7.417750359E-2
5.665910889E0,-2.940778971E0,-9.408578873E0,1.124626622E-1
5.670666410E0,-2.916850805E0,-9.422935486E0,1.339980662E-1
5.675421931E0,-2.885744095E0,-9.420542717E0,1.316052526E-1
5.680177452E0,-2.890529871E0,-9.396614075E0,1.196411327E-1
5.684932973E0,-2.876172781E0,-9.394221306E0,7.417750359E-2
5.689688494E0,-2.873780012E0,-9.391828537E0,2.392822690E-2
5.694444014E0,-2.876172781E0,-9.401400566E0,-2.632104978E-2
5.699199535E0,-2.864208698E0,-9.394221306E0,-5.264209956E-2
5.703955056E0,-2.861815929E0,-9.403793335E0,-1.028913707E-1
5.708710577E0,-2.825923443E0,-9.391828537E0,-1.268195957E-1
5.713466098E0,-2.804388046E0,-9.394221306E0,-1.459621787E-1
5.718221619E0,-2.811566591E0,-9.401400566E0,-1.244267747E-1
5.722977139E0,-2.794816732E0,-9.379864693E0,-9.571290761E-2
5.727732660E0,-2.787638426E0,-9.391828537E0,-5.264209956E-2
5.732488181E0,-2.768495798E0,-9.375079155E0,-1.435693540E-2
5.737243702E0,-2.787638426E0,-9.389435768E0,2.153540403E-2
5.741999223E0,-2.787638426E0,-9.394221306E0,3.589234129E-2
5.746754744E0,-2.797209740E0,-9.415757179E0,4.546362907E-2
5.751510264E0,-2.801995277E0,-9.420542717E0,5.264209956E-2
5.756265785E0,-2.799602509E0,-9.399007797E0,6.460621208E-2
5.761021306E0,-2.809173822E0,-9.406186104E0,7.657032460E-2
5.765776827E0,-2.806781054E0,-9.396614075E0,7.178468257E-2
5.770532348E0,-2.806781054E0,-9.427721024E0,4.307080805E-2
5.775287869E0,-2.847458839E0,-9.410971642E0,1.674975827E-2
5.780043389E0,-2.840280533E0,-9.403793335E0,9.571290575E-3
5.784798910E0,-2.868994236E0,-9.401400566E0,-2.392822644E-3
5.789554431E0,-2.900100946E0,-9.406186104E0,-2.392822690E-2
5.794309952E0,-2.931207657E0,-9.372686386E0,-5.024927482E-2
5.799065473E0,-2.921636343E0,-9.389435768E0,-1.148554832E-1
5.803820994E0,-2.931207657E0,-9.375079155E0,-1.770688742E-1
5.808576514E0,-2.900100946E0,-9.372686386E0,-2.799602449E-1
5.813332035E0,-2.873780012E0,-9.384650230E0,-4.115654826E-1
5.818087556E0,-2.806781054E0,-9.394221306E0,-5.718846321E-1
5.822843077E0,-2.756531715E0,-9.406186104E0,-7.082754970E-1
5.827598598E0,-2.687139750E0,-9.375079155E0,-8.159525394E-1
5.832354171E0,-2.584248543E0,-9.348757744E0,-8.590233326E-1
5.837109639E0,-2.471785784E0,-9.279366493E0,-8.111668825E-1
5.841865212E0,-2.364108801E0,-9.219545364E0,-6.628118753E-1
5.846620681E0,-2.287538528E0,-9.138189316E0,-4.378865361E-1
5.851376254E0,-2.249253273E0,-9.087940216E0,-2.057827413E-1
5.856131775E0,-2.280359983E0,-9.104690552E0,5.264209956E-2
5.860887296E0,-2.342573404E0,-9.121439934E0,2.799602449E-1
5.865642817E0,-2.435893536E0,-9.214759827E0,4.450650215E-1
5.870398337E0,-2.584248543E0,-9.327222824E0,5.718846321E-1
5.875153858E0,-2.754138947E0,-9.468399048E0,6.364908218E-1
5.879909379E0,-2.945564747E0,-9.590433121E0,6.101697683E-1
5.884664900E0,-3.110669374E0,-9.667003632E0,5.359922647E-1
5.889420421E0,-3.256631613E0,-9.729216576E0,3.565305769E-1
5.894175942E0,-3.345165968E0,-9.767501831E0,1.387837082E-1
5.898931462E0,-3.428914785E0,-9.798608780E0,-1.268195957E-1
5.903686983E0,-3.493520975E0,-9.757930756E0,-3.637090325E-1
5.908442504E0,-3.515056372E0,-9.700503349E0,-6.053841114E-1
5.913198025E0,-3.538984776E0,-9.616754532E0,-8.374879360E-1
5.917953546E0,-3.538984776E0,-9.544969559E0,-9.690931439E-1
5.922709067E0,-3.517449379E0,-9.487542152E0,-1.040877819E0
5.927464587E0,-3.503092289E0,-9.444471359E0,-1.079162955E0
5.932220108E0,-3.443271875E0,-9.425328255E0,-1.040877819E0
5.936975629E0,-3.390629768E0,-9.410971642E0,-9.667003751E-1
5.941731150E0,-3.337987661E0,-9.415757179E0,-8.231309652E-1
5.946486671E0,-3.268595695E0,-9.432506561E0,-6.460621357E-1
5.951242192E0,-3.237488985E0,-9.451649666E0,-4.666004181E-1
5.955997712E0,-3.201596737E0,-9.473184586E0,-3.134597540E-1
5.960753233E0,-3.199203968E0,-9.494720459E0,-2.321037948E-1
5.965508754E0,-3.213560820E0,-9.494720459E0,-2.177468538E-1
5.970264275E0,-3.220739365E0,-9.485149384E0,-2.464607358E-1
5.975019796E0,-3.208775282E0,-9.437292099E0,-3.206382394E-1
5.979775317E0,-3.180061340E0,-9.420542717E0,-4.019941986E-1
5.984530837E0,-3.117847919E0,-9.367900848E0,-4.809573591E-1
5.989286358E0,-3.036491871E0,-9.305686951E0,-5.240281820E-1
5.994041879E0,-2.904886723E0,-9.265008926E0,-5.407779217E-1
5.998797400E0,-2.792423964E0,-9.253045082E0,-5.216353536E-1
6.003552921E0,-2.696711063E0,-9.224330902E0,-4.354937077E-1
6.008308442E0,-2.660818815E0,-9.219545364E0,-3.469592929E-1
6.013063962E0,-2.646461725E0,-9.217152596E0,-2.464607358E-1
6.017819483E0,-2.658426046E0,-9.217152596E0,-1.938186288E-1
6.022575004E0,-2.677568436E0,-9.233902931E0,-1.292124242E-1
6.027330525E0,-2.694318295E0,-9.265008926E0,-7.417750359E-2
6.032086046E0,-2.723032236E0,-9.284152031E0,-6.460621208E-2
6.036841567E0,-2.737389088E0,-9.293723106E0,-5.742774159E-2
6.041597087E0,-2.778067112E0,-9.336793900E0,-5.264209956E-2
6.046352608E0,-2.840280533E0,-9.339186668E0,-1.196411327E-1
6.051108181E0,-2.871387243E0,-9.367900848E0,-1.579262912E-1
6.055863650E0,-2.919243574E0,-9.370293617E0,-2.608176768E-1
6.060619223E0,-2.957528830E0,-9.372686386E0,-3.780659735E-1
6.065374744E0,-2.993421078E0,-9.408578873E0,-5.000999570E-1
6.070130264E0,-3.002992392E0,-9.415757179E0,-6.221339107E-1
6.074885785E0,-3.019742250E0,-9.413364410E0,-7.082754970E-1
6.079641306E0,-3.031706333E0,-9.396614075E0,-7.800601721E-1
6.084396827E0,-3.043670416E0,-9.384650230E0,-8.350951076E-1
6.089152348E0,-3.046063185E0,-9.363115311E0,-8.542376757E-1
6.093907869E0,-3.053241730E0,-9.310472488E0,-8.662018180E-1
6.098663389E0,-3.017349243E0,-9.308079720E0,-8.470591903E-1
6.103418910E0,-2.995813847E0,-9.272188187E0,-8.087740541E-1
6.108174431E0,-2.952743053E0,-9.279366493E0,-7.680960894E-1
6.112929952E0,-2.907279491E0,-9.303294182E0,-7.322037220E-1
6.117685473E0,-2.847458839E0,-9.334401131E0,-6.747759581E-1
6.122440994E0,-2.825923443E0,-9.391828537E0,-6.125625968E-1
6.127196514E0,-2.792423964E0,-9.403793335E0,-5.335994363E-1
6.131952035E0,-2.782852650E0,-9.425328255E0,-4.737788737E-1
6.136707556E0,-2.746960402E0,-9.430113792E0,-4.211367965E-1
6.141463077E0,-2.730210543E0,-9.427721024E0,-3.661018610E-1
6.146218598E0,-2.734996319E0,-9.422935486E0,-3.302095234E-1
6.150974119E0,-2.730210543E0,-9.434899330E0,-2.871387303E-1
6.155729639E0,-2.742174864E0,-9.458827972E0,-2.608176768E-1
6.160485160E0,-2.730210543E0,-9.468399048E0,-2.464607358E-1
6.165240681E0,-2.711068153E0,-9.489934921E0,-2.344966233E-1
6.169996202E0,-2.699103832E0,-9.499505997E0,-2.105683982E-1
6.174751723E0,-2.701496840E0,-9.480362892E0,-2.273181528E-1
6.179507244E0,-2.691925526E0,-9.463613510E0,-2.799602449E-1
6.184262764E0,-2.672782898E0,-9.475577354E0,-2.991028428E-1
6.189018285E0,-2.679961443E0,-9.456435204E0,-3.732803464E-1
6.193773806E0,-2.663211584E0,-9.456435204E0,-4.331009090E-1
6.198529327E0,-2.639283419E0,-9.451649666E0,-4.929214716E-1
6.203284848E0,-2.634497643E0,-9.451649666E0,-5.623133183E-1
6.208040369E0,-2.641676188E0,-9.432506561E0,-6.197410822E-1
6.212795889E0,-2.651247501E0,-9.425328255E0,-6.747759581E-1
6.217551410E0,-2.675175667E0,-9.432506561E0,-7.226324677E-1
6.222306931E0,-2.687139750E0,-9.394221306E0,-7.178468108E-1
6.227062452E0,-2.667997360E0,-9.367900848E0,-7.226324677E-1
6.231817973E0,-2.660818815E0,-9.360722542E0,-7.106683254E-1
6.236573494E0,-2.677568436E0,-9.358329773E0,-7.226324677E-1
6.241329014E0,-2.689532757E0,-9.367900848E0,-7.465606928E-1
6.246084535E0,-2.677568436E0,-9.382257462E0,-7.250252366E-1
6.250840056E0,-2.703889608E0,-9.379864693E0,-7.441678643E-1
6.255595577E0,-2.727817774E0,-9.422935486E0,-7.417750359E-1
6.260351098E0,-2.720639229E0,-9.406186104E0,-7.226324677E-1
6.265106671E0,-2.768495798E0,-9.439684868E0,-7.345965505E-1
6.269862139E0,-2.806781054E0,-9.458827972E0,-7.130611539E-1
6.274617712E0,-2.845066071E0,-9.466006279E0,-6.915257573E-1
6.279373181E0,-2.871387243E0,-9.468399048E0,-6.699903607E-1
6.284128754E0,-2.883351326E0,-9.468399048E0,-6.364908218E-1
6.288884275E0,-2.926422119E0,-9.439684868E0,-6.029912829E-1
6.293639796E0,-2.931207657E0,-9.434899330E0,-5.958128572E-1
6.298395317E0,-2.924029350E0,-9.418149948E0,-5.670989752E-1
6.303150837E0,-2.909672260E0,-9.406186104E0,-5.958128572E-1
6.307906358E0,-2.892922640E0,-9.389435768E0,-5.838487148E-1
6.312661879E0,-2.878565550E0,-9.401400566E0,-5.814558864E-1
6.317417400E0,-2.864208698E0,-9.399007797E0,-5.599204898E-1
6.322172921E0,-2.801995277E0,-9.422935486E0,-5.431707501E-1
6.326928442E0,-2.758924484E0,-9.449256897E0,-5.192425251E-1
6.331683962E0,-2.723032236E0,-9.446864128E0,-5.335994363E-1
6.336439483E0,-2.684746981E0,-9.477970123E0,-5.527420044E-1
6.341195004E0,-2.622533560E0,-9.523433685E0,-5.910272002E-1
6.345950525E0,-2.589034081E0,-9.535398483E0,-6.532405615E-1
6.350706046E0,-2.565105915E0,-9.547362328E0,-6.843472719E-1
6.355461567E0,-2.519642353E0,-9.580862045E0,-7.513462901E-1
6.360217087E0,-2.483749866E0,-9.585647583E0,-7.968099117E-1
6.364972608E0,-2.459821701E0,-9.626325607E0,-8.087740541E-1
6.369728129E0,-2.438286304E0,-9.619147301E0,-7.920243144E-1
6.374483650E0,-2.426322222E0,-9.631111145E0,-7.441678643E-1
6.379239171E0,-2.440679073E0,-9.607182503E0,-6.939185858E-1
6.383994692E0,-2.431107759E0,-9.621540070E0,-6.077769399E-1
6.388750212E0,-2.433500528E0,-9.609575272E0,-5.335994363E-1
6.393505733E0,-2.433500528E0,-9.602396965E0,-4.546363056E-1
6.398261254E0,-2.445464849E0,-9.609575272E0,-3.613162339E-1
6.403016775E0,-2.431107759E0,-9.597611427E0,-3.254238665E-1
6.407772296E0,-2.404786825E0,-9.595218658E0,-3.110669553E-1
6.412527817E0,-2.390429735E0,-9.604789734E0,-3.182454109E-1
6.417283337E0,-2.378465652E0,-9.566504478E0,-3.278166950E-1
6.422038858E0,-2.373680115E0,-9.568898201E0,-3.517449200E-1
6.426794379E0,-2.359323025E0,-9.535398483E0,-3.804588020E-1
6.431549900E0,-2.407179594E0,-9.523433685E0,-4.211367965E-1
6.436305421E0,-2.395215511E0,-9.487542152E0,-4.474578202E-1
6.441060942E0,-2.404786825E0,-9.466006279E0,-4.833501875E-1
6.445816462E0,-2.447857618E0,-9.446864128E0,-5.240281820E-1
6.450571983E0,-2.457428932E0,-9.446864128E0,-5.503492355E-1
6.455327504E0,-2.486142635E0,-9.396614075E0,-5.814558864E-1
6.460083025E0,-2.538784742E0,-9.391828537E0,-6.125625968E-1
6.464838546E0,-2.598605394E0,-9.418149948E0,-6.269195080E-1
6.469594067E0,-2.639283419E0,-9.430113792E0,-6.604190469E-1
6.474349587E0,-2.658426046E0,-9.470791817E0,-6.843472719E-1
6.479105108E0,-2.723032236E0,-9.511469841E0,-7.393822074E-1
6.483860629E0,-2.770888567E0,-9.542576790E0,-7.896314859E-1
6.488616150E0,-2.792423964E0,-9.580862045E0,-8.685946465E-1
6.493371671E0,-2.818745136E0,-9.559326172E0,-9.547362328E-1
6.498127192E0,-2.833101988E0,-9.506684303E0,-1.028913736E0
6.502882712E0,-2.833101988E0,-9.468399048E0,-1.076770186E0
6.507638233E0,-2.821137905E0,-9.401400566E0,-1.093519926E0
6.512393754E0,-2.785245657E0,-9.351150513E0,-1.105484009E0
6.517149275E0,-2.751745939E0,-9.320044518E0,-1.057627559E0
6.521904796E0,-2.684746981E0,-9.329615593E0,-1.019342422E0
6.526660317E0,-2.603390932E0,-9.367900848E0,-9.690931439E-1
6.531415837E0,-2.529213428E0,-9.415757179E0,-9.284151793E-1
6.536171358E0,-2.450250387E0,-9.492327690E0,-8.997012973E-1
6.540926879E0,-2.368894339E0,-9.525827408E0,-8.829515576E-1
6.545682400E0,-2.330609322E0,-9.578469276E0,-8.925228715E-1
6.550437921E0,-2.277967215E0,-9.619147301E0,-9.140582681E-1
6.555193442E0,-2.254039049E0,-9.671789169E0,-9.164510965E-1
6.559948962E0,-2.244467735E0,-9.669396400E0,-9.140582681E-1
6.564704483E0,-2.222932339E0,-9.669396400E0,-8.973084688E-1
6.569460004E0,-2.218146563E0,-9.657432556E0,-8.805587292E-1
6.574215525E0,-2.220539331E0,-9.623932838E0,-8.949156404E-1
6.578971046E0,-2.230110645E0,-9.585647583E0,-9.092726111E-1
6.583726567E0,-2.237289190E0,-9.525827408E0,-9.164510965E-1
6.588482087E0,-2.242074728E0,-9.487542152E0,-9.284151793E-1
6.593237608E0,-2.268395901E0,-9.463613510E0,-9.116654396E-1
6.597993181E0,-2.304288149E0,-9.401400566E0,-9.068797827E-1
6.602748650E0,-2.366501570E0,-9.387042999E0,-8.805587292E-1
6.607504223E0,-2.404786825E0,-9.389435768E0,-8.518448472E-1
6.612259744E0,-2.459821701E0,-9.367900848E0,-7.752745152E-1
6.617015212E0,-2.502892494E0,-9.372686386E0,-7.369893789E-1
6.621770785E0,-2.538784742E0,-9.355937004E0,-7.154539824E-1
6.626526306E0,-2.577069998E0,-9.360722542E0,-7.345965505E-1
6.631281827E0,-2.608176708E0,-9.358329773E0,-7.465606928E-1
6.636037348E0,-2.624926329E0,-9.353543282E0,-8.111668825E-1
6.640792869E0,-2.665604353E0,-9.310472488E0,-8.422735929E-1
6.645548389E0,-2.687139750E0,-9.265008926E0,-8.805587292E-1
6.650303910E0,-2.746960402E0,-9.245866776E0,-8.733802438E-1
6.655059431E0,-2.775674343E0,-9.176474571E0,-8.757730722E-1
6.659814952E0,-2.785245657E0,-9.154939651E0,-8.398807645E-1
6.664570473E0,-2.770888567E0,-9.119047165E0,-8.494520187E-1
6.669325994E0,-2.754138947E0,-9.080761909E0,-8.135597110E-1
6.674081514E0,-2.732603550E0,-9.061619759E0,-8.231309652E-1
6.678837035E0,-2.713460922E0,-9.078369141E0,-8.135597110E-1
6.683592556E0,-2.675175667E0,-9.078369141E0,-8.398807645E-1
6.688348077E0,-2.624926329E0,-9.066405296E0,-8.662018180E-1
6.693103598E0,-2.586641312E0,-9.119047165E0,-9.284151793E-1
6.697859119E0,-2.531606436E0,-9.138189316E0,-9.619147182E-1
6.702614639E0,-2.488535643E0,-9.166903496E0,-9.810572863E-1
6.707370160E0,-2.450250387E0,-9.171689034E0,-9.906286001E-1
6.712125681E0,-2.409572363E0,-9.176474571E0,-9.906286001E-1
6.716881202E0,-2.380858421E0,-9.162117958E0,-9.667003751E-1
6.721636723E0,-2.378465652E0,-9.159725189E0,-9.308080077E-1
6.726392244E0,-2.359323025E0,-9.107083321E0,-8.662018180E-1
6.731147764E0,-2.371287346E0,-9.087940216E0,-7.752745152E-1
6.735903285E0,-2.342573404E0,-9.044869423E0,-6.747759581E-1
6.740658806E0,-2.333002090E0,-9.054440498E0,-5.814558864E-1
6.745414327E0,-2.261217356E0,-9.073583603E0,-4.809573591E-1
6.750169848E0,-2.182254314E0,-9.107083321E0,-4.163511395E-1
6.754925369E0,-2.129612207E0,-9.152546883E0,-3.828516304E-1
6.759680889E0,-2.084148407E0,-9.195617676E0,-3.684946895E-1
6.764436410E0,-2.060220242E0,-9.221938133E0,-3.756731451E-1
6.769191931E0,-2.072184324E0,-9.233902931E0,-3.876372576E-1
6.773947452E0,-2.112862349E0,-9.214759827E0,-4.331009090E-1
6.778702973E0,-2.182254314E0,-9.219545364E0,-4.474578202E-1
6.783458494E0,-2.280359983E0,-9.231510162E0,-4.618147612E-1
6.788214014E0,-2.373680115E0,-9.245866776E0,-4.642075896E-1
6.792969535E0,-2.486142635E0,-9.286544800E0,-4.498506486E-1
6.797725056E0,-2.569891453E0,-9.315258980E0,-4.378865361E-1
6.802480577E0,-2.596212626E0,-9.324830055E0,-4.498506486E-1
6.807236098E0,-2.574677229E0,-9.372686386E0,-5.264210105E-1
6.811991619E0,-2.526820660E0,-9.377471924E0,-6.125625968E-1
6.816747139E0,-2.447857618E0,-9.442078590E0,-7.322037220E-1
6.821502660E0,-2.342573404E0,-9.470791817E0,-8.997012973E-1
6.826258181E0,-2.201396942E0,-9.492327690E0,-1.069591761E0
6.831013702E0,-2.048256159E0,-9.521040916E0,-1.265803218E0
6.835769223E0,-1.904686809E0,-9.554540634E0,-1.438086390E0
6.840524744E0,-1.787438512E0,-9.564111710E0,-1.617548108E0
6.845280264E0,-1.689332843E0,-9.576076508E0,-1.751546144E0
6.850035785E0,-1.636690736E0,-9.566504478E0,-1.811366796E0
6.854791306E0,-1.624726534E0,-9.537791252E0,-1.818545222E0
6.859546827E0,-1.686939955E0,-9.485149384E0,-1.773081541E0
6.864302348E0,-1.761117458E0,-9.420542717E0,-1.653440475E0
6.869057869E0,-1.909472466E0,-9.375079155E0,-1.490728498E0
6.873813389E0,-2.057827473E0,-9.320044518E0,-1.301695466E0
6.878568910E0,-2.187039852E0,-9.274580956E0,-1.088734269E0
6.883324431E0,-2.340180635E0,-9.229117393E0,-9.284151793E-1
6.888079952E0,-2.447857618E0,-9.200403214E0,-7.704889178E-1
6.892835473E0,-2.536391973E0,-9.147761345E0,-6.963114142E-1
6.897590994E0,-2.569891453E0,-9.128618240E0,-6.747759581E-1
6.902346462E0,-2.612962246E0,-9.080761909E0,-6.723831892E-1
6.907101983E0,-2.648854733E0,-9.059226990E0,-7.393822074E-1
6.911857556E0,-2.660818815E0,-9.023334503E0,-7.872386575E-1
6.916613025E0,-2.656033039E0,-9.004191399E0,-8.781659007E-1
6.921368546E0,-2.660818815E0,-8.994620323E0,-9.332008362E-1
6.926124067E0,-2.644068956E0,-9.004191399E0,-9.762716293E-1
6.930879587E0,-2.629712105E0,-9.035298347E0,-1.004985452E0
6.935635108E0,-2.591426849E0,-9.068798065E0,-9.930213690E-1
6.940390629E0,-2.562713146E0,-9.080761909E0,-9.523434043E-1
6.945146150E0,-2.522035122E0,-9.066405296E0,-8.757730722E-1
6.949901671E0,-2.488535643E0,-9.061619759E0,-8.255237937E-1
6.954657192E0,-2.478964329E0,-9.037691116E0,-7.489534616E-1
6.959412712E0,-2.467000246E0,-9.037691116E0,-6.699903607E-1
6.964168233E0,-2.421536446E0,-9.030512810E0,-6.221339107E-1
6.968923754E0,-2.404786825E0,-9.018548965E0,-6.029912829E-1
6.973679275E0,-2.383251429E0,-9.023334503E0,-5.670989752E-1
6.978434796E0,-2.359323025E0,-9.032905579E0,-5.575276613E-1
6.983190317E0,-2.342573404E0,-9.035298347E0,-5.431707501E-1
6.987945837E0,-2.323430777E0,-9.054440498E0,-5.455635786E-1
6.992701358E0,-2.285145521E0,-9.056833267E0,-5.335994363E-1
6.997456879E0,-2.270788670E0,-9.095118523E0,-5.383850932E-1
7.002212400E0,-2.266003132E0,-9.078369141E0,-5.670989752E-1
7.006967921E0,-2.239681959E0,-9.102297783E0,-5.958128572E-1
7.011723442E0,-2.242074728E0,-9.135796547E0,-6.317051649E-1
7.016478962E0,-2.234896421E0,-9.157332420E0,-7.034898400E-1
7.021234483E0,-2.242074728E0,-9.188439369E0,-7.704889178E-1
7.025990004E0,-2.261217356E0,-9.198010445E0,-7.944171429E-1
7.030745525E0,-2.304288149E0,-9.236295700E0,-8.566305041E-1
7.035501046E0,-2.318645239E0,-9.253045082E0,-8.949156404E-1
7.040256567E0,-2.333002090E0,-9.279366493E0,-9.164510965E-1
7.045012087E0,-2.344966173E0,-9.315258980E0,-9.427721500E-1
7.049767608E0,-2.366501570E0,-9.384650230E0,-9.451649189E-1
7.054523129E0,-2.376072884E0,-9.348757744E0,-9.619147182E-1
7.059278650E0,-2.359323025E0,-9.339186668E0,-9.619147182E-1
7.064034171E0,-2.352144718E0,-9.341579437E0,-9.786644578E-1
7.068789692E0,-2.321038008E0,-9.329615593E0,-9.738788009E-1
7.073545212E0,-2.328216314E0,-9.253045082E0,-9.427721500E-1
7.078300733E0,-2.289931297E0,-9.190832138E0,-9.355936646E-1
7.083056254E0,-2.277967215E0,-9.131011009E0,-8.949156404E-1
7.087811775E0,-2.263610125E0,-9.102297783E0,-8.327022791E-1
7.092567296E0,-2.234896421E0,-9.042476654E0,-7.872386575E-1
7.097322817E0,-2.191825628E0,-9.032905579E0,-7.202396393E-1
7.102078337E0,-2.151147604E0,-9.018548965E0,-6.580262184E-1
7.106833858E0,-2.117648125E0,-9.030512810E0,-6.388836503E-1
7.111589379E0,-2.045863390E0,-9.052047729E0,-5.982056856E-1
7.116344900E0,-2.050648928E0,-9.061619759E0,-5.790630579E-1
7.121100421E0,-2.029113531E0,-9.061619759E0,-5.838487148E-1
7.125855942E0,-2.005185366E0,-9.049654961E0,-5.575276613E-1
7.130611462E0,-2.033899307E0,-9.040083885E0,-5.240281820E-1
7.135366983E0,-2.045863390E0,-9.044869423E0,-4.833501875E-1
7.140122504E0,-2.098505497E0,-9.044869423E0,-4.450650215E-1
7.144878025E0,-2.129612207E0,-9.037691116E0,-4.043870270E-1
7.149633546E0,-2.208575249E0,-9.037691116E0,-3.804588020E-1
7.154389067E0,-2.266003132E0,-9.042476654E0,-3.589234054E-1
7.159144535E0,-2.330609322E0,-9.008976936E0,-3.589234054E-1
7.163900056E0,-2.395215511E0,-9.011369705E0,-3.852444589E-1
7.168655577E0,-2.433500528E0,-8.953942299E0,-4.378865361E-1
7.173411150E0,-2.478964329E0,-8.934800148E0,-4.953143001E-1
7.178166619E0,-2.490928411E0,-8.913264275E0,-5.407779217E-1
7.182922139E0,-2.488535643E0,-8.906085968E0,-5.982056856E-1
7.187677660E0,-2.476571321E0,-8.901300430E0,-6.293123364E-1
7.192433181E0,-2.476571321E0,-8.898907661E0,-6.532405615E-1
7.197188702E0,-2.452643156E0,-8.925228119E0,-6.580262184E-1
7.201944223E0,-2.407179594E0,-8.946763992E0,-6.795616150E-1
7.206699744E0,-2.395215511E0,-9.004191399E0,-7.058826685E-1
7.211455264E0,-2.340180635E0,-9.032905579E0,-7.226324677E-1
7.216210785E0,-2.333002090E0,-9.059226990E0,-7.561319470E-1
7.220966306E0,-2.330609322E0,-9.068798065E0,-7.752745152E-1
7.225721827E0,-2.321038008E0,-9.075976372E0,-7.992027402E-1
7.230477348E0,-2.309073925E0,-9.078369141E0,-7.992027402E-1
7.235232869E0,-2.287538528E0,-9.040083885E0,-7.896314859E-1
7.239988389E0,-2.297109842E0,-9.042476654E0,-7.585247755E-1
7.244743910E0,-2.306680918E0,-9.018548965E0,-7.034898400E-1
7.249499431E0,-2.316252232E0,-9.016156197E0,-6.460621357E-1
7.254254952E0,-2.325823545E0,-9.020941734E0,-5.934200287E-1
7.259010473E0,-2.323430777E0,-9.042476654E0,-5.288137794E-1
7.263765994E0,-2.313859463E0,-9.075976372E0,-4.881358147E-1
7.268521514E0,-2.330609322E0,-9.126225471E0,-4.737788737E-1
7.273277035E0,-2.366501570E0,-9.176474571E0,-4.618147612E-1
7.278032556E0,-2.380858421E0,-9.200403214E0,-4.689932466E-1
7.282788077E0,-2.421536446E0,-9.212367058E0,-5.024927258E-1
7.287543598E0,-2.464607239E0,-9.195617676E0,-5.335994363E-1
7.292299119E0,-2.502892494E0,-9.183652878E0,-5.670989752E-1
7.297054639E0,-2.512463808E0,-9.154939651E0,-5.958128572E-1
7.301810160E0,-2.543570518E0,-9.099904060E0,-6.221339107E-1
7.306565681E0,-2.538784742E0,-9.087940216E0,-6.053841114E-1
7.311321202E0,-2.550748825E0,-9.066405296E0,-5.647061467E-1
7.316076671E0,-2.519642353E0,-9.044869423E0,-5.264210105E-1
7.320832192E0,-2.483749866E0,-9.001798630E0,-4.881358147E-1
7.325587712E0,-2.447857618E0,-8.968298912E0,-4.378865361E-1
7.330343233E0,-2.419143677E0,-8.958727837E0,-3.924229145E-1
7.335098754E0,-2.385644197E0,-8.961120605E0,-3.302095234E-1
7.339854275E0,-2.340180635E0,-8.980263710E0,-2.967100143E-1
7.344609796E0,-2.299502611E0,-8.999405861E0,-2.297109663E-1
7.349365317E0,-2.273181438E0,-9.044869423E0,-1.603191197E-1
7.354120837E0,-2.244467735E0,-9.078369141E0,-1.124626622E-1
7.358876358E0,-2.242074728E0,-9.111868858E0,-7.417750359E-2
7.363631879E0,-2.237289190E0,-9.152546883E0,-3.110669367E-2
7.368387400E0,-2.206182480E0,-9.138189316E0,-4.785645287E-3
7.373142921E0,-2.191825628E0,-9.111868858E0,1.674975827E-2
7.377898442E0,-2.191825628E0,-9.078369141E0,2.392822690E-2
7.382653962E0,-2.158325911E0,-9.035298347E0,4.785645381E-2
7.387409483E0,-2.136790514E0,-8.997013092E0,7.657032460E-2
7.392165004E0,-2.108076811E0,-8.956335068E0,7.657032460E-2
7.396920525E0,-2.060220242E0,-8.956335068E0,9.092725813E-2
7.401676046E0,-2.033899307E0,-8.937192917E0,8.135596663E-2
7.406431567E0,-2.021935225E0,-8.949156761E0,8.374879509E-2
7.411187087E0,-1.962114573E0,-8.973084450E0,5.503492057E-2
7.415942608E0,-1.940579176E0,-8.994620323E0,2.632104978E-2
7.420698129E0,-1.887937069E0,-9.037691116E0,-2.392822690E-2
7.425453598E0,-1.840080619E0,-9.073583603E0,-6.699903309E-2
7.430209119E0,-1.830509305E0,-9.095118523E0,-1.244267747E-1
7.434964639E0,-1.801795483E0,-9.131011009E0,-1.746760458E-1
7.439720160E0,-1.780260086E0,-9.162117958E0,-2.177468538E-1
7.444475681E0,-1.811366796E0,-9.131011009E0,-2.536391914E-1
7.449231202E0,-1.816152334E0,-9.126225471E0,-2.799602449E-1
7.453986723E0,-1.797009826E0,-9.107083321E0,-3.254238665E-1
7.458742244E0,-1.799402595E0,-9.090332985E0,-2.943171859E-1
7.463497764E0,-1.804188251E0,-9.087940216E0,-2.799602449E-1
7.468253285E0,-1.832902193E0,-9.071190834E0,-2.536391914E-1
7.473008806E0,-1.837687731E0,-9.078369141E0,-2.344966233E-1
7.477764327E0,-1.864008784E0,-9.071190834E0,-2.105683982E-1
7.482519848E0,-1.871187329E0,-9.085547447E0,-1.651047617E-1
7.487275369E0,-1.887937069E0,-9.068798065E0,-1.531406492E-1
7.492030889E0,-1.921436548E0,-9.052047729E0,-1.292124242E-1
7.496786410E0,-1.942971945E0,-9.052047729E0,-9.571290761E-2
7.501541931E0,-1.974078655E0,-9.059226990E0,-7.896314561E-2
7.506297452E0,-2.002792597E0,-9.040083885E0,-7.657032460E-2
7.511052973E0,-2.024327993E0,-9.016156197E0,-4.307080805E-2
7.515808494E0,-2.053041935E0,-9.011369705E0,-9.571290575E-3
7.520564014E0,-2.079362869E0,-9.018548965E0,-2.392822690E-2
7.525319535E0,-2.084148407E0,-9.018548965E0,-1.435693540E-2
7.530075004E0,-2.108076811E0,-9.008976936E0,-1.196411345E-2
7.534830525E0,-2.139183521E0,-9.030512810E0,-1.914258115E-2
7.539586046E0,-2.160718918E0,-9.008976936E0,-2.632104978E-2
7.544341567E0,-2.172683001E0,-8.980263710E0,-4.067798331E-2
7.549097087E0,-2.163111687E0,-8.951549530E0,-4.307080805E-2
7.553852608E0,-2.172683001E0,-8.913264275E0,-5.024927482E-2
7.558608129E0,-2.182254314E0,-8.922835350E0,-4.307080805E-2
7.563363650E0,-2.194218397E0,-8.886942863E0,-3.110669367E-2
7.568119171E0,-2.206182480E0,-8.851051331E0,-1.435693540E-2
7.572874692E0,-2.218146563E0,-8.863015175E0,-7.178467698E-3
7.577630212E0,-2.220539331E0,-8.851051331E0,7.178467698E-3
7.582385733E0,-2.215753794E0,-8.843872070E0,4.546362907E-2
7.587141254E0,-2.208575249E0,-8.848658562E0,5.024927482E-2
7.591896775E0,-2.194218397E0,-8.877371788E0,5.503492057E-2
7.596652296E0,-2.167897224E0,-8.906085968E0,4.546362907E-2
7.601407817E0,-2.160718918E0,-8.908478737E0,2.153540403E-2
7.606163337E0,-2.165504456E0,-8.894122124E0,2.153540403E-2
7.610918858E0,-2.163111687E0,-8.922835350E0,9.571290575E-3
7.615674327E0,-2.167897224E0,-8.925228119E0,-2.871387079E-2
7.620429848E0,-2.172683001E0,-8.941978455E0,-3.589234129E-2
7.625185369E0,-2.189432621E0,-8.918049812E0,-4.067798331E-2
7.629940889E0,-2.201396942E0,-8.908478737E0,-5.503492057E-2
7.634696410E0,-2.208575249E0,-8.910871506E0,-6.699903309E-2
7.639451931E0,-2.215753794E0,-8.903693199E0,-5.503492057E-2
7.644207452E0,-2.232503414E0,-8.898907661E0,-4.307080805E-2
7.648962973E0,-2.220539331E0,-8.901300430E0,-3.589234129E-2
7.653718494E0,-2.232503414E0,-8.889336586E0,-4.067798331E-2
7.658474014E0,-2.242074728E0,-8.889336586E0,-9.571290575E-3
7.663229535E0,-2.218146563E0,-8.870193481E0,-2.392822644E-3
7.667985056E0,-2.232503414E0,-8.831908226E0,2.632104978E-2
7.672740577E0,-2.220539331E0,-8.829515457E0,1.914258115E-2
7.677496098E0,-2.218146563E0,-8.796015739E0,9.571290575E-3
7.682251619E0,-2.218146563E0,-8.788837433E0,2.153540403E-2
7.687007139E0,-2.215753794E0,-8.774480820E0,3.828516230E-2
7.691762608E0,-2.201396942E0,-8.774480820E0,9.571290575E-3
7.696518129E0,-2.194218397E0,-8.779266357E0,-2.392822644E-3
7.701273650E0,-2.182254314E0,-8.774480820E0,-2.871387079E-2
7.706029171E0,-2.177468538E0,-8.774480820E0,-4.307080805E-2
7.710784692E0,-2.160718918E0,-8.784051895E0,-8.374879509E-2
7.715540212E0,-2.151147604E0,-8.745766640E0,-1.052841991E-1
7.720295733E0,-2.153540373E0,-8.752944946E0,-1.339980662E-1
7.725051254E0,-2.158325911E0,-8.767302513E0,-1.196411327E-1
7.729806775E0,-2.163111687E0,-8.788837433E0,-1.268195957E-1
7.734562296E0,-2.163111687E0,-8.796015739E0,-1.196411327E-1
7.739317817E0,-2.196611166E0,-8.798408508E0,-1.100698411E-1
7.744073337E0,-2.201396942E0,-8.817551613E0,-1.076770201E-1
7.748828858E0,-2.215753794E0,-8.839086533E0,-1.004985496E-1
7.753584379E0,-2.208575249E0,-8.858229637E0,-6.460621208E-2
7.758339848E0,-2.230110645E0,-8.865407944E0,-3.589234129E-2
7.763095369E0,-2.239681959E0,-8.867800713E0,-9.571290575E-3
7.767850889E0,-2.222932339E0,-8.884550095E0,4.785645287E-3
7.772606410E0,-2.232503414E0,-8.858229637E0,2.632104978E-2
7.777361931E0,-2.230110645E0,-8.827122688E0,5.264209956E-2
7.782117452E0,-2.246860504E0,-8.810373306E0,7.178468257E-2
7.786872973E0,-2.230110645E0,-8.762516975E0,5.264209956E-2
7.791628494E0,-2.218146563E0,-8.721838951E0,5.982056633E-2
7.796384014E0,-2.218146563E0,-8.673981667E0,4.546362907E-2
7.801139535E0,-2.234896421E0,-8.650053978E0,4.546362907E-2
7.805895056E0,-2.234896421E0,-8.621339798E0,5.264209956E-2
7.810650577E0,-2.230110645E0,-8.626125336E0,4.785645381E-2
7.815406098E0,-2.249253273E0,-8.621339798E0,4.546362907E-2
7.820161619E0,-2.232503414E0,-8.623732567E0,5.503492057E-2
7.824917087E0,-2.213361025E0,-8.657232285E0,5.742774159E-2
7.829672608E0,-2.239681959E0,-8.697910309E0,5.742774159E-2
7.834428129E0,-2.239681959E0,-8.724231720E0,4.546362907E-2
7.839183650E0,-2.244467735E0,-8.781659126E0,5.024927482E-2
7.843939171E0,-2.237289190E0,-8.805587769E0,2.632104978E-2
7.848694692E0,-2.258824587E0,-8.810373306E0,1.435693540E-2
7.853450212E0,-2.268395901E0,-8.834300995E0,-9.571290575E-3
7.858205733E0,-2.275574446E0,-8.831908226E0,-2.632104978E-2
7.862961254E0,-2.297109842E0,-8.819944382E0,-3.589234129E-2
7.867716775E0,-2.342573404E0,-8.793622971E0,-7.417750359E-2
7.872472296E0,-2.373680115E0,-8.800801277E0,-8.853443712E-2
7.877227817E0,-2.411965132E0,-8.781659126E0,-1.148554832E-1
7.881983337E0,-2.419143677E0,-8.798408508E0,-1.603191197E-1
7.886738858E0,-2.464607239E0,-8.757730484E0,-1.531406492E-1
7.891494327E0,-2.467000246E0,-8.743373871E0,-1.842473447E-1
7.896249848E0,-2.498106956E0,-8.738588333E0,-2.153540403E-1
7.901005369E0,-2.531606436E0,-8.724231720E0,-2.273181528E-1
7.905760889E0,-2.529213428E0,-8.731410027E0,-2.249253243E-1
7.910516410E0,-2.507678032E0,-8.731410027E0,-2.297109663E-1
7.915271931E0,-2.519642353E0,-8.729017258E0,-2.488535494E-1
7.920027452E0,-2.507678032E0,-8.729017258E0,-2.344966233E-1
7.924782973E0,-2.467000246E0,-8.712266922E0,-2.225325108E-1
7.929538494E0,-2.467000246E0,-8.719446182E0,-2.225325108E-1
7.934294014E0,-2.447857618E0,-8.719446182E0,-2.153540403E-1
7.939049535E0,-2.409572363E0,-8.724231720E0,-1.962114573E-1
7.943805004E0,-2.400001049E0,-8.717052460E0,-2.009970993E-1
7.948560525E0,-2.402393818E0,-8.726624489E0,-1.914258152E-1
7.953316046E0,-2.390429735E0,-8.750552177E0,-2.057827413E-1
7.958071567E0,-2.356930256E0,-8.731410027E0,-1.818545163E-1
7.962827087E0,-2.376072884E0,-8.740981102E0,-1.722832322E-1
7.967582608E0,-2.342573404E0,-8.748159409E0,-1.603191197E-1
7.972338129E0,-2.323430777E0,-8.767302513E0,-1.914258152E-1
7.977093650E0,-2.337787628E0,-8.791230202E0,-1.914258152E-1
7.981849171E0,-2.328216314E0,-8.805587769E0,-1.698904037E-1
7.986604692E0,-2.316252232E0,-8.805587769E0,-1.818545163E-1
7.991360212E0,-2.321038008E0,-8.800801277E0,-1.986042857E-1
7.996115681E0,-2.318645239E0,-8.791230202E0,-2.105683982E-1
8.000871202E0,-2.328216314E0,-8.812766075E0,-2.249253243E-1
8.005626723E0,-2.359323025E0,-8.807980537E0,-2.416750938E-1
8.010382244E0,-2.361716032E0,-8.800801277E0,-2.488535494E-1
8.015137764E0,-2.373680115E0,-8.796015739E0,-2.416750938E-1
8.019893285E0,-2.390429735E0,-8.791230202E0,-2.440679073E-1
8.024648806E0,-2.404786825E0,-8.784051895E0,-2.440679073E-1
8.029404327E0,-2.402393818E0,-8.779266357E0,-2.344966233E-1
8.034159848E0,-2.421536446E0,-8.786444664E0,-2.201396823E-1
8.038915369E0,-2.397608280E0,-8.762516975E0,-2.177468538E-1
8.043670837E0,-2.409572363E0,-8.779266357E0,-1.627119333E-1
8.048426358E0,-2.433500528E0,-8.745766640E0,-1.483550072E-1
8.053181879E0,-2.423929453E0,-8.774480820E0,-1.387837082E-1
8.057937400E0,-2.431107759E0,-8.752944946E0,-1.124626622E-1
8.062692921E0,-2.423929453E0,-8.781659126E0,-8.374879509E-2
8.067448442E0,-2.402393818E0,-8.803194046E0,-4.067798331E-2
8.072203962E0,-2.409572363E0,-8.827122688E0,-3.589234129E-2
8.076959483E0,-2.409572363E0,-8.848658562E0,-2.392822690E-2
8.081715004E0,-2.416750908E0,-8.839086533E0,9.571290575E-3
8.086470473E0,-2.409572363E0,-8.839086533E0,2.871387079E-2
8.091225994E0,-2.433500528E0,-8.839086533E0,5.264209956E-2
8.095981514E0,-2.426322222E0,-8.836693764E0,4.307080805E-2
8.100737035E0,-2.455035925E0,-8.867800713E0,5.982056633E-2
8.105492556E0,-2.459821701E0,-8.870193481E0,5.024927482E-2
8.110248077E0,-2.471785784E0,-8.879764557E0,7.657032460E-2
8.115003598E0,-2.493321180E0,-8.848658562E0,7.178468257E-2
8.119759119E0,-2.495713949E0,-8.846264839E0,5.024927482E-2
8.124514639E0,-2.483749866E0,-8.841479301E0,7.657032460E-2
8.129270108E0,-2.490928411E0,-8.815158844E0,5.742774159E-2
8.134025629E0,-2.469393015E0,-8.793622971E0,2.153540403E-2
8.138781150E0,-2.474178553E0,-8.752944946E0,-1.435693540E-2
8.143536671E0,-2.490928411E0,-8.707481384E0,-2.871387079E-2
8.148292192E0,-2.431107759E0,-8.709874153E0,-7.657032460E-2
8.153047712E0,-2.426322222E0,-8.705088615E0,-8.614161611E-2
8.157803233E0,-2.431107759E0,-8.702695847E0,-8.614161611E-2
8.162558754E0,-2.397608280E0,-8.697910309E0,-1.100698411E-1
8.167314275E0,-2.390429735E0,-8.693124771E0,-9.092725813E-2
8.172069744E0,-2.368894339E0,-8.709874153E0,-1.100698411E-1
8.176825264E0,-2.366501570E0,-8.712266922E0,-1.004985496E-1
8.181580785E0,-2.333002090E0,-8.724231720E0,-9.332008660E-2
8.186336306E0,-2.311466694E0,-8.719446182E0,-7.178468257E-2
8.191091827E0,-2.301895380E0,-8.733802795E0,-5.982056633E-2
8.195847348E0,-2.258824587E0,-8.733802795E0,-6.939185411E-2
8.200602869E0,-2.232503414E0,-8.733802795E0,-4.546362907E-2
8.205358389E0,-2.182254314E0,-8.726624489E0,-1.435693540E-2
8.210113910E0,-2.175075769E0,-8.748159409E0,-2.871387079E-2
8.214869379E0,-2.148754835E0,-8.774480820E0,-1.914258115E-2
8.219624900E0,-2.148754835E0,-8.750552177E0,-2.392822644E-3
8.224380421E0,-2.170290232E0,-8.743373871E0,1.674975827E-2
8.229135942E0,-2.194218397E0,-8.740981102E0,2.871387079E-2
8.233891462E0,-2.201396942E0,-8.748159409E0,3.828516230E-2
8.238646983E0,-2.218146563E0,-8.736195564E0,2.632104978E-2
8.243402504E0,-2.230110645E0,-8.748159409E0,9.571290575E-3
8.248158025E0,-2.273181438E0,-8.724231720E0,-4.785645287E-3
8.252913494E0,-2.301895380E0,-8.738588333E0,-2.871387079E-2
8.257669014E0,-2.323430777E0,-8.743373871E0,-2.632104978E-2
8.262424535E0,-2.366501570E0,-8.748159409E0,-5.024927482E-2
8.267180056E0,-2.380858421E0,-8.781659126E0,-5.742774159E-2
8.271935577E0,-2.404786825E0,-8.786444664E0,-6.699903309E-2
8.276691098E0,-2.423929453E0,-8.798408508E0,-7.896314561E-2
8.281446567E0,-2.445464849E0,-8.793622971E0,-7.896314561E-2
8.286202087E0,-2.443071842E0,-8.812766075E0,-8.614161611E-2
8.290957608E0,-2.476571321E0,-8.805587769E0,-9.571290761E-2
8.295713129E0,-2.447857618E0,-8.784051895E0,-1.004985496E-1
8.300468650E0,-2.469393015E0,-8.772088051E0,-1.220339537E-1
8.305224171E0,-2.464607239E0,-8.764909744E0,-1.244267747E-1
8.309979692E0,-2.433500528E0,-8.760123253E0,-1.196411327E-1
8.314735212E0,-2.402393818E0,-8.726624489E0,-1.268195957E-1
8.319490681E0,-2.349751949E0,-8.719446182E0,-1.292124242E-1
8.324246202E0,-2.325823545E0,-8.733802795E0,-1.292124242E-1
8.329001723E0,-2.287538528E0,-8.721838951E0,-1.052841991E-1
8.333757244E0,-2.261217356E0,-8.717052460E0,-1.292124242E-1
8.338512764E0,-2.230110645E0,-8.721838951E0,-1.244267747E-1
8.343268285E0,-2.208575249E0,-8.724231720E0,-1.004985496E-1
8.348023806E0,-2.206182480E0,-8.714659691E0,-1.004985496E-1
8.352779327E0,-2.208575249E0,-8.736195564E0,-8.135596663E-2
8.357534796E0,-2.220539331E0,-8.800801277E0,-9.092725813E-2
8.362290317E0,-2.213361025E0,-8.798408508E0,-5.503492057E-2
8.367045837E0,-2.249253273E0,-8.812766075E0,-4.307080805E-2
8.371801358E0,-2.268395901E0,-8.815158844E0,-2.392822690E-2
8.376556879E0,-2.261217356E0,-8.834300995E0,-1.914258115E-2
8.381312400E0,-2.297109842E0,-8.846264839E0,-7.178467698E-3
8.386067869E0,-2.321038008E0,-8.843872070E0,-9.571290575E-3
8.390823389E0,-2.378465652E0,-8.817551613E0,-3.589234129E-2
8.395578910E0,-2.383251429E0,-8.812766075E0,-4.067798331E-2
8.400334431E0,-2.407179594E0,-8.798408508E0,-5.264209956E-2
8.405089952E0,-2.455035925E0,-8.798408508E0,-5.982056633E-2
8.409845473E0,-2.464607239E0,-8.786444664E0,-6.699903309E-2
8.414600994E0,-2.478964329E0,-8.796015739E0,-7.178468257E-2
8.419356462E0,-2.500499725E0,-8.805587769E0,-5.503492057E-2
8.424111983E0,-2.514856577E0,-8.805587769E0,-5.024927482E-2
8.428867504E0,-2.531606436E0,-8.793622971E0,-3.349951655E-2
8.433623025E0,-2.512463808E0,-8.776873589E0,-1.914258115E-2
8.438378546E0,-2.502892494E0,-8.784051895E0,2.392822644E-3
8.443134067E0,-2.512463808E0,-8.793622971E0,2.871387079E-2
8.447889535E0,-2.522035122E0,-8.791230202E0,3.828516230E-2
8.452645056E0,-2.502892494E0,-8.781659126E0,5.024927482E-2
8.457400577E0,-2.455035925E0,-8.805587769E0,4.546362907E-2
8.462156098E0,-2.431107759E0,-8.743373871E0,2.871387079E-2
8.466911619E0,-2.409572363E0,-8.731410027E0,1.674975827E-2
8.471667139E0,-2.400001049E0,-8.702695847E0,-9.571290575E-3
8.476422660E0,-2.392822742E0,-8.681160927E0,-1.914258115E-2
8.481178129E0,-2.347358942E0,-8.688339233E0,-5.264209956E-2
8.485933650E0,-2.309073925E0,-8.669196129E0,-7.657032460E-2
8.490689171E0,-2.306680918E0,-8.659625053E0,-8.374879509E-2
8.495444692E0,-2.282752752E0,-8.685946465E0,-1.148554832E-1
8.500200212E0,-2.273181438E0,-8.695517540E0,-1.052841991E-1
8.504955733E0,-2.258824587E0,-8.721838951E0,-1.196411327E-1
8.509711202E0,-2.258824587E0,-8.740981102E0,-1.124626622E-1
8.514466723E0,-2.251646042E0,-8.772088051E0,-1.100698411E-1
8.519222244E0,-2.304288149E0,-8.791230202E0,-1.004985496E-1
8.523977764E0,-2.342573404E0,-8.817551613E0,-1.028913707E-1
8.528733285E0,-2.388036966E0,-8.839086533E0,-8.614161611E-2
8.533488806E0,-2.426322222E0,-8.870193481E0,-7.178468257E-2
8.538244275E0,-2.459821701E0,-8.886942863E0,-6.939185411E-2
8.542999796E0,-2.450250387E0,-8.894122124E0,-5.264209956E-2
8.547755317E0,-2.471785784E0,-8.874979019E0,-5.982056633E-2
8.552510837E0,-2.474178553E0,-8.863015175E0,-6.939185411E-2
8.557266358E0,-2.476571321E0,-8.865407944E0,-7.178468257E-2
8.562021879E0,-2.483749866E0,-8.855836868E0,-8.853443712E-2
8.566777348E0,-2.459821701E0,-8.841479301E0,-8.135596663E-2
8.571532869E0,-2.478964329E0,-8.810373306E0,-1.004985496E-1
8.576288389E0,-2.452643156E0,-8.827122688E0,-1.196411327E-1
8.581043910E0,-2.452643156E0,-8.810373306E0,-1.124626622E-1
8.585799431E0,-2.476571321E0,-8.812766075E0,-1.316052526E-1
8.590554900E0,-2.471785784E0,-8.791230202E0,-1.363908947E-1
8.595310421E0,-2.457428932E0,-8.800801277E0,-1.387837082E-1
8.600065942E0,-2.452643156E0,-8.815158844E0,-1.339980662E-1
8.604821462E0,-2.452643156E0,-8.853444099E0,-1.220339537E-1
8.609576983E0,-2.438286304E0,-8.860622406E0,-1.220339537E-1
8.614332504E0,-2.433500528E0,-8.882157326E0,-1.316052526E-1
8.619087973E0,-2.423929453E0,-8.879764557E0,-1.076770201E-1
8.623843494E0,-2.440679073E0,-8.877371788E0,-1.172483116E-1
8.628599014E0,-2.416750908E0,-8.874979019E0,-1.100698411E-1
8.633354535E0,-2.421536446E0,-8.872586250E0,-9.571290761E-2
8.638110056E0,-2.428714991E0,-8.884550095E0,-1.220339537E-1
8.642865577E0,-2.440679073E0,-8.877371788E0,-1.196411327E-1
8.647621046E0,-2.450250387E0,-8.867800713E0,-1.148554832E-1
8.652376567E0,-2.476571321E0,-8.870193481E0,-1.172483116E-1
8.657132087E0,-2.488535643E0,-8.860622406E0,-9.332008660E-2
8.661887608E0,-2.514856577E0,-8.848658562E0,-9.092725813E-2
8.666643129E0,-2.538784742E0,-8.846264839E0,-9.332008660E-2
8.671398598E0,-2.555534601E0,-8.865407944E0,-8.853443712E-2
8.676154119E0,-2.562713146E0,-8.870193481E0,-9.571290761E-2
8.680909639E0,-2.560320139E0,-8.863015175E0,-9.092725813E-2
8.685665160E0,-2.579462767E0,-8.865407944E0,-9.332008660E-2
8.690420681E0,-2.548356056E0,-8.882157326E0,-1.100698411E-1
8.695176150E0,-2.524427891E0,-8.889336586E0,-1.148554832E-1
8.699931671E0,-2.498106956E0,-8.925228119E0,-1.196411327E-1
8.704687192E0,-2.476571321E0,-8.920442581E0,-1.052841991E-1
8.709442712E0,-2.490928411E0,-8.930013657E0,-1.196411327E-1
8.714198181E0,-2.481357098E0,-8.934800148E0,-1.363908947E-1
8.718953702E0,-2.483749866E0,-8.927620888E0,-1.363908947E-1
8.723709223E0,-2.486142635E0,-8.949156761E0,-1.268195957E-1
8.728464744E0,-2.507678032E0,-8.949156761E0,-1.316052526E-1
8.733220264E0,-2.519642353E0,-8.949156761E0,-1.363908947E-1
8.737975785E0,-2.500499725E0,-8.968298912E0,-1.483550072E-1
8.742731254E0,-2.490928411E0,-8.975478172E0,-1.579262912E-1
8.747486775E0,-2.464607239E0,-8.994620323E0,-1.746760458E-1
8.752242296E0,-2.471785784E0,-8.989834785E0,-2.105683982E-1
8.756997817E0,-2.476571321E0,-9.020941734E0,-2.368894368E-1
8.761753285E0,-2.486142635E0,-9.020941734E0,-2.727817893E-1
8.766508806E0,-2.486142635E0,-9.028120041E0,-3.086741269E-1
8.771264327E0,-2.483749866E0,-9.059226990E0,-3.254238665E-1
8.776019848E0,-2.476571321E0,-9.052047729E0,-3.469592929E-1
8.780775369E0,-2.488535643E0,-9.044869423E0,-3.445664644E-1
8.785530837E0,-2.498106956E0,-9.047262192E0,-3.421736360E-1
8.790286358E0,-2.505285263E0,-9.040083885E0,-3.302095234E-1
8.795041879E0,-2.510071039E0,-9.025727272E0,-3.086741269E-1
8.799797400E0,-2.498106956E0,-9.013762474E0,-2.871387303E-1
8.804552921E0,-2.490928411E0,-8.973084450E0,-2.608176768E-1
8.809308389E0,-2.488535643E0,-8.992227554E0,-2.344966233E-1
8.814063910E0,-2.476571321E0,-8.968298912E0,-2.392822653E-1
8.818819431E0,-2.478964329E0,-8.968298912E0,-2.057827413E-1
8.823574952E0,-2.469393015E0,-8.968298912E0,-2.033899277E-1
8.828330473E0,-2.459821701E0,-8.968298912E0,-1.890329868E-1
8.833085942E0,-2.447857618E0,-8.939585686E0,-1.770688742E-1
8.837841462E0,-2.459821701E0,-8.949156761E0,-1.531406492E-1
8.842596983E0,-2.462214470E0,-8.977870941E0,-1.531406492E-1
8.847352504E0,-2.443071842E0,-8.973084450E0,-1.435693651E-1
8.852107973E0,-2.464607239E0,-8.997013092E0,-1.459621787E-1
8.856863494E0,-2.443071842E0,-9.020941734E0,-1.363908947E-1
8.861619014E0,-2.428714991E0,-9.020941734E0,-1.244267747E-1
8.866374535E0,-2.423929453E0,-9.030512810E0,-1.316052526E-1
8.871130004E0,-2.419143677E0,-9.025727272E0,-1.531406492E-1
8.875885525E0,-2.423929453E0,-9.032905579E0,-1.746760458E-1
8.880641046E0,-2.421536446E0,-9.035298347E0,-1.722832322E-1
8.885396567E0,-2.376072884E0,-9.032905579E0,-1.722832322E-1
8.890152087E0,-2.397608280E0,-9.004191399E0,-1.722832322E-1
8.894907556E0,-2.397608280E0,-8.963513374E0,-1.603191197E-1
8.899663077E0,-2.392822742E0,-8.956335068E0,-1.627119333E-1
8.904418598E0,-2.388036966E0,-8.939585686E0,-1.579262912E-1
8.909174119E0,-2.390429735E0,-8.920442581E0,-1.531406492E-1
8.913929587E0,-2.373680115E0,-8.913264275E0,-1.435693651E-1
8.918685108E0,-2.364108801E0,-8.937192917E0,-1.268195957E-1
8.923440629E0,-2.361716032E0,-8.949156761E0,-1.148554832E-1
8.928196150E0,-2.356930256E0,-8.968298912E0,-1.004985496E-1
8.932951671E0,-2.352144718E0,-9.011369705E0,-1.244267747E-1
8.937707139E0,-2.340180635E0,-9.008976936E0,-1.268195957E-1
8.942462660E0,-2.359323025E0,-9.047262192E0,-1.483550072E-1
8.947218181E0,-2.359323025E0,-9.071190834E0,-1.627119333E-1
8.951973702E0,-2.347358942E0,-9.061619759E0,-1.938186288E-1
8.956729171E0,-2.347358942E0,-9.056833267E0,-2.177468538E-1
8.961484692E0,-2.378465652E0,-9.037691116E0,-2.512463629E-1
8.966240212E0,-2.380858421E0,-9.044869423E0,-2.703889608E-1
8.970995733E0,-2.395215511E0,-9.044869423E0,-3.110669553E-1
8.975751202E0,-2.392822742E0,-9.040083885E0,-3.326023519E-1
8.980506723E0,-2.419143677E0,-9.078369141E0,-3.278166950E-1
8.985262244E0,-2.435893536E0,-9.123832703E0,-3.469592929E-1
8.990017764E0,-2.450250387E0,-9.150154114E0,-3.589234054E-1
8.994773233E0,-2.455035925E0,-9.162117958E0,-3.708875179E-1
8.999528754E0,-2.450250387E0,-9.166903496E0,-3.684946895E-1
9.004284275E0,-2.457428932E0,-9.171689034E0,-3.804588020E-1
9.009039796E0,-2.469393015E0,-9.164510727E0,-3.732803464E-1
9.013795264E0,-2.481357098E0,-9.142974854E0,-3.852444589E-1
9.018550785E0,-2.483749866E0,-9.138189316E0,-3.732803464E-1
9.023306306E0,-2.490928411E0,-9.138189316E0,-3.541377485E-1
9.028061775E0,-2.500499725E0,-9.126225471E0,-3.541377485E-1
9.032817296E0,-2.483749866E0,-9.119047165E0,-3.469592929E-1
9.037572817E0,-2.488535643E0,-9.131011009E0,-3.421736360E-1
9.042328337E0,-2.476571321E0,-9.135796547E0,-3.254238665E-1
9.047083858E0,-2.474178553E0,-9.150154114E0,-3.421736360E-1
9.051839327E0,-2.452643156E0,-9.186046600E0,-3.373879790E-1
9.056594848E0,-2.443071842E0,-9.193224907E0,-3.517449200E-1
9.061350369E0,-2.426322222E0,-9.212367058E0,-3.732803464E-1
9.066105889E0,-2.411965132E0,-9.205188751E0,-3.756731451E-1
9.070861358E0,-2.411965132E0,-9.176474571E0,-3.828516304E-1
9.075616879E0,-2.402393818E0,-9.166903496E0,-3.900300860E-1
9.080372400E0,-2.407179594E0,-9.178867340E0,-4.115654826E-1
9.085127921E0,-2.397608280E0,-9.164510727E0,-4.259224236E-1
9.089883389E0,-2.376072884E0,-9.166903496E0,-4.354937077E-1
9.094638910E0,-2.366501570E0,-9.181260109E0,-4.426721931E-1
9.099394431E0,-2.364108801E0,-9.178867340E0,-4.450650215E-1
9.104149900E0,-2.385644197E0,-9.183652878E0,-4.450650215E-1
9.108905421E0,-2.390429735E0,-9.200403214E0,-4.785645306E-1
9.113660942E0,-2.414358139E0,-9.205188751E0,-4.977070987E-1
9.118416462E0,-2.438286304E0,-9.205188751E0,-5.000999570E-1
9.123171931E0,-2.443071842E0,-9.214759827E0,-5.072783828E-1
9.127927452E0,-2.483749866E0,-9.217152596E0,-5.096712112E-1
9.132682973E0,-2.500499725E0,-9.212367058E0,-5.264210105E-1
9.137438494E0,-2.522035122E0,-9.178867340E0,-5.216353536E-1
9.142193962E0,-2.502892494E0,-9.140582085E0,-5.216353536E-1
9.146949483E0,-2.536391973E0,-9.102297783E0,-5.096712112E-1
9.151705004E0,-2.545963287E0,-9.092725754E0,-4.905286431E-1
9.156460525E0,-2.550748825E0,-9.071190834E0,-4.666004181E-1
9.161215994E0,-2.560320139E0,-9.044869423E0,-4.235295951E-1
9.165971514E0,-2.586641312E0,-9.040083885E0,-3.804588020E-1
9.170727035E0,-2.593819857E0,-9.016156197E0,-3.302095234E-1
9.175482504E0,-2.617748022E0,-8.994620323E0,-2.751746178E-1
9.180238025E0,-2.629712105E0,-8.968298912E0,-2.201396823E-1
9.184993546E0,-2.634497643E0,-8.946763992E0,-1.938186288E-1
9.189749067E0,-2.665604353E0,-8.970691681E0,-1.603191197E-1
9.194504535E0,-2.699103832E0,-8.953942299E0,-1.411765367E-1
9.199260056E0,-2.715853691E0,-8.985049248E0,-1.172483116E-1
9.204015577E0,-2.723032236E0,-9.025727272E0,-1.172483116E-1
9.208771098E0,-2.739781857E0,-9.044869423E0,-1.244267747E-1
9.213526567E0,-2.746960402E0,-9.068798065E0,-1.292124242E-1
9.218282087E0,-2.749353170E0,-9.075976372E0,-1.507478207E-1
9.223037608E0,-2.754138947E0,-9.095118523E0,-1.938186288E-1
9.227793077E0,-2.751745939E0,-9.080761909E0,-2.057827413E-1
9.232548598E0,-2.770888567E0,-9.061619759E0,-2.273181528E-1
9.237304119E0,-2.773281336E0,-9.052047729E0,-2.871387303E-1
9.242059587E0,-2.773281336E0,-9.087940216E0,-3.182454109E-1
9.246815108E0,-2.790031195E0,-9.099904060E0,-3.469592929E-1
9.251570629E0,-2.773281336E0,-9.104690552E0,-3.852444589E-1
9.256326150E0,-2.780459881E0,-9.131011009E0,-4.115654826E-1
9.261081619E0,-2.804388046E0,-9.152546883E0,-4.307080805E-1
9.265837139E0,-2.782852650E0,-9.162117958E0,-4.163511395E-1
9.270592660E0,-2.768495798E0,-9.193224907E0,-4.331009090E-1
9.275348129E0,-2.754138947E0,-9.231510162E0,-4.259224236E-1
9.280103650E0,-2.739781857E0,-9.257830620E0,-4.522434771E-1
9.284859171E0,-2.720639229E0,-9.267401695E0,-4.450650215E-1
9.289614692E0,-2.711068153E0,-9.298508644E0,-4.594219327E-1
9.294370160E0,-2.694318295E0,-9.320044518E0,-4.450650215E-1
9.299125681E0,-2.667997360E0,-9.324830055E0,-4.689932466E-1
9.303881202E0,-2.648854733E0,-9.320044518E0,-4.426721931E-1
9.308636671E0,-2.591426849E0,-9.324830055E0,-4.618147612E-1
9.313392192E0,-2.584248543E0,-9.303294182E0,-4.474578202E-1
9.318147712E0,-2.529213428E0,-9.305686951E0,-4.618147612E-1
9.322903233E0,-2.502892494E0,-9.288937569E0,-4.522434771E-1
9.327658702E0,-2.464607239E0,-9.284152031E0,-4.737788737E-1
9.332414223E0,-2.452643156E0,-9.284152031E0,-4.881358147E-1
9.337169744E0,-2.428714991E0,-9.250652313E0,-4.857429862E-1
9.341925212E0,-2.433500528E0,-9.219545364E0,-4.809573591E-1
9.346680733E0,-2.428714991E0,-9.233902931E0,-5.024927258E-1
9.351436254E0,-2.400001049E0,-9.200403214E0,-4.833501875E-1
9.356191723E0,-2.409572363E0,-9.190832138E0,-4.809573591E-1
9.360947244E0,-2.407179594E0,-9.198010445E0,-4.331009090E-1
9.365702764E0,-2.416750908E0,-9.193224907E0,-4.426721931E-1
9.370458233E0,-2.416750908E0,-9.212367058E0,-4.067798555E-1
9.375213754E0,-2.409572363E0,-9.214759827E0,-3.828516304E-1
9.379969275E0,-2.414358139E0,-9.217152596E0,-3.780659735E-1
9.384724796E0,-2.397608280E0,-9.238688469E0,-3.637090325E-1
9.389480264E0,-2.411965132E0,-9.224330902E0,-3.445664644E-1
9.394235785E0,-2.409572363E0,-9.238688469E0,-3.589234054E-1
9.398991306E0,-2.433500528E0,-9.269794464E0,-3.469592929E-1
9.403746775E0,-2.445464849E0,-9.298508644E0,-3.613162339E-1
9.408502296E0,-2.421536446E0,-9.308079720E0,-3.637090325E-1
9.413257817E0,-2.443071842E0,-9.312865257E0,-3.613162339E-1
9.418013285E0,-2.462214470E0,-9.317651749E0,-3.661018610E-1
9.422768806E0,-2.471785784E0,-9.332008362E0,-3.852444589E-1
9.427524327E0,-2.512463808E0,-9.327222824E0,-4.115654826E-1
9.432279796E0,-2.526820660E0,-9.308079720E0,-4.283152521E-1
9.437035317E0,-2.550748825E0,-9.308079720E0,-4.259224236E-1
9.441790837E0,-2.572284460E0,-9.300901413E0,-4.594219327E-1
9.446546358E0,-2.610569477E0,-9.300901413E0,-4.713860750E-1
9.451301827E0,-2.636890650E0,-9.334401131E0,-4.713860750E-1
9.456057348E0,-2.648854733E0,-9.336793900E0,-4.953143001E-1
9.460812817E0,-2.648854733E0,-9.343972206E0,-4.761717021E-1
9.465568337E0,-2.667997360E0,-9.360722542E0,-4.689932466E-1
9.470323858E0,-2.689532757E0,-9.396614075E0,-4.474578202E-1
9.475079327E0,-2.701496840E0,-9.389435768E0,-4.402793646E-1
9.479834848E0,-2.684746981E0,-9.396614075E0,-4.354937077E-1
9.484590369E0,-2.679961443E0,-9.384650230E0,-4.307080805E-1
9.489345889E0,-2.706282377E0,-9.418149948E0,-4.043870270E-1
9.494101358E0,-2.701496840E0,-9.377471924E0,-4.043870270E-1
9.498856879E0,-2.696711063E0,-9.401400566E0,-4.019941986E-1
9.503612400E0,-2.651247501E0,-9.418149948E0,-3.780659735E-1
9.508367869E0,-2.636890650E0,-9.394221306E0,-3.732803464E-1
9.513123389E0,-2.624926329E0,-9.370293617E0,-3.661018610E-1
9.517878910E0,-2.615355253E0,-9.339186668E0,-3.756731451E-1
9.522634379E0,-2.574677229E0,-9.348757744E0,-3.804588020E-1
9.527389900E0,-2.545963287E0,-9.317651749E0,-3.756731451E-1
9.532145421E0,-2.543570518E0,-9.341579437E0,-3.780659735E-1
9.536900889E0,-2.560320139E0,-9.375079155E0,-3.876372576E-1
9.541656410E0,-2.553141832E0,-9.384650230E0,-4.091726840E-1
9.546411931E0,-2.548356056E0,-9.384650230E0,-4.115654826E-1
9.551167400E0,-2.524427891E0,-9.379864693E0,-4.019941986E-1
9.555922921E0,-2.529213428E0,-9.413364410E0,-4.402793646E-1
9.560678442E0,-2.536391973E0,-9.403793335E0,-4.546363056E-1
9.565433910E0,-2.543570518E0,-9.399007797E0,-4.761717021E-1
9.570189431E0,-2.533999205E0,-9.367900848E0,-4.809573591E-1
9.574944952E0,-2.545963287E0,-9.358329773E0,-5.048855543E-1
9.579700421E0,-2.529213428E0,-9.382257462E0,-5.096712112E-1
9.584455942E0,-2.541177750E0,-9.389435768E0,-5.120640397E-1
9.589211410E0,-2.541177750E0,-9.375079155E0,-5.096712112E-1
9.593966931E0,-2.550748825E0,-9.363115311E0,-4.929214716E-1
9.598722452E0,-2.543570518E0,-9.375079155E0,-4.809573591E-1
9.603477921E0,-2.574677229E0,-9.379864693E0,-4.546363056E-1
9.608233442E0,-2.557927370E0,-9.365508080E0,-4.211367965E-1
