"Time (s)","Acceleration x (m/s^2)","Acceleration y (m/s^2)","Acceleration z (m/s^2)"
1.279162000E-3,-5.146961689E0,3.162713289E0,7.414759159E0
6.055985000E-3,-5.023731232E0,3.217149973E0,7.408777237E0
1.083286000E-2,-4.557728767E0,3.294916868E0,7.435098171E0
1.560973500E-2,-3.937389612E0,3.397808075E0,7.710870743E0
2.038661000E-2,-3.268595695E0,3.528815269E0,8.220541954E0
2.515015200E-2,-2.660818815E0,3.635894060E0,8.894122124E0
2.994030800E-2,-2.190629244E0,3.723830223E0,9.500701904E0
3.471718300E-2,-1.899302959E0,3.772284985E0,9.816555023E0
3.948072500E-2,-1.747358680E0,3.811168194E0,9.753145218E0
4.427093300E-2,-1.721037745E0,3.821337700E0,9.431310654E0
4.904775600E-2,-1.747358680E0,3.830909014E0,9.023334503E0
5.382463100E-2,-1.953739643E0,3.700500250E0,8.611768723E0
5.860150600E-2,-2.088934183E0,3.574877024E0,8.238488197E0
6.337838100E-2,-2.161915302E0,3.608974695E0,7.969893932E0
6.815520400E-2,-2.314457655E0,3.709473372E0,8.057231903E0
7.293207900E-2,-2.594418049E0,3.588635683E0,8.111668587E0
7.770895400E-2,-2.684746981E0,3.453441381E0,8.006384850E0
8.248582900E-2,-2.651845694E0,3.448655605E0,7.968099594E0
8.726265200E-2,-2.494517565E0,3.564707518E0,8.087141991E0
9.203952700E-2,-2.327019930E0,3.594019651E0,8.301898003E0
9.681640200E-2,-2.063211441E0,3.507878065E0,8.531010628E0
1.015932770E-1,-1.733600020E0,3.494119167E0,8.740981102E0
1.063701000E-1,-1.551745534E0,3.465405464E0,8.927022934E0
1.111469750E-1,-1.412961721E0,3.528217077E0,9.117850304E0
1.159238500E-1,-1.393221021E0,3.427120209E0,9.165707588E0
1.207007250E-1,-1.302891970E0,3.249453068E0,9.069396019E0
1.254775480E-1,-1.116850019E0,3.109472990E0,9.040083885E0
1.302544230E-1,-7.914260626E-1,3.105285645E0,9.287740707E0
1.350312980E-1,-6.131607890E-1,3.394817114E0,9.896116257E0
1.397948390E-1,-6.424728632E-1,3.380460262E0,1.051525879E1
1.445849950E-1,-5.724828243E-1,3.230908871E0,1.094716358E1
1.493618700E-1,-5.186443329E-1,3.052045345E0,1.111047363E1
1.541254120E-1,-2.530409992E-1,2.889333248E0,1.098903847E1
1.589156200E-1,-3.469592705E-2,2.779263496E0,1.080538845E1
1.636924430E-1,7.836493850E-2,2.687737942E0,1.053141022E1
1.684693180E-1,2.667997181E-1,2.693121910E0,1.022812080E1
1.732461930E-1,8.973085135E-2,2.423331022E0,9.869196892E0
1.780230680E-1,-2.309073806E-1,1.599003673E0,9.238089561E0
1.827998910E-1,2.805584669E-1,1.802393675E0,8.856434822E0
1.875767660E-1,7.441678643E-1,2.473580360E0,8.839086533E0
1.923536410E-1,1.075573802E0,3.221337557E0,9.038289070E0
1.971171830E-1,1.407577872E0,3.814159393E0,9.059824944E0
2.019073910E-1,1.895115495E0,4.167100430E0,8.870193481E0
2.066842140E-1,2.406581402E0,4.342374802E0,8.550153732E0
2.114478080E-1,2.827120066E0,4.406383038E0,8.111668587E0
2.162379640E-1,3.233899832E0,4.243072987E0,7.673183918E0
2.210148390E-1,3.489931822E0,4.080360889E0,7.398009300E0
2.257783810E-1,3.535993576E0,3.964907169E0,7.071389198E0
2.305685370E-1,3.711866140E0,3.859622955E0,6.969694138E0
2.353454120E-1,3.755535126E0,3.714857101E0,7.051050186E0
2.401089540E-1,3.756133318E0,3.522234917E0,7.046862602E0
2.448991100E-1,3.714258909E0,3.170490026E0,6.994220734E0
2.496759850E-1,3.652045488E0,2.886342287E0,6.783652306E0
2.544528600E-1,3.751945972E0,3.248256683E0,7.003791809E0
2.592297350E-1,3.257229805E0,3.429512978E0,7.144968510E0
2.640065580E-1,2.348555326E0,3.032304525E0,6.896114826E0
2.687701520E-1,-1.197607756E0,2.807379246E0,5.777470112E0
2.735603080E-1,-3.646661758E0,2.729612350E0,5.180460930E0
2.783371830E-1,-3.092723370E0,2.465803623E0,5.303092957E0
2.831007250E-1,-1.878365755E0,2.112862349E0,5.301896572E0
2.878908810E-1,-6.987041831E-1,2.066800594E0,6.067600250E0
2.926677560E-1,8.811569214E-1,2.219342947E0,7.782655716E0
2.974312980E-1,3.500699520E0,2.245664120E0,6.617351055E0
3.022215060E-1,4.858626366E0,1.964507341E0,6.058028698E0
3.069983290E-1,4.722235680E0,1.607378602E0,6.832107067E0
3.117618700E-1,4.262813568E0,1.412961721E0,7.957331657E0
3.165520790E-1,4.100699902E0,1.407577872E0,8.687741280E0
3.213289540E-1,4.295714855E0,1.465603828E0,8.739784241E0
3.260924950E-1,4.370490551E0,1.547558069E0,8.575278282E0
3.308826520E-1,4.288536549E0,1.610369682E0,8.374280930E0
3.356595270E-1,3.925425529E0,1.797608018E0,8.179863930E0
3.404364020E-1,3.544966698E0,1.772483349E0,7.427919865E0
3.452132250E-1,3.397209883E0,1.580459356E0,6.426523209E0
3.499901000E-1,3.031108141E0,1.642074585E0,5.794219971E0
3.547536410E-1,2.744567633E0,1.429711580E0,5.517848969E0
3.595438500E-1,2.343769789E0,1.106082320E0,5.078167915E0
3.643207250E-1,2.011167526E0,8.494520187E-1,5.051248550E0
3.690842660E-1,1.826321840E0,4.157529473E-1,4.966303349E0
3.738744230E-1,1.473978758E0,-3.290131316E-2,4.622933388E0
3.786512980E-1,1.453639746E0,-4.331009090E-1,4.954339504E0
3.834148390E-1,1.536790371E0,-8.662018180E-1,5.170291424E0
3.882049950E-1,5.264210105E-1,-6.472585201E-1,4.974080086E0
3.929818700E-1,4.737788737E-1,-5.844469070E-1,4.940580368E0
3.977454120E-1,1.104287624E0,-9.296116233E-1,4.457828522E0
4.025356200E-1,1.641476393E0,-1.255633712E0,4.143770695E0
4.073124430E-1,2.408974171E0,-1.701895118E0,4.119842529E0
4.120760370E-1,3.309273720E0,-2.172084808E0,4.164109707E0
4.168661930E-1,4.232903481E0,-2.661417007E0,3.962514400E0
4.216430680E-1,5.586044312E0,-3.168695450E0,4.085146427E0
4.264066100E-1,7.161718369E0,-3.497110367E0,3.938585997E0
4.311967660E-1,8.910273552E0,-3.680759430E0,3.555136204E0
4.359736410E-1,1.058166027E1,-3.811168194E0,2.908475876E0
4.407371830E-1,1.191027451E1,-3.836891174E0,2.297109842E0
4.455273910E-1,1.287159157E1,-3.805186272E0,1.596012712E0
4.503042140E-1,1.197607708E1,-2.968894720E0,1.106082320E0
4.550677560E-1,1.052483082E1,-1.980060697E0,1.530210137E0
4.598579640E-1,9.034700394E0,-9.768698215E-1,1.853839397E0
4.646348390E-1,8.108677864E0,-4.642075896E-1,2.472383976E0
4.693983810E-1,7.684549809E0,-3.732803464E-1,1.658824325E0
4.741885370E-1,7.249654293E0,-8.560323119E-1,2.621337175E0
4.789654120E-1,6.951149940E0,-1.628315806E0,3.957130432E0
4.837289540E-1,6.364310265E0,-2.444268227E0,4.090530396E0
4.885191100E-1,6.397211552E0,-3.663411379E0,4.182653904E0
4.932959850E-1,7.052844524E0,-4.957330227E0,4.050450325E0
4.980595270E-1,7.639684677E0,-6.064010620E0,3.750749588E0
5.028497350E-1,8.094321251E0,-6.818946362E0,3.758526087E0
5.076265580E-1,8.356932640E0,-6.548557281E0,4.097110748E0
5.123901520E-1,8.833105087E0,-6.268597126E0,4.316053867E0
5.171803080E-1,9.132207870E0,-6.070590973E0,5.076971531E0
5.219571830E-1,9.537791252E0,-5.997610092E0,6.106483459E0
5.267207250E-1,1.025384331E1,-6.131608009E0,7.144370079E0
5.315108810E-1,1.115832996E1,-6.240481377E0,8.085348129E0
5.362877560E-1,1.248754311E1,-6.155536175E0,9.076574326E0
5.410512980E-1,1.411286831E1,-6.113661766E0,9.653244972E0
5.458415060E-1,1.542832184E1,-6.000002861E0,1.012642574E1
5.506183810E-1,1.600439453E1,-5.603392601E0,1.040638542E1
5.553819230E-1,1.597268963E1,-5.082953453E0,1.010369396E1
5.601720790E-1,1.555095482E1,-4.592424870E0,9.928419113E0
5.649489540E-1,1.505444336E1,-4.352544308E0,9.719047546E0
5.697124950E-1,1.460339642E1,-4.502694130E0,9.083752632E0
5.745026520E-1,1.388016605E1,-5.096712112E0,7.931010723E0
5.792795270E-1,1.361396408E1,-5.005784988E0,7.980661869E0
5.840564020E-1,1.312941742E1,-4.597210407E0,7.589435101E0
5.888332770E-1,1.282493114E1,-4.289134502E0,6.961917400E0
5.936101000E-1,1.262931824E1,-4.332803726E0,6.074778557E0
5.983736930E-1,1.203470135E1,-4.237689018E0,5.392225742E0
6.031638500E-1,1.161176968E1,-4.276572227E0,4.621737003E0
6.079407250E-1,1.103689480E1,-4.249054909E0,4.052843571E0
6.127042660E-1,1.070489025E1,-4.311866283E0,3.321237803E0
6.174944230E-1,1.064507008E1,-4.254438877E0,2.912663460E0
6.222712980E-1,1.091246796E1,-4.180859566E0,2.345564365E0
6.270348390E-1,1.096092224E1,-4.132404804E0,1.744965911E0
6.318250480E-1,1.074317551E1,-3.964308977E0,1.237687469E0
6.366018700E-1,1.059840965E1,-3.815355778E0,9.457631707E-1
6.413654120E-1,1.077009487E1,-4.098905087E0,9.116654396E-1
6.461556200E-1,1.094477081E1,-4.411766529E0,1.246660590E0
6.509324950E-1,1.102014446E1,-4.590032101E0,1.817348838E0
6.557093180E-1,1.117627621E1,-4.999803066E0,2.321038008E0
6.604861930E-1,1.125763226E1,-5.510072231E0,2.761915445E0
6.652630680E-1,1.124746323E1,-6.040680885E0,3.208775282E0
6.700266100E-1,1.112423229E1,-6.690930367E0,3.751945972E0
6.748167660E-1,1.079103184E1,-7.299305439E0,4.182055950E0
6.795936410E-1,1.059541893E1,-7.892127514E0,4.571487427E0
6.843571830E-1,1.046800041E1,-8.211568832E0,5.359922886E0
6.891473910E-1,1.069352436E1,-8.601000786E0,6.236892223E0
6.939242660E-1,1.095374393E1,-9.072985649E0,7.353742123E0
6.986878080E-1,1.109910774E1,-9.217751503E0,7.703692436E0
7.034779640E-1,1.130848026E1,-9.168698311E0,7.678567886E0
7.082548390E-1,1.158305645E1,-9.071788788E0,7.475177765E0
7.130183810E-1,1.158126163E1,-8.893523216E0,7.259225845E0
7.178085370E-1,1.150050354E1,-9.028120041E0,7.264609337E0
7.225854120E-1,1.154716396E1,-9.095717430E0,7.878966808E0
7.273489540E-1,1.172542953E1,-9.129216194E0,8.209176064E0
7.321391620E-1,1.178166008E1,-8.955737114E0,8.175078392E0
7.369159850E-1,1.191147137E1,-8.618349075E0,7.776075363E0
7.416928600E-1,1.190668583E1,-8.252246857E0,7.247859955E0
7.464697350E-1,1.184267712E1,-7.880761147E0,7.046264648E0
7.512466100E-1,1.123430252E1,-7.757531166E0,8.038089752E0
7.560101520E-1,1.091186905E1,-7.465606689E0,9.920642853E0
7.608003080E-1,1.205563831E1,-7.558926582E0,9.401400566E0
7.655771830E-1,1.312642670E1,-7.584051132E0,7.908278942E0
7.703407250E-1,1.413440323E1,-7.575676441E0,5.426921844E0
7.751309330E-1,1.450050545E1,-7.685148239E0,3.792623997E0
7.799077560E-1,1.435573959E1,-7.742575645E0,2.555534601E0
7.846713500E-1,1.412901974E1,-7.473383427E0,2.264208317E0
7.894615060E-1,1.391605854E1,-6.958926678E0,2.681756020E0
7.942383810E-1,1.350329685E1,-6.396014690E0,3.111267567E0
7.990019230E-1,1.329751396E1,-5.837889194E0,3.251247883E0
8.037920790E-1,1.350150204E1,-5.523830891E0,3.245265722E0
8.085689540E-1,1.391067410E1,-5.489135265E0,3.300300598E0
8.133324950E-1,1.435394478E1,-5.483751297E0,3.494717360E0
8.181227040E-1,1.488455296E1,-5.501697540E0,3.875774384E0
8.228995270E-1,1.541875076E1,-5.510072231E0,4.161118507E0
8.276631200E-1,1.577169228E1,-5.465805054E0,4.246063709E0
8.324532770E-1,1.571785355E1,-5.258825779E0,4.135395527E0
8.372301520E-1,1.524467278E1,-4.807180882E0,4.022335052E0
8.419936930E-1,1.458604908E1,-4.283750534E0,4.001397610E0
8.467838500E-1,1.448614788E1,-4.216153622E0,3.214757204E0
8.515607250E-1,1.406800270E1,-4.289134502E0,2.516052961E0
8.563242660E-1,1.363908863E1,-4.526023865E0,2.197209358E0
8.611144230E-1,1.313181114E1,-4.565505505E0,1.758126378E0
8.658912980E-1,1.271127224E1,-4.503890514E0,1.414756417E0
8.706548390E-1,1.246780205E1,-4.465605259E0,1.253240824E0
8.754450480E-1,1.242413330E1,-4.528416634E0,1.143171072E0
8.802219230E-1,1.269212914E1,-4.754538536E0,1.237687469E0
8.849987450E-1,1.285962677E1,-4.811966419E0,1.452443361E0
8.897756200E-1,1.328973675E1,-4.941178799E0,1.704886079E0
8.945524950E-1,1.378684616E1,-5.031507969E0,1.966900229E0
8.993293700E-1,1.411705494E1,-4.997410297E0,2.353341103E0
9.041062450E-1,1.432403469E1,-4.838287354E0,2.812762976E0
9.088830680E-1,1.454955769E1,-4.712664127E0,3.243471146E0
9.136599430E-1,1.480917931E1,-4.745565414E0,3.616751432E0
9.184368180E-1,1.490130329E1,-4.789234638E0,3.894318819E0
9.232136930E-1,1.493121338E1,-4.832305431E0,4.061816216E0
9.279905160E-1,1.498385525E1,-4.889732838E0,4.129413605E0
9.327673910E-1,1.512263870E1,-4.947759151E0,4.244269371E0
9.375442660E-1,1.526082420E1,-5.009972572E0,4.277170658E0
9.423211410E-1,1.538046551E1,-5.129613400E0,4.314857483E0
9.470979640E-1,1.523869133E1,-5.188237667E0,4.358526230E0
9.518748390E-1,1.484746456E1,-5.184050083E0,4.226323128E0
9.566383810E-1,1.365404415E1,-5.301298618E0,1.933998942E0
9.614285890E-1,1.313719463E1,-5.470590591E0,-1.986042857E-1
9.662054640E-1,1.336451244E1,-5.441278458E0,4.618147612E-1
9.709690060E-1,1.211725426E1,-5.438885689E0,-5.060819983E-1
9.757591620E-1,1.021256733E1,-5.688337803E0,-2.467598438E0
9.805360370E-1,8.051848412E0,-5.676971912E0,-6.569494724E0
9.852995790E-1,5.784050465E0,-6.137589931E0,-1.278186035E1
9.900897350E-1,3.924229145E0,-5.812764645E0,-1.721157265E1
9.948666100E-1,3.574877024E0,-5.173880577E0,-1.412423420E1
9.996301520E-1,4.374678135E0,-4.823332310E0,-8.250452042E0
1.004420360E0,5.944369793E0,-5.303092957E0,-4.001397610E0
1.009197183E0,6.491727829E0,-6.083751678E0,-1.191027522E0
1.013960777E0,5.451447964E0,-6.686742783E0,-4.314259052E0
1.018750933E0,5.100301266E0,-6.787839413E0,-5.828916073E0
1.023527808E0,5.892325878E0,-7.110870838E0,-1.749153376E0
1.028291350E0,6.217749596E0,-7.329215527E0,3.198007345E0
1.033081506E0,6.767500877E0,-7.862815380E0,4.058825493E0
1.037858381E0,6.102894306E0,-8.081758499E0,4.273581028E0
1.042621923E0,6.905087948E0,-9.352347374E0,5.623731613E0
1.047412131E0,4.552943230E0,-9.501300812E0,3.591626883E0
1.052188954E0,3.882354736E0,-9.555737495E0,2.889333248E0
1.056952548E0,6.002993584E0,-9.945767403E0,3.996612072E0
1.061742704E0,5.539384365E0,-9.590433121E0,3.183650494E0
1.066519579E0,6.434898376E0,-9.482157707E0,3.332603693E0
1.071283120E0,4.575675011E0,-8.990432739E0,3.692125320E0
1.076073277E0,5.491527915E-1,-7.203592777E0,3.668197155E0
1.080850152E0,1.519442320E0,-7.036693096E0,2.089532375E0
1.085613693E0,6.372086525E0,-9.179466248E0,3.390031576E0
1.090403902E0,1.370668602E1,-1.273878956E1,9.751948357E0
1.095180725E0,1.270828152E1,-1.348295784E1,1.027059269E1
1.099944318E0,7.807780266E0,-1.184686470E1,8.840881348E0
1.104734475E0,3.635894060E0,-9.827920914E0,7.560721397E0
1.109511350E0,5.132604837E-1,-7.695317745E0,4.532604218E0
1.114274891E0,3.845864296E0,-7.682157040E0,4.141377926E0
1.119065048E0,6.470790863E0,-8.562117577E0,4.291527271E0
1.123841923E0,6.345167637E0,-8.595617294E0,2.338984251E0
1.128605464E0,6.103492260E0,-7.747361660E0,1.422533035E0
1.133395673E0,6.970292568E0,-7.427919865E0,2.425724030E0
1.138172495E0,6.604788780E0,-7.024729252E0,2.839682341E0
1.142936037E0,5.894120216E0,-6.607181549E0,2.771486759E0
1.147726245E0,6.074180126E0,-6.120242119E0,2.923431158E0
1.152503120E0,4.837090969E0,-5.592624664E0,2.325225353E0
1.157266662E0,3.969094515E0,-5.117649555E0,1.551745534E0
1.162056818E0,3.822534084E0,-5.257629395E0,7.854440212E-1
1.166833693E0,3.973282099E0,-5.401797295E0,4.911268353E-1
1.171597235E0,4.670191765E0,-5.871986866E0,-2.267199457E-1
1.176387391E0,7.364510059E0,-6.683752060E0,-3.409772217E-1
1.181164266E0,8.266005516E0,-6.869793892E0,7.148557901E-1
1.185927808E0,7.444071293E0,-6.145366669E0,1.299302697E0
1.190718016E0,9.774680138E0,-6.567699909E0,9.326026440E-1
1.195494891E0,1.433779335E1,-9.320044518E0,1.683889198E1
1.200258433E0,9.145966530E0,-8.264211655E0,8.475975990E0
1.205048589E0,9.643673897E0,-7.503891945E0,1.335374451E1
1.209825464E0,6.546762943E0,-6.059225082E0,7.941180229E0
1.214589006E0,3.475574970E0,-3.857230186E0,2.345564365E0
1.219379162E0,3.394218922E0,-3.215355396E0,2.195414752E-1
1.224156037E0,3.124428272E0,-2.950350285E0,-1.622333765E0
1.228919579E0,3.554538012E0,-3.305684566E0,-2.372483730E0
1.233709787E0,4.010370731E0,-3.444468260E0,-1.808973908E0
1.238486662E0,5.353342533E0,-5.261816978E0,-2.505285263E0
1.243263485E0,5.712863922E0,-5.219344616E0,9.912267923E-1
1.248040360E0,4.350749969E0,-4.813760757E0,1.842473388E0
1.252817235E0,4.287340164E0,-4.380061626E0,2.620140791E0
1.257594110E0,4.211966038E0,-4.014558315E0,2.126022816E0
1.262370933E0,3.432504177E0,-3.895515203E0,1.543968797E0
1.267147808E0,1.969292998E0,-3.614358664E0,-2.907279432E-1
1.271911350E0,2.162513494E0,-3.690330744E0,-6.376872063E-1
1.276701558E0,2.686541557E0,-3.900899172E0,-6.400800347E-1
1.281478433E0,3.611367464E0,-4.496113777E0,6.580262631E-2
1.286255256E0,3.741178274E0,-4.795814991E0,9.290133715E-1
1.291032131E0,3.760919094E0,-4.805386066E0,1.092323542E0
1.295809006E0,3.778266907E0,-4.679762840E0,1.658226132E0
1.300585881E0,3.833899975E0,-4.477569580E0,2.276770830E0
1.305362704E0,3.159124136E0,-4.118047714E0,1.925025821E0
1.310139579E0,2.804986238E0,-4.132404804E0,7.507480979E-1
1.314916454E0,2.883351326E0,-4.396811485E0,1.800599098E-1
1.319693329E0,3.033500910E0,-4.608576298E0,5.006981492E-1
1.324470152E0,2.892324448E0,-4.763511658E0,6.646065116E-1
1.329247027E0,2.801995277E0,-4.807778835E0,1.408774376E0
1.334023902E0,3.101696253E0,-5.014159679E0,2.123031855E0
1.338800777E0,3.833899975E0,-5.571687698E0,3.270988464E0
1.343564318E0,4.122833252E0,-6.058627129E0,4.441078663E0
1.348354475E0,4.154538155E0,-6.279963017E0,4.838885784E0
1.353131350E0,3.884747505E0,-6.237490654E0,5.070391178E0
1.357894891E0,3.452244759E0,-5.915655613E0,5.201996326E0
1.362685100E0,3.059821844E0,-5.453841209E0,5.151148796E0
1.367461923E0,2.862414122E0,-5.117051125E0,4.960321426E0
1.372238798E0,2.740978241E0,-4.982454777E0,4.581656933E0
1.377015673E0,2.804986238E0,-5.059025288E0,4.106083870E0
1.381792548E0,2.815155745E0,-4.885545731E0,3.525225878E0
1.386569423E0,2.837289333E0,-4.731208801E0,3.381058455E0
1.391346245E0,3.107080221E0,-4.817350388E0,3.106482029E0
1.396123120E0,3.911068678E0,-6.331408501E0,-7.836493850E-2
1.400886662E0,2.981456995E0,-6.564708710E0,-4.480560422E-1
1.405676870E0,1.355534077E0,-5.350351334E0,1.892124534E0
1.410453693E0,6.299105883E-1,-4.225724697E0,3.713660717E0
1.415217287E0,3.481557071E-1,-3.470191002E0,3.834498405E0
1.420007443E0,4.283152521E-1,-3.123231649E0,3.968496323E0
1.424784318E0,9.314061999E-1,-3.338585854E0,3.634697676E0
1.429561193E0,1.849651933E0,-3.592225075E0,3.572484255E0
1.434338016E0,2.374278307E0,-2.882154942E0,3.320041418E0
1.439114891E0,3.787838221E0,-1.298106313E0,3.445664644E0
1.443878433E0,4.854438782E0,-2.149353027E0,4.688735962E0
1.448668641E0,6.230311871E0,-2.907877684E0,6.808178425E0
1.453445464E0,7.311269760E0,-4.231706619E0,9.380462646E0
1.458209058E0,8.873783112E0,-6.645466805E0,8.471788406E0
1.462999214E0,9.040681839E0,-8.345566750E0,6.763911247E0
1.467776089E0,8.136195183E0,-8.703293800E0,5.779862881E0
1.472539631E0,6.707680225E0,-8.673383713E0,5.619544029E0
1.477329787E0,6.750751019E0,-9.005388260E0,6.147161484E0
1.482106662E0,6.795616150E0,-9.319445610E0,6.378068924E0
1.486870204E0,7.137789726E0,-9.390632629E0,6.332605362E0
1.491660412E0,8.997013092E0,-1.017129040E1,7.240083218E0
1.496437235E0,1.013061333E1,-1.041057301E1,8.088936806E0
1.501200829E0,1.010429192E1,-1.012941647E1,5.564508915E0
1.505990985E0,1.115115166E1,-1.113200951E1,1.130010486E0
1.510767860E0,9.358329773E0,-8.732007980E0,9.601200819E-1
1.515531402E0,6.285944939E0,-5.752345562E0,1.200000525E0
1.520321558E0,7.128817081E0,-4.300500393E0,1.232901812E0
1.525098433E0,5.749354839E0,-3.007778168E0,1.210170031E0
1.529861975E0,7.227520943E0,-3.153141975E0,8.524430394E-1
1.534652183E0,8.047062874E0,-3.521636724E0,6.101697683E-2
1.539429006E0,7.807182312E0,-3.970889091E0,-4.366901219E-1
1.544192548E0,7.773084164E0,-4.452444553E0,-6.161518395E-2
1.548982756E0,8.338987350E0,-5.048855782E0,3.535395563E-1
1.553759631E0,8.170292854E0,-4.962714195E0,7.914260626E-1
1.558536454E0,8.132007599E0,-4.673780918E0,1.745564103E0
1.563313329E0,8.806185722E0,-4.774279594E0,2.289931297E0
1.568090204E0,9.701101303E0,-5.499304771E0,1.978864312E0
1.572853745E0,9.604789734E0,-6.067600250E0,1.456032634E0
1.577643954E0,9.058628082E0,-6.214160442E0,2.284547329E0
1.582420777E0,9.145966530E0,-6.449853420E0,3.167499065E0
1.587197652E0,9.132805824E0,-6.695715904E0,3.287738323E0
1.591974527E0,8.976674080E0,-7.062416077E0,3.332005501E0
1.596751402E0,9.034101486E0,-7.592426300E0,3.797409534E0
1.601514943E0,9.114859581E0,-8.228917122E0,4.929812908E0
1.606305100E0,9.186046600E0,-8.831310272E0,6.225526333E0
1.611081975E0,9.293125153E0,-9.366703987E0,7.051050186E0
1.615845516E0,9.151947975E0,-9.598209381E0,7.200601578E0
1.620635725E0,9.020941734E0,-9.868000984E0,6.683153629E0
1.625412548E0,8.743971825E0,-1.009412193E1,4.841876507E0
1.630176089E0,8.541778564E0,-9.800403595E0,3.839882135E0
1.634966298E0,7.740781307E0,-8.915059090E0,3.253042459E0
1.639743173E0,6.786643028E0,-7.698308468E0,2.642872572E0
1.644506714E0,6.888936520E0,-7.427919865E0,7.854440212E-1
1.649296870E0,7.383652687E0,-7.743772507E0,-9.308080077E-1
1.654073745E0,7.701299667E0,-7.905886173E0,-1.978266120E0
1.658837287E0,8.114061356E0,-7.741379261E0,-2.071586132E0
1.663627443E0,8.074580193E0,-7.380661488E0,-1.404586911E0
1.668404318E0,7.949554920E0,-7.381259441E0,-8.285148144E-1
1.673167860E0,7.866404533E0,-7.752147198E0,-5.491527915E-1
1.677958068E0,7.578667641E0,-8.206185341E0,-3.798605800E-1
1.682734943E0,7.095317364E0,-8.669795036E0,-3.571287692E-1
1.687498485E0,6.475576401E0,-8.830113411E0,-5.318048596E-1
1.692288641E0,6.107679844E0,-8.743971825E0,-8.416753411E-1
1.697065516E0,6.043073654E0,-8.536993027E0,-1.177268744E0
1.701829058E0,6.372684956E0,-8.155936241E0,-1.476969719E0
1.706619214E0,6.404389858E0,-7.981858253E0,-1.636092424E0
1.711396089E0,5.889334679E0,-8.011768341E0,-1.906481385E0
1.716159631E0,5.278566837E0,-7.984251022E0,-2.162513494E0
1.720949839E0,4.948357105E0,-8.003992081E0,-2.563311338E0
1.725726662E0,4.402793884E0,-7.812565804E0,-2.858824968E0
1.730490256E0,3.811168194E0,-7.207181931E0,-2.889931440E0
1.735280412E0,3.441477060E0,-7.112067223E0,-2.686541557E0
1.740057287E0,3.811766386E0,-6.662814617E0,-2.496312141E0
1.744820829E0,4.138985157E0,-6.160920143E0,-2.388036966E0
1.749610985E0,4.284348965E0,-5.809175014E0,-2.532802820E0
1.754387860E0,4.099503517E0,-5.250451088E0,-2.907279491E0
1.759151402E0,3.647259951E0,-4.610371113E0,-3.408575773E0
1.763941610E0,3.299702406E0,-3.955934048E0,-3.906881094E0
1.768718433E0,2.967100143E0,-3.339782238E0,-4.226921082E0
1.773482027E0,2.512463808E0,-2.762513638E0,-4.465006828E0
1.778272183E0,1.924427629E0,-2.624328136E0,-4.802394867E0
1.783049058E0,1.646860242E0,-3.274577856E0,-5.410171986E0
1.787812600E0,1.617548108E0,-4.609174728E0,-5.447260857E0
1.792602756E0,2.105683982E-1,-4.656432629E0,-4.504488468E0
1.797379631E0,-6.460621208E-2,-4.880161762E0,-2.857030153E0
1.802143173E0,-4.971089065E-1,-5.714658737E0,-9.391828775E-1
1.806933381E0,-1.686939895E-1,-6.495316982E0,2.117647976E-1
1.811710204E0,7.022934556E-1,-6.739385128E0,9.607182741E-1
1.816473798E0,9.894321561E-1,-7.095915318E0,1.794018745E0
1.821263954E0,1.435095429E0,-7.402794838E0,2.123630047E0
1.826040829E0,1.638485312E0,-7.576274872E0,2.693720102E0
1.830804370E0,1.885544300E0,-7.676773071E0,3.373879910E0
1.835594527E0,2.331805706E0,-7.613363266E0,3.985246181E0
1.840371402E0,2.597409010E0,-7.473383427E0,4.656432629E0
1.845134943E0,3.329612732E0,-7.409375191E0,4.747958183E0
1.849925152E0,3.154936552E0,-7.086942673E0,5.108676434E0
1.854701975E0,2.405385017E0,-6.924828529E0,5.501697540E0
1.859465568E0,3.215355396E0,-6.315855503E0,5.295316696E0
1.864255725E0,4.466203690E0,-5.623731613E0,4.841876507E0
1.869032600E0,4.712664127E0,-5.329414368E0,4.730011940E0
1.873796141E0,4.526622295E0,-5.151747227E0,4.697110653E0
1.878586298E0,4.686343193E0,-5.045266628E0,4.499702930E0
1.883363173E0,5.952744484E0,-5.104488850E0,3.763311863E0
1.888126714E0,7.245467186E0,-5.721837044E0,2.514258385E0
1.892916870E0,7.124629498E0,-6.641877651E0,1.704287887E0
1.897693745E0,7.114459991E0,-7.894520283E0,8.709874153E-1
1.902457287E0,8.057231903E0,-8.913264275E0,4.630111754E-1
1.907247495E0,7.843074322E0,-8.830712318E0,-1.796411633E0
1.912024370E0,8.117650986E0,-1.003968525E1,-1.143769264E0
1.916787912E0,8.002197266E0,-1.134616661E1,2.638086975E-1
1.921578068E0,8.265407562E0,-1.203589821E1,2.561516523E0
1.926354943E0,9.245866776E0,-1.233739376E1,4.019941807E0
1.931118485E0,1.029153061E1,-1.280758286E1,5.176273346E0
1.935908641E0,1.140299606E1,-1.296431351E1,6.346364021E0
1.940685516E0,1.236550903E1,-1.214836025E1,7.795217991E0
1.945449058E0,1.306421375E1,-1.060618591E1,9.369096756E0
1.950239266E0,1.419900990E1,-9.216554642E0,1.047577763E1
1.955016141E0,1.538405514E1,-8.375477791E0,1.094955635E1
1.959779683E0,1.641237068E1,-8.112865448E0,1.119781208E1
1.964569839E0,1.730309868E1,-8.188239098E0,1.133240795E1
1.969346714E0,1.815075684E1,-8.272585869E0,1.138086224E1
1.974110256E0,1.886800385E1,-8.179265976E0,1.132463169E1
1.978900412E0,1.905464554E1,-8.091927528E0,1.076650524E1
1.983677287E0,1.864367676E1,-7.990831375E0,9.736394882E0
1.988440829E0,1.789532280E1,-7.688737392E0,8.132605553E0
1.993231037E0,1.776670837E1,-7.080960274E0,5.297111034E0
1.998007912E0,1.702852249E1,-6.906284332E0,4.773681164E-1
2.002771454E0,1.610489273E1,-6.964908600E0,-4.359723091E0
2.007561610E0,1.485883045E1,-7.091129780E0,-9.113663673E0
2.012338485E0,1.354397392E1,-7.386643410E0,-1.187617683E1
2.017102027E0,1.224526978E1,-7.601399422E0,-1.264128208E1
2.021892183E0,1.190369415E1,-8.368298531E0,-1.297567940E1
2.026669058E0,1.133300591E1,-8.995817184E0,-1.248215961E1
2.031432652E0,1.011984539E1,-9.245268822E0,-1.105543900E1
2.036222808E0,9.643673897E0,-8.929415703E0,-8.529216766E0
2.040999683E0,9.206384659E0,-8.825926781E0,-6.136991978E0
2.045763225E0,8.649456024E0,-8.943773270E0,-3.878167391E0
2.050553381E0,7.956733704E0,-9.134002686E0,-2.084148407E0
2.055330256E0,7.286144733E0,-9.358329773E0,-5.503492355E-1
2.060093798E0,6.467201233E0,-9.519845009E0,8.368897438E-1
2.064883954E0,5.493322372E0,-9.541978836E0,1.834696770E0
2.069660829E0,4.353740692E0,-9.506086349E0,2.249253273E0
2.074424370E0,3.334996462E0,-9.364311218E0,2.230110645E0
2.079214579E0,3.422334671E0,-8.973084450E0,1.855035782E0
2.083991454E0,4.539184570E0,-8.594420433E0,1.004387259E0
2.088754995E0,5.776273727E0,-8.490332603E0,3.068794906E-1
2.093545152E0,7.010372162E0,-8.612366676E0,-2.368894368E-1
2.098322027E0,7.804191113E0,-8.715856552E0,-3.463610709E-1
2.103098902E0,8.148159027E0,-8.633303642E0,-1.274178028E-1
2.107875725E0,8.473583221E0,-8.502895355E0,3.457628787E-1
2.112652600E0,8.566903114E0,-8.382656097E0,9.068797827E-1
2.117416141E0,8.560921669E0,-8.325227737E0,1.530210137E0
2.122206350E0,8.445467949E0,-8.272585869E0,2.097309113E0
2.126983225E0,8.306683540E0,-8.148159027E0,2.764906645E0
2.131746766E0,8.543573380E0,-8.017151833E0,3.492922783E0
2.136536923E0,8.700901031E0,-7.949554920E0,4.346562386E0
2.141313798E0,9.215956688E0,-8.035696983E0,5.294120312E0
2.146077339E0,9.711270332E0,-8.276175499E0,6.068796635E0
2.150867495E0,1.166381359E1,-8.801400185E0,6.059225082E0
2.155644370E0,1.319761372E1,-9.403793335E0,4.554738045E0
2.160407912E0,9.794421196E0,-8.761918068E0,4.590630054E0
2.165198120E0,6.967899323E0,-7.650452137E0,4.278367043E0
2.169974943E0,5.676373482E0,-6.569494724E0,3.741776466E0
2.174738537E0,5.740979671E0,-5.818148136E0,3.774677753E0
2.179528693E0,4.785047054E0,-5.391029358E0,3.347558975E0
2.184305568E0,4.415954113E0,-5.469394207E0,3.628117323E0
2.189069110E0,5.935396671E0,-6.116652966E0,5.065007210E0
2.193859266E0,7.202396393E0,-6.894320011E0,5.682953835E0
2.198636141E0,7.525427341E0,-7.620542049E0,4.457828522E0
2.203413016E0,8.106285095E0,-8.332406998E0,4.920839787E0
2.208189891E0,8.599804878E0,-8.813364029E0,6.108876228E0
2.212966766E0,8.777471542E0,-8.890532494E0,7.139584541E0
2.217730308E0,8.334200859E0,-8.896514893E0,7.756334782E0
2.222520464E0,7.097112179E0,-8.547162056E0,5.535795212E0
2.227297339E0,6.577271461E0,-8.099106789E0,2.486142635E0
2.232060881E0,6.278168201E0,-7.419544697E0,5.670989752E-1
2.236851037E0,6.106483459E0,-6.570691109E0,-1.385444283E0
2.241627912E0,6.490531445E0,-6.189035892E0,-2.237289190E0
2.246391454E0,7.121040344E0,-6.067600250E0,-1.722234130E0
2.251181662E0,7.465606689E0,-6.013761520E0,-1.378265858E0
2.255958537E0,7.490731239E0,-6.081956863E0,-3.559323549E-1
2.260722079E0,6.833901405E0,-6.194419384E0,1.842473447E-1
2.265512235E0,7.645666599E0,-6.669394970E0,5.736792088E-1
2.270289110E0,9.502496719E0,-7.258029461E0,1.995015860E0
2.275052652E0,1.077009487E1,-7.838288784E0,3.605983734E0
2.279842808E0,9.989436150E0,-7.778468132E0,4.402195454E0
2.284619683E0,8.397610664E0,-7.127022266E0,3.421138287E0
2.289396558E0,7.701299667E0,-6.559325218E0,2.666202545E0
2.294173433E0,7.523034573E0,-6.048457623E0,1.054636598E0
2.298950308E0,6.969694138E0,-5.639284611E0,-5.988038778E-1
2.303727131E0,8.815756798E0,-6.262016773E0,6.634100676E-1
2.308504006E0,9.811170578E0,-6.703492641E0,3.029911757E0
2.313280881E0,9.150752068E0,-6.672386169E0,4.636094093E0
2.318044423E0,8.837890625E0,-6.629913330E0,4.978267670E0
2.322834579E0,8.924032211E0,-6.778866768E0,4.944169998E0
2.327611454E0,8.672187805E0,-6.822535515E0,4.211368084E0
2.332388329E0,7.703094482E0,-6.510870457E0,2.205584288E0
2.337165204E0,7.767102242E0,-6.462415695E0,1.797009826E0
2.341942027E0,7.541578770E0,-6.184250355E0,3.204587698E0
2.346705620E0,7.974679470E0,-6.318846226E0,4.651647091E0
2.351495777E0,8.706285477E0,-6.644868374E0,5.175675392E0
2.356272652E0,7.333403111E0,-6.253043652E0,4.932804108E0
2.361036193E0,5.684150219E0,-5.417948723E0,3.223132133E0
2.365826350E0,5.183452129E0,-5.187639713E0,2.423929453E0
2.370603225E0,4.499104977E0,-5.266004562E0,2.609971285E0
2.375366766E0,4.984249592E0,-5.534598827E0,2.367697954E0
2.380156975E0,4.985445976E0,-5.538786411E0,1.004985452E0
2.384933850E0,4.704289436E0,-5.173282623E0,2.524427772E-1
2.389710673E0,6.676573277E0,-5.419145107E0,1.427916884E0
2.394487548E0,8.939585686E0,-6.370890141E0,7.780262947E0
2.399264423E0,5.952146530E0,-5.053043365E0,7.636693478E0
2.404041298E0,7.045666218E0,-5.222335339E0,4.276572227E0
2.408818120E0,8.532207489E0,-5.070989609E0,7.085147858E0
2.413594995E0,7.945965767E0,-4.540380955E0,3.215355396E0
2.418358537E0,1.050269699E1,-5.938387394E0,7.570292473E0
2.423148745E0,1.063729286E1,-5.709873199E0,1.500778389E1
2.427925568E0,7.962117195E0,-4.398606300E0,9.160921097E0
2.432689162E0,7.004390240E0,-3.742374659E0,1.439282775E0
2.437479318E0,6.796214581E0,-3.037688255E0,-1.132403374E0
2.442256193E0,6.120840549E0,-2.369492531E0,-1.489532113E0
2.447019735E0,6.908677101E0,-2.391626120E0,-1.916052699E0
2.451809891E0,6.823133945E0,-2.271985054E0,-1.032503009E0
2.456586766E0,6.736393929E0,-2.291725874E0,-3.068794906E-1
2.461363641E0,7.729415417E0,-2.791227579E0,1.521237016E0
2.466140516E0,6.809973240E0,-2.788834810E0,1.981855392E0
2.470917339E0,6.736992359E0,-2.866601467E0,2.577069998E0
2.475694214E0,6.129813194E0,-2.501696110E0,1.481157184E0
2.480471089E0,6.453442574E0,-2.732005358E0,1.383649707E0
2.485247964E0,6.108277798E0,-3.046063185E0,2.288136721E0
2.490011506E0,5.946762562E0,-3.610769272E0,3.594617844E0
2.494801662E0,5.213960648E0,-3.452843189E0,2.974278450E0
2.499578537E0,4.359723091E0,-3.247658491E0,2.604587555E0
2.504342079E0,3.412763357E0,-3.028116941E0,1.817348838E0
2.509132287E0,3.418147087E0,-3.269193888E0,1.855633974E0
2.513909162E0,4.215555191E0,-3.648456335E0,2.916850805E0
2.518672704E0,4.206582069E0,-3.783650875E0,3.719044685E0
2.523462860E0,3.086143017E0,-3.559323788E0,3.436691523E0
2.528239735E0,3.284747362E0,-3.486940861E0,4.136591911E0
2.533016610E0,4.225126743E0,-2.988635540E0,4.082753658E0
2.537793433E0,4.892126083E0,-2.755933523E0,3.522833109E0
2.542570308E0,4.759922504E0,-2.790031195E0,3.720241070E0
2.547347183E0,5.134399414E0,-2.773879766E0,2.729612350E0
2.552124058E0,4.273581028E0,-2.500499725E0,5.551348329E-1
2.556900933E0,4.022335052E0,-2.129612207E0,1.339980662E-1
2.561664475E0,4.487140656E0,-1.695314884E0,1.746760458E-1
2.566454631E0,5.097310543E0,-1.356730461E0,4.492524564E-1
2.571231506E0,5.339583874E0,-1.028315544E0,6.251249313E-1
2.575995048E0,5.430510998E0,-7.824530005E-1,8.075776696E-1
2.580785204E0,5.858228207E0,-1.104287624E0,1.289731383E0
2.585562079E0,6.416353703E0,-2.332403898E0,2.550150633E0
2.590325620E0,6.502495766E0,-3.460021496E0,3.543770313E0
2.595115829E0,6.281159401E0,-3.721437454E0,4.591228485E0
2.599892704E0,6.131608009E0,-3.418147087E0,5.162514687E0
2.604656245E0,6.049654007E0,-3.076571703E0,5.133800983E0
2.609446402E0,6.017350674E0,-2.960519791E0,4.668995380E0
2.614223277E0,6.267400742E0,-3.301496983E0,4.154538155E0
2.619000152E0,6.471987247E0,-3.595216036E0,4.009174347E0
2.623776975E0,6.455237389E0,-3.373281717E0,3.640081406E0
2.628553850E0,6.423532486E0,-3.166302681E0,3.279961586E0
2.633330725E0,6.363711834E0,-3.021536827E0,2.881556749E0
2.638107600E0,6.193821430E0,-3.011965513E0,2.354537487E0
2.642884475E0,6.091528416E0,-3.175873756E0,1.846660852E0
2.647648016E0,6.534200668E0,-3.781856298E0,8.183453679E-1
2.652438173E0,7.213762283E0,-4.473381996E0,2.386840582E-1
2.657215048E0,6.696314335E0,-4.262813568E0,6.538388133E-1
2.661978589E0,7.787441254E0,-4.698905468E0,7.010970116E-1
2.666768798E0,7.978867054E0,-5.199603558E0,2.069193363E0
2.671545620E0,7.464410305E0,-5.215754986E0,2.800798893E0
2.676322495E0,6.430112839E0,-4.934000492E0,2.638087034E0
2.681099370E0,5.752943993E0,-4.299304008E0,2.688934565E0
2.685876245E0,5.293521881E0,-3.862613916E0,2.461018085E0
2.690639787E0,5.125426292E0,-3.646063566E0,2.346162558E0
2.695429943E0,5.289932728E0,-3.746562004E0,2.009970903E0
2.700206818E0,5.092525005E0,-3.462414265E0,1.698305845E0
2.704983693E0,5.385645390E0,-3.302693367E0,1.509871125E0
2.709760568E0,4.682155609E0,-2.991626501E0,1.767099500E0
2.714537391E0,4.719842434E0,-2.870789051E0,1.724028707E0
2.719314266E0,4.780859470E0,-2.625524759E0,1.766501307E0
2.724091141E0,5.111069202E0,-2.600399971E0,2.130210400E0
2.728868016E0,6.104090691E0,-3.253042459E0,2.297708035E0
2.733644839E0,6.049055576E0,-3.282354355E0,2.605185747E0
2.738421714E0,5.408377171E0,-2.446661234E0,4.172484398E0
2.743198589E0,6.640082836E0,-3.036491871E0,5.289932728E0
2.747962131E0,8.932407379E0,-4.153341770E0,5.394020557E0
2.752752287E0,1.052841949E1,-5.455037594E0,5.016552448E0
2.757529162E0,1.122054386E1,-6.147759438E0,5.839085579E0
2.762292704E0,1.155793190E1,-6.392425537E0,6.350551128E0
2.767082912E0,1.113260746E1,-6.653841496E0,5.959922791E0
2.771859787E0,1.024905777E1,-6.222535133E0,6.366703033E0
2.776623329E0,9.778867722E0,-5.828916073E0,5.922834396E0
2.781413485E0,9.170493126E0,-5.631507874E0,5.331208706E0
2.786190360E0,9.024530411E0,-5.795416355E0,4.698307037E0
2.790967235E0,9.037093163E0,-5.993422508E0,4.348356724E0
2.795744058E0,8.851051331E0,-6.113661766E0,3.509074450E0
2.800520933E0,8.943773270E0,-6.224329948E0,2.976073265E0
2.805284475E0,7.993822098E0,-6.129813194E0,2.501097918E0
2.810074683E0,7.617550850E0,-5.672784328E0,2.656033039E0
2.814851558E0,7.357331276E0,-5.779264927E0,2.053041935E0
2.819615100E0,7.359126091E0,-6.053841114E0,1.419542074E0
2.824405256E0,7.793423176E0,-6.086144447E0,9.044869542E-1
2.829182131E0,8.054241180E0,-6.052046776E0,7.058826685E-1
2.833945673E0,7.923233986E0,-6.220740795E0,2.123630047E-1
2.838735829E0,8.113463402E0,-6.200999737E0,2.213360965E-1
2.843512704E0,9.147162437E0,-6.222535133E0,1.127617717E0
2.848276245E0,1.032742214E1,-6.644270420E0,1.755135417E0
2.853066454E0,1.085444164E1,-7.244868755E0,1.359123230E0
2.857843329E0,1.123131084E1,-7.740182877E0,1.299900889E0
2.862606870E0,1.087238789E1,-7.981858253E0,1.561316729E0
2.867397027E0,1.013898754E1,-7.844270706E0,2.237289190E0
2.872173902E0,8.812766075E0,-7.948956966E0,2.431107759E0
2.876937443E0,7.301698208E0,-8.266604424E0,3.336791277E0
2.881727600E0,6.920042992E0,-8.435297966E0,2.282752752E0
2.886504475E0,6.832705021E0,-8.507082939E0,1.194018483E0
2.891268016E0,6.642475605E0,-8.675776482E0,3.792623878E-1
2.896058225E0,6.267998695E0,-8.565707207E0,-1.609173268E-1
2.900835100E0,6.232106686E0,-8.344370842E0,-5.018945336E-1
2.905598641E0,6.068198204E0,-8.190631866E0,-7.794619799E-1
2.910388798E0,6.051448345E0,-7.867002487E0,-1.004985452E0
2.915165673E0,6.242874146E0,-7.158727169E0,-1.222732425E0
2.919929214E0,6.150152206E0,-6.537191391E0,-1.289731383E0
2.924719370E0,5.983253002E0,-6.022136211E0,-1.836491346E0
2.929496245E0,6.005984783E0,-5.559125423E0,-1.794018745E0
2.934259787E0,5.480760098E0,-5.425725460E0,-1.954337835E0
2.939049995E0,5.226522923E0,-5.305486202E0,-2.250449657E0
2.943826870E0,5.268397331E0,-5.454439163E0,-2.509472847E0
2.948590412E0,5.580062389E0,-5.723631859E0,-2.208575249E0
2.953380568E0,6.206383705E0,-5.968297958E0,-1.899901152E0
2.958157443E0,6.457031727E0,-6.227919102E0,-1.478764415E0
2.962934318E0,6.189035892E0,-6.320641041E0,-1.030708313E0
2.967711141E0,5.834897995E0,-6.403193474E0,-6.406782866E-1
2.972488016E0,5.567500114E0,-6.519843578E0,4.187439568E-3
2.977251558E0,5.292325497E0,-6.925426960E0,6.245267391E-1
2.982041766E0,4.939383984E0,-7.249654293E0,1.058824062E0
2.986818589E0,4.148556232E0,-7.405786037E0,1.663011789E0
2.991582183E0,3.191427231E0,-6.468996048E0,2.041675806E0
2.996372339E0,2.375474691E0,-5.772086620E0,2.726621389E0
3.001149214E0,2.350350142E0,-5.753541946E0,3.254837036E0
3.005912756E0,2.062613010E0,-5.773283005E0,2.973082066E0
3.010702912E0,2.237289190E0,-5.903093338E0,2.746960402E0
3.015479787E0,2.900100946E0,-5.824130535E0,2.143370867E0
3.020256662E0,3.490530014E0,-5.866004944E0,1.362712502E0
3.025033537E0,4.432703972E0,-6.041278839E0,6.717849374E-1
3.029810412E0,5.511268616E0,-6.356533527E0,2.105683982E-1
3.034573954E0,6.807580471E0,-6.859025955E0,2.333002090E-1
3.039364110E0,7.325028419E0,-7.252645493E0,-1.531406492E-1
3.044140985E0,7.262814999E0,-7.695317745E0,-1.241874933E0
3.048904527E0,7.469195843E0,-7.834699631E0,-1.698904037E0
3.053694683E0,7.643871784E0,-8.016553879E0,-2.011765718E0
3.058471558E0,7.673183918E0,-8.277371407E0,-2.059622049E0
3.063235100E0,7.865208149E0,-8.402397156E0,-1.849651933E0
3.068025308E0,7.977670670E0,-8.710473061E0,-1.552343726E0
3.072802131E0,7.825128078E0,-8.903693199E0,-8.697910309E-1
3.077565725E0,7.800003529E0,-9.404989243E0,-5.527420044E-1
3.082355881E0,7.431509018E0,-9.357730865E0,-1.423729509E-1
3.087132756E0,7.236494064E0,-9.185447693E0,-2.153540403E-2
3.091909631E0,6.924828529E0,-8.795417786E0,5.264210105E-1
3.096686454E0,6.512664795E0,-8.435895920E0,1.046859860E0
3.101463329E0,5.973681927E0,-8.051250458E0,1.740180254E0
3.106226870E0,5.411966801E0,-7.975875854E0,1.814955950E0
3.111017079E0,4.767699242E0,-7.808976650E0,1.511067510E0
3.115793902E0,4.165306091E0,-7.401000500E0,2.070987940E0
3.120557495E0,3.583850145E0,-7.046264648E0,2.812762976E0
3.125347652E0,3.293720484E0,-6.955935478E0,2.933600664E0
3.130124527E0,2.951546669E0,-6.643074036E0,3.199802160E0
3.134888068E0,2.440080881E0,-6.206383705E0,3.782454491E0
3.139678225E0,2.218146563E0,-5.879763603E0,3.529413462E0
3.144455100E0,1.800000787E0,-5.364109993E0,2.230708838E0
3.149218641E0,1.300499082E0,-4.864010334E0,1.642074585E0
3.154008850E0,7.896314859E-1,-4.465006828E0,8.865407705E-1
3.158785673E0,4.785645306E-1,-4.051048756E0,1.435693540E-2
3.163549266E0,4.618147612E-1,-3.646063566E0,-9.553344250E-1
3.168339423E0,5.413761139E-1,-3.308077335E0,-1.829312921E0
3.173116298E0,8.757730722E-1,-3.292523861E0,-2.363510609E0
3.177879839E0,1.028913736E0,-3.244069338E0,-2.892324448E0
3.182669995E0,8.889335990E-1,-3.138186932E0,-3.193820000E0
3.187446870E0,7.854440212E-1,-3.200998545E0,-3.049652576E0
3.192210412E0,8.548358679E-1,-3.398406267E0,-2.704487801E0
3.197000620E0,7.914260626E-1,-3.616153240E0,-2.276770830E0
3.201777443E0,6.610172391E-1,-3.775275946E0,-1.892124534E0
3.206554318E0,4.737788737E-1,-3.887140274E0,-1.487737536E0
3.211331193E0,2.763710022E-1,-3.844069481E0,-1.064207911E0
3.216108068E0,3.631108403E-1,-3.911666870E0,-1.818545163E-1
3.220871610E0,5.401797295E-1,-4.201198578E0,1.429711580E0
3.225661766E0,2.440679073E-1,-4.221537113E0,2.813361168E0
3.230438641E0,7.052844763E-1,-4.963312149E0,3.929612875E0
3.235202183E0,2.338984162E-1,-4.256233215E0,4.229912281E0
3.239992391E0,-9.750752151E-2,-4.001996040E0,4.648656368E0
3.244769214E0,-1.860419661E-1,-3.934996843E0,4.999204636E0
3.249532808E0,9.272187948E-2,-4.054637909E0,5.372485161E0
3.254322964E0,6.269195080E-1,-4.544568539E0,6.142375946E0
3.259099839E0,2.237289101E-1,-4.575077057E0,7.089933395E0
3.263863381E0,-7.531409264E-1,-3.844667673E0,5.683551788E0
3.268653537E0,-1.260419369E0,-3.926621914E0,2.024926186E0
3.273430412E0,-1.704886079E0,-5.263013363E0,-5.338985443E0
3.278193954E0,-1.464407444E0,-4.929812908E0,-7.048058987E0
3.282984162E0,-1.413560033E0,-5.507081509E0,-7.566703320E0
3.287760985E0,7.411768436E-1,-1.475773335E1,-4.763511658E0
3.292524527E0,3.254837036E0,-3.907419586E1,-1.021735311E0
3.297314735E0,2.843869686E0,-5.405924606E1,1.712064624E0
3.302091610E0,4.021138668E0,-6.431548309E1,5.225924492E0
3.306855152E0,3.075973511E0,-6.482395935E1,6.805187702E0
3.311645308E0,3.191427231E0,-5.700959778E1,7.255038261E0
3.316422183E0,4.226921082E0,-4.353561401E1,5.459823132E0
3.321185725E0,4.563711166E0,-3.067598724E1,3.467200041E0
3.325975933E0,4.348955154E0,-2.133380890E1,2.170888424E0
3.330752756E0,3.932604074E0,-1.442991734E1,7.621139884E-1
3.335516350E0,3.479762316E0,-9.376873970E0,-7.316055298E-1
3.340306506E0,2.679961443E0,-5.784050465E0,-1.963310957E0
3.345083381E0,1.435693622E0,-3.425923824E0,-2.726621389E0
3.349846923E0,-5.682953820E-2,-2.056631088E0,-3.252444267E0
3.354637079E0,-1.524826288E0,-1.487139225E0,-3.364906788E0
3.359413954E0,-3.044866800E0,-1.591825247E0,-3.059821844E0
3.364177495E0,-4.600201607E0,-2.207378864E0,-2.546561480E0
3.368967652E0,-6.509075642E0,-3.431307554E0,-1.797608018E0
3.373744527E0,-7.677371502E0,-4.499104977E0,-4.995017350E-1
3.378508068E0,-7.542775154E0,-5.434100151E0,7.962117195E-1
3.383298277E0,-6.419943333E0,-6.612565517E0,1.746162295E0
3.388075152E0,-4.482953072E0,-7.744968891E0,2.101496458E0
3.392838693E0,-2.448455811E0,-8.746963501E0,2.034497499E0
3.397628850E0,-7.818548083E-1,-9.711270332E0,1.704287887E0
3.402405725E0,5.030909777E-1,-1.055593681E1,1.314856052E0
3.407169266E0,1.458425403E0,-1.120798111E1,8.590233326E-1
3.411959475E0,2.027318954E0,-1.161176968E1,3.140579760E-1
3.416736298E0,2.263610125E0,-1.171705437E1,-9.990034252E-2
3.421499891E0,2.122433662E0,-1.154835987E1,-3.780659735E-1
3.426290048E0,1.686939955E0,-1.118764210E1,-6.777670383E-1
3.431066923E0,1.046261668E0,-1.069771194E1,-8.955138922E-1
3.435843745E0,4.163511395E-1,-1.019820976E1,-9.744769931E-1
3.440620620E0,-1.130608693E-1,-9.790233612E0,-9.768698215E-1
3.445397495E0,-4.941178858E-1,-9.458827972E0,-8.404789567E-1
3.450174370E0,-6.311069727E-1,-9.232706070E0,-5.952146053E-1
3.454951245E0,-5.946164131E-1,-9.111868858E0,-5.802594870E-2
3.459728068E0,-4.390829504E-1,-9.141180992E0,5.407779217E-1
3.464504943E0,-2.021935135E-1,-9.295517921E0,1.053440213E0
3.469281818E0,8.255238086E-2,-9.424730301E0,1.599003673E0
3.474058693E0,3.188436031E-1,-9.515657425E0,2.087737799E0
3.478822235E0,4.115654826E-1,-9.665208817E0,2.442473650E0
3.483612391E0,4.420739710E-1,-9.799804688E0,2.662613392E0
3.488389266E0,4.426721931E-1,-9.934999466E0,2.720639229E0
3.493152808E0,5.048855543E-1,-9.992427826E0,2.686541557E0
3.497942964E0,5.748756528E-1,-9.982855797E0,2.518445730E0
3.502719839E0,6.113662124E-1,-9.953543663E0,2.244467735E0
3.507496714E0,5.234299302E-1,-9.939187050E0,1.885544300E0
3.512273589E0,3.876372576E-1,-9.963115692E0,1.478166223E0
3.517050464E0,2.572284341E-1,-9.982855797E0,1.099501967E0
3.521827287E0,2.500499785E-1,-9.664610863E0,8.739784956E-1
3.526604162E0,1.250249892E-1,-9.669994354E0,6.053841114E-1
3.531381037E0,1.950150430E-1,-9.727422714E0,3.846462369E-1
3.536157912E0,-6.699903309E-2,-9.838688850E0,2.997010350E-1
3.540934787E0,-7.657032460E-2,-1.018026352E1,1.561316848E-1
3.545711610E0,1.471585929E-1,-1.037767220E1,2.093719877E-2
3.550488485E0,9.511470050E-2,-1.039262676E1,1.136590727E-2
3.555265360E0,-9.571290761E-2,-1.018086243E1,1.417747438E-1
3.560042235E0,-1.052841991E-1,-9.915857315E0,2.853440940E-1
3.564819058E0,-1.232303679E-1,-9.781260490E0,4.773681164E-1
3.569595933E0,-5.084748194E-2,-9.809974670E0,6.592226624E-1
3.574372808E0,5.982056633E-2,-9.809974670E0,7.794619799E-1
3.579149683E0,1.316052526E-1,-9.742377281E0,8.697910309E-1
3.583926558E0,1.788634956E-1,-9.660423279E0,9.176474810E-1
3.588703381E0,2.219343036E-1,-9.578469276E0,9.314061999E-1
3.593480256E0,2.500499785E-1,-9.525228500E0,9.409775138E-1
3.598257131E0,2.685943544E-1,-9.520442963E0,8.979067206E-1
3.603034006E0,2.877369225E-1,-9.568299294E0,8.548358679E-1
3.607810829E0,3.020938635E-1,-9.631111145E0,8.063812256E-1
3.612587704E0,2.685943544E-1,-9.655039787E0,7.878368497E-1
3.617364579E0,2.350948304E-1,-9.684351921E0,7.878368497E-1
3.622141454E0,2.165504545E-1,-9.684351921E0,7.974081635E-1
3.626918329E0,2.213360965E-1,-9.698708534E0,8.356932998E-1
3.631695152E0,2.410768867E-1,-9.693922997E0,8.979067206E-1
3.636472027E0,2.793620527E-1,-9.708279610E0,9.505487680E-1
3.641248902E0,2.991028428E-1,-9.722636223E0,1.036690354E0
3.646025777E0,2.709871531E-1,-9.746564865E0,1.123430252E0
3.650802600E0,2.428714931E-1,-9.751948357E0,1.210170031E0
3.655579475E0,2.147558331E-1,-9.766305923E0,1.267597795E0
3.660356350E0,1.866401732E-1,-9.780662537E0,1.305882931E0
3.665133225E0,1.441675574E-1,-9.795618057E0,1.325623751E0
3.669910048E0,1.106680483E-1,-9.819545746E0,1.316052437E0
3.674686923E0,4.845465720E-2,-9.824331284E0,1.278365493E0
3.679463798E0,-2.333002165E-2,-9.834501266E0,1.235294700E0
3.684240673E0,-1.046859920E-1,-9.848857880E0,1.139581800E0
3.689017548E0,-1.627119333E-1,-9.848857880E0,1.044467092E0
3.693794370E0,-1.962114573E-1,-9.848857880E0,9.481559992E-1
3.698571245E0,-2.207378894E-1,-9.858428955E0,8.141579032E-1
3.703348120E0,-2.309073806E-1,-9.877572060E0,7.130611539E-1
3.708124995E0,-2.267199457E-1,-9.891928673E0,6.071787477E-1
3.712901870E0,-2.081755698E-1,-9.906285286E0,5.162515044E-1
3.717678693E0,-2.135594189E-1,-9.901499748E0,4.253242314E-1
3.722455568E0,-1.854437590E-1,-9.906285286E0,3.720839322E-1
3.727232443E0,-1.758724600E-1,-9.891928673E0,3.625126183E-1
3.732009318E0,-1.471585929E-1,-9.882357597E0,3.864408433E-1
3.736786141E0,-9.990034252E-2,-9.877572060E0,4.199403822E-1
3.741563016E0,-7.537391037E-2,-9.857831001E0,4.821537733E-1
3.746339891E0,-5.144568533E-2,-9.857831001E0,5.347958803E-1
3.751116766E0,-4.606183618E-2,-9.843474388E0,6.209374666E-1
3.755893641E0,-4.606183618E-2,-9.833903313E0,6.831508875E-1
3.760670464E0,-4.546362907E-2,-9.809974670E0,7.405785918E-1
3.765447339E0,-5.503492057E-2,-9.805189133E0,7.848458290E-1
3.770224214E0,-9.750752151E-2,-9.809974670E0,8.279166222E-1
3.775001089E0,-1.304088384E-1,-9.815358162E0,8.763712645E-1
3.779777912E0,-1.345962733E-1,-9.810572624E0,9.194421172E-1
3.784554787E0,-1.202393398E-1,-9.815358162E0,9.337990284E-1
3.789331662E0,-1.064806059E-1,-9.824930191E0,9.385846853E-1
3.794108537E0,-8.733802289E-2,-9.820143700E0,9.475577474E-1
3.798885360E0,-6.340979785E-2,-9.848857880E0,9.571290612E-1
3.803662235E0,-5.982056726E-3,-9.858428955E0,9.571290612E-1
3.808439110E0,4.187439755E-2,-9.863214493E0,9.565308690E-1
3.813215985E0,9.451649338E-2,-9.862616539E0,9.469595551E-1
3.817992860E0,1.178465188E-1,-9.867402077E0,9.469595551E-1
3.822769683E0,1.752742529E-1,-9.872187614E0,9.367900491E-1
3.827546558E0,2.129612118E-1,-9.848259926E0,9.032905698E-1
3.832323433E0,2.506481707E-1,-9.833304405E0,8.835497499E-1
3.837100308E0,2.219343036E-1,-9.823733330E0,8.596215248E-1
3.841877131E0,2.602194548E-1,-9.833304405E0,8.452646136E-1
3.846654006E0,2.787638307E-1,-9.818947792E0,8.069794178E-1
3.851430881E0,3.026920557E-1,-9.804591179E0,8.021938205E-1
3.856207756E0,3.260220885E-1,-9.804591179E0,7.824530005E-1
3.860984631E0,3.499503136E-1,-9.789635658E0,7.920243144E-1
3.865761454E0,3.595215976E-1,-9.780064583E0,7.728816867E-1
3.870538329E0,3.451646566E-1,-9.780064583E0,7.920243144E-1
3.875315204E0,3.451646566E-1,-9.765707016E0,7.872386575E-1
3.880092079E0,3.595215976E-1,-9.756135941E0,7.872386575E-1
3.884868902E0,3.637090325E-1,-9.746564865E0,7.680960894E-1
3.889645777E0,3.589234054E-1,-9.751350403E0,7.680960894E-1
3.894422652E0,3.589234054E-1,-9.736993790E0,7.776673436E-1
3.899199527E0,3.780659735E-1,-9.746564865E0,7.633104324E-1
3.903976402E0,3.972085714E-1,-9.746564865E0,7.627122402E-1
3.908753225E0,4.211367965E-1,-9.751350403E0,7.627122402E-1
3.913530100E0,4.396811724E-1,-9.741779327E0,7.573283911E-1
3.918306975E0,4.540380836E-1,-9.751350403E0,7.722834945E-1
3.923083850E0,4.971089065E-1,-9.736394882E0,7.770691514E-1
3.927860673E0,5.210371017E-1,-9.741181374E0,7.716853023E-1
3.932637548E0,5.497509837E-1,-9.755537987E0,8.003991842E-1
3.937414423E0,5.874379873E-1,-9.755537987E0,7.956135273E-1
3.942191298E0,6.113662124E-1,-9.774680138E0,8.147560954E-1
3.946968173E0,6.352944374E-1,-9.779465675E0,8.243274093E-1
3.951744995E0,6.305087805E-1,-9.789037704E0,8.482556343E-1
3.956521870E0,6.215356588E-1,-9.798608780E0,8.673982024E-1
3.961298745E0,6.119644046E-1,-9.798608780E0,8.817551732E-1
3.966075620E0,6.119644046E-1,-9.808179855E0,8.961120844E-1
3.970852443E0,5.928218365E-1,-9.808179855E0,9.008977413E-1
3.975629318E0,5.599204898E-1,-9.803992271E0,9.062815905E-1
3.980406193E0,5.216353536E-1,-9.803992271E0,9.158528447E-1
3.985183068E0,4.743770957E-1,-9.780064583E0,9.206385016E-1
3.989959943E0,4.552344978E-1,-9.789635658E0,9.164510965E-1
3.994736766E0,4.265206456E-1,-9.775279045E0,9.308080077E-1
3.999513641E0,3.744767308E-1,-9.760921478E0,9.499505758E-1
4.004290516E0,3.649054468E-1,-9.751350403E0,9.553344250E-1
4.009067391E0,3.415754437E-1,-9.765707016E0,9.696913958E-1
4.013844214E0,3.224328458E-1,-9.746564865E0,9.888339639E-1
4.018621089E0,2.985046208E-1,-9.746564865E0,9.936196208E-1
4.023397964E0,2.889333367E-1,-9.741779327E0,1.007976532E0
4.028174839E0,2.656033039E-1,-9.736993790E0,9.990034699E-1
4.032951714E0,2.554338276E-1,-9.708279610E0,9.894321561E-1
4.037728537E0,2.362912297E-1,-9.703494072E0,9.750752449E-1
4.042505412E0,2.267199457E-1,-9.708279610E0,9.607182741E-1
4.047282287E0,2.123630047E-1,-9.713065147E0,9.367900491E-1
4.052059162E0,1.842473447E-1,-9.722636223E0,9.128618240E-1
4.056835985E0,1.555334777E-1,-9.736993790E0,8.889335990E-1
4.061612860E0,1.316052526E-1,-9.742377281E0,8.554341197E-1
4.066389735E0,1.357926875E-1,-9.751948357E0,8.410771489E-1
4.071166610E0,1.076770201E-1,-9.766305923E0,8.219345808E-1
4.075943433E0,1.076770201E-1,-9.771091461E0,8.123632669E-1
4.080720308E0,1.022931710E-1,-9.780662537E0,7.884350419E-1
4.085497183E0,1.166501045E-1,-9.771091461E0,7.836494446E-1
4.090274058E0,1.214357466E-1,-9.780662537E0,7.740781307E-1
4.095050881E0,1.501496136E-1,-9.790233612E0,7.740781307E-1
4.099827808E0,1.830509305E-1,-9.785448074E0,7.639086246E-1
4.104604631E0,1.926222295E-1,-9.795019150E0,7.441678643E-1
4.109381506E0,2.165504545E-1,-9.780662537E0,7.585247755E-1
4.114158381E0,2.309073806E-1,-9.760921478E0,7.686942816E-1
4.118935204E0,2.542374134E-1,-9.756135941E0,7.686942816E-1
4.123712079E0,2.590230405E-1,-9.746564865E0,7.782655358E-1
4.128488954E0,2.829512656E-1,-9.736993790E0,7.926225066E-1
4.133265829E0,3.020938635E-1,-9.727422714E0,7.920243144E-1
4.138042704E0,3.260220885E-1,-9.727422714E0,8.063812256E-1
4.142819527E0,3.403790295E-1,-9.712467194E0,8.303094506E-1
4.147596402E0,3.499503136E-1,-9.702896118E0,8.494520187E-1
4.152373277E0,3.595215976E-1,-9.698110580E0,8.446664214E-1
4.157150152E0,3.786641955E-1,-9.707681656E0,8.685946465E-1
4.161926975E0,3.834498227E-1,-9.712467194E0,8.829515576E-1
4.166703850E0,3.882354796E-1,-9.702896118E0,8.925228715E-1
4.171480725E0,3.738785386E-1,-9.712467194E0,9.020941257E-1
4.176257600E0,3.930211067E-1,-9.726823807E0,9.068797827E-1
4.181034423E0,3.978067636E-1,-9.746564865E0,9.116654396E-1
4.185811298E0,3.696911037E-1,-9.756135941E0,9.260223508E-1
4.190588173E0,3.744767308E-1,-9.756135941E0,9.260223508E-1
4.195365048E0,3.601198196E-1,-9.760921478E0,9.260223508E-1
4.200141923E0,3.505485058E-1,-9.760921478E0,9.122636318E-1
4.204918745E0,3.505485058E-1,-9.775279045E0,8.973084688E-1
4.209695620E0,3.601198196E-1,-9.765707016E0,8.973084688E-1
4.214472495E0,3.457628787E-1,-9.770493507E0,8.925228715E-1
4.219249370E0,3.074777126E-1,-9.784850121E0,9.074779749E-1
4.224026245E0,2.889333367E-1,-9.789635658E0,8.979067206E-1
4.228803068E0,2.793620527E-1,-9.804591179E0,8.931210637E-1
4.233579943E0,2.602194548E-1,-9.814162254E0,8.835497499E-1
4.238356818E0,2.554338276E-1,-9.818947792E0,8.931210637E-1
4.243133693E0,2.315055877E-1,-9.809376717E0,8.739784956E-1
4.247910516E0,2.219343036E-1,-9.818947792E0,8.500502706E-1
4.252687391E0,2.171486616E-1,-9.833304405E0,8.404789567E-1
4.257464266E0,2.219343036E-1,-9.833304405E0,8.309076428E-1
4.262241141E0,2.267199457E-1,-9.828518867E0,8.165507317E-1
4.267018016E0,2.309073806E-1,-9.814162254E0,8.021938205E-1
4.271794839E0,2.404786795E-1,-9.828518867E0,7.974081635E-1
4.276571714E0,2.548356056E-1,-9.828518867E0,7.782655358E-1
4.281348589E0,2.787638307E-1,-9.823733330E0,7.686942816E-1
4.286125464E0,2.829512656E-1,-9.833304405E0,7.489534616E-1
4.290902287E0,2.781656384E-1,-9.818947792E0,7.298108935E-1
4.295679162E0,2.925225794E-1,-9.833304405E0,7.196413875E-1
4.300456037E0,2.829512656E-1,-9.809376717E0,7.004988194E-1
4.305232912E0,3.014956415E-1,-9.813564301E0,6.813562512E-1
4.310009787E0,3.158525825E-1,-9.813564301E0,6.717849374E-1
4.314786610E0,3.158525825E-1,-9.808777809E0,6.622136831E-1
4.319563485E0,3.158525825E-1,-9.808777809E0,6.717849374E-1
4.324340360E0,3.302095234E-1,-9.794421196E0,6.813562512E-1
4.329117235E0,3.302095234E-1,-9.789635658E0,6.861419082E-1
4.333894058E0,3.349951804E-1,-9.765707016E0,6.717849374E-1
4.338670933E0,3.445664644E-1,-9.780064583E0,6.622136831E-1
4.343447808E0,3.349951804E-1,-9.765707016E0,6.717849374E-1
4.348224683E0,3.445664644E-1,-9.751350403E0,7.004988194E-1
4.353001506E0,3.493520916E-1,-9.751350403E0,7.052844763E-1
4.357778381E0,3.541377485E-1,-9.751350403E0,7.100701332E-1
4.362555256E0,3.541377485E-1,-9.760921478E0,7.339983582E-1
4.367332131E0,3.589234054E-1,-9.765707016E0,7.728816867E-1
4.372109006E0,3.547359705E-1,-9.770493507E0,7.968099117E-1
4.376885829E0,3.499503136E-1,-9.789635658E0,8.111668825E-1
4.381662704E0,3.451646566E-1,-9.794421196E0,8.303094506E-1
4.386439579E0,3.361915946E-1,-9.799206734E0,8.542376757E-1
4.391216454E0,3.409772217E-1,-9.799206734E0,8.733802438E-1
4.395993277E0,3.266202807E-1,-9.799804688E0,8.691928387E-1
4.400770152E0,3.314059377E-1,-9.789635658E0,8.691928387E-1
4.405547027E0,3.170489967E-1,-9.775279045E0,8.883354068E-1
4.410323902E0,3.266202807E-1,-9.770493507E0,8.787640929E-1
4.415100777E0,3.314059377E-1,-9.736993790E0,8.835497499E-1
4.419877600E0,3.403790295E-1,-9.727422714E0,8.638089895E-1
4.424654475E0,3.547359705E-1,-9.717850685E0,8.829515576E-1
4.429431350E0,3.690928817E-1,-9.712467194E0,8.829515576E-1
4.434208225E0,3.595215976E-1,-9.713065147E0,8.877372146E-1
4.438985048E0,3.547359705E-1,-9.722636223E0,8.877372146E-1
4.443761923E0,3.457628787E-1,-9.727422714E0,9.020941257E-1
4.448538798E0,3.314059377E-1,-9.746564865E0,8.931210637E-1
4.453315673E0,3.122633696E-1,-9.741779327E0,8.931210637E-1
4.458092495E0,2.650051117E-1,-9.756135941E0,8.883354068E-1
4.462869370E0,2.458625287E-1,-9.785448074E0,8.644071817E-1
4.467646245E0,2.075773627E-1,-9.775876999E0,8.650053740E-1
4.472423120E0,1.459621787E-1,-9.775876999E0,8.458628058E-1
4.477199995E0,9.810572863E-2,-9.790233612E0,8.362914920E-1
4.481976818E0,7.896314561E-2,-9.780662537E0,8.027920127E-1
4.486753693E0,4.067798331E-2,-9.780662537E0,7.938188910E-1
4.491530568E0,1.674975827E-2,-9.790832520E0,7.794619799E-1
4.496307443E0,2.153540403E-2,-9.800403595E0,7.746763229E-1
4.501084318E0,2.153540403E-2,-9.786046028E0,7.453642488E-1
4.505861141E0,-1.256231871E-2,-9.814760208E0,7.214360237E-1
4.510638016E0,-1.256231871E-2,-9.819545746E0,6.975077987E-1
4.515414891E0,-2.991028363E-3,-9.805189133E0,6.975077987E-1
4.520191766E0,3.050848842E-2,-9.795618057E0,6.921239495E-1
4.524968589E0,2.572284266E-2,-9.775876999E0,6.975077987E-1
4.529745464E0,3.050848842E-2,-9.780662537E0,6.873382926E-1
4.534522339E0,4.486542568E-2,-9.780662537E0,6.969096065E-1
4.539299214E0,5.922235921E-2,-9.790233612E0,6.825526357E-1
4.544076037E0,7.836493850E-2,-9.775876999E0,6.729813814E-1
4.548852912E0,8.733802289E-2,-9.785448074E0,6.634100676E-1
4.553629787E0,8.733802289E-2,-9.775876999E0,6.586244106E-1
4.558406662E0,8.255238086E-2,-9.766305923E0,6.442674994E-1
4.563183537E0,6.340979785E-2,-9.751948357E0,6.538388133E-1
4.567960360E0,7.776673883E-2,-9.747162819E0,6.490531564E-1
4.572737235E0,8.733802289E-2,-9.742377281E0,6.394818425E-1
4.577514110E0,7.298108935E-2,-9.747162819E0,6.490531564E-1
4.582290985E0,1.064806059E-1,-9.732806206E0,6.442674994E-1
4.587067808E0,1.064806059E-1,-9.717850685E0,6.442674994E-1
4.591844683E0,1.208375469E-1,-9.708279610E0,6.729813814E-1
4.596621558E0,1.543370634E-1,-9.722636223E0,6.915257573E-1
4.601398433E0,1.686939895E-1,-9.722636223E0,7.250252366E-1
4.606175308E0,1.782652885E-1,-9.713065147E0,7.298108935E-1
4.610952131E0,1.782652885E-1,-9.713065147E0,7.489534616E-1
4.615729006E0,1.926222295E-1,-9.722636223E0,7.734799385E-1
4.620505881E0,2.069791555E-1,-9.727422714E0,7.974081635E-1
4.625282756E0,2.165504545E-1,-9.732208252E0,8.021938205E-1
4.630059579E0,1.836491376E-1,-9.751948357E0,8.267202377E-1
4.634836454E0,1.884347796E-1,-9.771091461E0,8.267202377E-1
4.639613329E0,1.692921966E-1,-9.775876999E0,8.650053740E-1
4.644390204E0,1.746760458E-1,-9.799804688E0,8.937192559E-1
4.649167027E0,1.938186288E-1,-9.804591179E0,9.032905698E-1
4.653943902E0,2.129612118E-1,-9.823733330E0,9.080761671E-1
4.658720777E0,2.177468538E-1,-9.853045464E0,8.985049129E-1
4.663497652E0,2.273181528E-1,-9.857831001E0,8.841479421E-1
4.668274527E0,2.793620527E-1,-9.847661972E0,8.596215248E-1
4.673051350E0,3.266202807E-1,-9.847661972E0,8.356932998E-1
4.677828225E0,3.547359705E-1,-9.852447510E0,8.063812256E-1
4.682605100E0,4.073780477E-1,-9.847661972E0,7.968099117E-1
4.687381975E0,4.875376225E-1,-9.842277527E0,7.722834945E-1
4.692158798E0,5.587241054E-1,-9.832706451E0,7.280163169E-1
4.696935673E0,6.203392744E-1,-9.817750931E0,7.130611539E-1
4.701712548E0,6.634100676E-1,-9.808179855E0,6.891329288E-1
4.706489423E0,6.963114142E-1,-9.808179855E0,6.795616150E-1
4.711266298E0,7.483552694E-1,-9.793823242E0,6.550351977E-1
4.716043120E0,7.722834945E-1,-9.803394318E0,6.454638839E-1
4.720819995E0,7.435696125E-1,-9.822537422E0,6.454638839E-1
4.725596870E0,7.244270444E-1,-9.827322960E0,6.263213158E-1
4.730373745E0,7.196413875E-1,-9.798608780E0,6.071787477E-1
4.735150568E0,7.100701332E-1,-9.789037704E0,6.358926296E-1
4.739927443E0,7.202396393E-1,-9.784252167E0,6.598208547E-1
4.744704318E0,7.010970116E-1,-9.779465675E0,6.795616150E-1
4.749481193E0,6.819544435E-1,-9.779465675E0,7.034898400E-1
4.754258068E0,6.729813814E-1,-9.765109062E0,7.178468108E-1
4.759034891E0,6.442674994E-1,-9.755537987E0,7.322037220E-1
4.763811766E0,5.868397355E-1,-9.711869240E0,7.471588850E-1
4.768588641E0,5.826523304E-1,-9.707083702E0,7.621139884E-1
4.773365516E0,5.682953596E-1,-9.687940598E0,7.812566161E-1
4.778142339E0,5.970092416E-1,-9.664012909E0,8.003991842E-1
4.782919214E0,6.065805554E-1,-9.654440880E0,8.051848412E-1
4.787696089E0,6.490531564E-1,-9.629914284E0,8.285148144E-1
4.792472964E0,6.969096065E-1,-9.629914284E0,8.428717852E-1
4.797249787E0,7.208378315E-1,-9.634700775E0,8.380861282E-1
4.802026662E0,7.160521746E-1,-9.649057388E0,8.907282352E-1
4.806803537E0,7.214360237E-1,-9.658628464E0,9.290133715E-1
4.811580412E0,7.262216806E-1,-9.683155060E0,9.481559992E-1
4.816357287E0,7.166503668E-1,-9.683155060E0,9.481559992E-1
4.821134110E0,7.070791125E-1,-9.702297211E0,9.481559992E-1
4.825910985E0,6.927221417E-1,-9.711869240E0,9.343972206E-1
4.830687860E0,6.975077987E-1,-9.726225853E0,8.907282352E-1
4.835464735E0,6.831508875E-1,-9.731011391E0,8.961120844E-1
4.840241558E0,6.640082598E-1,-9.755537987E0,8.530412912E-1
4.845018433E0,6.496513486E-1,-9.745966911E0,8.243274093E-1
4.849795308E0,6.400800347E-1,-9.745966911E0,7.956135273E-1
4.854572183E0,5.970092416E-1,-9.750752449E0,7.860422134E-1
4.859349058E0,5.635097623E-1,-9.745966911E0,7.764709592E-1
4.864125881E0,5.210371017E-1,-9.765109062E0,7.818548083E-1
4.868902756E0,4.875376225E-1,-9.774680138E0,7.866404653E-1
4.873679631E0,4.259224236E-1,-9.789635658E0,7.866404653E-1
4.878456506E0,3.882354796E-1,-9.775279045E0,8.111668825E-1
4.883233329E0,3.547359705E-1,-9.775279045E0,8.159525394E-1
4.888010204E0,3.451646566E-1,-9.775279045E0,8.111668825E-1
4.892787079E0,3.308077157E-1,-9.756135941E0,8.255237937E-1
4.897563954E0,3.212364316E-1,-9.741779327E0,8.303094506E-1
4.902340777E0,3.116651475E-1,-9.746564865E0,8.356932998E-1
4.907117652E0,3.260220885E-1,-9.736993790E0,8.303094506E-1
4.911894527E0,3.403790295E-1,-9.717850685E0,8.159525394E-1
4.916671402E0,3.643072546E-1,-9.712467194E0,8.303094506E-1
4.921448277E0,3.595215976E-1,-9.712467194E0,8.398807645E-1
4.926225100E0,3.690928817E-1,-9.717252731E0,8.398807645E-1
4.931001975E0,3.882354796E-1,-9.722038269E0,8.590233326E-1
4.935778850E0,4.121637046E-1,-9.722038269E0,8.829515576E-1
4.940555725E0,4.360919297E-1,-9.745966911E0,8.973084688E-1
4.945332548E0,4.169493318E-1,-9.746564865E0,8.829515576E-1
4.950109423E0,3.882354796E-1,-9.751350403E0,8.925228715E-1
4.954886298E0,3.978067636E-1,-9.751350403E0,8.733802438E-1
4.959663173E0,3.786641955E-1,-9.756135941E0,8.638089895E-1
4.964439995E0,3.690928817E-1,-9.765707016E0,8.398807645E-1
4.969216870E0,3.547359705E-1,-9.789635658E0,8.207381964E-1
4.973993745E0,3.361915946E-1,-9.823733330E0,8.255237937E-1
4.978770620E0,3.122633696E-1,-9.828518867E0,8.261220455E-1
4.983547495E0,2.931207716E-1,-9.847661972E0,8.261220455E-1
4.988324318E0,2.644068897E-1,-9.857233047E0,8.165507317E-1
4.993101193E0,2.123630047E-1,-9.842875481E0,8.309076428E-1
4.997878068E0,1.836491376E-1,-9.823733330E0,8.554341197E-1
5.002654943E0,1.411765367E-1,-9.818947792E0,8.793623447E-1
5.007431766E0,1.130608693E-1,-9.809376717E0,9.134600163E-1
5.012208641E0,1.034895778E-1,-9.814760208E0,9.326026440E-1
5.016985516E0,1.082752272E-1,-9.824331284E0,9.469595551E-1
5.021762391E0,1.130608693E-1,-9.819545746E0,9.469595551E-1
5.026539266E0,1.322034448E-1,-9.809376717E0,9.224331379E-1
5.031316089E0,1.746760458E-1,-9.790233612E0,8.937192559E-1
5.036092964E0,2.075773627E-1,-9.785448074E0,8.793623447E-1
5.040869839E0,2.410768867E-1,-9.775876999E0,8.691928387E-1
5.045646714E0,2.644068897E-1,-9.760921478E0,8.596215248E-1
5.050423537E0,3.266202807E-1,-9.746564865E0,8.739784956E-1
5.055200412E0,3.547359705E-1,-9.732208252E0,8.877372146E-1
5.059977287E0,3.696911037E-1,-9.741779327E0,9.020941257E-1
5.064754162E0,3.978067636E-1,-9.741779327E0,9.164510965E-1
5.069530985E0,4.313062727E-1,-9.726823807E0,9.355936646E-1
5.074307860E0,4.600201547E-1,-9.722038269E0,9.308080077E-1
5.079084735E0,4.785645306E-1,-9.693324089E0,9.110672474E-1
5.083861610E0,5.066801906E-1,-9.678967476E0,8.823533654E-1
5.088638485E0,5.258227587E-1,-9.664012909E0,8.584251404E-1
5.093415308E0,5.306084156E-1,-9.668798447E0,8.488538265E-1
5.098192183E0,5.353940725E-1,-9.673583984E0,8.584251404E-1
5.102969058E0,5.353940725E-1,-9.698110580E0,8.871390224E-1
5.107745933E0,5.407779217E-1,-9.731609344E0,8.967102766E-1
5.112522808E0,5.455635786E-1,-9.760323524E0,9.254241586E-1
5.117299631E0,5.407779217E-1,-9.784252167E0,9.397810698E-1
5.122076506E0,5.455635786E-1,-9.794421196E0,9.493523836E-1
5.126853381E0,5.318048596E-1,-9.799206734E0,9.637092948E-1
5.131630256E0,5.126622319E-1,-9.799206734E0,9.780662656E-1
5.136407079E0,5.222335458E-1,-9.794421196E0,9.828519225E-1
5.141183954E0,5.222335458E-1,-9.799206734E0,9.732806087E-1
5.145960829E0,5.222335458E-1,-9.827920914E0,9.828519225E-1
5.150737704E0,5.461617708E-1,-9.847063065E0,9.637092948E-1
5.155514527E0,5.461617708E-1,-9.866206169E0,9.493523836E-1
5.160291402E0,5.557330847E-1,-9.881160736E0,9.349954724E-1
5.165068277E0,5.838487148E-1,-9.870991707E0,9.206385016E-1
5.169845152E0,5.886343718E-1,-9.861420631E0,8.913264275E-1
5.174622027E0,6.215356588E-1,-9.861420631E0,8.578268886E-1
5.179398850E0,6.352944374E-1,-9.842277527E0,8.243274093E-1
5.184175725E0,6.735795736E-1,-9.832108498E0,7.854440212E-1
5.188952600E0,6.777670383E-1,-9.827322960E0,7.513462901E-1
5.193729475E0,6.873382926E-1,-9.841679573E0,7.178468108E-1
5.198506298E0,6.867401004E-1,-9.836894035E0,6.795616150E-1
5.203283173E0,7.058826685E-1,-9.836894035E0,6.454638839E-1
5.208060048E0,7.292127013E-1,-9.841679573E0,6.215356588E-1
5.212836923E0,7.579265833E-1,-9.836894035E0,5.880361795E-1
5.217613745E0,7.716853023E-1,-9.817750931E0,5.593222976E-1
5.222390620E0,7.860422134E-1,-9.803394318E0,5.587241054E-1
5.227167495E0,8.045865893E-1,-9.774082184E0,5.443671346E-1
5.231944370E0,8.237292171E-1,-9.769296646E0,5.539384484E-1
5.236721245E0,8.333004713E-1,-9.759725571E0,5.587241054E-1
5.241498068E0,8.524430394E-1,-9.750154495E0,5.874379873E-1
5.246274943E0,8.763712645E-1,-9.750154495E0,6.113662124E-1
5.251051818E0,9.050851464E-1,-9.739984512E0,6.448656917E-1
5.255828693E0,9.194421172E-1,-9.735198975E0,6.735795736E-1
5.260605516E0,9.248259664E-1,-9.725627899E0,7.166503668E-1
5.265382391E0,9.248259664E-1,-9.720842361E0,7.453642488E-1
5.270159266E0,9.104689956E-1,-9.706484795E0,7.890332937E-1
5.274936141E0,9.110672474E-1,-9.706484795E0,8.129615188E-1
5.279712964E0,9.014959335E-1,-9.701699257E0,8.512466550E-1
5.284489839E0,8.685946465E-1,-9.682557106E0,8.805587292E-1
5.289266714E0,8.685946465E-1,-9.672985077E0,9.188438654E-1
5.294043589E0,8.733802438E-1,-9.672985077E0,9.475577474E-1
5.298820464E0,8.691928387E-1,-9.672985077E0,9.906286001E-1
5.303597287E0,8.596215248E-1,-9.682557106E0,1.004985452E0
5.308374162E0,8.644071817E-1,-9.668199539E0,1.019342422E0
5.313151037E0,8.596215248E-1,-9.672985077E0,1.052842021E0
5.317927912E0,8.410771489E-1,-9.682557106E0,1.077368379E0
5.322704787E0,8.410771489E-1,-9.692726135E0,1.072582722E0
5.327481610E0,8.267202377E-1,-9.683155060E0,1.096511006E0
5.332258485E0,8.362914920E-1,-9.697511673E0,1.082154036E0
5.337035360E0,8.123632669E-1,-9.721440315E0,1.067797065E0
5.341812235E0,8.129615188E-1,-9.740582466E0,1.082154036E0
5.346589058E0,7.986045480E-1,-9.764511108E0,1.063011408E0
5.351365933E0,7.842476368E-1,-9.793823242E0,1.039083242E0
5.356142808E0,7.459624410E-1,-9.832108498E0,1.020538807E0
5.360919683E0,7.172485590E-1,-9.875777245E0,9.918249846E-1
5.365696506E0,6.987041831E-1,-9.904491425E0,9.726824164E-1
5.370473381E0,6.699903607E-1,-9.948160172E0,9.487541914E-1
5.375250256E0,6.125625968E-1,-9.967302322E0,9.152546525E-1
5.380027131E0,6.029912829E-1,-9.976874352E0,9.014959335E-1
5.384803954E0,5.838487148E-1,-9.996016502E0,8.679963946E-1
5.389580829E0,5.599204898E-1,-1.000139999E1,8.440681696E-1
5.394357704E0,5.407779217E-1,-1.003011417E1,8.105686903E-1
5.399134579E0,5.126622319E-1,-1.003968525E1,7.962117195E-1
5.403911402E0,5.024927258E-1,-1.005404282E1,7.722834945E-1
5.408688277E0,5.264210105E-1,-1.005404282E1,7.525427341E-1
5.413465152E0,5.168496966E-1,-1.004447079E1,7.046862841E-1
5.418242027E0,5.162515044E-1,-1.002532864E1,6.514459848E-1
5.423018902E0,4.971089065E-1,-9.996614456E0,6.275177598E-1
5.427795725E0,5.012963414E-1,-9.962516785E0,6.083751321E-1
5.432572600E0,5.156532526E-1,-9.924231529E0,5.844469070E-1
5.437349475E0,5.150550604E-1,-9.890133858E0,5.796613097E-1
5.442126350E0,5.485545993E-1,-9.866206169E0,5.461617708E-1
5.446903173E0,5.718846321E-1,-9.837491989E0,5.264210105E-1
5.451680048E0,5.856433511E-1,-9.812965393E0,4.929214716E-1
5.456456923E0,6.095715761E-1,-9.784252167E0,4.642075896E-1
5.461233798E0,6.281159520E-1,-9.759725571E0,4.492524564E-1
5.466010673E0,6.089733839E-1,-9.721440315E0,4.253242314E-1
5.470787495E0,5.898307562E-1,-9.683155060E0,4.354937077E-1
5.475564370E0,5.946164131E-1,-9.668798447E0,4.348955154E-1
5.480341245E0,5.617151260E-1,-9.668798447E0,4.929214716E-1
5.485118120E0,5.617151260E-1,-9.644869804E0,5.359922647E-1
5.489894943E0,5.383850932E-1,-9.644869804E0,6.179464459E-1
5.494671818E0,5.389832854E-1,-9.640084267E0,7.232306600E-1
5.499448693E0,5.156532526E-1,-9.635298729E0,8.153542876E-1
5.504225568E0,4.881358147E-1,-9.625727654E0,9.302098155E-1
5.509002443E0,4.791627228E-1,-9.620942116E0,1.021735311E0
5.513779266E0,4.893322289E-1,-9.644869804E0,1.117448211E0
5.518556141E0,4.755735099E-1,-9.664610863E0,1.184447169E0
5.523333016E0,4.809573591E-1,-9.688538551E0,1.252044439E0
5.528109839E0,4.713860750E-1,-9.707681656E0,1.290329576E0
5.532886714E0,4.815555513E-1,-9.736394882E0,1.333400369E0
5.537663589E0,4.863412082E-1,-9.746564865E0,1.342971683E0
5.542440464E0,4.815555513E-1,-9.741779327E0,1.342971683E0
5.547217339E0,4.863412082E-1,-9.741779327E0,1.333400369E0
5.551994162E0,5.048855543E-1,-9.745966911E0,1.299900889E0
5.556771037E0,4.905286431E-1,-9.731609344E0,1.256830096E0
5.561547912E0,5.042873621E-1,-9.741181374E0,1.198804140E0
5.566324787E0,5.180460811E-1,-9.731609344E0,1.131805062E0
5.571101610E0,5.318048596E-1,-9.717252731E0,1.078564763E0
5.575878485E0,5.270192027E-1,-9.717252731E0,1.030708313E0
5.580655360E0,5.359922647E-1,-9.712467194E0,9.589236975E-1
5.585432235E0,5.216353536E-1,-9.707681656E0,9.014959335E-1
5.590209110E0,5.066801906E-1,-9.712467194E0,8.392825127E-1
5.594985933E0,5.156532526E-1,-9.698110580E0,7.668996453E-1
5.599762808E0,5.108676553E-1,-9.702896118E0,6.897311211E-1
5.604539683E0,5.006981492E-1,-9.707681656E0,6.323033571E-1
5.609316558E0,4.911268353E-1,-9.702896118E0,5.700899959E-1
5.614093381E0,4.761717021E-1,-9.707681656E0,5.365904570E-1
5.618870256E0,4.671986103E-1,-9.745966911E0,5.270192027E-1
5.623647131E0,4.671986103E-1,-9.779465675E0,5.174478889E-1
5.628424006E0,4.815555513E-1,-9.794421196E0,5.222335458E-1
5.633200881E0,5.006981492E-1,-9.799206734E0,5.318048596E-1
5.637977704E0,5.246263742E-1,-9.803992271E0,5.461617708E-1
5.642754579E0,5.246263742E-1,-9.789037704E0,5.605186820E-1
5.647531454E0,5.485545993E-1,-9.789037704E0,5.892325640E-1
5.652308329E0,5.676971674E-1,-9.793823242E0,6.179464459E-1
5.657085152E0,5.868397355E-1,-9.784252167E0,6.412764788E-1
5.661862027E0,5.916253924E-1,-9.784252167E0,6.705885530E-1
5.666638902E0,6.107679605E-1,-9.774680138E0,6.939185858E-1
5.671415777E0,6.299105883E-1,-9.774680138E0,7.274180651E-1
5.676192600E0,6.442674994E-1,-9.779465675E0,7.465606928E-1
5.680969475E0,6.538388133E-1,-9.784252167E0,7.806583643E-1
5.685746350E0,6.634100676E-1,-9.760323524E0,7.998009920E-1
5.690523225E0,6.496513486E-1,-9.760323524E0,8.099704385E-1
5.695300048E0,6.305087805E-1,-9.755537987E0,8.291130662E-1
5.700076923E0,6.209374666E-1,-9.741181374E0,8.291130662E-1
5.704853798E0,6.017948985E-1,-9.736394882E0,8.147560954E-1
5.709630673E0,6.017948985E-1,-9.726823807E0,8.147560954E-1
5.714407495E0,5.874379873E-1,-9.726823807E0,7.908278704E-1
5.719184370E0,5.826523304E-1,-9.717252731E0,7.812566161E-1
5.723961245E0,5.730810165E-1,-9.736394882E0,7.621139884E-1
5.728738120E0,5.778666735E-1,-9.736394882E0,7.668996453E-1
5.733514995E0,5.730810165E-1,-9.736394882E0,7.328019142E-1
5.738291818E0,5.772684813E-1,-9.745966911E0,7.184450030E-1
5.743068693E0,5.629115105E-1,-9.736394882E0,6.945167780E-1
5.747845568E0,5.724828243E-1,-9.741181374E0,7.088736892E-1
5.752622443E0,5.820540786E-1,-9.741181374E0,7.136593461E-1
5.757399266E0,5.676971674E-1,-9.731609344E0,7.136593461E-1
5.762176141E0,5.581258535E-1,-9.722038269E0,7.088736892E-1
5.766953016E0,5.581258535E-1,-9.717252731E0,6.993024349E-1
5.771729891E0,5.724828243E-1,-9.687940598E0,7.040880919E-1
5.776506766E0,5.820540786E-1,-9.678369522E0,7.088736892E-1
5.781283589E0,5.916253924E-1,-9.654440880E0,7.280163169E-1
5.786060464E0,6.011967063E-1,-9.649655342E0,7.274180651E-1
5.790837339E0,6.155536175E-1,-9.664012909E0,7.561319470E-1
5.795614214E0,6.203392744E-1,-9.644869804E0,7.663014531E-1
5.800391037E0,6.155536175E-1,-9.659226418E0,7.812566161E-1
5.805167912E0,6.251249313E-1,-9.673583984E0,8.003991842E-1
5.809944787E0,6.209374666E-1,-9.678369522E0,8.195417523E-1
5.814721662E0,6.305087805E-1,-9.659226418E0,8.386843204E-1
5.819498485E0,6.442674994E-1,-9.649655342E0,8.386843204E-1
5.824275360E0,6.586244106E-1,-9.634700775E0,8.428717852E-1
5.829052235E0,6.490531564E-1,-9.629914284E0,8.482556343E-1
5.833829110E0,6.496513486E-1,-9.659226418E0,8.578268886E-1
5.838605985E0,6.161518097E-1,-9.678369522E0,8.769695163E-1
5.843382808E0,6.065805554E-1,-9.697511673E0,8.721838593E-1
5.848159683E0,5.976074338E-1,-9.702297211E0,8.721838593E-1
5.852936558E0,5.784648657E-1,-9.707681656E0,8.673982024E-1
5.857713433E0,5.449653864E-1,-9.712467194E0,8.679963946E-1
5.862490308E0,5.401797295E-1,-9.707681656E0,8.536394835E-1
5.867267131E0,5.306084156E-1,-9.702896118E0,8.440681696E-1
5.872044006E0,5.353940725E-1,-9.678369522E0,8.147560954E-1
5.876820881E0,5.210371017E-1,-9.693324089E0,8.009973764E-1
5.881597704E0,5.066801906E-1,-9.688538551E0,7.962117195E-1
5.886374579E0,5.162515044E-1,-9.707681656E0,7.914260626E-1
5.891151454E0,5.162515044E-1,-9.712467194E0,8.057830334E-1
5.895928329E0,4.923232496E-1,-9.722038269E0,8.153542876E-1
5.900705204E0,5.018945336E-1,-9.722038269E0,8.344969153E-1
5.905482027E0,4.923232496E-1,-9.717252731E0,8.392825127E-1
5.910258902E0,4.785645306E-1,-9.722038269E0,8.632107973E-1
5.915035777E0,4.785645306E-1,-9.741181374E0,8.775677085E-1
5.919812652E0,4.504488707E-1,-9.751350403E0,8.877372146E-1
5.924589475E0,4.504488707E-1,-9.770493507E0,9.020941257E-1
5.929366350E0,4.552344978E-1,-9.794421196E0,8.973084688E-1
5.934143225E0,4.456632137E-1,-9.794421196E0,8.925228715E-1
5.938920100E0,4.456632137E-1,-9.780064583E0,8.877372146E-1
5.943696923E0,4.265206456E-1,-9.775279045E0,8.877372146E-1
5.948473798E0,4.073780477E-1,-9.775279045E0,8.829515576E-1
5.953250673E0,4.121637046E-1,-9.756135941E0,8.829515576E-1
5.958027548E0,4.313062727E-1,-9.760921478E0,8.877372146E-1
5.962804370E0,4.456632137E-1,-9.765109062E0,8.925228715E-1
5.967581245E0,4.408775866E-1,-9.760323524E0,9.068797827E-1
5.972358120E0,4.600201547E-1,-9.755537987E0,9.068797827E-1
5.977134995E0,4.642075896E-1,-9.750752449E0,8.919246197E-1
5.981911870E0,4.648058116E-1,-9.745966911E0,9.062815905E-1
5.986688693E0,4.785645306E-1,-9.736394882E0,9.062815905E-1
5.991465568E0,4.785645306E-1,-9.745966911E0,9.014959335E-1
5.996242443E0,4.642075896E-1,-9.755537987E0,8.919246197E-1
6.001019318E0,4.546363056E-1,-9.755537987E0,8.775677085E-1
6.005796141E0,4.265206456E-1,-9.755537987E0,8.733802438E-1
6.010573016E0,3.930211067E-1,-9.756135941E0,8.638089895E-1
6.015349891E0,3.930211067E-1,-9.750752449E0,8.638089895E-1
6.020126766E0,3.786641955E-1,-9.751350403E0,8.542376757E-1
6.024903641E0,3.595215976E-1,-9.726823807E0,8.446664214E-1
6.029680464E0,3.643072546E-1,-9.741181374E0,8.398807645E-1
6.034457339E0,3.451646566E-1,-9.760921478E0,8.255237937E-1
6.039234214E0,3.451646566E-1,-9.775279045E0,8.494520187E-1
6.044011089E0,3.355933726E-1,-9.789635658E0,8.303094506E-1
6.048787912E0,3.308077157E-1,-9.789635658E0,8.255237937E-1
6.053564787E0,3.212364316E-1,-9.784850121E0,8.015955687E-1
6.058341662E0,3.212364316E-1,-9.765707016E0,7.920243144E-1
6.063118537E0,3.308077157E-1,-9.756135941E0,7.776673436E-1
6.067895360E0,3.493520916E-1,-9.751350403E0,7.776673436E-1
6.072672235E0,3.780659735E-1,-9.741181374E0,7.824530005E-1
6.077449110E0,3.972085714E-1,-9.745966911E0,7.872386575E-1
6.082225985E0,4.115654826E-1,-9.741181374E0,7.872386575E-1
6.087002808E0,4.307080805E-1,-9.731609344E0,8.009973764E-1
6.091779683E0,4.588237405E-1,-9.722038269E0,8.105686903E-1
6.096556558E0,4.683950245E-1,-9.702896118E0,8.297112584E-1
6.101333433E0,4.971089065E-1,-9.698110580E0,8.584251404E-1
6.106110308E0,5.162515044E-1,-9.687940598E0,8.679963946E-1
6.110887131E0,5.497509837E-1,-9.673583984E0,8.871390224E-1
6.115664006E0,5.736792088E-1,-9.659226418E0,9.008977413E-1
6.120440881E0,5.784648657E-1,-9.668798447E0,9.104689956E-1
6.125217756E0,6.023930907E-1,-9.668798447E0,9.200403094E-1
6.129994579E0,6.071787477E-1,-9.692726135E0,9.487541914E-1
6.134771454E0,6.167500615E-1,-9.702297211E0,9.678967595E-1
6.139548329E0,6.023930907E-1,-9.692726135E0,9.631111026E-1
6.144325204E0,6.167500615E-1,-9.707083702E0,9.774680734E-1
6.149102027E0,6.173482537E-1,-9.707083702E0,9.918249846E-1
6.153878902E0,5.982056856E-1,-9.711869240E0,9.924231768E-1
6.158655777E0,5.742774606E-1,-9.711869240E0,9.924231768E-1
6.163432652E0,5.838487148E-1,-9.712467194E0,1.006780148E0
6.168209475E0,5.509474277E-1,-9.750752449E0,1.030708313E0
6.172986350E0,5.132604837E-1,-9.808777809E0,1.045663476E0
6.177763225E0,5.276173949E-1,-9.832706451E0,1.060020447E0
6.182540100E0,5.276173949E-1,-9.827920914E0,1.079162955E0
6.187316923E0,5.132604837E-1,-9.837491989E0,1.064806104E0
6.192093798E0,5.324030519E-1,-9.832706451E0,1.074377418E0
6.196870673E0,5.467599630E-1,-9.799206734E0,1.064207911E0
6.201647548E0,5.892325640E-1,-9.760323524E0,1.073779106E0
6.206424423E0,6.412764788E-1,-9.736394882E0,1.064207911E0
6.211201245E0,6.939185858E-1,-9.722038269E0,1.054038405E0
6.215978120E0,6.939185858E-1,-9.711869240E0,1.058824062E0
6.220754995E0,6.747759581E-1,-9.722038269E0,1.077966571E0
6.225531870E0,6.652047038E-1,-9.726823807E0,1.092323542E0
6.230308693E0,6.652047038E-1,-9.702297211E0,1.092323542E0
6.235085568E0,6.747759581E-1,-9.692726135E0,1.087537885E0
6.239862443E0,6.652047038E-1,-9.668798447E0,1.106680512E0
6.244639318E0,6.418746710E-1,-9.664012909E0,1.131206870E0
6.249416141E0,6.179464459E-1,-9.668798447E0,1.140778184E0
6.254193016E0,5.796613097E-1,-9.674181938E0,1.150349498E0
6.258969891E0,5.611169338E-1,-9.698110580E0,1.179661512E0
6.263746766E0,5.569294691E-1,-9.702896118E0,1.213161111E0
6.268523641E0,5.186443329E-1,-9.717252731E0,1.232303619E0
6.273300464E0,5.144568682E-1,-9.746564865E0,1.275374413E0
6.278077339E0,5.000999570E-1,-9.760921478E0,1.304686546E0
6.282854214E0,5.054838061E-1,-9.775279045E0,1.333400369E0
6.287631089E0,4.959124923E-1,-9.760921478E0,1.366899967E0
6.292407912E0,4.911268353E-1,-9.741779327E0,1.381256819E0
6.297184787E0,4.719842672E-1,-9.713065147E0,1.405185103E0
6.301961662E0,4.719842672E-1,-9.702896118E0,1.395613790E0
6.306738537E0,5.527420044E-1,-9.674181938E0,1.414756417E0
6.311515360E0,5.766702294E-1,-9.630513191E0,1.442872047E0
6.316292235E0,5.766702294E-1,-9.592227936E0,1.471585870E0
6.321069110E0,5.958128572E-1,-9.563513756E0,1.485942841E0
6.325845985E0,6.197410822E-1,-9.519845009E0,1.485942841E0
6.330622860E0,6.669993401E-1,-9.491130829E0,1.490728498E0
6.335399683E0,6.861419082E-1,-9.485747337E0,1.480558991E0
6.340176558E0,7.334001660E-1,-9.490532875E0,1.451845169E0
6.344953433E0,7.902296782E-1,-9.495318413E0,1.441675663E0
6.349730256E0,8.572286963E-1,-9.504889488E0,1.441675663E0
6.354507131E0,9.236295223E-1,-9.528818130E0,1.445863128E0
6.359284006E0,9.619147182E-1,-9.524032593E0,1.450648785E0
6.364060881E0,1.009172916E0,-9.528220177E0,1.450648785E0
6.368837704E0,1.028315544E0,-9.552745819E0,1.464407444E0
6.373614579E0,1.018744230E0,-9.567103386E0,1.474576950E0
6.378391454E0,1.004985452E0,-9.581459999E0,1.474576950E0
6.383168329E0,1.000199914E0,-9.595816612E0,1.527219057E0
6.387945204E0,9.912267923E-1,-9.620343208E0,1.532004714E0
6.392722027E0,9.864411354E-1,-9.629914284E0,1.555932879E0
6.397498902E0,1.024726272E0,-9.663414001E0,1.565504193E0
6.402275777E0,1.000798106E0,-9.696913719E0,1.570289850E0
6.407052652E0,9.726824164E-1,-9.754940033E0,1.575673699E0
6.411829527E0,9.397810698E-1,-9.789037704E0,1.575673699E0
6.416606350E0,9.206385016E-1,-9.851250648E0,1.566102386E0
6.421383225E0,9.158528447E-1,-9.856036186E0,1.556531072E0
6.426160100E0,9.296116233E-1,-9.870393753E0,1.513460279E0
6.430936975E0,9.535398483E-1,-9.875179291E0,1.494317770E0
6.435713798E0,9.768698215E-1,-9.875179291E0,1.460219979E0
6.440490673E0,9.864411354E-1,-9.860821724E0,1.431506157E0
6.445267548E0,1.019342422E0,-9.851250648E0,1.402792215E0
6.450044423E0,1.071386337E0,-9.807581902E0,1.373480201E0
6.454821245E0,1.138385415E0,-9.807581902E0,1.325025558E0
6.459598120E0,1.204786181E0,-9.783055305E0,1.296311617E0
6.464374995E0,1.252044439E0,-9.734601021E0,1.243071318E0
6.469151870E0,1.298704505E0,-9.701101303E0,1.189831018E0
6.473928693E0,1.369890928E0,-9.705886841E0,1.150947690E0
6.478705568E0,1.465005636E0,-9.705288887E0,1.102493048E0
6.483482443E0,1.530808330E0,-9.661619186E0,1.059422255E0
6.488259266E0,1.597209096E0,-9.656833649E0,1.025324464E0
6.493036141E0,1.654038668E0,-9.642477036E0,1.010369420E0
6.497813016E0,1.758724689E0,-9.622735977E0,1.015154958E0
6.502589891E0,1.806581140E0,-9.637093544E0,1.028913736E0
6.507366766E0,1.844268084E0,-9.627521515E0,1.019342422E0
6.512143589E0,1.892124534E0,-9.593423843E0,1.013958573E0
6.516920464E0,1.868196249E0,-9.550353050E0,1.028913736E0
6.521697339E0,1.887338877E0,-9.540781975E0,1.047458172E0
6.526474214E0,1.868196249E0,-9.531210899E0,1.062413216E0
6.531251037E0,1.816152334E0,-9.540781975E0,1.095912814E0
6.536027912E0,1.706680775E0,-9.570094109E0,1.115653515E0
6.540804787E0,1.616351724E0,-9.555737495E0,1.111466169E0
6.545581662E0,1.512263894E0,-9.550951958E0,1.121635556E0
6.550358537E0,1.388435364E0,-9.551549911E0,1.170090318E0
6.555135360E0,1.307677627E0,-9.522835732E0,1.185045362E0
6.559912235E0,1.217348576E0,-9.479764938E0,1.223928809E0
6.564689110E0,1.150947690E0,-9.470193863E0,1.243071318E0
6.569465985E0,1.122233868E0,-9.479764938E0,1.248455167E0
6.574242808E0,1.098305583E0,-9.489336014E0,1.315454245E0
6.579019683E0,1.089332461E0,-9.499505997E0,1.378265858E0
6.583796558E0,1.123430252E0,-9.518648148E0,1.425524116E0
6.588573433E0,1.176072359E0,-9.542576790E0,1.454237938E0
6.593350256E0,1.223928809E0,-9.595218658E0,1.478166223E0
6.598127131E0,1.243669510E0,-9.623932838E0,1.526022673E0
6.602904006E0,1.272383451E0,-9.681958199E0,1.554736495E0
6.607680881E0,1.339382529E0,-9.681958199E0,1.601994753E0
6.612457704E0,1.396810174E0,-9.705886841E0,1.645065546E0
6.617234579E0,1.444666624E0,-9.734601021E0,1.673779488E0
6.622011454E0,1.516451359E0,-9.744172096E0,1.725823283E0
6.626788329E0,1.559522152E0,-9.763314247E0,1.764108539E0
6.631565204E0,1.597209096E0,-9.768099785E0,1.764108539E0
6.636342027E0,1.625923038E0,-9.796813965E0,1.764108539E0
6.641118902E0,1.631306887E0,-9.883553505E0,1.773679733E0
6.645895777E0,1.636092424E0,-9.955338478E0,1.778465390E0
6.650672652E0,1.650449395E0,-1.001336479E1,1.749751568E0
6.655449475E0,1.721635938E0,-1.012403297E1,1.710868239E0
6.660226350E0,1.750349760E0,-1.023470020E1,1.696511269E0
6.665003225E0,1.788634896E0,-1.033639526E1,1.682154298E0
6.669780100E0,1.841277003E0,-1.045663452E1,1.662413478E0
6.674556923E0,1.898704767E0,-1.054756260E1,1.652842283E0
6.679333798E0,1.908276081E0,-1.066301632E1,1.638485312E0
6.684110673E0,1.951346874E0,-1.069172955E1,1.618744493E0
6.688887548E0,1.955534339E0,-1.068215847E1,1.566102386E0
6.693664370E0,1.774876237E0,-1.064925671E1,1.529013634E0
6.698441245E0,1.601994753E0,-1.046142101E1,1.395015597E0
6.703218120E0,1.324427366E0,-1.033220863E1,1.195214868E0
6.707994995E0,9.894321561E-1,-1.018804073E1,9.427721500E-1
6.712771818E0,6.831508875E-1,-1.008275604E1,6.699903607E-1
6.717548693E0,4.570291340E-1,-9.976874352E0,3.355933726E-1
6.722325568E0,3.212364316E-1,-9.895518303E0,-3.828516230E-2
6.727102443E0,2.045863420E-1,-9.837491989E0,-4.456632137E-1
6.731865985E0,1.453639716E-1,-9.760323524E0,-7.764709592E-1
6.736656141E0,8.614161611E-2,-9.693324089E0,-1.078564763E0
6.741433016E0,5.144568533E-2,-9.674181938E0,-1.255633712E0
6.746196558E0,5.563312769E-2,-9.620942116E0,-1.356730461E0
6.750986766E0,7.477571070E-2,-9.582057953E0,-1.351944804E0
6.755763589E0,1.322034448E-1,-9.495318413E0,-1.256231904E0
6.760540464E0,2.141576260E-1,-9.408578873E0,-1.031306505E0
6.765317339E0,3.104687333E-1,-9.293125153E0,-7.202396393E-1
6.770094214E0,4.594219327E-1,-9.201599121E0,-4.283152521E-1
6.774871037E0,5.898307562E-1,-9.191430092E0,-7.836493850E-2
6.779647912E0,7.208378315E-1,-9.259027481E0,3.290131092E-1
6.784424787E0,9.038887620E-1,-9.306883812E0,6.681957245E-1
6.789201662E0,1.076770186E0,-9.311669350E0,9.750752449E-1
6.793978485E0,1.283749342E0,-9.325428009E0,1.232901812E0
6.798755360E0,1.441675663E0,-9.344570160E0,1.453041553E0
6.803518902E0,1.490728498E0,-9.349356651E0,1.615753531E0
6.808309110E0,1.562513232E0,-9.373284340E0,1.744965911E0
6.813085933E0,1.511067510E0,-9.411569595E0,1.831705689E0
6.817862808E0,1.463809252E0,-9.436096191E0,1.865205288E0
6.822639683E0,1.439880967E0,-9.455238342E0,1.850848317E0
6.827416558E0,1.358525038E0,-9.465408325E0,1.789233088E0
6.832193381E0,1.239482164E0,-9.494122505E0,1.669592023E0
6.836970256E0,1.200598717E0,-9.542576790E0,1.526022673E0
6.841747131E0,1.113260746E0,-9.619745255E0,1.320239902E0
6.846524006E0,1.083350420E0,-9.658030510E0,1.100100160E0
6.851300881E0,1.039681435E0,-9.691530228E0,8.697910309E-1
6.856077704E0,1.004985452E0,-9.720842361E0,6.107679605E-1
6.860854579E0,1.013360381E0,-9.739984512E0,4.043870270E-1
6.865631454E0,1.049850941E0,-9.749555588E0,1.884347796E-1
6.870408329E0,1.082154036E0,-9.763314247E0,3.948157281E-2
6.875185152E0,1.086341500E0,-9.763314247E0,-6.640082598E-2
6.879962027E0,1.114457130E0,-9.758528709E0,-1.381855011E-1
6.884738902E0,1.119242787E0,-9.753743172E0,-1.190429255E-1
6.889515777E0,1.205982566E0,-9.777671814E0,-5.742774159E-2
6.894292600E0,1.264008522E0,-9.815957069E0,4.307080805E-2
6.899069475E0,1.345364571E0,-9.820742607E0,1.627119333E-1
6.903846350E0,1.417747378E0,-9.835099220E0,3.014956415E-1
6.908623225E0,1.484746456E0,-9.844670296E0,4.259224236E-1
6.913400048E0,1.533201098E0,-9.868598938E0,5.216353536E-1
6.918176923E0,1.519442320E0,-9.897313118E0,6.029912829E-1
6.922953798E0,1.510469317E0,-9.926624298E0,6.705885530E-1
6.927730673E0,1.510469317E0,-9.926624298E0,6.849454641E-1
6.932507495E0,1.510469317E0,-9.926624298E0,6.993024349E-1
6.937284370E0,1.510469317E0,-9.912267685E0,7.136593461E-1
6.942061245E0,1.510469317E0,-9.888339996E0,7.136593461E-1
6.946838120E0,1.491924882E0,-9.883553505E0,7.423732281E-1
6.951614943E0,1.487139225E0,-9.878767967E0,7.621139884E-1
6.956391818E0,1.506281853E0,-9.878170013E0,7.471588850E-1
6.961168693E0,1.501496196E0,-9.859027863E0,7.567301393E-1
6.965945568E0,1.506281853E0,-9.820742607E0,8.099704385E-1
6.970722443E0,1.534995675E0,-9.772287369E0,8.673982024E-1
6.975499266E0,1.530210137E0,-9.753145218E0,9.200403094E-1
6.980276141E0,1.526022673E0,-9.734002113E0,9.876375198E-1
6.985053016E0,1.588235974E0,-9.724431038E0,1.087537885E0
6.989829891E0,1.655235052E0,-9.719047546E0,1.125823021E0
6.994606714E0,1.717448473E0,-9.723833084E0,1.164108157E0
6.999383589E0,1.750947952E0,-9.728618622E0,1.182652593E0
7.004160464E0,1.760519266E0,-9.723833084E0,1.206580877E0
7.008937339E0,1.765304923E0,-9.728618622E0,1.230509043E0
7.013714162E0,1.784447432E0,-9.738189697E0,1.225723386E0
7.018491037E0,1.807777524E0,-9.742975235E0,1.182652593E0
7.023267912E0,1.826920033E0,-9.742975235E0,1.163509965E0
7.028044787E0,1.831705689E0,-9.742975235E0,1.177866936E0
7.032821610E0,1.855035782E0,-9.757332802E0,1.172483087E0
7.037598485E0,1.855035782E0,-9.762118340E0,1.148554921E0
7.042375360E0,1.849651933E0,-9.752547264E0,1.076770186E0
7.047152235E0,1.849651933E0,-9.714262009E0,1.071984529E0
7.051929058E0,1.811964989E0,-9.690333366E0,1.081555843E0
7.056705933E0,1.754537225E0,-9.671191216E0,1.101296663E0
7.061482808E0,1.678565025E0,-9.661619186E0,1.140179992E0
7.066259683E0,1.626521230E0,-9.661619186E0,1.168893814E0
7.071036506E0,1.574477315E0,-9.675976753E0,1.174277663E0
7.075813381E0,1.550549030E0,-9.690931320E0,1.179063320E0
7.080590256E0,1.532004714E0,-9.710074425E0,1.179063320E0
7.085367131E0,1.517647743E0,-9.714859962E0,1.179063320E0
7.090143954E0,1.527219057E0,-9.705288887E0,1.164706469E0
7.094920829E0,1.517049551E0,-9.710074425E0,1.140778184E0
7.099697704E0,1.498505235E0,-9.714859962E0,1.150349498E0
7.104474579E0,1.508076429E0,-9.700503349E0,1.164706469E0
7.109251454E0,1.512862086E0,-9.671789169E0,1.193420291E0
7.114028277E0,1.508076429E0,-9.657432556E0,1.251446247E0
7.118805152E0,1.518245935E0,-9.632905960E0,1.337587833E0
7.123582027E0,1.528415442E0,-9.632905960E0,1.423729420E0
7.128358902E0,1.514656782E0,-9.632905960E0,1.485942841E0
7.133135725E0,1.448255897E0,-9.628718376E0,1.563111424E0
7.137912600E0,1.405783296E0,-9.614361763E0,1.611566067E0
7.142689475E0,1.381855130E0,-9.619147301E0,1.630708575E0
7.147466350E0,1.348953724E0,-9.623932838E0,1.640279889E0
7.152243173E0,1.316052437E0,-9.643074989E0,1.660020709E0
7.157020048E0,1.287338614E0,-9.643673897E0,1.674377680E0
7.161796923E0,1.264008522E0,-9.633503914E0,1.707877159E0
7.166573798E0,1.287338614E0,-9.658030510E0,1.664806366E0
7.171350620E0,1.244267821E0,-9.672387123E0,1.640878081E0
7.176127495E0,1.216152072E0,-9.691530228E0,1.636690736E0
7.180904370E0,1.215553880E0,-9.720243454E0,1.545165181E0
7.185681245E0,1.191027522E0,-9.759127617E0,1.454237938E0
7.190458068E0,1.176670551E0,-9.778269768E0,1.353739381E0
7.195234943E0,1.204187989E0,-9.802198410E0,1.204786181E0
7.200011818E0,1.207777262E0,-9.792626381E0,1.056431174E0
7.204788693E0,1.211964726E0,-9.826126099E0,9.218349457E-1
7.209565568E0,1.230509043E0,-9.835697174E0,8.213363886E-1
7.214342391E0,1.238883972E0,-9.845269203E0,6.813562512E-1
7.219119266E0,1.233500123E0,-9.840482712E0,5.473581553E-1
7.223896141E0,1.208973646E0,-9.845269203E0,4.271188378E-1
7.228673016E0,1.199402332E0,-9.826126099E0,3.649054468E-1
7.233449839E0,1.184447169E0,-9.821340561E0,2.931207716E-1
7.238226714E0,1.179661512E0,-9.806385040E0,2.691925466E-1
7.243003589E0,1.174875975E0,-9.796813965E0,2.548356056E-1
7.247780464E0,1.179063320E0,-9.772886276E0,2.691925466E-1
7.252557287E0,1.194018483E0,-9.768099785E0,2.979064286E-1
7.257334162E0,1.208375454E0,-9.753743172E0,3.457628787E-1
7.262111037E0,1.203589797E0,-9.744172096E0,3.792623878E-1
7.266887860E0,1.189831018E0,-9.744172096E0,4.271188378E-1
7.271664735E0,1.171286702E0,-9.739386559E0,4.947160780E-1
7.276441610E0,1.171286702E0,-9.729815483E0,5.760720372E-1
7.281218485E0,1.186241865E0,-9.729815483E0,6.717849374E-1
7.285995360E0,1.162911773E0,-9.725028992E0,7.686942816E-1
7.290772183E0,1.168295622E0,-9.701101303E0,8.548358679E-1
7.295549058E0,1.140778184E0,-9.681958199E0,9.655039310E-1
7.300325933E0,1.079162955E0,-9.638887405E0,1.119242787E0
7.305102808E0,1.050449133E0,-9.590433121E0,1.205384374E0
7.309879631E0,1.008574724E0,-9.537791252E0,1.325623751E0
7.314656506E0,9.804590940E-1,-9.480362892E0,1.441077471E0
7.319433381E0,9.332008362E-1,-9.446864128E0,1.484148264E0
7.324210256E0,8.805587292E-1,-9.398408890E0,1.527817249E0
7.328987079E0,8.476574421E-1,-9.374481201E0,1.580459356E0
7.333763954E0,9.140582681E-1,-9.364909172E0,1.527817249E0
7.338540829E0,8.805587292E-1,-9.403194427E0,1.479960799E0
7.343317704E0,8.799605370E-1,-9.432506561E0,1.402792215E0
7.348094527E0,8.464609981E-1,-9.432506561E0,1.292722464E0
7.352871402E0,7.788637877E-1,-9.427721024E0,1.173081279E0
7.357648277E0,6.729813814E-1,-9.370293617E0,1.025324464E0
7.362425152E0,5.964110494E-1,-9.341579437E0,8.961120844E-1
7.367201975E0,4.534398913E-1,-9.361320496E0,8.919246197E-1
7.371978850E0,5.264210105E-1,-9.505488396E0,1.016351461E0
7.376755725E0,3.493520916E-1,-9.520442963E0,8.303094506E-1
7.381532600E0,9.571290761E-2,-9.424132347E0,6.197410822E-1
7.386309423E0,1.896311939E-1,-9.457631111E0,4.372883439E-1
7.391086298E0,5.365904570E-1,-9.605986595E0,2.913261652E-1
7.395863173E0,1.001994491E0,-9.710672379E0,1.645065546E-1
7.400640048E0,1.378265858E0,-9.811170578E0,1.004985496E-1
7.405416870E0,1.479362607E0,-9.936196327E0,2.051845491E-1
7.410193745E0,1.442872047E0,-1.011924744E1,3.780659735E-1
7.414970620E0,1.496710539E0,-1.027298546E1,5.318048596E-1
7.419747495E0,1.631306887E0,-1.035075283E1,7.860422134E-1
7.424524370E0,1.695314884E0,-1.043749237E1,1.058824062E0
7.429301193E0,1.749153376E0,-1.049491978E1,1.313061476E0
7.434078068E0,1.688734531E0,-1.058225822E1,1.538584948E0
7.438854943E0,1.618744493E0,-1.060618591E1,1.706680775E0
7.443631818E0,1.623530149E0,-1.055354404E1,1.764706731E0
7.448408641E0,1.699502230E0,-1.044706345E1,1.740180254E0
7.453185516E0,1.750947952E0,-1.032203865E1,1.686939955E0
7.457962391E0,1.745564103E0,-1.022991467E1,1.596012712E0
7.462739266E0,1.706082582E0,-1.017188931E1,1.451845169E0
7.467516089E0,1.671984792E0,-1.010488987E1,1.303490162E0
7.472292964E0,1.632503271E0,-1.003250694E1,1.126421213E0
7.477069839E0,1.616949916E0,-9.955338478E0,9.583254457E-1
7.481846714E0,1.591825247E0,-9.878170013E0,8.147560954E-1
7.486623537E0,1.538584948E0,-9.811170578E0,6.843472719E-1
7.491400412E0,1.480558991E0,-9.757930756E0,5.694918036E-1
7.496177287E0,1.441675663E0,-9.719645500E0,4.689932466E-1
7.500954162E0,1.393819213E0,-9.690931320E0,3.924229145E-1
7.505730985E0,1.322034478E0,-9.676574707E0,3.020938635E-1
7.510507860E0,1.221535921E0,-9.652647018E0,2.350948304E-1
7.515284735E0,1.073180914E0,-9.595218658E0,1.591227055E-1
7.520061610E0,9.296116233E-1,-9.552147865E0,7.836493850E-2
7.524838433E0,8.195417523E-1,-9.518648148E0,2.153540403E-2
7.529615308E0,6.909275651E-1,-9.466006279E0,-1.136590727E-2
7.534392183E0,5.862415433E-1,-9.418149948E0,-5.443671346E-2
7.539169058E0,5.096712112E-1,-9.379864693E0,-6.340979785E-2
7.543945933E0,4.289134443E-1,-9.332008362E0,-3.409772366E-2
7.548722756E0,3.625126183E-1,-9.312865257E0,-1.016949583E-2
7.553499631E0,2.817548811E-1,-9.303294182E0,3.349951655E-2
7.558276506E0,1.776670814E-1,-9.293723106E0,6.281159073E-2
7.563053381E0,1.016949639E-1,-9.284152031E0,1.016949639E-1
7.567830204E0,7.298108935E-2,-9.279964447E0,1.304088384E-1
7.572607079E0,1.196411322E-3,-9.279964447E0,1.357926875E-1
7.577383954E0,-7.477571070E-2,-9.284749985E0,1.363908947E-1
7.582160777E0,-1.178465188E-1,-9.304491043E0,1.124626622E-1
7.586937652E0,-1.555334777E-1,-9.361918449E0,7.417750359E-2
7.591714527E0,-1.938186288E-1,-9.410373688E0,3.589234129E-2
7.596491402E0,-1.746760458E-1,-9.448657990E0,2.392822644E-3
7.601268225E0,-8.913264424E-2,-9.530612946E0,-3.170489892E-2
7.606045100E0,-2.273181453E-2,-9.616754532E0,-4.127619043E-2
7.610821975E0,1.794616925E-3,-9.708279610E0,-4.127619043E-2
7.615598850E0,7.417750359E-2,-9.795019150E0,-1.316052489E-2
7.620375673E0,1.316052526E-1,-9.881160736E0,5.383851007E-2
7.625152548E0,1.848455518E-1,-9.948758125E0,1.351944804E-1
7.629929423E0,2.614158690E-1,-1.000139999E1,2.213360965E-1
7.634706298E0,3.714857101E-1,-1.004925728E1,3.355933726E-1
7.639483120E0,4.582255483E-1,-1.011206818E1,4.121637046E-1
7.644259995E0,5.629115105E-1,-1.015035343E1,4.642075896E-1
7.649036870E0,6.729813814E-1,-1.016949654E1,5.168496966E-1
7.653813745E0,7.872386575E-1,-1.022213840E1,5.784648657E-1
7.658590568E0,9.068797827E-1,-1.026042366E1,6.448656917E-1
7.663367443E0,1.021137118E0,-1.028375340E1,6.634100676E-1
7.668144318E0,1.116251707E0,-1.027896786E1,6.681957245E-1
7.672921193E0,1.121037364E0,-1.025503922E1,6.723831892E-1
7.677698068E0,1.149751306E0,-1.021615601E1,6.723831892E-1
7.682474891E0,1.135394335E0,-1.015394306E1,6.293123364E-1
7.687251766E0,1.100698471E0,-1.006720352E1,5.670989752E-1
7.692028641E0,1.024128079E0,-1.000977516E1,4.713860750E-1
7.696805464E0,9.326026440E-1,-9.966106415E0,3.379862010E-1
7.701582339E0,8.219345808E-1,-9.903892517E0,1.896311939E-1
7.706359214E0,6.735795736E-1,-9.836894035E0,2.691925503E-2
7.711136089E0,4.719842672E-1,-9.789037704E0,-2.021935135E-1
7.715912964E0,2.847459018E-1,-9.707681656E0,-4.701896608E-1
7.720689787E0,1.166501045E-1,-9.655039787E0,-6.999006271E-1
7.725466662E0,-5.144568533E-2,-9.621540070E0,-9.194421172E-1
7.730243537E0,-1.812563092E-1,-9.583254814E0,-1.096511006E0
7.735020412E0,-3.200400174E-1,-9.592825890E0,-1.287338614E0
7.739797235E0,-4.354937077E-1,-9.573683739E0,-1.464407444E0
7.744574110E0,-5.222335458E-1,-9.569496155E0,-1.613360643E0
7.749350985E0,-5.796613097E-1,-9.564710617E0,-1.709073544E0
7.754127860E0,-6.185446382E-1,-9.550353050E0,-1.857428551E0
7.758904683E0,-6.478567123E-1,-9.550353050E0,-1.948355794E0
7.763681558E0,-6.909275651E-1,-9.559925079E0,-2.063211441E0
7.768458433E0,-7.585247755E-1,-9.583852768E0,-2.163709879E0
7.773235308E0,-7.351947427E-1,-9.588638306E0,-2.273779631E0
7.778012131E0,-6.981059909E-1,-9.569496155E0,-2.413161755E0
7.782789006E0,-6.795616150E-1,-9.598209381E0,-2.542972326E0
7.787565881E0,-6.466603279E-1,-9.641280174E0,-2.634497643E0
7.792342756E0,-5.760720372E-1,-9.669994354E0,-2.711666346E0
7.797119579E0,-4.809573591E-1,-9.698708534E0,-2.731407166E0
7.801896454E0,-3.188436031E-1,-9.732208252E0,-2.684148788E0
7.806673329E0,-2.422732860E-1,-9.760921478E0,-2.617748022E0
7.811450204E0,-2.273181528E-1,-9.794421196E0,-2.554936409E0
7.816227027E0,-2.129612118E-1,-9.847063065E0,-2.550150633E0
7.821003902E0,-2.321037948E-1,-9.919445992E0,-2.602792740E0
7.825780777E0,-2.374876440E-1,-9.977472305E0,-2.708675146E0
7.830557652E0,-1.950150430E-1,-1.003489971E1,-2.824128866E0
7.835334527E0,-1.621137410E-1,-1.005882835E1,-2.910270452E0
7.840111350E0,-9.571290761E-2,-1.003968525E1,-2.939582586E0
7.844888225E0,-5.982056726E-3,-9.976874352E0,-2.964108944E0
7.849665100E0,2.392822690E-2,-9.904491425E0,-2.877967358E0
7.854441923E0,-5.383851007E-3,-9.832108498E0,-2.781656265E0
7.859218798E0,-1.914258115E-2,-9.774680138E0,-2.662015200E0
7.863995673E0,1.196411322E-3,-9.745966911E0,-2.502892494E0
7.868772548E0,-3.110669367E-2,-9.712467194E0,-2.291725874E0
7.873549423E0,-2.991028316E-2,-9.693324089E0,-2.066800594E0
7.878326245E0,-5.742774159E-2,-9.674181938E0,-1.874776483E0
7.883103120E0,-2.039881349E-1,-9.698708534E0,-1.749153376E0
7.887879995E0,-3.409772217E-1,-9.722636223E0,-1.633101463E0
7.892656818E0,-4.163511395E-1,-9.742377281E0,-1.565504193E0
7.897433693E0,-4.636093974E-1,-9.751948357E0,-1.488933921E0
7.902210568E0,-5.012963414E-1,-9.718449593E0,-1.415952802E0
7.906987443E0,-4.773681164E-1,-9.708877563E0,-1.387238979E0
7.911764318E0,-4.109672904E-1,-9.708877563E0,-1.426122308E0
7.916541141E0,-3.349951804E-1,-9.713065147E0,-1.460219979E0
7.921318016E0,-2.733799815E-1,-9.722636223E0,-1.489532113E0
7.926094891E0,-2.398804724E-1,-9.746564865E0,-1.494317770E0
7.930871766E0,-8.793623000E-2,-9.765707016E0,-1.485942841E0
7.935648589E0,2.213360928E-2,-9.780064583E0,-1.491326690E0
7.940425464E0,1.028913707E-1,-9.837491989E0,-1.486541033E0
7.945202339E0,1.651047617E-1,-9.866206169E0,-1.476969719E0
7.949979214E0,2.554338276E-1,-9.885348320E0,-1.502094388E0
7.954756037E0,4.408775866E-1,-9.884750366E0,-1.536192179E0
7.959532912E0,6.071787477E-1,-9.888937950E0,-1.561316729E0
7.964309787E0,7.070791125E-1,-9.927223206E0,-1.576271892E0
7.969086662E0,6.161518097E-1,-9.913464546E0,-1.585245013E0
7.973863485E0,5.353940725E-1,-9.865009308E0,-1.633101463E0
7.978640360E0,4.438686073E-1,-9.778867722E0,-1.718644857E0
7.983417235E0,2.907279432E-1,-9.629914284E0,-1.799402595E0
7.988194110E0,2.045863420E-1,-9.466006279E0,-1.856830359E0
7.992970933E0,2.177468538E-1,-9.288339615E0,-1.914856315E0
7.997747808E0,2.739782035E-1,-9.119047165E0,-1.919641972E0
8.002524683E0,2.835494876E-1,-9.007781029E0,-1.914856315E0
8.007301506E0,3.308077157E-1,-8.940781593E0,-1.886740685E0
8.012078381E0,3.355933726E-1,-8.863613129E0,-1.867598057E0
8.016855256E0,3.732803464E-1,-8.805587769E0,-1.838884234E0
8.021632131E0,3.882354796E-1,-8.757132530E0,-1.771885157E0
8.026409006E0,3.595215976E-1,-8.743373871E0,-1.714457393E0
8.031185829E0,3.936193287E-1,-8.709276199E0,-1.618744493E0
8.035962704E0,4.037888348E-1,-8.718847275E0,-1.508076429E0
8.040739579E0,3.948157430E-1,-8.748159409E0,-1.421336651E0
8.045516454E0,3.667000830E-1,-8.757730484E0,-1.334596872E0
8.050293277E0,3.960121572E-1,-8.738588333E0,-1.272383451E0
8.055070152E0,4.438686073E-1,-8.762516975E0,-1.225125194E0
8.059847027E0,4.390829504E-1,-8.805587769E0,-1.195813060E0
8.064623902E0,4.396811724E-1,-8.834898949E0,-1.157527924E0
8.069400725E0,3.595215976E-1,-8.863613129E0,-1.089930773E0
8.074177600E0,3.643072546E-1,-8.863613129E0,-1.066002488E0
8.078954475E0,4.115654826E-1,-8.868398666E0,-1.095314622E0
8.083731350E0,3.684946895E-1,-8.868398666E0,-1.123430252E0
8.088508173E0,2.781656384E-1,-8.834898949E0,-1.099501967E0
8.093285048E0,1.836491376E-1,-8.806185722E0,-1.046261668E0
8.098061923E0,7.896314561E-2,-8.748757362E0,-1.026520967E0
8.102838745E0,-3.110669367E-2,-8.734998703E0,-9.828519225E-1
8.107615620E0,-2.261217386E-1,-8.720642090E0,-9.529415965E-1
8.112392495E0,-4.917250574E-1,-8.750552177E0,-9.367900491E-1
8.117169370E0,-7.250252366E-1,-8.832506180E0,-9.690931439E-1
8.121946245E0,-1.005583763E0,-8.895915985E0,-9.966106415E-1
8.126723068E0,-1.158126116E0,-9.016754150E0,-1.039083242E0
8.131499943E0,-1.276570916E0,-9.156734467E0,-1.076770186E0
8.136276818E0,-1.404586911E0,-9.311669350E0,-1.099501967E0
8.141053693E0,-1.389631748E0,-9.513862610E0,-1.046859860E0
8.145830516E0,-1.407577872E0,-9.720842361E0,-9.840483069E-1
8.150607391E0,-1.511067510E0,-9.923633575E0,-8.829515576E-1
8.155384266E0,-1.661815286E0,-1.017428207E1,-7.812566161E-1
8.160161141E0,-1.840678811E0,-1.052662468E1,-7.130611539E-1
8.164924683E0,-1.981257200E0,-1.100399303E1,-6.352944374E-1
8.169714839E0,-1.945963025E0,-1.151486111E1,-6.011967063E-1
8.174491714E0,-1.849651933E0,-1.201555920E1,-6.017948985E-1
8.179255256E0,-1.782054663E0,-1.242951679E1,-6.496513486E-1
8.184045412E0,-1.572682738E0,-1.267478180E1,-7.800601721E-1
8.188822287E0,-1.297508121E0,-1.269811153E1,-9.493523836E-1
8.193585829E0,-1.028315544E0,-1.251386452E1,-1.200000525E0
8.198376037E0,-6.795616150E-1,-1.216630650E1,-1.538584948E0
8.203152860E0,-3.026920557E-1,-1.173200989E1,-1.886142492E0
8.207929735E0,8.434699476E-2,-1.126301575E1,-2.181057930E0
8.212706610E0,4.953143001E-1,-1.081436157E1,-2.442473650E0
8.217483485E0,9.487541914E-1,-1.039382362E1,-2.670988321E0
8.222247027E0,1.332802176E0,-1.002173901E1,-2.774477959E0
8.227037183E0,1.627119422E0,-9.722636223E0,-2.756531715E0
8.231814058E0,1.841277003E0,-9.491130829E0,-2.584846735E0
8.236577600E0,1.956730723E0,-9.375079155E0,-2.307279348E0
8.241367756E0,1.944168448E0,-9.351150513E0,-2.019542217E0
8.246144631E0,1.917249203E0,-9.404391289E0,-1.740778446E0
8.250921506E0,1.876571178E0,-9.505488396E0,-1.500898004E0
8.255698381E0,1.853839397E0,-9.631111145E0,-1.336989641E0
8.260475204E0,1.779063582E0,-9.727422714E0,-1.202393413E0
8.265252079E0,1.755733609E0,-9.785448074E0,-1.134796143E0
8.270028954E0,1.694716692E0,-9.771091461E0,-1.009771109E0
8.274805829E0,1.618744493E0,-9.708877563E0,-9.182456732E-1
8.279582652E0,1.442872047E0,-9.559925079E0,-8.267202377E-1
8.284359527E0,1.224527001E0,-9.411569595E0,-7.106683254E-1
8.289136402E0,1.062413216E0,-9.238688469E0,-6.329016089E-1
8.293913277E0,8.530412912E-1,-9.132207870E0,-5.503492355E-1
8.298690100E0,7.674978375E-1,-9.036494255E0,-4.683950245E-1
8.303466975E0,7.489534616E-1,-8.949754715E0,-4.253242314E-1
8.308243850E0,7.872386575E-1,-8.911469460E0,-3.577269912E-1
8.313020725E0,6.969096065E-1,-8.839086533E0,-3.140579760E-1
8.317797548E0,7.639086246E-1,-8.843872070E0,-2.572284341E-1
8.322574423E0,7.980063558E-1,-8.858229637E0,-1.178465188E-1
8.327351298E0,8.608179688E-1,-8.882157326E0,2.572284266E-2
8.332128173E0,9.661021233E-1,-8.910871506E0,1.495514214E-1
8.336904995E0,1.095314622E0,-8.977870941E0,2.883351147E-1
8.341681870E0,1.149751306E0,-9.069396019E0,4.558327198E-1
8.346458745E0,1.079162955E0,-9.190832138E0,6.382854581E-1
8.351235620E0,1.018744230E0,-9.306883812E0,8.362914920E-1
8.356012443E0,9.583254457E-1,-9.384052277E0,1.009172916E0
8.360789318E0,9.553344250E-1,-9.513862610E0,1.177268744E0
8.365566193E0,8.614161611E-1,-9.595816612E0,1.341177106E0
8.370343068E0,7.196413875E-1,-9.615557671E0,1.485344648E0
8.375119891E0,6.257231236E-1,-9.683753014E0,1.625324726E0
8.379896766E0,5.407779217E-1,-9.741779327E0,1.692921996E0
8.384673641E0,5.455635786E-1,-9.799206734E0,1.692921996E0
8.389450516E0,4.881358147E-1,-9.780064583E0,1.645065546E0
8.394227339E0,4.833501875E-1,-9.813564301E0,1.616351724E0
8.399004214E0,4.689932466E-1,-9.847661972E0,1.544566989E0
8.403781089E0,3.637090325E-1,-9.920044899E0,1.468594909E0
8.408557964E0,2.494517565E-1,-1.000678444E1,1.382453322E0
8.413334787E0,1.208375469E-1,-1.011326504E1,1.292124271E0
8.418111662E0,-2.751746029E-2,-1.026281643E1,1.163509965E0
8.422888537E0,-8.554340899E-2,-1.040279675E1,9.194421172E-1
8.427665412E0,-1.393819153E-1,-1.048953629E1,5.928218365E-1
8.432442235E0,-1.986042857E-1,-1.052303600E1,2.147558331E-1
8.437219110E0,-2.584248483E-1,-1.054756260E1,-2.075773627E-1
8.441995985E0,-3.278166950E-1,-1.050389290E1,-6.586244106E-1
8.446772860E0,-3.212364316E-1,-1.043629551E1,-1.119242787E0
8.451536402E0,-2.333002090E-1,-1.037827015E1,-1.484148264E0
8.456326558E0,-8.255238086E-2,-1.033938694E1,-1.744367719E0
8.461103433E0,1.405783296E-1,-1.031426239E1,-1.831705689E0
8.465866975E0,3.882354796E-1,-1.031844902E1,-1.761117458E0
8.470657131E0,6.221339107E-1,-1.028853893E1,-1.594816327E0
8.475434006E0,8.327022791E-1,-1.021615601E1,-1.360319614E0
8.480210881E0,1.033699393E0,-1.014377308E1,-1.082752228E0
8.484987704E0,1.226321578E0,-1.005643559E1,-7.722834945E-1
8.489764579E0,1.398604870E0,-9.964909554E0,-4.905286431E-1
8.494541454E0,1.547558069E0,-9.887741089E0,-1.932204217E-1
8.499318329E0,1.677368641E0,-9.814760208E0,7.477571070E-2
8.504095204E0,1.783849239E0,-9.766903877E0,3.236292601E-1
8.508872027E0,1.822732687E0,-9.694520950E0,5.868397355E-1
8.513648902E0,1.833500385E0,-9.622138023E0,7.842476368E-1
8.518425777E0,1.820339799E0,-9.569496155E0,9.571290612E-1
8.523202652E0,1.768295884E0,-9.521639824E0,1.082154036E0
8.527979475E0,1.673181176E0,-9.492925644E0,1.125823021E0
8.532756350E0,1.526022673E0,-9.468997002E0,1.155135155E0
8.537533225E0,1.369292736E0,-9.445667267E0,1.155733347E0
8.542310100E0,1.216750264E0,-9.431310654E0,1.132403374E0
8.547086923E0,1.063609719E0,-9.407979965E0,1.114457130E0
8.551863798E0,9.732806087E-1,-9.379266739E0,1.066600680E0
8.556640673E0,8.871390224E-1,-9.355338097E0,1.033699393E0
8.561417548E0,7.543373108E-1,-9.369695663E0,1.034297585E0
8.566194370E0,6.783652306E-1,-9.394221306E0,1.044467092E0
8.570971245E0,6.831508875E-1,-9.461818695E0,1.063609719E0
8.575748120E0,6.885347366E-1,-9.509675026E0,1.077966571E0
8.580524995E0,6.598208547E-1,-9.548559189E0,1.106680512E0
8.585301818E0,6.077769399E-1,-9.567701340E0,1.116850019E0
8.590078693E0,5.988038778E-1,-9.606584549E0,1.155135155E0
8.594855568E0,5.898307562E-1,-9.659226418E0,1.212562919E0
8.599632443E0,5.760720372E-1,-9.722038269E0,1.246660590E0
8.604409266E0,5.808576941E-1,-9.745966911E0,1.246660590E0
8.609186141E0,6.041877270E-1,-9.779465675E0,1.202991605E0
8.613963016E0,6.376872063E-1,-9.808179855E0,1.159920812E0
8.618739891E0,6.705885530E-1,-9.808179855E0,1.097109199E0
8.623516714E0,6.843472719E-1,-9.812965393E0,1.054038405E0
8.628293589E0,6.604190469E-1,-9.822537422E0,1.010967612E0
8.633070464E0,6.269195080E-1,-9.823135376E0,9.535398483E-1
8.637847339E0,5.312066078E-1,-9.851848602E0,8.871390224E-1
8.642624162E0,4.456632137E-1,-9.851848602E0,8.249256015E-1
8.647401037E0,3.643072546E-1,-9.838089943E0,7.579265833E-1
8.652177912E0,2.925225794E-1,-9.847661972E0,6.765705943E-1
8.656954787E0,2.536391914E-1,-9.852447510E0,5.856433511E-1
8.661731610E0,2.482553422E-1,-9.842875481E0,5.090730190E-1
8.666508485E0,2.763710022E-1,-9.842875481E0,4.366901219E-1
8.671285360E0,3.044866920E-1,-9.842875481E0,3.744767308E-1
8.676062235E0,3.469592929E-1,-9.871589661E0,3.164508045E-1
8.680839110E0,4.181457460E-1,-9.905089378E0,2.685943544E-1
8.685615933E0,5.419743061E-1,-9.943374634E0,2.392822653E-1
8.690392808E0,6.370890141E-1,-9.986445427E0,2.099701911E-1
8.695169683E0,7.130611539E-1,-1.002473068E1,2.237289101E-1
8.699946506E0,7.561319470E-1,-1.003430176E1,2.285145670E-1
8.704723381E0,7.752745152E-1,-1.003908730E1,2.285145670E-1
8.709500256E0,7.609176040E-1,-1.004865837E1,2.285145670E-1
8.714277131E0,7.417750359E-1,-1.003908730E1,2.285145670E-1
8.719054006E0,7.040880919E-1,-1.001994514E1,2.380858511E-1
8.723830829E0,6.610172391E-1,-9.986445427E0,2.482553422E-1
8.728607704E0,6.089733839E-1,-9.957133293E0,2.673979402E-1
8.733384579E0,5.521438122E-1,-9.904491425E0,3.397808075E-1
8.738161402E0,5.335994363E-1,-9.890133858E0,4.115654826E-1
8.742938277E0,5.383850932E-1,-9.866206169E0,4.737788737E-1
8.747715152E0,5.431707501E-1,-9.832706451E0,5.413761139E-1
8.752492027E0,5.629115105E-1,-9.803394318E0,6.179464459E-1
8.757268850E0,6.059823632E-1,-9.765109062E0,7.088736892E-1
8.762045725E0,6.251249313E-1,-9.741181374E0,7.764709592E-1
8.766822600E0,6.209374666E-1,-9.716654778E0,8.434699774E-1
8.771599475E0,6.448656917E-1,-9.683155060E0,9.008977413E-1
8.776376298E0,6.783652306E-1,-9.678369522E0,9.535398483E-1
8.781153173E0,7.118647099E-1,-9.673583984E0,9.918249846E-1
8.785930048E0,7.405785918E-1,-9.663414001E0,1.029511929E0
8.790706923E0,7.507480979E-1,-9.683155060E0,1.073180914E0
8.795483745E0,7.411768436E-1,-9.668798447E0,1.082752228E0
8.800260620E0,7.651050687E-1,-9.658628464E0,1.086939692E0
8.805037495E0,7.884350419E-1,-9.658628464E0,1.063011408E0
8.809814370E0,8.219345808E-1,-9.649057388E0,1.039083242E0
8.814591245E0,8.309076428E-1,-9.649057388E0,9.858429432E-1
8.819368068E0,8.638089895E-1,-9.634700775E0,9.619147182E-1
8.824144943E0,8.919246197E-1,-9.653842926E0,9.044869542E-1
8.828921818E0,8.871390224E-1,-9.677771568E0,8.518448472E-1
8.833698641E0,8.823533654E-1,-9.701699257E0,8.033902049E-1
8.838475516E0,8.865407705E-1,-9.730413437E0,7.357929349E-1
8.843252391E0,8.673982024E-1,-9.750154495E0,6.735795736E-1
8.848029266E0,8.386843204E-1,-9.774082184E0,6.017948985E-1
8.852806089E0,7.998009920E-1,-9.783653259E0,5.443671346E-1
8.857582964E0,7.806583643E-1,-9.798010826E0,4.677968323E-1
8.862359839E0,7.567301393E-1,-9.812367439E0,4.390829504E-1
8.867136714E0,7.280163169E-1,-9.812965393E0,3.912265003E-1
8.871913537E0,7.328019142E-1,-9.841679573E0,3.529413342E-1
8.876690412E0,7.136593461E-1,-9.841679573E0,3.290131092E-1
8.881467287E0,7.088736892E-1,-9.879964828E0,3.098705411E-1
8.886244162E0,6.993024349E-1,-9.889535904E0,3.050848842E-1
8.891020985E0,6.993024349E-1,-9.884750366E0,3.002992272E-1
8.895797860E0,6.987041831E-1,-9.870393753E0,2.955136001E-1
8.900574735E0,6.993024349E-1,-9.856036186E0,3.098705411E-1
8.905351610E0,7.040880919E-1,-9.851250648E0,3.290131092E-1
8.910128485E0,7.136593461E-1,-9.846465111E0,3.481557071E-1
8.914905308E0,7.232306600E-1,-9.856036186E0,3.912265003E-1
8.919682183E0,7.471588850E-1,-9.856036186E0,4.295116663E-1
8.924459058E0,7.567301393E-1,-9.841679573E0,4.630111754E-1
8.929235881E0,7.860422134E-1,-9.851250648E0,5.108676553E-1
8.934012756E0,8.003991842E-1,-9.846465111E0,5.252245665E-1
8.938789631E0,8.482556343E-1,-9.860821724E0,5.587241054E-1
8.943566506E0,8.386843204E-1,-9.856036186E0,5.874379873E-1
8.948343329E0,8.626125455E-1,-9.841081619E0,5.970092416E-1
8.953120204E0,8.955138922E-1,-9.841081619E0,5.970092416E-1
8.957897079E0,8.907282352E-1,-9.836296082E0,5.970092416E-1
8.962673954E0,8.859425783E-1,-9.821938515E0,6.017948985E-1
8.967450829E0,8.907282352E-1,-9.812367439E0,5.922235847E-1
8.972227652E0,8.763712645E-1,-9.812367439E0,6.017948985E-1
8.977004527E0,8.715856671E-1,-9.802796364E0,5.826523304E-1
8.981781402E0,8.715856671E-1,-9.788438797E0,5.730810165E-1
8.986558225E0,8.572286963E-1,-9.783653259E0,5.491527915E-1
8.991335100E0,8.572286963E-1,-9.778867722E0,5.491527915E-1
8.996111975E0,8.572286963E-1,-9.778867722E0,5.443671346E-1
9.000888850E0,8.428717852E-1,-9.778867722E0,5.395814776E-1
9.005665673E0,8.428717852E-1,-9.774082184E0,5.491527915E-1
9.010442548E0,8.476574421E-1,-9.774082184E0,5.443671346E-1
9.015219423E0,8.524430394E-1,-9.788438797E0,5.539384484E-1
9.019996298E0,8.524430394E-1,-9.798010826E0,5.347958803E-1
9.024773120E0,8.715856671E-1,-9.817152977E0,5.491527915E-1
9.029549995E0,8.901300430E-1,-9.793225288E0,5.341976285E-1
9.034326870E0,9.044869542E-1,-9.798010826E0,5.294120312E-1
9.039103745E0,9.284151793E-1,-9.793225288E0,5.437689424E-1
9.043880568E0,9.332008362E-1,-9.793225288E0,5.629115105E-1
9.048657443E0,9.619147182E-1,-9.783653259E0,5.868397355E-1
9.053434318E0,9.954141974E-1,-9.778269768E0,6.011967063E-1
9.058211193E0,9.954141974E-1,-9.778269768E0,6.299105883E-1
9.062988016E0,1.000199914E0,-9.754341125E0,6.442674994E-1
9.067764891E0,1.019342422E0,-9.749555588E0,6.729813814E-1
9.072541766E0,1.033699393E0,-9.735198975E0,6.681957245E-1
9.077318641E0,1.038485050E0,-9.730413437E0,6.969096065E-1
9.082095464E0,1.048056364E0,-9.720842361E0,6.969096065E-1
9.086872339E0,1.043270707E0,-9.706484795E0,7.160521746E-1
9.091649214E0,1.057627559E0,-9.696315765E0,7.256234884E-1
9.096426089E0,1.057627559E0,-9.711270332E0,7.256234884E-1
9.101202912E0,1.052842021E0,-9.705886841E0,7.208378315E-1
9.105979787E0,1.057627559E0,-9.720842361E0,7.208378315E-1
9.110756662E0,1.062413216E0,-9.716055870E0,7.351947427E-1
9.115533537E0,1.043270707E0,-9.720842361E0,7.112665176E-1
9.120310360E0,1.043270707E0,-9.735198975E0,7.256234884E-1
9.125087235E0,1.038485050E0,-9.725627899E0,7.256234884E-1
9.129864110E0,1.033699393E0,-9.739984512E0,7.112665176E-1
9.134640985E0,1.010369420E0,-9.744770050E0,6.969096065E-1
9.139417808E0,1.019940615E0,-9.754341125E0,6.969096065E-1
9.144194683E0,1.014556766E0,-9.735198975E0,6.825526357E-1
9.148971558E0,1.028913736E0,-9.725627899E0,6.586244106E-1
9.153748433E0,1.014556766E0,-9.720842361E0,6.538388133E-1
9.158525256E0,1.009771109E0,-9.730413437E0,6.538388133E-1
9.163302131E0,9.954141974E-1,-9.730413437E0,6.346961856E-1
9.168079006E0,9.954141974E-1,-9.725627899E0,6.490531564E-1
9.172855881E0,9.810572863E-1,-9.735198975E0,6.442674994E-1
9.177632704E0,9.810572863E-1,-9.749555588E0,6.394818425E-1
9.182409579E0,9.625129104E-1,-9.759127617E0,6.346961856E-1
9.187186454E0,9.858429432E-1,-9.754341125E0,6.299105883E-1
9.191963329E0,9.810572863E-1,-9.749555588E0,6.107679605E-1
9.196740152E0,9.571290612E-1,-9.744770050E0,6.059823632E-1
9.201517027E0,9.379864931E-1,-9.739984512E0,6.059823632E-1
9.206293902E0,9.337990284E-1,-9.739984512E0,6.107679605E-1
9.211070777E0,9.571290612E-1,-9.739984512E0,6.203392744E-1
9.215847600E0,9.667003751E-1,-9.735198975E0,6.203392744E-1
9.220624475E0,9.667003751E-1,-9.739984512E0,6.203392744E-1
9.225401350E0,9.858429432E-1,-9.730413437E0,6.155536175E-1
9.230178225E0,1.004387259E0,-9.730413437E0,5.868397355E-1
9.234955048E0,1.009172916E0,-9.739984512E0,5.766702294E-1
9.239731923E0,1.033101201E0,-9.739984512E0,5.431707501E-1
9.244508798E0,1.046859860E0,-9.720842361E0,5.431707501E-1
9.249285673E0,1.070788145E0,-9.730413437E0,5.288137794E-1
9.254062495E0,1.094716311E0,-9.754341125E0,5.144568682E-1
9.258839370E0,1.118046403E0,-9.744770050E0,4.947160780E-1
9.263616245E0,1.156929731E0,-9.758528709E0,4.612165689E-1
9.268393120E0,1.176072359E0,-9.778269768E0,4.564309120E-1
9.273169943E0,1.175474167E0,-9.763314247E0,4.277170599E-1
9.277946818E0,1.151545882E0,-9.768698692E0,4.229314029E-1
9.282723693E0,1.189831018E0,-9.778269768E0,4.079762697E-1
9.287500568E0,1.199402332E0,-9.792626381E0,3.888336718E-1
9.292277391E0,1.203589797E0,-9.802198410E0,3.601198196E-1
9.297054266E0,1.194018483E0,-9.811769485E0,3.266202807E-1
9.301831141E0,1.189232826E0,-9.811769485E0,2.979064286E-1
9.306608016E0,1.184447169E0,-9.806983948E0,2.739782035E-1
9.311384839E0,1.179661512E0,-9.816555023E0,2.452643216E-1
9.316161714E0,1.193420291E0,-9.835697174E0,2.261217386E-1
9.320938589E0,1.198205948E0,-9.854840279E0,2.021935135E-1
9.325715464E0,1.198205948E0,-9.869196892E0,1.926222295E-1
9.330492287E0,1.183848977E0,-9.864411354E0,1.686939895E-1
9.335269162E0,1.159920812E0,-9.864411354E0,1.591227055E-1
9.340046037E0,1.135992527E0,-9.854840279E0,1.639083475E-1
9.344822912E0,1.164706469E0,-9.864411354E0,1.686939895E-1
9.349599735E0,1.164706469E0,-9.854840279E0,1.926222295E-1
9.354376610E0,1.188634634E0,-9.830911636E0,1.926222295E-1
9.359153485E0,1.183848977E0,-9.806983948E0,1.734796464E-1
9.363930360E0,1.207777262E0,-9.777671814E0,1.968096644E-1
9.368707183E0,1.231107235E0,-9.744172096E0,2.111666054E-1
9.373484058E0,1.235892892E0,-9.725028992E0,2.303091735E-1
9.378260933E0,1.259821177E0,-9.695717812E0,2.638086975E-1
9.383037808E0,1.260419369E0,-9.676574707E0,3.020938635E-1
9.387814631E0,1.250848055E0,-9.652647018E0,3.649054468E-1
9.392591506E0,1.251446247E0,-9.671789169E0,4.223332107E-1
9.397368381E0,1.289731383E0,-9.662218094E0,4.797609448E-1
9.402145204E0,1.304088354E0,-9.657432556E0,5.467599630E-1
9.406922079E0,1.299900889E0,-9.638289452E0,6.376872063E-1
9.411698954E0,1.300499082E0,-9.638289452E0,6.951149702E-1
9.416475829E0,1.258026481E0,-9.633503914E0,7.633104324E-1
9.421252704E0,1.215553880E0,-9.638289452E0,8.404789567E-1
9.426029527E0,1.201795220E0,-9.667601585E0,9.170492887E-1
9.430806402E0,1.183250785E0,-9.672387123E0,9.840483069E-1
9.435583277E0,1.150349498E0,-9.686744690E0,1.051645517E0
9.440360152E0,1.083350420E0,-9.696913719E0,1.057029366E0
9.445136975E0,1.031306505E0,-9.696913719E0,1.037886858E0
9.449913850E0,9.978070259E-1,-9.696913719E0,1.013958573E0
9.454690725E0,9.882357717E-1,-9.696913719E0,1.009172916E0
9.459467600E0,1.001994491E0,-9.716055870E0,9.756734371E-1
9.464244423E0,1.016351461E0,-9.720842361E0,9.134600163E-1
9.469021298E0,1.034895778E0,-9.716055870E0,8.554341197E-1
9.473798173E0,1.058225870E0,-9.701699257E0,7.788637877E-1
9.478575048E0,1.076770186E0,-9.716055870E0,7.250252366E-1
9.483351870E0,1.114457130E0,-9.720243454E0,6.580262184E-1
9.488128745E0,1.118644595E0,-9.739984512E0,6.053841114E-1
9.492905620E0,1.133001566E0,-9.725028992E0,5.569294691E-1
9.497682495E0,1.152144074E0,-9.729815483E0,5.042873621E-1
9.502459318E0,1.171286702E0,-9.739386559E0,4.707878530E-1
9.507236193E0,1.156331539E0,-9.744172096E0,4.181457460E-1
9.512013068E0,1.131805062E0,-9.763913155E0,3.894318938E-1
9.516789891E0,1.127019525E0,-9.768698692E0,3.559323549E-1
9.521566766E0,1.131805062E0,-9.792626381E0,3.224328458E-1
9.526343641E0,1.136590719E0,-9.792626381E0,3.026920557E-1
9.531120516E0,1.136590719E0,-9.797411919E0,2.787638307E-1
9.535897391E0,1.150947690E0,-9.778269768E0,2.596212626E-1
9.540674214E0,1.141376376E0,-9.768099785E0,2.452643216E-1
9.545451089E0,1.136590719E0,-9.778269768E0,2.356930375E-1
9.550227964E0,1.126421213E0,-9.763314247E0,2.500499785E-1
9.555004787E0,1.136590719E0,-9.763314247E0,2.404786795E-1
9.559781662E0,1.121635556E0,-9.768698692E0,2.596212626E-1
9.564558537E0,1.116850019E0,-9.768099785E0,2.787638307E-1
9.569335412E0,1.122233868E0,-9.773484230E0,3.128615618E-1
9.574112287E0,1.131805062E0,-9.758528709E0,3.559323549E-1
9.578889110E0,1.141974568E0,-9.768099785E0,3.990031779E-1
9.583665985E0,1.137787223E0,-9.763913155E0,4.755735099E-1
9.588442860E0,1.137787223E0,-9.748957634E0,5.186443329E-1
9.593219735E0,1.109671474E0,-9.744770050E0,6.005984545E-1
9.597996558E0,1.095314622E0,-9.720243454E0,6.675975323E-1
9.602773433E0,1.119242787E0,-9.701101303E0,7.250252366E-1
9.607550308E0,1.149153113E0,-9.691530228E0,7.734799385E-1
9.612327131E0,1.173081279E0,-9.686744690E0,8.165507317E-1
9.617104006E0,1.177866936E0,-9.686744690E0,8.404789567E-1
9.621880881E0,1.187438250E0,-9.691530228E0,8.739784956E-1
9.626657756E0,1.211366415E0,-9.686744690E0,8.883354068E-1
9.631434579E0,1.220937729E0,-9.696315765E0,8.883354068E-1
9.636211454E0,1.230509043E0,-9.705886841E0,8.691928387E-1
9.640988329E0,1.211366415E0,-9.691530228E0,8.500502706E-1
9.645765204E0,1.210768223E0,-9.696315765E0,8.261220455E-1
9.650542079E0,1.210768223E0,-9.705886841E0,7.974081635E-1
9.655318902E0,1.220339537E0,-9.715457916E0,7.531409264E-1
9.660095777E0,1.243669510E0,-9.720243454E0,6.957131624E-1
9.664872652E0,1.238285661E0,-9.715457916E0,6.239284873E-1
9.669649475E0,1.243071318E0,-9.715457916E0,5.611169338E-1
9.674426350E0,1.223330617E0,-9.705886841E0,4.845465720E-1
9.679203225E0,1.213759303E0,-9.705886841E0,4.414757788E-1
9.683980100E0,1.217946768E0,-9.695717812E0,3.840480447E-1
9.688756975E0,1.198804140E0,-9.705886841E0,3.553341627E-1
9.693533798E0,1.222134113E0,-9.686145782E0,3.409772217E-1
9.698310673E0,1.203589797E0,-9.695717812E0,3.457628787E-1
9.703087548E0,1.203589797E0,-9.690931320E0,3.744767308E-1
9.707864370E0,1.198804140E0,-9.701101303E0,4.127618968E-1
9.712641245E0,1.180259824E0,-9.705886841E0,4.755735099E-1
9.717418120E0,1.142572761E0,-9.715457916E0,5.282155871E-1
9.722194995E0,1.138385415E0,-9.725028992E0,5.665007830E-1
9.726971818E0,1.113858938E0,-9.696315765E0,6.293123364E-1
9.731748693E0,1.090528965E0,-9.705886841E0,6.723831892E-1
9.736525568E0,1.071984529E0,-9.686744690E0,6.915257573E-1
9.741302443E0,1.067198873E0,-9.696315765E0,7.154539824E-1
9.746079266E0,1.057627559E0,-9.696315765E0,7.351947427E-1
9.750856141E0,1.048654556E0,-9.696315765E0,7.591229677E-1
9.755633016E0,1.048654556E0,-9.706484795E0,7.692924738E-1
9.760409891E0,1.058225870E0,-9.701101303E0,7.740781307E-1
9.765186714E0,1.048654556E0,-9.711270332E0,7.645068169E-1
9.769963589E0,1.063011408E0,-9.725627899E0,7.591229677E-1
9.774740464E0,1.063011408E0,-9.730413437E0,7.645068169E-1
9.779517339E0,1.086341500E0,-9.725627899E0,7.537391186E-1
9.784294162E0,1.105484009E0,-9.735198975E0,7.585247755E-1
9.789071037E0,1.119840980E0,-9.735198975E0,7.489534616E-1
9.793847912E0,1.124626637E0,-9.739984512E0,7.345965505E-1
9.798624787E0,1.124626637E0,-9.749555588E0,7.250252366E-1
9.803401610E0,1.148554921E0,-9.763913155E0,6.963114142E-1
9.808178485E0,1.167697430E0,-9.754341125E0,6.723831892E-1
9.812955360E0,1.191027522E0,-9.739386559E0,6.669993401E-1
9.817732235E0,1.214955688E0,-9.720243454E0,6.478567123E-1
