"Time (s)","Acceleration x (m/s^2)","Acceleration y (m/s^2)","Acceleration z (m/s^2)"
6.324326000E-3,1.971685886E0,3.034099102E0,7.980063438E0
1.098432600E-2,1.974078655E0,2.854637384E0,7.616354465E0
1.573916900E-2,2.522035122E0,2.361716032E0,7.331608772E0
2.049401300E-2,2.754138947E0,2.218146563E0,7.355536938E0
2.524885700E-2,2.943171740E0,2.029113531E0,7.003791809E0
3.000370100E-2,2.897708178E0,2.014756680E0,7.173682213E0
3.475854400E-2,2.907279491E0,2.086541414E0,7.561319351E0
3.951333600E-2,3.359523058E0,2.256431818E0,7.202396393E0
4.426818000E-2,3.108276606E0,2.526820660E0,7.901100159E0
4.902302300E-2,2.840280533E0,2.775674343E0,8.829515457E0
5.377786700E-2,2.696711063E0,2.885744095E0,9.667003632E0
5.853265900E-2,2.617748022E0,2.902493954E0,1.033938694E1
6.328750300E-2,2.708675146E0,2.672782898E0,1.054038334E1
6.804234600E-2,2.648854733E0,2.560320139E0,1.057149029E1
7.279719000E-2,2.493321180E0,2.450250387E0,1.048295593E1
7.755203400E-2,2.380858421E0,2.380858421E0,1.031306553E1
8.230682600E-2,2.364108801E0,2.289931297E0,9.934999466E0
8.706166900E-2,2.356930256E0,2.203789711E0,9.494720459E0
9.181651300E-2,2.301895380E0,2.136790514E0,9.075976372E0
9.657135700E-2,2.292324066E0,2.041077614E0,8.721838951E0
1.013262010E-1,2.184647083E0,2.081755638E0,8.762516975E0
1.060809920E-1,2.103291035E0,2.021935225E0,8.927620888E0
1.108358360E-1,2.062613010E0,1.928615093E0,9.102297783E0
1.155906800E-1,2.017149448E0,1.919043779E0,9.243474007E0
1.203455230E-1,1.914258122E0,1.907079697E0,9.372686386E0
1.251003670E-1,1.883151412E0,1.919043779E0,9.434899330E0
1.298551590E-1,1.904686809E0,1.959721804E0,9.284152031E0
1.346100030E-1,2.136790514E0,1.591227055E0,8.918049812E0
1.393648460E-1,2.428714991E0,1.414158225E0,8.784051895E0
1.441196900E-1,2.237289190E0,1.746760488E0,8.874979019E0
1.488745340E-1,1.990828395E0,2.153540373E0,8.968298912E0
1.536293260E-1,2.301895380E0,2.225325108E0,9.217152596E0
1.583841690E-1,1.880758643E0,2.289931297E0,8.525627136E0
1.631390130E-1,1.473978758E0,2.268395901E0,8.135597229E0
1.678938570E-1,1.289731383E0,2.194218397E0,8.123632431E0
1.726487010E-1,1.342373490E0,2.165504456E0,8.221738815E0
1.774035440E-1,1.368694544E0,2.148754835E0,8.068597794E0
1.821583360E-1,1.560120344E0,2.110469580E0,7.915457249E0
1.869131800E-1,1.811366796E0,1.950150490E0,7.855636597E0
1.916680230E-1,1.701296926E0,1.878365755E0,8.228917122E0
1.964228670E-1,1.275374413E0,1.641476393E0,8.338987350E0
2.011777110E-1,6.891329288E-1,8.087740541E-1,9.396614075E0
2.059325030E-1,5.718846321E-1,9.379864931E-1,1.002353382E1
2.106873460E-1,6.436693072E-1,1.347159147E0,1.036810017E1
2.154421900E-1,6.532405615E-1,1.615155339E0,1.072463131E1
2.201970340E-1,8.662018180E-1,1.804188251E0,1.102851963E1
2.249518780E-1,1.280160069E0,1.844866276E0,1.124626637E1
2.297066690E-1,1.698904037E0,1.756331801E0,1.130130100E1
2.344615130E-1,2.014756680E0,1.648654819E0,1.122473145E1
2.392163570E-1,2.160718918E0,1.562513232E0,1.099741268E1
2.439712010E-1,2.132004976E0,1.751546144E0,1.083948612E1
2.487260440E-1,2.136790514E0,1.799402595E0,1.037049294E1
2.534808880E-1,2.098505497E0,1.806581140E0,9.923035622E0
2.582356800E-1,1.818545222E0,1.466800332E0,9.547362328E0
2.629905230E-1,1.785045743E0,1.284945726E0,9.353543282E0
2.677453670E-1,1.797009826E0,1.275374413E0,9.334401131E0
2.725002110E-1,1.670190215E0,1.445264935E0,9.451649666E0
2.772550550E-1,1.512263894E0,1.708475351E0,9.616754532E0
2.820098980E-1,1.335195065E0,1.964507341E0,9.755537987E0
2.867646900E-1,1.270588875E0,2.222932339E0,9.822537422E0
2.915195340E-1,1.351944804E0,2.445464849E0,9.812965393E0
2.962743780E-1,1.426122308E0,2.536391973E0,9.686145782E0
3.010292210E-1,1.454836130E0,2.560320139E0,9.487542152E0
3.057840650E-1,1.596012712E0,2.538784742E0,9.288937569E0
3.105389090E-1,1.899901152E0,2.383251429E0,9.064012527E0
3.152937010E-1,2.096112728E0,2.249253273E0,8.719446182E0
3.200485440E-1,2.155933142E0,2.294716835E0,8.432307243E0
3.248033880E-1,2.220539331E0,2.316252232E0,8.176275253E0
3.295582320E-1,2.165504456E0,2.440679073E0,8.008777618E0
3.343130760E-1,1.978864312E0,2.545963287E0,7.836493969E0
3.390679190E-1,1.763510346E0,2.636890650E0,7.781459332E0
3.438227630E-1,1.619940877E0,2.758924484E0,7.726424217E0
3.485775550E-1,1.457229018E0,2.845066071E0,7.647460938E0
3.533323980E-1,1.330409408E0,2.878565550E0,7.680960655E0
3.580872420E-1,1.277767301E0,2.914458036E0,7.774280548E0
3.628420860E-1,1.299302697E0,2.943171740E0,7.769495010E0
3.675969300E-1,1.316052437E0,2.967100143E0,7.843672752E0
3.723517210E-1,1.385444283E0,2.952743053E0,7.956135273E0
3.771065650E-1,1.462014675E0,2.952743053E0,8.078168869E0
3.818614090E-1,1.476371527E0,2.947957516E0,8.173882484E0
3.866162530E-1,1.481157184E0,2.971885681E0,8.216953278E0
3.913710960E-1,1.505085468E0,3.007778168E0,8.087740898E0
3.961259400E-1,1.627119422E0,3.041277647E0,8.109275818E0
4.008807840E-1,2.921636343E0,2.249253273E0,8.207381248E0
4.056355760E-1,3.280559778E0,1.931007862E0,8.427521706E0
4.103904190E-1,3.108276606E0,2.153540373E0,8.415556908E0
4.151452630E-1,2.868994236E0,2.548356056E0,8.472985268E0
4.199001070E-1,2.739781857E0,2.809173822E0,8.444271088E0
4.246549510E-1,2.646461725E0,2.993421078E0,8.355736732E0
4.294097940E-1,2.495713949E0,3.103491068E0,8.274380684E0
4.341646380E-1,2.321038008E0,3.158525944E0,8.118846893E0
4.389194820E-1,2.100898266E0,3.194418192E0,8.023134232E0
4.436742730E-1,1.789831281E0,3.206382275E0,8.015955925E0
4.484291170E-1,1.497906923E0,3.247060299E0,8.145168304E0
4.531839610E-1,1.158126116E0,3.275774240E0,8.401200294E0
4.579388050E-1,7.322037220E-1,3.345165968E0,9.066405296E0
4.626936480E-1,5.383850932E-1,3.275774240E0,9.707681656E0
4.674484920E-1,5.527420044E-1,3.203989506E0,1.022453117E1
4.722033360E-1,5.048855543E-1,3.127419233E0,1.061934662E1
4.769581800E-1,3.732803464E-1,2.988635540E0,1.064088249E1
4.817129710E-1,-2.943171859E-1,2.002792597E0,1.032981491E1
4.864678150E-1,-4.785645287E-3,1.708475351E0,1.038485050E1
4.912226590E-1,1.483550072E-1,1.842473388E0,1.051884842E1
4.959775030E-1,1.651047617E-1,2.189432621E0,1.084905815E1
5.007323460E-1,-1.435693540E-2,2.589034081E0,1.095673466E1
5.054871900E-1,-5.503492057E-2,2.859423161E0,1.088255692E1
5.102420340E-1,3.996013701E-1,2.825923443E0,1.081795120E1
5.149968780E-1,1.045663476E0,2.486142635E0,1.059302616E1
5.197516690E-1,1.756331801E0,2.096112728E0,1.028913784E1
5.245065130E-1,2.270788670E0,1.887937069E0,9.966106415E0
5.292613570E-1,2.459821701E0,2.280359983E0,9.793823242E0
5.340162010E-1,2.337787628E0,2.818745136E0,9.683753014E0
5.387710440E-1,2.337787628E0,3.294916868E0,9.640682220E0
5.435258880E-1,2.167897224E0,3.400201082E0,9.492327690E0
5.482807320E-1,1.622333765E0,3.326023579E0,9.300901413E0
5.530355760E-1,1.244267821E0,3.134597778E0,9.001798630E0
5.577904190E-1,1.083948612E0,2.955136061E0,8.635697365E0
5.625452110E-1,9.930213690E-1,2.775674343E0,8.401200294E0
5.673000550E-1,7.657032609E-1,2.744567633E0,8.295916557E0
5.720548980E-1,4.307080805E-1,2.859423161E0,8.324629784E0
5.768097420E-1,3.373879790E-1,3.002992392E0,8.315058708E0
5.815645860E-1,5.575276613E-1,3.151347399E0,8.461020470E0
5.863194300E-1,8.374879509E-2,2.593819857E0,8.267202377E0
5.910742730E-1,1.100698411E-1,2.663211584E0,8.216953278E0
5.958291170E-1,2.081755698E-1,3.048455954E0,8.216953278E0
6.005839610E-1,3.445664644E-1,3.586841106E0,8.334200859E0
6.053388050E-1,4.809573591E-1,4.003192425E0,8.528019905E0
6.100935960E-1,5.359922647E-1,4.158725739E0,8.654839516E0
6.148484400E-1,1.062413216E0,4.015156269E0,9.006584167E0
6.196032840E-1,1.655833244E0,3.838087559E0,8.860622406E0
6.243581280E-1,2.108076811E0,3.845266104E0,8.860622406E0
6.291129710E-1,2.117648125E0,3.957728624E0,8.867800713E0
6.338678150E-1,2.172683001E0,4.146761417E0,8.812766075E0
6.386226590E-1,2.431107759E0,4.271188259E0,8.941978455E0
6.433775030E-1,2.797209740E0,4.314259052E0,9.205188751E0
6.481323460E-1,2.608176708E0,4.187439442E0,9.133403778E0
6.528871900E-1,2.378465652E0,4.031906128E0,9.004191399E0
6.576420340E-1,2.225325108E0,3.866801500E0,8.872586250E0
6.623968260E-1,2.103291035E0,3.766302824E0,8.705088615E0
6.671516690E-1,2.002792597E0,3.701696634E0,8.461020470E0
6.719065130E-1,1.887937069E0,3.646661758E0,8.255238533E0
6.766613570E-1,1.775474429E0,3.613162279E0,8.056633949E0
6.814162010E-1,1.895115495E0,3.627519131E0,7.994420528E0
6.861710440E-1,2.455035925E0,3.455235958E0,8.011170387E0
6.909258880E-1,2.091326952E0,3.675375462E0,8.003992081E0
6.956807320E-1,1.713261008E0,3.730410576E0,7.881958008E0
7.004355760E-1,1.868794441E0,3.766302824E0,7.925028801E0
7.051904190E-1,2.225325108E0,3.840480328E0,8.023134232E0
7.099452630E-1,2.258824587E0,3.838087559E0,8.061419487E0
7.147001070E-1,2.246860504E0,3.756731510E0,8.003992081E0
7.194548980E-1,2.361716032E0,3.713660717E0,7.874779224E0
7.242097420E-1,2.510071039E0,3.797409534E0,7.850851059E0
7.289645860E-1,2.577069998E0,3.917050600E0,7.774280548E0
7.337194300E-1,2.644068956E0,3.996013880E0,7.728816986E0
7.384742730E-1,2.699103832E0,4.055834293E0,7.601997375E0
7.432291170E-1,2.739781857E0,4.098905087E0,7.420143127E0
7.479839610E-1,2.799602509E0,4.228117466E0,7.336394310E0
7.527388050E-1,2.907279491E0,4.376472473E0,7.271788120E0
7.574936480E-1,3.163311481E0,4.469792843E0,7.360322475E0
7.622484920E-1,3.086741209E0,4.508078098E0,7.295716286E0
7.670033360E-1,3.239881754E0,4.369294167E0,7.204789162E0
7.717581800E-1,3.340380430E0,4.359723091E0,7.324429989E0
7.765130230E-1,3.318845034E0,4.421936035E0,7.475177765E0
7.812678670E-1,3.510270834E0,4.419543266E0,7.668996811E0
7.860227110E-1,3.622733593E0,4.390829563E0,7.915457249E0
7.907775550E-1,3.687339783E0,4.319045067E0,8.075776100E0
7.955323980E-1,3.684946775E0,4.223331928E0,8.336593628E0
8.002871900E-1,3.646661758E0,4.146761417E0,8.549555779E0
8.050420340E-1,3.620340586E0,4.003192425E0,8.592626572E0
8.097968780E-1,3.684946775E0,3.878765583E0,8.640482903E0
8.145517210E-1,3.809373617E0,3.780659676E0,8.676374435E0
8.193065650E-1,3.862015724E0,3.728017569E0,8.738588333E0
8.240614090E-1,3.737588882E0,3.747160196E0,8.752944946E0
8.288162530E-1,3.859622955E0,3.665804386E0,8.807980537E0
8.335710960E-1,4.139583111E0,3.560520172E0,8.822337151E0
8.383259400E-1,4.388436794E0,3.428914785E0,8.927620888E0
8.430807840E-1,4.261617184E0,3.428914785E0,8.932407379E0
8.478356280E-1,4.153940201E0,3.335594654E0,8.870193481E0
8.525904710E-1,4.000799656E0,3.230310678E0,8.714659691E0
8.573453150E-1,3.766302824E0,3.067598581E0,8.532805443E0
8.621001590E-1,3.383451223E0,2.988635540E0,8.403593063E0
8.668550030E-1,2.976671457E0,3.002992392E0,8.025527000E0
8.716098460E-1,2.792423964E0,3.022135019E0,7.556533813E0
8.763646900E-1,2.842673302E0,3.034099102E0,7.068397999E0
8.811195340E-1,2.904886723E0,3.153740168E0,6.539584160E0
8.858743780E-1,2.955136061E0,3.328416348E0,5.867201328E0
8.906291690E-1,3.208775282E0,3.330809116E0,5.367101192E0
8.953840130E-1,3.416950703E0,3.579662561E0,4.969892502E0
9.001388570E-1,3.649054527E0,3.711267948E0,4.512863636E0
9.048937010E-1,3.823730469E0,3.814159393E0,4.108476639E0
9.096485440E-1,3.644268990E0,4.012763500E0,3.864408493E0
9.144033880E-1,3.646661758E0,4.163511276E0,3.625126362E0
9.191582320E-1,3.723232031E0,4.197010994E0,3.359523058E0
9.239130760E-1,3.742374659E0,4.189832687E0,3.244667530E0
9.286679190E-1,3.840480328E0,4.041477680E0,3.333201885E0
9.334227630E-1,4.283152580E0,3.622733593E0,3.768695593E0
9.381776070E-1,4.802394867E0,3.237488985E0,4.465006828E0
9.429324510E-1,5.223531723E0,3.050848961E0,5.197210789E0
9.476872940E-1,5.465207100E0,3.012563705E0,5.800201893E0
9.524421380E-1,5.563312531E0,3.081955671E0,6.202196121E0
9.571969820E-1,5.615954876E0,3.151347399E0,6.283552170E0
9.619518260E-1,5.670989513E0,3.235096216E0,5.979663849E0
9.667066690E-1,5.702096462E0,3.354737282E0,5.424529076E0
9.714615130E-1,5.804987907E0,3.543770313E0,4.785645485E0
9.762163570E-1,5.984449387E0,3.751945972E0,4.098905087E0
9.809712010E-1,6.190232277E0,3.993621111E0,3.716053486E0
9.857260440E-1,6.295516491E0,4.201796532E0,3.381058455E0
9.904808880E-1,6.518048763E0,4.366901398E0,3.129812002E0
9.952357320E-1,6.951149940E0,4.366901398E0,3.062813044E0
9.999905760E-1,7.200003147E0,4.295116425E0,3.115455151E0
1.004745419E0,7.008577347E0,4.252045631E0,2.969492912E0
1.009500263E0,6.747759819E0,4.055834293E0,3.024527788E0
1.014255107E0,6.474977970E0,3.857230186E0,3.256631613E0
1.019009951E0,6.173482418E0,3.565305710E0,3.708875179E0
1.023764794E0,5.895915031E0,3.282952785E0,4.381258488E0
1.028519638E0,5.819344521E0,3.058027267E0,5.178068161E0
1.033274482E0,5.919843197E0,2.868994236E0,5.934200287E0
1.038029326E0,6.077769279E0,2.773281336E0,6.599404812E0
1.042784169E0,6.312266350E0,2.720639229E0,7.121040344E0
1.047539013E0,6.463014126E0,2.708675146E0,7.456035137E0
1.052293857E0,6.568298340E0,2.718246460E0,7.546962738E0
1.057048701E0,6.675975323E0,2.739781857E0,7.563712597E0
1.061803544E0,6.838686943E0,2.799602509E0,7.432106972E0
1.066558388E0,7.049255371E0,2.919243574E0,7.099504948E0
1.071313232E0,7.290930748E0,3.022135019E0,6.723831654E0
1.076068076E0,7.587640762E0,3.136990547E0,6.537191391E0
1.080822919E0,7.874779224E0,3.208775282E0,6.520441532E0
1.085577763E0,7.970492363E0,3.270988464E0,6.498906136E0
1.090332607E0,7.922635555E0,3.187239647E0,6.486942291E0
1.095087451E0,7.798209190E0,2.981456995E0,6.518048763E0
1.099842294E0,7.613961697E0,2.751745939E0,6.520441532E0
1.104597138E0,7.415357590E0,2.550748825E0,6.460621357E0
1.109351982E0,7.300501823E0,2.371287346E0,6.357729912E0
1.114106826E0,7.243073940E0,2.196611166E0,6.197410583E0
1.118861669E0,7.247859955E0,2.031506538E0,5.994020939E0
1.123616513E0,7.314858913E0,1.864008784E0,5.907878876E0
1.128371357E0,7.465606689E0,1.679761529E0,5.946164131E0
1.133126201E0,7.695317745E0,1.493121386E0,6.130411625E0
1.137881044E0,7.934599876E0,1.378265858E0,6.345765591E0
1.142635888E0,8.104490280E0,1.335195065E0,6.482156754E0
1.147390732E0,8.183453560E0,1.332802176E0,6.549155712E0
1.152145576E0,8.202595711E0,1.318445325E0,6.479763508E0
1.156900419E0,8.202595711E0,1.318445325E0,6.202196121E0
1.161655263E0,8.114061356E0,1.363908887E0,5.874379635E0
1.166410107E0,7.999206066E0,1.361516118E0,5.529813290E0
1.171164951E0,7.862815380E0,1.351944804E0,5.247459888E0
1.175919794E0,7.807780266E0,1.270588875E0,4.960321426E0
1.180674638E0,7.817351341E0,1.234696507E0,4.670789719E0
1.185429482E0,7.934599876E0,1.119840980E0,4.386044025E0
1.190184326E0,8.324629784E0,9.643075466E-1,4.139583111E0
1.194939169E0,8.853444099E0,9.427721500E-1,4.051048756E0
1.199694013E0,9.200403214E0,1.067198873E0,4.144368649E0
1.204448857E0,9.396614075E0,1.189232826E0,4.383651257E0
1.209203701E0,9.583254814E0,1.253839016E0,4.761716843E0
1.213958544E0,9.738788605E0,1.256231904E0,5.335994720E0
1.218713388E0,9.872786522E0,1.186840057E0,5.931807518E0
1.223468232E0,9.961320877E0,1.064806104E0,6.367300987E0
1.228223076E0,1.004267693E1,9.427721500E-1,6.553941250E0
1.232977919E0,1.004267693E1,8.614161611E-1,6.525227547E0
1.237732763E0,9.997213364E0,8.614161611E-1,6.391229153E0
1.242487607E0,9.889535904E0,9.236295223E-1,6.151947021E0
1.247242451E0,9.877572060E0,1.028913736E0,5.862415314E0
1.251997294E0,9.875179291E0,1.205982566E0,5.584847927E0
1.256752138E0,9.958928108E0,1.383051515E0,5.359922886E0
1.261506982E0,1.012642574E1,1.500299811E0,5.005784988E0
1.266261826E0,1.029870892E1,1.586441398E0,4.587040901E0
1.271016669E0,1.048534870E1,1.667797327E0,4.182653904E0
1.275771513E0,1.072223854E1,1.730010748E0,3.840480328E0
1.280526357E0,1.093759251E1,1.808973908E0,3.601198196E0
1.285281201E0,1.105962658E1,1.806581140E0,3.400201082E0
1.290036044E0,1.118644619E1,1.753939033E0,3.182454109E0
1.294790888E0,1.134197903E1,1.605584025E0,2.969492912E0
1.299545732E0,1.161715412E1,1.473978758E0,2.852244616E0
1.304300576E0,1.196889877E1,1.313659668E0,2.900100946E0
1.309055419E0,1.193300629E1,1.385444283E0,2.758924484E0
1.313810315E0,1.209571838E1,1.438086390E0,2.725425005E0
1.318565107E0,1.214596748E1,1.593619823E0,2.775674343E0
1.323320003E0,1.223450184E1,1.629512191E0,2.842673302E0
1.328074846E0,1.234217930E1,1.488335729E0,2.885744095E0
1.332829690E0,1.222732353E1,1.368694544E0,2.924029350E0
1.337584534E0,1.190668583E1,1.380658627E0,2.943171740E0
1.342339378E0,1.149272728E1,1.445264935E0,2.914458036E0
1.347094221E0,1.116730309E1,1.418943882E0,2.864208698E0
1.351849065E0,1.107876873E1,1.261017561E0,2.816352367E0
1.356603909E0,1.107637596E1,1.100698471E0,2.715853691E0
1.361358753E0,1.099023438E1,1.033699393E0,2.531606436E0
1.366113596E0,1.084666538E1,1.014556766E0,2.289931297E0
1.370868440E0,1.078445148E1,9.786644578E-1,2.041077614E0
1.375623284E0,1.082991505E1,9.284151793E-1,1.840080619E0
1.380378128E0,1.094237804E1,9.738788009E-1,1.658226132E0
1.385132971E0,1.108594704E1,1.093519926E0,1.529013634E0
1.389887815E0,1.137547874E1,1.165304661E0,1.392622828E0
1.394642659E0,1.201196957E1,1.167697430E0,1.354337573E0
1.399397503E0,1.283749390E1,1.251446247E0,1.423729420E0
1.404152346E0,1.346680546E1,1.531406522E0,1.569691658E0
1.408907190E0,1.376351547E1,1.787438512E0,1.734796405E0
1.413662034E0,1.395015621E1,1.933400750E0,1.849651933E0
1.418416878E0,1.390469265E1,2.007578135E0,1.842473388E0
1.423171773E0,1.372523022E1,1.861616015E0,1.789831281E0
1.427926617E0,1.318923855E1,1.768295884E0,1.775474429E0
1.432681461E0,1.245224857E1,1.780260086E0,1.627119422E0
1.437436305E0,1.191625690E1,1.622333765E0,1.366301775E0
1.442191148E0,1.157886887E1,1.361516118E0,1.146162033E0
1.446945992E0,1.119841003E1,1.148554921E0,1.024128079E0
1.451700836E0,1.069591713E1,1.007378340E0,1.000199914E0
1.456455680E0,1.022453117E1,7.920243144E-1,1.115055323E0
1.461210523E0,1.002831936E1,5.383850932E-1,1.306481123E0
1.465965367E0,1.031067276E1,3.349951804E-1,1.593619823E0
1.470720211E0,1.083948612E1,3.445664644E-1,2.199003935E0
1.475475055E0,1.108833981E1,5.431707501E-1,2.998206854E0
1.480229898E0,1.105723381E1,7.034898400E-1,3.742374659E0
1.484984742E0,1.099980545E1,7.274180651E-1,4.321437836E0
1.489739586E0,1.089212894E1,6.245267391E-1,4.673182487E0
1.494494430E0,1.074616623E1,4.713860750E-1,4.867001057E0
1.499249326E0,1.051645565E1,3.230310678E-1,4.969892502E0
1.504004169E0,1.038245773E1,1.794617027E-1,4.962714195E0
1.508759013E0,1.048534870E1,7.178468257E-2,4.773681164E0
1.513513857E0,1.065284634E1,1.674975902E-1,4.491328239E0
1.518268701E0,1.066481018E1,4.163511395E-1,4.199403763E0
1.523023544E0,1.056670475E1,5.958128572E-1,3.876372576E0
1.527778388E0,1.063609695E1,5.575276613E-1,3.625126362E0
1.532533232E0,1.042552853E1,6.269195080E-1,3.309273720E0
1.537288076E0,1.010488987E1,1.014556766E0,2.935993433E0
1.542042919E0,1.012642574E1,1.378265858E0,1.655833244E0
1.546797763E0,1.037767220E1,1.806581140E0,-1.318445325E0
1.551552607E0,1.074377346E1,2.002792597E0,-4.098905087E0
1.556307503E0,1.092084217E1,2.258824587E0,-5.936593056E0
1.561062346E0,1.075334454E1,2.505285263E0,-6.360122681E0
1.565817190E0,1.055474091E1,2.589034081E0,-5.735595703E0
1.570572034E0,1.060977554E1,2.490928411E0,-4.725824833E0
1.575326878E0,1.084187984E1,2.330609322E0,-3.326023579E0
1.580081721E0,1.059063339E1,1.739582062E0,-2.512463808E0
1.584836565E0,1.026281643E1,1.588834286E0,-1.404586911E0
1.589591409E0,9.934999466E0,1.392622828E0,-3.086741269E-1
1.594346253E0,9.801001549E0,1.117448211E0,6.963114142E-1
1.599101096E0,1.001874828E1,6.795616150E-1,1.581655741E0
1.603855940E0,1.026520920E1,2.536391914E-1,2.397608280E0
1.608610836E0,1.005224800E1,-2.871387303E-1,3.373879910E0
1.613365680E0,9.590433121E0,-9.260223508E-1,4.019941807E0
1.618120523E0,8.824729919E0,-1.418943882E0,4.302295208E0
1.622875367E0,7.800601959E0,-1.665404558E0,3.962514400E0
1.627630211E0,6.745367050E0,-1.665404558E0,3.481556892E0
1.632385055E0,6.029912949E0,-1.753939033E0,2.756531715E0
1.637139898E0,5.324030399E0,-1.672582984E0,1.995614052E0
1.641894742E0,5.163711071E0,-1.610369682E0,1.550549030E0
1.646649586E0,5.848058701E0,-1.495514154E0,1.208375454E0
1.651404482E0,7.501499176E0,-1.356730461E0,1.076770186E0
1.656159326E0,9.219545364E0,-1.938186288E0,6.436693072E-1
1.660914169E0,8.650053978E0,-2.423929453E0,-2.344966233E-1
1.665669013E0,7.200003147E0,-2.598605394E0,-2.105683982E-1
1.670423857E0,5.773880959E0,-2.672782898E0,4.211367965E-1
1.675178701E0,5.010570526E0,-2.749353170E0,1.119840980E0
1.679933544E0,4.680361271E0,-2.976671457E0,1.689332843E0
1.684688388E0,5.044070244E0,-3.481556892E0,2.187039852E0
1.689443284E0,5.168497086E0,-3.675375462E0,2.615355253E0
1.694198128E0,5.383851051E0,-3.742374659E0,3.242274761E0
1.698952971E0,5.864808083E0,-3.713660717E0,4.094119549E0
1.703707815E0,6.697510719E0,-3.627519131E0,4.957928658E0
1.708462659E0,7.601997375E0,-3.720839262E0,5.520241737E0
1.713217503E0,8.437092781E0,-3.735196114E0,5.864808083E0
1.717972346E0,9.293723106E0,-3.818944931E0,5.393422127E0
1.722727242E0,9.956535339E0,-3.948157310E0,4.316651821E0
1.727482086E0,1.127737331E1,-4.019941807E0,4.110869408E0
1.732236930E0,1.412243938E1,-4.462614059E0,4.950749874E0
1.736991773E0,1.573998737E1,-4.991427898E0,5.178068161E0
1.741746617E0,1.420379543E1,-4.656432629E0,3.220739365E0
1.746501461E0,1.020538902E1,-2.943171740E0,8.015955687E-1
1.751256305E0,7.386643410E0,-1.624726534E0,-4.833501875E-1
1.756011201E0,6.206982136E0,-1.473978758E0,-6.532405615E-1
1.760766044E0,7.298109055E0,-3.605983734E0,-2.392822690E-2
1.765520888E0,7.925028801E0,-5.304887772E0,1.256231904E0
1.770275732E0,7.616354465E0,-5.814558983E0,2.428714991E0
1.775030576E0,6.733402729E0,-5.682953835E0,2.861815929E0
1.779785419E0,5.814558983E0,-5.513063431E0,2.947957516E0
1.784540315E0,5.709274769E0,-5.891129494E0,3.237488985E0
1.789295159E0,5.931807518E0,-6.436692715E0,3.981656790E0
1.794050003E0,6.130411625E0,-6.903293133E0,4.457828522E0
1.798804846E0,6.553941250E0,-7.546962738E0,4.527220249E0
1.803559690E0,6.628118515E0,-8.054241180E0,4.280759811E0
1.808314534E0,5.668596745E0,-7.348358154E0,4.747360229E0
1.813069378E0,5.223531723E0,-6.915257454E0,5.051248550E0
1.817824273E0,5.312066078E0,-6.628118515E0,4.898108006E0
1.822579117E0,6.702296257E0,-7.128218651E0,4.060619831E0
1.827333961E0,7.767102242E0,-7.489534855E0,3.302095175E0
1.832088805E0,8.516056061E0,-7.257431030E0,2.971885681E0
1.836843648E0,8.489734650E0,-6.781259537E0,2.746960402E0
1.841598544E0,8.243273735E0,-6.467799664E0,2.562713146E0
1.846353388E0,7.963313580E0,-6.271588326E0,2.462214470E0
1.851108232E0,7.381857872E0,-6.139982700E0,2.632104874E0
1.855863076E0,6.814758778E0,-6.015556335E0,2.780459881E0
1.860617919E0,6.807580471E0,-6.774080753E0,3.390629768E0
1.865372763E0,8.159524918E0,-9.384650230E0,3.170490026E0
1.870127659E0,6.738188744E0,-9.257830620E0,4.165904045E0
1.874882503E0,5.613562107E0,-8.202595711E0,4.785645485E0
1.879637346E0,5.714060307E0,-8.209774017E0,2.462214470E0
1.884392190E0,5.304887772E0,-8.312665939E0,9.714859724E-1
1.889147034E0,4.524827480E0,-8.429914474E0,1.483550072E0
1.893901930E0,4.584648132E0,-8.673981667E0,2.725425005E0
1.898656773E0,6.238088608E0,-9.030512810E0,3.287738323E0
1.903411617E0,6.245266914E0,-8.791230202E0,4.141975880E0
1.908166461E0,6.472585201E0,-8.551948547E0,5.828916073E0
1.912921305E0,7.257431030E0,-8.082955360E0,6.486942291E0
1.917676148E0,7.743174076E0,-7.929814339E0,6.613761902E0
1.922431044E0,7.635497093E0,-8.039883614E0,6.412764549E0
1.927185888E0,6.893722057E0,-7.745566845E0,4.374079704E0
1.931940732E0,7.886743546E0,-7.807780266E0,4.500899315E0
1.936695576E0,8.757730484E0,-7.826922894E0,5.039284706E0
1.941450419E0,8.126026154E0,-7.936992645E0,4.180261135E0
1.946205315E0,6.714260101E0,-8.056633949E0,3.663411379E0
1.950960159E0,4.917250633E0,-7.369893551E0,1.514656782E0
1.955715003E0,5.678168297E0,-7.690532207E0,7.657032609E-1
1.960469846E0,6.671189308E0,-8.195417404E0,2.395215511E0
1.965224742E0,7.116254330E0,-8.626125336E0,4.335794449E0
1.969979586E0,7.030112743E0,-8.915657043E0,5.111069202E0
1.974734430E0,6.719046116E0,-8.705088615E0,5.393422127E0
1.979489273E0,6.369693756E0,-8.482556343E0,5.228317261E0
1.984244117E0,6.017949104E0,-8.595019341E0,4.656432629E0
1.988999013E0,6.072983742E0,-8.566305161E0,4.005585194E0
1.993753857E0,6.252445698E0,-8.705088615E0,3.792623997E0
1.998508701E0,6.668796539E0,-8.740981102E0,3.749552965E0
2.003263544E0,7.288537979E0,-8.664410591E0,3.598805189E0
2.008018440E0,7.568498135E0,-8.386843681E0,3.342773199E0
2.012773284E0,7.487142086E0,-8.310273170E0,2.550748825E0
2.017528128E0,7.283751965E0,-8.470592499E0,2.112862349E0
2.022282971E0,7.247859955E0,-8.685946465E0,1.830509305E0
2.027037815E0,6.869793892E0,-8.839086533E0,1.540977836E0
2.031792711E0,6.218945980E0,-8.946763992E0,1.596012712E0
2.036547555E0,5.312066078E0,-9.083154678E0,1.962114573E0
2.041302398E0,4.151547432E0,-9.238688469E0,2.280359983E0
2.046057242E0,3.330809116E0,-9.875179291E0,2.383251429E0
2.050812138E0,2.845066071E0,-1.040159988E1,2.524427891E0
2.055566982E0,2.821137905E0,-1.046142101E1,2.653640270E0
2.060321826E0,3.218346357E0,-1.029392338E1,2.859423161E0
2.065076669E0,3.359523058E0,-9.911071777E0,3.192025423E0
2.069831565E0,3.189632654E0,-9.255437851E0,3.414557934E0
2.074586409E0,3.139383316E0,-8.760123253E0,3.555734396E0
2.079341253E0,2.902493954E0,-8.212167740E0,3.900300980E0
2.084096096E0,3.034099102E0,-7.767102242E0,3.665804386E0
2.088850992E0,3.395415306E0,-7.563712597E0,3.981656790E0
2.093605836E0,3.988835335E0,-7.515855789E0,4.783252239E0
2.098360680E0,4.606183529E0,-7.479963779E0,5.333601475E0
2.103115523E0,4.936393261E0,-7.341179848E0,5.089533806E0
2.107870419E0,4.800002098E0,-6.690331936E0,4.153940201E0
2.112625263E0,4.857429981E0,-6.642475605E0,2.294716835E0
2.117380107E0,5.608776093E0,-6.972685337E0,8.973084688E-1
2.122134951E0,6.532405853E0,-7.178467751E0,-7.441678643E-1
2.126889846E0,7.367500782E0,-7.211967468E0,-2.053041935E0
2.131644690E0,8.236095428E0,-7.152146816E0,-2.213361025E0
2.136399534E0,9.363115311E0,-7.204789162E0,-1.962114573E0
2.141154430E0,1.018385315E1,-7.338787079E0,-1.325623751E0
2.145909273E0,1.033699417E1,-7.331608772E0,-6.293123364E-1
2.150664117E0,9.889535904E0,-7.355536938E0,-2.703889608E-1
2.155418961E0,9.528220177E0,-7.621140003E0,-1.100698411E-1
2.160173857E0,9.468399048E0,-8.176275253E0,5.096712112E-1
2.164928701E0,9.236295700E0,-8.712266922E0,1.476371527E0
2.169683544E0,9.142974854E0,-9.212367058E0,2.084148407E0
2.174438388E0,8.743373871E0,-9.626325607E0,2.019542217E0
2.179193284E0,7.726424217E0,-9.133403778E0,1.655833244E0
2.183948128E0,7.812565804E0,-9.671789169E0,4.498506486E-1
2.188702971E0,6.809973240E0,-9.923035622E0,-6.987041831E-1
2.193457867E0,6.056233883E0,-1.018385315E1,-1.016949654E0
2.198212711E0,4.859822750E0,-1.041117096E1,-9.427721500E-1
2.202967555E0,3.905086517E0,-1.052124119E1,-7.657032460E-2
2.207722451E0,3.436093330E0,-1.064806080E1,9.499505758E-1
2.212477294E0,3.239881754E0,-1.077009487E1,1.820937991E0
2.217232138E0,3.261417150E0,-1.079402256E1,2.423929453E0
2.221986982E0,3.699303865E0,-1.047577763E1,2.562713146E0
2.226741878E0,3.723232031E0,-1.034656525E1,2.584248543E0
2.231496721E0,3.668197155E0,-1.045902824E1,2.519642353E0
2.236251565E0,3.751945972E0,-1.035613632E1,2.428714991E0
2.241006461E0,3.838087559E0,-1.011206818E1,2.242074728E0
2.245761305E0,3.663411379E0,-9.908679008E0,2.060220242E0
2.250516148E0,3.294916868E0,-9.796216011E0,1.878365755E0
2.255271044E0,2.797209740E0,-9.600004196E0,1.682154298E0
2.260025888E0,2.155933142E0,-9.408578873E0,1.591227055E0
2.264780732E0,1.406979680E0,-9.329615593E0,1.569691658E0
2.269535628E0,4.546363056E-1,-9.518648148E0,1.928615093E0
2.274290471E0,-5.120640397E-1,-9.774680138E0,2.043470621E0
2.279045315E0,-8.901300430E-1,-9.466006279E0,1.466800332E0
2.283800211E0,-6.723831892E-1,-9.884750366E0,1.081555843E0
2.288555055E0,1.124626622E-1,-1.077966595E1,3.828516230E-2
2.293309898E0,1.584048629E0,-1.181336498E1,-1.024128079E0
2.298064794E0,2.282752752E0,-1.221535969E1,-7.082754970E-1
2.302819638E0,2.323430777E0,-1.228714466E1,5.623133183E-1
2.307574482E0,2.115255117E0,-1.229193020E1,1.871187329E0
2.312329378E0,2.100898266E0,-1.257667542E1,3.270988464E0
2.317084221E0,2.304288149E0,-1.327059460E1,4.094119549E0
2.321839065E0,2.818745136E0,-1.414158154E1,3.907479286E0
2.326593961E0,3.108276606E0,-1.511067486E1,3.125026464E0
2.331348805E0,2.926422119E0,-1.596012688E1,2.196611166E0
2.336103648E0,1.076770186E0,-1.475653744E1,1.775474429E0
2.340858544E0,1.596012712E0,-1.241396427E1,1.112662554E0
2.345613388E0,3.716053486E0,-1.218664551E1,5.934200287E-1
2.350368232E0,4.316651821E0,-1.179661560E1,2.871387303E-1
2.355123128E0,4.654039860E0,-1.137547874E1,-1.316052526E-1
2.359877971E0,4.883750916E0,-1.096869946E1,-3.397808075E-1
2.364632815E0,5.000999451E0,-1.068395329E1,-2.105683982E-1
2.369387711E0,4.893322468E0,-1.022453117E1,1.890329868E-1
2.374142555E0,4.551148891E0,-9.745966911E0,5.910272002E-1
2.378897451E0,4.036691666E0,-8.425128937E0,4.378865361E-1
2.383652294E0,2.959921598E0,-5.706882000E0,5.264210105E-1
2.388407138E0,2.301895380E0,-3.266202927E0,9.882357717E-1
2.393162034E0,1.418943882E0,-2.021935225E0,1.177268744E0
2.397916878E0,1.129412293E0,9.260223508E-1,6.364908218E-1
2.402671721E0,2.081755638E0,-7.178467698E-3,-1.627119333E-1
2.407426617E0,2.435893536E0,-1.397408366E0,5.742774159E-2
2.412181461E0,2.330609322E0,-2.354537487E0,5.264210105E-1
2.416936305E0,2.053041935E0,-3.627519131E0,9.762716293E-1
2.421691201E0,2.120040894E0,-5.108676434E0,1.076770186E0
2.426446044E0,2.199003935E0,-6.726224422E0,6.580262184E-1
2.431200940E0,2.292324066E0,-8.003992081E0,1.746760458E-1
2.435955784E0,2.378465652E0,-9.001798630E0,-1.124626622E-1
2.440710628E0,2.318645239E0,-9.631111145E0,-5.264209956E-2
2.445465523E0,3.943371773E0,-1.133719349E1,3.469592929E-1
2.450220367E0,6.082555294E0,-1.449811268E1,3.421736360E-1
2.454975263E0,5.639883041E0,-1.509392548E1,2.081755698E-1
2.459730107E0,3.270988464E0,-1.313181114E1,9.571290575E-3
2.464484951E0,-1.483550072E-1,-8.640482903E0,-4.259224236E-1
2.469239846E0,-2.160718918E0,-5.369493961E0,-1.674975902E-1
2.473994690E0,-2.117648125E0,-4.704289436E0,1.172483116E-1
2.478749586E0,-1.885544300E0,-4.670789719E0,-3.589234129E-2
2.483504430E0,-2.632104874E0,-4.077369690E0,-1.651047617E-1
2.488259273E0,-3.517449379E0,-3.304488182E0,-4.187439680E-1
2.493014169E0,-1.804188251E0,-4.374079704E0,-2.321037948E-1
2.497769013E0,-1.531406492E-1,-6.044270039E0,-2.321037948E-1
2.502523909E0,-8.709874153E-1,-5.965306759E0,-1.244267747E-1
2.507278753E0,-1.761117458E0,-5.489135265E0,-4.211367965E-1
2.512033596E0,-1.983649969E0,-5.592026711E0,-4.833501875E-1
2.516788492E0,-1.909472466E0,-5.726024628E0,-2.392822653E-1
2.521543336E0,-2.139183521E0,-5.565705299E0,-6.221338734E-2
2.526298232E0,-2.390429735E0,-5.625525951E0,2.153540403E-2
2.531053076E0,-2.526820660E0,-5.565705299E0,-1.531406492E-1
2.535807971E0,-2.672782898E0,-5.737988472E0,7.417750359E-2
2.540562815E0,-2.751745939E0,-5.802595139E0,1.555334777E-1
2.545317659E0,-2.763710260E0,-5.824130535E0,4.953143001E-1
2.550072555E0,-2.766103029E0,-5.931807518E0,1.040877819E0
2.554827398E0,-2.842673302E0,-6.202196121E0,1.383051515E0
2.559582294E0,-2.971885681E0,-6.807580471E0,1.727617979E0
2.564337138E0,-3.244667530E0,-7.295716286E0,1.947757602E0
2.569091982E0,-3.419343472E0,-8.269595146E0,2.055434704E0
2.573846878E0,-3.452843189E0,-9.332008362E0,2.096112728E0
2.578601721E0,-3.562912941E0,-1.014078236E1,2.146361828E0
2.583356617E0,-3.507878065E0,-1.088255692E1,2.165504456E0
2.588111461E0,-3.254238844E0,-1.177508068E1,2.067398787E0
2.592866357E0,-3.074777126E0,-1.238285732E1,2.050648928E0
2.597621201E0,-2.794816732E0,-1.293320656E1,2.177468538E0
2.602376096E0,-2.009970903E0,-1.351705551E1,2.005185366E0
2.607130940E0,-1.134197950E0,-1.225125217E1,2.227717876E0
2.611885836E0,-8.015955687E-1,-1.219382381E1,2.275574446E0
2.616640680E0,-1.339980662E-1,-1.274178028E1,2.050648928E0
2.621395523E0,1.770688742E-1,-1.295474148E1,1.782652855E0
2.626150419E0,6.675975323E-1,-1.324427319E1,1.306481123E0
2.630905263E0,1.308874011E0,-1.342612743E1,9.236295223E-1
2.635660159E0,1.775474429E0,-1.319880962E1,2.153540403E-2
2.640415003E0,2.352144718E0,-1.278006554E1,-4.546363056E-1
2.645169898E0,3.041277647E0,-1.240917778E1,-9.714859724E-1
2.649924742E0,3.766302824E0,-1.218425274E1,-1.385444283E0
2.654679638E0,4.601397991E0,-1.211725426E1,-1.509871125E0
2.659434482E0,5.297709465E0,-1.216989613E1,-1.514656782E0
2.664189378E0,6.075376511E0,-1.223928738E1,-1.643869162E0
2.668944221E0,6.793223381E0,-1.234696484E1,-1.658226132E0
2.673699117E0,7.267002583E0,-1.240917778E1,-1.433300734E0
2.678453961E0,7.726424217E0,-1.260060406E1,-1.033699393E0
2.683208857E0,8.035098076E0,-1.286620712E1,-1.890329868E-1
2.687963701E0,7.927421570E0,-1.296191978E1,1.986042857E-1
2.692718596E0,7.286144733E0,-1.243549919E1,1.136590719E0
2.697473440E0,7.391428947E0,-1.267478180E1,2.383251429E0
2.702228336E0,7.640282631E0,-1.289492130E1,3.553341627E0
2.706983180E0,8.432307243E0,-1.310309696E1,4.216153622E0
2.711738023E0,9.375079155E0,-1.327059460E1,4.252045631E0
2.716492919E0,1.051167011E1,-1.337109280E1,4.192225456E0
2.721247815E0,1.160758305E1,-1.348594856E1,3.976871252E0
2.726002659E0,1.271545982E1,-1.352184105E1,3.364308596E0
2.730757503E0,1.353141212E1,-1.351705551E1,2.979064226E0
2.735512398E0,1.430429363E1,-1.378505135E1,1.765903115E0
2.740267242E0,1.518963814E1,-1.425883007E1,6.412764788E-1
2.745022138E0,1.597687721E1,-1.476371574E1,-4.905286431E-1
2.749777034E0,1.598405552E1,-1.513699627E1,-1.816152334E0
2.754531878E0,1.426122284E1,-1.498624802E1,-2.514856577E0
2.759286773E0,1.124626637E1,-1.435693550E1,-2.957528830E0
2.764041617E0,8.434700012E0,-1.354098320E1,-3.555734396E0
2.768796461E0,6.250052929E0,-1.282074356E1,-3.503092289E0
2.773551357E0,4.460221291E0,-1.217228889E1,-3.476771355E0
2.778306253E0,2.959921598E0,-1.170808125E1,-3.239881754E0
2.783061096E0,1.531406522E0,-1.136351490E1,-2.892922640E0
2.787815992E0,1.722832322E-1,-1.114098263E1,-2.794816732E0
2.792570836E0,-9.906286001E-1,-1.100219822E1,-2.873780012E0
2.797325732E0,-2.048256159E0,-1.113380337E1,-3.290131092E0
2.802080576E0,-2.904886723E0,-1.149512005E1,-4.046263218E0
2.806835471E0,-3.651447296E0,-1.223210907E1,-4.950749874E0
2.811590315E0,-3.806980848E0,-1.337348557E1,-5.446064472E0
2.816345211E0,-3.560520172E0,-1.485942841E1,-5.757131100E0
2.821100055E0,-3.031706333E0,-1.628555107E1,-5.237888813E0
2.825854951E0,-2.373680115E0,-1.746521187E1,-4.771288395E0
2.830609846E0,-2.012363911E0,-1.825245094E1,-3.754338741E0
2.835364690E0,-1.938186288E0,-1.867358780E1,-2.708675146E0
2.840119586E0,-2.151147604E0,-1.858744621E1,-1.292124271E0
2.844874430E0,-2.715853691E0,-1.794616890E1,1.052841991E-1
2.849629326E0,-3.407379389E0,-1.691486359E1,1.452443361E0
2.854384169E0,-4.101297855E0,-1.572323799E1,2.581855536E0
2.859139065E0,-4.603790760E0,-1.460100365E1,3.730410576E0
2.863893909E0,-4.563112736E0,-1.348355579E1,4.622933388E0
2.868648805E0,-3.969692707E0,-1.247139168E1,5.022534847E0
2.873403648E0,-3.091526747E0,-1.159561825E1,5.517848969E0
2.878158544E0,-1.895115495E0,-1.086820030E1,5.994020939E0
2.882913440E0,-8.350951076E-1,-1.003789139E1,6.020341873E0
2.887668284E0,1.411765367E-1,-9.016156197E0,5.417350292E0
2.892423180E0,6.987041831E-1,-7.771887779E0,4.532006264E0
2.897178023E0,7.920243144E-1,-6.381658077E0,3.093919754E0
2.901932919E0,6.747759581E-1,-5.230710506E0,1.976471543E0
2.906687815E0,4.235295951E-1,-4.539184570E0,1.430907965E0
2.911442659E0,3.828516304E-1,-4.304687977E0,1.052842021E0
2.916197555E0,4.283152521E-1,-3.969692707E0,9.308080077E-1
2.920952398E0,5.168496966E-1,-3.608376503E0,8.733802438E-1
2.925707294E0,4.426721931E-1,-3.180061340E0,8.374879360E-1
2.930462138E0,3.900300860E-1,-2.871387243E0,6.795616150E-1
2.935217034E0,3.828516230E-2,-2.579462767E0,6.197410822E-1
2.939971930E0,-2.703889608E-1,-2.344966173E0,6.747759581E-1
2.944726773E0,-6.628118753E-1,-2.187039852E0,6.412764788E-1
2.949481669E0,-1.069591761E0,-2.163111687E0,4.785645306E-1
2.954236513E0,-1.519442320E0,-2.158325911E0,4.713860750E-1
2.958991409E0,-1.969292998E0,-2.361716032E0,4.737788737E-1
2.963746305E0,-2.299502611E0,-2.761317253E0,4.426721931E-1
2.968501148E0,-2.584248543E0,-3.414557934E0,3.613162339E-1
2.973256044E0,-2.770888567E0,-4.053441525E0,3.804588020E-1
2.978010888E0,-2.880958557E0,-4.874179840E0,4.426721931E-1
2.982765784E0,-2.878565550E0,-5.769095421E0,4.833501875E-1
2.987520680E0,-2.935993433E0,-6.886543751E0,6.915257573E-1
2.992275523E0,-3.058027267E0,-8.013563156E0,8.733802438E-1
2.997030419E0,-3.103491068E0,-9.174081802E0,1.191625714E0
3.001785315E0,-3.208775282E0,-1.033460140E1,1.514656782E0
3.006540159E0,-3.290131092E0,-1.144247818E1,1.909472466E0
3.011295055E0,-1.854437590E0,-1.160758305E1,2.251646042E0
3.016049951E0,-3.038884640E0,-1.327777290E1,2.983849764E0
3.020804794E0,-3.656233072E0,-1.398365593E1,3.491128206E0
3.025559690E0,-4.342973232E0,-1.492403507E1,3.361915827E0
3.030314534E0,-4.728217602E0,-1.579980755E1,3.909872293E0
3.035069430E0,-5.132604599E0,-1.668754578E1,4.572684288E0
3.039824326E0,-5.218746185E0,-1.732164383E1,4.599005222E0
3.044579169E0,-4.431507587E0,-1.623290825E1,4.467400074E0
3.049334065E0,-3.749552965E0,-1.570170212E1,4.254438877E0
3.054088961E0,-3.122633457E0,-1.490249920E1,3.742374659E0
3.058843805E0,-2.632104874E0,-1.408893967E1,2.986242771E0
3.063598701E0,-2.151147604E0,-1.318206024E1,2.569891453E0
3.068353596E0,-1.739582062E0,-1.225364494E1,2.141576290E0
3.073108440E0,-1.459621787E0,-1.130608654E1,1.741974831E0
3.077863336E0,-1.208375454E0,-1.040638542E1,1.490728498E0
3.082618232E0,-1.004985452E0,-9.602396965E0,1.294517040E0
3.087373076E0,-7.680960894E-1,-8.946763992E0,1.124626637E0
3.092127971E0,-5.934200287E-1,-8.389236450E0,1.095912814E0
3.096882815E0,-4.761717021E-1,-7.905886173E0,9.762716293E-1
3.101637711E0,-5.024927258E-1,-7.451249599E0,8.973084688E-1
3.106392607E0,-5.144568682E-1,-7.099504948E0,8.685946465E-1
3.111147503E0,-4.570291340E-1,-6.860222340E0,8.207381964E-1
3.115902346E0,-3.517449200E-1,-6.675975323E0,8.901300430E-1
3.120657242E0,-3.804588020E-1,-6.522834301E0,9.140582681E-1
3.125412138E0,-3.828516304E-1,-6.491727829E0,9.882357717E-1
3.130166982E0,-3.541377485E-1,-6.654439926E0,1.258624673E0
3.134921878E0,-2.344966233E-1,-6.939185619E0,1.526620865E0
3.139676773E0,-1.339980662E-1,-7.317251682E0,1.730010748E0
3.144431669E0,2.871387079E-2,-7.769495010E0,1.993221283E0
3.149186513E0,1.674975902E-1,-8.245666504E0,2.170290232E0
3.153941409E0,3.110669553E-1,-8.683553696E0,2.297109842E0
3.158696305E0,3.924229145E-1,-9.078369141E0,2.333002090E0
3.163451148E0,4.091726840E-1,-9.367900848E0,2.201396942E0
3.168206044E0,3.780659735E-1,-9.592825890E0,2.024327993E0
3.172960940E0,2.632105052E-1,-9.719645500E0,1.813759565E0
3.177715784E0,1.411765367E-1,-9.832108498E0,1.591227055E0
3.182470680E0,1.148554832E-1,-9.932606697E0,1.433300734E0
3.187225576E0,1.172483116E-1,-1.006899738E1,1.411765337E0
3.191980419E0,2.201396823E-1,-1.022453117E1,1.426122308E0
3.196735315E0,3.469592929E-1,-1.044227791E1,1.466800332E0
3.201490211E0,5.096712112E-1,-1.066720295E1,1.576870084E0
3.206245107E0,6.795616150E-1,-1.084666538E1,1.722832322E0
3.210999951E0,8.614161611E-1,-1.100459099E1,1.847259045E0
3.215754846E0,1.016949654E0,-1.109312534E1,1.907079697E0
3.220509742E0,1.127019525E0,-1.116251755E1,1.923829436E0
3.225264638E0,1.210768223E0,-1.112662506E1,1.885544300E0
3.230019482E0,1.277767301E0,-1.099741268E1,1.727617979E0
3.234774378E0,1.316052437E0,-1.081795120E1,1.493121386E0
3.239529273E0,1.284945726E0,-1.059302616E1,1.191625714E0
3.244284169E0,1.246660590E0,-1.036092186E1,8.901300430E-1
3.249039013E0,1.182054400E0,-1.010249710E1,6.005984545E-1
3.253793909E0,1.115055323E0,-9.891928673E0,3.397808075E-1
3.258548805E0,1.052842021E0,-9.695717812E0,1.339980662E-1
3.263303701E0,9.858429432E-1,-9.559326172E0,-3.828516230E-2
3.268058544E0,9.547362328E-1,-9.427721024E0,-1.818545163E-1
3.272813440E0,8.877372146E-1,-9.310472488E0,-2.967100143E-1
3.277568336E0,8.255237937E-1,-9.243474007E0,-4.929214716E-1
3.282323232E0,7.298108935E-1,-9.193224907E0,-8.207381964E-1
3.287078076E0,5.766702294E-1,-9.095118523E0,-1.588834286E0
3.291832971E0,3.661018610E-1,-8.970691681E0,-2.096112728E0
3.296587867E0,7.178468257E-2,-8.989834785E0,-2.316252232E0
3.301342763E0,-1.938186288E-1,-9.032905579E0,-2.309073925E0
3.306097659E0,-4.546363056E-1,-9.159725189E0,-1.617548108E0
3.310852503E0,-7.178468108E-1,-9.300901413E0,-5.982056856E-1
3.315607398E0,-9.068797827E-1,-9.427721024E0,2.560320199E-1
3.320362294E0,-1.002592683E0,-9.442078590E0,1.000199914E0
3.325117190E0,-9.475577474E-1,-9.365508080E0,1.466800332E0
3.329872034E0,-7.992027402E-1,-9.238688469E0,1.694118381E0
3.334626930E0,-5.766702294E-1,-9.135796547E0,1.875972986E0
3.339381826E0,-2.679961324E-1,-9.061619759E0,2.036292076E0
3.344136721E0,1.555334777E-1,-9.061619759E0,2.194218397E0
3.348891617E0,6.508477330E-1,-9.214759827E0,2.328216314E0
3.353646461E0,1.146162033E0,-9.365508080E0,2.474178553E0
3.358401357E0,1.596012712E0,-9.544969559E0,2.639283419E0
3.363156253E0,2.031506538E0,-9.738788605E0,2.801995277E0
3.367911148E0,2.445464849E0,-9.923035622E0,2.983849764E0
3.372666044E0,2.761317253E0,-1.011446095E1,3.203989506E0
3.377420940E0,3.019742250E0,-1.028195858E1,3.393022537E0
3.382175784E0,3.160918713E0,-1.044467068E1,3.594019651E0
3.386930680E0,3.182454109E0,-1.059063339E1,3.668197155E0
3.391685576E0,3.072384357E0,-1.073659515E1,3.653840065E0
3.396440471E0,2.880958557E0,-1.097109222E1,3.553341627E0
3.401195367E0,2.739781857E0,-1.127976608E1,3.354737282E0
3.405950263E0,2.749353170E0,-1.164108181E1,2.976671457E0
3.410705107E0,2.940778971E0,-1.207657623E1,2.450250387E0
3.415460003E0,3.172882795E0,-1.249292660E1,1.813759565E0
3.420214898E0,3.471985579E0,-1.285902882E1,1.196411371E0
3.424969794E0,3.732803345E0,-1.316291714E1,6.867401004E-1
3.429724690E0,3.996013880E0,-1.333520031E1,4.594219327E-1
3.434479534E0,4.156332970E0,-1.336630726E1,5.240281820E-1
3.439234430E0,4.290330887E0,-1.330409431E1,7.441678643E-1
3.443989326E0,4.338187218E0,-1.309352589E1,1.062413216E0
3.448744221E0,4.371686935E0,-1.290209961E1,1.275374413E0
3.453499117E0,4.486542225E0,-1.270588779E1,1.232303619E0
3.458254013E0,4.632504463E0,-1.254556942E1,8.925228715E-1
3.463008909E0,4.819144726E0,-1.236132145E1,3.493520916E-1
3.467763805E0,4.953142643E0,-1.209571838E1,-3.038884699E-1
3.472518648E0,5.065605640E0,-1.182054424E1,-1.014556766E0
3.477273544E0,5.194818020E0,-1.155254745E1,-1.732403636E0
3.482028440E0,5.405386448E0,-1.134915733E1,-2.222932339E0
3.486783336E0,5.673382282E0,-1.126540947E1,-2.201396942E0
3.491538232E0,5.898307800E0,-1.121755219E1,-1.337587833E0
3.496293128E0,6.104090691E0,-1.120319557E1,-3.230310678E-1
3.501048023E0,6.427121639E0,-1.113141060E1,2.608176768E-1
3.505802919E0,6.740581512E0,-1.094716358E1,4.666004181E-1
3.510557763E0,7.116254330E0,-1.065045357E1,-1.316052526E-1
3.515312659E0,7.491927624E0,-1.042074299E1,-6.843472719E-1
3.520067555E0,7.566105366E0,-1.014796066E1,-1.722832322E-1
3.524822451E0,7.068397999E0,-9.891928673E0,9.523434043E-1
3.529577346E0,6.144768715E0,-9.561718941E0,2.158325911E0
3.534332242E0,5.625525951E0,-9.284152031E0,2.837887764E0
3.539087138E0,5.608776093E0,-9.147761345E0,3.041277647E0
3.543842034E0,6.013163090E0,-9.346364975E0,2.591426849E0
3.548596930E0,6.230910301E0,-9.729216576E0,2.139183521E0
3.553351826E0,5.592026711E0,-1.018863869E1,1.648654819E0
3.558106721E0,4.505684853E0,-1.080598736E1,1.497906923E0
3.562861565E0,3.402593851E0,-1.156211948E1,1.540977836E0
3.567616461E0,2.455035925E0,-1.238525009E1,1.519442320E0
3.572371357E0,1.691725612E0,-1.330409431E1,1.462014675E0
3.577126253E0,1.016949654E0,-1.433061504E1,1.292124271E0
3.581881148E0,3.302095234E-1,-1.548874092E1,1.031306505E0
3.586636044E0,-3.349951804E-1,-1.689332771E1,9.403793216E-1
3.591390940E0,-9.690931439E-1,-1.823091507E1,9.068797827E-1
3.596145836E0,-1.538584948E0,-1.939382744E1,6.317051649E-1
3.600900732E0,-2.459821701E0,-2.050888252E1,2.632105052E-1
3.605655628E0,-3.538984776E0,-2.150668907E1,-1.148554832E-1
3.610410523E0,-5.041677475E0,-2.230589294E1,-1.146162033E0
3.615165419E0,-6.769295216E0,-2.299024010E1,-1.450050473E0
3.619920315E0,-8.664410591E0,-2.380380058E1,-1.610369682E0
3.624675211E0,-1.050449181E1,-2.406461716E1,-1.787438512E0
3.629430107E0,-1.250967693E1,-2.413161659E1,-1.828116536E0
3.634185003E0,-1.319402409E1,-2.333002090E1,-1.622333765E0
3.638939898E0,-1.288056469E1,-2.190629196E1,-1.689332843E0
3.643694742E0,-1.197368431E1,-2.003031921E1,-1.201196909E0
3.648449638E0,-1.105962658E1,-1.817588043E1,-3.230310678E-1
3.653204534E0,-1.020778179E1,-1.649133301E1,3.254238665E-1
3.657959430E0,-9.300901413E0,-1.501735497E1,8.015955687E-1
3.662714326E0,-8.279166222E0,-1.376830196E1,1.069591761E0
3.667469221E0,-7.197610378E0,-1.255753326E1,1.103091240E0
3.672224117E0,-6.197410583E0,-1.151186943E1,1.081555843E0
3.676979013E0,-5.302495003E0,-1.061695385E1,1.016949654E0
3.681733909E0,-4.498506546E0,-9.875179291E0,9.308080077E-1
3.686488805E0,-3.723232031E0,-9.209974289E0,7.657032609E-1
3.691243701E0,-2.957528830E0,-8.618947029E0,6.293123364E-1
3.695998596E0,-2.340180635E0,-8.123632431E0,4.259224236E-1
3.700753492E0,-1.854437590E0,-7.740781307E0,1.196411327E-1
3.705508388E0,-1.342373490E0,-7.353144169E0,-4.498506486E-1
3.710263284E0,-8.542376757E-1,-7.077969551E0,-9.427721500E-1
3.715018180E0,-4.666004181E-1,-6.888936520E0,-1.328016520E0
3.719773076E0,-1.292124242E-1,-6.783652306E0,-1.428515077E0
3.724527971E0,2.871387079E-2,-6.855436802E0,-1.194018483E0
3.729282867E0,2.273181528E-1,-6.943971157E0,-1.050449133E0
3.734037763E0,4.043870270E-1,-7.054041386E0,-8.111668825E-1
3.738792659E0,6.460621357E-1,-7.128218651E0,-6.604190469E-1
3.743547555E0,8.470591903E-1,-7.180860519E0,-5.216353536E-1
3.748302451E0,1.033699393E0,-7.156932354E0,-4.522434771E-1
3.753057346E0,1.170090318E0,-7.066005230E0,-4.067798555E-1
3.757812242E0,1.182054400E0,-7.015756130E0,-2.560320199E-1
3.762567138E0,1.100698471E0,-6.855436802E0,-1.890329868E-1
3.767322034E0,9.355936646E-1,-6.649653912E0,2.392822644E-3
3.772076930E0,6.795616150E-1,-6.410371780E0,1.363908947E-1
3.776831826E0,3.756731451E-1,-6.125626087E0,2.871387303E-1
3.781586721E0,7.657032460E-2,-5.816951752E0,4.067798555E-1
3.786341617E0,-2.201396823E-1,-5.615954876E0,5.599204898E-1
3.791096513E0,-5.359922647E-1,-5.376672268E0,7.154539824E-1
3.795851409E0,-9.044869542E-1,-5.149354458E0,8.638089895E-1
3.800606305E0,-1.217946768E0,-4.989035130E0,9.547362328E-1
3.805361201E0,-1.505085468E0,-4.778466702E0,1.134197950E0
3.810116148E0,-1.799402595E0,-4.615755081E0,1.294517040E0
3.814870992E0,-2.043470621E0,-4.436293125E0,1.445264935E0
3.819625940E0,-2.313859463E0,-4.185046673E0,1.545763373E0
3.824380836E0,-2.567498684E0,-3.929014683E0,1.574477315E0
3.829135732E0,-2.845066071E0,-3.641875982E0,1.399801254E0
3.833890628E0,-3.160918713E0,-3.421736479E0,1.179661512E0
3.838645523E0,-3.577269793E0,-3.196810961E0,7.848458290E-1
3.843400419E0,-4.072584152E0,-3.026920557E0,5.024927258E-1
3.848155315E0,-4.622933388E0,-2.890529871E0,2.368894368E-1
3.852910211E0,-5.137390137E0,-2.790031195E0,8.374879509E-2
3.857665107E0,-5.630311489E0,-2.653640270E0,-1.435693651E-1
3.862420003E0,-6.075376511E0,-2.560320139E0,-3.948157430E-1
3.867174898E0,-6.417550564E0,-2.455035925E0,-6.053841114E-1
3.871929794E0,-6.613761902E0,-2.340180635E0,-8.231309652E-1
3.876684690E0,-6.855436802E0,-2.199003935E0,-1.036092162E0
3.881439586E0,-6.972685337E0,-2.053041935E0,-1.119840980E0
3.886194482E0,-7.080362320E0,-1.897508383E0,-1.361516118E0
3.890949378E0,-7.144968510E0,-1.780260086E0,-1.517049551E0
3.895704273E0,-6.809973240E0,-1.852044702E0,-1.732403636E0
3.900459221E0,-5.929414749E0,-2.237289190E0,-1.756331801E0
3.905214117E0,-4.993820667E0,-2.663211584E0,-2.048256159E0
3.909969013E0,-4.197010994E0,-3.091526747E0,-2.617748022E0
3.914723909E0,-3.534198999E0,-3.510270834E0,-3.589233875E0
3.919478805E0,-2.892922640E0,-4.029513359E0,-4.656432629E0
3.924233701E0,-2.208575249E0,-4.694717884E0,-5.551348686E0
3.928988596E0,-1.569691658E0,-5.503491879E0,-6.075376511E0
3.933743492E0,-7.058826685E-1,-6.565905571E0,-6.053841114E0
3.938498388E0,2.129612118E-1,-7.673782349E0,-5.436492920E0
3.943253284E0,1.060020447E0,-8.934800148E0,-4.398007870E0
3.948008232E0,1.808973908E0,-1.021496010E1,-2.407179594E0
3.952763128E0,2.294716835E0,-1.155972576E1,1.938186288E-1
3.957518023E0,2.620140791E0,-1.304088306E1,3.314059258E0
3.962272919E0,2.770888567E0,-1.447418404E1,6.551548481E0
3.967027815E0,3.254238844E0,-1.598644829E1,9.399007797E0
3.971782711E0,4.433900356E0,-1.757767487E1,1.144726372E1
3.976537607E0,6.642475605E0,-1.938425636E1,1.260060406E1
3.981292503E0,1.009053326E1,-2.149951172E1,1.281356525E1
3.986047398E0,1.349312687E1,-2.353341103E1,1.212921810E1
3.990802346E0,1.572323799E1,-2.487578392E1,1.088255692E1
3.995557242E0,1.639801407E1,-2.485185623E1,8.611768723E0
4.000312138E0,1.612283897E1,-2.426322174E1,6.080162525E0
4.005067034E0,1.553181171E1,-2.335634232E1,4.321437836E0
4.009821930E0,1.523270893E1,-2.266481590E1,3.359523058E0
4.014576826E0,1.494796276E1,-2.200439644E1,2.452643156E0
4.019331721E0,1.437129307E1,-2.127458572E1,1.832902193E0
4.024086617E0,1.389990711E1,-2.039881325E1,1.272981644E0
4.028841565E0,1.353859043E1,-1.936272049E1,9.690931439E-1
4.033596461E0,1.320120239E1,-1.810409546E1,7.585247755E-1
4.038351357E0,1.272742367E1,-1.671147346E1,4.283152521E-1
4.043106253E0,1.218185997E1,-1.530927944E1,6.939185411E-2
4.047861148E0,1.149272728E1,-1.392383480E1,-1.076770201E-1
4.052616044E0,1.080598736E1,-1.275135231E1,-3.158525825E-1
4.057370940E0,1.016949654E1,-1.182772255E1,-5.718846321E-1
4.062125888E0,9.468399048E0,-1.131326580E1,-7.393822074E-1
4.066880784E0,8.839086533E0,-1.119601727E1,-9.738788009E-1
4.071635680E0,8.154739380E0,-1.136112213E1,-1.301695466E0
4.076390576E0,7.278966427E0,-1.153101254E1,-1.978864312E0
4.081145471E0,6.211767673E0,-1.161476135E1,-2.880958557E0
4.085900367E0,5.309673309E0,-1.189711380E1,-3.452843189E0
4.090655263E0,4.642076015E0,-1.252642632E1,-3.445664644E0
4.095410211E0,4.113262177E0,-1.326341629E1,-3.113062143E0
4.100165107E0,3.436093330E0,-1.393101311E1,-3.184846878E0
4.104920003E0,2.646461725E0,-1.462732506E1,-3.357130051E0
4.109674898E0,1.904686809E0,-1.535474300E1,-3.498306751E0
4.114429794E0,1.014556766E0,-1.639322853E1,-4.369294167E0
4.119184742E0,-3.589234129E-2,-1.729532242E1,-1.005464077E1
4.123939638E0,-1.823330879E0,-1.665883064E1,-9.908679008E0
4.128694534E0,-2.711068153E0,-1.548395538E1,-1.235175037E1
4.133449430E0,-3.462414265E0,-1.476132298E1,-1.108355427E1
4.138204326E0,-4.390829563E0,-1.393101311E1,-7.140182972E0
4.142959273E0,-5.635097504E0,-1.284706497E1,-1.976471543E0
4.147714169E0,-5.259424210E0,-1.172004509E1,2.306680918E0
4.152469065E0,-4.170690060E0,-1.060020447E1,3.278167009E0
4.157223961E0,-3.809373617E0,-9.497113228E0,2.811566591E0
4.161978857E0,-3.081955671E0,-8.836693764E0,3.378665686E0
4.166733753E0,-2.490928411E0,-8.317451477E0,3.553341627E0
4.171488701E0,-2.065006018E0,-8.003992081E0,2.701496840E0
4.176243596E0,-1.567298889E0,-7.724031448E0,2.309073925E0
4.180998492E0,-1.270588875E0,-7.527820110E0,2.062613010E0
4.185753388E0,-1.239482164E0,-7.281359196E0,1.730010748E0
4.190508284E0,-1.383051515E0,-7.111468792E0,1.488335729E0
4.195263232E0,-1.603191137E0,-6.857829571E0,1.344766378E0
4.200018128E0,-1.995614052E0,-6.647261143E0,1.308874011E0
4.204773023E0,-2.366501570E0,-6.439085960E0,1.404586911E0
4.209527919E0,-2.998206854E0,-6.242874146E0,1.622333765E0
4.214282867E0,-3.503092289E0,-6.163911343E0,1.981257200E0
4.219037763E0,-3.897907972E0,-6.242874146E0,2.347358942E0
4.223792659E0,-4.424329281E0,-6.415157318E0,2.809173822E0
4.228547555E0,-4.785645485E0,-6.826723099E0,3.105883837E0
4.233302451E0,-5.130211830E0,-7.178467751E0,3.694518089E0
4.238057398E0,-5.321637630E0,-7.582854748E0,3.979264021E0
4.242812294E0,-5.450850010E0,-8.082955360E0,4.055834293E0
4.247567190E0,-5.503491879E0,-8.721838951E0,4.371686935E0
4.252322086E0,-5.391029358E0,-9.480362892E0,4.785645485E0
4.257077034E0,-5.240281582E0,-1.024367332E1,5.347958565E0
4.261831930E0,-5.108676434E0,-1.088734341E1,5.781059742E0
4.266586826E0,-5.063212872E0,-1.151426220E1,6.137589931E0
4.271341721E0,-5.170889854E0,-1.199043465E1,6.355337143E0
4.276096669E0,-5.417350292E0,-1.233739376E1,6.424728870E0
4.280851565E0,-5.785845280E0,-1.253121185E1,6.522834301E0
4.285606461E0,-6.245266914E0,-1.235653591E1,6.699903488E0
4.290361357E0,-6.795616150E0,-1.195693493E1,6.616154671E0
4.295116305E0,-7.123433113E0,-1.136351490E1,6.276373863E0
4.299871201E0,-7.106683254E0,-1.076530933E1,5.702096462E0
4.304626096E0,-6.819544315E0,-1.016231823E1,5.084748268E0
4.309380992E0,-6.281159401E0,-9.592825890E0,4.577469826E0
4.314135940E0,-5.534598827E0,-9.171689034E0,4.354937077E0
4.318890836E0,-4.723432064E0,-8.827122688E0,4.206582069E0
4.323645732E0,-4.005585194E0,-8.578269005E0,3.883551121E0
4.328400628E0,-3.321237803E0,-8.358129501E0,3.562912941E0
4.333155576E0,-2.732603550E0,-8.111668587E0,3.232703447E0
4.337910471E0,-2.273181438E0,-7.841279984E0,2.909672260E0
4.342665367E0,-1.907079697E0,-7.601997375E0,2.610569477E0
4.347420263E0,-1.667797327E0,-7.391428947E0,2.371287346E0
4.352175211E0,-1.529013634E0,-7.178467751E0,2.110469580E0
4.356930107E0,-1.450050473E0,-7.001399040E0,1.904686809E0
4.361685003E0,-1.450050473E0,-6.876972198E0,1.765903115E0
4.366439898E0,-1.505085468E0,-6.857829571E0,1.660618901E0
4.371194846E0,-1.610369682E0,-6.867401123E0,1.557727575E0
4.375949742E0,-1.710868239E0,-7.015756130E0,1.488335729E0
4.380704638E0,-1.775474429E0,-7.235895634E0,1.476371527E0
4.385459586E0,-1.825723648E0,-7.551748276E0,1.497906923E0
4.390214482E0,-1.835294962E0,-7.910671711E0,1.512263894E0
4.394969378E0,-1.797009826E0,-8.348558426E0,1.548156261E0
4.399724273E0,-1.756331801E0,-8.831908226E0,1.603191137E0
4.404479221E0,-1.670190215E0,-9.346364975E0,1.670190215E0
4.409234117E0,-1.610369682E0,-9.877572060E0,1.739582062E0
4.413989013E0,-1.490728498E0,-1.039681435E1,1.849651933E0
4.418743961E0,-1.349551916E0,-1.093519974E1,2.033899307E0
4.423498857E0,-1.134197950E0,-1.152861977E1,2.277967215E0
4.428253753E0,-9.260223508E-1,-1.205264759E1,2.533999205E0
4.433008701E0,-6.604190469E-1,-1.252164078E1,2.811566591E0
4.437763596E0,-5.503492355E-1,-1.289970684E1,3.043670416E0
4.442518492E0,-5.407779217E-1,-1.305045509E1,2.971885681E0
4.447273388E0,-5.455635786E-1,-1.297867012E1,2.691925526E0
4.452028336E0,-6.173482537E-1,-1.270588779E1,2.167897224E0
4.456783232E0,-6.747759581E-1,-1.231585789E1,1.490728498E0
4.461538128E0,-7.704889178E-1,-1.196889877E1,7.585247755E-1
4.466293076E0,-7.992027402E-1,-1.159083271E1,-1.507478207E-1
4.471047971E0,-2.632105052E-1,-1.154776192E1,-4.677968502E0
4.475802867E0,4.802394867E0,-9.466006279E0,-3.852444458E1
4.480557815E0,6.623332977E0,-9.946963310E0,-2.361715889E1
4.485312711E0,2.644068956E0,-1.136112213E1,-1.746282005E1
4.490067607E0,2.132004976E0,-1.247856998E1,-1.253121185E1
4.494822555E0,9.164510965E-1,-1.244028473E1,-4.311866283E0
4.499577451E0,2.416750938E-1,-1.178943729E1,8.135596663E-2
4.504332346E0,-8.542376757E-1,-1.071027374E1,1.296909928E0
4.509087294E0,-1.091127157E0,-9.934999466E0,3.314059258E0
4.513842190E0,-8.183453679E-1,-9.595218658E0,3.833301783E0
4.518597086E0,-2.368894368E-1,-9.360722542E0,2.933600664E0
4.523352034E0,4.139583111E-1,-9.238688469E0,2.658426046E0
4.528106930E0,9.978070259E-1,-9.147761345E0,2.873780012E0
4.532861826E0,1.404586911E0,-9.030512810E0,2.897708178E0
4.537616773E0,1.617548108E0,-8.944371223E0,3.220739365E0
4.542371669E0,1.806581140E0,-8.889336586E0,3.797409534E0
4.547126565E0,1.940579176E0,-8.910871506E0,4.295116425E0
4.551881513E0,2.081755638E0,-8.946763992E0,4.749752998E0
4.556636409E0,2.206182480E0,-9.040083885E0,5.123033047E0
4.561391305E0,2.330609322E0,-9.142974854E0,5.381458282E0
4.566146253E0,2.450250387E0,-9.193224907E0,5.446064472E0
4.570901148E0,2.567498684E0,-9.229117393E0,5.407779217E0
4.575656096E0,2.593819857E0,-9.224330902E0,5.271388054E0
4.580410992E0,2.476571321E0,-9.152546883E0,5.089533806E0
4.585165888E0,2.263610125E0,-9.102297783E0,4.855037212E0
4.589920836E0,2.021935225E0,-9.078369141E0,4.627718925E0
4.594675732E0,1.684547186E0,-9.123832703E0,4.393222332E0
4.599430628E0,1.366301775E0,-9.255437851E0,4.307080746E0
4.604185576E0,1.105484009E0,-9.473184586E0,4.335794449E0
4.608940471E0,8.781659007E-1,-9.803394318E0,4.465006828E0
4.613695367E0,8.015955687E-1,-1.026042366E1,4.680361271E0
4.618450315E0,8.494520187E-1,-1.075334454E1,4.917250633E0
4.623205211E0,1.069591761E0,-1.127737331E1,5.134997368E0
4.627960159E0,1.387837172E0,-1.180618668E1,5.235496044E0
4.632715055E0,1.746760488E0,-1.229193020E1,5.252245903E0
4.637469951E0,2.239681959E0,-1.279442310E1,5.029713154E0
4.642224898E0,3.227917671E0,-1.335195065E1,2.421536446E0
4.646979794E0,5.745167255E0,-1.375155163E1,-4.170690060E0
4.651734690E0,7.556533813E0,-1.423729515E1,-7.446464062E0
4.656489638E0,7.680960655E0,-1.452682590E1,-8.030312538E0
4.661244534E0,6.915257454E0,-1.500060558E1,-5.515456200E0
4.665999430E0,6.302694798E0,-1.528535080E1,-3.684946775E0
4.670754378E0,5.857629776E0,-1.516092396E1,-1.335195065E0
4.675509273E0,5.838487148E0,-1.495035553E1,3.158525825E-1
4.680264221E0,6.415157318E0,-1.463689613E1,9.571290612E-1
4.685019117E0,7.097112179E0,-1.424686623E1,5.742774606E-1
4.689774065E0,7.582854748E0,-1.380419350E1,6.197410822E-1
4.694528961E0,7.862815380E0,-1.329452229E1,2.009970993E-1
4.699283857E0,8.102097511E0,-1.279442310E1,-3.637090325E-1
4.704038805E0,8.571090698E0,-1.232782269E1,-1.098305583E0
4.708793701E0,9.123832703E0,-1.189232826E1,-2.096112728E0
4.713548596E0,9.272188187E0,-1.145444202E1,-1.988435626E0
4.718303544E0,8.748159409E0,-1.103809071E1,-1.251446247E0
4.723058440E0,7.647460938E0,-1.058824062E1,7.896314561E-2
4.727813388E0,6.556334019E0,-1.013121128E1,1.476371527E0
4.732568284E0,5.733202934E0,-9.808179855E0,2.282752752E0
4.737323232E0,5.383851051E0,-9.769894600E0,2.467000246E0
4.742078128E0,5.209175110E0,-1.002831936E1,2.500499725E0
4.746833023E0,4.776073933E0,-1.049731255E1,2.342573404E0
4.751587971E0,3.967299938E0,-1.112901783E1,1.995614052E0
4.756342867E0,2.988635540E0,-1.200718403E1,1.770688772E0
4.761097815E0,2.045863390E0,-1.307677555E1,1.416550994E0
4.765852711E0,1.232303619E0,-1.403869057E1,7.800601721E-1
4.770607607E0,5.623133183E-1,-1.497189140E1,1.196411327E-1
4.775362555E0,-3.086741269E-1,-1.632383537E1,-2.177468538E-1
4.780117451E0,-1.165304661E0,-1.798684692E1,-3.876372576E-1
4.784872398E0,-1.919043779E0,-1.970489502E1,-4.450650215E-1
4.789627294E0,-2.761317253E0,-2.145165443E1,-4.091726840E-1
4.794382242E0,-4.027120590E0,-2.295434761E1,-7.728816867E-1
4.799137138E0,-5.790630817E0,-2.410050964E1,-1.105484009E0
4.803892034E0,-7.810173035E0,-2.479921341E1,-2.110469580E0
4.808646982E0,-9.743574142E0,-2.534716988E1,-2.344966173E0
4.813401878E0,-1.157647610E1,-2.558405876E1,-2.608176708E0
4.818156826E0,-1.270349503E1,-2.545724106E1,-2.648854733E0
4.822911721E0,-1.375155163E1,-2.499064064E1,-2.364108801E0
4.827666669E0,-1.464168167E1,-2.387797737E1,-2.251646042E0
4.832421565E0,-1.459621811E1,-2.206182480E1,-1.500299811E0
4.837176461E0,-1.328973675E1,-2.003271103E1,-8.805587292E-1
4.841931409E0,-1.193539906E1,-1.809930992E1,-3.469592929E-1
4.846686305E0,-1.066720295E1,-1.625683784E1,7.896314561E-2
4.851441253E0,-9.518648148E0,-1.462493229E1,3.852444589E-1
4.856196148E0,-8.415556908E0,-1.318206024E1,4.426721931E-1
4.860951096E0,-7.386643410E0,-1.192104244E1,5.168496966E-1
4.865705992E0,-6.427121639E0,-1.072463131E1,4.833501875E-1
4.870460940E0,-5.546562672E0,-9.736394882E0,4.307080805E-1
4.875215836E0,-4.697110653E0,-8.927620888E0,2.009970993E-1
4.879970732E0,-3.878765583E0,-8.195417404E0,-3.349951655E-2
4.884725680E0,-3.096312523E0,-7.625925541E0,-3.445664644E-1
4.889480576E0,-2.524427891E0,-7.245467186E0,-5.383850932E-1
4.894235523E0,-1.976471543E0,-6.838686943E0,-8.207381964E-1
4.898990419E0,-1.390229940E0,-6.508477688E0,-1.239482164E0
4.903745367E0,-8.279166222E-1,-6.214160442E0,-1.813759565E0
4.908500263E0,-3.326023519E-1,-6.032305717E0,-2.122433662E0
4.913255211E0,1.196411345E-2,-5.986842155E0,-2.333002090E0
4.918010107E0,3.134597540E-1,-5.991627693E0,-2.364108801E0
4.922765055E0,3.613162339E-1,-6.092126369E0,-2.177468538E0
4.927519951E0,3.876372576E-1,-6.175875187E0,-1.942971945E0
4.932274898E0,2.895315289E-1,-6.159125328E0,-1.567298889E0
4.937029794E0,1.507478207E-1,-6.123233318E0,-1.416550994E0
4.941784690E0,-1.004985496E-1,-6.092126369E0,-1.095912814E0
4.946539638E0,-3.158525825E-1,-5.965306759E0,-7.896314859E-1
4.951294534E0,-4.737788737E-1,-5.879165173E0,-4.953143001E-1
4.956049482E0,-5.790630579E-1,-5.737988472E0,-3.756731451E-1
4.960804378E0,-6.005984545E-1,-5.539384365E0,-3.589234054E-1
4.965559326E0,-6.101697683E-1,-5.242674351E0,-4.618147612E-1
4.970314221E0,-5.670989752E-1,-4.910071850E0,-5.814558864E-1
4.975069169E0,-5.670989752E-1,-4.649254322E0,-6.723831892E-1
4.979824065E0,-6.364908218E-1,-4.347758770E0,-7.633104324E-1
4.984579013E0,-7.824530005E-1,-4.141975880E0,-5.790630579E-1
4.989333909E0,-9.667003751E-1,-3.962514400E0,-3.732803464E-1
4.994088857E0,-1.191625714E0,-3.744767427E0,-7.178467698E-3
4.998843753E0,-1.332802176E0,-3.620340586E0,4.474578202E-1
5.003598701E0,-1.490728498E0,-3.560520172E0,8.135597110E-1
5.008353596E0,-1.548156261E0,-3.445664644E0,1.172483087E0
5.013108544E0,-1.636690736E0,-3.326023579E0,1.464407444E0
5.017863440E0,-1.677368641E0,-3.196810961E0,1.684547186E0
5.022618388E0,-1.746760488E0,-3.038884640E0,1.871187329E0
5.027373284E0,-1.883151412E0,-2.885744095E0,1.895115495E0
5.032128232E0,-2.108076811E0,-2.675175667E0,1.909472466E0
5.036883128E0,-2.318645239E0,-2.533999205E0,1.875972986E0
5.041638076E0,-2.579462767E0,-2.371287346E0,1.785045743E0
5.046392971E0,-2.806781054E0,-2.266003132E0,1.718046665E0
5.051147919E0,-3.069991350E0,-2.132004976E0,1.574477315E0
5.055902815E0,-3.294916868E0,-2.021935225E0,1.438086390E0
5.060657763E0,-3.555734396E0,-1.947757602E0,1.239482164E0
5.065412659E0,-3.912265062E0,-1.911865234E0,9.236295223E-1
5.070167607E0,-4.400400639E0,-1.830509305E0,3.948157430E-1
5.074922503E0,-5.008177757E0,-1.818545222E0,-2.129612118E-1
5.079677451E0,-5.656632900E0,-1.880758643E0,-9.834501147E-1
5.084432346E0,-6.130411625E0,-2.108076811E0,-1.744367719E0
5.089187294E0,-5.903093338E0,-2.639283419E0,-2.321038008E0
5.093942190E0,-5.230710506E0,-3.309273720E0,-2.914458036E0
5.098697138E0,-4.546362877E0,-4.034298897E0,-3.481556892E0
5.103452034E0,-3.893122435E0,-4.761716843E0,-3.938585997E0
5.108206982E0,-3.385843992E0,-5.546562672E0,-4.266402721E0
5.112961878E0,-2.852244616E0,-6.553941250E0,-4.264009953E0
5.117716826E0,-2.368894339E0,-7.747959614E0,-3.677768469E0
5.122471721E0,-1.990828395E0,-9.288937569E0,-2.758924484E0
5.127226669E0,-1.462014675E0,-1.101416302E1,-2.347358942E0
5.131981565E0,-4.067798555E-1,-1.214836025E1,-2.390429735E0
5.136736513E0,1.119840980E0,-1.274178028E1,-1.828116536E0
5.141491409E0,2.727817774E0,-1.320120239E1,-1.026520967E0
5.146246357E0,3.912265062E0,-1.377787304E1,1.363908947E-1
5.151001305E0,4.625326157E0,-1.427557945E1,1.928615093E0
5.155756201E0,5.321637630E0,-1.469671631E1,3.720839262E0
5.160511148E0,6.096911907E0,-1.521356678E1,5.534598827E0
5.165266044E0,7.384250641E0,-1.623769379E1,7.063612461E0
5.170020992E0,9.150154114E0,-1.725942993E1,8.501698494E0
5.174775888E0,1.081316566E1,-1.823330879E1,9.104690552E0
5.179530836E0,1.314856052E1,-1.942254066E1,8.884550095E0
5.184285732E0,1.512024593E1,-2.064766693E1,8.343772888E0
5.189040680E0,1.608694649E1,-2.132962036E1,7.101897717E0
5.193795576E0,1.618265915E1,-2.159043884E1,5.424529076E0
5.198550523E0,1.616591072E1,-2.187039948E1,3.926621914E0
5.203305419E0,1.634776497E1,-2.229632187E1,2.924029350E0
5.208060367E0,1.684547234E1,-2.268156624E1,2.215753794E0
5.212815263E0,1.688375664E1,-2.252603149E1,1.469193101E0
5.217570211E0,1.695314789E1,-2.196611214E1,7.848458290E-1
5.222325159E0,1.672104454E1,-2.077448654E1,3.565305769E-1
5.227080055E0,1.606541061E1,-1.903251076E1,-2.249253243E-1
5.231835003E0,1.466561031E1,-1.701057625E1,-7.561319470E-1
5.236589898E0,1.306002617E1,-1.512024593E1,-1.284945726E0
5.241344846E0,1.135872936E1,-1.350269794E1,-1.663011789E0
5.246099742E0,9.669396400E0,-1.227757263E1,-2.103291035E0
5.250854690E0,8.142775536E0,-1.157169056E1,-2.488535643E0
5.255609586E0,6.807580471E0,-1.133001518E1,-2.780459881E0
5.260364534E0,5.606383324E0,-1.147837067E1,-3.227917671E0
5.265119430E0,4.505684853E0,-1.176790142E1,-3.553341627E0
5.269874378E0,3.527020693E0,-1.230150127E1,-3.814159393E0
5.274629326E0,2.579462767E0,-1.290927792E1,-3.917050600E0
5.279384221E0,1.641476393E0,-1.343809223E1,-3.739981890E0
5.284139169E0,3.158525825E-1,-1.368933868E1,-3.259024382E0
5.288894065E0,-1.244267821E0,-1.394058514E1,-2.663211584E0
5.293649013E0,-2.794816732E0,-1.445743465E1,-1.081555843E0
5.298403909E0,-4.804787636E0,-1.565863132E1,6.699903309E-2
5.303158857E0,-6.458228111E0,-1.670190239E1,-8.353343964E0
5.307913805E0,-7.726424217E0,-1.619462395E1,-5.233103275E0
5.312668701E0,-8.152346611E0,-1.589073563E1,-8.453842163E0
5.317423648E0,-8.836693764E0,-1.512263870E1,-8.370093346E0
5.322178544E0,-9.226723671E0,-1.390947819E1,-6.108876228E0
5.326933492E0,-8.863015175E0,-1.298584843E1,-3.864408493E0
5.331688388E0,-7.805387497E0,-1.197368431E1,-1.021735311E0
5.336443336E0,-6.874579430E0,-1.090409279E1,9.930213690E-1
5.341198284E0,-6.013163090E0,-1.008814049E1,1.222732425E0
5.345953180E0,-4.771288395E0,-9.611968994E0,1.746760488E0
5.350708128E0,-3.771088600E0,-9.286544800E0,1.907079697E0
5.355463023E0,-3.024527788E0,-9.123832703E0,1.722832322E0
5.360217971E0,-2.589034081E0,-8.970691681E0,1.567298889E0
5.364972867E0,-2.371287346E0,-8.652446747E0,1.586441398E0
5.369727815E0,-2.328216314E0,-8.329415321E0,1.517049551E0
5.374482763E0,-2.366501570E0,-7.989634991E0,1.402194023E0
5.379237659E0,-2.550748825E0,-7.618747234E0,1.328016520E0
5.383992607E0,-2.873780012E0,-7.331608772E0,1.313659668E0
5.388747503E0,-3.280559778E0,-7.159325123E0,1.378265858E0
5.393502451E0,-3.814159393E0,-6.963113785E0,1.605584025E0
5.398257398E0,-4.273581028E0,-6.790830612E0,1.962114573E0
5.403012294E0,-4.677968502E0,-6.723831654E0,2.287538528E0
5.407767242E0,-5.032105923E0,-6.762116909E0,2.567498684E0
5.412522190E0,-5.393422127E0,-6.924828529E0,2.809173822E0
5.417277086E0,-5.651846886E0,-7.202396393E0,3.069991350E0
5.422032034E0,-5.745167255E0,-7.523034573E0,3.206382275E0
5.426786930E0,-5.702096462E0,-7.929814339E0,3.428914785E0
5.431541878E0,-5.548955917E0,-8.449056625E0,3.742374659E0
5.436296826E0,-5.369493961E0,-8.937192917E0,4.065405846E0
5.441051721E0,-5.149354458E0,-9.410971642E0,4.323830605E0
5.445806669E0,-4.998606682E0,-9.875179291E0,4.520041943E0
5.450561565E0,-4.912465096E0,-1.023170948E1,4.689932346E0
5.455316513E0,-4.991427898E0,-1.044706345E1,4.730610371E0
5.460071461E0,-5.175675392E0,-1.053799057E1,4.692325115E0
5.464826357E0,-5.556134224E0,-1.045184898E1,4.668396950E0
5.469581305E0,-5.972485542E0,-1.021017456E1,4.620540619E0
5.474336253E0,-6.185446739E0,-9.920642853E0,4.589433670E0
5.479091148E0,-6.240481377E0,-9.628718376E0,4.625326157E0
5.483846096E0,-6.199803352E0,-9.358329773E0,4.673182487E0
5.488600992E0,-5.876772404E0,-9.190832138E0,4.627718925E0
5.493355940E0,-5.426921844E0,-9.064012527E0,4.699503899E0
5.498110888E0,-4.802394867E0,-9.001798630E0,4.761716843E0
5.502865784E0,-4.153940201E0,-8.985049248E0,4.764110088E0
5.507620732E0,-3.598805189E0,-8.985049248E0,4.725824833E0
5.512375680E0,-3.151347399E0,-8.941978455E0,4.596612453E0
5.517130576E0,-2.744567633E0,-8.824729919E0,4.357329845E0
5.521885523E0,-2.423929453E0,-8.678768158E0,4.094119549E0
5.526640419E0,-2.112862349E0,-8.494520187E0,3.716053486E0
5.531395367E0,-1.842473388E0,-8.281558990E0,3.323630571E0
5.536150315E0,-1.641476393E0,-8.066205025E0,2.940778971E0
5.540905211E0,-1.521835208E0,-7.877171993E0,2.629712105E0
5.545660159E0,-1.442872047E0,-7.769495010E0,2.409572363E0
5.550415107E0,-1.423729420E0,-7.702496052E0,2.194218397E0
5.555170003E0,-1.469193101E0,-7.750352383E0,2.031506538E0
5.559924951E0,-1.576870084E0,-7.896314621E0,1.940579176E0
5.564679898E0,-1.663011789E0,-8.085348129E0,1.926222205E0
5.569434794E0,-1.718046665E0,-8.283951759E0,1.940579176E0
5.574189742E0,-1.720439434E0,-8.556734085E0,1.981257200E0
5.578944690E0,-1.677368641E0,-8.870193481E0,2.062613010E0
5.583699586E0,-1.607976794E0,-9.186046600E0,2.132004976E0
5.588454534E0,-1.552941918E0,-9.580862045E0,2.191825628E0
5.593209482E0,-1.512263894E0,-9.944570541E0,2.201396942E0
5.597964378E0,-1.509871125E0,-1.038963604E1,2.160718918E0
5.602719326E0,-1.462014675E0,-1.078205872E1,2.136790514E0
5.607474221E0,-1.414158225E0,-1.113858986E1,2.127219439E0
5.612229169E0,-1.349551916E0,-1.147119141E1,2.120040894E0
5.616984117E0,-1.270588875E0,-1.175833035E1,2.148754835E0
5.621739013E0,-1.172483087E0,-1.204546928E1,2.313859463E0
5.626493961E0,-9.619147182E-1,-1.233978653E1,2.548356056E0
5.631248909E0,-8.279166222E-1,-1.267238903E1,2.840280533E0
5.636003805E0,-7.465606928E-1,-1.292124271E1,2.971885681E0
5.640758753E0,-6.963114142E-1,-1.298345566E1,2.813959360E0
5.645513701E0,-7.058826685E-1,-1.288535023E1,2.364108801E0
5.650268596E0,-8.398807645E-1,-1.269153118E1,1.663011789E0
5.655023544E0,-8.805587292E-1,-1.254078388E1,8.877372146E-1
5.659778492E0,-3.206382394E-1,-1.265563869E1,-3.349951655E-2
5.664533440E0,2.682354212E0,-1.326102352E1,-1.905165482E1
5.669288336E0,9.126225471E0,-1.175593758E1,-3.037927628E1
5.674043284E0,7.807780266E0,-1.163868904E1,-1.900140381E1
5.678798232E0,2.768495798E0,-1.221057415E1,-1.611087418E1
5.683553128E0,1.368694544E0,-1.265085316E1,-9.281759262E0
5.688308076E0,-4.785645287E-3,-1.233500099E1,-3.019742250E0
5.693063023E0,-7.178467698E-3,-1.190907860E1,-9.212366939E-1
5.697817919E0,-1.555334687E0,-1.114337540E1,1.447657704E0
5.702572867E0,-1.241874933E0,-1.067677498E1,3.409772158E0
5.707327815E0,-8.638089895E-1,-1.034177971E1,2.435893536E0
5.712082711E0,-3.110669553E-1,-1.008574772E1,2.182254314E0
5.716837659E0,3.637090325E-1,-9.868000984E0,2.155933142E0
5.721592607E0,1.179661512E0,-9.712467194E0,2.177468538E0
5.726347503E0,1.971685886E0,-9.542576790E0,2.935993433E0
5.731102451E0,2.653640270E0,-9.413364410E0,3.584448338E0
5.735857398E0,3.139383316E0,-9.293723106E0,4.249652863E0
5.740612294E0,3.622733593E0,-9.233902931E0,4.977071285E0
5.745367242E0,4.034298897E0,-9.226723671E0,5.436492920E0
5.750122190E0,4.359723091E0,-9.253045082E0,5.733202934E0
5.754877086E0,4.689932346E0,-9.312865257E0,5.871986866E0
5.759632034E0,4.998606682E0,-9.430113792E0,5.893522263E0
5.764386982E0,5.178068161E0,-9.571290970E0,5.625525951E0
5.769141930E0,5.252245903E0,-9.717252731E0,5.209175110E0
5.773896826E0,5.101497650E0,-9.865608215E0,4.773681164E0
5.778651773E0,4.771288395E0,-1.014796066E1,4.378865242E0
5.783406721E0,4.302295208E0,-1.055952644E1,4.228117466E0
5.788161617E0,3.881158352E0,-1.107876873E1,4.180261135E0
5.792916565E0,3.498306751E0,-1.165304661E1,4.158725739E0
5.797671513E0,3.247060299E0,-1.222014523E1,4.031906128E0
5.802426461E0,3.266202927E0,-1.272742367E1,2.469393015E0
5.807181357E0,3.598805189E0,-1.303370476E1,3.349951655E-2
5.811936305E0,3.658625841E0,-1.309591866E1,-3.029313564E0
5.816691253E0,3.474378586E0,-1.298106289E1,-5.075176716E0
5.821446148E0,2.885744095E0,-1.271306705E1,-5.020142078E0
5.826201096E0,2.122433662E0,-1.264846039E1,-3.948157310E0
5.830956044E0,1.507478237E0,-1.266521072E1,-2.285145521E0
5.835710992E0,1.359123230E0,-1.257428265E1,-7.920243144E-1
5.840465888E0,1.538584948E0,-1.255753326E1,4.067798331E-2
5.845220836E0,2.026720762E0,-1.274178028E1,3.852444589E-1
5.849975784E0,2.756531715E0,-1.310309696E1,3.326023519E-1
5.854730732E0,3.416950703E0,-1.352184105E1,4.307080805E-1
5.859485628E0,3.854837179E0,-1.387837124E1,9.667003751E-1
5.864240576E0,4.170690060E0,-1.409851074E1,1.172483087E0
5.868995523E0,4.481756687E0,-1.402911949E1,1.028913736E0
5.873750419E0,4.941178799E0,-1.364148235E1,1.459621787E-1
5.878505367E0,5.606383324E0,-1.313659668E1,-1.265803218E0
5.883260315E0,6.321837425E0,-1.255992603E1,-2.301895380E0
5.888015263E0,6.790830612E0,-1.203589821E1,-2.428714991E0
5.892770159E0,6.821937561E0,-1.156211948E1,-1.701296926E0
5.897525107E0,6.532405853E0,-1.095434189E1,-6.508477330E-1
5.902280055E0,6.199803352E0,-1.030827999E1,6.125625968E-1
5.907034951E0,5.912664890E0,-9.657432556E0,1.328016520E0
5.911789898E0,5.563312531E0,-9.087940216E0,1.682154298E0
5.916544846E0,5.321637630E0,-8.769695282E0,1.849651933E0
5.921299794E0,5.101497650E0,-8.776873589E0,1.969292998E0
5.926054690E0,4.711467743E0,-9.056833267E0,2.005185366E0
5.930809638E0,4.192225456E0,-9.667003632E0,1.909472466E0
5.935564586E0,3.589233875E0,-1.068156052E1,1.832902193E0
5.940319534E0,2.950350285E0,-1.211246777E1,1.713261008E0
5.945074430E0,2.502892494E0,-1.342612743E1,1.351944804E0
5.949829378E0,2.342573404E0,-1.468235970E1,9.571290612E-1
5.954584326E0,2.206182480E0,-1.614916039E1,8.350951076E-1
5.959339273E0,2.024327993E0,-1.789113426E1,1.057627559E0
5.964094169E0,1.572084427E0,-1.987717819E1,1.282552958E0
5.968849117E0,7.298108935E-1,-2.188236237E1,1.770688772E0
5.973604065E0,-4.163511395E-1,-2.370808601E1,2.385644197E0
5.978359013E0,-2.486142635E0,-2.570130730E1,2.749353170E0
5.983113909E0,-4.388436794E0,-2.734039116E1,3.371487141E0
5.987868857E0,-5.771488190E0,-2.827598572E1,3.364308596E0
5.992623805E0,-3.431307554E0,-2.548595428E1,3.378665686E0
5.997378753E0,-6.281159401E0,-2.457428932E1,1.852044702E0
6.002133648E0,-1.005942631E1,-2.536392021E1,-1.004985452E0
6.006888596E0,-1.248335552E1,-2.570130730E1,-3.086741209E0
6.011643544E0,-1.370608807E1,-2.588316345E1,-4.237689018E0
6.016398492E0,-1.391187096E1,-2.571805763E1,-5.233103275E0
6.021153440E0,-1.357926846E1,-2.068116570E1,-4.383651257E0
6.025908336E0,-1.331845093E1,-1.788156319E1,-3.108276606E0
6.030663284E0,-1.283031464E1,-1.592423439E1,-1.892722726E0
6.035418232E0,-1.203350544E1,-1.418225956E1,-9.643075466E-1
6.040173180E0,-1.096391296E1,-1.265563869E1,3.349951655E-2
6.044928076E0,-9.686145782E0,-1.145444202E1,5.886343718E-1
6.049683023E0,-8.422736168E0,-1.046381378E1,8.733802438E-1
6.054437971E0,-7.195217609E0,-9.669396400E0,1.021735311E0
6.059192919E0,-6.178267956E0,-8.930013657E0,6.699903607E-1
6.063947815E0,-5.321637630E0,-8.288737297E0,3.852444589E-1
6.068702763E0,-4.555934429E0,-7.712067604E0,-2.871387079E-2
6.073457711E0,-3.833301783E0,-7.109076023E0,-5.718846321E-1
6.078212659E0,-3.153740168E0,-6.443871498E0,-1.258624673E0
6.082967607E0,-2.517249346E0,-5.807380676E0,-1.804188251E0
6.087722503E0,-2.012363911E0,-5.316852093E0,-2.206182480E0
6.092477451E0,-1.622333765E0,-4.876572609E0,-2.325823545E0
6.097232398E0,-1.457229018E0,-4.613361835E0,-2.029113531E0
6.101987346E0,-1.359123230E0,-4.409972191E0,-1.806581140E0
6.106742242E0,-1.351944804E0,-4.273581028E0,-1.287338614E0
6.111497190E0,-1.301695466E0,-4.194618225E0,-9.116654396E-1
6.116252138E0,-1.217946768E0,-4.156332970E0,-6.723831892E-1
6.121007086E0,-1.131805062E0,-4.089334011E0,-4.713860750E-1
6.125761982E0,-9.308080077E-1,-4.120440483E0,-3.637090325E-1
6.130516930E0,-7.106683254E-1,-4.189832687E0,-1.770688742E-1
6.135271878E0,-4.546363056E-1,-4.247260094E0,1.196411345E-2
6.140026826E0,-2.344966233E-1,-4.266402721E0,9.571290761E-2
6.144781773E0,-1.363908947E-1,-4.264009953E0,2.632105052E-1
6.149536669E0,-4.067798331E-2,-4.278367043E0,3.397808075E-1
6.154291617E0,-4.546362907E-2,-4.211368084E0,5.312066078E-1
6.159046565E0,-6.939185411E-2,-4.161118507E0,6.723831892E-1
6.163801513E0,-2.057827413E-1,-4.015156269E0,7.441678643E-1
6.168556409E0,-4.474578202E-1,-3.828516245E0,8.518448472E-1
6.173311357E0,-7.657032609E-1,-3.699303865E0,9.379864931E-1
6.178066305E0,-1.127019525E0,-3.555734396E0,1.067198873E0
6.182821253E0,-1.502692580E0,-3.457628727E0,1.225125194E0
6.187576201E0,-1.777867198E0,-3.347558975E0,1.359123230E0
6.192331148E0,-2.017149448E0,-3.318845034E0,1.476371527E0
6.197086044E0,-2.175075769E0,-3.285345554E0,1.552941918E0
6.201840992E0,-2.364108801E0,-3.275774240E0,1.579262972E0
6.206595940E0,-2.620140791E0,-3.263810158E0,1.600798368E0
6.211350888E0,-2.883351326E0,-3.273381472E0,1.603191137E0
6.216105784E0,-3.184846878E0,-3.263810158E0,1.557727575E0
6.220860732E0,-3.428914785E0,-3.242274761E0,1.507478237E0
6.225615680E0,-3.620340586E0,-3.311666489E0,1.452443361E0
6.230370628E0,-3.790230989E0,-3.407379389E0,1.344766378E0
6.235125576E0,-4.003192425E0,-3.462414265E0,1.174875975E0
6.239880523E0,-4.161118507E0,-3.541377544E0,9.858429432E-1
6.244635419E0,-4.393222332E0,-3.632304668E0,8.231309652E-1
6.249390367E0,-4.613361835E0,-3.739981890E0,6.484549642E-1
6.254145315E0,-4.986642361E0,-3.823730469E0,3.062812984E-1
6.258900263E0,-5.577669621E0,-3.828516245E0,-3.397808075E-1
6.263655211E0,-6.558726788E0,-3.766302824E0,-1.751546144E0
6.268410107E0,-7.680960655E0,-3.737588882E0,-3.371487141E0
6.273165055E0,-7.841279984E0,-4.122833252E0,-4.790431023E0
6.277920003E0,-7.022934437E0,-4.771288395E0,-6.266802311E0
6.282674951E0,-5.931807518E0,-5.556134224E0,-7.353144169E0
6.287429898E0,-5.015356064E0,-6.436692715E0,-7.896314621E0
6.292184846E0,-4.264009953E0,-7.523034573E0,-7.635497093E0
6.296939742E0,-3.574877024E0,-8.867800713E0,-6.982256413E0
6.301694690E0,-2.845066071E0,-1.025563812E1,-6.173482418E0
6.306449638E0,-1.603191137E0,-1.128694439E1,-5.601597786E0
6.311204586E0,-1.531406492E-1,-1.193539906E1,-4.721039295E0
6.315959534E0,1.225125194E0,-1.244985580E1,-3.309273720E0
6.320714430E0,1.818545222E0,-1.271306705E1,-1.021735311E0
6.325469378E0,1.497906923E0,-1.287338543E1,2.495713949E0
6.330224326E0,6.675975323E-1,-1.328973675E1,6.075376511E0
6.334979273E0,4.809573591E-1,-1.418704510E1,9.454042435E0
6.339734221E0,2.301895380E0,-1.595773411E1,1.180379391E1
6.344489169E0,5.816951752E0,-1.875015831E1,1.359123230E1
6.349244065E0,9.633503914E0,-2.193979073E1,1.405543995E1
6.353999013E0,1.292602825E1,-2.483510590E1,1.346441269E1
6.358753961E0,1.557488251E1,-2.690729141E1,1.227996540E1
6.363508909E0,1.578066540E1,-2.792424011E1,1.002114105E1
6.368263857E0,1.484985733E1,-2.795056152E1,6.546762943E0
6.373018805E0,1.470150185E1,-2.770409966E1,4.517649174E0
6.377773701E0,1.507956791E1,-2.748396111E1,3.663411379E0
6.382528648E0,1.521595955E1,-2.689054108E1,2.734996319E0
6.387283596E0,1.507478237E1,-2.576352119E1,1.875972986E0
6.392038544E0,1.495753479E1,-2.400240326E1,1.165304661E0
6.396793492E0,1.441675663E1,-2.173400879E1,3.852444589E-1
6.401548440E0,1.361755371E1,-1.949193382E1,-3.684946895E-1
6.406303336E0,1.283270741E1,-1.749631882E1,-9.164510965E-1
6.411058284E0,1.205982590E1,-1.579502201E1,-1.397408366E0
6.415813232E0,1.133958626E1,-1.451725483E1,-1.756331801E0
6.420568180E0,1.055713367E1,-1.364626789E1,-2.029113531E0
6.425323128E0,9.789037704E0,-1.305763340E1,-2.344966173E0
6.430078076E0,9.109476089E0,-1.266042423E1,-2.612962246E0
6.434832971E0,8.506484032E0,-1.247139168E1,-2.924029350E0
6.439587919E0,8.003992081E0,-1.244028473E1,-3.349951744E0
6.444342867E0,7.379465103E0,-1.246899891E1,-3.627519131E0
6.449097815E0,6.381658077E0,-1.213639641E1,-4.060619831E0
6.453852763E0,5.137390137E0,-1.148554897E1,-4.527220249E0
6.458607711E0,4.395615101E0,-1.111705399E1,-6.719046116E0
6.463362607E0,4.776073933E0,-1.147358418E1,-9.743574142E0
6.468117555E0,3.014956474E0,-1.247617722E1,-8.779266357E0
6.472872503E0,-1.040877819E0,-1.248574829E1,-1.404347610E1
6.477627451E0,-3.785445452E0,-1.155254745E1,-1.650808334E1
6.482382398E0,-5.678168297E0,-1.070548820E1,-1.555574036E1
6.487137346E0,-7.690532207E0,-9.920642853E0,-1.242592812E1
6.491892294E0,-8.157132149E0,-9.566504478E0,-7.164111137E0
6.496647190E0,-6.659225464E0,-9.458827972E0,-2.438286304E0
6.501402138E0,-5.656632900E0,-8.784051895E0,-8.135596663E-2
6.506157086E0,-4.938786030E0,-8.051848412E0,1.160519004E0
6.510912034E0,-4.161118507E0,-7.429714203E0,2.476571321E0
6.515666982E0,-3.098705292E0,-7.137789726E0,2.450250387E0
6.520421930E0,-2.397608280E0,-6.960721016E0,1.691725612E0
6.525176878E0,-1.610369682E0,-6.917650223E0,1.373480201E0
6.529931773E0,-1.064806104E0,-6.924828529E0,1.182054400E0
6.534686721E0,-7.489534616E-1,-7.101897717E0,9.834501147E-1
6.539441669E0,-5.575276613E-1,-7.231110096E0,6.652047038E-1
6.544196617E0,-7.130611539E-1,-7.506284714E0,6.843472719E-1
6.548951565E0,-9.738788009E-1,-7.982456207E0,6.604190469E-1
6.553706513E0,-1.514656782E0,-8.465806961E0,6.125625968E-1
6.558461461E0,-2.258824587E0,-9.166903496E0,9.164510965E-1
6.563216409E0,-3.184846878E0,-9.990034103E0,1.361516118E0
6.567971305E0,-4.060619831E0,-1.084187984E1,1.931007862E0
6.572726253E0,-4.991427898E0,-1.171765232E1,2.502892494E0
6.577481201E0,-5.915057659E0,-1.258864021E1,3.117847919E0
6.582236148E0,-6.635297298E0,-1.361994648E1,3.388236761E0
6.586991096E0,-7.396214962E0,-1.425165176E1,4.977071285E0
6.591746044E0,-7.515855789E0,-1.506760406E1,5.190032482E0
6.596500992E0,-7.647460938E0,-1.559641838E1,6.187839508E0
6.601255940E0,-7.628318787E0,-1.598405552E1,6.510870457E0
6.606010836E0,-7.496713161E0,-1.617069626E1,6.886543751E0
6.610765784E0,-7.097112179E0,-1.613958931E1,7.195217609E0
6.615520732E0,-6.513263226E0,-1.576630878E1,7.200003147E0
6.620275680E0,-5.941378593E0,-1.501974773E1,7.034898758E0
6.625030628E0,-5.544169903E0,-1.397886944E1,6.752545357E0
6.629785576E0,-5.448457241E0,-1.281117249E1,6.154339790E0
6.634540523E0,-5.505885124E0,-1.163151073E1,5.635097504E0
6.639295471E0,-5.608776093E0,-1.058106136E1,5.230710506E0
6.644050367E0,-5.702096462E0,-9.638289452E0,4.859822750E0
6.648805315E0,-5.716453075E0,-8.740981102E0,4.486542225E0
6.653560263E0,-5.625525951E0,-7.968099594E0,4.039084435E0
6.658315211E0,-5.357530117E0,-7.278966427E0,3.550948858E0
6.663070159E0,-4.919643402E0,-6.752545357E0,3.136990547E0
6.667825107E0,-4.441078663E0,-6.384050846E0,3.007778168E0
6.672580055E0,-3.943371773E0,-6.080162525E0,2.835494757E0
6.677335003E0,-3.407379389E0,-5.879165173E0,2.713460922E0
6.682089951E0,-2.816352367E0,-5.761917114E0,2.691925526E0
6.686844846E0,-2.383251429E0,-5.659025669E0,2.553141832E0
6.691599794E0,-2.043470621E0,-5.536991596E0,2.304288149E0
6.696354742E0,-1.785045743E0,-5.453242779E0,2.079362869E0
6.701109690E0,-1.584048629E0,-5.367101192E0,1.844866276E0
6.705864638E0,-1.399801254E0,-5.338387489E0,1.660618901E0
6.710619586E0,-1.287338614E0,-5.369493961E0,1.469193101E0
6.715374534E0,-1.153340459E0,-5.491528034E0,1.296909928E0
6.720129482E0,-1.165304661E0,-5.606383324E0,1.328016520E0
6.724884430E0,-1.174875975E0,-5.845665932E0,1.143769264E0
6.729639378E0,-1.205982566E0,-6.061019897E0,1.220339537E0
6.734394273E0,-1.323230863E0,-6.326622963E0,1.194018483E0
6.739149221E0,-1.409372568E0,-6.704689026E0,1.251446247E0
6.743904169E0,-1.529013634E0,-7.113861561E0,1.342373490E0
6.748659117E0,-1.605584025E0,-7.551748276E0,1.450050473E0
6.753414065E0,-1.708475351E0,-8.106883049E0,1.555334687E0
6.758169013E0,-1.713261008E0,-8.762516975E0,1.892722726E0
6.762923961E0,-1.689332843E0,-9.513862610E0,2.297109842E0
6.767678909E0,-1.641476393E0,-1.028435135E1,2.548356056E0
6.772433857E0,-1.579262972E0,-1.109791183E1,2.648854733E0
6.777188805E0,-1.402194023E0,-1.188275719E1,2.756531715E0
6.781943701E0,-1.253839016E0,-1.263410378E1,2.861815929E0
6.786698648E0,-1.062413216E0,-1.329930782E1,2.861815929E0
6.791453596E0,-8.470591903E-1,-1.386162186E1,2.854637384E0
6.796208544E0,-6.532405615E-1,-1.421336651E1,2.861815929E0
6.800963492E0,-5.575276613E-1,-1.435214996E1,2.797209740E0
6.805718440E0,-5.814558864E-1,-1.435693550E1,2.557927370E0
6.810473388E0,-6.532405615E-1,-1.415354633E1,2.313859463E0
6.815228336E0,-7.489534616E-1,-1.384726429E1,2.007578135E0
6.819983284E0,-8.135597110E-1,-1.342612743E1,1.579262972E0
6.824738232E0,-8.327022791E-1,-1.299541950E1,1.174875975E0
6.829493180E0,-7.680960894E-1,-1.257667542E1,7.728816867E-1
6.834248128E0,-3.684946895E-1,-1.239960670E1,5.958128572E-1
6.839003023E0,6.675975323E-1,-1.272742367E1,8.997012973E-1
6.843757971E0,1.782652855E0,-1.311745358E1,5.814558864E-1
6.848512919E0,3.316452265E0,-1.306481171E1,-1.017188931E1
6.853267867E0,6.568298340E0,-1.034177971E1,-2.372005081E1
6.858022815E0,5.218746185E0,-8.975478172E0,-2.094437599E1
6.862777763E0,1.639083505E0,-8.920442581E0,-1.573041630E1
6.867532711E0,1.052841991E-1,-9.631111145E0,-1.001635551E1
6.872287659E0,-6.699903607E-1,-1.054516983E1,-3.558127165E0
6.877042607E0,-2.895315289E-1,-1.064088249E1,7.417750359E-2
6.881797555E0,-9.738788009E-1,-1.036331463E1,1.098305583E0
6.886552503E0,-8.925228715E-1,-1.005464077E1,3.172882795E0
6.891307451E0,-4.402793646E-1,-9.724431038E0,3.333201885E0
6.896062346E0,-1.914258115E-2,-9.573683739E0,2.689532757E0
6.900817346E0,3.349951804E-1,-9.461220741E0,2.376072884E0
6.905572294E0,7.728816867E-1,-9.446864128E0,2.203789711E0
6.910327190E0,1.258624673E0,-9.475577354E0,2.632104874E0
6.915082138E0,1.679761529E0,-9.578469276E0,3.014956474E0
6.919837086E0,2.263610125E0,-9.705288887E0,3.649054527E0
6.924592034E0,2.950350285E0,-9.901499748E0,4.359723091E0
6.929346982E0,3.632304668E0,-1.009771156E1,5.091926575E0
6.934101930E0,4.307080746E0,-1.029631615E1,5.714060307E0
6.938856878E0,4.960321426E0,-1.046620655E1,6.221338749E0
6.943611826E0,5.529813290E0,-1.057149029E1,6.489335060E0
6.948366773E0,5.917450428E0,-1.060977554E1,6.474977970E0
6.953121721E0,6.034698486E0,-1.053559780E1,6.175875187E0
6.957876669E0,5.960521221E0,-1.043988514E1,5.714060307E0
6.962631617E0,5.663811207E0,-1.039442158E1,5.170889854E0
6.967386565E0,5.182853699E0,-1.043509960E1,4.756931305E0
6.972141461E0,4.610969067E0,-1.057149029E1,4.479363918E0
6.976896409E0,4.122833252E0,-1.083470058E1,4.244867325E0
6.981651357E0,3.816552162E0,-1.119123173E1,4.029513359E0
6.986406305E0,3.682554007E0,-1.155494022E1,3.366701365E0
6.991161253E0,3.895515203E0,-1.176790142E1,-7.202396393E-1
6.995916201E0,4.177868366E0,-1.197846985E1,-3.462414265E0
7.000671148E0,3.950550079E0,-1.219861031E1,-5.962913990E0
7.005426096E0,3.261417150E0,-1.241157150E1,-5.673382282E0
7.010181044E0,2.445464849E0,-1.271545982E1,-3.732803345E0
7.014935992E0,1.964507341E0,-1.283270741E1,-1.138983607E0
7.019690940E0,1.708475351E0,-1.281595802E1,5.455635786E-1
7.024445888E0,1.622333765E0,-1.279442310E1,1.710868239E0
7.029200836E0,1.615155339E0,-1.279920864E1,2.081755638E0
7.033955784E0,1.696511269E0,-1.285185051E1,1.761117458E0
7.038710732E0,1.907079697E0,-1.295234871E1,7.776673436E-1
7.043465680E0,2.199003935E0,-1.313659668E1,-3.972085714E-1
7.048220628E0,2.555534601E0,-1.331845093E1,-9.571290612E-1
7.052975576E0,2.818745136E0,-1.344048500E1,-4.546363056E-1
7.057730523E0,3.050848961E0,-1.340219975E1,1.124626622E-1
7.062485471E0,3.543770313E0,-1.309352589E1,5.240281820E-1
7.067240419E0,4.307080746E0,-1.259581852E1,3.613162339E-1
7.071995315E0,5.359922886E0,-1.213639641E1,-7.034898400E-1
7.076750263E0,6.522834301E0,-1.166740322E1,-1.988435626E0
7.081505211E0,7.513463020E0,-1.121276665E1,-2.672782898E0
7.086260159E0,7.853243828E0,-1.080359459E1,-2.081755638E0
7.091015107E0,7.499105930E0,-1.036331463E1,-9.427721500E-1
7.095770055E0,6.798008919E0,-9.863214493E0,5.575276613E-1
7.100525003E0,6.175875187E0,-9.379864693E0,1.799402595E0
7.105279951E0,5.764309883E0,-9.102297783E0,2.404786825E0
7.110034898E0,5.513063431E0,-9.054440498E0,2.727817774E0
7.114789846E0,5.527420521E0,-9.375079155E0,2.797209740E0
7.119544794E0,5.402993679E0,-1.005464077E1,2.629712105E0
7.124299742E0,5.213960648E0,-1.099501991E1,2.457428932E0
7.129054690E0,4.917250633E0,-1.216032505E1,2.141576290E0
7.133809638E0,4.484149456E0,-1.348594856E1,1.694118381E0
7.138564586E0,3.991228104E0,-1.484985733E1,1.282552958E0
7.143319534E0,3.316452265E0,-1.636451340E1,9.332008362E-1
7.148074482E0,2.679961443E0,-1.795574188E1,8.757730722E-1
7.152829430E0,2.096112728E0,-1.958764648E1,9.978070259E-1
7.157584378E0,1.500299811E0,-2.132483482E1,1.179661512E0
7.162339326E0,5.670989752E-1,-2.308116722E1,1.289731383E0
7.167094273E0,-8.135597110E-1,-2.466521645E1,1.500299811E0
7.171849221E0,-2.299502611E0,-2.581377029E1,1.792224169E0
7.176604169E0,-3.431307554E0,-2.663929367E1,2.280359983E0
7.181359117E0,-4.646861553E0,-2.713460922E1,2.924029350E0
7.186114065E0,-5.848058701E0,-2.718964386E1,3.115455151E0
7.190869013E0,-7.532605648E0,-2.681636429E1,2.160718918E0
7.195623961E0,-1.000917721E1,-2.573241425E1,2.871387303E-1
7.200378909E0,-1.270349503E1,-2.377508545E1,-1.995614052E0
7.205133805E0,-1.427557945E1,-2.143012047E1,-4.158725739E0
7.209888753E0,-1.393819237E1,-1.908993912E1,-5.166104317E0
7.214643701E0,-1.287338543E1,-1.715893173E1,-4.675575256E0
7.219398648E0,-1.198804188E1,-1.557009697E1,-3.349951744E0
7.224153596E0,-1.124865913E1,-1.409611797E1,-1.773081541E0
7.228908544E0,-1.050209904E1,-1.279920864E1,-4.594219327E-1
7.233663492E0,-9.667003632E0,-1.175115204E1,4.642075896E-1
7.238418440E0,-8.731410027E0,-1.100698376E1,1.119840980E0
7.243173388E0,-7.996813297E0,-1.038245773E1,1.471585870E0
7.247928336E0,-7.362715244E0,-9.769894600E0,1.648654819E0
7.252683284E0,-6.556334019E0,-9.152546883E0,1.691725612E0
7.257438232E0,-5.711667538E0,-8.472985268E0,1.387837172E0
7.262193180E0,-4.855037212E0,-7.683353424E0,8.566305041E-1
7.266948128E0,-4.034298897E0,-6.886543751E0,8.614161611E-2
7.271703076E0,-3.177668571E0,-6.159125328E0,-8.518448472E-1
7.276458023E0,-2.328216314E0,-5.560919762E0,-1.600798368E0
7.281212971E0,-1.811366796E0,-5.151747227E0,-1.859223247E0
7.285967919E0,-1.564906001E0,-4.867001057E0,-1.722832322E0
7.290722867E0,-1.430907965E0,-4.644468784E0,-1.543370605E0
7.295477815E0,-1.435693622E0,-4.591826439E0,-1.100698471E0
7.300232763E0,-1.399801254E0,-4.517649174E0,-7.513462901E-1
7.304987711E0,-1.292124271E0,-4.469792843E0,-4.666004181E-1
7.309742659E0,-1.170090318E0,-4.443471432E0,-2.536391914E-1
7.314497607E0,-8.207381964E-1,-4.529613495E0,-6.699903309E-2
7.319252555E0,-4.498506486E-1,-4.637290478E0,9.092725813E-2
7.324007503E0,-5.982056633E-2,-4.728217602E0,1.004985496E-1
7.328762451E0,2.823530734E-1,-4.768895626E0,1.387837082E-1
7.333517398E0,5.958128572E-1,-4.744967461E0,1.316052526E-1
7.338272346E0,7.393822074E-1,-4.689932346E0,1.076770201E-1
7.343027294E0,7.728816867E-1,-4.589433670E0,1.962114573E-1
7.347782242E0,6.484549642E-1,-4.472185612E0,2.536391914E-1
7.352537190E0,4.498506486E-1,-4.280759811E0,3.182454109E-1
7.357292138E0,1.555334777E-1,-4.086941242E0,4.163511395E-1
7.362047086E0,-2.129612118E-1,-3.914657831E0,5.216353536E-1
7.366802034E0,-5.910272002E-1,-3.739981890E0,6.723831892E-1
7.371556982E0,-9.738788009E-1,-3.622733593E0,8.805587292E-1
7.376311930E0,-1.294517040E0,-3.495913982E0,1.100698471E0
7.381066878E0,-1.605584025E0,-3.421736479E0,1.225125194E0
7.385821826E0,-1.904686809E0,-3.388236761E0,1.342373490E0
7.390576773E0,-2.148754835E0,-3.354737282E0,1.452443361E0
7.395331721E0,-2.421536446E0,-3.321237803E0,1.497906923E0
7.400086669E0,-2.658426046E0,-3.290131092E0,1.538584948E0
7.404841617E0,-2.912065268E0,-3.266202927E0,1.514656782E0
7.409596565E0,-3.247060299E0,-3.285345554E0,1.430907965E0
7.414351513E0,-3.555734396E0,-3.251846075E0,1.354337573E0
7.419106461E0,-3.852444410E0,-3.227917671E0,1.237089276E0
7.423861409E0,-4.180261135E0,-3.249453068E0,1.119840980E0
7.428616357E0,-4.421936035E0,-3.261417150E0,1.038485050E0
7.433371305E0,-4.670789719E0,-3.330809116E0,9.355936646E-1
7.438126253E0,-4.912465096E0,-3.416950703E0,7.680960894E-1
7.442881201E0,-5.182853699E0,-3.491128206E0,7.226324677E-1
7.447636148E0,-5.515456200E0,-3.538984776E0,4.737788737E-1
7.452391096E0,-5.860022545E0,-3.617947817E0,1.962114573E-1
7.457146044E0,-6.386443615E0,-3.716053486E0,-4.450650215E-1
7.461900992E0,-7.092326164E0,-3.795016766E0,-1.517049551E0
7.466655940E0,-7.393822193E0,-4.139583111E0,-2.627319336E0
7.471410888E0,-6.752545357E0,-4.744967461E0,-3.792623997E0
7.476165836E0,-5.706882000E0,-5.503491879E0,-5.161318302E0
7.480920732E0,-4.670789719E0,-6.329015732E0,-6.297909260E0
7.485675732E0,-3.711267948E0,-7.319644451E0,-6.886543751E0
7.490430680E0,-3.019742250E0,-8.319844246E0,-6.618547440E0
7.495185628E0,-2.201396942E0,-9.671789169E0,-6.020341873E0
7.499940523E0,-1.182054400E0,-1.082991505E1,-5.556134224E0
7.504695523E0,5.264209956E-2,-1.169133186E1,-5.290530682E0
7.509450471E0,1.383051515E0,-1.243549919E1,-4.354937077E0
7.514205419E0,2.294716835E0,-1.309591866E1,-2.567498684E0
7.518960367E0,1.923829436E0,-1.360319710E1,1.220339537E0
7.523715315E0,7.704889178E-1,-1.395494175E1,5.259424210E0
7.528470263E0,4.546362907E-2,-1.471107388E1,8.606983185E0
7.533225211E0,1.773081541E0,-1.666600990E1,1.079402256E1
7.537980159E0,5.044070244E0,-1.938425636E1,1.260778236E1
7.542735107E0,8.726624489E0,-2.236571312E1,1.346441269E1
7.547490055E0,1.181815147E1,-2.478246498E1,1.222014523E1
7.552245003E0,1.374198055E1,-2.627079964E1,1.092562866E1
7.556999951E0,1.440479279E1,-2.687139893E1,8.994620323E0
7.561754898E0,1.390469265E1,-2.685225487E1,6.216553211E0
7.566509846E0,1.365105343E1,-2.658665276E1,4.139583111E0
7.571264794E0,1.378026581E1,-2.624926376E1,3.280559778E0
7.576019742E0,1.397647667E1,-2.568455887E1,2.677568436E0
7.580774690E0,1.394058514E1,-2.472982216E1,2.160718918E0
7.585529638E0,1.374437332E1,-2.331327057E1,1.832902193E0
7.590284586E0,1.336630726E1,-2.145883369E1,1.428515077E0
7.595039534E0,1.273220921E1,-1.941057777E1,8.709874153E-1
7.599794482E0,1.202632618E1,-1.739821434E1,3.230310678E-1
7.604549430E0,1.121755219E1,-1.554616833E1,-2.919243574E-1
7.609304378E0,1.048056316E1,-1.399801254E1,-7.992027402E-1
7.614059326E0,9.724431038E0,-1.269870949E1,-1.198804140E0
7.618814273E0,9.023334503E0,-1.174397373E1,-1.605584025E0
7.623569221E0,8.511270523E0,-1.100219822E1,-1.923829436E0
7.628324169E0,7.980063438E0,-1.049013424E1,-2.227717876E0
7.633079117E0,7.575676441E0,-1.020778179E1,-2.495713949E0
7.637834065E0,7.353144169E0,-1.005942631E1,-2.557927370E0
7.642589013E0,7.058826923E0,-9.930213928E0,-2.663211584E0
7.647343961E0,6.369693756E0,-9.609575272E0,-2.993421078E0
7.652098909E0,5.623133183E0,-9.399007797E0,-3.728017569E0
7.656853857E0,5.364708424E0,-9.645467758E0,-7.434499741E0
7.661608805E0,5.742774487E0,-1.054516983E1,-9.437292099E0
7.666363753E0,4.536791801E0,-1.183490086E1,-1.003789139E1
7.671118701E0,1.213161111E0,-1.274178028E1,-1.249771309E1
7.675873648E0,-1.524227977E0,-1.227278709E1,-1.308395386E1
7.680628596E0,-4.113262177E0,-1.130608654E1,-1.208854008E1
7.685383544E0,-5.560919762E0,-1.096391296E1,-8.295916557E0
7.690138492E0,-5.714060307E0,-1.096630573E1,-3.716053486E0
7.694893440E0,-4.926821709E0,-1.093759251E1,2.153540403E-2
7.699648388E0,-4.357329845E0,-1.068395329E1,1.653440475E0
7.704403336E0,-3.809373617E0,-1.033699417E1,2.847458839E0
7.709158284E0,-2.924029350E0,-1.005464077E1,3.639483213E0
7.713913232E0,-2.251646042E0,-9.710074425E0,2.971885681E0
7.718668180E0,-1.660618901E0,-9.332008362E0,1.959721804E0
7.723423128E0,-1.062413216E0,-9.030512810E0,1.383051515E0
7.728178076E0,-6.388836503E-1,-8.798408508E0,8.398807645E-1
7.732933023E0,-5.599204898E-1,-8.757730484E0,2.129612118E-1
7.737687971E0,-8.566305041E-1,-8.791230202E0,-3.996013701E-1
7.742442919E0,-1.335195065E0,-8.953942299E0,-6.269195080E-1
7.747197867E0,-1.880758643E0,-9.274580956E0,-7.609176040E-1
7.751952815E0,-2.749353170E0,-9.549755096E0,-7.800601721E-1
7.756707763E0,-3.594019651E0,-9.946963310E0,-6.364908218E-1
7.761462711E0,-4.374079704E0,-1.036092186E1,-4.139583111E-1
7.766217659E0,-5.115854740E0,-1.080838013E1,1.028913707E-1
7.770972607E0,-5.900700569E0,-1.114337540E1,8.063812256E-1
7.775727555E0,-6.460621357E0,-1.148076344E1,1.538584948E0
7.780482503E0,-6.915257454E0,-1.208136177E1,2.088934183E0
7.785237451E0,-7.089933395E0,-1.233260822E1,3.414557934E0
7.789992398E0,-6.628118515E0,-1.276092339E1,3.663411379E0
7.794747346E0,-6.197410583E0,-1.326341629E1,4.565505505E0
7.799502294E0,-5.465207100E0,-1.350748348E1,4.948357105E0
7.804257242E0,-4.835894585E0,-1.368455315E1,5.154139996E0
7.809012190E0,-4.307080746E0,-1.375872993E1,5.659025669E0
7.813767138E0,-4.019941807E0,-1.367498112E1,6.266802311E0
7.818522086E0,-4.010370731E0,-1.337587833E1,6.716653347E0
7.823277034E0,-4.283152580E0,-1.278485107E1,7.089933395E0
7.828031982E0,-4.754538536E0,-1.190668583E1,7.283751965E0
7.832786930E0,-5.223531723E0,-1.101416302E1,7.556533813E0
7.837541878E0,-5.680561066E0,-1.013121128E1,7.891529083E0
7.842296826E0,-5.819344521E0,-9.387042999E0,8.228917122E0
7.847051773E0,-5.429314613E0,-8.724231720E0,8.403593063E0
7.851806721E0,-5.101497650E0,-8.097311974E0,7.884350777E0
7.856561669E0,-4.926821709E0,-7.506284714E0,7.305287361E0
7.861316617E0,-4.845465660E0,-7.039684296E0,6.814758778E0
7.866071565E0,-4.510470867E0,-6.620940208E0,6.422336102E0
7.870826565E0,-4.074976921E0,-6.297909260E0,6.125626087E0
7.875581513E0,-3.603590965E0,-6.025127411E0,5.666203976E0
7.880336409E0,-3.017349243E0,-5.860022545E0,5.070391178E0
7.885091409E0,-2.435893536E0,-5.714060307E0,4.567898273E0
7.889846357E0,-1.873580098E0,-5.615954876E0,3.981656790E0
7.894601305E0,-1.385444283E0,-5.558526993E0,3.440878868E0
7.899356253E0,-1.036092162E0,-5.513063431E0,2.885744095E0
7.904111201E0,-8.709874153E-1,-5.489135265E0,2.395215511E0
7.908866148E0,-8.398807645E-1,-5.465207100E0,2.093719721E0
7.913621096E0,-9.858429432E-1,-5.560919762E0,1.866401672E0
7.918376044E0,-1.150947690E0,-5.694917679E0,1.682154298E0
7.923130992E0,-1.301695466E0,-5.967699528E0,1.533799291E0
7.927885940E0,-1.440479279E0,-6.290730953E0,1.428515077E0
7.932640888E0,-1.596012712E0,-6.652047157E0,1.440479279E0
7.937395836E0,-1.744367719E0,-7.070790768E0,1.552941918E0
7.942150784E0,-1.935793519E0,-7.590033531E0,1.670190215E0
7.946905732E0,-2.129612207E0,-8.157132149E0,1.914258122E0
7.951660680E0,-2.222932339E0,-8.793622971E0,2.213361025E0
7.956415628E0,-2.266003132E0,-9.480362892E0,2.440679073E0
7.961170576E0,-2.213361025E0,-1.021017456E1,2.622533560E0
7.965925523E0,-2.151147604E0,-1.094716358E1,2.794816732E0
7.970680471E0,-2.019542217E0,-1.166979599E1,2.902493954E0
7.975435419E0,-1.871187329E0,-1.230628681E1,2.919243574E0
7.980190367E0,-1.730010748E0,-1.283988667E1,2.895315409E0
7.984945315E0,-1.588834286E0,-1.328734398E1,2.938386202E0
7.989700263E0,-1.438086390E0,-1.367019558E1,2.981456995E0
7.994455211E0,-1.234696507E0,-1.398604870E1,2.883351326E0
7.999210159E0,-1.007378340E0,-1.407936859E1,2.672782898E0
8.003965107E0,-8.662018180E-1,-1.392862034E1,2.179861546E0
8.008720055E0,-8.039883971E-1,-1.364866066E1,1.538584948E0
8.013475003E0,-8.566305041E-1,-1.331845093E1,7.322037220E-1
8.018229951E0,-1.026520967E0,-1.301934814E1,-5.048855543E-1
8.022984898E0,8.063812256E-1,-1.273460197E1,-3.271706390E1
8.027739846E0,4.216153622E0,-9.647860527E0,-4.232185364E1
8.032494794E0,2.373680115E0,-1.191864967E1,-2.506003189E1
8.037249794E0,1.761117458E0,-1.332802200E1,-2.043709755E1
8.042004742E0,2.364108801E0,-1.328016567E1,-9.793823242E0
8.046759638E0,1.782652855E0,-1.234935760E1,-1.564906001E0
8.051514638E0,2.919243574E-1,-1.133719349E1,-1.674975827E-2
8.056269586E0,-5.359922647E-1,-1.032742214E1,2.634497643E0
8.061024534E0,-5.575276613E-1,-1.002592659E1,2.656033039E0
8.065779482E0,-4.785645306E-1,-9.765109062E0,1.837687731E0
8.070534430E0,-2.871387079E-2,-9.592825890E0,2.105684042E0
8.075289378E0,5.359922647E-1,-9.552147865E0,2.184647083E0
8.080044326E0,1.021735311E0,-9.556933403E0,2.467000246E0
8.084799273E0,1.375872970E0,-9.588040352E0,2.840280533E0
8.089554221E0,1.691725612E0,-9.650253296E0,3.326023579E0
8.094309169E0,1.878365755E0,-9.695717812E0,3.787838221E0
8.099064117E0,2.036292076E0,-9.729216576E0,4.120440483E0
8.103819065E0,2.218146563E0,-9.760323524E0,4.402793884E0
8.108574013E0,2.400001049E0,-9.841679573E0,4.675575256E0
8.113328961E0,2.510071039E0,-9.956535339E0,4.895715237E0
8.118083909E0,2.634497643E0,-1.020778179E1,5.132604599E0
8.122838857E0,2.773281336E0,-1.050688457E1,5.338387489E0
8.127593805E0,2.861815929E0,-1.081316566E1,5.517848969E0
8.132348753E0,2.938386202E0,-1.115773201E1,5.615954876E0
8.137103701E0,3.026920557E0,-1.147119141E1,5.709274769E0
8.141858648E0,3.091526747E0,-1.179900837E1,5.747560024E0
8.146613596E0,3.165704250E0,-1.209811115E1,5.776273727E0
8.151368544E0,3.282952785E0,-1.235414314E1,5.737988472E0
8.156123492E0,3.424129248E0,-1.259103298E1,5.668596745E0
8.160878440E0,3.617947817E0,-1.283988667E1,5.563312531E0
8.165633388E0,3.835694790E0,-1.304806232E1,5.453242779E0
8.170388388E0,4.122833252E0,-1.317727470E1,5.312066078E0
8.175143284E0,4.467400074E0,-1.325862980E1,5.185246468E0
8.179898284E0,4.859822750E0,-1.322991657E1,5.008177757E0
8.184653232E0,5.221138954E0,-1.303609753E1,4.589433670E0
8.189408180E0,5.489135265E0,-1.278485107E1,4.041477680E0
8.194163128E0,5.644668579E0,-1.258624744E1,3.407379389E0
8.198918076E0,5.692524910E0,-1.241396427E1,2.663211584E0
8.203673023E0,5.802595139E0,-1.237328625E1,1.634297848E0
8.208427971E0,7.975277901E0,-1.222493076E1,-1.189232826E1
8.213182919E0,1.100698376E1,-1.232303619E1,-1.533320713E1
8.217937867E0,1.107159042E1,-1.252642632E1,-1.472782326E1
8.222692815E0,9.138189316E0,-1.360558987E1,-9.116654396E0
8.227447763E0,7.061219692E0,-1.434257889E1,-5.469992638E0
8.232202711E0,5.996413708E0,-1.437607861E1,-6.412764788E-1
8.236957659E0,6.154339790E0,-1.389751434E1,6.556333899E-1
8.241712607E0,6.376872540E0,-1.336152172E1,-9.140582681E-1
8.246467555E0,7.829315662E0,-1.278963661E1,-8.853443861E-1
8.251222503E0,9.698110580E0,-1.211486149E1,-3.014956474E0
8.255977451E0,1.066241741E1,-1.140419292E1,-3.938585997E0
8.260732398E0,1.051406288E1,-1.062173939E1,-3.153740168E0
8.265487346E0,9.224330902E0,-9.784252167E0,-1.622333765E0
8.270242294E0,7.511070251E0,-8.965906143E0,7.896314561E-2
8.274997242E0,6.132804394E0,-8.365307808E0,1.251446247E0
8.279752190E0,5.508277893E0,-8.195417404E0,1.957328916E0
8.284507138E0,5.438885689E0,-8.427521706E0,2.311466694E0
8.289262086E0,5.393422127E0,-9.016156197E0,2.467000246E0
8.294017034E0,5.187639713E0,-9.937392235E0,2.636890650E0
8.298771982E0,4.670789719E0,-1.116969585E1,2.507678032E0
8.303526982E0,4.091726780E0,-1.273699474E1,2.354537487E0
8.308281930E0,3.828516245E0,-1.432582951E1,2.120040894E0
8.313036878E0,3.785445452E0,-1.574477291E1,1.663011789E0
8.317791826E0,3.620340586E0,-1.740539169E1,1.619940877E0
8.322546773E0,3.247060299E0,-1.942971992E1,1.725225091E0
8.327301721E0,2.572284460E0,-2.154976082E1,1.725225091E0
8.332056669E0,1.481157184E0,-2.364348030E1,1.952543259E0
8.336811617E0,-1.818545163E-1,-2.564388084E1,2.371287346E0
8.341566565E0,-2.218146563E0,-2.737389183E1,2.689532757E0
8.346321513E0,-4.692325115E0,-2.856551743E1,2.488535643E0
8.351076461E0,-7.202396393E0,-2.914697266E1,1.083948612E0
8.355831409E0,-1.023410225E1,-2.918286514E1,-1.392622828E0
8.360586357E0,-1.314138222E1,-2.814916611E1,-4.010370731E0
8.365341305E0,-1.510828209E1,-2.692164803E1,-4.847858906E0
8.370096253E0,-1.517288876E1,-2.536152649E1,-5.350351334E0
8.374851201E0,-1.445025635E1,-2.372005081E1,-5.005784988E0
8.379606148E0,-1.363430309E1,-2.183929253E1,-3.251846075E0
8.384361096E0,-1.282552910E1,-1.983410645E1,-1.423729420E0
8.389116044E0,-1.185404301E1,-1.786720657E1,1.148554832E-1
8.393870992E0,-1.065763187E1,-1.613241005E1,1.198804140E0
8.398625940E0,-9.513862610E0,-1.460578918E1,1.619940877E0
8.403380888E0,-8.690732002E0,-1.324188042E1,1.653440475E0
8.408135836E0,-8.027919769E0,-1.200000572E1,1.615155339E0
8.412890784E0,-7.508677483E0,-1.086341476E1,1.665404558E0
8.417645732E0,-6.891329288E0,-9.946963310E0,1.579262972E0
8.422400732E0,-6.163911343E0,-9.109476089E0,1.328016520E0
8.427155628E0,-5.393422127E0,-8.307880402E0,1.182054400E0
8.431910628E0,-4.673182487E0,-7.453642368E0,7.561319470E-1
8.436665576E0,-3.988835335E0,-6.580262184E0,2.392822644E-3
8.441420523E0,-3.263810158E0,-5.761917114E0,-9.523434043E-1
8.446175471E0,-2.596212626E0,-5.036891460E0,-1.813759565E0
8.450930419E0,-2.074577332E0,-4.558327198E0,-2.309073925E0
8.455685367E0,-1.734796405E0,-4.237689018E0,-2.517249346E0
8.460440315E0,-1.490728498E0,-4.084548473E0,-2.455035925E0
8.465195263E0,-1.399801254E0,-3.921836376E0,-2.189432621E0
8.469950211E0,-1.375872970E0,-3.835694790E0,-1.854437590E0
8.474705159E0,-1.287338614E0,-3.845266104E0,-1.529013634E0
8.479460107E0,-1.160519004E0,-3.835694790E0,-1.146162033E0
8.484215055E0,-9.427721500E-1,-3.866801500E0,-8.255237937E-1
8.488970003E0,-7.728816867E-1,-3.881158352E0,-6.436693072E-1
8.493724951E0,-5.192425251E-1,-3.914657831E0,-4.761717021E-1
8.498479898E0,-2.344966233E-1,-3.948157310E0,-3.493520916E-1
8.503234846E0,-1.435693540E-2,-3.974478483E0,-2.679961324E-1
8.507989794E0,2.057827413E-1,-3.919443607E0,-1.651047617E-1
8.512744742E0,3.230310678E-1,-3.850051641E0,-1.172483116E-1
8.517499690E0,3.613162339E-1,-3.754338741E0,-5.742774159E-2
8.522254638E0,3.541377485E-1,-3.634697676E0,-1.004985496E-1
8.527009586E0,2.464607358E-1,-3.512663603E0,2.153540403E-2
8.531764534E0,7.417750359E-2,-3.395415306E0,3.349951655E-2
8.536519482E0,-1.339980662E-1,-3.225524902E0,1.746760458E-1
8.541274430E0,-3.397808075E-1,-3.122633457E0,3.421736360E-1
8.546029378E0,-5.694918036E-1,-3.014956474E0,5.431707501E-1
8.550784326E0,-7.657032609E-1,-2.919243574E0,7.130611539E-1
8.555539273E0,-9.571290612E-1,-2.847458839E0,8.709874153E-1
8.560294273E0,-1.170090318E0,-2.890529871E0,9.786644578E-1
8.565049221E0,-1.428515077E0,-2.916850805E0,9.882357717E-1
8.569804169E0,-1.770688772E0,-2.971885681E0,1.002592683E0
8.574559117E0,-2.112862349E0,-3.065205812E0,9.667003751E-1
8.579314065E0,-2.455035925E0,-3.144168854E0,9.068797827E-1
8.584069013E0,-2.792423964E0,-3.256631613E0,8.303094506E-1
8.588823961E0,-3.127419233E0,-3.335594654E0,7.202396393E-1
8.593578909E0,-3.383451223E0,-3.416950703E0,6.077769399E-1
8.598333857E0,-3.586841106E0,-3.510270834E0,4.642075896E-1
8.603088805E0,-3.838087559E0,-3.555734396E0,2.823530734E-1
8.607843753E0,-4.130012035E0,-3.670589924E0,-6.939185411E-2
8.612598701E0,-4.553541660E0,-3.704089403E0,-5.024927258E-1
8.617353648E0,-5.091926575E0,-3.747160196E0,-1.127019525E0
8.622108596E0,-5.692524910E0,-3.847658873E0,-1.945364833E0
8.626863544E0,-5.946164131E0,-4.149154663E0,-2.742174864E0
8.631618492E0,-5.467599869E0,-4.666004181E0,-3.419343472E0
8.636373440E0,-4.744967461E0,-5.340780258E0,-4.125226021E0
8.641128388E0,-4.015156269E0,-6.192625046E0,-4.599005222E0
8.645883336E0,-3.488735437E0,-7.278966427E0,-4.668396950E0
8.650638284E0,-3.091526747E0,-8.671588898E0,-4.335794449E0
8.655393232E0,-2.567498684E0,-9.999606133E0,-4.290330887E0
8.660148180E0,-1.718046665E0,-1.107876873E1,-4.412364960E0
8.664903180E0,-5.623133183E-1,-1.174636650E1,-4.907679081E0
8.669658128E0,7.465606928E-1,-1.216989613E1,-4.716253281E0
8.674413076E0,2.160718918E0,-1.255992603E1,-3.945764542E0
8.679168023E0,3.345165968E0,-1.290688515E1,-2.868994236E0
8.683922971E0,4.086941242E0,-1.305763340E1,-7.992027402E-1
8.688677919E0,4.271188259E0,-1.293799210E1,2.086541414E0
8.693432867E0,4.158725739E0,-1.288774300E1,5.264209747E0
8.698187815E0,4.106083870E0,-1.319641685E1,8.164310455E0
8.702942763E0,5.245067120E0,-1.432104397E1,9.554540634E0
8.707697711E0,7.578069210E0,-1.584048557E1,1.017428207E1
8.712452659E0,1.013360405E1,-1.783609962E1,9.903892517E0
8.717207607E0,1.266042423E1,-1.967857361E1,8.788837433E0
8.721962555E0,1.438564968E1,-2.103769684E1,7.791030407E0
8.726717503E0,1.537627792E1,-2.189911270E1,6.661618233E0
8.731472451E0,1.536670685E1,-2.225085831E1,5.146961689E0
8.736227398E0,1.514896011E1,-2.243749809E1,3.639483213E0
8.740982346E0,1.480917931E1,-2.223889351E1,2.605783939E0
8.745737294E0,1.469910908E1,-2.194457626E1,1.825723648E0
8.750492242E0,1.455554008E1,-2.153061867E1,1.311266780E0
8.755247190E0,1.417747402E1,-2.053998947E1,8.255237937E-1
8.760002138E0,1.358405399E1,-1.906361771E1,2.943171859E-1
8.764757086E0,1.284945774E1,-1.742931938E1,-1.292124242E-1
8.769512034E0,1.210768223E1,-1.592901993E1,-4.905286431E-1
8.774266982E0,1.150947666E1,-1.483071518E1,-6.867401004E-1
8.779021930E0,1.096630573E1,-1.432822227E1,-7.609176040E-1
8.783776878E0,1.062413216E1,-1.440957832E1,-7.896314859E-1
8.788531826E0,1.022453117E1,-1.475414467E1,-9.858429432E-1
8.793286773E0,9.530612946E0,-1.498864079E1,-1.406979680E0
8.798041773E0,8.446663857E0,-1.485225010E1,-2.120040894E0
8.802796721E0,6.994220734E0,-1.433779335E1,-2.787638426E0
8.807551669E0,5.374279499E0,-1.353380489E1,-2.957528830E0
8.812306617E0,3.687339783E0,-1.279442310E1,-2.388036966E0
8.817061565E0,2.258824587E0,-1.240439224E1,-1.301695466E0
8.821816513E0,1.012163997E0,-1.260778236E1,-6.053841114E-1
8.826571461E0,5.000999570E-1,-1.339502144E1,-1.897508383E0
8.831326409E0,5.335994363E-1,-1.393579865E1,-8.640482903E0
8.836081357E0,-1.952543259E0,-1.331845093E1,-7.372286797E0
8.840836305E0,-3.146561861E0,-1.246660614E1,-1.368933868E1
8.845591253E0,-4.589433670E0,-1.108594704E1,-1.298824120E1
8.850346201E0,-6.790830612E0,-1.000199890E1,-1.015513897E1
8.855101148E0,-7.846065521E0,-9.762716293E0,-5.264209747E0
8.859856096E0,-6.625725746E0,-9.856036186E0,-1.232303619E0
8.864611044E0,-5.730810165E0,-9.477970123E0,9.212366939E-1
8.869365992E0,-4.654039860E0,-8.985049248E0,2.187039852E0
8.874120940E0,-3.852444410E0,-8.616554260E0,2.483749866E0
8.878875888E0,-2.842673302E0,-8.468199730E0,2.172683001E0
8.883630836E0,-2.122433662E0,-8.463413239E0,1.684547186E0
8.888385784E0,-1.622333765E0,-8.434700012E0,1.409372568E0
8.893140732E0,-1.387837172E0,-8.458627701E0,1.203589797E0
8.897895680E0,-1.201196909E0,-8.472985268E0,9.164510965E-1
8.902650628E0,-1.373480201E0,-8.535198212E0,6.460621357E-1
8.907405576E0,-1.835294962E0,-8.623732567E0,4.689932466E-1
8.912160576E0,-2.471785784E0,-8.764909744E0,3.349951804E-1
8.916915523E0,-3.242274761E0,-8.977870941E0,2.560320199E-1
8.921670471E0,-4.103690624E0,-9.253045082E0,4.713860750E-1
8.926425419E0,-4.912465096E0,-9.578469276E0,8.207381964E-1
8.931180367E0,-5.709274769E0,-9.915857315E0,1.445264935E0
8.935935315E0,-6.355337143E0,-1.021256733E1,1.983649969E0
8.940690263E0,-6.819544315E0,-1.051406288E1,2.210968018E0
8.945445211E0,-6.924828529E0,-1.081316566E1,2.545963287E0
8.950200159E0,-6.587440968E0,-1.112901783E1,3.144168854E0
8.954955107E0,-6.106483459E0,-1.134915733E1,3.369094372E0
8.959710055E0,-5.546562672E0,-1.144008541E1,3.579662561E0
8.964465003E0,-5.067998409E0,-1.146640587E1,3.924229145E0
8.969219951E0,-4.756931305E0,-1.133001518E1,4.302295208E0
8.973974898E0,-4.697110653E0,-1.088495064E1,4.584648132E0
8.978729846E0,-5.460421085E0,-9.458827972E0,4.618147850E0
8.983484794E0,-4.610969067E0,-1.020060253E1,5.008177757E0
8.988239742E0,-4.486542225E0,-1.004267693E1,5.876772404E0
8.992994690E0,-4.546362877E0,-9.200403214E0,5.838487148E0
8.997749638E0,-5.199603558E0,-9.004191399E0,5.883950710E0
9.002504586E0,-5.386243820E0,-9.121439934E0,6.472585201E0
9.007259534E0,-5.505885124E0,-8.729017258E0,6.455835342E0
9.012014482E0,-5.316852093E0,-8.216953278E0,6.333801746E0
9.016769430E0,-5.123033047E0,-8.116454124E0,6.321837425E0
9.021524378E0,-4.744967461E0,-8.164310455E0,5.814558983E0
9.026279326E0,-4.424329281E0,-7.972885132E0,5.453242779E0
9.031034326E0,-4.067798615E0,-7.867600918E0,5.070391178E0
9.035789273E0,-3.601198196E0,-7.920242786E0,4.654039860E0
9.040544221E0,-3.144168854E0,-8.015955925E0,4.393222332E0
9.045299169E0,-2.778067112E0,-8.018348694E0,3.988835335E0
9.050054117E0,-2.414358139E0,-8.023134232E0,3.491128206E0
9.054809065E0,-2.117648125E0,-8.061419487E0,3.065205812E0
9.059564013E0,-1.835294962E0,-8.073383331E0,2.589034081E0
9.064318961E0,-1.615155339E0,-8.061419487E0,2.165504456E0
9.069073909E0,-1.435693622E0,-8.049455643E0,1.730010748E0
9.073828857E0,-1.311266780E0,-8.032705307E0,1.378265858E0
9.078583805E0,-1.320838094E0,-8.039883614E0,1.146162033E0
9.083338753E0,-1.361516118E0,-8.140382767E0,9.571290612E-1
9.088093701E0,-1.505085468E0,-8.250452042E0,8.757730722E-1
9.092848648E0,-1.564906001E0,-8.453842163E0,8.877372146E-1
9.097603596E0,-1.653440475E0,-8.695517540E0,9.954141974E-1
9.102358544E0,-1.775474429E0,-8.980263710E0,1.141376376E0
9.107113492E0,-1.854437590E0,-9.276973724E0,1.294517040E0
9.111868440E0,-1.873580098E0,-9.602396965E0,1.478764415E0
9.116623388E0,-1.840080619E0,-9.987641335E0,1.703689694E0
9.121378336E0,-1.751546144E0,-1.034656525E1,1.844866276E0
9.126133284E0,-1.617548108E0,-1.068156052E1,2.031506538E0
9.130888284E0,-1.505085468E0,-1.102612686E1,2.182254314E0
9.135643232E0,-1.328016520E0,-1.133001518E1,2.344966173E0
9.140398180E0,-1.184447169E0,-1.154536915E1,2.474178553E0
9.145153128E0,-1.060020447E0,-1.174158096E1,2.553141832E0
9.149908076E0,-9.068797827E-1,-1.187557888E1,2.622533560E0
9.154663023E0,-7.250252366E-1,-1.194257736E1,2.739781857E0
9.159417971E0,-5.934200287E-1,-1.197846985E1,2.746960402E0
9.164172919E0,-5.527420044E-1,-1.191386414E1,2.622533560E0
9.168927867E0,-5.288137794E-1,-1.175354481E1,2.388036966E0
9.173682815E0,-5.359922647E-1,-1.157647610E1,1.981257200E0
9.178437763E0,-5.742774606E-1,-1.141854954E1,1.505085468E0
9.183192711E0,-5.072783828E-1,-1.134676456E1,1.028913736E0
9.187947659E0,-2.608176768E-1,-1.145922756E1,6.891329288E-1
9.192702607E0,6.077769399E-1,-1.201436234E1,3.948157430E-1
9.197457555E0,3.821337700E0,-1.269153118E1,-2.561755943E1
9.202212503E0,8.906085968E0,-1.097587776E1,-2.935754013E1
9.206967451E0,5.431707382E0,-1.142094231E1,-2.219821548E1
9.211722398E0,2.653640270E0,-1.235653591E1,-1.748674774E1
9.216477346E0,2.110469580E0,-1.256949711E1,-8.767302513E0
9.221232294E0,1.361516118E0,-1.214118195E1,-1.799402595E0
9.225987242E0,2.967100143E-1,-1.157169056E1,-2.512463629E-1
9.230742190E0,-1.698904037E-1,-1.099501991E1,2.076970100E0
9.235497138E0,-3.349951655E-2,-1.069591713E1,3.352344513E0
9.240252086E0,4.211367965E-1,-1.039442158E1,2.227717876E0
9.245007034E0,8.805587292E-1,-1.020060253E1,2.024327993E0
9.249762034E0,1.447657704E0,-1.005703354E1,2.316252232E0
9.254516982E0,1.861616015E0,-9.951749802E0,2.421536446E0
9.259271930E0,2.165504456E0,-9.853643417E0,2.957528830E0
9.264026878E0,2.474178553E0,-9.777072906E0,3.577269793E0
9.268781826E0,2.766103029E0,-9.798608780E0,4.146761417E0
9.273536773E0,3.007778168E0,-9.841679573E0,4.654039860E0
9.278291721E0,3.165704250E0,-9.868000984E0,4.967499733E0
9.283046669E0,3.340380430E0,-9.851250648E0,5.134997368E0
9.287801617E0,3.507878065E0,-9.868000984E0,5.166104317E0
9.292556565E0,3.708875179E0,-9.870393753E0,5.099104881E0
9.297311513E0,3.888336897E0,-9.891928673E0,4.977071285E0
9.302066461E0,4.027120590E0,-9.944570541E0,4.883750916E0
9.306821409E0,4.048655987E0,-1.012164021E1,4.878965378E0
9.311576357E0,3.988835335E0,-1.037288570E1,4.991427898E0
9.316331305E0,3.955335855E0,-1.073420238E1,5.187639713E0
9.321086253E0,3.931407690E0,-1.117926693E1,5.414957523E0
9.325841201E0,3.955335855E0,-1.161236858E1,5.692524910E0
9.330596148E0,4.051048756E0,-1.207179070E1,5.907878876E0
9.335351096E0,4.206582069E0,-1.254556942E1,6.053841114E0
9.340106044E0,4.462614059E0,-1.291406345E1,6.075376511E0
9.344860992E0,4.692325115E0,-1.324188042E1,5.871986866E0
9.349615940E0,4.859822750E0,-1.340219975E1,5.486742496E0
9.354370888E0,4.941178799E0,-1.342852020E1,4.938786030E0
9.359125836E0,4.919643402E0,-1.332562923E1,4.175475597E0
9.363880784E0,4.912465096E0,-1.314616776E1,3.089133978E0
9.368635732E0,5.680561066E0,-1.261017513E1,-9.518648148E0
9.373390680E0,6.831508636E0,-1.240439224E1,-1.363191032E1
9.378145680E0,6.539584160E0,-1.236371422E1,-1.547199154E1
9.382900628E0,5.024927616E0,-1.327059460E1,-1.117687416E1
9.387655576E0,3.751945972E0,-1.407219028E1,-7.977670670E0
9.392410523E0,3.103491068E0,-1.447179127E1,-2.012363911E0
9.397165471E0,3.136990547E0,-1.442632771E1,9.834501147E-1
9.401920419E0,3.560520172E0,-1.408415413E1,1.464407444E0
9.406675367E0,4.321437836E0,-1.346441269E1,2.055434704E0
9.411430315E0,5.527420521E0,-1.282074356E1,1.804188251E0
9.416185263E0,6.592226505E0,-1.216989613E1,-1.339980662E-1
9.420940211E0,7.568498135E0,-1.153579807E1,-1.344766378E0
9.425695159E0,7.841279984E0,-1.099501991E1,-1.653440475E0
9.430450107E0,7.563712597E0,-1.052841949E1,-1.036092162E0
9.435205055E0,6.927221775E0,-1.004506969E1,1.794617027E-1
9.439960003E0,6.195017815E0,-9.540184021E0,1.383051515E0
9.444714951E0,5.534598827E0,-9.140582085E0,2.146361828E0
9.449469898E0,5.292923450E0,-9.090332985E0,2.414358139E0
9.454224846E0,5.197210789E0,-9.322437286E0,2.474178553E0
9.458979794E0,5.197210789E0,-9.822537422E0,2.368894339E0
9.463734742E0,5.206781864E0,-1.064327526E1,2.175075769E0
9.468489690E0,5.077569485E0,-1.173679543E1,1.998006940E0
9.473244638E0,4.948357105E0,-1.277049446E1,1.631905079E0
9.477999586E0,4.594219685E0,-1.408176136E1,1.445264935E0
9.482754534E0,4.304687977E0,-1.563470268E1,1.275374413E0
9.487509482E0,4.027120590E0,-1.729053688E1,1.284945726E0
9.492264430E0,3.510270834E0,-1.917847443E1,1.282552958E0
9.497019378E0,2.727817774E0,-2.109751701E1,1.406979680E0
9.501774326E0,1.746760488E0,-2.283470726E1,1.636690736E0
9.506529326E0,2.991028428E-1,-2.461018181E1,1.756331801E0
9.511284221E0,-1.545763373E0,-2.641436958E1,2.270788670E0
9.516039169E0,-3.337987661E0,-2.791945457E1,2.909672260E0
9.520794169E0,-4.890929699E0,-2.882633400E1,3.256631613E0
9.525549117E0,-6.288337708E0,-2.928814888E1,3.060420275E0
9.530304065E0,-8.078168869E0,-2.929771996E1,1.069591761E0
9.535059013E0,-1.148554897E1,-2.824487877E1,-2.218146563E0
9.539813961E0,-1.449093437E1,-2.645504761E1,-4.907679081E0
9.544568909E0,-1.543609905E1,-2.424886513E1,-7.109076023E0
9.549323857E0,-1.517288876E1,-2.200439644E1,-7.355536938E0
9.554078805E0,-1.449093437E1,-2.013320923E1,-5.941378593E0
9.558833753E0,-1.370848083E1,-1.841994858E1,-3.672982693E0
9.563588701E0,-1.279442310E1,-1.668754578E1,-1.277767301E0
9.568343648E0,-1.167458153E1,-1.506521130E1,2.679961324E-1
9.573098596E0,-1.038245773E1,-1.370608807E1,1.170090318E0
9.577853544E0,-9.434899330E0,-1.244267750E1,1.574477315E0
9.582608492E0,-8.630910873E0,-1.131087303E1,1.856830359E0
9.587363440E0,-7.779066563E0,-1.028913784E1,1.907079697E0
9.592118388E0,-6.987041950E0,-9.241081238E0,1.615155339E0
9.596873336E0,-6.135197163E0,-8.214560509E0,9.978070259E-1
9.601628284E0,-5.223531723E0,-7.295716286E0,1.722832322E-1
9.606383232E0,-4.292723656E0,-6.350551128E0,-6.915257573E-1
9.611138180E0,-3.385843992E0,-5.486742496E0,-1.665404558E0
9.615893128E0,-2.632104874E0,-4.721039295E0,-2.175075769E0
9.620648076E0,-2.072184324E0,-4.149154663E0,-2.632104874E0
9.625403023E0,-1.849651933E0,-3.716053486E0,-2.471785784E0
9.630157971E0,-1.825723648E0,-3.335594654E0,-2.266003132E0
9.634912919E0,-1.890329838E0,-3.163311481E0,-1.818545222E0
9.639667867E0,-1.933400750E0,-3.031706333E0,-1.485942841E0
9.644422815E0,-1.861616015E0,-2.897708178E0,-1.150947690E0
9.649177763E0,-1.820937991E0,-2.890529871E0,-8.733802438E-1
9.653932711E0,-1.574477315E0,-2.935993433E0,-6.532405615E-1
9.658687659E0,-1.275374413E0,-3.043670416E0,-3.732803464E-1
9.663442607E0,-9.332008362E-1,-3.153740168E0,-2.297109663E-1
9.668197555E0,-5.934200287E-1,-3.266202927E0,-2.392822690E-2
9.672952503E0,-2.919243574E-1,-3.361915827E0,4.307080805E-2
9.677707451E0,-1.028913707E-1,-3.402593851E0,1.890329868E-1
9.682462398E0,7.178467698E-3,-3.455235958E0,2.895315289E-1
9.687217346E0,5.982056633E-2,-3.476771355E0,4.091726840E-1
9.691972294E0,5.742774159E-2,-3.491128206E0,5.335994363E-1
9.696727242E0,-1.914258115E-2,-3.452843189E0,6.939185858E-1
9.701482190E0,-9.571290761E-2,-3.369094372E0,7.968099117E-1
9.706237138E0,-2.177468538E-1,-3.275774240E0,9.260223508E-1
9.710992086E0,-4.307080805E-1,-3.129812002E0,9.690931439E-1
9.715747034E0,-6.340979934E-1,-2.998206854E0,1.071984529E0
9.720501982E0,-8.494520187E-1,-2.900100946E0,1.165304661E0
9.725256982E0,-1.107876897E0,-2.847458839E0,1.249053478E0
9.730011878E0,-1.409372568E0,-2.840280533E0,1.316052437E0
9.734766878E0,-1.770688772E0,-2.883351326E0,1.339980721E0
9.739521826E0,-2.139183521E0,-2.955136061E0,1.339980721E0
9.744276721E0,-2.507678032E0,-3.000599623E0,1.282552958E0
9.749031669E0,-2.885744095E0,-3.125026464E0,1.220339537E0
9.753786669E0,-3.254238844E0,-3.206382275E0,1.095912814E0
9.758541565E0,-3.675375462E0,-3.340380430E0,9.571290612E-1
9.763296565E0,-4.139583111E0,-3.409772158E0,6.628118753E-1
9.768051513E0,-4.644468784E0,-3.500699520E0,2.799602449E-1
9.772806461E0,-5.201996326E0,-3.579662561E0,-2.512463629E-1
9.777561409E0,-5.773880959E0,-3.680161238E0,-8.398807645E-1
9.782316357E0,-6.228517532E0,-3.818944931E0,-1.452443361E0
9.787071305E0,-6.675975323E0,-4.003192425E0,-2.033899307E0
9.791826253E0,-7.037291527E0,-4.290330887E0,-2.572284460E0
9.796581201E0,-6.943971157E0,-4.701896667E0,-3.134597778E0
9.801336148E0,-6.211767673E0,-5.285745144E0,-3.672982693E0
9.806091096E0,-5.333601475E0,-6.015556335E0,-4.331008911E0
9.810846044E0,-4.543970108E0,-6.982256413E0,-4.783252239E0
9.815600992E0,-3.945764542E0,-8.092526436E0,-4.898108006E0
9.820355940E0,-3.357130051E0,-9.446864128E0,-4.974678040E0
9.825110888E0,-2.679961443E0,-1.071506023E1,-5.046463013E0
9.829865836E0,-1.631905079E0,-1.149512005E1,-5.249852657E0
