"Time (s)","Acceleration x (m/s^2)","Acceleration y (m/s^2)","Acceleration z (m/s^2)"
4.087555530E-1,-2.789244890E0,5.310638428E0,6.663362503E0
4.137545530E-1,-2.636016130E0,4.352658749E0,7.113472462E0
4.187545530E-1,-2.695871115E0,3.521870613E0,7.474997044E0
4.237545530E-1,-2.877830505E0,2.825158119E0,7.647379398E0
4.287545530E-1,-3.189076662E0,2.291250944E0,7.644985199E0
4.337545530E-1,-3.591302633E0,1.915361404E0,7.486968040E0
4.387545530E-1,-3.952826977E0,1.683123827E0,7.223605633E0
4.437547190E-1,-4.158728123E0,1.561019540E0,6.907571316E0
4.487548610E-1,-4.127603531E0,1.508347034E0,6.555623531E0
4.537549860E-1,-3.811569214E0,1.400607944E0,6.146214962E0
4.587549860E-1,-3.423708439E0,1.223437071E0,5.751171589E0
4.637549860E-1,-2.992752075E0,9.504981041E-1,5.339369297E0
4.687549860E-1,-2.509123325E0,6.153098345E-1,4.906018734E0
4.737550690E-1,-2.044648170E0,2.825157940E-1,4.505887508E0
4.787551450E-1,-1.663970232E0,-4.309562966E-2,4.096478939E0
4.837552160E-1,-1.369483352E0,-4.189853072E-1,3.684676409E0
4.887552160E-1,-1.170764685E0,-9.576807022E-1,3.308786631E0
4.937552160E-1,-1.043871999E0,-1.683123827E0,3.002328873E0
4.987552160E-1,-9.576807022E-1,-2.475604534E0,2.738966703E0
5.037552160E-1,-8.762778044E-1,-3.210624456E0,2.494758129E0
5.087552160E-1,-7.900865674E-1,-3.816357613E0,2.226607561E0
5.137552160E-1,-7.086837292E-1,-4.280832767E0,1.915361404E0
5.187552630E-1,-6.416460276E-1,-4.580107689E0,1.666364431E0
5.237553080E-1,-6.368576288E-1,-4.752490520E0,1.505952835E0
5.287553510E-1,-7.613561153E-1,-4.817133904E0,1.407790542E0
5.337553920E-1,-1.043871999E0,-4.829104900E0,1.407790542E0
5.387553920E-1,-1.484405041E0,-4.862623692E0,1.501164436E0
5.437553920E-1,-2.054224968E0,-4.963479519E0,1.683123827E0
5.487553920E-1,-2.736572504E0,-5.181351662E0,1.941697598E0
5.537554270E-1,-3.505111217E0,-5.478232861E0,2.264914751E0
5.587554610E-1,-4.359841347E0,-5.832574844E0,2.657563925E0
5.637554940E-1,-5.305850029E0,-6.218040943E0,3.172317266E0
5.687554940E-1,-6.218040943E0,-6.610690117E0,3.737348795E0
5.737554940E-1,-7.065588474E0,-6.981791496E0,4.328716755E0
5.787547270E-1,-7.915530205E0,-7.249941826E0,5.095160484E0
5.837547270E-1,-8.830115318E0,-7.307403088E0,6.663362503E0
5.887547270E-1,-9.541193008E0,-7.398382664E0,6.972214699E0
5.937546930E-1,-1.023551178E1,-7.297826290E0,7.053617477E0
5.987546930E-1,-1.083406162E1,-7.048829079E0,7.091924667E0
6.037546930E-1,-1.129853725E1,-6.723217487E0,7.032069683E0
6.087547260E-1,-1.160738945E1,-6.347328186E0,6.874052525E0
6.137547260E-1,-1.180131912E1,-5.959467411E0,6.675333500E0
6.187547260E-1,-1.198567295E1,-5.650615215E0,6.531681538E0
6.237546920E-1,-1.219396877E1,-5.435137272E0,6.450278759E0
6.287546250E-1,-1.241662884E1,-5.248389244E0,6.438307762E0
6.337546250E-1,-1.264647293E1,-5.018546104E0,6.510133743E0
6.387546580E-1,-1.285476780E1,-4.771644115E0,6.591536522E0
6.437546580E-1,-1.306785202E1,-4.510675907E0,6.653785706E0
6.487546580E-1,-1.334079075E1,-4.297592163E0,6.660968304E0
6.537546580E-1,-1.374062252E1,-4.170699596E0,6.627449512E0
6.587546580E-1,-1.423382854E1,-4.096478939E0,6.593930721E0
6.637546580E-1,-1.478479385E1,-3.969586372E0,6.596324921E0
6.687546240E-1,-1.531151867E1,-3.763684988E0,6.670545101E0
6.737539240E-1,-1.576641655E1,-3.497928619E0,6.838139534E0
6.787539240E-1,-1.616864204E1,-3.222595453E0,7.087136269E0
6.837535240E-1,-1.652058983E1,-2.978386879E0,7.374440670E0
6.887531570E-1,-1.678634644E1,-2.806004286E0,7.644985199E0
6.937522570E-1,-1.695394135E1,-2.731784105E0,7.898770809E0
6.987515900E-1,-1.703773689E1,-2.734178305E0,8.119037628E0
7.037508900E-1,-1.704252625E1,-2.794033289E0,8.284236908E0
7.087501900E-1,-1.699703598E1,-2.896984100E0,8.341697693E0
7.137494900E-1,-1.693239212E1,-3.004723072E0,8.300996780E0
7.187488230E-1,-1.687732697E1,-3.074155092E0,8.193257332E0
7.237481890E-1,-1.684380722E1,-3.066972494E0,8.068758965E0
7.287489890E-1,-1.682704735E1,-2.978386879E0,7.968202591E0
7.337489890E-1,-1.680071259E1,-2.853888512E0,7.929895401E0
7.387481220E-1,-1.677437592E1,-2.750937700E0,7.975385189E0
7.437481220E-1,-1.678634644E1,-2.662352324E0,8.119037628E0
7.487480880E-1,-1.684620094E1,-2.554613113E0,8.312967300E0
7.537480880E-1,-1.696591187E1,-2.398990154E0,8.643367767E0
7.587480880E-1,-1.706886292E1,-2.243366957E0,9.179668427E0
7.637481210E-1,-1.720533180E1,-2.147598982E0,9.498097420E0
7.687481210E-1,-1.727955246E1,-2.099714994E0,9.962572098E0
7.737481210E-1,-1.676479912E1,-2.114080191E0,1.175104141E1
7.787481540E-1,-1.582627201E1,-2.130839586E0,1.495238781E1
7.837481200E-1,-1.447803688E1,-1.824381709E0,1.757882690E1
7.887480860E-1,-1.325699425E1,-1.340752959E0,1.882141876E1
7.937480860E-1,-1.222988129E1,-7.685387731E-1,1.815104103E1
7.987480860E-1,-1.154514027E1,-3.088520169E-1,1.689408493E1
8.037481190E-1,-1.137994003E1,-4.309562966E-2,1.518941402E1
8.087481520E-1,-1.141824722E1,6.464344263E-2,1.357542324E1
8.137481850E-1,-1.156429386E1,2.394201607E-2,1.219636250E1
8.187481850E-1,-1.167442703E1,-7.900865376E-2,1.115727901E1
8.237488510E-1,-1.165048504E1,-2.968810201E-1,1.032888508E1
8.287488170E-1,-1.137515163E1,-6.368576288E-1,9.675268173E0
8.337492170E-1,-1.092982960E1,-1.015141487E0,9.335291862E0
8.387496170E-1,-1.034803867E1,-1.292868972E0,8.995314598E0
8.437505500E-1,-9.562741280E0,-1.261744261E0,8.437465668E0
8.487512160E-1,-8.729558945E0,-1.158793569E0,7.762300968E0
8.537518820E-1,-8.210017204E0,-8.020575643E-1,6.926724911E0
8.587525480E-1,-7.295432091E0,-6.679822803E-1,5.676951408E0
8.637532140E-1,-7.197269440E0,-3.447650373E-1,4.812345505E0
8.687538800E-1,-7.101501465E0,-2.896983922E-1,3.969586372E0
8.737545130E-1,-7.024887085E0,-4.812345505E-1,3.205836058E0
8.787545130E-1,-7.120655060E0,-5.434837937E-1,2.348711967E0
8.837545460E-1,-6.998550892E0,-1.146822572E0,1.410184860E0
8.887554460E-1,-7.199663639E0,-1.582567334E0,6.009446383E-1
8.937554460E-1,-7.451055050E0,-1.989581585E0,-1.077390760E-1
8.987554460E-1,-7.362469673E0,-2.487575531E0,-5.913678408E-1
9.037554120E-1,-7.271489620E0,-3.019088268E0,-9.361328483E-1
9.087553780E-1,-7.190086842E0,-3.476380825E0,-1.328781962E0
9.137553780E-1,-7.113472462E0,-3.766079187E0,-1.735796213E0
9.187554110E-1,-6.965032101E0,-3.916913986E0,-2.147598982E0
9.237554440E-1,-6.763918877E0,-3.976768970E0,-2.466027737E0
9.287554440E-1,-6.531681538E0,-3.998316765E0,-2.669534922E0
9.337554440E-1,-6.196493149E0,-3.976768970E0,-2.705447912E0
9.387554440E-1,-5.834969044E0,-3.950432777E0,-2.655169725E0
9.437554440E-1,-5.629067421E0,-3.955221176E0,-2.418143749E0
9.487554440E-1,-5.521328449E0,-3.933673382E0,-1.982398987E0
9.537554100E-1,-5.234024048E0,-3.801992416E0,-1.501164436E0
9.587554100E-1,-4.865017891E0,-3.581725836E0,-1.010353088E0
9.637554100E-1,-4.498704910E0,-3.260902643E0,-4.261679053E-1
9.687554430E-1,-4.110844135E0,-2.865859509E0,1.795651317E-1
9.737554430E-1,-3.797203779E0,-2.480392933E0,7.900865674E-1
9.787554430E-1,-3.514688015E0,-2.171540976E0,1.345541358E0
9.837554090E-1,-3.263296843E0,-1.963245392E0,1.853112102E0
9.887554090E-1,-3.050212860E0,-1.841141105E0,2.279279947E0
9.937547420E-1,-2.894589901E0,-1.841141105E0,2.715024710E0
9.987547750E-1,-2.806004286E0,-1.941697598E0,3.047818661E0
1.003754775E0,-2.837129116E0,-2.212242365E0,3.366247654E0
1.008754141E0,-2.906560898E0,-2.688688517E0,3.600879431E0
1.013753474E0,-3.074155092E0,-3.347094059E0,3.703830004E0
1.018753040E0,-3.301604033E0,-4.211400986E0,3.624821424E0
1.023752373E0,-3.596091032E0,-5.435137272E0,3.268085241E0
1.028752339E0,-3.902548790E0,-6.653785706E0,2.820369720E0
1.033752305E0,-4.185064793E0,-7.795820236E0,2.286462545E0
1.038752305E0,-4.496310711E0,-8.758289337E0,1.786074519E0
1.043752338E0,-4.845864296E0,-9.512462616E0,1.228225470E0
1.048752371E0,-5.368099689E0,-1.013734913E1,7.110779285E-1
1.053752371E0,-6.016928196E0,-1.065928555E1,2.920926213E-1
1.058752371E0,-6.692092896E0,-1.114291382E1,-2.394201607E-2
1.063752337E0,-7.290643215E0,-1.157387066E1,-2.896983922E-1
1.068752303E0,-7.788637638E0,-1.188990498E1,-5.099649429E-1
1.073752269E0,-8.226776123E0,-1.199764442E1,-6.919242740E-1
1.078752269E0,-8.521263123E0,-1.196412563E1,-8.164227605E-1
1.083752302E0,-8.478167534E0,-1.166485023E1,-8.858546019E-1
1.088752335E0,-8.265083313E0,-1.127220058E1,-9.074024558E-1
1.093752368E0,-7.920318604E0,-1.079575443E1,-8.523358107E-1
1.098752368E0,-7.621043205E0,-1.036958694E1,-7.900865674E-1
1.103752368E0,-7.381623268E0,-9.998485565E0,-7.230489254E-1
1.108752334E0,-7.269095421E0,-9.696816444E0,-6.584054828E-1
1.113752334E0,-7.230788231E0,-9.498097420E0,-6.679822803E-1
1.118752334E0,-7.178115845E0,-9.340080261E0,-6.967126727E-1
1.123752367E0,-6.998550892E0,-9.172486305E0,-6.679822803E-1
1.128752367E0,-6.735188484E0,-8.942642212E0,-6.368576288E-1
1.133752367E0,-6.318597794E0,-8.700828552E0,-5.746083856E-1
1.138752333E0,-5.717652798E0,-8.497321129E0,-4.860229492E-1
1.143752966E0,-5.001786709E0,-8.205228806E0,-4.405331016E-1
1.148752932E0,-4.271255970E0,-7.836521626E0,-3.998316824E-1
1.153752932E0,-3.567360640E0,-7.300220490E0,-3.303998411E-1
1.158753565E0,-2.932897091E0,-6.656179905E0,-2.178723514E-1
1.163754265E0,-2.410961151E0,-5.971438408E0,6.943184882E-2
1.168754731E0,-2.020706177E0,-5.396830082E0,4.932055473E-1
1.173755431E0,-1.685518026E0,-5.016151905E0,1.271321058E0
1.178755431E0,-1.376665950E0,-4.769249916E0,2.061407566E0
1.183755431E0,-1.065419793E0,-4.661510944E0,2.796427488E0
1.188755397E0,-7.852981687E-1,-4.618414879E0,3.308786631E0
1.193755397E0,-5.889736414E-1,-4.635174274E0,3.632004023E0
1.198755397E0,-4.213795066E-1,-4.656722069E0,3.761290789E0
1.203755430E0,-2.729389966E-1,-4.663905144E0,3.734954596E0
1.208755430E0,-1.460463107E-1,-4.632780075E0,3.579331636E0
1.213755430E0,-6.224924326E-2,-4.546588898E0,3.315969467E0
1.218755430E0,-4.788403399E-3,-4.431667328E0,3.019088268E0
1.223755430E0,3.351882473E-2,-4.271255970E0,2.676717520E0
1.228755430E0,7.661445439E-2,-4.122815132E0,2.353500366E0
1.233755396E0,1.508347094E-1,-4.022258759E0,1.970427990E0
1.238755396E0,1.939303428E-1,-4.022258759E0,1.630451322E0
1.243754729E0,2.226607651E-1,-4.182670593E0,1.283292055E0
1.248754095E0,2.585737705E-1,-4.532223701E0,1.029506683E0
1.253754095E0,1.867477298E-1,-5.138256073E0,8.786720037E-1
1.258754095E0,2.394201607E-2,-6.028899193E0,5.817909837E-1
1.263754061E0,-2.705447972E-1,-7.453449249E0,9.576806426E-2
1.268754061E0,-5.554547906E-1,-9.119813919E0,-3.184288144E-1
1.273754061E0,-6.368576288E-1,-1.152119827E1,-7.805097699E-1
1.278754094E0,-3.950432837E-1,-1.415721416E1,-1.321599364E0
1.283754127E0,7.733271718E-1,-1.749742508E1,-2.430114746E0
1.288754127E0,2.889801502E0,-2.097380638E1,-3.787626982E0
1.293754127E0,5.746383190E0,-2.432808113E1,-5.243600845E0
1.298754127E0,9.138967514E0,-2.724212456E1,-6.637026310E0
1.303753460E0,1.262253094E1,-2.943521309E1,-7.654561996E0
1.308753460E0,1.540249825E1,-3.069695854E1,-8.063970566E0
1.313753426E0,1.707365036E1,-3.021332932E1,-4.314351559E0
1.318753426E0,1.771290207E1,-2.886539268E1,-4.788403213E-2
1.323753426E0,1.708562279E1,-2.679919815E1,2.169146776E0
1.328753459E0,1.596513557E1,-2.472342491E1,3.507505417E0
1.333753459E0,1.457859325E1,-2.251088333E1,4.017470360E0
1.338753459E0,1.307264042E1,-2.035849571E1,4.120420933E0
1.343753425E0,1.153316879E1,-1.829948235E1,3.955221176E0
1.348753391E0,1.004397583E1,-1.634342003E1,3.610456228E0
1.353753357E0,8.631396294E0,-1.447324848E1,3.098097086E0
1.358753357E0,7.391200066E0,-1.280927849E1,2.614468336E0
1.363753390E0,6.258742332E0,-1.125304699E1,2.116474390E0
1.368753056E0,5.274725437E0,-9.883563995E0,1.661576033E0
1.373753089E0,4.393360138E0,-8.614637375E0,1.213860273E0
1.378753089E0,3.622427225E0,-7.489362240E0,8.044517636E-1
1.383753089E0,2.947262287E0,-6.500556946E0,4.429273009E-1
1.388753055E0,2.365471363E0,-5.633855820E0,1.460463107E-1
1.393753721E0,1.874659896E0,-4.891354084E0,-8.858546615E-2
1.398754387E0,1.460463047E0,-4.268861771E0,-2.609679997E-1
1.403754420E0,1.127668977E0,-3.751713991E0,-3.663128614E-1
1.408754453E0,8.595184088E-1,-3.344699860E0,-4.357447028E-1
1.413754453E0,6.368576288E-1,-3.078943491E0,-4.477157295E-1
1.418754019E0,4.692635238E-1,-2.920926094E0,-4.381389022E-1
1.423753985E0,3.687070608E-1,-2.906560898E0,-4.141969085E-1
1.428753951E0,3.088520169E-1,-3.009511471E0,-3.663128614E-1
1.433753917E0,2.753331959E-1,-3.258508444E0,-1.987187415E-1
1.438753917E0,3.088520169E-1,-3.658340216E0,1.149216816E-1
1.443753950E0,3.782838583E-1,-4.180276394E0,3.399766386E-1
1.448753983E0,4.644751251E-1,-4.726154327E0,4.716577232E-1
1.453754683E0,6.416460276E-1,-5.396830082E0,4.644751251E-1
1.458754683E0,8.571242094E-1,-6.093542576E0,3.998316824E-1
1.463754683E0,1.187524080E0,-6.943484306E0,2.825157940E-1
1.468754649E0,1.568202138E0,-7.817368031E0,2.011129409E-1
1.473754649E0,2.087743998E0,-8.873210907E0,2.035071403E-1
1.478754649E0,2.674323320E0,-1.001524544E1,3.519476354E-1
1.483754682E0,3.246537447E0,-1.117403889E1,6.560112834E-1
1.488754682E0,3.744531393E0,-1.229691887E1,1.053448796E0
1.493754682E0,4.074931145E0,-1.328572464E1,1.429338455E0
1.498754682E0,4.204218388E0,-1.401835060E1,1.726219416E0
1.503754682E0,3.938461781E0,-1.417397308E1,2.006340981E0
1.508754682E0,3.608062029E0,-1.401595592E1,2.219424963E0
1.513754648E0,3.303998232E0,-1.351317406E1,2.276885748E0
1.518755014E0,3.069366693E0,-1.293377686E1,2.231395960E0
1.523755014E0,2.908955097E0,-1.224424648E1,2.099714994E0
1.528755047E0,2.808398485E0,-1.154514027E1,1.958456993E0
1.533755080E0,2.770091295E0,-1.087955189E1,1.812410712E0
1.538755080E0,2.777273893E0,-1.024987698E1,1.651999116E0
1.543755046E0,2.849100113E0,-9.672874451E0,1.470039845E0
1.548755012E0,2.956839085E0,-9.182063103E0,1.307234168E0
1.553755012E0,3.153163671E0,-8.767866135E0,1.139639974E0
1.558754345E0,3.383007050E0,-8.444648743E0,1.000776291E0
1.563754378E0,3.665522814E0,-8.221987724E0,9.193734527E-1
1.568754778E0,3.938461781E0,-8.087912560E0,8.619126081E-1
1.573754778E0,4.163516521E0,-8.075942039E0,8.020575643E-1
1.578754778E0,4.311957359E0,-8.157344818E0,7.398083210E-1
1.583754778E0,4.345476151E0,-8.291419983E0,6.871358752E-1
1.588754778E0,4.240131378E0,-8.435071945E0,6.607996821E-1
1.593754744E0,3.988739967E0,-8.561964989E0,6.560112834E-1
1.598754744E0,3.701435804E0,-8.655338287E0,6.751648784E-1
1.603754744E0,3.366247654E0,-8.719982147E0,7.206547260E-1
1.608754777E0,3.031059265E0,-8.736741066E0,7.876923680E-1
1.613754777E0,2.612074137E0,-8.674491882E0,8.667010069E-1
1.618754310E0,2.288856745E0,-8.636184692E0,8.882488012E-1
1.623754276E0,2.094926596E0,-8.715193748E0,7.733271718E-1
1.628754276E0,2.035071373E0,-8.861239433E0,6.153098345E-1
1.633754276E0,2.102109194E0,-9.045593262E0,4.836287498E-1
1.638754309E0,2.233790159E0,-9.217975616E0,4.548983276E-1
1.643754309E0,2.375048161E0,-9.344868660E0,4.955997467E-1
1.648754309E0,2.506729126E0,-9.440636635E0,5.315127969E-1
1.653754309E0,2.647987127E0,-9.534010887E0,5.195417404E-1
1.658754309E0,2.753331900E0,-9.610625267E0,4.908113480E-1
1.663754309E0,2.784456491E0,-9.670479774E0,4.692635238E-1
1.668754275E0,2.772485495E0,-9.725546837E0,4.955997467E-1
1.673754241E0,2.724601507E0,-9.756670952E0,5.793967843E-1
1.678754241E0,2.659958124E0,-9.751882553E0,6.895300746E-1
1.683753341E0,2.592920542E0,-9.703998566E0,8.044517636E-1
1.688752474E0,2.523488522E0,-9.596260071E0,9.217676520E-1
1.693751574E0,2.485181332E0,-9.466972351E0,1.007958889E0
1.698750907E0,2.509123325E0,-9.361627579E0,1.058237195E0
1.703750873E0,2.640804529E0,-9.301773071E0,1.060631394E0
1.708751506E0,2.806004286E0,-9.270648003E0,1.053448796E0
1.713751472E0,2.999934673E0,-9.258677483E0,1.039083481E0
1.718750805E0,3.157952070E0,-9.246706009E0,1.012747288E0
1.723750838E0,3.253720045E0,-9.249100685E0,9.864110947E-1
1.728750871E0,3.282450438E0,-9.270648003E0,9.648633003E-1
1.733750504E0,3.232172251E0,-9.313743591E0,9.457096457E-1
1.738749770E0,3.155557871E0,-9.366415977E0,9.265560508E-1
1.743749870E0,3.074155092E0,-9.445425034E0,8.954314590E-1
1.748749836E0,3.019088268E0,-9.534010887E0,8.547300100E-1
1.753749836E0,2.999934673E0,-9.620202065E0,8.068459630E-1
1.758749836E0,2.992752075E0,-9.680056572E0,7.685387731E-1
1.763749869E0,2.983175278E0,-9.670479774E0,7.541735172E-1
1.768750335E0,2.983175278E0,-9.605836868E0,7.422025204E-1
1.773750335E0,2.987963676E0,-9.464578629E0,7.493851185E-1
1.778750301E0,3.021482468E0,-9.294589996E0,7.374141216E-1
1.783750267E0,3.215412855E0,-9.215581894E0,7.158663273E-1
1.788750233E0,3.478775024E0,-9.196428299E0,7.158663273E-1
1.793750233E0,3.804386616E0,-9.217975616E0,7.278373241E-1
1.801544730E0,4.079719543E0,-9.239523888E0,7.086837292E-1
1.806544763E0,4.273650169E0,-9.263465881E0,6.488286853E-1
1.811544796E0,4.359841347E0,-9.285013199E0,5.937620401E-1
1.816544829E0,4.323928356E0,-9.285013199E0,5.482721925E-1
1.821544829E0,4.175487995E0,-9.258677483E0,5.315127969E-1
1.826544829E0,3.940855980E0,-9.227552414E0,5.410895944E-1
1.831544795E0,3.684676409E0,-9.210793495E0,5.506663918E-1
1.836545695E0,3.457227230E0,-9.227552414E0,5.339069963E-1
1.841546595E0,3.270479441E0,-9.251494408E0,5.123591423E-1
1.846547528E0,3.126827478E0,-9.280224800E0,4.764461517E-1
1.851548194E0,3.028665066E0,-9.294589996E0,4.381389022E-1
1.856548194E0,2.997540474E0,-9.294589996E0,4.237737060E-1
1.861548194E0,3.019088268E0,-9.292196274E0,4.572925270E-1
1.866548194E0,3.107673883E0,-9.289801598E0,5.339069963E-1
1.871548860E0,3.272873640E0,-9.292196274E0,6.200982332E-1
1.876548826E0,3.490746021E0,-9.306561470E0,7.038952708E-1
1.881548826E0,3.699041605E0,-9.323320389E0,7.900865674E-1
1.886549226E0,3.900154591E0,-9.361627579E0,8.643068075E-1
1.891549992E0,4.094084740E0,-9.428665161E0,9.169792533E-1
1.896549892E0,3.928884983E0,-9.354445457E0,1.072602391E0
1.901549892E0,3.775655985E0,-9.325715065E0,1.118092179E0
1.906549858E0,3.497928619E0,-9.301773071E0,1.180341482E0
1.911549824E0,3.035847664E0,-9.213187218E0,1.247379065E0
1.916549824E0,2.501940727E0,-9.107842445E0,1.292868972E0
1.921549857E0,2.001552582E0,-9.009679794E0,1.278503656E0
1.926549890E0,1.582567334E0,-8.947430611E0,1.228225470E0
1.931549890E0,1.309628367E0,-8.933065414E0,1.173158884E0
1.936549890E0,1.216254473E0,-8.959402084E0,1.089361787E0
1.941549890E0,1.266532660E0,-9.031228065E0,9.864110947E-1
1.946549890E0,1.572990537E0,-9.196428299E0,8.595184088E-1
1.951549890E0,1.929726601E0,-9.364022255E0,7.541735172E-1
1.956549856E0,2.339135170E0,-9.529222488E0,6.727706790E-1
1.961549856E0,2.674323320E0,-9.634567261E0,6.272808313E-1
1.966549856E0,2.983175278E0,-9.703998566E0,6.105214357E-1
1.971549889E0,3.215412855E0,-9.715970039E0,6.512228847E-1
1.976549889E0,3.292027235E0,-9.646537781E0,7.541735172E-1
1.981549889E0,3.361459255E0,-9.565135002E0,8.643068075E-1
1.986549855E0,3.466804028E0,-9.507674217E0,9.696516991E-1
1.991549855E0,3.610456228E0,-9.478943825E0,1.029506683E0
1.996549855E0,3.782838583E0,-9.447818756E0,1.055842996E0
2.001549888E0,3.952826977E0,-9.428665161E0,1.041477680E0
2.006549888E0,4.029441357E0,-9.375992775E0,1.017535686E0
2.011549888E0,4.036623955E0,-9.289801598E0,9.744400978E-1
2.016549888E0,4.003105164E0,-9.194033623E0,9.026140571E-1
2.021549888E0,3.979163170E0,-9.093477249E0,7.948749661E-1
2.026549888E0,3.924096584E0,-8.988132477E0,6.775590777E-1
2.031549854E0,3.859453201E0,-8.894758224E0,5.674257874E-1
2.036549820E0,3.859453201E0,-8.849268913E0,4.261679053E-1
2.041549820E0,3.957615376E0,-8.849268913E0,2.896983922E-1
2.046549853E0,4.254496574E0,-8.940248489E0,1.221042871E-1
2.051549886E0,4.654327869E0,-9.088688850E0,-5.506663769E-2
2.056549886E0,5.056853294E0,-9.304166794E0,-2.130839527E-1
2.061549886E0,5.435137272E0,-9.579500198E0,-3.615244627E-1
2.066549852E0,5.921160221E0,-1.002961063E1,-5.602431893E-1
2.071549852E0,6.581959724E0,-1.062097836E1,-7.829039693E-1
2.076549852E0,7.127837658E0,-1.115488529E1,-8.379706144E-1
2.081549885E0,7.130231857E0,-1.138233376E1,-7.134721279E-1
2.086549885E0,6.184522152E0,-1.114770222E1,-3.758896589E-1
2.091549885E0,4.975450516E0,-1.070238113E1,-4.070143029E-2
2.096549885E0,3.402160645E0,-9.914688110E0,2.992752194E-1
2.101549885E0,1.874659896E0,-9.026439667E0,6.320692301E-1
2.106549885E0,6.224924326E-1,-8.152556419E0,9.696516991E-1
2.111549851E0,-2.035071403E-1,-7.391200066E0,1.242590666E0
2.116549851E0,-5.913678408E-1,-6.790255070E0,1.412579060E0
2.121549851E0,-5.722141862E-1,-6.395212173E0,1.436521053E0
2.126549884E0,-1.436520964E-1,-6.201281548E0,1.254561663E0
2.131549884E0,4.165911078E-1,-6.107907772E0,9.983820915E-1
2.136549884E0,1.163581967E0,-6.083965778E0,6.177040339E-1
2.141549850E0,1.924938202E0,-6.117484570E0,2.346317619E-1
2.146549816E0,2.734178305E0,-6.285078526E0,-1.723825186E-1
2.151549782E0,3.531447411E0,-6.596324921E0,-5.458779931E-1
2.156549782E0,4.331110954E0,-7.065588474E0,-8.427590132E-1
2.161549782E0,5.145438671E0,-7.759906769E0,-1.034295082E0
2.166549815E0,5.885247231E0,-8.497321129E0,-1.115697980E0
2.171549848E0,6.445490360E0,-9.129390717E0,-1.022324085E0
2.176549881E0,6.735188484E0,-9.601048470E0,-7.469909191E-1
2.181549881E0,6.828562737E0,-9.914688110E0,-4.285621047E-1
2.186549881E0,6.601113319E0,-9.993697166E0,-5.506663769E-2
2.191549847E0,6.246771336E0,-9.919476509E0,2.370259613E-1
2.196549847E0,5.746383190E0,-9.641749382E0,4.046200812E-1
2.201549847E0,5.293879032E0,-9.318531990E0,4.644751251E-1
2.206549880E0,4.927566528E0,-9.043199539E0,4.285621047E-1
2.211549880E0,4.668693542E0,-8.822932243E0,3.064578176E-1
2.216549880E0,4.558559895E0,-8.710405350E0,9.576806426E-2
2.221549846E0,4.505887508E0,-8.672098160E0,-1.316810995E-1
2.226549812E0,4.458003521E0,-8.722375870E0,-3.519476354E-1
2.231549778E0,4.405331135E0,-8.806173325E0,-5.123591423E-1
2.236549778E0,4.323928356E0,-8.937853813E0,-5.458779931E-1
2.241549811E0,4.223371983E0,-9.074323654E0,-4.764461517E-1
2.246549844E0,4.036623955E0,-9.244312286E0,-1.651999205E-1
2.251549877E0,3.806780815E0,-9.428665161E0,3.375824392E-1
2.256549877E0,3.514688015E0,-9.613018990E0,1.000776291E0
2.261549877E0,3.191470861E0,-9.783007622E0,1.747767210E0
2.266549843E0,2.841917515E0,-9.938630104E0,2.442085743E0
2.271549843E0,2.547430515E0,-1.007509995E1,2.944868088E0
2.276549843E0,2.310404539E0,-1.018283939E1,3.153163671E0
2.281549876E0,2.126051188E0,-1.026663589E1,3.186682463E0
2.286549909E0,2.008735180E0,-1.032409668E1,2.992752075E0
2.291549909E0,1.932120800E0,-1.036719227E1,2.691082716E0
2.296549909E0,1.877054095E0,-1.038874054E1,2.312798738E0
2.301549909E0,1.831564307E0,-1.039113426E1,1.893813491E0
2.306549909E0,1.798045516E0,-1.036719227E1,1.458068848E0
2.311549909E0,1.778891921E0,-1.032170296E1,1.029506683E0
2.316549875E0,1.766920805E0,-1.023311710E1,6.200982332E-1
2.321549875E0,1.759738207E0,-1.013734913E1,2.705447972E-1
2.326549875E0,1.738190413E0,-1.001524544E1,-1.436521020E-2
2.331549908E0,1.726219416E0,-9.881169319E0,-2.442085743E-1
2.336549908E0,1.728613615E0,-9.725546837E0,-4.213795066E-1
2.341549908E0,1.752555609E0,-9.569923401E0,-5.578489900E-1
2.346549874E0,1.790862918E0,-9.414299965E0,-6.607996821E-1
2.351549840E0,1.850717902E0,-9.273042679E0,-7.445967197E-1
2.356549806E0,1.924938202E0,-9.155726433E0,-8.068459630E-1
2.361549806E0,2.013523579E0,-9.059958458E0,-8.547300100E-1
2.366549839E0,2.128445387E0,-9.004891396E0,-8.882488012E-1
2.371549872E0,2.250549555E0,-8.978555679E0,-9.121908545E-1
2.376549905E0,2.389413357E0,-8.992920876E0,-9.337386489E-1
2.381549905E0,2.521094322E0,-9.028834343E0,-9.457096457E-1
2.386549905E0,2.669534922E0,-9.103054047E0,-9.576807022E-1
2.391549871E0,2.825158119E0,-9.194033623E0,-9.624691010E-1
2.396549871E0,2.975992680E0,-9.287407875E0,-9.528923035E-1
2.401549871E0,3.129221678E0,-9.380781174E0,-9.385270476E-1
2.406549904E0,3.284844637E0,-9.457395554E0,-9.121908545E-1
2.411549937E0,3.428496838E0,-9.512462616E0,-8.786720037E-1
2.416549937E0,3.572149038E0,-9.534010887E0,-8.331822157E-1
2.421549903E0,3.703830004E0,-9.534010887E0,-7.805097699E-1
2.426549869E0,3.833117008E0,-9.488520622E0,-7.110779285E-1
2.431549835E0,3.952826977E0,-9.433453560E0,-6.344634295E-1
2.436549801E0,4.077325344E0,-9.342473984E0,-5.195417404E-1
2.441549801E0,4.194641590E0,-9.237129211E0,-3.854664862E-1
2.446549834E0,4.316745758E0,-9.115025520E0,-2.298433632E-1
2.451549867E0,4.429273129E0,-8.985737801E0,-5.985504389E-2
2.456549900E0,4.537012100E0,-8.851662636E0,1.077390760E-1
2.461549900E0,4.620809078E0,-8.729558945E0,2.442085743E-1
2.466549900E0,4.680664539E0,-8.621819496E0,3.351882398E-1
2.471549866E0,4.728548527E0,-8.538022995E0,3.902548850E-1
2.476549866E0,4.754884720E0,-8.480561256E0,3.902548850E-1
2.481549866E0,4.759673119E0,-8.447042465E0,3.639186621E-1
2.486549899E0,4.740519524E0,-8.451830864E0,2.944868207E-1
2.491549899E0,4.690241337E0,-8.482955933E0,2.035071403E-1
2.496549899E0,4.608838081E0,-8.542811394E0,1.005564705E-1
2.501549899E0,4.501099110E0,-8.626607895E0,-4.788403399E-3
2.506549899E0,4.362235546E0,-8.736741066E0,-1.077390760E-1
2.511549899E0,4.228160381E0,-8.842085838E0,-2.035071403E-1
2.516549865E0,4.084507942E0,-8.954613686E0,-2.849099934E-1
2.521549865E0,3.955221176E0,-9.064746857E0,-3.543418646E-1
2.526549865E0,3.823540211E0,-9.167697906E0,-4.165911078E-1
2.531549898E0,3.691859007E0,-9.251494408E0,-4.740519226E-1
2.536549931E0,3.567360640E0,-9.325715065E0,-5.339069963E-1
2.541549931E0,3.442862034E0,-9.385569572E0,-5.889736414E-1
2.546549897E0,3.318363667E0,-9.435848236E0,-6.464344859E-1
2.551549863E0,3.201047659E0,-9.471760750E0,-6.991068721E-1
2.556549863E0,3.086126089E0,-9.498097420E0,-7.493851185E-1
2.561549863E0,2.985569477E0,-9.517251015E0,-7.876923680E-1
2.566549896E0,2.896984100E0,-9.531616211E0,-8.188169599E-1
2.571549896E0,2.820369720E0,-9.536404610E0,-8.451532125E-1
2.576549896E0,2.743755102E0,-9.534010887E0,-8.643068075E-1
2.581549896E0,2.676717520E0,-9.522039413E0,-8.714894056E-1
2.586549896E0,2.616862535E0,-9.507674217E0,-8.714894056E-1
2.591549896E0,2.564189911E0,-9.483732224E0,-8.643068075E-1
2.596549862E0,2.523488522E0,-9.457395554E0,-8.523358107E-1
2.601549862E0,2.492363930E0,-9.428665161E0,-8.379706144E-1
2.606549862E0,2.463633537E0,-9.390357971E0,-8.236053586E-1
2.611549895E0,2.439691544E0,-9.349657059E0,-8.116343617E-1
2.616549895E0,2.420537949E0,-9.304166794E0,-7.972691655E-1
2.621549895E0,2.410961151E0,-9.261071205E0,-7.852981687E-1
2.626549861E0,2.418143749E0,-9.237129211E0,-7.781155705E-1
2.631549861E0,2.466027737E0,-9.241917610E0,-7.829039693E-1
2.636549861E0,2.552218914E0,-9.268254280E0,-7.972691655E-1
2.641549894E0,2.657563925E0,-9.304166794E0,-8.164227605E-1
2.646549894E0,2.786850691E0,-9.361627579E0,-8.427590132E-1
2.651549894E0,2.911349297E0,-9.433453560E0,-8.714894056E-1
2.656549894E0,3.059789658E0,-9.514857292E0,-9.002198577E-1
2.661549894E0,3.191470861E0,-9.581894875E0,-9.145850539E-1
2.666549894E0,3.318363667E0,-9.627384186E0,-9.145850539E-1
2.671549860E0,3.418920040E0,-9.646537781E0,-9.074024558E-1
2.676549826E0,3.471592426E0,-9.603442192E0,-8.738836050E-1
2.681549826E0,3.507505417E0,-9.529222488E0,-8.331822157E-1
2.686549159E0,3.526659012E0,-9.426271439E0,-7.924807668E-1
2.691548292E0,3.562572241E0,-9.323320389E0,-7.637503147E-1
2.696547392E0,3.627215624E0,-9.244312286E0,-7.445967197E-1
2.701546492E0,3.708618402E0,-9.186851501E0,-7.302315235E-1
2.706545558E0,3.804386616E0,-9.143755913E0,-7.278373241E-1
2.711546191E0,3.895366192E0,-9.105448723E0,-7.302315235E-1
2.716546191E0,3.943250179E0,-9.019257545E0,-7.206547260E-1
2.721546224E0,3.924096584E0,-8.880393028E0,-7.062895298E-1
2.726546224E0,3.821146011E0,-8.662521362E0,-6.823474765E-1
2.731546224E0,3.687070608E0,-8.418312073E0,-6.631938815E-1
2.736546224E0,3.545812607E0,-8.176498413E0,-6.584054828E-1
2.741546224E0,3.426102638E0,-7.961019993E0,-6.631938815E-1
2.746546224E0,3.344699860E0,-7.795820236E0,-6.799532771E-1
2.751546190E0,3.289633036E0,-7.688080788E0,-6.991068721E-1
2.756546190E0,3.287238836E0,-7.671321392E0,-7.206547260E-1
2.761546623E0,3.313575268E0,-7.714416981E0,-7.445967197E-1
2.766546656E0,3.378218651E0,-7.853281021E0,-7.685387731E-1
2.771546289E0,3.462015629E0,-8.020874977E0,-7.900865674E-1
2.776545389E0,3.545812607E0,-8.236352921E0,-8.068459630E-1
2.781545189E0,3.634398222E0,-8.475772858E0,-8.188169599E-1
2.786544489E0,3.713406801E0,-8.719982147E0,-8.236053586E-1
2.791545022E0,3.785232782E0,-8.964190483E0,-8.188169599E-1
2.796545022E0,3.852270603E0,-9.210793495E0,-8.068459630E-1
2.801545022E0,3.902548790E0,-9.428665161E0,-7.876923680E-1
2.806545055E0,3.924096584E0,-9.622595787E0,-7.541735172E-1
2.811544755E0,3.924096584E0,-9.783007622E0,-7.158663273E-1
2.816544788E0,3.888183594E0,-9.897929192E0,-6.631938815E-1
2.821544788E0,3.835511208E0,-9.976937294E0,-6.009446383E-1
2.826544788E0,3.780444384E0,-1.002482224E1,-5.291185975E-1
2.831544754E0,3.725377798E0,-1.004158115E1,-4.453215301E-1
2.836545420E0,3.667917013E0,-1.002721596E1,-3.399766386E-1
2.841546320E0,3.600879431E0,-9.984120369E0,-1.963245422E-1
2.846547253E0,3.497928619E0,-9.907505989E0,5.746084079E-2
2.851548153E0,3.373430252E0,-9.809343338E0,3.974374831E-1
2.856549053E0,3.193865061E0,-9.677662849E0,9.696516991E-1
2.861548386E0,2.983175278E0,-9.553164482E0,1.659181833E0
2.866548352E0,2.712630510E0,-9.435848236E0,2.497152328E0
2.871548318E0,2.489969730E0,-9.332897186E0,3.095702887E0
2.876548318E0,2.375048161E0,-9.232340813E0,3.210624456E0
2.881548351E0,2.367865562E0,-9.143755913E0,2.870647907E0
2.886548384E0,2.442085743E0,-9.062353134E0,2.178723574E0
2.891548417E0,2.516305923E0,-8.992920876E0,1.482010841E0
2.896548417E0,2.545036316E0,-8.928277016E0,8.499416113E-1
2.901548417E0,2.540247917E0,-8.877999306E0,3.399766386E-1
2.906548383E0,2.504334927E0,-8.849268913E0,-5.985504389E-2
2.911547916E0,2.468421936E0,-8.844480515E0,-3.830722570E-1
2.916547816E0,2.434903145E0,-8.877999306E0,-6.464344859E-1
2.921548216E0,2.410961151E0,-8.935460091E0,-8.547300100E-1
2.926549149E0,2.396595955E0,-9.002497673E0,-1.022324085E0
2.931549315E0,2.403778553E0,-9.081506729E0,-1.154005170E0
2.936549981E0,2.446874142E0,-9.153332710E0,-1.254561663E0
2.941549414E0,2.506729126E0,-9.198822021E0,-1.335964561E0
2.946549414E0,2.604891539E0,-9.220370293E0,-1.400607944E0
2.951549414E0,2.715024710E0,-9.217975616E0,-1.453280449E0
2.956549380E0,2.853888512E0,-9.186851501E0,-1.491587639E0
2.961549713E0,2.983175278E0,-9.138967514E0,-1.517923832E0
2.966549713E0,3.105279684E0,-9.062353134E0,-1.522712231E0
2.971549746E0,3.210624456E0,-8.971372604E0,-1.517923832E0
2.976549746E0,3.299209833E0,-8.870816231E0,-1.508347034E0
2.981549746E0,3.373430252E0,-8.755894661E0,-1.496376038E0
2.986549712E0,3.428496838E0,-8.629002571E0,-1.474828243E0
2.991549712E0,3.476380825E0,-8.511686325E0,-1.448492050E0
2.996549712E0,3.512293816E0,-8.396764755E0,-1.412579060E0
3.001549745E0,3.543418407E0,-8.298602104E0,-1.379060149E0
3.006549745E0,3.581725836E0,-8.221987724E0,-1.343147159E0
3.011549745E0,3.632004023E0,-8.176498413E0,-1.314416766E0
3.016549745E0,3.691859007E0,-8.166921616E0,-1.290474772E0
3.021549745E0,3.763684988E0,-8.200440407E0,-1.273715258E0
3.026549745E0,3.837905407E0,-8.269871712E0,-1.256955862E0
3.031549711E0,3.914519787E0,-8.370428085E0,-1.242590666E0
3.036549677E0,3.988739967E0,-8.499714851E0,-1.233013868E0
3.041549677E0,4.046200752E0,-8.626607895E0,-1.223437071E0
3.046549710E0,4.079719543E0,-8.763077736E0,-1.201889277E0
3.051549743E0,4.103661537E0,-8.889969826E0,-1.173158884E0
3.056549743E0,4.129997730E0,-9.002497673E0,-1.144428372E0
3.061549743E0,4.146757126E0,-9.088688850E0,-1.115697980E0
3.066549809E0,4.139574528E0,-9.150938034E0,-1.091755986E0
3.071549775E0,4.115632534E0,-9.191639900E0,-1.072602391E0
3.076549741E0,4.067748547E0,-9.203610420E0,-1.055842996E0
3.081549741E0,4.007893562E0,-9.201216698E0,-1.031900883E0
3.086549774E0,3.926490784E0,-9.179668427E0,-1.007958889E0
3.091549807E0,3.845088005E0,-9.155726433E0,-9.864110947E-1
3.096549840E0,3.734954596E0,-9.124602318E0,-9.696516991E-1
3.101549840E0,3.622427225E0,-9.107842445E0,-9.504981041E-1
3.106549840E0,3.500322819E0,-9.100660324E0,-9.457096457E-1
3.111549806E0,3.371036053E0,-9.105448723E0,-9.457096457E-1
3.116549806E0,3.241749048E0,-9.124602318E0,-9.504981041E-1
3.121549806E0,3.114856482E0,-9.155726433E0,-9.696516991E-1
3.126549839E0,2.980781078E0,-9.196428299E0,-9.983820915E-1
3.131549839E0,2.858676910E0,-9.246706009E0,-1.034295082E0
3.136549439E0,2.729389906E0,-9.313743591E0,-1.074996591E0
3.141511959E0,2.621650934E0,-9.378387451E0,-1.115697980E0
3.146511925E0,2.513911724E0,-9.440636635E0,-1.163581967E0
3.151511891E0,2.425326347E0,-9.495702744E0,-1.206677675E0
3.156511891E0,2.334346771E0,-9.545981407E0,-1.244984865E0
3.161511891E0,2.248155355E0,-9.589076996E0,-1.268926859E0
3.166511924E0,2.166752577E0,-9.620202065E0,-1.280897856E0
3.171511957E0,2.097320795E0,-9.644144058E0,-1.288080573E0
3.176511990E0,2.032677174E0,-9.668086052E0,-1.290474772E0
3.181511990E0,1.975216389E0,-9.684844971E0,-1.288080573E0
3.186511990E0,1.917755604E0,-9.694421768E0,-1.283292055E0
3.191511956E0,1.867477298E0,-9.701604843E0,-1.276109457E0
3.196511956E0,1.821987510E0,-9.701604843E0,-1.264138460E0
3.201511956E0,1.754949808E0,-9.711181641E0,-1.249773264E0
3.206511989E0,1.656787634E0,-9.715970039E0,-1.292868972E0
3.211511989E0,1.558625340E0,-9.723152161E0,-1.357512355E0
3.216511989E0,1.462857246E0,-9.718363762E0,-1.414973259E0
3.221511989E0,1.357512355E0,-9.708786964E0,-1.465251446E0
3.226511989E0,1.254561663E0,-9.692028046E0,-1.513135433E0
3.231511989E0,1.168370485E0,-9.670479774E0,-1.568202138E0
3.236511955E0,1.086967587E0,-9.644144058E0,-1.625662923E0
3.241511955E0,1.012747288E0,-9.620202065E0,-1.680729628E0
3.246511955E0,9.768342972E-1,-9.581894875E0,-1.714248419E0
3.251511988E0,9.720458984E-1,-9.531616211E0,-1.714248419E0
3.256511988E0,9.935936928E-1,-9.478943825E0,-1.707065821E0
3.261511988E0,1.027112484E0,-9.435848236E0,-1.695094824E0
3.266511954E0,1.070208192E0,-9.407117844E0,-1.666364431E0
3.271511954E0,1.115697980E0,-9.383175850E0,-1.635239720E0
3.276511954E0,1.158793569E0,-9.361627579E0,-1.589749932E0
3.281511987E0,1.192312479E0,-9.344868660E0,-1.553836942E0
3.286512420E0,1.223437071E0,-9.325715065E0,-1.537077546E0
3.291512420E0,1.259350061E0,-9.311349869E0,-1.541865945E0
3.296512420E0,1.283292055E0,-9.308955193E0,-1.568202138E0
3.301512420E0,1.292868972E0,-9.304166794E0,-1.596932530E0
3.306512420E0,1.297657371E0,-9.306561470E0,-1.608903527E0
3.311512420E0,1.292868972E0,-9.325715065E0,-1.589749932E0
3.316512386E0,1.283292055E0,-9.354445457E0,-1.556231141E0
3.321512386E0,1.271321058E0,-9.395146370E0,-1.517923832E0
3.326512386E0,1.259350061E0,-9.457395554E0,-1.486799240E0
3.331512419E0,1.264138460E0,-9.522039413E0,-1.470039845E0
3.336512419E0,1.292868972E0,-9.615413666E0,-1.450886250E0
3.341512419E0,1.350329757E0,-9.718363762E0,-1.422155857E0
3.346512385E0,1.486799240E0,-9.847650528E0,-1.323993564E0
3.351512351E0,1.738190413E0,-9.969755173E0,-9.289502501E-1
3.356512317E0,2.252943754E0,-1.006552315E1,2.585737705E-1
3.361512317E0,2.899378300E0,-1.011340714E1,1.872265697E0
3.366512350E0,3.572149038E0,-1.007988834E1,3.289633036E0
3.371512383E0,4.122815132E0,-9.998485565E0,4.244919777E0
3.376512416E0,4.479551315E0,-9.895534515E0,4.544194698E0
3.381512416E0,4.685452938E0,-9.814131737E0,4.458003521E0
3.386512416E0,4.704606533E0,-9.754277229E0,3.900154591E0
3.391512382E0,4.632780075E0,-9.699210167E0,3.239354849E0
3.396512382E0,4.448426723E0,-9.615413666E0,2.533065319E0
3.401512382E0,4.209006786E0,-9.522039413E0,1.898601890E0
3.406512415E0,3.957615376E0,-9.423876762E0,1.419761658E0
3.411512448E0,3.679888010E0,-9.323320389E0,1.046266198E0
3.416512448E0,3.452438831E0,-9.275436401E0,8.714894056E-1
3.421512414E0,3.287238836E0,-9.280224800E0,7.876923680E-1
3.426512380E0,3.239354849E0,-9.387964249E0,7.422025204E-1
3.431512346E0,3.246537447E0,-9.550769806E0,6.631938815E-1
3.436512312E0,3.327940464E0,-9.804554939E0,4.740519226E-1
3.441512312E0,3.430891037E0,-1.007988834E1,2.418143749E-1
3.446512345E0,3.562572241E0,-1.040549946E1,-9.576806799E-3
3.451512378E0,3.718195200E0,-1.073589993E1,-1.628057212E-1
3.456512411E0,3.876212597E0,-1.104714584E1,-1.484405100E-1
3.461512411E0,4.024652958E0,-1.130811405E1,6.224924326E-2
3.466512411E0,4.173093796E0,-1.149965000E1,4.955997467E-1
3.471512377E0,4.307168961E0,-1.161935997E1,9.648633003E-1
3.476512377E0,4.434061527E0,-1.163372517E1,1.489193439E0
3.481512377E0,4.551377296E0,-1.159541798E1,1.970427990E0
3.486512410E0,4.630385876E0,-1.147810268E1,2.444479942E0
3.491512410E0,4.642356873E0,-1.133205605E1,2.892195702E0
3.496512410E0,4.582501888E0,-1.117403889E1,3.311181068E0
3.501512410E0,4.462791920E0,-1.100405025E1,3.660734415E0
3.506512410E0,4.311957359E0,-1.083645630E1,3.921702385E0
3.511512410E0,4.158728123E0,-1.068801594E1,4.101267338E0
3.516512376E0,4.019864559E0,-1.054196930E1,4.237737179E0
3.521512376E0,3.912125587E0,-1.041268253E1,4.359841347E0
3.526512376E0,3.854664803E0,-1.028100109E1,4.539406300E0
3.531512409E0,3.833117008E0,-1.015410900E1,4.764461517E0
3.536512442E0,3.869029999E0,-1.003679276E1,5.166986465E0
3.541512442E0,3.931279182E0,-9.945813179E0,5.739200592E0
3.546512408E0,4.010287762E0,-9.897929192E0,6.502951145E0
3.551512374E0,4.091690540E0,-9.921871185E0,7.515698433E0
3.556512374E0,4.180276394E0,-1.003918743E1,8.700828552E0
3.561512374E0,4.254496574E0,-1.025705910E1,9.871592522E0
3.566512407E0,4.290409565E0,-1.062576675E1,1.085800362E1
3.571512407E0,4.319139957E0,-1.102081013E1,1.137036324E1
3.576512407E0,4.369418144E0,-1.144937134E1,1.082687950E1
3.581512407E0,4.467580318E0,-1.180371380E1,9.641749382E0
3.586512407E0,4.663905144E0,-1.205271053E1,7.498939037E0
3.591512407E0,4.869806290E0,-1.224424648E1,5.111919880E0
3.596512373E0,5.037699699E0,-1.242620564E1,2.829946518E0
3.601512373E0,5.097554684E0,-1.264886665E1,8.786720037E-1
3.606512373E0,5.028122902E0,-1.295771885E1,-4.812345505E-1
3.611512406E0,4.925172329E0,-1.330966663E1,-1.335964561E0
3.616512406E0,4.841075897E0,-1.386990929E1,-1.592144132E0
3.621512406E0,4.771644115E0,-1.452592087E1,-1.592144132E0
3.626512372E0,4.750096321E0,-1.537855625E1,-1.321599364E0
3.631512372E0,4.704606533E0,-1.619976807E1,-1.003170490E0
3.636512372E0,4.659116745E0,-1.704252625E1,-6.536170840E-1
3.641512405E0,4.611232281E0,-1.783500671E1,-1.675941199E-1
3.646512405E0,4.537012100E0,-1.864424706E1,6.344634295E-1
3.651512405E0,4.436455727E0,-1.948940086E1,1.833958507E0
3.656512405E0,4.426878929E0,-2.042313957E1,3.392583847E0
3.661512405E0,4.560954094E0,-2.132335854E1,4.788403511E0
3.666512405E0,5.049670696E0,-2.228104019E1,5.696105003E0
3.671512371E0,5.700893402E0,-2.321477890E1,6.110301971E0
3.676512337E0,6.589142323E0,-2.421315956E1,5.818209171E0
3.681512337E0,7.470208645E0,-2.512086296E1,5.087977886E0
3.686511670E0,8.152556419E0,-2.602586937E1,4.141968727E0
3.691511036E0,8.466196060E0,-2.681835175E1,3.186682463E0
3.696510136E0,8.439860344E0,-2.745999718E1,2.370259762E0
3.701509236E0,8.018480301E0,-2.798432732E1,1.723825216E0
3.706508536E0,7.058405876E0,-2.827642059E1,1.587355733E0
3.711507869E0,6.048052788E0,-2.830036163E1,1.683123827E0
3.716507202E0,4.850652695E0,-2.796038437E1,1.948880196E0
3.721506335E0,3.780444384E0,-2.740253639E1,2.106897593E0
3.726505435E0,3.007117271E0,-2.643527794E1,2.152387381E0
3.731504535E0,2.470816135E0,-2.544407845E1,2.145204782E0
3.736503868E0,2.166752577E0,-2.435441780E1,2.051830769E0
3.741502968E0,2.006340981E0,-2.323153687E1,1.824381709E0
3.746502868E0,1.953668594E0,-2.210147476E1,1.446097851E0
3.751502834E0,1.982398987E0,-2.095465088E1,8.714894056E-1
3.756502700E0,2.181117773E0,-1.972163773E1,5.985504389E-2
3.761502700E0,2.477998734E0,-1.851496124E1,-7.517793179E-1
3.766502733E0,2.908955097E0,-1.715984154E1,-1.568202138E0
3.771501833E0,3.356670856E0,-1.584063721E1,-2.236184359E0
3.776501833E0,3.799597979E0,-1.442057610E1,-2.700659513E0
3.781501799E0,4.230554581E0,-1.308461189E1,-3.052607059E0
3.786501765E0,4.484339714E0,-1.173428154E1,-3.162740469E0
3.791501731E0,4.608838081E0,-1.045577812E1,-3.234566450E0
3.796501731E0,4.649539471E0,-9.268254280E0,-3.366247654E0
3.801502064E0,4.637568474E0,-8.140584946E0,-3.509899616E0
3.806502097E0,4.556165695E0,-7.096713066E0,-3.742137194E0
3.811502130E0,4.446032524E0,-6.174945354E0,-4.005499363E0
3.816502163E0,4.278438568E0,-5.332186222E0,-4.213795185E0
3.821502163E0,4.086902142E0,-4.608838081E0,-4.374206543E0
3.826502163E0,3.821146011E0,-3.914519787E0,-4.510675907E0
3.831502129E0,3.521870613E0,-3.299209833E0,-4.616020679E0
3.836502795E0,3.201047659E0,-2.746149302E0,-4.683058739E0
3.841503461E0,2.851494312E0,-2.257732153E0,-4.709394932E0
3.846504394E0,2.470816135E0,-1.831564307E0,-4.709394932E0
3.851505294E0,2.126051188E0,-1.472434044E0,-4.714183331E0
3.856505960E0,1.829170108E0,-1.137245774E0,-4.721365929E0
3.861506593E0,1.570596337E0,-8.427590132E-1,-4.702212334E0
3.866507226E0,1.319205165E0,-5.410895944E-1,-4.601655483E0
3.871508092E0,1.094150186E0,-2.609679997E-1,-4.458003521E0
3.876508992E0,8.451532125E-1,7.182605099E-3,-4.273650169E0
3.881509925E0,6.033388376E-1,2.466027737E-1,-4.084507942E0
3.886510625E0,3.782838583E-1,4.548983276E-1,-3.892971992E0
3.891510891E0,1.675941199E-1,6.416460276E-1,-3.691859007E0
3.896510991E0,-3.112462163E-2,8.283938169E-1,-3.457227230E0
3.901510991E0,-2.059013397E-1,9.888052940E-1,-3.232172251E0
3.906511091E0,-3.687070608E-1,1.144428372E0,-3.031059265E0
3.911511057E0,-5.075707436E-1,1.290474772E0,-2.856282711E0
3.916511057E0,-6.823474765E-1,1.443703651E0,-2.700659513E0
3.921511990E0,-8.619126081E-1,1.642422318E0,-2.552218914E0
3.926512023E0,-1.027112484E0,2.015917778E0,-2.430114746E0
3.931512023E0,-1.228225470E0,2.619256735E0,-2.413355350E0
3.936512023E0,-1.479616642E0,3.327940464E0,-2.415749550E0
3.941512023E0,-1.795651317E0,4.072536945E0,-2.449268341E0
3.946512023E0,-2.097320795E0,4.850652695E0,-2.480392933E0
3.951511689E0,-2.279279947E0,5.456685066E0,-2.432508945E0
3.956511655E0,-2.317587137E0,5.791872978E0,-2.080561161E0
3.961511655E0,-2.391807556E0,6.196493149E0,-1.221042871E-1
3.966511655E0,-2.590526342E0,6.433519363E0,7.695263386E0
3.971511688E0,-2.487575531E0,6.196493149E0,1.218918037E1
3.976511688E0,-2.420537949E0,5.624279022E0,1.403271580E1
3.981511688E0,-2.439691544E0,4.908412933E0,1.419073296E1
3.986511654E0,-2.346317768E0,4.280832767E0,1.298884392E1
3.991511654E0,-1.989581585E0,3.871424198E0,1.082448483E1
3.996511654E0,-1.517923832E0,3.545812607E0,8.413523674E0
4.001511687E0,-1.137245774E0,3.217807055E0,6.474220753E0
4.006511687E0,-8.762778044E-1,2.815581083E0,4.850652695E0
4.011511687E0,-7.158663273E-1,2.430114746E0,3.464409828E0
4.016511687E0,-6.344634295E-1,2.047042370E0,2.252943754E0
4.021511687E0,-5.027823448E-1,1.663970232E0,1.177947283E0
4.026511687E0,-3.064578176E-1,1.304839969E0,2.059013397E-1
4.031511653E0,-2.394201607E-2,9.600749016E-1,-6.703764796E-1
4.036511619E0,4.046200812E-1,6.057330370E-1,-1.572990537E0
4.041512285E0,8.236053586E-1,2.298433632E-1,-2.501940727E0
4.046512318E0,1.323993564E0,-2.226607651E-1,-3.615244627E0
4.051512951E0,1.884236693E0,-7.230489254E-1,-4.769249916E0
4.056512951E0,2.640804529E0,-1.446097851E0,-6.186916351E0
4.061512951E0,3.447650433E0,-2.284068346E0,-7.668927193E0
4.066512917E0,4.508281708E0,-3.567360640E0,-9.373599052E0
4.071512917E0,5.700893402E0,-5.109525681E0,-1.111657810E1
4.076512917E0,7.070376873E0,-6.845322132E0,-1.283800888E1
4.081512550E0,8.617031097E0,-8.789413452E0,-1.446606636E1
4.086512550E0,1.053957558E1,-1.097292614E1,-1.594598198E1
4.091512550E0,1.247887897E1,-1.307982349E1,-1.715266037E1
4.096512550E0,1.448282528E1,-1.541446877E1,-1.802654266E1
4.101512550E0,1.627638245E1,-1.763868332E1,-1.859636307E1
4.106512550E0,1.789246750E1,-2.007119179E1,-1.868973732E1
4.111512516E0,1.928589249E1,-2.241511536E1,-1.847665215E1
4.116512516E0,2.046384048E1,-2.484792328E1,-1.787810326E1
4.121512516E0,2.138560867E1,-2.706734848E1,-1.707365036E1
4.126512549E0,2.210865784E1,-2.901383400E1,-1.609681702E1
4.131512549E0,2.255637360E1,-3.065625572E1,-1.503139687E1
4.136512549E0,2.257313156E1,-3.207122803E1,-1.395849514E1
4.141512515E0,2.238638496E1,-3.318932343E1,-1.292898846E1
4.146512481E0,2.214217567E1,-3.404883957E1,-1.180850220E1
4.151512447E0,2.193148613E1,-3.475782394E1,-1.083885002E1
4.156512447E0,2.161305809E1,-3.540186310E1,-1.004636955E1
4.161512447E0,2.121322632E1,-3.591182709E1,-9.244312286E0
4.166512480E0,2.072480774E1,-3.627335358E1,-8.267477989E0
4.171512513E0,1.969530106E1,-3.751833725E1,-9.002198577E-1
4.176512546E0,1.656608009E1,-3.865558243E1,1.206947041E1
4.181512546E0,1.068083286E1,-3.917991257E1,2.513762093E1
4.186512546E0,6.541258335E0,-3.869149780E1,3.441066360E1
4.191512512E0,4.175487995E0,-3.765480804E1,3.792774582E1
4.196512512E0,3.366247654E0,-3.599562454E1,3.534440231E1
4.201511912E0,2.564189911E0,-3.431010818E1,3.082385063E1
4.206511945E0,1.766920805E0,-3.240402222E1,2.494129753E1
4.211511945E0,8.475474119E-1,-3.047429657E1,1.892197418E1
4.216511945E0,-1.628057212E-1,-2.831712151E1,1.355866337E1
4.221511911E0,-7.685387731E-1,-2.603305244E1,9.476549149E0
4.226511877E0,-1.146822572E0,-2.371755981E1,6.620266914E0
4.231512243E0,-1.297657371E0,-2.152926064E1,4.762067318E0
4.236512243E0,-1.307234168E0,-1.937926674E1,3.785232782E0
4.241512276E0,-1.254561663E0,-1.743038750E1,3.349488258E0
4.246512576E0,-1.180341482E0,-1.545995903E1,3.552995205E0
4.251479276E0,-1.101332784E0,-1.365203762E1,3.971980572E0
4.256445976E0,-9.888052940E-1,-1.191145229E1,4.513070107E0
4.261412642E0,-8.595184088E-1,-1.023790550E1,5.143044472E0
4.266379275E0,-6.727706790E-1,-8.557176590E0,6.251559734E0
4.271345908E0,-3.950432837E-1,-6.739976883E0,8.504503250E0
4.276312574E0,-5.027823523E-2,-4.656722069E0,1.251718616E1
4.281279274E0,2.394201756E-1,-2.731784105E0,1.648467636E1
4.286245974E0,2.537853718E-1,-1.137245774E0,1.930744171E1
4.291212640E0,1.436520964E-1,-3.351882473E-2,2.075114441E1
4.296179306E0,-1.795651317E-1,5.315127969E-1,2.071283722E1
4.301145972E0,-5.123591423E-1,7.685387731E-1,2.003767204E1
4.306112638E0,-6.919242740E-1,7.445967197E-1,1.887648392E1
4.311079304E0,-6.081272364E-1,5.147533417E-1,1.693957520E1
4.316045937E0,-2.466027737E-1,6.224924326E-2,1.380766010E1
4.321012603E0,7.422025502E-2,-4.860229492E-1,1.065689087E1
4.325979269E0,3.830722570E-1,-9.768342972E-1,7.719205379E0
4.330945969E0,6.775590777E-1,-1.352723956E0,5.303455830E0
4.335912635E0,9.720458984E-1,-1.616086125E0,3.210624456E0
4.340879301E0,1.233013868E0,-1.795651317E0,1.493981838E0
4.345845934E0,1.493981838E0,-1.886630893E0,7.661445439E-2
4.350812600E0,1.735796213E0,-1.908178806E0,-1.048660398E0
4.355779266E0,1.977610588E0,-1.874659896E0,-1.934514999E0
4.360745966E0,2.219424963E0,-1.778891921E0,-2.633621931E0
4.365712632E0,2.489969730E0,-1.596932530E0,-3.203441858E0
4.370679298E0,2.746149302E0,-1.393425345E0,-3.639186621E0
4.375645964E0,2.968810081E0,-1.165976286E0,-3.842693806E0
4.380612630E0,3.201047659E0,-9.576807022E-1,-3.866635799E0
4.385579296E0,3.524264812E0,-7.876923680E-1,-3.572149038E0
4.390545929E0,3.995922565E0,-6.751648784E-1,-2.995146275E0
4.395512295E0,4.730942726E0,-7.829039693E-1,-1.407790542E0
4.400512295E0,5.478232861E0,-1.323993564E0,1.268926859E0
4.405512295E0,5.842151642E0,-2.331952572E0,4.819528103E0
4.410512328E0,5.691316605E0,-3.593696833E0,8.502109528E0
4.415512328E0,5.102343082E0,-4.876988888E0,1.185638618E1
4.420512328E0,4.455609322E0,-5.949890614E0,1.414284897E1
4.425512294E0,3.993528366E0,-6.751947880E0,1.439184570E1
4.430512294E0,3.739742994E0,-7.386411667E0,1.363767242E1
4.435512294E0,3.833117008E0,-8.001721382E0,1.212932491E1
4.440512327E0,4.141968727E0,-8.739135742E0,1.071674633E1
4.445512327E0,4.651933670E0,-9.708786964E0,9.617807388E0
4.450512327E0,5.504569054E0,-1.096095467E1,8.832509041E0
4.455512327E0,6.704063892E0,-1.269435692E1,7.984961987E0
4.460512327E0,8.095095634E0,-1.505533886E1,6.900388718E0
4.465512327E0,9.869198799E0,-1.815822411E1,5.784690380E0
4.470511893E0,1.153077507E1,-2.157235527E1,4.651933670E0
4.475511893E0,1.293617153E1,-2.594686127E1,3.100491285E0
4.480511893E0,1.387230396E1,-3.016305161E1,1.544260144E0
4.485511926E0,1.347726059E1,-3.459022903E1,-2.106897533E-1
4.490511926E0,1.200243282E1,-3.857418060E1,-1.841141105E0
4.495511926E0,9.593865395E0,-4.174649811E1,-3.076549292E0
4.500511892E0,6.778284073E0,-4.388212585E1,-3.864241600E0
4.505511858E0,3.988739967E0,-4.507234192E1,-4.347870350E0
4.510511824E0,1.369483352E0,-4.547456741E1,-4.477157116E0
4.515511824E0,-7.805097699E-1,-4.492629623E1,-3.761290789E0
4.520511824E0,-2.360682964E0,-4.383903122E1,-2.597708941E0
4.525511857E0,-3.371036053E0,-4.185184097E1,-9.720458984E-1
4.530511890E0,-3.931279182E0,-3.957735062E1,6.248866320E-1
4.535511923E0,-3.881000996E0,-3.666121292E1,2.047042370E0
4.540511923E0,-3.469198227E0,-3.357718277E1,2.942473888E0
4.545511923E0,-2.786850691E0,-3.042641258E1,3.277662039E0
4.550511889E0,-1.922544003E0,-2.729240227E1,3.112462282E0
4.555511889E0,-9.074024558E-1,-2.423231316E1,2.394201756E0
4.560511889E0,5.506663769E-2,-2.133293533E1,1.529894829E0
4.565511922E0,1.005564690E0,-1.856763268E1,4.429273009E-1
4.570511922E0,1.793257117E0,-1.610400009E1,-6.081272364E-1
4.575511922E0,2.398990154E0,-1.379808331E1,-1.678335428E0
4.580511888E0,2.849100113E0,-1.179653072E1,-2.626439333E0
4.585511854E0,3.112462282E0,-9.967360497E0,-3.457227230E0
4.590511820E0,3.248931646E0,-8.353669167E0,-4.146757126E0
4.595511820E0,3.277662039E0,-6.955455303E0,-4.702212334E0
4.600511853E0,3.220201254E0,-5.743988991E0,-5.123890877E0
4.605511886E0,3.110068083E0,-4.690241337E0,-5.418377876E0
4.610511919E0,2.983175278E0,-3.830722809E0,-5.631461620E0
4.615511919E0,2.837129116E0,-3.098097086E0,-5.741594791E0
4.620512319E0,2.693476915E0,-2.473210335E0,-5.789478779E0
4.625512285E0,2.501940727E0,-1.922544003E0,-5.784690380E0
4.630512251E0,2.291250944E0,-1.434126854E0,-5.727229595E0
4.635512251E0,2.061407566E0,-9.911994934E-1,-5.626673222E0
4.640512284E0,1.833958507E0,-6.129156351E-1,-5.533299446E0
4.645512317E0,1.642422318E0,-2.633621991E-1,-5.459079266E0
4.650512317E0,1.472434044E0,5.746084079E-2,-5.413589478E0
4.655512317E0,1.319205165E0,3.711012602E-1,-5.363311291E0
4.660512317E0,1.185129881E0,6.440402865E-1,-5.310638428E0
4.665512317E0,1.055842996E0,9.097966552E-1,-5.286696434E0
4.670512317E0,9.409212470E-1,1.158793569E0,-5.274725437E0
4.675512283E0,8.355764151E-1,1.414973259E0,-5.284302235E0
4.680512283E0,7.302315235E-1,1.680729628E0,-5.234024048E0
4.685511616E0,6.416460276E-1,1.963245392E0,-5.114314079E0
4.690510982E0,5.650315881E-1,2.250549555E0,-4.982633114E0
4.695510315E0,5.458779931E-1,2.578555346E0,-4.843470097E0
4.700509415E0,5.267243981E-1,2.940079689E0,-4.599261284E0
4.705508481E0,4.213795066E-1,3.406949043E0,-4.280832767E0
4.710507814E0,2.657563984E-1,3.933673382E0,-4.017470360E0
4.715507147E0,1.005564705E-1,4.620809078E0,-3.902548790E0
4.720506513E0,-1.915361360E-2,5.241206646E0,-3.816357613E0
4.725505613E0,-5.027823523E-2,5.545270443E0,-3.564966440E0
4.730504713E0,0.000000000E0,5.538087845E0,-3.201047659E0
4.735504046E0,1.005564705E-1,5.080795288E0,-2.494758129E0
4.740503146E0,7.422025502E-2,4.319139957E0,7.065588474E0
4.745503146E0,-2.121262789E0,3.244143248E0,1.875916862E1
4.750502446E0,-3.519476414E0,2.274491549E0,2.327463341E1
4.755501746E0,-4.268861771E0,1.742978811E0,2.277903366E1
4.760501079E0,-4.481945515E0,1.532289028E0,2.021963120E1
4.765501112E0,-4.029441357E0,1.608903527E0,1.573529243E1
4.770501145E0,-3.509899616E0,1.687912226E0,1.145415974E1
4.775501411E0,-3.126827478E0,1.635239720E0,6.874052525E0
4.780501411E0,-2.966415882E0,1.393425345E0,2.923320293E0
4.785501377E0,-2.602497339E0,1.015141487E0,5.506663918E-1
4.790501343E0,-2.214636564E0,5.770025849E-1,-1.201889277E0
4.795500909E0,-1.709460020E0,1.221042871E-1,-2.786850691E0
4.800500909E0,-1.177947283E0,-3.758896589E-1,-4.307168961E0
4.805500942E0,-5.410895944E-1,-1.003170490E0,-5.892429829E0
4.810500975E0,3.830722719E-2,-1.606509328E0,-7.242759228E0
4.815501008E0,6.703764796E-1,-2.248155355E0,-8.415918350E0
4.820501008E0,1.266532660E0,-2.837129116E0,-9.311349869E0
4.825501008E0,1.924938202E0,-3.507505417E0,-1.000327396E1
4.830500974E0,2.640804529E0,-4.276044369E0,-1.067365074E1
4.835501640E0,3.418920040E0,-5.152621269E0,-1.141585255E1
4.840502306E0,4.211400986E0,-6.158185959E0,-1.226818848E1
4.845503006E0,5.064035892E0,-7.266701221E0,-1.315883160E1
4.850503906E0,5.911583424E0,-8.300996780E0,-1.391300488E1
4.855504806E0,6.828562737E0,-9.356839180E0,-1.439902782E1
4.860505439E0,7.666532993E0,-1.032888508E1,-1.465520763E1
4.865506072E0,8.482955933E0,-1.129374886E1,-1.458338165E1
4.870506705E0,9.277831078E0,-1.222509289E1,-1.433199024E1
4.875507605E0,1.007509995E1,-1.333839703E1,-1.397286034E1
4.880508505E0,1.090588760E1,-1.466478443E1,-1.359218216E1
4.885509205E0,1.175582981E1,-1.627159309E1,-1.321868706E1
4.890509471E0,1.257225227E1,-1.828272247E1,-1.288110447E1
4.895509504E0,1.336712742E1,-2.095944023E1,-1.269196224E1
4.900510170E0,1.411172390E1,-2.378220367E1,-1.264647293E1
4.905510836E0,1.489013863E1,-2.724930763E1,-1.288828659E1
4.910511469E0,1.558924580E1,-3.066822815E1,-1.319713879E1
4.915511469E0,1.612075806E1,-3.414221573E1,-1.364246082E1
4.920511469E0,1.635778427E1,-3.715202332E1,-1.391300488E1
4.925511235E0,1.624765205E1,-3.945285416E1,-1.379090118E1
4.930511235E0,1.589809799E1,-4.097317123E1,-1.325699425E1
4.935511235E0,1.533067226E1,-4.166509628E1,-1.217242050E1
4.940511235E0,1.466957283E1,-4.178001785E1,-1.091067600E1
4.945511635E0,1.375019932E1,-4.152862549E1,-9.560346603E0
4.950511635E0,1.279251862E1,-4.119583130E1,-8.387187958E0
4.955511601E0,1.242620564E1,-4.060206985E1,-5.997774601E0
4.960511601E0,1.124107647E1,-3.942651749E1,1.240196466E0
4.965511601E0,9.969755173E0,-3.653432083E1,1.629792976E1
4.970511634E0,9.917082787E0,-3.345507812E1,2.823571777E1
4.975511634E0,9.727940559E0,-3.093398285E1,3.312467957E1
4.980511634E0,8.846874237E0,-2.909284210E1,3.301694107E1
4.985511600E0,7.673715591E0,-2.761801529E1,3.061555481E1
4.990511566E0,6.665756702E0,-2.630120277E1,2.720860672E1
4.995511532E0,5.686528206E0,-2.501791191E1,2.300408936E1
5.000511532E0,4.800374508E0,-2.388754845E1,1.859636307E1
5.005511532E0,3.960009575E0,-2.261862183E1,1.404947472E1
5.010511565E0,3.258508444E0,-2.125392723E1,1.041268253E1
5.015511598E0,2.676717520E0,-1.951813126E1,7.707234383E0
5.020511631E0,2.188300371E0,-1.759798050E1,5.765536785E0
5.025511631E0,1.795651317E0,-1.543362236E1,4.611232281E0
5.030511631E0,1.436521053E0,-1.296250725E1,4.565742493E0
5.035511597E0,9.720458984E-1,-1.037198067E1,6.021716595E0
5.040512263E0,5.195417404E-1,-7.970596790E0,7.970596790E0
5.045512263E0,-4.548983276E-2,-5.736806393E0,1.086997509E1
5.050512296E0,-6.392518282E-1,-3.830722809E0,1.372146893E1
5.055512296E0,-9.696516991E-1,-2.458845139E0,1.541207504E1
5.060512296E0,-1.108515382E0,-1.513135433E0,1.590049171E1
5.065512262E0,-1.012747288E0,-9.385270476E-1,1.519659710E1
5.070512228E0,-8.044517636E-1,-5.746083856E-1,1.396567822E1
5.075512194E0,-5.506663918E-1,-3.734954596E-1,1.235916805E1
5.080512194E0,-2.944868207E-1,-2.920926213E-1,1.073111153E1
5.085512227E0,0.000000000E0,-1.843535304E-1,9.514857292E0
5.090512260E0,2.346317619E-1,-1.101332754E-1,8.312967300E0
5.095512293E0,3.591302633E-1,-1.316810995E-1,6.747159481E0
5.100512293E0,4.333505034E-1,-2.130839527E-1,5.092766285E0
5.105512293E0,4.501099288E-1,-3.663128614E-1,3.181894064E0
5.110512259E0,4.620809257E-1,-5.123591423E-1,1.393425345E0
5.115512259E0,5.363011956E-1,-5.961562395E-1,-1.963245422E-1
5.120512259E0,7.110779285E-1,-6.009446383E-1,-1.601720929E0
5.125512292E0,8.858546019E-1,-5.458779931E-1,-2.736572504E0
5.130512325E0,1.036689281E0,-4.812345505E-1,-3.617638826E0
5.135512325E0,1.173158884E0,-3.998316824E-1,-4.235342979E0
5.140512325E0,1.314416766E0,-3.136404157E-1,-4.683058739E0
5.145512325E0,1.460463047E0,-2.178723514E-1,-4.910807133E0
5.150512325E0,1.599326730E0,-1.460463107E-1,-4.949114323E0
5.155512325E0,1.726219416E0,-1.412578970E-1,-4.656722069E0
5.160512291E0,1.800439715E0,-2.226607651E-1,-4.204218388E0
5.165512291E0,1.788468719E0,-3.782838583E-1,-3.699041605E0
5.170512291E0,1.742978811E0,-5.650315881E-1,-3.208230257E0
5.175512324E0,1.697489023E0,-7.924807668E-1,-2.674323320E0
5.180512324E0,1.515529633E0,-1.489193439E0,1.268926859E-1
5.185512324E0,1.271321058E0,-2.868253708E0,5.545270443E0
5.190512290E0,1.089361787E0,-4.266467571E0,9.579500198E0
5.195512290E0,1.132457376E0,-5.748777390E0,1.186117458E1
5.200512290E0,1.343147159E0,-7.163750648E0,1.304869843E1
5.205512323E0,2.001552582E0,-8.698433876E0,1.292420006E1
5.210512323E0,3.047818661E0,-1.034085655E1,1.225621796E1
5.215512323E0,4.431667328E0,-1.223706436E1,1.189948177E1
5.220512323E0,6.057629585E0,-1.463126564E1,1.251239777E1
5.225512323E0,8.162133217E0,-1.778951645E1,1.297687244E1
5.230512323E0,1.030254936E1,-2.189557266E1,1.310137081E1
5.235512289E0,1.244057083E1,-2.703143501E1,1.218918037E1
5.240512289E0,1.424819374E1,-3.211671829E1,1.062576675E1
5.245512289E0,1.557488060E1,-3.751354980E1,7.680898190E0
5.250512322E0,1.631468964E1,-4.224688721E1,4.414907932E0
5.255512355E0,1.555093861E1,-4.579539108E1,7.302315235E-1
5.260512355E0,1.353711605E1,-4.791904831E1,-2.695871115E0
5.265512321E0,1.068322754E1,-4.872349930E1,-5.425560474E0
5.270512287E0,7.340921879E0,-4.835958099E1,-7.233182430E0
5.275512287E0,3.823540211E0,-4.691109085E1,-7.927501202E0
5.280512287E0,6.320692301E-1,-4.509389114E1,-7.941866398E0
5.285512320E0,-2.312798738E0,-4.255573654E1,-6.842927933E0
5.290512320E0,-4.783615112E0,-3.991254044E1,-5.344157696E0
5.295512320E0,-6.625055313E0,-3.681922913E1,-3.536235809E0
5.300512320E0,-7.920318604E0,-3.377590179E1,-2.037465572E0
5.305512320E0,-8.403946877E0,-3.041683578E1,-1.108515382E0
5.310512320E0,-8.274660110E0,-2.706495476E1,-6.344634295E-1
5.315512286E0,-7.728782177E0,-2.384684753E1,-5.123591423E-1
5.320512286E0,-6.943484306E0,-2.083254814E1,-6.200982332E-1
5.325512286E0,-6.016928196E0,-1.794753456E1,-9.074024558E-1
5.330512319E0,-5.097554684E0,-1.538334465E1,-1.261744261E0
5.335512319E0,-4.065354347E0,-1.298405552E1,-1.721431017E0
5.340512319E0,-3.122039080E0,-1.091785908E1,-2.121262789E0
5.345512285E0,-2.221819162E0,-9.071929932E0,-2.418143749E0
5.350512251E0,-1.441309452E0,-7.503727436E0,-2.636016130E0
5.355512217E0,-7.733271718E-1,-6.119878769E0,-2.808398485E0
5.360512217E0,-2.346317619E-1,-4.915595531E0,-2.916137695E0
5.365512250E0,2.035071403E-1,-3.823540211E0,-2.937685490E0
5.370512283E0,5.410895944E-1,-2.899378300E0,-2.947262287E0
5.375512316E0,7.685387731E-1,-2.114080191E0,-2.956839085E0
5.380512349E0,9.217676520E-1,-1.474828243E0,-2.980781078E0
5.385512349E0,9.840168953E-1,-9.289502501E-1,-3.028665066E0
5.390512315E0,1.010353088E0,-4.620809257E-1,-3.110068083E0
5.395512281E0,9.959878922E-1,-2.873042040E-2,-3.258508444E0
5.400512281E0,9.409212470E-1,3.734954596E-1,-3.462015629E0
5.405512281E0,8.547300100E-1,7.110779285E-1,-3.634398222E0
5.410512314E0,7.326257229E-1,9.911994934E-1,-3.866635799E0
5.415511514E0,5.506663918E-1,1.240196466E0,-4.180276394E0
5.420511514E0,3.830722570E-1,1.419761658E0,-4.508281708E0
5.425511480E0,2.226607651E-1,1.491587639E0,-4.757278919E0
5.430511446E0,8.379705995E-2,1.551442742E0,-4.932354927E0
5.435511412E0,-1.197100803E-2,1.649604917E0,-4.965873718E0
5.440511412E0,-3.830722719E-2,1.738190413E0,-4.910807133E0
5.445511445E0,3.112462163E-2,1.788468719E0,-4.805162907E0
5.450511478E0,1.221042871E-1,1.845929503E0,-4.668693542E0
5.455511511E0,1.699883193E-1,1.936909199E0,-4.510675907E0
5.460511511E0,2.178723514E-1,2.145204782E0,-4.400542736E0
5.465511511E0,3.567360640E-1,2.640804529E0,-4.491522312E0
5.470511477E0,5.075707436E-1,3.423708439E0,-4.786009312E0
5.475511477E0,6.679822803E-1,4.496310711E0,-5.090372086E0
5.480511477E0,7.589619160E-1,5.475838661E0,-5.262754440E0
5.485511510E0,7.158663273E-1,6.162974358E0,-5.234024048E0
5.490511510E0,6.224924326E-1,6.531681538E0,-5.107131481E0
5.495511510E0,4.884171486E-1,6.452672958E0,-4.843470097E0
5.500511510E0,3.567360640E-1,6.052841187E0,-4.527435303E0
5.505511510E0,2.513911724E-1,5.346551895E0,-4.228160381E0
5.510511510E0,1.819593310E-1,4.297592163E0,-4.077325344E0
5.515511476E0,-5.051765442E-1,2.398990154E0,-2.439691544E0
5.520511442E0,-1.699883223E0,8.164227605E-1,5.434837937E-1
5.525511442E0,-1.833958507E0,1.268926859E-1,8.930372596E-1
5.530511442E0,-1.771709204E0,-2.035071403E-1,9.193734527E-1
5.535511475E0,-1.637633920E0,-3.088520169E-1,7.948749661E-1
5.540511475E0,-1.515529633E0,-3.375824392E-1,6.368576288E-1
5.545511475E0,-1.417367458E0,-2.849099934E-1,5.123591423E-1
5.550511441E0,-1.345541358E0,-2.178723514E-1,4.429273009E-1
5.555511441E0,-1.328781962E0,-1.915361285E-1,3.758896589E-1
5.560511441E0,-1.352723956E0,-1.771709323E-1,3.016694188E-1
5.565512274E0,-1.362300754E0,-1.508347094E-1,2.466027737E-1
5.570512274E0,-1.333570361E0,-1.221042871E-1,1.651999205E-1
5.575512274E0,-1.235408068E0,-6.703764945E-2,-8.140286058E-2
5.580512274E0,-1.067813993E0,-3.591302410E-2,-4.453215301E-1
5.585512274E0,-8.906430602E-1,-7.182604820E-2,-7.086837292E-1
5.590512274E0,-7.374141216E-1,-1.173158810E-1,-1.017535686E0
5.595512240E0,-5.650315881E-1,-2.274491638E-1,-1.398213744E0
5.600512240E0,-4.261679053E-1,-4.094084799E-1,-1.692700624E0
5.605512240E0,-3.303998411E-1,-6.751648784E-1,-1.826775908E0
5.610512273E0,-1.987187415E-1,-1.012747288E0,-2.030282974E0
5.615512273E0,1.484405100E-1,-1.673547029E0,-2.868253708E0
5.620512273E0,5.722141862E-1,-2.499546528E0,-3.940855980E0
5.625512239E0,1.043871999E0,-3.871424198E0,-5.265148640E0
5.630512205E0,1.391031146E0,-5.569212437E0,-6.457461357E0
5.635512205E0,1.666364431E0,-8.478167534E0,-7.680898190E0
5.640512238E0,2.272097349E0,-1.318995667E1,-9.134179115E0
5.645512271E0,3.555389643E0,-1.922603798E1,-1.075984192E1
5.650512271E0,4.838681698E0,-2.613839722E1,-1.227776527E1
5.655512271E0,6.246771336E0,-3.353169250E1,-1.369273853E1
5.660512271E0,7.743147373E0,-4.076008606E1,-1.507928085E1
5.665512271E0,8.897152901E0,-4.759583282E1,-1.674085617E1
5.670512271E0,9.569923401E0,-5.319586945E1,-1.806006241E1
5.675512237E0,9.222764015E0,-5.727828217E1,-1.903450203E1
5.680512237E0,8.305785179E0,-5.992148209E1,-1.929546928E1
5.685511570E0,6.751947880E0,-6.057030869E1,-1.822765541E1
5.690510936E0,5.119102478E0,-5.951207352E1,-1.637454414E1
5.695510269E0,3.521870613E0,-5.723040009E1,-1.427692413E1
5.700509369E0,2.130839586E0,-5.423285675E1,-1.225621796E1
5.705508669E0,1.003170490E0,-5.086631012E1,-1.034803867E1
5.710508635E0,1.412578970E-1,-4.736598969E1,-8.617031097E0
5.715507935E0,-4.979939461E-1,-4.256052780E1,-1.010861874E1
5.720507268E0,-6.584054828E-1,-3.864600754E1,-1.131050777E1
5.725506401E0,1.762132406E0,-3.620392227E1,-9.409212470E-1
5.730505534E0,8.885181427E0,-3.228191757E1,1.395849514E1
5.735504667E0,1.319953346E1,-2.855893517E1,2.682074547E1
5.740503767E0,1.469830322E1,-2.589897728E1,3.522229767E1
5.745503767E0,1.471296787E1,-2.388036537E1,3.735074234E1
5.750503067E0,1.359218216E1,-2.213499260E1,3.516962433E1
5.755502367E0,1.163372517E1,-2.077269173E1,3.016305161E1
5.760501700E0,9.428665161E0,-1.959713936E1,2.422273636E1
5.765501733E0,7.486968040E0,-1.827075195E1,1.915660667E1
5.770501766E0,5.902006626E0,-1.686775017E1,1.512477112E1
5.775501099E0,4.642356873E0,-1.479676533E1,1.233043766E1
5.780501099E0,3.550601006E0,-1.251000309E1,1.064731407E1
5.785501165E0,2.540247917E0,-1.009425354E1,1.070716953E1
5.790501131E0,1.553836942E0,-8.040028572E0,1.214608479E1
5.795501097E0,6.033388376E-1,-6.332962990E0,1.459056473E1
5.800501097E0,-1.628057212E-1,-5.001786709E0,1.674085617E1
5.805501130E0,-5.195417404E-1,-4.113238335E0,1.712632370E1
5.810501163E0,-6.200982332E-1,-3.509899616E0,1.639848518E1
5.815501196E0,-5.746083856E-1,-3.086126089E0,1.460971832E1
5.820501196E0,-4.908113480E-1,-2.736572504E0,1.272069263E1
5.825501196E0,-3.519476354E-1,-2.427720547E0,1.070956326E1
5.830501162E0,-2.106897533E-1,-2.147598982E0,8.858845711E0
5.835501828E0,-4.548983276E-2,-1.891419291E0,7.202057838E0
5.840502494E0,1.077390760E-1,-1.644816518E0,5.669768810E0
5.845503194E0,2.346317619E-1,-1.410184860E0,4.220977783E0
5.850504094E0,3.543418646E-1,-1.199495077E0,2.952050686E0
5.855504760E0,4.596867263E-1,-1.012747288E0,1.867477298E0
5.860504760E0,5.410895944E-1,-8.523358107E-1,9.648633003E-1
5.865505426E0,5.889736414E-1,-7.110779285E-1,2.298433632E-1
5.870506092E0,6.177040339E-1,-5.889736414E-1,-3.878606856E-1
5.875506958E0,6.320692301E-1,-4.836287498E-1,-9.121908545E-1
5.880507258E0,6.416460276E-1,-3.878606856E-1,-1.340752959E0
5.885508158E0,6.679822803E-1,-2.968810201E-1,-1.623268723E0
5.890509091E0,7.972691655E-1,-1.795651317E-1,-1.410184860E0
5.895509124E0,1.182735682E0,-3.112462163E-2,-2.226607651E-1
5.900509790E0,1.810016513E0,-7.661445439E-2,1.821987510E0
5.905510456E0,2.329558372E0,-5.410895944E-1,3.952826977E0
5.910511089E0,2.628833532E0,-1.139639974E0,5.461473465E0
5.915511089E0,2.616862535E0,-1.922544003E0,6.124667168E0
5.920511089E0,2.442085743E0,-2.681505919E0,6.388029575E0
5.925511789E0,2.054224968E0,-3.442862034E0,6.258742332E0
5.930511789E0,1.637633920E0,-4.074931145E0,5.825392246E0
5.935511689E0,1.288080573E0,-4.558559895E0,5.111919880E0
5.940511689E0,1.053448796E0,-4.961085320E0,4.256890774E0
5.945511689E0,9.409212470E-1,-5.473444462E0,3.404554844E0
5.950511689E0,8.882488012E-1,-6.122272968E0,2.662352324E0
5.955511655E0,9.145850539E-1,-7.300220490E0,2.068590164E0
5.960511655E0,1.024718285E0,-8.832509041E0,1.577778935E0
5.965511655E0,1.233013868E0,-1.131769085E1,1.192312479E0
5.970511688E0,1.508347034E0,-1.428889465E1,9.935936928E-1
5.975511688E0,1.857900500E0,-1.855087280E1,1.240196466E0
5.980511688E0,2.212242365E0,-2.359306145E1,1.572990537E0
5.985511654E0,2.592920542E0,-2.906890106E1,1.896207690E0
5.990511620E0,3.062183857E0,-3.462374878E1,2.250549555E0
5.995511586E0,3.095702887E0,-4.006098175E1,1.742978811E0
6.000511952E0,2.734178305E0,-4.454801178E1,7.948749661E-1
6.005511952E0,1.757344007E0,-4.756949615E1,-5.602431893E-1
6.010511985E0,4.237737060E-1,-4.921670532E1,-1.745373011E0
6.015512018E0,-1.264138460E0,-4.886475754E1,-2.693476915E0
6.020512051E0,-2.913743496E0,-4.768681335E1,-3.490746021E0
6.025512051E0,-4.637568474E0,-4.549132919E1,-4.244919777E0
6.030512617E0,-6.287472725E0,-4.288374329E1,-4.759673119E0
6.035512583E0,-7.676109791E0,-3.993887711E1,-4.833893299E0
6.040512583E0,-8.506897926E0,-3.674022293E1,-4.498704910E0
6.045512583E0,-8.375216484E0,-3.319889832E1,-3.864241600E0
6.050512616E0,-7.838915825E0,-2.987095833E1,-3.220201254E0
6.055512616E0,-6.955455303E0,-2.654301834E1,-2.597708941E0
6.060512616E0,-6.091148376E0,-2.357630348E1,-2.130839586E0
6.065512582E0,-5.159803867E0,-2.072720337E1,-1.877054095E0
6.070512548E0,-4.259284973E0,-1.809836960E1,-1.790862918E0
6.075512514E0,-3.399766445E0,-1.567064857E1,-1.891419291E0
6.080512514E0,-2.576161146E0,-1.345331860E1,-2.111685991E0
6.085512547E0,-1.771709204E0,-1.149486160E1,-2.351106167E0
6.090512580E0,-1.024718285E0,-9.766247749E0,-2.578555346E0
6.095512613E0,-3.136404157E-1,-8.253112793E0,-2.810792685E0
6.100512613E0,2.896983922E-1,-6.967426300E0,-3.011905670E0
6.105512613E0,7.924807668E-1,-5.815814972E0,-3.126827478E0
6.110512579E0,1.182735682E0,-4.826710701E0,-3.184288263E0
6.115512579E0,1.465251446E0,-3.971980572E0,-3.186682463E0
6.120512579E0,1.654393315E0,-3.248931646E0,-3.186682463E0
6.125512612E0,1.786074519E0,-2.600103140E0,-3.162740469E0
6.130512645E0,1.872265697E0,-2.020706177E0,-3.093308687E0
6.135512645E0,1.915361404E0,-1.493981838E0,-2.995146275E0
6.140512645E0,1.915361404E0,-1.012747288E0,-2.894589901E0
6.145512645E0,1.855506301E0,-5.793967843E-1,-2.801215887E0
6.150512278E0,1.764526606E0,-2.082955539E-1,-2.765302896E0
6.155512278E0,1.642422318E0,1.221042871E-1,-2.784456491E0
6.160512278E0,1.539471745E0,4.046200812E-1,-2.827552319E0
6.165512278E0,1.460463047E0,6.392518282E-1,-3.014299870E0
6.170512278E0,1.024718285E0,1.551442742E0,-4.321534157E0
6.175512311E0,9.624691010E-1,1.556231141E0,-4.690241337E0
6.180512311E0,8.762778044E-1,1.525106430E0,-4.999392509E0
6.185512311E0,8.643068075E-1,1.522712231E0,-5.186140060E0
6.190512277E0,7.805097699E-1,1.517923832E0,-4.965873718E0
6.195512277E0,5.985504389E-1,1.505952835E0,-4.223371983E0
6.200512277E0,4.189853072E-1,1.572990537E0,-3.833117008E0
6.205512310E0,2.873041928E-1,1.934514999E0,-3.514688015E0
6.210512310E0,1.867477298E-1,2.090138197E0,-3.208230257E0
6.215512310E0,1.244984865E-1,2.147598982E0,-2.367865562E0
6.220512310E0,4.309562966E-2,2.190694571E0,-1.697489023E0
6.225512310E0,-1.723825186E-1,2.138022184E0,-1.005564690E0
6.230512310E0,-2.298433632E-1,2.066195965E0,-5.075707436E-1
6.235512276E0,-3.711012602E-1,2.068590164E0,-3.495534360E-1
6.240512276E0,-4.764461517E-1,2.039859772E0,-3.782838583E-1
6.245512276E0,-4.022258818E-1,1.922544003E0,-7.086837292E-1
6.250512309E0,-2.777273953E-1,1.893813491E0,-9.385270476E-1
6.255512342E0,-1.149216816E-1,2.015917778E0,-1.443703651E0
6.260512342E0,-9.337386489E-2,2.420537949E0,-3.308786631E0
6.265512308E0,2.681505978E-1,2.533065319E0,-9.562741280E0
6.270512274E0,8.978256583E-1,2.023100376E0,-6.823774338E0
6.275512274E0,1.268926859E0,7.541735172E-1,-7.038952708E-1
6.280512274E0,-8.595184088E-1,-2.992752194E-1,2.664596939E1
6.285512307E0,-3.969586372E0,-2.154781483E-2,2.205598450E1
6.290512307E0,-2.425326347E0,1.508347094E-1,1.016847420E1
6.295512307E0,-1.604115069E-1,6.607996821E-1,1.211466074E0
6.300512307E0,3.591302633E-1,9.337386489E-1,-5.985504389E-2
6.305512307E0,5.793967843E-1,1.338358760E0,-3.758896589E-1
6.310512273E0,2.059013397E-1,1.503558636E0,-5.051765442E-1
6.315512239E0,-2.298433632E-1,9.959878922E-1,-8.451532125E-1
6.320512239E0,-2.968810201E-1,6.272808313E-1,-5.267243981E-1
6.325512239E0,-3.280056417E-1,2.513911724E-1,-4.094084799E-1
6.330512272E0,4.788403213E-2,-4.046200812E-1,-8.690952063E-1
6.335512272E0,6.775590777E-1,-9.217676520E-1,-1.972822189E0
6.340512272E0,1.156399369E0,-1.223437071E0,-3.016694069E0
6.345512238E0,1.934514999E0,-2.023100376E0,-5.078401089E0
6.350512204E0,2.427720547E0,-2.492363930E0,-5.777507782E0
6.355512170E0,3.280056238E0,-3.253720045E0,-6.275501728E0
6.360512170E0,3.948038578E0,-3.852270603E0,-6.479009151E0
6.365512203E0,4.383783340E0,-4.498704910E0,-6.052841187E0
6.370512236E0,5.016151905E0,-5.308244228E0,-5.925948620E0
6.375512269E0,6.148609161E0,-6.517316341E0,-6.390423775E0
6.380512302E0,8.224382401E0,-8.928277016E0,-7.714416981E0
6.385512302E0,1.157626438E1,-1.276618290E1,-9.840468407E0
6.390512268E0,1.299123764E1,-1.489013863E1,-1.067604446E1
6.395512234E0,1.369752693E1,-1.859875679E1,-1.204792213E1
6.400512234E0,1.423622227E1,-2.185487175E1,-1.305348682E1
6.405512234E0,1.543601704E1,-2.953098106E1,-1.661157036E1
6.410512267E0,1.620216179E1,-3.699161148E1,-1.825638580E1
6.415512267E0,1.652537918E1,-4.620001221E1,-2.131857109E1
6.420512267E0,1.428410625E1,-5.528630829E1,-2.151729012E1
6.425512233E0,1.222030449E1,-6.233723068E1,-1.894591713E1
6.430512199E0,1.052042198E1,-6.640048981E1,-1.766980743E1
6.435512165E0,6.914753914E0,-6.696312714E1,-1.412369537E1
6.440512165E0,4.259284973E0,-6.548590851E1,-1.224664116E1
6.445512198E0,-5.746084079E-2,-6.132687759E1,-9.603442192E0
6.450512231E0,-2.147598982E0,-5.853524017E1,-8.056788445E0
6.455512264E0,-5.023334503E0,-5.400062180E1,-5.921160221E0
6.460512264E0,-6.613084316E0,-5.020072174E1,-4.522646904E0
6.465512264E0,-7.374440670E0,-4.615213013E1,-3.294421434E0
6.470512230E0,-7.740753174E0,-4.223970413E1,-2.178723574E0
6.475512230E0,-7.719205379E0,-3.552875519E1,-9.797372818E0
6.480512230E0,-7.115866661E0,-2.892045975E1,-4.098873138E0
6.485512263E0,-3.509899616E0,-2.278621674E1,7.038444519E1
6.490512263E0,1.766920805E0,-1.927871132E1,7.742369080E1
6.495512263E0,-1.723825216E0,-1.701858330E1,7.837179565E1
6.500512263E0,-5.061641693E0,-1.828272247E1,6.073790359E1
6.505512263E0,-7.846098423E0,-2.113900566E1,3.810491562E1
6.510512263E0,-8.913911819E0,-2.257073784E1,1.729152298E1
6.515512229E0,-7.771877766E0,-2.219724274E1,1.515529633E0
6.520512195E0,-7.012916088E0,-2.041835022E1,-4.436455727E0
6.525512195E0,-5.794267178E0,-1.725082207E1,-5.554847240E0
6.530512195E0,-5.061641693E0,-1.507209778E1,-5.236418247E0
6.535512228E0,-3.943250179E0,-1.157147598E1,-4.000710964E0
6.540512228E0,-3.169923067E0,-8.102277756E0,-3.287238836E0
6.545512228E0,-2.276885748E0,-1.362300754E0,-2.023100376E0
6.550512194E0,-1.766920805E0,4.453215301E-1,3.823540211E0
6.555512160E0,-1.908178806E0,1.996764183E0,1.392258263E1
6.560512126E0,-3.086126089E0,4.836287498E0,2.862836838E1
6.565512126E0,-3.921702385E0,6.663362503E0,3.884711838E1
6.570512159E0,-3.660734415E0,6.495768547E0,3.762128830E1
6.575512192E0,-2.066195965E0,5.336975098E0,2.959562492E1
6.580512225E0,-7.876923680E-1,4.553771496E0,2.241032600E1
6.585512225E0,5.315127969E-1,2.908955097E0,1.078138924E1
6.590512225E0,1.034295082E0,1.994369984E0,5.380070686E0
6.595512191E0,1.283292055E0,6.703764796E-1,1.604115069E-1
6.600512191E0,1.374271750E0,1.651999205E-1,-2.200271368E0
6.605512191E0,1.398213744E0,-1.149216816E-1,-3.366247654E0
6.610512224E0,1.493981838E0,-1.508347094E-1,-3.438073635E0
6.615512224E0,1.630451322E0,-6.703764945E-2,-3.816357613E0
6.620512224E0,1.738190413E0,-6.464344263E-2,-3.658340216E0
6.625512190E0,1.673547029E0,3.830722719E-2,-3.157952070E0
6.630512156E0,1.766920805E0,3.830722719E-2,-3.076549292E0
6.635512122E0,1.757344007E0,4.070143029E-2,-3.265691042E0
6.640512122E0,1.723825216E0,3.830722719E-2,-3.406949043E0
6.645512122E0,1.534683347E0,-8.858546615E-2,-3.356670856E0
6.650512155E0,1.458068848E0,-3.136404157E-1,-3.088520288E0
6.655512188E0,1.292868972E0,-5.363011956E-1,-2.676717520E0
6.660512221E0,1.120486379E0,-6.392518282E-1,-2.406172752E0
6.665512221E0,7.637503147E-1,-8.236053586E-1,-1.735796213E0
6.670512221E0,6.272808313E-1,-9.481038451E-1,-1.247379065E0
6.675512187E0,3.615244627E-1,-1.335964561E0,1.910573006E0
6.680512187E0,-1.029506698E-1,-1.932120800E0,6.907571316E0
6.685511520E0,-1.316810966E0,-3.545812607E0,1.351796246E1
6.690510653E0,-2.006340981E0,-4.649539471E0,1.517504883E1
6.695509986E0,-2.923320293E0,-6.675333500E0,1.589091492E1
6.700509086E0,-3.220201254E0,-8.071153641E0,1.478958225E1
6.705508419E0,-3.078943491E0,-9.112630844E0,1.385315037E1
6.710508419E0,-2.401384354E0,-9.921871185E0,1.273745251E1
6.715507752E0,-8.690952063E-1,-1.084842682E1,1.143500614E1
6.720506818E0,2.849099934E-1,-1.212693119E1,9.560346603E0
6.725505918E0,1.881842494E0,-1.489971542E1,7.146991253E0
6.730505018E0,2.403778553E0,-1.764107704E1,5.832574844E0
6.735504184E0,1.968033791E0,-2.432568741E1,3.938461781E0
6.740503284E0,1.369483352E0,-2.925325394E1,4.053383350E0
6.745503284E0,-7.110779285E-1,-3.905302048E1,1.924938202E0
6.750502584E0,-4.000710964E0,-4.747133255E1,-4.070142746E0
6.755501884E0,-6.447884560E0,-5.420412827E1,-8.638579369E0
6.760501850E0,-1.025466537E1,-5.955756378E1,-1.160260105E1
6.765501850E0,-1.666903114E1,-6.223427963E1,-1.251000309E1
6.770501850E0,-2.079184532E1,-6.112815857E1,-1.188751030E1
6.775501216E0,-2.560688591E1,-5.303306580E1,-7.877223015E0
6.780501249E0,-2.762519646E1,-4.687038803E1,-4.819528103E0
6.785501282E0,-2.879117393E1,-3.763325882E1,-1.048660398E0
6.790501282E0,-2.734986305E1,-3.151338005E1,9.074024558E-1
6.795501282E0,-2.479285622E1,-2.622698402E1,1.783680320E0
6.800501248E0,-2.046144676E1,-2.152686691E1,1.980004787E0
6.805501248E0,-1.601541328E1,-1.748784828E1,1.668758631E0
6.810501248E0,-1.168879223E1,-1.403989792E1,1.331176162E0
6.815501281E0,-7.197269440E0,-1.028339577E1,5.793967843E-1
6.820501281E0,-5.166986465E0,-8.351274490E0,2.633621991E-1
6.825501281E0,-2.485181332E0,-5.767930984E0,-2.202665508E-1
6.830501247E0,-1.403002143E0,-4.613626480E0,-4.788403511E-1
6.835501880E0,-1.891419291E-1,-3.485957623E0,-1.134851575E0
6.840502746E0,3.950432837E-1,-3.349488258E0,-1.836352706E0
6.845503412E0,7.374141216E-1,-3.720589399E0,-2.554613113E0
6.850504345E0,1.010353088E0,-4.094084740E0,-2.997540474E0
6.855505045E0,1.225831270E0,-4.201824188E0,-3.256114244E0
6.860505078E0,1.374271750E0,-4.077325344E0,-3.301604033E0
6.865505744E0,1.505952835E0,-3.646369219E0,-3.203441858E0
6.870506644E0,1.551442742E0,-3.270479441E0,-3.131615877E0
6.875507510E0,1.601720929E0,-2.645592928E0,-3.033453465E0
6.880508376E0,1.637633920E0,-2.255337954E0,-2.899378300E0
6.885508576E0,1.513135433E0,-1.455674648E0,-2.454056740E0
6.890509509E0,1.357512355E0,-7.948749661E-1,-2.202665567E0
6.895509542E0,1.132457376E0,-2.106897533E-1,-1.879448295E0
6.900510208E0,9.361328483E-1,2.035071403E-1,-1.644816518E0
6.905510874E0,7.805097699E-1,6.727706790E-1,-1.489193439E0
6.910510874E0,6.775590777E-1,7.829039693E-1,-1.335964561E0
6.915510874E0,5.674257874E-1,1.108515382E0,-1.142034173E0
6.920510874E0,4.812345505E-1,1.225831270E0,-1.055842996E0
6.925511507E0,3.303998411E-1,1.359906554E0,-1.122880578E0
6.930511507E0,3.615244627E-1,1.484405041E0,-1.450886250E0
6.935511507E0,5.195417404E-1,1.608903527E0,-2.774879694E0
6.940511540E0,4.908113480E-1,1.690306425E0,-3.794809580E0
6.945511540E0,6.344634295E-1,1.508347034E0,-4.299986362E0
6.950511540E0,7.278373241E-1,1.438915253E0,-4.216189384E0
6.955511506E0,6.296750307E-1,1.534683347E0,-3.646369219E0
6.960511506E0,6.919242740E-1,1.496376038E0,-3.399766445E0
6.965511506E0,9.217676520E-1,1.266532660E0,-3.107673883E0
6.970511539E0,1.079784989E0,1.189918280E0,-2.853888512E0
6.975511539E0,1.130063176E0,1.058237195E0,-2.564189911E0
6.980511539E0,1.168370485E0,1.022324085E0,-2.458845139E0
6.985511539E0,1.218648672E0,9.888052940E-1,-2.284068346E0
6.990511539E0,1.312022567E0,1.113303781E0,-2.073378563E0
6.995511539E0,1.285686255E0,1.122880578E0,-1.649604917E0
7.000511505E0,1.074996591E0,1.067813993E0,-1.139639974E0
7.005511471E0,9.504981041E-1,9.672574997E-1,-8.834604025E-1
7.010511471E0,9.720458984E-1,8.690952063E-1,-7.829039693E-1
7.015511504E0,9.313444495E-1,8.475474119E-1,-1.312022567E0
7.020511537E0,1.209071875E0,1.367089152E0,-3.964797974E0
7.025511537E0,1.321599364E0,3.646369219E0,-8.056788445E0
7.030511537E0,8.092401624E-1,3.689464808E0,-6.658574104E0
7.035512170E0,6.488286853E-1,2.159569979E0,-4.223371983E0
7.040512170E0,5.482721925E-1,7.015010715E-1,-2.030282974E0
7.045512170E0,4.046200812E-1,-1.436521020E-2,-8.259995580E-1
7.050512203E0,4.644751251E-1,-2.489969730E-1,-2.896983922E-1
7.055512203E0,9.265560508E-1,-1.149216816E-1,-7.206547260E-1
7.060512203E0,8.116343617E-1,-4.070143029E-2,-8.451532125E-1
7.065512203E0,1.939303428E-1,-1.891419291E-1,-1.125274822E-1
7.070512203E0,-2.466027737E-1,-2.154781520E-1,7.182604820E-2
7.075512203E0,-6.392518282E-1,-2.561795712E-1,1.556231081E-1
7.080512169E0,-5.602431893E-1,-3.687070608E-1,1.915361285E-1
7.085512169E0,-2.394201756E-1,-5.961562395E-1,-6.464344263E-2
7.090512169E0,-9.576806799E-3,-7.996633649E-1,-3.327940404E-1
7.095512202E0,1.149216816E-1,-9.193734527E-1,-5.195417404E-1
7.100512202E0,2.082955539E-1,-1.146822572E0,-7.206547260E-1
7.105512202E0,2.681505978E-1,-1.517923832E0,-1.393425345E0
7.110512168E0,5.410895944E-1,-1.908178806E0,-2.540247917E0
7.115512134E0,1.719036818E0,-3.119644880E0,-3.715801001E0
7.120512100E0,2.375048161E0,-3.957615376E0,-4.211400986E0
7.125512100E0,3.289633036E0,-5.260360241E0,-4.623203278E0
7.130512100E0,3.909731388E0,-6.593930721E0,-4.367023945E0
7.135512133E0,4.790797710E0,-8.734347343E0,-4.659116745E0
7.140512166E0,5.727229595E0,-1.115488529E1,-5.574000835E0
7.145512199E0,6.859687328E0,-1.495717621E1,-8.190863609E0
7.150512199E0,6.502951145E0,-1.790683365E1,-1.067125607E1
7.155512199E0,4.968267918E0,-2.524296570E1,-1.406144619E1
7.160512165E0,3.447650433E0,-3.092919540E1,-1.625004578E1
7.165512165E0,7.182604820E-2,-4.340568161E1,-1.926673889E1
7.170512165E0,-1.551442742E0,-5.157020569E1,-2.083015251E1
7.175512198E0,-4.443638325E0,-6.365404129E1,-2.195303345E1
7.180512198E0,-5.621884823E0,-6.986729431E1,-2.173995018E1
7.185512198E0,-6.249165535E0,-7.154563141E1,-2.090676689E1
7.190512164E0,-7.664138794E0,-7.061907196E1,-2.022920799E1
7.195512130E0,-9.335291862E0,-6.606769562E1,-1.754770279E1
7.200512096E0,-9.909899712E0,-6.224385834E1,-1.460492992E1
7.205512096E0,-9.943418503E0,-5.605245209E1,-9.991303444E0
7.210512129E0,-1.014932060E1,-5.185032654E1,-7.999327183E0
7.215512162E0,-1.089152241E1,-4.481855774E1,-5.966650009E0
7.220512195E0,-1.115009689E1,-4.135624313E1,-4.376600742E0
7.225512195E0,-1.130332565E1,-3.649361801E1,-3.021482468E0
7.230512195E0,-1.109502983E1,-3.308158112E1,-2.099714994E0
7.235512161E0,-1.060421848E1,-2.451512909E1,-1.998260689E1
7.240512161E0,-5.494992256E0,-2.865230942E1,3.073047638E1
7.245512161E0,9.119813919E0,-1.969051361E1,7.681796265E1
7.250512194E0,7.103895664E0,-1.642961121E1,7.822814941E1
7.255512227E0,1.233013868E0,-1.541446877E1,7.180899048E1
7.260512227E0,-1.551442742E0,-1.663072395E1,5.742193604E1
7.265512227E0,-6.143820763E0,-1.802893829E1,3.356281662E1
7.270512227E0,-9.059958458E0,-1.886211967E1,1.478240013E1
7.275512227E0,-1.160020638E1,-1.913027000E1,-7.685387731E-1
7.280512227E0,-1.135839176E1,-1.743996429E1,-6.409577370E0
7.285512193E0,-1.017086792E1,-1.491886902E1,-6.886023521E0
7.290512193E0,-8.619425774E0,-1.251957989E1,-5.502174854E0
7.295512193E0,-6.536469936E0,-9.806949615E0,-3.904942989E0
7.300512226E0,-5.648221016E0,-8.332120895E0,-3.045424461E0
7.305512226E0,-4.134786129E0,-5.614702225E0,-2.365471363E0
7.310512226E0,-3.119644880E0,-1.733402014E0,-4.884171486E0
7.315512192E0,-2.523488522E0,2.513911724E0,-1.386242747E0
7.320512192E0,-3.725377798E0,5.145438671E0,1.545517063E1
7.325512158E0,-8.509291649E0,1.100405025E1,5.361006546E1
7.330512191E0,-7.391200066E0,9.134179115E0,4.934599304E1
7.335512191E0,-1.869871497E0,4.175487995E0,2.452470589E1
7.340512191E0,-3.567360640E-1,1.419761658E0,9.246706009E0
7.345512191E0,3.878606856E-1,5.530605912E-1,2.978386879E0
7.350512191E0,5.195417404E-1,5.147533417E-1,1.759738207E0
7.355512191E0,7.182605267E-1,4.094084799E-1,6.679822803E-1
7.360512157E0,7.685387731E-1,3.687070608E-1,1.915361285E-1
7.365512157E0,8.212111592E-1,3.136404157E-1,-7.110779285E-1
7.370512157E0,8.667010069E-1,2.729389966E-1,-1.189918280E0
7.375512190E0,9.002198577E-1,3.040636182E-1,-1.388636947E0
7.380512223E0,9.552865028E-1,4.381389022E-1,-1.637633920E0
7.385512223E0,1.043871999E0,4.333505034E-1,-1.843535304E0
7.390512189E0,1.146822572E0,5.339069963E-1,-1.393425345E0
7.395512155E0,1.271321058E0,9.816226959E-1,1.843535304E-1
7.400512121E0,1.410184860E0,1.304839969E0,1.493981838E0
7.405512087E0,1.309628367E0,1.860294700E0,4.369418144E0
7.410512087E0,6.823474765E-1,2.104503393E0,6.177339554E0
7.415512120E0,-7.015010715E-1,1.776497602E0,7.635408401E0
7.420512153E0,-1.920149803E0,4.932055473E-1,6.701669693E0
7.425512186E0,-2.240972757E0,-9.265560508E-1,4.817133904E0
7.430512186E0,-2.056619167E0,-1.831564307E0,2.920926094E0
7.435512186E0,-1.924938202E0,-2.633621931E0,1.565807939E0
7.440512152E0,-1.807622313E0,-2.995146275E0,1.802833915E0
7.445512152E0,-2.260126352E0,-3.773261786E0,3.572149038E0
7.450512152E0,-2.949656487E0,-4.529829502E0,5.497386456E0
7.455512185E0,-3.986345768E0,-6.139032364E0,8.384793282E0
7.460512185E0,-4.151545525E0,-7.237970829E0,9.241917610E0
7.465512185E0,-4.072536945E0,-8.346486092E0,9.941024780E0
7.470512151E0,-3.701435804E0,-9.462183952E0,1.005115795E1
7.475512151E0,-3.294421434E0,-1.095855999E1,9.565135002E0
7.480512117E0,-3.653551817E0,-1.378611279E1,9.364022255E0
7.485512117E0,-5.588366032E0,-2.088521957E1,7.309797287E0
7.490512150E0,-6.519710541E0,-2.634669304E1,5.035305500E0
7.495512183E0,-8.772654533E0,-3.739144516E1,-6.464344263E-2
7.500512216E0,-1.084842682E1,-4.508670807E1,-4.951508522E0
7.505512249E0,-1.675761604E1,-5.627750778E1,-1.199285603E1
7.510512249E0,-2.214696503E1,-6.245215225E1,-1.387709236E1
7.515512215E0,-2.552069283E1,-6.534943390E1,-1.055394077E1
7.520511481E0,-2.895397949E1,-6.646752930E1,-6.440701962E0
7.525511481E0,-3.445136642E1,-6.482989502E1,-5.212476254E0
7.530511481E0,-3.771466064E1,-5.726391602E1,-3.825934410E0
7.535511514E0,-3.484880447E1,-4.412424088E1,-1.142034173E0
7.540511514E0,-2.989968872E1,-3.685035706E1,-1.268926859E-1
7.545511514E0,-1.815104103E1,-2.722536469E1,1.951274395E0
7.550511514E0,-1.265365505E1,-2.293944550E1,2.568978310E0
7.555511514E0,-6.682516098E0,-1.739926147E1,2.662352324E0
7.560511514E0,-3.529053211E0,-1.425537586E1,2.303221941E0
7.565511480E0,-1.053448796E0,-1.205749893E1,1.115697980E0
7.570511480E0,-2.944868207E-1,-1.061618996E1,3.734954596E-1
7.575511480E0,5.770025849E-1,-9.672874451E0,-9.600749016E-1
7.580511513E0,9.241618514E-1,-9.033622742E0,-1.824381709E0
7.585511513E0,1.323993564E0,-8.557176590E0,-2.707842112E0
7.590511513E0,1.510741234E0,-8.384793282E0,-2.980781078E0
7.595511479E0,1.826775908E0,-8.037634850E0,-3.153163671E0
7.600511479E0,2.092532396E0,-7.611466408E0,-3.217807055E0
7.605511479E0,2.293645144E0,-6.775889874E0,-3.337517262E0
7.610511512E0,2.351106167E0,-5.957073212E0,-3.581725836E0
7.615511512E0,2.243366957E0,-5.152621269E0,-3.754108191E0
7.620511512E0,2.195482969E0,-4.232948780E0,-3.605667830E0
7.625511512E0,2.111685991E0,-3.160346270E0,-3.464409828E0
7.630511512E0,1.977610588E0,-2.561795712E0,-3.335123062E0
7.635511512E0,1.819593310E0,-1.498770237E0,-2.746149302E0
7.640511478E0,1.697489023E0,-9.313444495E-1,-2.535459518E0
7.645511444E0,1.391031146E0,-1.053448766E-1,-2.286462545E0
7.650511444E0,1.194706678E0,8.379705995E-2,-2.351106167E0
7.655511444E0,1.235408068E0,5.099649429E-1,-2.786850691E0
7.660511477E0,1.300051570E0,7.134721279E-1,-3.349488258E0
7.665511477E0,1.192312479E0,8.930372596E-1,-3.390189648E0
7.670512177E0,9.888052940E-1,1.024718285E0,-3.014299870E0
7.675512143E0,7.110779285E-1,1.177947283E0,-2.904166698E0
7.680512143E0,7.254431248E-1,1.249773264E0,-3.035847664E0
7.685512143E0,1.125274777E0,1.074996591E0,-3.902548790E0
7.690511509E0,1.570596337E0,7.086837292E-1,-4.754884720E0
7.695510842E0,1.824381709E0,4.477157295E-1,-5.684134007E0
7.700509942E0,1.924938202E0,3.160346150E-1,-5.897218227E0
7.705509042E0,2.533065319E0,-2.130839527E-1,-6.285078526E0
7.710508375E0,2.801215887E0,-4.213795066E-1,-6.057629585E0
7.715509008E0,3.272873640E0,-4.812345505E-1,-5.715258598E0
7.720508308E0,3.433285236E0,-4.644751251E-1,-5.748777390E0
7.725507408E0,3.512293816E0,-9.337386489E-2,-6.115090370E0
7.730506508E0,3.588908434E0,2.920926213E-1,-6.359299183E0
7.735506341E0,3.806780815E0,7.613561153E-1,-6.244377136E0
7.740505441E0,3.536235809E0,1.115697980E0,-5.542876244E0
7.745505441E0,2.820369720E0,1.328781962E0,-3.969586372E0
7.750504741E0,2.346317768E0,1.549048543E0,-3.179499865E0
7.755504041E0,2.130839586E0,1.522712231E0,-2.655169725E0
7.760504007E0,2.003946781E0,1.874659896E0,-3.368641853E0
7.765503340E0,1.345541358E0,5.092766285E0,-6.519710541E0
7.770503973E0,6.703764796E-1,8.063970566E0,-7.795820236E0
7.775504006E0,2.729389966E-1,9.071929932E0,-6.672939301E0
7.780504039E0,3.734954596E-1,8.449437141E0,-5.777507782E0
7.785503405E0,6.416460276E-1,6.459855556E0,-4.369418144E0
7.790503405E0,8.212111592E-1,4.673481941E0,-3.371036053E0
7.795502938E0,8.834604025E-1,2.011129379E0,-1.041477680E0
7.800502904E0,8.451532125E-1,8.140285611E-1,4.285621047E-1
7.805502904E0,1.055842996E0,6.224924326E-2,1.237802267E0
7.810502904E0,1.223437071E0,6.392518282E-1,7.733271718E-1
7.815502937E0,1.869871497E0,7.110779285E-1,3.256114423E-1
7.820502937E0,2.128445387E0,4.333505034E-1,3.088520169E-1
7.825502937E0,1.723825216E0,2.011129409E-1,5.746084079E-2
7.830502903E0,1.292868972E0,-1.221042871E-1,5.267243832E-2
7.835502869E0,8.858546019E-1,-4.213795066E-1,-2.418143749E-1
7.840503502E0,7.781155705E-1,-4.860229492E-1,-2.418143749E-1
7.845504168E0,7.493851185E-1,-6.488286853E-1,-4.118026793E-1
7.850505101E0,7.398083210E-1,-8.762778044E-1,-5.075707436E-1
7.855506034E0,7.422025204E-1,-1.051054597E0,-5.722141862E-1
7.860506734E0,8.140285611E-1,-1.328781962E0,-5.554547906E-1
7.865506100E0,1.089361787E0,-1.709460020E0,-8.068459630E-1
7.870506766E0,1.343147159E0,-2.006340981E0,-1.027112484E0
7.875507632E0,1.877054095E0,-2.643198729E0,-1.539471745E0
7.880508498E0,2.355894566E0,-3.208230257E0,-1.865083098E0
7.885508698E0,3.167528868E0,-4.752490520E0,-2.628833532E0
7.890509631E0,4.122815132E0,-5.789478779E0,-3.433285236E0
7.895509664E0,4.845864296E0,-7.477391243E0,-4.556165695E0
7.900510330E0,5.076006889E0,-8.930671692E0,-7.003339291E0
7.905510996E0,4.951508522E0,-1.059224796E1,-9.189245224E0
7.910511462E0,5.016151905E0,-1.283322048E1,-1.000088024E1
7.915512128E0,4.129997730E0,-1.827793503E1,-1.233522606E1
7.920511494E0,1.091755986E0,-2.446694565E1,-1.468154430E1
7.925511460E0,-7.865252018E0,-3.968269730E1,-1.829469299E1
7.930511460E0,-1.209341240E1,-4.994693756E1,-1.936729622E1
7.935512126E0,-1.640327454E1,-7.159590912E1,-2.158193207E1
7.940512159E0,-2.050454140E1,-7.796957397E1,-2.066255951E1
7.945512625E0,-2.246778679E1,-7.840531921E1,-1.954686165E1
7.950512625E0,-2.409105682E1,-7.843165588E1,-1.680071259E1
7.955512591E0,-2.827402496E1,-7.716751862E1,-1.620216179E1
7.960512591E0,-2.874807739E1,-7.320481110E1,-1.463844872E1
7.965512591E0,-2.652625847E1,-6.603896332E1,-1.103996372E1
7.970512624E0,-2.510410309E1,-6.139630890E1,-9.170091629E0
7.975512624E0,-2.153165436E1,-5.221424866E1,-6.234800339E0
7.980512624E0,-1.937926674E1,-4.690390778E1,-4.910807133E0
7.985512624E0,-1.649185944E1,-3.950313187E1,-3.754108191E0
7.990512624E0,-1.458098793E1,-3.475303650E1,-3.117250681E0
7.995512624E0,-1.292898846E1,-3.000503349E1,-2.918531895E0
8.000512590E0,-8.923488617E0,-1.979585838E1,-1.575384736E0
8.005512556E0,1.295293045E1,-1.726279259E1,7.338198090E1
8.010512556E0,2.071523094E1,-1.535461426E1,7.779958344E1
8.015512589E0,1.587415600E1,-1.237592793E1,7.841010284E1
8.020512622E0,9.854833603E0,-1.225382328E1,7.496006012E1
8.025512622E0,-3.040636182E-1,-1.439663410E1,4.272572708E1
8.030512622E0,-5.296273232E0,-1.539292145E1,2.330097008E1
8.035512588E0,-8.485349655E0,-1.541686344E1,3.924096584E0
8.040512554E0,-8.250718117E0,-1.411172390E1,2.585737705E-1
8.045512520E0,-7.350498676E0,-1.232086086E1,-3.256114423E-1
8.050512520E0,-6.002563000E0,-8.578723907E0,2.619256735E0
8.055512553E0,-4.623203278E0,-1.422155857E0,1.688929749E1
8.060512119E0,-4.659116745E0,4.036623955E0,2.912636185E1
8.065512152E0,-5.085583687E0,6.426336765E0,4.204338074E1
8.070512152E0,-4.036623955E0,4.757278919E0,3.637151337E1
8.075512152E0,-2.085349798E0,2.418143749E-1,1.676958656E1
8.080512118E0,-1.395819545E0,-1.862688899E0,7.398382664E0
8.085512118E0,-9.145850539E-1,-2.875436306E0,5.386953950E-1
8.090512118E0,-4.381389022E-1,-2.789244890E0,-1.158793569E0
8.095512151E0,4.309562966E-2,-2.355894566E0,-1.829170108E0
8.100512151E0,3.543418646E-1,-2.059013367E0,-2.039859772E0
8.105512151E0,8.331822157E-1,-1.630451322E0,-2.094926596E0
8.110511784E0,1.079784989E0,-1.359906554E0,-2.161964178E0
8.115511750E0,1.328781962E0,-1.103726983E0,-2.243366957E0
8.120511716E0,1.520318031E0,-9.265560508E-1,-2.257732153E0
8.125511716E0,1.838746905E0,-7.733271718E-1,-2.379836559E0
8.130511716E0,1.675941229E0,-6.655880809E-1,-2.504334927E0
8.135511749E0,1.553836942E0,-5.961562395E-1,-2.568978310E0
8.140511782E0,1.316810966E0,-5.650315881E-1,-2.396595955E0
8.145511815E0,9.768342972E-1,-5.027823448E-1,-2.166752577E0
8.150511815E0,6.655880809E-1,-4.189853072E-1,-1.968033791E0
8.155511815E0,3.136404157E-1,-4.046200812E-1,-1.651999116E0
8.160511781E0,1.053448766E-1,-3.327940404E-1,-1.527500629E0
8.165511781E0,-3.974374831E-1,-1.604115069E-1,-3.495534360E-1
8.170511781E0,-1.074996591E0,7.661445439E-2,2.042253971E0
8.175511814E0,-2.205059767E0,-1.484405100E-1,5.408801079E0
8.180511814E0,-2.308010340E0,-1.122880578E0,6.143820763E0
8.185511814E0,-2.173935175E0,-2.415749550E0,5.822998047E0
8.190511814E0,-2.149993181E0,-3.552995205E0,5.423166275E0
8.195511814E0,-2.205059767E0,-4.627991676E0,5.538087845E0
8.200511814E0,-2.324769735E0,-5.351340294E0,6.093542576E0
8.205511780E0,-2.382230759E0,-5.839757442E0,6.759130478E0
8.210511780E0,-2.387019157E0,-6.263530731E0,7.017704487E0
8.215511780E0,-2.600103140E0,-7.649773598E0,6.955455303E0
8.220511813E0,-2.949656487E0,-9.352050781E0,6.950666904E0
8.225511813E0,-4.180276394E0,-1.432720184E1,6.210858345E0
8.230511813E0,-5.588366032E0,-2.064340591E1,5.432743073E0
8.235511779E0,-8.138191223E0,-2.882229805E1,5.341763496E0
8.240511779E0,-1.056830597E1,-3.786788940E1,6.100725174E0
8.245511779E0,-1.302475643E1,-4.689193726E1,5.753565788E0
8.250511812E0,-1.418833828E1,-5.457522964E1,3.473986626E0
8.255511845E0,-1.884296608E1,-6.191824722E1,-4.620809078E0
8.260512178E0,-2.290592575E1,-6.523690796E1,-1.169597435E1
8.265512178E0,-2.806812477E1,-6.463117218E1,-1.720772552E1
8.270512178E0,-2.905932426E1,-5.967008972E1,-1.699464226E1
8.275512178E0,-2.864512634E1,-4.893418884E1,-1.431283665E1
8.280512178E0,-2.833866882E1,-4.074571991E1,-1.155950546E1
8.285512144E0,-2.639936638E1,-3.346226120E1,-6.775889874E0
8.290512144E0,-2.220681953E1,-2.665793991E1,1.675941199E-1
8.295512144E0,-1.503379059E1,-1.971445465E1,6.699275494E0
8.300512177E0,-1.140867043E1,-1.656368637E1,7.810185432E0
8.305512177E0,-6.840533733E0,-1.259619427E1,7.099107265E0
8.310512177E0,-4.742913723E0,-1.085321522E1,5.904400826E0
8.315512143E0,-2.149993181E0,-8.846874237E0,3.778050184E0
8.320512143E0,-1.264138460E0,-8.121431351E0,2.571372509E0
8.325512143E0,-4.405331016E-1,-7.470208645E0,9.983820915E-1
8.330512176E0,-5.267243832E-2,-7.218817234E0,-3.519476354E-1
8.335512176E0,2.825157940E-1,-7.372046471E0,-1.994369984E0
8.340512176E0,7.972691655E-1,-7.307403088E0,-3.045424461E0
8.345512176E0,1.534683347E0,-6.818985939E0,-3.526659012E0
8.350512176E0,1.898601890E0,-6.586748123E0,-3.732560396E0
8.355512176E0,2.308010340E0,-6.036081791E0,-3.919308186E0
8.360512142E0,2.446874142E0,-5.703287601E0,-4.010287762E0
8.365512142E0,2.422932148E0,-4.908412933E0,-4.062960148E0
8.370512142E0,2.308010340E0,-4.276044369E0,-3.883395195E0
8.375512175E0,2.281674147E0,-3.181894064E0,-3.639186621E0
8.380512208E0,2.106897593E0,-2.461239338E0,-3.481169224E0
8.385512208E0,1.922544003E0,-1.783680320E0,-3.155557871E0
8.390512174E0,1.788468719E0,-1.223437071E0,-2.911349297E0
8.395512140E0,1.592144132E0,-5.961562395E-1,-2.762908697E0
8.400512140E0,1.496376038E0,-3.136404157E-1,-2.770091295E0
8.405512140E0,1.233013868E0,1.292868853E-1,-3.145981073E0
8.410512173E0,1.130063176E0,3.136404157E-1,-3.404554844E0
8.415512173E0,1.029506683E0,3.447650373E-1,-3.502717018E0
8.420512173E0,1.007958889E0,4.501099288E-1,-4.146757126E0
8.425512173E0,1.180341482E0,4.453215301E-1,-5.085583687E0
8.430512173E0,1.434126854E0,3.687070608E-1,-5.957073212E0
8.435512173E0,1.927332401E0,5.746084079E-2,-6.728005886E0
8.440512139E0,2.640804529E0,-4.453215301E-1,-7.170933247E0
8.445512139E0,2.885013103E0,-6.129156351E-1,-7.496544838E0
8.450512139E0,3.213018656E0,-7.182605267E-1,-7.530063629E0
8.455512172E0,3.924096584E0,-1.065419793E0,-7.214028835E0
8.460512172E0,4.252102375E0,-1.244984865E0,-7.135020256E0
8.465512172E0,3.909731388E0,-1.034295082E0,-6.941090107E0
8.470512138E0,3.387795448E0,-4.955997467E-1,-6.696881294E0
8.475512138E0,3.229778051E0,7.661445439E-2,-6.395212173E0
8.480512138E0,3.055001259E0,6.105214357E-1,-5.686528206E0
8.485512171E0,2.446874142E0,1.015141487E0,-4.575319290E0
8.490512171E0,2.075772762E0,1.381454349E0,-3.335123062E0
8.495512171E0,1.565807939E0,1.620874524E0,-2.351106167E0
8.500512171E0,1.403002143E0,1.671152830E0,-1.915361404E0
8.505512171E0,1.170764685E0,1.668758631E0,-1.551442742E0
8.510512171E0,1.233013868E0,1.678335428E0,-1.297657371E0
8.515512137E0,7.565677166E-1,1.683123827E0,-1.072602391E0
8.520512103E0,5.674257874E-1,4.793191910E0,-6.785466671E0
8.525512103E0,7.685387731E-1,7.831733227E0,-1.101362705E1
8.530512103E0,7.948749661E-1,6.069600582E0,-8.286631584E0
8.535512136E0,9.457096457E-1,1.991975784E0,-3.828328609E0
8.540512136E0,9.193734527E-1,3.926490843E-1,-2.099714994E0
8.545512136E0,5.817909837E-1,-9.888052940E-1,1.915361285E-1
8.550512102E0,4.309563041E-1,-1.029506683E0,1.005564690E0
8.555512068E0,3.375824392E-1,-1.067813993E0,1.218648672E0
8.560512034E0,4.908113480E-1,-1.132457376E0,1.266532660E0
8.565512034E0,4.692635238E-1,-1.259350061E0,1.007958889E0
8.570512067E0,4.333505034E-1,-1.163581967E0,6.847416759E-1
8.575512100E0,4.118026793E-1,-1.326387763E0,4.668693244E-1
8.580512133E0,3.902548850E-1,-1.539471745E0,2.968810201E-1
8.585512133E0,2.346317619E-1,-1.630451322E0,3.040636182E-1
8.590512133E0,1.292868853E-1,-1.678335428E0,4.261679053E-1
8.595512099E0,1.675941236E-2,-1.778891921E0,7.110779285E-1
8.600512099E0,1.173158810E-1,-1.855506301E0,5.482721925E-1
8.605512099E0,5.386953950E-1,-2.011129379E0,-2.968810201E-1
8.610512132E0,7.733271718E-1,-2.102109194E0,-1.031900883E0
8.615512132E0,9.121908545E-1,-2.384624958E0,-1.242590666E0
8.620512132E0,1.165976286E0,-2.765302896E0,-1.355118155E0
8.625512098E0,1.561019540E0,-3.402160645E0,-1.640028119E0
8.630512064E0,1.845929503E0,-4.173093796E0,-1.788468719E0
8.635512030E0,2.341529369E0,-5.456685066E0,-2.343923569E0
8.640512030E0,2.794033289E0,-6.208464146E0,-2.736572504E0
8.645512030E0,3.330334663E0,-7.688080788E0,-3.629609823E0
8.650512063E0,3.224989653E0,-9.002497673E0,-5.277119637E0
8.655512096E0,4.187458992E0,-1.308221722E1,-7.099107265E0
8.660512129E0,4.714183331E0,-1.940081406E1,-1.072392845E1
8.665512129E0,2.135627985E0,-2.942084885E1,-1.527321148E1
8.670512129E0,-3.447650373E-1,-4.171297836E1,-1.676719284E1
8.675512095E0,-4.230554581E0,-5.537010574E1,-1.602977943E1
8.680511695E0,-7.273883820E0,-6.722649384E1,-1.461929512E1
8.685511695E0,-1.005115795E1,-7.485950470E1,-1.417636776E1
8.690510828E0,-1.161217785E1,-7.607815552E1,-1.488774490E1
8.695510828E0,-1.405665779E1,-7.440939331E1,-1.955643845E1
8.700509928E0,-1.369273853E1,-6.939084625E1,-1.815104103E1
8.705509261E0,-1.331684875E1,-6.261256409E1,-1.392737103E1
8.710508361E0,-1.351077938E1,-5.921519089E1,-1.086997509E1
8.715508361E0,-1.372146893E1,-5.159415054E1,-8.140584946E0
8.720507461E0,-1.370949841E1,-4.403056717E1,-8.492532730E0
8.725506561E0,-1.275660610E1,-3.293553543E1,-1.593401051E1
8.730506561E0,-1.129135418E1,-3.353408813E1,-1.084124470E1
8.735505927E0,-8.614637375E0,-3.325157166E1,-6.241982937E0
8.740505027E0,-7.237970829E0,-3.215023804E1,-5.976226807E0
8.745504127E0,-5.047276497E0,-2.984701538E1,-3.778050184E0
8.750503193E0,-1.711854219E0,-2.407190323E1,2.602826500E1
8.755502493E0,1.431523132E1,-2.406172752E0,7.646362305E1
8.760502459E0,1.108066463E1,-1.158793569E0,7.830715179E1
8.765501792E0,3.320757866E0,-3.313575268E0,7.031021881E1
8.770501792E0,-2.894589901E0,-7.443872452E0,3.960368729E1
8.775501558E0,-7.039252281E0,-1.058506489E1,9.929053307E0
8.780501591E0,-7.917924404E0,-1.194736576E1,1.829170108E0
8.785501224E0,-6.828562737E0,-1.088673401E1,1.283292055E0
8.790501224E0,-6.280290127E0,-8.614637375E0,4.683058739E0
8.795501624E0,-5.684134007E0,-3.229778051E0,1.141106415E1
8.800501590E0,-5.782296181E0,-6.200982332E-1,1.657565689E1
8.805501590E0,-6.620266914E0,2.837129116E0,3.185096359E1
8.810501590E0,-7.501333237E0,3.684676409E0,4.154059601E1
8.815501623E0,-5.612308025E0,1.283292055E0,3.231543732E1
8.820501623E0,-2.952050686E0,-2.276885748E0,1.522053909E1
8.825501623E0,-1.446097851E0,-4.501099110E0,3.512293816E0
8.830501989E0,-1.156399369E0,-4.649539471E0,1.039083481E0
8.835501955E0,-8.882488012E-1,-4.450820923E0,-1.292868853E-1
8.840502821E0,-6.991068721E-1,-4.232948780E0,-9.576806426E-2
8.845502821E0,-2.633621991E-1,-3.797203779E0,-1.675941236E-2
8.850503754E0,2.537853718E-1,-3.416525841E0,-3.016694188E-1
8.855504454E0,6.344634295E-1,-3.007117271E0,-4.572925270E-1
8.860505387E0,8.331822157E-1,-2.614468336E0,-4.620809257E-1
8.865505387E0,1.084573388E0,-2.269703150E0,-9.337386489E-2
8.870506253E0,1.352723956E0,-1.857900500E0,6.057330370E-1
8.875507119E0,1.908178806E0,-1.074996591E0,2.920926094E0
8.880507085E0,2.240972757E0,-4.908113480E-1,5.839757442E0
8.885507851E0,2.109291792E0,5.363011956E-1,1.126023006E1
8.890508784E0,1.242590666E0,7.038952708E-1,1.178695393E1
8.895509717E0,-6.129156351E-1,-2.394201607E-2,9.081506729E0
8.900510617E0,-1.805228114E0,-9.959878922E-1,6.110301971E0
8.905511283E0,-2.348711967E0,-2.226607561E0,3.708618402E0
8.910511283E0,-2.449268341E0,-3.608062029E0,1.680729628E0
8.915511949E0,-2.468421936E0,-4.817133904E0,8.140286058E-2
8.920511949E0,-2.396595955E0,-5.152621269E0,-5.075707436E-1
8.925512182E0,-2.430114746E0,-5.722441196E0,-1.086967587E0
8.930512182E0,-2.528276920E0,-6.184522152E0,-1.328781962E0
8.935512582E0,-2.961627483E0,-7.616254807E0,-1.230619669E0
8.940512615E0,-3.390189648E0,-8.968978882E0,-6.775590777E-1
8.945512215E0,-4.314351559E0,-1.206707573E1,1.283292055E0
8.950512215E0,-5.183745861E0,-1.543122864E1,3.191470861E0
8.955512181E0,-6.208464146E0,-1.934095955E1,5.044882298E0
8.960512181E0,-7.144597054E0,-2.403120041E1,6.945878506E0
8.965512181E0,-7.951443195E0,-2.991165924E1,1.019002151E1
8.970512214E0,-8.272266388E0,-3.725258255E1,1.245733070E1
8.975512214E0,-8.346486092E0,-4.616649246E1,1.371189213E1
8.980512214E0,-8.554781914E0,-5.132599640E1,1.162893677E1
8.985512214E0,-1.054915237E1,-5.976585770E1,3.203441858E0
8.990512214E0,-1.236395645E1,-6.354151535E1,-3.701435804E0
8.995512214E0,-1.483028412E1,-6.478440094E1,-1.263928986E1
9.000512180E0,-1.630750656E1,-5.962220764E1,-1.471057415E1
9.005512146E0,-1.684620094E1,-5.087349319E1,-1.329051304E1
9.010512146E0,-1.681986618E1,-4.275445557E1,-1.030733776E1
9.015512179E0,-1.719575500E1,-3.431220245E1,-6.945878506E0
9.020512212E0,-1.681028938E1,-3.017741585E1,-5.329792023E0
9.025512212E0,-1.651101303E1,-2.439512062E1,-3.205836058E0
9.030512212E0,-1.563234138E1,-2.146701050E1,-2.331952572E0
9.035512078E0,-1.272069263E1,-1.689408493E1,-1.113303781E0
9.040512078E0,-1.009425354E1,-1.464802551E1,-7.709329724E-1
9.045512078E0,-7.563582420E0,-1.172231102E1,-1.137245774E0
9.050512111E0,-5.269937038E0,-1.004636955E1,-1.486799240E0
9.055512111E0,-3.768473387E0,-8.724770546E0,-2.068590164E0
9.060512111E0,-2.964021683E0,-7.759906769E0,-2.798821688E0
9.065512111E0,-2.274491549E0,-7.106289864E0,-3.627215624E0
9.070512111E0,-1.853112102E0,-6.759130478E0,-3.840299606E0
9.075512111E0,-1.144428372E0,-6.134243965E0,-4.022258759E0
9.080512077E0,-7.876923680E-1,-5.921160221E0,-4.441244125E0
9.085512077E0,-2.035071403E-1,-5.626673222E0,-4.965873718E0
9.090512077E0,2.418143749E-1,-5.365705490E0,-5.054459095E0
9.095512110E0,7.469909191E-1,-4.939537525E0,-4.805162907E0
9.100512110E0,1.170764685E0,-4.508281708E0,-4.560954094E0
9.105512110E0,1.474828243E0,-3.926490784E0,-4.299986362E0
9.110512076E0,1.721431017E0,-3.323152065E0,-4.165910721E0
9.115512042E0,1.704671621E0,-2.568978310E0,-3.768473387E0
9.120512008E0,1.692700624E0,-2.061407566E0,-3.545812607E0
9.125512008E0,1.570596337E0,-1.288080573E0,-3.189076662E0
9.130512008E0,1.400607944E0,-8.547300100E-1,-2.997540474E0
9.135512041E0,1.165976286E0,-2.633621991E-1,-2.700659513E0
9.140512074E0,1.074996591E0,2.250549644E-1,-2.597708941E0
9.145512107E0,1.072602391E0,5.123591423E-1,-2.738966703E0
9.150512107E0,8.020575643E-1,7.422025204E-1,-2.717418909E0
9.155512107E0,7.110779285E-1,9.193734527E-1,-2.798821688E0
9.160512073E0,7.206547260E-1,1.209071875E0,-3.263296843E0
9.165512073E0,9.121908545E-1,1.391031146E0,-4.367023945E0
9.170512073E0,1.048660398E0,1.307234168E0,-4.941931725E0
9.175512106E0,1.414973259E0,1.007958889E0,-5.638644218E0
9.180512106E0,1.656787634E0,8.044517636E-1,-5.818209171E0
9.185512106E0,2.243366957E0,4.261679053E-1,-6.004957199E0
9.190512072E0,2.523488522E0,-1.197100878E-1,-6.105513573E0
9.195512038E0,2.698265314E0,-1.268926859E-1,-5.497386456E0
9.200512004E0,3.009511471E0,-3.112462163E-2,-5.083189487E0
9.205512004E0,2.810792685E0,2.681505978E-1,-4.613626480E0
9.210512037E0,2.813186884E0,6.200982332E-1,-4.809951305E0
9.215512070E0,3.122039080E0,1.053448796E0,-5.425560474E0
9.220512103E0,2.868253708E0,1.371877551E0,-4.973056316E0
9.225512103E0,2.106897593E0,1.884236693E0,-3.847482204E0
9.230512103E0,1.793257117E0,2.030282974E0,-3.191470861E0
9.235512069E0,1.661576033E0,2.209848166E0,-2.686294317E0
9.240512069E0,1.280897856E0,3.169923067E0,-4.417302132E0
9.245512069E0,3.543418646E-1,6.344933987E0,-8.387187958E0
9.250512102E0,-9.816227108E-2,9.258677483E0,-8.832509041E0
9.255512135E0,3.040636182E-1,8.729558945E0,-6.505345345E0
9.260512135E0,6.823474765E-1,7.273883820E0,-5.289090633E0
9.265512135E0,1.240196466E0,4.565742493E0,-3.478775024E0
9.270512135E0,1.405396342E0,3.033453465E0,-2.451662540E0
9.275512135E0,1.230619669E0,1.328781962E0,-8.762778044E-1
9.280512135E0,9.552865028E-1,7.086837292E-1,-4.165911078E-1
9.285512101E0,7.062895298E-1,2.154781520E-1,3.040636182E-1
9.290512101E0,4.955997467E-1,9.576806799E-3,6.033388376E-1
9.295512101E0,4.596867263E-1,-4.381389022E-1,7.924807668E-1
9.300512134E0,5.698199868E-1,-4.572925270E-1,3.280056417E-1
9.305512134E0,9.552865028E-1,-6.536170840E-1,7.182604820E-2
9.310512134E0,1.228225470E0,-8.810662031E-1,-2.633621916E-2
9.315512100E0,1.369483352E0,-1.357512355E0,-4.572925270E-1
9.320512100E0,1.393425345E0,-1.616086125E0,-7.445967197E-1
9.325512100E0,1.625662923E0,-2.006340981E0,-1.168370485E0
9.330512133E0,1.874659896E0,-2.355894566E0,-1.460463047E0
9.335512133E0,2.061407566E0,-2.736572504E0,-1.807622313E0
9.340512133E0,2.348711967E0,-3.260902643E0,-2.353500366E0
9.345512133E0,2.904166698E0,-3.974374771E0,-2.985569477E0
9.350512133E0,3.416525841E0,-4.879383087E0,-3.689464808E0
9.355512133E0,4.137180328E0,-6.194098949E0,-4.826710701E0
9.360512099E0,4.647145271E0,-7.010521889E0,-5.521328449E0
9.365512099E0,4.963479519E0,-8.226776123E0,-6.828562737E0
9.370512099E0,5.131073475E0,-8.971372604E0,-7.570765018E0
9.375511265E0,5.746383190E0,-1.479676533E1,-9.797372818E0
9.380510431E0,5.839757442E0,-1.556051540E1,-9.996091843E0
9.385509564E0,5.971438408E0,-1.644158173E1,-1.041268253E1
9.390508664E0,5.971438408E0,-1.644158173E1,-1.041268253E1
9.395508630E0,6.012139797E0,-2.201049423E1,-1.262013626E1
9.400508596E0,5.284302235E0,-2.730916214E1,-1.408059978E1
9.405508562E0,2.647987127E0,-3.953186035E1,-1.697548866E1
9.410508562E0,-1.113303781E0,-4.821832275E1,-1.913745308E1
9.415508595E0,-8.722375870E0,-6.424571228E1,-2.045186996E1
9.420508628E0,-1.207665253E1,-7.285525513E1,-2.068410683E1
9.425508661E0,-1.584063721E1,-7.822096252E1,-1.875916862E1
9.430508661E0,-1.793077469E1,-7.722018433E1,-1.626919937E1
9.435508661E0,-1.855805588E1,-7.203883362E1,-1.304151630E1
9.440508627E0,-1.887409019E1,-6.590010071E1,-9.850045204E0
9.445508627E0,-1.872325516E1,-6.032370758E1,-8.198045731E0
9.450508627E0,-1.846468163E1,-5.703886414E1,-7.850886822E0
9.455508660E0,-1.691323853E1,-4.674349594E1,-5.743988991E0
9.460507926E0,-1.662593460E1,-4.541710663E1,-5.471050262E0
9.465507926E0,-1.487098503E1,-3.813364792E1,-7.755118370E0
9.470507892E0,-1.258901215E1,-2.789813614E1,-2.474736595E1
9.475507858E0,-1.119558620E1,-3.533961487E1,-1.430804825E1
9.480507824E0,-9.909899712E0,-4.027406311E1,-4.390965939E0
9.485507824E0,5.746383190E0,-1.759798050E1,6.707086945E1
9.490507857E0,1.166006184E1,-9.869198799E0,7.700949860E1
9.495507890E0,-3.040636182E-1,-1.037916374E1,7.347775269E1
9.500507823E0,-2.142810583E0,-1.107108784E1,6.686257172E1
9.505507856E0,-7.175721645E0,-1.527560520E1,3.032585716E1
9.510507856E0,-9.443030357E0,-1.684859657E1,1.468393803E1
9.515507822E0,-1.020199299E1,-1.670015526E1,9.864110947E-1
9.520507788E0,-9.555558205E0,-1.521096230E1,-4.692635238E-1
9.525508654E0,-8.545205116E0,-1.055154610E1,9.983820915E-1
9.530509520E0,-7.599495411E0,-6.115090370E0,1.896207690E0
9.535510420E0,-6.924330711E0,-3.112462282E0,4.422090530E0
9.540511286E0,-7.096713066E0,-4.357447028E-1,1.302475643E1
9.545511286E0,-9.761459351E0,4.788403511E0,4.307767487E1
9.550511286E0,-1.032170296E1,6.268319130E0,5.334431076E1
9.555511286E0,-5.698499203E0,1.848323703E0,2.923170662E1
9.560511286E0,-3.361459255E0,-9.074024558E-1,1.383160210E1
9.565511252E0,-1.716642618E0,-2.643198729E0,1.410184860E0
9.570511252E0,-1.156399369E0,-2.612074137E0,-7.661445141E-1
9.575511252E0,-7.015010715E-1,-2.267308950E0,-1.240196466E0
9.580511285E0,-1.987187415E-1,-1.874659896E0,-1.340752959E0
9.585511285E0,2.082955539E-1,-1.455674648E0,-1.335964561E0
9.590511285E0,5.578489900E-1,-1.137245774E0,-1.225831270E0
9.595511251E0,9.624691010E-1,-6.751648784E-1,-1.182735682E0
9.600511251E0,1.082179189E0,-5.075707436E-1,-1.063025594E0
9.605511251E0,1.144428372E0,-3.495534360E-1,-9.528923035E-1
9.610512017E0,1.223437071E0,-2.585737705E-1,-1.089361787E0
9.615512017E0,1.355118155E0,-8.379705995E-2,-1.323993564E0
9.620512017E0,1.295263171E0,0.000000000E0,-1.510741234E0
9.625512017E0,8.140285611E-1,1.005564705E-1,-1.493981838E0
9.630512017E0,4.884171486E-1,2.489969730E-1,-6.344634295E-1
9.635512017E0,-1.101332754E-1,5.339069963E-1,3.356670856E0
9.640511983E0,-1.268926859E0,7.948749661E-1,8.353669167E0
9.645511949E0,-2.315192938E0,-8.619125932E-2,8.698433876E0
9.650512049E0,-2.461239338E0,-8.307880163E-1,6.234800339E0
9.655512049E0,-2.243366957E0,-1.924938202E0,2.820369720E0
9.660512082E0,-2.272097349E0,-2.454056740E0,2.140416384E0
9.665512082E0,-2.873042107E0,-3.794809580E0,3.301604033E0
9.670512082E0,-3.895366192E0,-5.739200592E0,5.119102478E0
9.675512048E0,-4.539406300E0,-7.419930458E0,5.957073212E0
9.680512014E0,-4.338293552E0,-7.824550629E0,6.581959724E0
9.685511314E0,-3.797203779E0,-7.752724171E0,6.802226067E0
9.690511314E0,-3.186682463E0,-7.877223015E0,6.711246490E0
9.695510447E0,-2.693476915E0,-8.686463356E0,5.755959988E0
9.700509580E0,-2.736572504E0,-1.004158115E1,4.697423935E0
9.705508946E0,-3.102885485E0,-1.530194187E1,2.664746523E0
9.710508046E0,-3.315969467E0,-1.999697113E1,2.942473888E0
9.715508046E0,-4.764461517E0,-2.963153839E1,3.878606796E0
9.720507346E0,-6.711246490E0,-3.951510239E1,4.489128113E0
9.725506446E0,-7.436689854E0,-4.906587219E1,4.707000732E0
9.730505779E0,-8.988132477E0,-5.690718079E1,3.507505417E0
9.735505145E0,-1.586936760E1,-6.332843018E1,-1.206677675E0
9.740504245E0,-2.089958572E1,-6.870371246E1,-9.962572098E0
9.745504245E0,-2.683989906E1,-6.844035339E1,-1.439663410E1
9.750503545E0,-2.977040100E1,-6.332364273E1,-1.450437355E1
9.755502845E0,-3.076638985E1,-5.054069901E1,-1.228973675E1
9.760502811E0,-2.791968346E1,-4.215830231E1,-7.664138794E0
9.765502144E0,-2.014780617E1,-3.048866272E1,-7.469909191E-1
9.770502144E0,-1.328811836E1,-2.389233780E1,3.864241600E0
9.775502177E0,-8.545205116E0,-1.902013779E1,5.365705490E0
9.780502210E0,-5.494992256E0,-1.531630707E1,5.332186222E0
9.785502243E0,-2.889801502E0,-1.216044998E1,3.763684988E0
9.790501843E0,-1.821987510E0,-1.082687950E1,2.463633537E0
9.795500943E0,-6.129156351E-1,-9.198822021E0,5.889736414E-1
9.800500009E0,-1.867477298E-1,-8.590695381E0,-1.819593310E-1
9.805500009E0,2.873041928E-1,-7.963414192E0,-1.726219416E0
9.810500009E0,5.243301988E-1,-7.568370819E0,-2.475604534E0
9.815500042E0,7.805097699E-1,-7.190086842E0,-2.863465309E0
9.820500042E0,1.015141487E0,-6.993762493E0,-3.282450438E0
9.825500042E0,1.292868972E0,-6.639420509E0,-3.643975019E0
9.830500042E0,1.594538331E0,-6.162974358E0,-3.902548790E0
9.835500708E0,1.975216389E0,-5.217264652E0,-3.967192173E0
9.840500708E0,1.946485996E0,-4.661510944E0,-3.945644379E0
9.845501574E0,1.771709204E0,-3.895366192E0,-3.924096584E0
9.850502474E0,1.568202138E0,-3.359065056E0,-3.976768970E0
9.855503140E0,1.395819545E0,-2.166752577E0,-3.699041605E0
9.860504073E0,1.309628367E0,-1.268926859E0,-3.292027235E0
9.865504073E0,1.192312479E0,-6.584054828E-1,-3.086126089E0
9.870504739E0,9.361328483E-1,-1.891419291E-1,-3.066972494E0
9.875505605E0,6.440402865E-1,-5.506663769E-2,-3.138798475E0
9.880506238E0,5.434837937E-1,2.322375625E-1,-3.390189648E0
9.885506871E0,5.219359994E-1,5.434837937E-1,-3.253720045E0
9.890507771E0,5.315127969E-1,5.770025849E-1,-3.177105665E0
9.895507771E0,4.357447028E-1,7.086837292E-1,-3.567360640E0
9.900508471E0,3.974374831E-1,8.547300100E-1,-3.981557369E0
9.905509171E0,3.830722570E-1,5.793967843E-1,-5.250783443E0
9.910509204E0,1.170764685E0,1.915361360E-2,-6.124667168E0
9.915509870E0,1.726219416E0,-2.274491638E-1,-7.575553417E0
9.920509870E0,2.418143749E0,-8.236053586E-1,-8.918700218E0
9.925509836E0,2.868253708E0,-1.321599364E0,-9.227552414E0
9.930509836E0,2.978386879E0,-1.379060149E0,-8.703222275E0
9.935509836E0,3.428496838E0,-1.391031146E0,-8.470984459E0
9.940510269E0,3.383007050E0,-1.137245774E0,-8.418312073E0
9.945511169E0,2.801215887E0,-4.070142806E-1,-8.063970566E0
9.950512069E0,2.578555346E0,1.077390760E-1,-7.554005623E0
9.955512035E0,2.169146776E0,9.648633003E-1,-6.258742332E0
9.960512001E0,1.771709204E0,1.625662923E0,-4.675876141E0
9.965511967E0,1.515529633E0,2.063801765E0,-3.567360640E0
9.970511967E0,1.264138460E0,2.406172752E0,-2.913743496E0
9.975512000E0,1.094150186E0,2.829946518E0,-2.367865562E0
9.980512033E0,1.170764685E0,3.031059265E0,-2.207453966E0
9.985512066E0,1.194706678E0,3.292027235E0,-2.765302896E0
9.990512066E0,8.427590132E-1,5.360917091E0,-5.988197803E0
9.995512066E0,3.351882473E-2,9.433453560E0,-8.696040154E0
1.000051203E1,2.633621991E-1,8.933065414E0,-6.869264126E0
1.000551200E1,6.560112834E-1,5.868487835E0,-4.639962673E0
1.001051200E1,7.948749661E-1,3.162740469E0,-2.224213362E0
1.001551203E1,4.764461517E-1,1.960851192E0,-3.447650373E-1
1.002051206E1,2.849099934E-1,1.493981838E0,7.733271718E-1
1.002551206E1,1.747767180E-1,1.077390790E0,6.703764796E-1
1.003051206E1,1.053448766E-1,7.924807668E-1,6.200982332E-1
1.003551206E1,3.663128614E-1,5.075707436E-1,4.884171486E-1
1.004051206E1,5.171475410E-1,2.729389966E-1,3.327940404E-1
1.004551206E1,5.626373887E-1,-1.508347094E-1,3.016694188E-1
1.005051203E1,6.272808313E-1,-3.687070608E-1,1.268926859E-1
1.005551203E1,6.272808313E-1,-4.716577232E-1,-1.029506698E-1
1.006051203E1,4.716577232E-1,-5.578489900E-1,-4.932055473E-1
1.006551206E1,4.836287498E-1,-7.900865674E-1,-7.541735172E-1
1.007051206E1,5.339069963E-1,-1.003170490E0,-9.528923035E-1
1.007551206E1,6.200982332E-1,-1.288080573E0,-1.010353088E0
1.008051203E1,7.565677166E-1,-1.414973259E0,-1.175553083E0
1.008551203E1,1.201889277E0,-1.807622313E0,-1.584961534E0
1.009051196E1,1.594538331E0,-2.109291792E0,-2.080561161E0
1.009551200E1,2.394201756E0,-2.978386879E0,-2.882618904E0
1.010051200E1,3.066972494E0,-4.118026733E0,-3.581725836E0
1.010551200E1,3.730166197E0,-5.621884823E0,-4.671087742E0
1.011051200E1,3.904942989E0,-7.214028835E0,-5.691316605E0
1.011551200E1,4.695029736E0,-8.856451035E0,-6.677727699E0
1.012051200E1,5.157409668E0,-1.054436398E1,-8.229170799E0
1.012551196E1,5.255571842E0,-1.365203762E1,-1.066167927E1
1.013051193E1,5.480627060E0,-1.654453278E1,-1.211017132E1
1.013551193E1,5.279513836E0,-2.418682480E1,-1.574486923E1
1.014051196E1,4.496310711E0,-3.034740448E1,-1.675761604E1
1.014551199E1,3.023876667E0,-4.399944305E1,-1.919970131E1
1.015051199E1,-1.364694983E-1,-5.812104034E1,-1.973360825E1
1.015551199E1,-4.041412354E0,-7.127987671E1,-1.990359688E1
1.016051196E1,-7.467814445E0,-7.780677032E1,-1.947264099E1
1.016551196E1,-1.062816048E1,-7.841489410E1,-1.885733032E1
1.017051196E1,-1.092982960E1,-7.705498505E1,-1.858199883E1
1.017551199E1,-1.195454884E1,-6.864385986E1,-1.468872643E1
1.018051199E1,-1.259140587E1,-6.361573410E1,-1.129135418E1
1.018551199E1,-1.360175896E1,-5.673479843E1,-8.147768021E0
1.019051199E1,-1.402074432E1,-5.299954605E1,-7.386411667E0
1.019551199E1,-1.318277359E1,-4.598692703E1,-6.237194538E0
1.020051199E1,-1.217720890E1,-4.053503036E1,-5.370493889E0
1.020551196E1,-1.118840408E1,-3.512174225E1,-5.585971832E0
1.021051196E1,-8.494926453E0,-2.569786453E1,-2.366488838E1
1.021551196E1,-6.577171326E0,-3.002179337E1,-1.349162579E1
1.022051199E1,-5.523722649E0,-3.136972809E1,-6.675333500E0
1.022551199E1,4.285621047E-1,-1.722687912E1,6.549069214E1
1.023051199E1,4.338293552E0,-9.378387451E0,7.681317139E1
1.023551206E1,3.687070608E-1,-7.077559471E0,7.837898254E1
1.024051209E1,-5.961861610E0,-8.657732964E0,6.442048645E1
1.024551206E1,-9.593865395E0,-1.218199730E1,3.340480042E1
1.025051206E1,-1.053718090E1,-1.583345413E1,9.921871185E0
1.025551206E1,-1.024030018E1,-1.626919937E1,-9.552865028E-1
1.026051209E1,-9.316138268E0,-1.461450672E1,-2.202665567E0
1.026551212E1,-7.944260597E0,-1.157626438E1,-4.764461517E-1
1.027051216E1,-7.539640427E0,-7.721599579E0,5.083189487E0
1.027551216E1,-8.787019730E0,5.698199868E-1,2.107915115E1
1.028051216E1,-9.881169319E0,3.426102638E0,3.189405823E1
1.028551212E1,-1.101362705E1,5.214870453E0,4.639154816E1
1.029051212E1,-8.595483780E0,2.911349297E0,3.593577194E1
1.029551212E1,-4.683058739E0,-7.015010715E-1,1.614948845E1
1.030051215E1,-2.293645144E0,-3.035847664E0,3.454833031E0
1.030551215E1,-1.572990537E0,-3.385401249E0,-7.972691655E-1
1.031051215E1,-1.137245774E0,-3.007117271E0,-1.479616642E0
1.031551212E1,-5.099649429E-1,-2.372653961E0,-1.326387763E0
1.032051209E1,-1.939303428E-1,-2.059013367E0,-1.122880578E0
1.032551205E1,2.178723514E-1,-1.570596337E0,-8.044517636E-1
1.033051205E1,4.620809257E-1,-1.276109457E0,-5.793967843E-1
1.033551209E1,1.017535686E0,-8.427590132E-1,5.985504389E-2
1.034051212E1,1.704671621E0,-5.482721925E-1,1.115697980E0
1.034551215E1,2.552218914E0,-2.250549644E-1,3.406949043E0
1.035051215E1,3.718195200E0,1.149216816E-1,7.474997044E0
1.035551215E1,5.219658852E0,4.285621047E-1,1.223227596E1
1.036051212E1,4.800374508E0,2.633621991E-1,1.157626438E1
1.036551212E1,2.858676910E0,-5.841852427E-1,6.682516098E0
1.037051212E1,1.541865945E0,-1.108515382E0,3.684676409E0
1.037551215E1,-2.896983922E-1,-2.049436569E0,1.149216771E0
1.038051218E1,-8.906430602E-1,-2.676717520E0,5.027823448E-1
1.038551208E1,-1.539471745E0,-3.596091032E0,4.309562966E-2
1.039051208E1,-1.843535304E0,-4.520252705E0,-5.291185975E-1
1.039551208E1,-2.157175779E0,-5.660192013E0,-1.302445769E0
1.040051208E1,-2.300827742E0,-6.162974358E0,-1.642422318E0
1.040551208E1,-2.485181332E0,-6.605901718E0,-1.735796213E0
1.041051205E1,-2.590526342E0,-6.852504730E0,-1.453280449E0
1.041551205E1,-3.205836058E0,-8.023268700E0,-5.386953950E-1
1.042051205E1,-3.773261786E0,-9.577106476E0,4.237737060E-1
1.042551208E1,-5.068824291E0,-1.391539955E1,2.715024710E0
1.043051208E1,-6.335357189E0,-1.735856056E1,5.049670696E0
1.043551208E1,-7.300220490E0,-2.438793755E1,1.012777233E1
1.044051205E1,-7.549217224E0,-3.215742111E1,1.237832165E1
1.044528872E1,-7.336133480E0,-4.070741272E1,1.044141293E1
1.045028872E1,-7.269095421E0,-4.911854553E1,5.892429829E0
1.045528876E1,-7.441478252E0,-5.776430511E1,9.672574997E-1
1.046028876E1,-8.925883293E0,-6.184642029E1,-2.154781520E-1
1.046528876E1,-1.002961063E1,-6.613473511E1,-4.417302132E0
1.047028876E1,-1.216763210E1,-6.688890839E1,-9.459790230E0
1.047528876E1,-1.748545265E1,-6.137476349E1,-1.487337971E1
1.048028876E1,-1.736334991E1,-5.249676132E1,-1.321389866E1
1.048528872E1,-1.775839233E1,-4.390846252E1,-9.498097420E0
1.049028872E1,-1.702576637E1,-3.597407913E1,-5.123890877E0
1.049528872E1,-1.406862831E1,-2.908087158E1,-7.422025502E-2
1.050028876E1,-1.109024143E1,-2.354517746E1,3.232172251E0
1.050528879E1,-8.293813705E0,-1.820850182E1,4.003105164E0
1.051028879E1,-6.830956936E0,-1.581190681E1,3.505111217E0
1.051528875E1,-4.855441093E0,-1.295771885E1,1.331176162E0
1.052028872E1,-3.816357613E0,-1.185159779E1,-2.178723514E-1
1.052528872E1,-2.410961151E0,-1.031451988E1,-2.370259762E0
1.053028872E1,-1.412579060E0,-9.435848236E0,-3.646369219E0
1.053528875E1,-7.709329724E-1,-8.662521362E0,-4.352658749E0
1.054028875E1,-2.274491638E-1,-7.949048996E0,-4.338293552E0
1.054528875E1,4.644751251E-1,-7.386411667E0,-3.718195200E0
1.055028875E1,9.983820915E-1,-6.926724911E0,-3.636792421E0
1.055528875E1,1.438915253E0,-6.246771336E0,-3.768473387E0
1.056028875E1,1.697489023E0,-5.700893402E0,-3.711012602E0
1.056528872E1,1.920149803E0,-4.980238914E0,-3.885789394E0
1.057028872E1,2.023100376E0,-4.546588898E0,-3.926490784E0
1.057528872E1,1.984793186E0,-3.497928619E0,-3.840299606E0
1.058028875E1,2.013523579E0,-2.705447912E0,-3.648763418E0
1.058528875E1,1.814804912E0,-1.953668594E0,-3.409343243E0
1.059028875E1,1.572990537E0,-1.266532660E0,-3.263296843E0
1.059528872E1,1.307234168E0,-5.841852427E-1,-3.339911461E0
1.060028868E1,1.142034173E0,-1.173158810E-1,-3.447650433E0
1.060528865E1,9.337386489E-1,2.873041928E-1,-3.416525841E0
1.061028865E1,8.355764151E-1,5.937620401E-1,-3.301604033E0
1.061528868E1,5.961562395E-1,9.768342972E-1,-3.191470861E0
1.062028872E1,6.368576288E-1,1.003170490E0,-3.224989653E0
1.062528875E1,7.134721279E-1,1.240196466E0,-3.842693806E0
1.063028878E1,9.600749016E-1,8.307880163E-1,-4.673481941E0
1.063528878E1,1.441309452E0,3.160346150E-1,-5.849334240E0
1.064028875E1,1.515529633E0,2.226607651E-1,-7.135020256E0
1.064528871E1,1.941697598E0,-3.663128614E-1,-8.511686325E0
1.065028871E1,2.219424963E0,-7.278373241E-1,-9.581894875E0
1.065528871E1,2.609679937E0,-8.427590132E-1,-1.158344746E1
1.066028875E1,2.925714493E0,-8.858546019E-1,-1.204792213E1
1.066528875E1,2.413355350E0,-7.541735172E-1,-1.242860031E1
