Time (s),Acceleration x (m/s^2),Acceleration y (m/s^2),Acceleration z (m/s^2)
6.004509585,-1.2793743944943266,1.878459076272855,-0.8021362801497945
6.009509618,-1.3074986288372477,1.9250131106836248,-0.6406907584338059
6.014509618,-1.3283286418066866,1.9685433376052484,-0.4711370815742357
6.019509618,-1.3408054769829425,2.009197889516667,-0.2944744987024174
6.024508918,-1.3439075057226186,2.047094557011193,-0.11175553451446273
6.029508884,-1.3366660606064564,2.082315192358612,0.0759229214831643
6.034508184,-1.3181811183781236,2.1149011221930314,0.26742834663675313
6.039508184,-1.2876368201818342,2.1448496747692682,0.4616010179082608
6.044508217,-1.2443166070505718,2.172111899696873,0.6572620465892234
6.04950825,-1.18761774065354,2.196591528698716,0.8532209393908371
6.054508116,-1.1170649736232852,2.218145195637042,1.0482826361981503
6.059508116,-1.032323130833636,2.2365839036725723,1.2412540022211247
6.064508116,-0.9332083633872711,2.251675697893108,1.43094978049523
6.069508082,-0.8196978414765942,2.2631494739131557,1.6161980386938022
6.074508082,-0.6919376614450106,2.270699827275207,1.7958451708574859
6.079508082,-0.5502487569808112,2.2739928250621833,1.9687605386946834
6.084508115,-0.3951306248331808,2.272672560013597,2.133840857333521
6.089508148,-0.22726270176034918,2.2663683289160077,2.290014445606939
6.094508148,-0.04750326123500094,2.2547022616454244,2.4362454700186134
6.099508114,0.14311426492065712,2.237297215667457,2.5715383135886913
6.10450808,0.3433875941546401,2.2137847437913107,2.6949421952727266
6.109508046,0.5519545405012103,2.1838129411797604,2.805556152411153
6.114508012,0.7673045660984605,2.147053981499648,2.902534477905175
6.119508012,0.9877928541884944,2.1032111618807185,2.9850926761279895
6.124508045,1.2116567732468815,2.0520252920404776,3.052513967937608
6.129508078,1.4370345546610614,1.993280284371504,3.1041563368289693
6.134508111,1.6619859602986662,1.9268078286935941,3.1394600667434176
6.139508111,1.8845146720838652,1.8524910673413753,3.157955678990767
6.144508111,2.102592094124657,1.770267222730971,3.1592721328730686
6.149508077,2.3141822199954873,1.680129169731254,3.1431451137218356
6.154508077,2.5172671846817525,1.5821259878379208,3.1094251949522222
6.159508077,2.7098730937916584,1.4763625714209148,3.058085629043439
6.16450811,2.8900957033745405,1.3629984175080616,2.9892294974802827
6.16950811,3.056125513505486,1.2422457464383863,2.903095932894713
6.174508776,3.206271839011401,1.1143671379846014,2.8000651193040316
6.179508776,3.3389854321955696,0.9796728814668578,2.6806617800488
6.184509042,3.4528792553751533,0.83851824120057,2.5455568793670436
6.189509042,3.5467470350931802,0.6913008277199764,2.3955672937032477
6.194509008,3.619579274275945,0.538458241042969,2.2316532533702365
6.199509008,3.670576452386671,0.38046611620333814,2.0549134135272835
6.204509174,3.6991592052942392,0.21783665572168662,1.866577483460141
6.209509207,3.704975343891905,0.051117681836575814,1.6679964208638265
6.21450924,3.687903640546849,-0.11910781298549665,1.4606302781175367
6.21950924,3.6480543821467344,-0.29222169144660626,1.2460338654108936
6.22450854,3.585766755068802,-0.4675703941802518,1.0258404670166195
6.229508506,3.501603188346354,-0.6444645200416065,0.8017439090770143
6.234508506,3.3963408340316126,-0.8221784522188629,0.5754793278804093
6.239508506,3.2709604056270045,-0.9999502353237701,0.3488030251365044
6.244508539,3.1266326249174523,-1.1769819144219997,0.1234718197783072
6.249508539,2.9647025452366735,-1.3524405421576844,-0.09877768690168506
6.254507672,2.7866720280326662,-1.5254600450177722,-0.3162495247426242
6.259506805,2.5941806534631366,-1.6951441147215909,-0.5273080620272073
6.264505938,2.388985347940443,-1.8605702566513593,-0.7303966558669475
6.269505071,2.172939013683601,-2.0207950859233588,-0.9240549353897693
6.274505037,1.9479684473807444,-2.1748609152535368,-1.1069344509261316
6.279505037,1.7160518361490744,-2.321803629010105,-1.2778124671039297
6.284505037,1.479196118319916,-2.4606617861785023,-1.4356037230091327
6.28950507,1.2394144938027454,-2.590486842783497,-1.5793700278084337
6.29450507,0.9987043636754585,-2.7103543332835107,-1.7083276049281826
6.29950467,0.7590259708133037,-2.819375802454599,-1.8218521416972222
6.304504636,0.5222820021382811,-2.9167112362012775,-1.919481544107202
6.309504636,0.29029839760816006,-3.001581703319644,-2.0009164379092486
6.314504636,0.06480659059747113,-3.073281892089592,-2.0660184976849725
6.319504669,-0.1525726215220909,-3.1311922070720257,-2.1148067248562925
6.324504669,-0.36034340870133896,-3.1747900836739715,-2.1474518333062576
6.329504669,-0.5571473084359386,-3.203660181573948,-2.1642689357109886
6.334505069,-0.7417735991871213,-3.217503133390277,-2.165708752179654
6.339504202,-0.9131675892022482,-3.2161425524134977,-2.1523475826190013
6.344504202,-1.0704367998846014,-3.1995300431584965,-2.1248762936939714
6.349504168,-1.2128550577292616,-3.1677480107071565,-2.0840885704342473
6.354504134,-1.339864540980162,-3.1210101277410676,-2.0308686731254717
6.359504134,-1.4510758562104964,-3.0596593887969186,-1.9661789245021244
6.364504134,-1.5462662456476794,-2.9841637560373564,-1.891047132519583
6.369504167,-1.6253760478682011,-2.895109476331708,-1.8065541315049292
6.374504833,-1.6885035522001026,-2.7931922224557924,-1.7138216001347795
6.379504266,-1.7358984007343221,-2.679206278432494,-1.6140002892286036
6.384504232,-1.7679537013470485,-2.554032047202251,-1.5082587666569196
6.389504232,-1.7851970207123091,-2.418622205336071,-1.3977727616395044
6.394504232,-1.7882804281073685,-2.27398686298141,-1.2837151670246887
6.399504265,-1.777969759085046,-2.121178107358489,-1.1672467361863104
6.404505131,-1.7551332630958902,-1.961274315016971,-1.0495074912273505
6.409505997,-1.7207297913408852,-1.7953646119507072,-0.9316088416017755
6.414506863,-1.6757966710828516,-1.6245338422254794,-0.8146263975337648
6.419507729,-1.621437400867138,-1.4498483763436798,-0.6995934511475774
6.424507729,-1.5588092880381907,-1.272343051961794,-0.5874950901409847
6.429507695,-1.4891111359864329,-1.0930094938000876,-0.479262903853558
6.434507695,-1.413571074097125,-0.912786008709936,-0.3757702391816538
6.439507695,-1.333434608756194,-0.7325491979560437,-0.27782796351575667
6.444507728,-1.249952959386209,-0.5531073738223665,-0.18618069346084326
6.449508128,-1.164371729845333,-0.37519581353930914,-0.10150345141947686
6.454508128,-1.0779199533076853,-0.19947383199623903,-0.024398717011147816
6.459508094,-0.9917995387969498,-0.026523607351558818,0.04460615356168756
6.46450806,-0.9071751406923269,0.14314934805506144,0.10506116019492893
6.469508026,-0.8251644693016487,0.30911421388614224,0.15659555641658618
6.474508026,-0.7468290610688996,0.47101155445066445,0.19891941740543712
6.479508026,-0.6731655307859825,0.6285488658512622,0.2318248771798458
6.484508059,-0.6050973346415166,0.7814951761845905,0.25518702718234
6.489508959,-0.5434670812004073,0.9296749003891343,0.26896446285464914
6.494508992,-0.48902943645767255,1.0729611480609527,0.27319946027841086
6.499508992,-0.44244467775047175,1.2112686743191599,0.2680177616948898
6.504508992,-0.4042729581490568,1.3445466519593154,0.25362794680040973
6.509508958,-0.3749693466728093,1.4727714289314247,0.23032036620052834
6.514508958,-0.35487970958077636,1.5959394196731447,0.19846561417926678
6.519508958,-0.34423749420074495,1.7140602628136166,0.15851251957729717
6.524508991,-0.34316147001223707,1.8271503617739273,0.11098563543450422
6.529509557,-0.3516544728804231,1.9352269091686596,0.056482209577958055
6.534509557,-0.3696031882565209,2.0383024808407586,-0.004331380637621558
6.539509523,-0.39677899844484865,2.1363802708092576,-0.0707237453614362
6.544509489,-0.4328399081143066,2.2294500241382176,-0.14190316560300167
6.549509455,-0.47733355135652633,2.3174847104682548,-0.21702285495684723
6.554509455,-0.52970127291954,2.4004379665909306,-0.2951868077357699
6.559509488,-0.5892832658854189,2.4782423220847467,-0.37545623599898875
6.564509521,-0.655324738055686,2.550808207756234,-0.45685659097481474
6.569509554,-0.726983069595181,2.6180237324401783,-0.5383851561238706
6.574509554,-0.803335914952927,2.679755199700083,-0.6190191897140418
6.579509554,-0.883390192686984,2.735848322465342,-0.6977245844015202
6.58450952,-0.9660918976155859,2.786130081130015,-0.7734650000448448
6.589509486,-1.050336660762696,2.8304111595852737,-0.8452114138945551
6.594509486,-1.1349809739492078,2.868488884421716,-0.9119520194259317
6.599509519,-1.2188539877914497,2.9001505853427987,-0.9727023915477944
6.604509552,-1.3007697845726314,2.925177289800895,-1.0265158221486872
6.609509552,-1.379540021084462,2.943347662116301,-1.072493716574223
6.614509552,-1.4539868308782666,2.9544420969681298,-1.1097959292489323
6.619509552,-1.5229558698915562,2.9582468791310146,-1.1376509056695843
6.624509552,-1.585329383664205,2.9545583254649785,-1.1553654888713443
6.629509552,-1.6400391683174749,2.9431868310932625,-1.1623342420740517
6.634509518,-1.6860792916138938,2.923960748973043,-1.1580481367839117
6.639509518,-1.7225184353701544,2.8967300401747966,-1.1421024581288561
6.644509518,-1.7485117166378392,2.8613696406555587,-1.1142037866536225
6.649509551,-1.763311842431805,2.8177824987584303,-1.0741759271390376
6.654509551,-1.7662794513332447,2.7659022458568954,-1.0219646687357105
6.659509551,-1.756892495234436,2.7056954703731413,-0.9576412756461339
6.664509517,-1.734754516309361,2.637163572808233,-0.8814046232819445
6.669509517,-1.6996016785131722,2.5603441864680407,-0.7935819113392721
6.674509517,-1.6513084199199595,2.475312155316383,-0.6946279028258475
6.67950955,-1.589891602260709,2.3821800668559203,-0.5851226569078979
6.68450955,-1.515513047306005,2.2810983440579085,-0.4657677435371603
6.68950955,-1.4284803663283152,2.1722549059880905,-0.3373809490423174
6.69450955,-1.329246008714998,2.0558744117447034,-0.20088950395928287
6.69950955,-1.2184044787537722,1.9322171065226008,-0.057321886932975165
6.70450955,-1.0966876955386815,1.8015772920417559,0.09220171890769464
6.709509516,-0.9649584996215849,1.6642814463744307,0.2464802185882022
6.714509482,-0.8242023410082026,1.520686020634924,0.4042435273708597
6.719509482,-0.6755172156501269,1.3711749423182322,0.5641654835853774
6.724509515,-0.5201019508247385,1.2161568574088328,0.7248775973332178
6.729509548,-0.35924297281470685,1.056062145625634,0.8849834677064098
6.734509548,-0.19429972230367307,0.8913397450153203,1.0430736924216764
6.739509548,-0.02668891313009322,0.7224538232320743,1.1977410880380186
6.744509514,0.14213214264483384,0.5498803332635783,1.3475960350310128
6.749509514,0.31068289770752,0.37410349163814416,1.491281758970694
6.754509514,0.4774773585385345,0.19561221810073368,1.627489356652688
6.759509547,0.6410420295811772,0.014896577902917502,1.7549723748962234
6.764509547,0.7999337397921923,-0.1675557288635996,1.8725607510474749
6.769509547,0.9527570835073288,-0.3512627825219994,1.979173929224593
6.77450888,1.0981812177837604,-0.5357517111436558,2.073832975744565
6.77950888,1.2349557733060537,-0.7205617533220877,2.1556715310065857
6.78450888,1.3619256547488312,-0.9052470557475092,2.223945452710363
6.789508846,1.4780445283663557,-1.0893791412819864,2.2780410254872927
6.794508846,1.5823868186887702,-1.2725489803071401,2.3174816334186175
6.799508846,1.6741580617196536,-1.4543685964131357,2.341932813245094
6.804508879,1.752703488251021,-1.634472137601791,2.3512056265204877
6.809508879,1.8175147374315477,-1.8125163468685335,2.345258308289
6.814508879,1.8682346275542059,-1.9881803723754643,2.3241961683908836
6.819508845,1.9046599385619944,-2.1611648686468063,2.2882697400064296
6.824508845,1.926742189470286,-2.3311903572588024,2.237871189682904
6.829508845,1.934586423887394,-2.497994838560614,2.173529025124977
6.834508878,1.9284480476057035,-2.661330674210926,2.0959011623654873
6.839508911,1.9087277928673323,-2.8209607918992097,2.005766442428543
6.844508911,1.875964913261267,-2.9766542960476046,1.9040147176615092
6.849508911,1.830828740310996,-3.1281815989045305,1.7916356567637404
6.854508911,1.77410875686663,-3.275309212745973,1.6697064420484418
6.859508911,1.706703362629841,-3.4177943636752013,1.5393785500444588
6.864508911,1.6296075226544944,-3.5553795989429235,1.4018638155320708
6.869508877,1.5438994997780484,-3.6877875616170055,1.25841997887315
6.874508877,1.4507268765387797,-3.814716098547377,1.1103359076269361
6.879508877,1.3512920720558976,-3.9358338507937938,0.9589166681092665
6.88450891,1.2468375561686138,-4.050776452197908,0.805468604245155
6.88950891,1.1386309582650027,-4.159143434996493,0.6512845634656276
6.89450891,1.0279502620342693,-4.26049591538782,0.49762939534823475
6.899508876,0.916069269035976,-4.3543551102361215,0.3457258399965307
6.904508842,0.8042435021909249,-4.440201719987656,0.1967409208805309
6.909508808,0.693696704054327,-4.517476201538705,0.051772961576264896
6.914508808,0.5856080639126435,-4.58557994668923,-0.08816064256303437
6.919508841,0.4811002834494891,-4.643877376095671,-0.22213474937264902
6.924509541,0.38122856513939984,-4.691698955286719,-0.34932672212638743
6.929509574,0.28697058316342927,-4.728345138335406,-0.46902541889362653
6.934509574,0.19921747534493736,-4.753091245430849,-0.5806387128990331
6.939509574,0.11876587713828125,-4.765193281006829,-0.6836993320698362
6.94450954,0.04631100514182038,-4.763894696612361,-0.7778688150612901
6.94950954,-0.01755921214673638,-4.748434094890309,-0.8629394072857267
6.95450954,-0.07236896484860805,-4.71805385680231,-0.9388337628112657
6.959509573,-0.11775836532936428,-4.672009654547789,-1.0056023726125403
6.964509606,-0.15348623762307095,-4.609580789985735,-1.0634187017664545
6.969509606,-0.17943190344560264,-4.530081275685205,-1.1125720836152322
6.974508906,-0.19559597008233037,-4.432871555077707,-1.15345848434692
6.979508872,-0.20210011599316707,-4.317370740151156,-1.186569313935801
6.984508838,-0.19918585773215702,-4.183069228949887,-1.212478516181296
6.989508804,-0.1872122693921212,-4.029541549393645,-1.231828219316252
6.994508804,-0.16665261660531389,-3.856459259395062,-1.245313267551413
6.999508837,-0.13808986392051867,-3.663603715793871,-1.2536649817728232
7.00450887,-0.10221101824626316,-3.4508785074016437,-1.2576345137276552
7.009508903,-0.05980028119874072,-3.21832133226865,-1.2579761623389025
7.014508903,-0.011730997625627494,-2.9661150875393134,-1.25543101379384
7.019508903,0.0410435956754443,-2.694597932523186,-1.250711249659339
7.024508203,0.09750079896044644,-2.404272082093403,-1.2444854406085044
7.029507803,0.15656001473719897,-2.095811088710231,-1.237365108823627
7.034508069,0.2170953863297564,-1.7700653780609512,-1.2298928017151163
7.039508102,0.2779494236148991,-1.4280658163737945,-1.2225318756842916
7.044508102,0.3379475045898539,-1.071025107619774,-1.2156581437189042
7.049507702,0.39591311511619426,-0.7003368464975493,-1.209553496599189
7.054507702,0.4506836624530863,-0.31757208828410455,-1.2044015656026055
7.059507702,0.5011266718563041,0.07552666125319654,-1.2002854553985631
7.064507702,0.5461561504635787,0.4770540847433294,-1.197187539536377
7.069507668,0.5847488799423951,0.8849533174500473,-1.1949912775071656
7.074507668,0.6159603801809377,1.2970297784547247,-1.1934849815025874
7.079507668,0.6389402719781947,1.710967454641772,-1.1923674323270705
7.084507701,0.6529467583698935,2.124347468843588,-1.1912552173272282
7.089507734,0.6573599427232818,2.534668712230372,-1.1896916389420724
7.094507734,0.651693707620447,2.9393702747437604,-1.1871570209876954
7.0995077,0.6356058922442263,3.3358553674564764,-1.1830802214209126
7.104507666,0.608906527613626,3.7215163982086583,-1.1768511452477655
7.109507666,0.5715639182241957,4.093760837378728,-1.1678340394839994
7.114507999,0.5237083945271972,4.450037494485719,-1.1553813435863154
7.119508032,0.46563360192515363,4.787862818526855,-1.1388478634881753
7.124508698,0.39779523711349996,5.104846835475226,-1.1176050352533424
7.129508698,0.32080719028159005,5.3987183451128615,-1.0910550453745196
7.134508698,0.23543510069741796,5.667349016140712,-1.0586445788004069
7.139508698,0.14258738246355912,5.908776042813707,-1.0198779726666567
7.144508698,0.04330382573883757,6.1212230573821484,-0.9743295631376692
7.149508664,-0.06125807449493536,6.303119029234725,-0.9216550244483617
7.154508664,-0.16983886591162708,6.453114922427557,-0.8616015130263425
7.159508664,-0.2810947257644759,6.570097926658478,-0.7940164455544371
7.164508697,-0.3936166142234724,6.653203121009304,-0.7188547582486391
7.169508697,-0.5059506899988292,6.701822473261808,-0.636184515753763
7.174509363,-0.6166196588677513,6.7156111188460885,-0.5461907620154316
7.179509729,-0.7241447068226544,6.694490901442192,-0.4491775320308268
7.184509462,-0.8270676572732845,6.638651191315192,-0.34556797182932997
7.189509462,-0.9239729861730417,6.54854702742221,-0.2359025433961675
7.194509495,-1.0135093301741485,6.424894655331472,-0.12083532046971508
7.199509895,-1.094410130932195,6.268664555439992,-0.0011284092757418848
7.204509895,-1.1655130732806491,6.08107207541236,0.122355445409509
7.209509895,-1.225777995750373,5.863565797762893,0.24866198434531664
7.214509895,-1.274302978072013,5.617813788590136,0.376756181571931
7.219509895,-1.3103383407634956,5.34568788706232,0.5055344890337965
7.224509861,-1.3332983254267738,5.04924620762696,0.6338384318799699
7.229509827,-1.3427702600236426,4.730714038249892,0.7604693888612925
7.234509827,-1.3385210508550247,4.392463328394369,0.8842043723538867
7.239509827,-1.320500882484967,4.036990969980319,1.003812602066451
7.24450986,-1.288844048975107,3.666896083120636,1.1180726458545658
7.24950986,-1.2438668850652743,3.2848565257041065,1.2257898811012573
7.25450986,-1.186062814599822,2.89360485138393,1.3258140119733346
7.259509826,-1.116094585260172,2.4959039436947172,1.4170563628690365
7.264509492,-1.034783812533764,2.094522554555746,1.4985066579526343
7.269509492,-0.9430980102352152,1.692210973573362,1.5692489921648385
7.274509525,-0.8421353379493001,1.2916770512251659,1.6284767014803334
7.279509525,-0.7331073457658314,0.8955627954621823,1.6755058496910622
7.284509525,-0.6173200420591524,0.5064217586394598,1.7097870650145464
7.289509525,-0.4961536490494453,0.12669743046001106,1.7309154814395966
7.294509525,-0.37104144119325416,-0.24129714774511166,1.738638566519771
7.299509525,-0.24344808069142443,-0.5953983331227399,1.7328616495586373
7.304509491,-0.1148478709850463,-0.9336091853392967,1.7136510019610436
7.309509491,0.013296657064993698,-1.2541149226492216,1.6812343644896008
7.314509491,0.13955542930421153,-1.5552963424322874,1.635998863780241
7.319509524,0.262550413100239,-1.8357410387892186,1.5784863131499807
7.324509524,0.38097376883770656,-2.0942522748814385,1.5093859513689354
7.329509524,0.49360427708549176,-2.329855396644269,1.4295247370481032
7.33450949,0.5993218003396861,-2.541801706349367,1.3398553818659598
7.339509456,0.6971195940498092,-2.7295697485344683,1.2414423668776717
7.344509422,0.7861143412085526,-2.8928639965031335,1.135446236586397
7.349509422,0.8655538451208254,-3.0316109644664087,1.02310650130448
7.354355533,0.9348223730309247,-3.1459528080323915,0.9057234979281963
7.359355566,0.9934436967064832,-3.2362385135900036,0.7846395628922633
7.364355599,1.0410819232363187,-3.303012814291654,0.6612198609215432
7.369355632,1.0775402491102342,-3.347003005651346,0.5368331932805662
7.374355632,1.1027578024823228,-3.3691038661131003,0.41283308473343283
7.379355632,1.1168047622978565,-3.3703609165193638,0.290539423996361
7.384355598,1.1198759591533554,-3.351952276807239,0.17122091029663097
7.389355598,1.112283172086301,-3.315169398225175,0.05607853818622766
7.394355598,1.0944463385581706,-3.2613969645362144,-0.05376966783509638
7.399355631,1.0668838920571901,-3.1920922655575232,-0.15730247938153213
7.404355631,1.0302024333507716,-3.1087643505485976,-0.2536076851199942
7.409355631,0.9850859281121401,-3.012953267272416,-0.34189256561235587
7.414355597,0.9322846064811616,-2.9062096852553605,-0.4214925064887527
7.419355563,0.8726037204188736,-2.790075189384267,-0.49187766015037665
7.424355529,0.8068922938790707,-2.666063513136445,-0.5526575926513176
7.429355529,0.7360319801352236,-2.535642960008823,-0.6035838801519332
7.434355562,0.660926121069694,-2.4002202375041315,-0.6445506487840577
7.439355595,0.5824890854860214,-2.261125900657008,-0.6755930826640382
7.444355628,0.5016359478594872,-2.119601571918169,-0.6968839560764223
7.449355628,0.41927255556274207,-1.9767890718367465,-0.7087282759553536
7.454355628,0.3362860216837829,-1.8337215611955646,-0.7115561481925283
7.459355594,0.25353567237878794,-1.6913167610130966,-0.7059140051000096
7.46435556,0.17184447256422708,-1.5503722830459021,-0.6924543514728554
7.46935556,0.09199095176887982,-1.4115630708110716,-0.6719242035951651
7.474355593,0.014701652956367574,-1.2754409201342671,-0.6451524097309306
7.479355626,-0.059355869345406015,-1.1424360190476273,-0.6130360523420825
7.484355626,-0.12957946974542464,-1.01286041964904,-0.5765261412918742
7.489355626,-0.19543821265653358,-0.8869133294119639,-0.5366128131885525
7.494355626,-0.256477506155786,-0.7646880865531608,-0.4943102543397787
7.499355626,-0.3123235142172705,-0.6461806635976083,-0.45064156318888476
7.504355626,-0.36268678530322485,-0.5312995253784631,-0.4066237624728136
7.509355592,-0.4073650300290119,-0.4198766524712719,-0.36325316185479695
7.514355592,-0.4462449781613411,-0.3116795285169766,-0.3214912589585345
7.519355592,-0.4793032460937995,-0.20642388000521847,-0.2822513513679517
7.524355625,-0.5066061502628565,-0.10378694977120999,-0.24638601521434103
7.529355625,-0.5283084094249397,-0.003421080541199346,-0.2146755883976821
7.534355625,-0.5446506887672035,0.09503261790054868,-0.18781777901933489
7.539355591,-0.5559559509090092,0.19193074523243117,-0.16641850260993296
7.544355591,-0.5626245926497847,0.28761445724326423,-0.15098403525833268
7.549355591,-0.5651283618848988,0.3823969062059297,-0.14191455367502656
7.554355624,-0.5640030667402935,0.47655149319559115,-0.139499117402483
7.559355624,-0.5598401089687443,0.5703011419168665,-0.14391213261041358
7.564355624,-0.553276896163729,0.6638087909534209,-0.15521132097873266
7.569355624,-0.5449862123313799,0.7571692841081206,-0.17333720100215708
7.574355624,-0.5356646535122892,0.8504028162990661,-0.1981140727896623
7.579355624,-0.5260202639262574,0.9434500652947339,-0.22925248138283175
7.58435559,-0.5167595378335067,1.0361691077912127,-0.2663531181307235
7.589355556,-0.5085739821000036,1.128334182744768,-0.30891210504808925
7.594355556,-0.502126463118153,1.2196363266138668,-0.35632759358858307
7.599355589,-0.49803758762221634,1.3096858656105967,-0.4079075970464983
7.604355622,-0.49687238813126194,1.3980167106585184,-0.46287896490897995
7.609355622,-0.4991275983871274,1.4840923628617315,-0.5203973977454712
7.614355622,-0.5052198106505698,1.5673135020858016,-0.5795583921655996
7.619355588,-0.5154748039119983,1.6470269997062428,-0.6394089963412071
7.624355588,-0.5301183194165833,1.7225361694510282,-0.6989602470754777
7.629355588,-0.5492685376089743,1.793112048070577,-0.7572001493935044
7.634355621,-0.5729304794940573,1.858005480573541,-0.8131070496324109
7.639355621,-0.600992516632382,1.916459772971178,-0.8656632438568529
7.644355621,-0.6332251289051655,1.967723668679395,-0.9138686560297434
7.649355621,-0.6692819994289921,2.0110644026982936,-0.9567544155677244
7.654355621,-0.7087034833965878,2.0457805903150277,-0.9933961623234672
7.659355621,-0.7509224339007954,2.0712147143571187,-1.022926908850708
7.664355587,-0.7952723143991499,2.0867649868654046,-1.0445492946685644
7.669355587,-0.8409974755478776,2.0918963771142756,-1.0575470743921576
7.674355587,-0.8872654246422892,2.0861506176241496,-1.061295690194761
7.67935562,-0.933180869658265,2.069155022556166,-1.0552717884845888
7.68435562,-0.9778012776412477,2.040629978018013,-1.0390615507147356
7.68935562,-1.0201536498409358,2.0003949906503777,-1.0123677192162992
7.694355586,-1.0592521847374052,1.948373208620078,-0.9750152115454179
7.699355552,-1.094116476198643,1.8845943570465409,-0.926955231740263
7.704355518,-1.1237898783530342,1.809196057298088,-0.8682678043718329
7.709355518,-1.1473576617401204,1.7224235260032015,-0.7991626770968149
7.714355518,-1.1639645869403685,1.6246276745632724,-0.7199785589514116
7.719355551,-1.172831532077234,1.5162616529971382,-0.631180684143301
7.724355584,-1.173270829258196,1.3978759027814873,-0.5333567140848731
7.729355617,-1.1646999921122991,1.270111801860305,-0.42721101359017144
7.734355617,-1.1466535518159884,1.1336940012772039,-0.31355736024093295
7.739355617,-1.118792761629078,0.9894215671900075,-0.19331016834112918
7.744355583,-1.0809129787542664,0.8381580546691834,-0.06747432986991857
7.749355583,-1.0329485857837901,0.6808206509340259,0.06286620610297523
7.754355583,-0.9749753704324027,0.5183685357676812,0.196560976936397
7.759355616,-0.9072103397097138,0.3517906160599951,0.33240651863049414
7.764355616,-0.8300090009275255,0.1820928001972079,0.4691606779482352
7.769355616,-0.7438601949311475,0.010284986833638715,0.6055575421118625
7.774355582,-0.6493786153706351,-0.16263204830437886,0.7403227914581817
7.779355548,-0.5472951911595342,-0.3356796746633353,0.8721892699486016
7.784355514,-0.4384455473749148,-0.5079141363109336,0.9999125603232892
7.789355514,-0.32375679262585516,-0.6784387788626283,1.1222863454395287
7.794355547,-0.2042329081826679,-0.8464155581114178,1.2381573352490478
7.79935558,-0.0809390357500887,-1.011075611179933,1.3464395401348006
7.804355613,0.04501502340834984,-1.1717286711209511,1.4461276760761934
7.809355613,0.1724917752569173,-1.3277711104466052,1.5363094954196461
7.814355613,0.30034313872265095,-1.478692408971785,1.6161768488781802
7.819355579,0.4274273650560394,-1.6240798573905513,1.6850352996597304
7.824355579,0.552625453158723,-1.763621330848084,1.7423121292173516
7.829355579,0.6748567571842444,-1.8971059971097661,1.7875625959935066
7.834355612,0.7930935032776003,-2.024422862391337,1.8204743337458495
7.839355645,0.9063739595606878,-2.145557104775544,1.8408698046806027
7.844355645,1.0138140370831887,-2.2605842000028793,1.8487067547716107
7.849355645,1.1146171387213273,-2.369661906076152,1.8440766543937581
7.854355645,1.2080821168824238,-2.473020239530973,1.827201146803708
7.859355645,1.2936092480514878,-2.570949644482438,1.7984265699315907
7.864355645,1.3707041811193619,-2.6637876217682983,1.7582166627554552
7.869355611,1.438979865369671,-2.7519041449941715,1.7071436146361354
7.874355611,1.498156511584713,-2.8356862382867543,1.6458776616573234
7.879355611,1.5480596852433468,-2.9155221231852235,1.5751754745637438
7.884355644,1.588616673992046,-2.9917853570601727,1.4958676143271246
7.889355644,1.6198513119426607,-3.0648193822292855,1.4088453500524387
7.894355644,1.6418774794319515,-3.134922884388399,1.3150471370720014
7.89935561,1.6548915263706845,-3.202336322710899,1.215445039287612
7.90435561,1.659163887643318,-3.2672299441413033,1.1110313497900048
7.90935561,1.655030168058318,-3.329693534053943,1.0028056207295557
7.914355643,1.6428819710970635,-3.389728088906302,0.8917622632868051
7.919355643,1.623157730639918,-3.4472395291082707,0.7788788292634055
7.924355643,1.596333779635985,-3.502034507124384,0.6651050446815273
7.929355643,1.562915856681164,-3.553818310426286,0.5513526372055885
7.934355643,1.5234312132497043,-3.6021948130050885,0.4384859837454004
7.939355643,1.4784214432346374,-3.64666839283114,0.32731360018889555
7.944355609,1.4284361142885367,-3.6866477051341455,0.21858049888898368
7.949355609,1.3740272385462609,-3.7214511816983777,0.11296144854386213
7.954355609,1.3157445799106418,-3.750314113609594,0.011055183011289008
7.959355642,1.254131757606032,-3.772397168091151,-0.08662038194916036
7.964355675,1.1897230726330723,-3.786796188165399,-0.17963185399541173
7.969355675,1.1230409564860566,-3.79255312583429,-0.26763291349948337
7.974355308,1.05459392125677,-3.788667964359898,-0.35036562521430276
7.979355274,0.9848748779785154,-3.7741114921478487,-0.42766043405463366
7.984355274,0.9143596862690614,-3.7478387988057027,-0.49943477947808396
7.989355274,0.8435058031819636,-3.708803372382747,-0.5656902863759697
7.994355307,0.7727509125736725,-3.6559716849033315,-0.6265085235890704
7.999355307,0.7025114375083734,-3.5883381601573494,-0.6820453614069991
8.004355307,0.6331808652797194,-3.50494042183711,-0.7325240033923043
8.009355307,0.5651278442640243,-3.404874719754198,-0.7782268128171217
8.014355307,0.4986940404385833,-3.287311425945202,-0.8194860976703032
8.019355307,0.43419176648958835,-3.1515104814471235,-0.856674058109117
8.024354607,0.37190141747372263,-2.996836660320539,-0.8901921332021714
8.029353707,0.3120687652913327,-2.8227745024150317,-0.9204600063530695
8.034353707,0.2549021817841566,-2.628942751861389,-0.9479045381536035
8.03935374,0.20056987840971757,-2.415108124613105,-0.9729488905938333
8.04435374,0.1491972689738428,-2.181198215289742,-0.9960020888005299
8.04935374,0.1008645792085543,-1.9273133411757515,-1.0174492390042191
8.054353706,0.05560484088007551,-1.6537371102450438,-1.0376425885997838
8.059353672,0.013402416732209627,-1.3609454917135368,-1.05689358027922
8.064353638,-0.025807795455312685,-1.0496141632257325,-1.075466020262187
8.069353638,-0.06214033730128297,-0.7206239097475766,-1.0935704515305376
8.074353671,-0.09575821520069913,-0.37506385695943106,-1.111359795945041
8.079353704,-0.1268708733270676,-0.014232337734881122,-1.128926303082296
8.084353737,-0.15573104380429437,0.3603647847874995,-1.1462998181117052
8.08935377,-0.18263044322084204,0.7470184794930734,-1.1634473562382466
8.09435377,-0.2078943286471504,1.1438236932348795,-1.1802739474394377
8.099353736,-0.23187497211221184,1.5486893277204092,-1.1966246924965882
8.104353702,-0.2549441573376559,1.9593510391977083,-1.212287949975307
8.109353702,-0.2774848436281405,2.3733867963112463,-1.2269995548586325
8.114353702,-0.2998821770754604,2.788235076771477,-1.2404479544228342
8.119353002,-0.3225140576831509,3.2012155321109463,-1.252280136807309
8.124353335,-0.3457414923689263,3.609551902345851,-1.262108222851196
8.129353335,-0.36989897773897473,4.010396919092646,-1.2695165915688893
8.134353301,-0.3952851625861336,4.400858897177367,-1.274069413054759
8.139353267,-0.42215403795392664,4.778029681987753,-1.275318468505622
8.144353233,-0.450706892434157,5.139013593829276,-1.2728111443696593
8.149353233,-0.4810852525873711,5.480956992215143,-1.2660984954991223
8.154353266,-0.5133650037213237,5.8010780728381235,-1.2547432801325198
8.159353299,-0.5475518557138122,6.096696508052785,-1.2383278775479425
8.164353332,-0.5835782833349477,6.36526254781569,-1.2164620074042598
8.169353332,-0.6213020319523929,6.604385211652577,-1.1887901778909082
8.174353998,-0.6605062389736613,6.811859222497599,-1.154998797255222
8.179354864,-0.7009011803232084,6.985690359005055,-1.114822889448269
8.184354864,-0.7421276111709043,7.124118932684119,-1.0680523591458089
8.189354864,-0.7837616324841972,7.225641128273066,-1.0145377541507703
8.194354897,-0.8253209809575004,7.289027978486411,-0.9541954742225053
8.199354897,-0.8662726102227448,7.313341776167684,-0.8870123748448744
8.204354897,-0.9060414062735578,7.297949756784037,-0.8130497125535051
8.209354897,-0.944019859762959,7.242534911335159,-0.732446375513345
8.214354897,-0.9795785021691629,7.147103813932438,-0.6454213395457501
8.219354897,-1.0120769016653488,7.011991369990556,-0.5522752863933309
8.224355263,-1.0408750077516251,6.837862411062531,-0.45339131842601876
8.229355229,-1.0653446311169008,6.625710081879939,-0.34923470298234527
8.234355229,-1.0848808465751,6.37685098510732,-0.24035158081518804
8.239355229,-1.098913112091701,6.092917070510591,-0.1273665773123287
8.244355262,-1.1069159057372675,5.775844278305339,-0.010979262786891994
8.249355262,-1.1084186946714998,5.427857971805858,0.10804058050699863
8.254355262,-1.1030150656740842,5.051455222371298,0.2288589116983597
8.259355228,-1.0903708648895285,4.649384040148366,0.3505846127303345
8.264355228,-1.0702312148016366,4.224619677204846,0.47227788246252184
8.269355961,-1.0424262983531658,3.7803381650551593,0.5929598014519974
8.274355994,-1.0068758229552237,3.3198872856982176,0.7116229965409127
8.279355994,-0.9635921004333226,2.846755213221874,0.8272433044658735
8.284355994,-0.912681702491569,2.3645371007094487,0.9387923040476448
8.289355994,-0.8543456749470701,1.8768999235942738,1.0452505583431564
8.294355994,-0.7888783177051794,1.3875459250170978,1.145621382645388
8.299355994,-0.7166645610211225,0.9001750407814778,1.2389449324957196
8.30435596,-0.6381759917088697,0.41844671104943015,1.3243123886204737
8.30935596,-0.553965605266031,-0.05405848704953966,1.4008800028023012
8.31435596,-0.4646613811866863,-0.5138769271743575,1.467882758997134
8.319355993,-0.3709587990556861,-0.9576992610658148,1.5246473957124034
8.324355993,-0.27361243228508825,-1.382406485054445,1.5706045275351017
8.329355993,-0.17342677380773083,-1.7851042292840544,1.6052995964787211
8.334355959,-0.07124646198107241,-2.163154741734354,1.628402380674737
8.339355925,0.032053916715963776,-2.514206034447734,1.6397147934389178
8.344355925,0.13558027025327804,-2.836217663570712,1.6391767240812425
8.349355958,0.23842951639792634,-3.1274826300760292,1.6268697051518979
8.354355991,0.33970000905476694,-3.386644916731382,1.6030182381262288
8.359355991,0.4385017276402848,-3.6127122217187,1.5679886666888425
8.364355991,0.533966096621897,-3.8050635127564147,1.522285548155768
8.369355991,0.625255317718552,-3.963451109120505,1.466545534393492
8.374355591,0.7115711130563848,-4.087997102654344,1.4015288311951561
8.379355591,0.7921627948320223,-4.179184051047605,1.3281083588892846
8.384355557,0.8663345966777832,-4.237840013595156,1.2472567880613998
8.389355557,0.9334522237235897,-4.265118145436997,1.1600316744035943
8.394355557,0.9929486006313587,-4.262471213574444,1.0675589662491343
8.39935559,1.0443288171154004,-4.231621538789147,0.971015204659845
8.40435559,1.0871742863044125,-4.1745269940897005,0.8716087742344454
8.40935559,1.1211461412868449,-4.093343795487306,0.7705605890561249
8.414355556,1.1459878988844687,-3.990386899677587,0.6690846111300773
8.419355522,1.1615274175699946,-3.8680888731367773,0.5683685993941529
8.424355488,1.167678169676764,-3.7289581181963927,0.4695554776918323
8.429355488,1.1644398383837604,-3.5755373353390665,0.37372569114188736
8.434355521,1.1518982392909498,-3.410363069517022,0.2818808924949362
8.439355554,1.1302245563065814,-3.23592713432914,0.19492926341465266
8.444355587,1.099673873043423,-3.0546406341676677,0.11367273072114441
8.449355587,1.060582974453742,-2.868801213974825,0.03879628617366624
8.454355587,1.0133673893603548,-2.6805640624739913,-0.029140436782434363
8.459356653,0.9585176433956691,-2.49191708154214,-0.0897092313587276
8.464356619,0.8965946944327797,-2.304660515887822,-0.142616985881971
8.469356619,0.8282245296813363,-2.120391217487881,-0.18770695630399808
8.474356652,0.7540919156718954,-1.9404916021826928,-0.22495769134275834
8.479356685,0.6749333092059872,-1.766123244877686,-0.2544796997472556
8.484356685,0.5915289582278992,-1.5982249578245435,-0.27650998680988115
8.489356685,0.5046942453196928,-1.4375151057730349,-0.2914046214145391
8.494356651,0.41527035188978995,-1.2844978342397564,-0.29962952482382865
8.499356617,0.32411434689547164,-1.1394728241553527,-0.3017496971165918
8.504356583,0.23208882883597923,-1.0025481386955457,-0.2984171159936339
8.509356583,0.14005127242864468,-0.8736556966227772,-0.29035755532512586
8.514356616,0.04884325054138039,-0.7525688908113912,-0.2783565774446002
8.519356649,-0.04072028350127562,-0.6389218699365515,-0.26324495415158083
8.524356682,-0.12786145903418822,-0.5322300139145477,-0.24588376716958238
8.529356682,-0.21184949927407248,-0.4319111571698963,-0.227149430100045
8.534356682,-0.2920100863383467,-0.33730714520517296,-0.20791886159148376
8.539356648,-0.36773389465088796,-0.24770534610763909,-0.18905502446009576
8.544356648,-0.4384841216156015,-0.1623597766306555,-0.17139302867558037
8.549356648,-0.5038028634064504,-0.08051154002796466,-0.15572697803392951
8.554356681,-0.5633162065209198,-0.0014083083746610843,-0.14279772134606764
8.559356681,-0.6167379314754246,0.0756773850523203,-0.13328164936943024
8.564356681,-0.6638717527999811,0.1514312477524597,-0.12778065879275521
8.569356681,-0.7046120484945789,0.22648190129778462,-0.12681338464271957
8.574356681,-0.7389430616523296,0.30138727748010835,-0.1308077827336523
8.579356681,-0.7669365865060713,0.3766228647999269,-0.14009512431656793
8.584356647,-0.7887481802952931,0.4525719094447119,-0.15490544588970914
8.589356613,-0.8046119706980044,0.5295176516301413,-0.17536447824183105
8.594356613,-0.8148341557770127,0.6076376544411218,-0.20149206045461282
8.599356646,-0.8197853191561342,0.6870002576984975,-0.23320202727717737
8.604356679,-0.8198917071972501,0.7675631636329281,-0.2703035425267148
8.609355579,-0.8156256369413857,0.8491741342357676,-0.3125038371781073
8.614355579,-0.8074952229728823,0.9315737523308764,-0.3594122982862698
8.619355545,-0.7960336274578373,1.0144001701757799,-0.41054584323491833
8.624355511,-0.7817880496516382,1.0971957413681024,-0.4653355025909789
8.629355477,-0.7653086785377825,1.1794154045867957,-0.5231341240738949
8.634355477,-0.7471378344905436,1.2604366617712455,-0.5832251001219321
8.63935551,-0.7277995226384061,1.3395709692607265,-0.6448320125509657
8.644355543,-0.7077896117935931,1.4160763386982873,-0.7071290799953365
8.649355576,-0.6875668384321819,1.4891709256387284,-0.7692522870697719
8.654355576,-0.6675448155022906,1.5580473682590539,-0.8303110680305018
8.659355576,-0.648085201389399,1.6218876267597198,-0.8894004115301694
8.664355542,-0.6294921561912133,1.6798780662518789,-0.9456132465434091
8.669355542,-0.6120081818035789,1.7312245223278273,-0.9980529629491883
8.674355542,-0.5958114102964983,1.7751670892666436,-1.0458459142547427
8.679355575,-0.5810143723966271,1.8109943760904201,-1.0881537452269743
8.684355575,-0.5676642451022021,1.8380569854848676,-1.1241853842949594
8.689355575,-0.5557445451264583,1.8557799847046292,-1.153208539956186
8.694355541,-0.5451782037349243,1.8636741555859468,-1.1745605425376797
8.699355507,-0.5358319292955053,1.861345832270392,-1.187658377898229
8.704355473,-0.5275217369201994,1.8485051598657778,-1.1920077679542544
8.709355473,-0.5200195001568466,1.8249726347112716,-1.1872111636882887
8.714355473,-0.5130603580600003,1.7906838167474421,-1.172974528780372
8.719355506,-0.5063507926262377,1.7456921361392068,-1.149112805701469
8.724355539,-0.49957717711620964,1.6901697490826744,-1.1155539709767306
8.729355572,-0.49241458570162,1.6244064309144608,-1.0723416025254149
8.734355572,-0.4845356495882086,1.5488065273940856,-1.0196358996353725
8.739355572,-0.4756192447516289,1.4638840164110536,-0.9577131152834307
8.744355538,-0.4653588021595788,1.3702557616011384,-0.8869633811882461
8.749355538,-0.45347004308526123,1.2686330661098981,-0.8078869281222854
8.754355538,-0.4396979597392705,1.1598116591216883,-0.7210887274048632
8.759355571,-0.42382288457153844,1.0446602700498744,-0.6272716037792416
8.764355571,-0.40566551961379305,0.9241079656320808,-0.5272278945874054
8.769355571,-0.38509082926342036,0.7991304435784793,-0.42182975487280117
8.774355571,-0.3620107346726807,0.6707354927513398,-0.312018232439688
8.779355571,-0.33638558370565486,0.5399478440027246,-0.1987912606282056
8.784355571,-0.3082244053688575,0.4077936477315738,-0.08319073898560235
8.789355537,-0.27758399001072964,0.2752848238868609,0.033711107930647216
8.794355537,-0.24456686521370974,0.14340353732200184,0.15082588693873483
8.799355537,-0.20931826153743788,0.013087055672312272,0.26706348929341484
8.80435557,-0.17202218194427807,-0.11478675226754362,0.3813466151078057
8.80935557,-0.13289670397976008,-0.2394130228799159,0.49262514187789547
8.81435557,-0.0921886549003802,-0.3600723615806867,0.5998901121735538
8.819355536,-0.05016780733843765,-0.47614192923696136,0.7021871214410873
8.824355536,-0.007120747174633208,-0.5871049331549031,0.7986288957362989
8.829355536,0.036655433583344936,-0.6925583262998185,0.8884068607611612
8.834355569,0.08085946763053975,-0.7922185445562329,0.9708015177252419
8.839355602,0.1251921194904937,-0.8859251421363171,1.0451914583375044
8.844355602,0.16936212752850965,-0.9736422192196768,1.1110608706976317
8.849355602,0.21309174745876025,-1.0554575729464735,1.1680054099116608
8.854355602,0.25612177403572045,-1.1315795423047192,1.215736331641595
8.859355602,0.29821593000091284,-1.2023315585522887,1.2540828131595438
8.864355602,0.339164526321041,-1.268144454897118,1.28299241451878
8.869355568,0.37878731547833144,-1.3295466315225726,1.302529662036241
8.874355568,0.416935479946598,-1.3871522139943924,1.3128727673881317
8.879355568,0.4534927205096044,-1.4416473839642776,1.314308528194826
8.884355601,0.488375432895786,-1.4937751002958208,1.3072254896849465
8.889355601,0.5215319852630593,-1.5443184657040798,1.2921054811832235
8.894355601,0.5529411323795128,-1.5940830280101899,1.2695136748504627
8.899355567,0.5826096242565215,-1.6438783351106578,1.2400873464424447
8.904355567,0.6105690873614905,-1.6944990872570436,1.2045235480520282
8.909355567,0.6368722757013554,-1.7467062474836108,1.1635659298836305
8.9143556,0.6615888074833021,-1.801208479354511,1.11799097061142
8.9193556,0.6848005207862197,-1.8586442794256826,1.0685938917465574
8.9243556,0.7065965980401806,-1.919565159413694,1.0161745384683707
8.9293556,0.7270686227924922,-1.984420210318285,0.9615235061505973
8.9343556,0.7463057415963266,-2.0535423487385898,0.9054087789149124
8.9393556,0.7643901071319515,-2.1271365060256686,0.8485631268049004
8.944355566,0.781392774104393,-2.2052699755234277,0.791672485178993
8.949355566,0.7973702056621444,-2.2878650835288243,0.7353655156534088
8.954355566,0.8123615246720374,-2.3746942972498104,0.6802045217988922
8.959355599,0.8263866123633202,-2.4653778297459628,0.6266778630276264
8.964355632,0.8394451193532041,-2.5593837495516416,0.5751939758700295
8.969355632,0.8515164143438834,-2.656030553141825,0.5260770740236993
8.974355598,0.8625604568616855,-2.7544921132118074,0.4795645590534467
8.979355564,0.872519544107495,-2.85380487666552,0.43580613460001655
8.984355564,0.881320848897983,-2.952877154865719,0.3948645806939371
8.989355564,0.888879635790753,-3.05050032583368,0.3567181134770848
8.994355597,0.8951030159860839,-3.1453617532690847,0.3212642308811598
8.999355597,0.8998940792709746,-3.2360592193146065,0.28832492693238587
9.004355597,0.9031562242848504,-3.321116665535816,0.2576531453526913
9.009355597,0.9047974978111755,-3.399001038339605,0.22894033533116323
9.014355597,0.9047347504744984,-3.4681400399375963,0.20182496719513132
9.019355597,0.9028974209474252,-3.526940593092611,0.17590186196864796
9.024354897,0.8992307742544037,-3.5738078363706522,0.15073218507524644
9.029354497,0.8936984420868714,-3.6071644753356846,0.12585394900098593
9.034354497,0.8862841431452393,-3.6254703227664997,0.10079286116243458
9.03935453,0.8769924971547122,-3.6272418663644737,0.07507334148466727
9.04435453,0.8658488844931056,-3.6110717048958088,0.0482295213625255
9.04935453,0.8528983415719662,-3.5756476934217805,0.0198160255897285
9.054354496,0.8382035182349151,-3.5197716361301072,-0.01058166450493233
9.059353996,0.8218417565353848,-3.4423773624550367,-0.0433374628596493
9.064353962,0.8039013803792443,-3.3425480193787966,-0.07877572747450243
9.069353962,0.7844773134153671,-3.219532409975557,-0.11716326812969179
9.074353995,0.7636661690223173,-3.072760204855748,-0.15870245144158587
9.079354028,0.741560981157983,-2.90185584886363,-0.20352551628489124
9.084354061,0.7182457668146403,-2.706650980537066,-0.25169018585316716
9.089354094,0.6937901279492396,-2.4871951775000976,-0.3031766350416874
9.094354094,0.6682441115785405,-2.243764838456931,-0.35788584462831896
9.09935406,0.6416335502393287,-1.9768700130086008,-0.41563934821510173
9.104354026,0.6139561002615584,-1.68725899513635,-0.47618035440583295
9.109354026,0.5851781815986957,-1.3759205058923514,-0.5391762043545797
9.114354026,0.5552330003958443,-1.044083306777345,-0.6042221025717406
9.119354059,0.5240198048241085,-0.6932131087135756,-0.6708460367042268
9.124354059,0.49140448693930144,-0.32500667337400363,-0.7385147811727054
9.129354059,0.45722159954101493,0.05861695600835371,-0.8066408618277227
9.134354025,0.42127780873200443,0.45552810946125694,-0.8745903455858748
9.139353991,0.3833567520359406,0.8634009928870878,-0.9416913109301205
9.144353957,0.34322522058180344,1.279730945367287,-1.0072428519488223
9.149353957,0.3006405340541673,1.7018543033234246,-1.0705244692954485
9.15435399,0.2553589309116369,2.126970671831369,-1.1308057048567437
9.159354023,0.2071447558004284,2.552167356112388,-1.187355882090893
9.164354056,0.15578019285907796,2.9744456649651276,-1.239453820519387
9.169354056,0.10107526901506923,3.3907487639221636,-1.2863974005046475
9.174354722,0.042877836260479106,3.7979907301209352,-1.3275128628032193
9.179355088,-0.01891676333942865,4.193086443469734,-1.36216373591694
9.184355088,-0.0843566415390912,4.572981939150131,-1.3897592927249665
9.189355088,-0.15342519428884405,4.934684844001144,-1.4097624465115235
9.194355121,-0.22603407339318798,5.2752945231493085,-1.4216970058649132
9.199355121,-0.30201752374555507,5.5920315728976115,-1.425154218494619
9.204355121,-0.38112827351377754,5.882266311050487,-1.4197985458209208
9.209355587,-0.4630351228560326,6.143545936209911,-1.405372622686756
9.214355587,-0.547322331741882,6.373620052610229,-1.3817013688485134
9.219355587,-0.6334908608970717,6.570464285962659,-1.3486952301935469
9.224355553,-0.7209614733364372,6.732301747493357,-1.306352537353478
9.229355519,-0.8090796588162917,6.857622136613355,-1.254760977286095
9.234355519,-0.8971223011794053,6.945198306060801,-1.1940981795004484
9.239355519,-0.9843059702304015,6.9941001455855325,-1.1246314231394654
9.244355552,-1.0697966863458894,7.003705670291922,-1.0467164745097277
9.249355552,-1.1527209778181209,6.97370922702516,-0.9607955672853982
9.254355552,-1.2321780279024155,6.904126756485448,-0.8673945398465044
9.259355518,-1.3072526905510375,6.795298070236585,-0.7671191462427809
9.264355518,-1.377029140727196,6.647886120883785,-0.6606505591992154
9.269355518,-1.4406049167950867,6.462873261101411,-0.5487400854380402
9.274355551,-1.497105108541811,6.241554503719615,-0.4322031154293654
9.279355551,-1.5456964447524768,5.985527811624982,-0.3119123316241582
9.284355551,-1.5856010388383979,5.696681463665427,-0.18879020154591789
9.289355551,-1.6161095596176016,5.377178561805926,-0.06380078528701105
9.294355551,-1.6365936065601914,5.029438765931971,0.06205910841022694
9.299355551,-1.6465170840292767,4.656117366121232,0.1877693765592136
9.304355517,-1.6454463865556457,4.2600818278850445,0.3122966364772377
9.309355517,-1.6330592263455863,3.844385973710786,0.4346047376429733
9.314355517,-1.6091519546913349,3.412241993969197,0.553665692274297
9.31935555,-1.5736452506780403,2.966990511366966,0.6684709272708199
9.32435555,-1.526588073543027,2.5120689547523605,0.7780427394259606
9.32935555,-1.4681597991166673,2.050978529101848,0.8814458149337199
9.334355516,-1.3986704859018464,1.587250097834967,0.9777986553291136
9.339355482,-1.3185592427189612,1.1244093204334569,1.066284736883445
9.344355448,-1.2283906977529033,0.6659414123156793,1.1461632202067145
9.349355448,-1.1288495984623308,0.21525591504826744,1.2167790217814332
9.354355448,-1.0207336031879055,-0.22434811649407177,1.2775720590569775
9.359355481,-0.9049443583732419,-0.6497160871898752,1.3280854844811198
9.364355514,-0.7824769896677835,-1.0578705581515861,1.367972729892522
9.369355547,-0.6544081694884197,-1.4460422186628703,1.397003190060557
9.374355547,-0.5218829555208555,-1.8116986787301697,1.4150663834864434
9.379355547,-0.3861006214641687,-2.1525706271051694,1.4221744423401341
9.384355513,-0.24829972113190585,-2.466674908542904,1.4184628048996015
9.389355513,-0.10974263926741433,-2.7523340944685604,1.4041890155919825
9.394355513,0.02830011219145022,-3.008192154614481,1.3797295799720688
9.399355546,0.16456559388804007,-3.2332258842215906,1.3455748720245235
9.404355546,0.2978138812012324,-3.426751802245094,1.3023221438517758
9.409355546,0.42684300445615964,-3.5884283105105514,1.2506667373351248
9.414355512,0.5505031573343533,-3.7182529912097166,1.1913916400900704
9.419355478,0.6677099639562096,-3.816555018773289,1.1253555637968342
9.424355444,0.7774566214266252,-3.8839827690768405,1.0534797536207539
9.429355444,0.878824766143249,-3.9214868201055206,0.9767337643420383
9.434355477,0.970993947232043,-3.930298648745479,0.8961204619896409
9.43935551,1.0532496268468268,-3.9119054329562455,0.8126605284071948
9.444355543,1.1249896622205346,-3.8680214620785045,0.7273767590852869
9.449355209,1.1857292560141381,-3.80055673614883,0.6412784502181675
9.454355209,1.235104388166545,-3.7115833946933097,0.5553461679174979
9.459355175,1.2728737634725176,-3.603300654664732,0.47051718075219356
9.464355141,1.2989193244927577,-3.4779989553669206,0.38767181790064614
9.469355141,1.3132453895144043,-3.3380240060263575,0.30762099169886314
9.474355174,1.315976480890354,-3.185741410727351,0.23109509718249982
9.479355207,1.3073539113138568,-3.0235025077906936,0.15873447277759498
9.484355207,1.287731195730751,-2.853612008569389,0.0910815747165708
9.489355207,1.2575683558352229,-2.6782979563668223,0.028574982058005828
9.494355207,1.2174251833118284,-2.4996844521623722,-0.028454690414139276
9.499355207,1.1679535278256208,-2.319767512598836,-0.07978693581689511
9.504355207,1.1098886768508365,-2.1403943399503293,-0.12531156079595746
9.509355173,1.0440398974491287,-1.9632461963664913,-0.1650269967294215
9.514355173,0.9712802156549639,-1.7898249883335875,-0.19903679393195917
9.519355173,0.8925355174696552,-1.6214435845087656,-0.2275444057263574
9.524355206,0.8087730664199536,-1.4592198130530014,-0.2508463947396868
9.529355206,0.7209895455872549,-1.304074015138878,-0.269324215739069
9.534355206,0.6301987460349548,-1.1567299708051284,-0.2834347477738113
9.539355172,0.5374190375580713,-1.0177189625967908,-0.2936997630554248
9.544355138,0.4436607705251501,-0.8873867018265668,-0.3006945306225384
9.549355104,0.34991376826284776,-0.7659028118344267,-0.30503575942628236
9.554355104,0.25713507718028517,-0.6532725420289468,-0.3073690883824545
9.559355137,0.16623714621751604,-0.5493503751641013,-0.3083563306836127
9.56435517,0.07807660811941212,-0.45385518728876434,-0.30866267669562963
9.569355203,-0.006556167475449857,-0.36638662383064563,-0.3089440543433989
9.574355203,-0.0869465850734677,-0.28644236485575547,-0.309834838164989
9.579355203,-0.16246424389294087,-0.2134359661723205,-0.31193608833608905
9.584355169,-0.2325701264887084,-0.14671497930537405,-0.31580448912931025
9.589355135,-0.29682243077708503,-0.08557907142153934,-0.32194214263905485
9.594355135,-0.3548809410368768,-0.029297885243250447,-0.33078735824524874
9.599355501,-0.40650985652510135,0.022871601775961804,-0.34270656123732623
9.604355534,-0.45157902138122524,0.07166844075805356,-0.3579874254203703
9.609355534,-0.49006352553260984,0.11781200057968437,-0.3768333147808568
9.614355534,-0.522041672491643,0.1619873688034511,-0.3993590990179363
9.6193555,-0.5476913356715103,0.2048320335398724,-0.4255883875977452
9.624355466,-0.5672847498895618,0.24692399920235747,-0.455452207461069
9.629355432,-0.5811818090279652,0.28877147277335713,-0.48878913080086805
9.634355432,-0.5898219643445813,0.3308042399568413,-0.5253468412030262
9.639355465,-0.5937148405361498,0.3733668316790677,-0.5647851083941529
9.644355498,-0.5934297081781722,0.4167135601375204,-0.6066801234981078
9.649355531,-0.589583971516893,0.4610054794487906,-0.650530128297113
9.654355531,-0.5828308497615136,0.5063092986100531,-0.6957622543468202
9.659355531,-0.5738464479389322,0.5525982440290294,-0.7417404718641645
9.664355497,-0.5633164297388444,0.5997548357821978,-0.7877745346726179
9.669355497,-0.5519225190394329,0.6475755069329446,-0.8331297961963624
9.674355497,-0.5403290681568746,0.695776959908657,-0.8770377623052938
9.67935553,-0.5291699383402628,0.744004119453541,-0.9187072395639088
9.68435553,-0.5190359406582183,0.7918395093123075,-0.957335932152033
9.68935553,-0.5104630823392198,0.8388138506541479,-0.9921223374733282
9.69435553,-0.5039218542295308,0.8844176552295855,-1.0222777892148207
9.69935553,-0.49980777908106255,0.9281135660802625,-1.0470384971727495
9.70435553,-0.49843341806999975,0.9693491837988228,-1.0656774351336147
9.709355496,-0.5000220048947613,1.0075701071740837,-1.0775159309384719
9.714355462,-0.5047028439748477,1.0422329137125732,-1.0819348159853883
9.719355462,-0.5125085728548787,1.0728178080492474,-1.078384994489545
9.724355495,-0.5233743501555741,1.098840674601182,-1.0663972958324168
9.729355528,-0.5371389904538404,1.119864284809403,-1.045591476533203
9.734355528,-0.5535480272878098,1.1355084286302473,-1.0156842420542374
9.739355528,-0.5722586458954477,1.1454587640684988,-0.9764961631871023
9.744355494,-0.5928463890619435,1.1494742067878123,-0.9279573678125618
9.74935546,-0.6148135032808716,1.1473927133679696,-0.8701118972346604
9.754355426,-0.637598758980187,1.1391353457975912,-0.8031206277026696
9.759355426,-0.6605885484106552,1.1247085405766315,-0.7272626722784142
9.764355459,-0.6831290384411315,1.1042045426906293,-0.6429351955245103
9.769355492,-0.7045391333830665,1.077800002049318,-0.5506515930177707
9.774355525,-0.7241239855052354,1.0457527670912974,-0.45103800891845736
9.779355525,-0.7411887785802723,1.0083969464696314,-0.3448281873696605
9.784355525,-0.7550525031448094,0.9661363443344273,-0.23285667703526927
9.789355491,-0.7650614416396359,0.9194364069259686,-0.11605043229076317
9.794355491,-0.7706020875920749,0.8688148471502578,0.004581120749267172
9.799355491,-0.7711132357196643,0.8148311387373938,0.12795746005748337
9.804355524,-0.7660969993480767,0.758075091804141,0.2529396664294495
9.809355524,-0.7551285377800631,0.6991547366533354,0.37834430020213494
9.814355524,-0.7378643088949491,0.6386837522395601,0.502958285223622
9.81935549,-0.7140487005011914,0.5772686801139054,0.6255546045096875
9.824355456,-0.6835189363760392,0.5154961644133497,0.7449085890862507
9.829355422,-0.64620819746968,0.45392045438849304,0.8598145614858329
9.834355422,-0.6021469430842621,0.39305139888640606,0.9691025793417827
9.839355255,-0.5514624587919259,0.33334315275993814,1.0716550135625955
9.844355288,-0.4943766958560309,0.2751838036933581,1.1664226903665396
9.849355321,-0.43120250013308187,0.21888611446733633,1.2524403270935038
9.854355354,-0.36233835662963654,0.16467956016079197,1.3288409977223599
9.859355354,-0.2882617992013703,0.11270382216071383,1.3948693747581766
9.864355354,-0.2095216536056519,0.06300388115256549,1.449893509129486
9.86935532,-0.1267292965747004,0.015526829566738076,1.4934149287539173
9.87435532,-0.04054912403031889,-0.0298794996285261,1.525076859474297
9.87935532,0.04831157180939681,-0.07346601621895263,1.5446703991272108
9.884355353,0.13911311381328845,-0.11557992343605789,1.5521385064730728
9.889355353,0.23109413813022073,-0.15666031963206173,1.5475777013256073
9.894355353,0.32348228231874243,-0.1972318639983638,1.5312374099782202
9.899355353,0.41550467517246537,-0.23789654992830853,1.5035169301878752
9.904355353,0.5063980522510653,-0.27932366114281043,1.4649600316411444
9.909355353,0.5954183366604383,-0.322238018173921,1.4162472501131451
9.914355319,0.6818495430324062,-0.36740665621910606,1.3581859756809846
9.919355319,0.7650118834504916,-0.4156241095697604,1.2916984766855932
9.924355319,0.8442689766421639,-0.4676965122847659,1.2178080409320189
9.929355352,0.9190340853403405,-0.5244247585987323,1.1376234530608187
9.934355352,0.9887753304656632,-0.5865869983337881,1.0523220611718376
9.939355352,1.0530198540016218,-0.6549207704267425,0.9631317155605363
9.944355318,1.1113569248510236,-0.7301050992831879,0.8713118866489039
9.949355284,1.1634400038517019,-0.8127428917502054,0.7781342866728148
9.95435525,1.208987806086261,-0.9033439754937479,0.6848633294974228
9.95935525,1.2477844209096176,-1.002309112092651,0.5927367648268413
9.96435525,1.2796785720410422,-1.1099153009255853,0.5029468178143579
9.969355283,1.3045821199612841,-1.2263026641827688,0.41662215403688335
9.974355316,1.3224679247318967,-1.3514631703726618,0.3348109738198894
9.979355349,1.3333671975479535,-1.4852314147448116,0.2584655185848365
9.984355349,1.3373664728182346,-1.6272776315158197,0.18842824425241247
9.989355515,1.3346043291238459,-1.7771030664649392,0.12541988254241715
9.994355481,1.325267977675279,-1.934037791473395,0.070029571370104
9.999355481,1.3095898219732798,-2.09724099693285,0.022707192393184625
10.00435548,1.287844073238021,-2.26570375510786,-0.016241990842518747
10.00935551,1.2603434834754725,-2.43825420832572,-0.046660344960387866
10.01435551,1.227436232678809,-2.613565100777626,-0.06853852210782557
10.01935551,1.1895029801169357,-2.7901635422222535,-0.08201379067669765
10.02435528,1.146954063866088,-2.9664428664304348,-0.08736610818911629
10.02935458,1.1002268095333407,-3.140676427020046,-0.08501203343991234
10.03435455,1.0497828899277077,-3.3110331582812678,-0.07549660152292531
10.03935455,0.9961056632406956,-3.4755947182211564,-0.05948330945365556
10.04435458,0.9396974087669943,-3.632374024686565,-0.037742382898104665
10.04935461,0.881076376668007,-3.7793349923350097,-0.011137516316081073
10.05435464,0.8207735716300353,-3.9144132776804867,0.019388700917871662
10.05935428,0.7593291989424457,-4.03553784062159,0.05283044177490893
10.06435428,0.6972887148930104,-4.140653132877177,0.0881351358122338
10.06935424,0.6351984409933769,-4.227741725784382,0.12422054039057964
10.07435424,0.5736007228819682,-4.294847191216191,0.15999211763689777
10.07935424,0.5130286387999479,-4.340097049307298,0.1943604380698347
10.08435428,0.45400028782987306,-4.361725594863094,0.22625832896299355
10.08935431,0.39701271311195724,-4.358096410852878,0.25465748934525945
10.09435431,0.34253553879976256,-4.327724372713077,0.2785843050618157
10.09935431,0.29100442083478906,-4.269296941828702,0.2971346166120111
10.10435431,0.24281443050115517,-4.181694540851239,0.3094872187551836
10.10935431,0.19831350636365033,-4.064009797568917,0.3149159026559532
10.11435431,0.15779612469536872,-3.9155654379779006,0.3127998863766675
10.11935428,0.12149735044360112,-3.7359306033801007,0.3026325150381951
10.12435428,0.08958743934469961,-3.5249353615511723,0.2840281456684253
10.12935428,0.06216716613937456,-3.2826831794175386,0.2567271627490817
10.13435431,0.03926405303580424,-3.009561125400659,0.22059909915957585
10.13935431,0.02082966525188919,-2.7062475744893164,0.17564386468552756
10.14435431,0.006738125223240091,-2.3737171988608683,0.12199111180663962
10.14935428,-0.0032140262926489537,-2.0132430423770358,0.05989779684030976
10.15435428,-0.009306523882728982,-1.6263954996984635,-0.01025597717472576
10.15935428,-0.01189256201803905,-1.2150380510111103,-0.08797272359835784
10.16435431,-0.011394444690273434,-0.7813196415125894,-0.1726448078524091
10.16935431,-0.00829771613128608,-0.32766364008558424,-0.2635630061839627
10.17435451,-0.0031438330130659927,0.14324663726613485,-0.3599262263304054
10.17935517,0.0034785170430452895,0.6284857981379444,-0.4608522201091296
10.18435517,0.010943304369029749,1.1249075394896138,-0.565389111572172
10.18935517,0.018598070753167325,1.6291689509440714,-0.6725275604459232
10.19435514,0.025775653947902138,2.137757741599011,-0.7812133794516967
10.19935514,0.031806485069845444,2.6470221237869724,-0.8903604261547664
10.20435514,0.0360312031729719,3.153203040304575,-0.9988635954030208
10.20935554,0.03781332124968933,3.652468381533279,-1.1056117468715811
10.21435557,0.03655167589972616,4.1409488064097495,-1.2095004129232871
10.21935557,0.031692398899117354,4.6147747569233015,-1.3094441441128035
10.22435487,0.022740162340443012,5.070114239871324,-1.40438836289882
10.22935484,0.009268468815241026,5.50321094147355,-1.4933206107546564
10.2343548,-0.009071217030468821,5.91042223902816,-1.5752810901587957
10.23935477,-0.032541670424608794,6.288256677989166,-1.649372420449473
10.24435477,-0.061313584832397884,6.633410492083791,-1.7147685439822937
10.2493548,-0.09546083562359044,6.942802758216418,-1.7707227350982184
10.25435484,-0.1349574028168028,7.213608796688848,-1.8165746783801744
10.25935487,-0.1796759917719255,7.443291450105631,-1.8517565944722236
10.26435487,-0.22938835696212512,7.629629900338283,-1.8757984014728322
10.26935487,-0.28376730209485695,7.770745711081589,-1.8883319076604344
10.27435484,-0.3423903005039616,7.8651258127831305,-1.8890940371738623
10.27935484,-0.40474465351459354,7.911642175969402,-1.87792909450887
10.28435484,-0.4702340818370087,7.909567947220092,-1.8547900766285013
10.28935487,-0.5381866261512185,7.858589848572481,-1.819739043358937
10.29435487,-0.6078637178559183,7.758816665869185,-1.7729465576577068
10.29935487,-0.6784702692788646,7.610783675115306,-1.7146902073334493
10.30435484,-0.7491656241531249,7.4154528795964065,-1.6453522189430274
10.3093548,-0.8190752034270373,7.174208956082971,-1.565416173106956
10.31435477,-0.88730267811624,6.888850837654191,-1.4754628287744063
10.31935477,-0.9529424997223613,6.5615788947513005,-1.3761650626051731
10.3243548,-1.0150926196527488,6.194977715471039,-1.2682819292382523
10.32935483,-1.0728672319347279,5.791994530541114,-1.1526518493729723
10.33435487,-1.1254093780231154,5.355913377149764,-1.0301849358829922
10.3393549,-1.1719032582219353,4.890325148039841,-0.9018544742262149
10.3443549,-1.2115861006659467,4.399093727382167,-0.7686875827621049
10.34935486,-1.2437594453545247,3.8863184723484787,-0.6317550916137037
10.35435483,-1.2677997068612457,3.356293358343095,-0.492160695517509
10.35935483,-1.2831678847615742,2.813463165688664,-0.3510294565181509
10.36435483,-1.2894182956302649,2.2623771452654022,-0.20949575595575967
10.36935486,-1.2862062052080805,1.70764065924835,-0.06869082121906377
10.37435553,-1.2732942450242357,1.1538653497940838,0.07027001993085019
10.37935553,-1.250557505776467,0.605618442433914,0.2063001774181107
10.38435553,-1.2179872115869357,0.0673718410539214,0.3383545235447728
10.38935553,-1.1756928957527735,-0.4565482836870159,0.46544177611441073
10.39435553,-1.1239030193987474,-0.9620106729283748,0.5866362950179003
10.3993555,-1.0629639978991754,-1.4451261580704255,0.7010890393961953
10.4043555,-0.993337624312859,-1.9022920581882463,0.8080374361505541
10.4093555,-0.9155969037372034,-2.3302330187557763,0.9068139267128849
10.41435553,-0.8304203381545933,-2.7260375374925037,0.9968529862460801
10.41935553,-0.738584728896459,-3.087189469203246,1.0776964449187856
10.42435553,-0.6409565926528915,-3.411593871851721,1.148996981650989
10.4293555,-0.5384823143031708,-3.697596651312822,1.2105197050303542
10.43435546,-0.4321771822312034,-3.9439975811270087,1.2621417836101017
10.43935503,-0.32311346688728887,-4.150056413011667,1.3038501384822265
10.44435503,-0.2124077109410137,-4.315491948824285,1.3357372636949427
10.44935506,-0.10120740076786354,-4.44047410865859,1.3579952919245466
10.45435509,0.009322813909254057,-4.525609195729868,1.3709084702873315
10.45935513,0.11801519070098467,-4.571918719699011,1.3748442515189658
10.46435516,0.22371309974364467,-4.580812289632765,1.3702432377542642
10.46935516,0.32528521195486293,-4.554055220284169,1.3576082379109196
10.47435512,0.4216395207806394,-4.493731606295573,1.3374927157191512
10.47935509,0.5117370469681279,-4.402203704955642,1.3104889138724578
10.48435509,0.5946050727393549,-4.2820685271007815,1.2772159401720315
10.48935509,0.6693497473331219,-4.1361125666393725,1.2383080931467214
10.49435512,0.7351679014337978,-3.9672656023025494,1.1944036867547225
10.49935512,0.7913579046419937,-3.77855448215261,1.1461346063922067
10.50435512,0.8373293987676971,-3.573057754597673,1.0941167930247448
10.50935509,0.8726117410896832,-3.3538619422348397,1.0389418120740328
10.51435506,0.8968609966234142,-3.124020170276796,0.981169622853746
10.51935502,0.9098653278421008,-2.886513763543322,0.9213226262156158
10.52435502,0.9115486452011251,-2.644217319295261,0.8598810341013761
10.52935506,0.9019724029317132,-2.3998676518683157,0.7972795744570894
10.53435509,0.8813354520547391,-2.1560368931036926,0.7339055170354547
10.53935512,0.8499718959678705,-1.9151099233841709,0.6700979787987669
10.54435512,0.8083469322695866,-1.6792662044776996,0.6061484417911907
10.54935512,0.7570507061932876,-1.4504659896352134,0.5423023923819146
10.55435509,0.6967902442189529,-1.2304408003167093,0.4787619699978858
10.55935509,0.6283795790514904,-1.0206879840114607,0.41568949682156026
10.56435509,0.5527282174169027,-0.8224691049771924,0.3532117476868022
10.56935512,0.47082813878928287,-0.6368118699364681,0.29142481126085673
10.57435512,0.3837395454698872,-0.46451525381255143,0.23039938904738946
10.57935512,0.2925756118684151,-0.30615746585289705,0.1701863774066386
10.58435512,0.19848650286440953,-0.16210638287670848,0.11082257953544229
10.58935552,0.10264294715417546,-0.03253207242024363,0.05233639921478461
10.59435552,0.006219660918205551,0.08257896744512094,-0.005246623883134329
10.59935549,-0.08962108045506312,0.183408214560096,-0.06189856660894218
10.60435545,-0.18374542963017268,0.270288523230937,-0.11758427824477222
10.60935545,-0.27506323242190417,0.34368684803397465,-0.17225704004619988
10.61435545,-0.3625423080109881,0.40418659872960017,-0.2258548112414802
10.61935548,-0.4452215059141584,0.45246991112834667,-0.27829712576117704
10.62435548,-0.5222223306624219,0.48930009470646174,-0.3294826846919944
10.62935549,-0.5927589583554803,0.51550449318947,-0.37928767003151675
10.63435545,-0.656146505394763,0.5319579694545382,-0.4275647863316854
10.63935545,-0.7118074479292674,0.5395672009198196,-0.47414301869447334
10.64435545,-0.7592761301310852,0.5392559458614349,-0.5188280787216717
10.64935548,-0.7982013396459945,0.5319514145638006,-0.5614034950233032
10.65435548,-0.8283469687997952,0.5185718517851006,-0.6016322926316026
10.65935548,-0.8495908197292129,0.5000154089564066,-0.6392591969949932
10.66435548,-0.8619216496723761,0.477150356412752,-0.6740132934980311
10.66935548,-0.8654345880033172,0.4508066585395319,-0.705611072367583
10.67435548,-0.8603250878783942,0.4217689087354321,-0.7337597906680995
10.67935545,-0.846881601389051,0.39077059711717005,-0.758161087151791
10.68435545,-0.8254771871021075,0.35848966237767343,-0.7785147915744741
10.68935545,-0.7965602725241542,0.3255452605582251,-0.7945228774373515
10.69435548,-0.7606448014491474,0.29249566799847143,-0.8058935154128388
10.69935548,-0.7182999975559059,0.2598372234783958,-0.8123451927661509
10.70435548,-0.6701399710898653,0.22800420550495445,-0.8136108702289275
10.70935545,-0.6168133849821156,0.1973695347434764,-0.8094421505391639
10.71435542,-0.5589933805825823,0.16824618862543447,-0.7996134316485684
10.71935542,-0.497367941998941,0.14088921489205916,-0.7839260129787606
10.72435545,-0.43263085276082086,0.11549823288329322,-0.7622121163900507
10.72935548,-0.3654733701224108,0.09222031552657502,-0.7343387760011265
10.73435548,-0.29657671178362893,0.0711531512007093,-0.7002115434486182
10.73935548,-0.2266054183244483,0.05234839293408826,-0.6597779480300587
10.74435548,-0.1562016235724244,0.03581511252903886,-0.6130306450546095
10.74935548,-0.08598023587825747,0.021523288773524402,-0.5600101817995614
10.75435548,-0.016525007017281875,0.009407271456051556,-0.5008073101552827
10.75935545,0.0516145571911764,-0.0006308239308912006,-0.4355647792263656
10.76435545,0.11792550921544342,-0.008717822408033222,-0.36447854960768195
10.76935545,0.1819330745354162,-0.015006314685772836,-0.2877983825421324
10.77435548,0.24320165888936882,-0.019671606104866905,-0.2058277701929471
10.77935548,0.301335344798406,-0.022908781891683706,-0.11892318676402017
10.78435548,0.3559779767794626,-0.02492987086681291,-0.02749265377192475
10.78935545,0.40681293344044483,-0.02596108209954211,0.06800637356126467
10.79435541,0.4535626797246392,-0.026240084846619043,0.1670697779591406
10.79935538,0.495988184279683,-0.026013301738428852,0.2691501749261637
10.80435538,0.5338882757489302,-0.025533188304602144,0.3736608819628682
10.80935541,0.5670989982558978,-0.025055477809342617,0.47998039987629554
10.81435544,0.5954930111093735,-0.02483637801562625,0.5874573313640331
10.81935548,0.6189790615726317,-0.02512971501034113,0.6954156510654709
10.82435548,0.6375015432585586,-0.026184027944315545,0.8031602326369423
10.82935548,0.6510401371703,-0.0282396270745756,0.909982533081781
10.83435544,0.659609518432477,-0.03152563560585025,1.0151663335088605
10.83935541,0.6632591001262652,-0.03625704334219244,1.117993439340971
10.84435541,0.6620727769333226,-0.04263180691394866,1.2177492517529156
10.84935544,0.6561686257685695,-0.05082803718474056,1.3137281350640735
10.85435548,0.6456985181434418,-0.06100131924567144,1.4052385206688218
10.85935548,0.6308475992166859,-0.07328221407381758,1.4916077053393118
10.86435548,0.6118335906841781,-0.08777399335573836,1.572186318873923
10.86935544,0.5889058781296097,-0.1045506600013114,1.6463524518310135
10.87435541,0.5623443477082132,-0.12365530632322422,1.7135154476518444
10.87935537,0.5324579418582396,-0.14509885954736781,1.7731193745231482
10.88435537,0.49958290912559605,-0.16885926003771098,1.8246462010142792
10.88935541,0.464080729242868,-0.19488111111258097,1.8676187063129828
10.89435544,0.42633570147664396,-0.22307583034242376,1.901603161311358
10.89935547,0.3867521921078105,-0.25332232063646265,1.926211821260232
10.90435547,0.3457515458505463,-0.28546816547121223,1.9411052744254396
10.90935547,0.30376867610373537,-0.3193313369659385,1.945994694148283
10.91435544,0.26124836016477054,-0.3547023892589813,1.9406440436428347
10.91935544,0.2186412777268348,-0.3913470941802432,1.9248722830607954
10.92435544,0.17639984350117685,-0.4290094631155548,1.8985556257406868
10.92935547,0.13497389649475522,-0.4674150896585151,1.861629883844963
10.93435547,0.09480631775358536,-0.5062747430186014,1.8140929315987155
10.93935547,0.05632865354714002,-0.5452881422052158,1.7560072964148048
10.94435547,0.019956820631741336,-0.5841478448895076,1.6875028645306915
10.94935547,-0.013913036218012027,-0.6225431911424086,1.6087796595648325
10.95435547,-0.04490847641245502,-0.6601642494179428,1.5201106215094977
10.95935544,-0.07268444413913999,-0.6967057189918515,1.421844282285021
10.9643554,-0.09692667507353976,-0.7318707489097209,1.314407204187214
10.9693554,-0.11735482594538826,-0.765374638063909,1.1983060211463323
10.97435544,-0.1337253401800087,-0.7969483841473805,1.0741289010592903
10.97935547,-0.14583407478326146,-0.8263420507514705,0.9425462317070975
10.98435547,-0.15351871960664384,-0.8533279215514319,0.8043103241724592
10.98935547,-0.15666103910680831,-0.8777034080964753,0.6602539276654075
10.99435544,-0.15518895807909625,-0.8992936731018584,0.5112873596225047
10.99935544,-0.14907849656831862,-0.9179539247729674,0.3583940759126706
11.00435544,-0.13835553626750058,-0.9335713308016439,0.20262453870169095
11.00935547,-0.1230973737306557,-0.946066495148643,0.045088284526657675
11.01435547,-0.10343398851057464,-0.9553944385489948,-0.11305584761359899
11.01935547,-0.07954893100574005,-0.9615450261859793,-0.2706113002097522
11.02435483,-0.05167971840108773,-0.9645427933989928,-0.42635708958138996
11.02935417,-0.02011761901777725,-0.9644461318679599,-0.5790626246133452
11.0343535,0.014793294212414689,-0.9613458132537491,-0.7275037945136488
11.03935347,0.05265793204338749,-0.9553628435917831,-0.8704800009548689
11.04435347,0.09303291419866465,-0.9466456588360709,-1.0068317549110917
11.04935347,0.13543030467108658,-0.9353666889511065,-1.1354584185412857
11.0543535,0.1793224022388266,-0.9217183340254331,-1.255335649579137
11.0593535,0.22414759897791892,-0.9059084104001135,-1.3655321012427006
11.0643535,0.2693172837880831,-0.8881551375849811,-1.4652249451640489
11.06935346,0.3142237302045143,-0.8686817481064312,-1.5537138172196092
11.07435347,0.35824886943376794,-0.847710812920897,-1.6304328334976967
11.07935346,0.4007738121637033,-0.825458384912462,-1.6949603817235461
11.0843535,0.44118894819086635,-0.8021280720969914,-1.7470264580323367
11.08935353,0.4789044236215729,-0.777905159972755,-1.7865173868986217
11.09435353,0.5133607735614975,-0.7529509083033896,-1.813477831381432
11.09935353,0.5440394751736863,-0.727397150633941,-1.8281100704854734
11.10435353,0.5704731818759853,-0.7013413240108798,-1.830770589608957
11.10935353,0.5922554033900974,-0.6748420508120028,-1.8219640980869818
11.11435353,0.6090494070090581,-0.6479153839960586,-1.802335153830339
11.1193535,0.6205961314548553,-0.6205318120952318,-1.7726576373335916
11.1243535,0.626720924915039,-0.5926141024768573,-1.7338223729011053
11.1293535,0.6273389424440454,-0.564036042935156,-1.6868232393078435
11.13435353,0.622459064244828,-0.5346221244781497,-1.632742139965761
11.13935353,0.6121862247284625,-0.5041481931212254,-1.5727332096220945
11.14435353,0.5967220719076324,-0.47234308506780504,-1.508006619112497
11.1493535,0.5763639069353813,-0.4388912465195986,-1.4398123039528803
11.15435313,0.5515018840790429,-0.40343632540791047,-1.3694238920318302
11.1593531,0.5226144819919859,-0.36558570733678025,-1.298123047369335
11.1643531,0.4902622876451372,-0.3249159525151449,-1.2271843876111899
11.16935313,0.45508016430182724,-0.2809790752576174,-1.1578610780193421
11.17435379,0.4177679038982218,-0.23330959350189778,-1.0913711578353034
11.17935449,0.37907949160823134,-0.18143226325570866,-1.028884618181495
11.18435516,0.339811135837154,-0.12487040219528404,-0.9715112252229111
11.18935516,0.30078824004574983,-0.06315469774108211,-0.9202890683048475
11.19435513,0.2628515132082483,0.004167612348957739,-0.8761738092709355
11.19935513,0.22684243281802227,0.07752330455294766,-0.8400286142381911
11.20435513,0.1935882876506918,0.15730360104630997,-0.8126147604827586
11.20935516,0.16388703656578918,0.24385459206429172,-0.794582926677219
11.21435519,0.13849222427847888,0.3374677739441228,-0.7864651927343577
11.21935519,0.11809819538558693,0.43837082727123455,-0.7886677942418754
11.22435516,0.10332584442197659,0.5467187584762914,-0.8014646939421329
11.22935512,0.0947091329266852,0.662585526684883,-0.8249920467231939
11.23435469,0.09268259488254901,0.7859562757150995,-0.8592436434370186
11.23935466,0.09757003971319297,0.9167202888571288,-0.9040674221348635
11.24435466,0.10957464744877313,1.054664781414296,-0.9591631338794376
11.24935469,0.12877063402237668,1.1994696428550542,-1.024081245533813
11.25435472,0.15509664642323864,1.350703236694367,-1.0982231549767698
11.25935476,0.1883510280840704,1.5078193617462208,-1.180842785698331
11.26435476,0.22818907470099453,1.6701554730074706,-1.271049617908929
11.26935476,0.27412237969222614,1.8369322539275585,-1.3678132021397975
11.27435472,0.3255203463578553,2.0072546238453484,-1.4699691888560926
11.27935472,0.38161391984405335,2.180114254445692,-1.5762268941233577
11.28435472,0.44150156560968207,2.3543936566824843,-1.6851784072245661
11.28935475,0.504157492076326,2.528871884387374,-1.7953092314370216
11.29435475,0.5684420838370579,2.702231882689729,-1.9050104338084994
11.29935475,0.6331144786755145,2.873069488595898,-2.0125922636523197
11.30435509,0.6968471871066789,3.0399040678799416,-2.116299182752905
11.30935509,0.7582426176401534,3.2011907471313155,-2.214326233033965
11.31435509,0.81585133518799,3.35533417280537,-2.3048366494505093
11.31935505,0.868191844980933,3.5007037010344604,-2.385980606572739
11.32435505,0.9137716611142621,3.6356498935659203,-2.4559149662303774
11.32935505,0.9511093884356864,3.758522167362894,-2.5128238706252706
11.33435509,0.9787575198164169,3.8676874189614905,-2.5549400010390992
11.33935512,0.9953256286786051,3.9615494203227573,-2.5805662976825814
11.34435512,0.9995036194950632,4.038568761125864,-2.588097912655084
11.34935509,0.9900846870758988,4.09728309343462,-2.5760441467315824
11.35435505,0.9659876290276525,4.136327418550761,-2.54305010278962
11.35935505,0.9262781550888508,4.154454142871173,-2.487917774727807
11.36435505,0.8701888421684935,4.1505526200124425,-2.4096262810523763
11.36935508,0.7971373944973412,4.123667890636279,-2.307350947177764
11.37435508,0.7067428838741044,4.0730183295323075,-2.1804809400490575
11.37935508,0.5988396653275571,3.998011911818729,-2.028635162971394
11.38435548,0.47348868871023825,3.898260816823776,-1.851676127548938
11.38935548,0.33098595698868394,3.7735940994768438,-1.6497215335151845
11.39435548,0.1718679173683399,3.624068174955843,-1.423153306124197
11.39935545,-0.003086388349920523,3.4499748828890486,-1.1726238647055867
11.40435545,-0.1928565432435759,3.2518469224394355,-0.8990594248249734
11.40935545,-0.3961854256826025,3.0304604788055776,-0.6036601699437134
11.41435548,-0.6115873614036154,2.7868348946500783,-0.2878971661534892
11.41935548,-0.8373597360689478,2.522229276302321,0.04649406495320161
11.42435548,-1.0715979945396774,2.2381359639777814,0.39752335539539685
11.42935545,-1.3122139004423763,1.9362708375646138,0.7629590744303981
11.43435542,-1.5569568775010318,1.61856047464906,1.140344629615427
11.43935538,-1.8034382031954976,1.2871262251407312,1.5270181774994807
11.44435538,-2.0491577762969793,0.9442653166111117,1.9201353852014977
11.44935541,-2.2915331334627984,0.5924291555711246,2.316695033629942
11.45435545,-2.52793034728703,0.23419904165595676,2.7135672033811606
11.45935548,-2.7556964001002946,-0.12774043668630522,3.107523735707505
11.46435551,-2.972192595239178,-0.4906300058462292,3.4952706140002605
11.46935551,-3.1748285408353225,-0.8516659426650051,3.8734818672226536
11.47435548,-3.361096220625267,-1.2080315301628175,4.238834557521496
11.47935545,-3.5286036522491675,-1.5569292822894776,4.58804438217395
11.48435544,-3.6751076264001967,-1.895613454138597,4.917901397556187
11.48935545,-3.7985450201801316,-2.221422330111139,5.2253053621033
11.49435548,-3.8970621853101086,-2.531809768724696,5.507300197667494
11.49935548,-3.969041927267953,-2.8243754804911534,5.761107084655633
11.50435548,-4.013127616577438,-3.0968935255578516,5.9841557350896135
11.50935544,-4.028244010099617,-3.347338541447909,6.174113427505589
11.51435541,-4.013614409303466,-3.573909248862276,6.328911435927814
11.51935538,-3.9687738439522873,-3.7750488353263916,6.446768539268723
11.52435538,-3.8935780418499157,-3.949461881887284,6.526211354624166
11.52935541,-3.7882080252820565,-4.09612757536542,6.566091295436261
11.53435544,-3.6531702587653547,-4.214309034933311,6.565598011274189
11.53935548,-3.4892923569052536,-4.303558673148075,6.524269218642649
11.54435548,-3.2977144423400246,-4.363719603511655,6.4419968810614705
11.54935548,-3.079876319347275,-4.394923194688143,6.319029741471165
11.55435544,-2.8375006968450722,-4.397582951929464,6.155972250856515
11.55935544,-2.572572754121513,-4.3723849763562335,5.95377997380726
11.56435544,-2.2873163932934304,-4.320275310626706,5.713751584224084
11.56935547,-1.9841675644954335,-4.2424445237470225,5.437517591984463
11.57435547,-1.6657450838592673,-4.140309917200575,5.1270259636627395
11.57935547,-1.3348193912900008,-4.01549574863734,4.784524817430387
11.58435547,-0.9942797154897621,-3.869811868349146,4.4125423848957945
11.58935547,-0.6471001278861741,-3.7052311488458405,4.013864442271936
11.59435547,-0.2963049750155499,-3.5238660609482677,3.591509421203756
11.59935544,0.05506581989170694,-3.3279447133472275,3.1487014166124867
11.60435541,0.40399110148107387,-3.1197866292974283,2.688841315245293
11.60935541,0.7475020024070114,-2.9017784869655934,2.2154762742585703
11.61435541,1.0827141908184066,-2.676350001912975,1.7322677842550518
11.61935544,1.406858427577261,-2.445950084052802,1.2429585562996779
11.62435544,1.7173090537645714,-2.2130233595464,0.7513384786051681
11.62935544,2.011610073909576,-1.979987112443518,0.2612098971290981
11.6343554,2.2874985511479524,-1.7492086733369376,-0.22364751349454418
11.6393554,2.542925086468768,-1.5229832651275765,-0.6995120056371849
11.6443554,2.7760712145092734,-1.3035123117385348,-1.1627548368573697
11.64935544,2.985363611485897,-1.0928822265827154,-1.6098748423656268
11.65435544,3.1694850740915905,-0.8930437250136162,-2.0375321496569123
11.65935544,3.3273822876917296,-0.7057917484572248,-2.4425806643789905
11.66435544,3.4582704539161946,-0.5327461453178715,-2.822098947645587
11.66935544,3.5616348889518337,-0.3753333213256421,-3.173419108376659
11.67435544,3.6372297334366395,-0.23476914386926162,-3.494153348004667
11.6793554,3.6850739331736753,-0.11204345225722075,-3.7822178142901133
11.6843554,3.7054446580408653,-0.007906577813319835,-4.035853441796573
11.6893554,3.698868326390606,0.07714169568481871,-4.253643478004666
11.69435544,3.6661093969866,0.1428603047046142,-4.434527419127785
11.69935544,3.608157084137959,0.18927181927831993,-4.577811112806885
11.70435544,3.5262101480530217,0.21666376372323098,-4.683172828479285
11.7093554,3.4216599141598176,0.2255860896935074,-4.750665149409848
11.71435537,3.2960716831793584,0.21684463721107894,-4.780712599720045
11.71935537,3.151164707722944,0.1914905175052924,-4.774104981233756
11.7243554,2.9887909299009228,0.1508054534163213,-4.731986455518286
11.72935544,2.8109126959843427,0.09628321594223675,-4.655840464844564
11.73435544,2.6195796859906837,0.02960739662007216,-4.547470642282268
11.73935544,2.4169053153716353,-0.04737414789071402,-4.408977916776356
11.74435544,2.2050428806171434,-0.13267775317591826,-4.242734074277866
11.74935544,1.9861617296613963,-0.22421480086163098,-4.051352090310401
11.75435544,1.7624237416887618,-0.3198243957177016,-3.8376536015955462
11.7593554,1.5359604000470315,-0.4173072393975948,-3.604633933192251
11.7643554,1.3088507373518408,-0.5144600363459575,-3.3554251416433796
11.7693554,1.0831004242401339,-0.6091097468675659,-3.093257572496819
11.77435543,0.8606222629669092,-0.6991470003110055,-2.8214204611187563
11.77935543,0.6432183339866272,-0.7825579986144383,-2.5432221282533054
11.78435543,0.43256402726321685,-0.8574542774094984,-2.2619503361809827
11.7893554,0.23019416965147202,-0.9220997484019453,-1.9808333778683311
11.79435537,0.03749143460865092,-0.9749345225595517,-1.7030024704916402
11.79935533,-0.14432281030173807,-1.0145951078616664,-1.431456015849426
11.80435533,-0.3141951008211064,-1.0399306852560917,-1.1690262715498816
11.80935536,-0.47124384833173155,-1.0500152862085221,-0.9183489442605879
11.8143554,-0.6147606740079423,-1.0441558162466757,-0.6818361640711421
11.81935543,-0.7442091559313342,-1.0218959819361106,-0.46165322307346857
11.82435543,-0.8592211071293876,-0.9830162763588884,-0.25969936273966227
11.82935543,-0.959590565957966,-0.9275302564645342,-0.07759278115169725
11.8343554,-1.0452657352476329,-0.8556774043861418,0.08334008561409978
11.83935536,-1.116339149818719,-0.7679129063694093,0.22207106176970848
11.84435536,-1.1730363817991263,-0.6648947108206766,0.33787265465366195
11.8493554,-1.2157036095938332,-0.5474682443917226,0.4303166174072123
11.85435543,-1.2447943802949368,-0.41664917430240356,0.4992689169818672
11.85935543,-1.2608558881961525,-0.2736046074570142,0.5448814058187778
11.86435543,-1.26451507543663,-0.119633112710827,0.5675805145522431
11.8693554,-1.2564648362939161,0.04385605804435178,0.5680532916971545
11.87435536,-1.2374505760999355,0.21536419135141288,0.5472311175991158
11.87935533,-1.20825734110459,0.39332444057849986,0.506271416505627
11.88435533,-1.169697698638102,0.5761229535911738,0.4465376841050723
11.88935536,-1.1226005090338036,0.7621195235518137,0.369578139097273
11.89435539,-1.0678006930715072,0.9496675198304928,0.2771032968096561
11.89935543,-1.0061300621987803,1.1371328891859547,0.17096275112709894
11.90435543,-0.9384092445534432,1.322912049472324,0.05312143863579727
11.90935543,-0.865440709075524,1.5054485284703778,-0.07436435380339977
11.91435539,-0.7880028641664678,1.6832482285497494,-0.2093709900152305
11.91935539,-0.7068451877273957,1.854893223338357,-0.349731260302836
11.92435539,-0.6226843326423758,2.019054015204177,-0.49325771470463553
11.92935542,-0.5362011455158145,2.174500202333229,-0.6377653551665351
11.93435543,-0.4480385354578544,2.3201095221391443,-0.7810935091735094
11.93935542,-0.3588001321431406,2.4548752545056676,-0.9211267298833683
11.94435543,-0.2690496763374267,2.57791198469753,-1.0558145905412464
11.94935542,-0.17931108990518976,2.688459742162557,-1.1831902628359736
11.95435543,-0.09006917479432619,2.785886548053382,-1.3013877890814265
11.95935539,-0.0017708911074699762,2.8696894209583843,-1.4086579761308984
11.96435536,0.08517283690160521,2.9394939066426935,-1.5033828544280228
11.96935536,0.17038484100820975,2.995052213088852,-1.5840886584775746
11.97435539,0.25351901377054376,3.0362400463926598,-1.6494572955389972
11.97935542,0.33425726144758583,3.063052255815201,-1.6983362780684195
11.98435542,0.41230617416904297,3.075597407280089,-1.729747103034994
11.98935542,0.4873934876567777,3.0740914135934063,-1.742892068260938
11.99435539,0.5592644153149045,3.058850356382305,-1.7371595226413425
11.99935539,0.6276779331861367,3.030282638970655,-1.7121275534483484
12.00435539,0.6924031031569599,2.988880611073547,-1.6675661197157994
12.00935542,0.7532155219431366,2.935211805444916,-1.6034376457776989
12.01435542,0.8098939847665309,2.869909923747284,-1.519896093399158
12.01935542,0.862217453132334,2.793665704255494,-1.4172845347658831
12.02435542,0.9099624156115036,2.707217797823045,-1.2961312521887063
12.02935542,0.9529007289228782,2.61134377096485,-1.1571443940922872
12.03435476,0.9907980237745431,2.5068513459084167,-1.001205221036163
12.03935406,1.0234127556960186,2.3945699768881537,-0.829359980447093
12.04435406,1.050495975232152,2.275342849718652,-0.6428104546239389
12.04935406,1.0717918840390832,2.1500193779129,-0.44290323348261695
12.05435409,1.0870392331919578,2.0194482536483953,-0.23111777136634892
12.05935409,1.0959736069307904,1.8844710961854905,-0.009053295926794516
12.06435349,1.0983306187523303,1.745916724459081,0.22158535344552902
12.06935345,1.0938500269773632,1.6045960651130389,0.4590028697773169
12.07435342,1.0822807537229286,1.4612976927901737,0.7013295059402382
12.07935339,1.0633867649648898,1.3167839864205468,0.9466378734906259
12.08435339,1.0369537407941927,1.1717878737617096,1.1929603875564345
12.08935339,1.0027964349930778,1.0270101265871958,1.4383072182011716
12.09435342,0.9607665927291849,0.8831171606912264,1.6806845941510111
12.09935345,0.9107612655068217,0.7407392882891127,1.9181132903564233
12.10435348,0.8527313344697605,0.6004693654819758,2.1486471171103703
12.10935349,0.7866900276092751,0.4628617742763642,2.370391215904007
12.11435348,0.7127211943062137,0.3284316772915148,2.5815199563690325
12.11935345,0.6309870829474297,0.1976544838764752,2.7802942200094933
12.12435345,0.5417353552919129,0.07096546902246528,2.9650778505300175
12.12935345,0.4453050661602549,-0.05124050875239126,3.1343530483050155
12.13435348,0.3421313402990922,-0.16860923754232296,3.2867344893953723
12.13935348,0.23274849131428063,-0.28082736867362745,3.420981959761626
12.14435348,0.11779135153990623,-0.38762264857434026,3.5360113156906525
12.14935345,-0.002005382747375334,-0.48876418451690523,3.6309036142767077
12.15435342,-0.12580993952363004,-0.5840627528378386,3.704912303575339
12.15935338,-0.25269848480097906,-0.673371148650582,3.7574684181094784
12.16435338,-0.38166239084017406,-0.7565845669016494,3.7881837857139464
12.16935352,-0.5116177215642899,-0.8336409957052285,3.796852308489668
12.17435355,-0.6414168333083076,-0.9045215941295418,3.7834494270648
12.17935358,-0.7698619292130102,-0.9692510180985345,3.7481299094390166
12.18435425,-0.8957203526840057,-1.0278976500632524,3.691224122593433
12.18935491,-1.0177413603003223,-1.0805736808878312,3.613232948272732
12.19435488,-1.1346740774248125,-1.127434986301146,3.5148214964376714
12.19935488,-1.2452863101605607,-1.168680735639574,3.3968117534307125
12.20435488,-1.3483838646991773,-1.2045526678385334,3.2601742791834147
12.20935491,-1.4428300090070072,-1.2353339690998728,3.1060190410558173
12.21435554,-1.527564701740143,-1.2613476887054011,2.9355854436505076
12.21935554,-1.601623209005041,-1.282954634366198,2.7502315870958807
12.22435554,-1.664153731316713,-1.3005506965380431,2.5514227639892466
12.22935554,-1.7144336717635713,-1.3145635624140188,2.3407191904105664
12.23435555,-1.751884193259511,-1.3254487947994114,2.1197629613569804
12.23935554,-1.7760827388577196,-1.3336852686348257,1.8902642263804432
12.24435551,-1.7867732246437207,-1.3397699782220038,1.653986596161887
12.24935551,-1.7838736590649844,-1.3442122505118344,1.4127318126484738
12.25435551,-1.7674809943077796,-1.3475274229674525,1.1683237406379081
12.25935554,-1.737873072618269,-1.3502300670604956,0.9225917637363996
12.26435528,-1.695507591167024,-1.352826858972357,0.6773536899567275
12.26935528,-1.6410180710223843,-1.3558092163880526,0.43439829116043266
12.27435524,-1.575206876857392,-1.3596458334591137,0.19546761721708866
12.27935524,-1.4990353918389734,-1.3647752542456932,-0.03776075749362883
12.28435524,-1.4136115042944961,-1.3715986275015002,-0.2636913782527303
12.28935528,-1.3201746071479727,-1.3804727821644895,-0.4808282440458239
12.29435528,-1.220078346656904,-1.3917037536784214,-0.6877916015137991
12.29935528,-1.1147713836429405,-1.4055408774456297,-0.8833339348789211
12.30435528,-1.005776448989347,-1.4221715490296236,-1.0663548523775497
12.30935528,-0.8946679871449036,-1.441716732955769,-1.2359145391818058
12.31435528,-0.7830486889088832,-1.4642272844847748,-1.3912454296435117
12.31935514,-0.6725252204522075,-1.4896811325291812,-1.531761755102687
12.32435514,-0.5646834615484798,-1.5179813576472,-1.657066650697647
12.32935514,-0.4610635734419376,-1.5489551871467093,-1.7669565541202101
12.33435518,-0.3631352254831669,-1.582353919546444,-1.8614226960900626
12.33935521,-0.2722733184818765,-1.6178537820929582,-1.9406495601113964
12.34435521,-0.18973455008234819,-1.6550577164991096,-2.005010271864788
12.34935517,-0.11663517175640356,-1.693498078522643,-2.055058961473125
12.35435514,-0.05393028694885172,-1.7326402260444105,-2.0915202207654184
12.35935514,-0.002395034867846457,-1.7718869583452879,-2.1152758490533854
12.36435514,0.03739200555879222,-1.8105837573802415,-2.127349142151823
12.36935517,0.06506287156363234,-1.8480247712743605,-2.128887028726126
12.37435517,0.08047143107702731,-1.883459472017854,-2.1211403947711163
12.37935517,0.08370147791760282,-1.9160999139338732,-2.1054429612152816
12.38435517,0.07507145750309116,-1.9451285170244599,-2.0831890923217347
12.38935517,0.05513560603597357,-1.9697062995184527,-2.0558109155242104
12.39435517,0.02468132506267812,-1.9889814863223585,-2.0247551286446916
12.39935514,-0.015277341159042238,-2.0020984239709385,-1.9914598596477113
12.40435514,-0.06351020520392847,-2.0082067376202217,-1.9573319278605843
12.40935514,-0.11858543206050556,-2.0064706713983393,-1.9237248340397102
12.41435544,-0.17888798170157483,-1.9960785597567656,-1.8919177801458427
12.41935544,-0.24264187476533622,-1.976252383718316,-1.863095989290453
12.42435544,-0.30793607761578595,-1.9462573711374873,-1.8383325636669337
12.4293554,-0.37275372040455185,-1.905411603238733,-1.818572085100574
12.43435541,-0.4350042790467006,-1.853095589943243,-1.804616130575739
12.4393554,-0.49255827236974215,-1.7887617733353338,-1.7971108447677542
12.44435544,-0.5432839524147617,-1.7119439118278246,-1.7965366840086756
12.44935544,-0.5850854021593562,-1.6222662871363045,-1.8032004219051176
12.45435544,-0.6159414034915358,-1.5194526624219384,-1.8172294862743006
12.45935544,-0.6339444009868763,-1.4033349038977045,-1.838568679648645
12.46435544,-0.6373388649175581,-1.273861161345658,-1.8669793198972553
12.46935544,-0.6245583501863614,-1.1311034869924357,-1.902040821539704
12.4743554,-0.5942605563049567,-0.975264758290756,-1.9431547201686177
12.47935537,-0.5453597166031297,-0.8066847590661314,-1.9895511207709697
12.48435537,-0.4770556816451111,-0.6258452655212344,-2.0402975251344215
12.48935537,-0.3888591108671087,-0.43337397889877055,-2.0943099641951486
12.4943554,-0.28061224584659505,-0.2300471454118474,-2.150366329397338
12.4993554,-0.15250480644702877,-0.016790706797323605,-2.207121765198267
12.5043554,-0.005084625626525122,0.20532016792238567,-2.2631259552207803
12.50935537,0.1607372815633069,0.43506330681786554,-2.316842108656635
12.51435534,0.34368743558519715,0.6710736360378764,-2.3666674314022424
12.5193553,0.5421365306970078,0.9118492564963145,-2.4109548472386404
12.5243553,0.7541120387667976,1.155759569997538,-2.4480357172146223
12.52935533,0.9773167322951898,1.4010554997762437,-2.4762432897484934
12.53435537,1.2091529877712035,1.6458818188640574,-2.4939365999196172
12.5393554,1.4467526374801318,1.8882915658445605,-2.4995245244894506
12.5443554,1.6870120456535354,2.126262491793555,-2.491489690044281
12.5493554,1.9266319949880613,2.357715444785286,-2.4684119260059743
12.55435537,2.1621618838652386,2.5805345595738403,-2.4289909528764073
12.55935537,2.390047654842009,2.7925890804156146,-2.372067999668798
12.56435537,2.6066828026789532,2.9917566052188875,-2.2966460534271933
12.5693554,2.8084617466204267,3.1759475002461337,-2.2019084579242376
12.5743554,2.991834797961923,3.34313019757589,-2.0872355974370143
12.5793554,3.1533639110767675,3.4913570536750607,-1.9522194240195176
12.58435536,3.289778374723555,3.6187904179488544,-1.7966756120113347
12.58935533,3.3980295810697654,3.7237285360912757,-1.6206531509993847
12.5943553,3.475344002746223,3.804630895302747,-1.4244412177674806
12.5993553,3.5192735136809383,3.8601426075994745,-1.2085731987758268
12.6043553,3.527742207812987,3.8891174239442083,-0.9738277671905164
12.60935533,3.4990889014393627,3.890638976040843,-0.7212269520904612
12.61435536,3.432104550158779,3.864039854458967,-0.4520311718906308
12.6193554,3.326063870196033,3.8089181512271706,-0.16773123903742798
12.62435473,3.180750526144613,3.725151121882564,0.12996262147085022
12.62935473,2.996475332381033,3.6129056556869803,0.4391346613869904
12.6343547,2.774087012636965,3.472645282695709,0.7576802921822107
12.6393547,2.5149751699336917,3.305133491988257,1.0833254120516713
12.6443547,2.2210652352781852,3.1114331860341973,1.413648192485695
12.64935473,1.894805285996741,2.892902151109196,1.746103105850592
12.65435473,1.5391447512241485,2.651184481915149,2.078046942185259
12.65935473,1.1575051508763523,2.3881979589828837,2.4067665312227646
12.66435473,0.7537431434050655,2.10611743895188,2.729507854907233
12.66935473,0.33210628465889,1.8073543794642155,3.043506207031767
12.67435473,-0.10281797689435841,1.4945326814161066,3.3460170308890653
12.67935469,-0.5461594265593576,1.1704610911263313,3.6343470439741714
12.68435469,-0.9928275806166968,0.8381024631548244,3.9058852418610392
12.68935469,-1.4375787042677477,0.5005402404999316,4.158133362361354
12.69435473,-1.8750864117690598,0.16094256197601758,4.388735386694984
12.69935473,-2.300014833766738,-0.17747554419114545,4.595505657103935
12.70435473,-2.707093273846623,-0.5114913770930455,4.77645520034948
12.70935469,-3.091191228234024,-0.8379146481085425,4.929815863934445
12.71435466,-3.4473926107731354,-1.153627860189463,5.054061896752064
12.71935466,-3.771068011025806,-1.4556263834557217,5.1479286383281275
12.72435469,-4.057943817770586,-1.741057613749689,5.210428021149602
12.72935472,-4.304167064565217,-2.007258595174539,5.240860638905448
12.73435473,-4.506364899353338,-2.2517914927264604,5.238824189386784
12.73935472,-4.6616976469255,-2.4724763178278475,5.2042181629953514
12.74435472,-4.767904521544595,-2.667420338580936,5.137244714330377
12.74935473,-4.823341157002,-2.8350436484114527,5.038405723135773
12.75435472,-4.82700825192936,-2.974100421896616,4.908496120018014
12.75935469,-4.778570777256151,-3.083695455195219,4.748593619375037
12.76435469,-4.67836735644288,-3.1632956701171966,4.560045063872775
12.76935469,-4.527409602137264,-3.212736353701212,4.344449638676149
12.77435539,-4.327371369219584,-3.2322220060718414,4.10363925777192
12.77935539,-4.080568058550228,-3.2223217742792576,3.8396564588755626
12.78435539,-3.789926274308932,-3.183959554487604,3.5547301683231898
12.78935536,-3.4589442981422227,-3.118398945398368,3.2512497141257115
12.79435536,-3.0916439934988045,-3.0272233292251096,2.931737475369589
12.79935536,-2.692514891619711,-2.9123114408601802,2.5988205610717854
12.80435539,-2.2664513348089717,-2.7758088595266353,2.2552019131628285
12.80935539,-1.8186836613620412,-2.6200959186425554,1.9036312275139329
12.81435539,-1.3547045087664586,-2.4477525773531252,1.5468760834958795
12.81935539,-0.8801913864453413,-2.2615208301352543,1.1876936647474916
12.82435539,-0.40092672511831956,-2.0642652486824864,0.8288034394479048
12.82935539,0.07728335451991607,-1.8589322534253478,0.47286114597406315
12.83435536,0.5486902966034393,-1.648508701976686,0.12243439935735105
12.83935532,1.0076831380400864,-1.435980360851747,-0.22001980348887615
12.84435532,1.4488660870092585,-1.224290798013476,-0.552175445038804
12.84935536,1.8671324771981053,-1.016301200585509,-0.8718555287465337
12.85435539,2.2577339897543993,-0.8147515880721627,-1.1770476688937521
12.85935539,2.6163441196337103,-0.6222238599355633,-1.4659171566346147
12.86435539,2.939114964199786,-0.44110708979386565,-1.7368174957665639
12.86935535,3.222726527713724,-0.2735654578908146,-1.9882984710072105
12.87435535,3.4644278633353434,-0.12150919864716866,-2.219111879953396
12.87935535,3.662069511422611,0.013431070244807107,-2.428215119393437
12.88435472,3.8141268353953772,0.1299262790463246,-2.614772855919847
12.88935472,3.9197140000597446,0.22696674951384083,-2.778157018608134
12.89435472,3.9785884789546953,0.30387561960142906,-2.9179453232143215
12.89935472,3.9911461158231125,0.36031754662344223,-3.0339184799329466
12.90435472,3.9584069006176934,0.3963024298825242,-3.1260561673429392
12.90935472,3.881991751726844,0.412183954517113,-3.1945317928363655
12.91435525,3.764090721444503,0.40865283607127484,-3.239706017483453
12.91935525,3.6074231592750667,0.3867247380894404,-3.2621190048848625
12.92435525,3.415190476633464,0.347722939008788,-3.2624813564893755
12.92935529,3.1910222567091178,0.2932559345706875,-3.2416637147479825
12.93435529,2.9389165443202283,0.2251902725505971,-3.200685044738255
12.93935529,2.6631752315408392,0.14561902325513126,-3.1406996397271527
12.94435525,2.3683355246296482,0.05682638848256295,-3.0629829327542186
12.94935525,2.0590985355206604,-0.0387509590913522,-2.9689162318543123
12.95435525,1.7402560863090264,-0.13856513683020452,-2.8599705290684843
12.95935529,1.4166168471890404,-0.24000018032775602,-2.737689561965782
12.96435532,1.0929329464837743,-0.3404162570887684,-2.603672330942144
12.96935532,0.7738281952046769,-0.43719415164958497,-2.4595552965604663
12.97435532,0.46372905773549,-0.5277791938717042,-2.306994499397874
12.97935532,0.1667994745120381,-0.6097238073710736,-2.147647861058862
12.98435532,-0.11311939878727804,-0.6807278804611389,-1.9831579397304462
12.98935532,-0.37256352976160434,-0.7386762072696436,-1.8151354267029074
12.99435528,-0.6084934987395043,-0.781672310618846,-1.6451436798005419
12.99935528,-0.8183343153558092,-0.8080680393053997,-1.4746845905614472
13.00435528,-1.0000068687123536,-0.8164884288755031,-1.3051860650957463
13.00935532,-1.1519504757952572,-0.805851424297318,-1.1379913537004385
13.01435532,-1.2731361750674013,-0.7753821811333494,-0.9743503879754914
13.01935532,-1.3630706104985206,-0.7246217841373093,-0.8154131852875129
13.02435462,-1.4217905564516515,-0.6534303441370785,-0.66222527770417
13.02935458,-1.4498483372607043,-0.561984552010109,-0.5157250351064648
13.03435522,-1.4482885893671207,-0.4507698798834223,-0.37674269157792795
13.03935522,-1.4186169914907631,-0.3205677225833126,-0.24600085256574727
13.04435525,-1.3627617436154802,-0.17243786550980997,-0.12411625348855933
13.04935528,-1.2830287047541244,-0.007696747350853231,-0.011602551260353826
13.05435532,-1.182051200889231,0.17210794390656928,0.09112604925798781
13.05935532,-1.0627355880149245,0.3652257467952571,0.1837505086878617
13.06435475,-0.928203701256737,0.5697343376432636,0.2660421605396327
13.06935471,-0.7817333401233653,0.7835722150796416,0.3378575507913858
13.07435471,-0.6266979328056925,1.0045724853206686,0.399133036544576
13.07935471,-0.4665064905832599,1.230497080650525,0.4498792623628997
13.08435475,-0.30454490933837236,1.4590707627553123,0.49017562578033824
13.08935478,-0.14411960234090387,1.6880142954204171,0.5201648361419499
13.09435478,0.011595639191570504,1.915076216557086,0.5400476624284839
13.09935475,0.15960875988140194,2.1380626962009295,0.5500779552537094
13.10435471,0.29715383689456765,2.3548650331984704,0.5505580154171336
13.10935468,0.421730180003281,2.563484416545035,0.5418343664491069
13.11435464,0.531135670607489,2.762053655293556,0.5242939721830374
13.11935464,0.6234939914410732,2.948855661113273,0.49836092324051756
13.12435468,0.697275513559819,3.122338547565797,0.46449359884511593
13.12935471,0.7513117192036345,3.2811272879046967,0.4231822928061211
13.13435474,0.7848031473180324,3.4240319470229306,0.37494727511898895
13.13935474,0.7973209523602585,3.550052571750419,0.320337243988814
13.14435474,0.788802266000354,3.658380885883835,0.25992810808918393
13.14935404,0.7595396448354714,3.7483989910398194,0.1943220264964771
13.15435404,0.7101649745149954,3.819675320817445,0.1241466246480093
13.15935404,0.6416282809109319,3.8719581333760034,0.05005429895484358
13.16435408,0.5551719713476828,3.9051668562733974,-0.02727847998305573
13.16935408,0.4523010926012992,3.919381617406757,-0.10715195565597518
13.17435454,0.33475024646049845,3.9148313075090186,-0.1888440531245362
13.17935454,0.20444784693858004,3.891880523405514,-0.2716116087136521
13.18435454,0.06347843424836049,3.851015737569561,-0.3546919383567029
13.18935454,-0.08595622226807825,3.792831028609855,-0.43730481348081024
13.19435451,-0.24157649837810566,3.718013689233306,-0.5186549059379898
13.19935451,-0.4010640469344562,3.6273300032792535,-0.5979347570081728
13.20435451,-0.5620999984090611,3.521611452441782,-0.6743283198408752
13.20935454,-0.7224015854270197,3.4017415775801214,-0.7470151188364733
13.21435457,-0.8797566034607379,3.268643680637919,-0.8151750617021395
13.21935457,-1.0320551861123664,3.1232695127843493,-0.8779939285916081
13.22435387,-1.1773184469576286,2.9665890539084785,-0.9346695470817079
13.22935384,-1.313723618865273,2.799581449122237,-0.9844186421635299
13.23435384,-1.4396254042825651,2.6232271301633574,-1.0264843279827995
13.23935384,-1.553573334377028,2.4385011141096222,-1.0601441837593057
13.24435387,-1.6543250194860488,2.2463674392931576,-1.0847188310227054
13.24935387,-1.740855256807005,2.047774669505719,-1.0995809041140538
13.25435387,-1.812361042805684,1.8436523731738008,-1.104164282302953
13.25935387,-1.8682626166115812,1.6349084645575265,-1.0979734314669651
13.26435387,-1.908200735530777,1.42242727935951,-1.0805926873194103
13.26935387,-1.9320304530666363,1.2070682474806913,-1.0516953011994161
13.27435384,-1.9398117315017993,0.9896650210614635,-1.0110520633105622
13.27935384,-1.9317972731628974,0.7710249163973654,-0.9585393164748983
13.28435384,-1.9084179952242375,0.5519285337310815,-0.8941461753565815
13.28935387,-1.870266601031427,0.3331294290518501,-0.8179807712127073
13.29435387,-1.8180797157408257,0.11535372643207752,-0.7302753501964172
13.29935454,-1.7527190553968501,-0.100700422545556,-0.6313900638338009
13.3043545,-1.6751520866181244,-0.31436360486483744,-0.5218153033928296
13.3093545,-1.5864326095291679,-0.5249961874825545,-0.40217244547221925
13.3143545,-1.4876816608895616,-0.7319896602395841,-0.2732128944284755
13.31935454,-1.3800690896804826,-0.9347682830505399,-0.13581532845119587
13.32435474,-1.2647961061717403,-1.132791018110449,0.009018919681149876
13.32935474,-1.1430790501369952,-1.3255537081153017,0.16017238888424845
13.33435474,-1.016134566655989,-1.5125914446840916,0.31641993464030793
13.33935474,-0.8851663208346424,-1.6934810576107533,0.4764390711657735
13.34435474,-0.7513533274755584,-1.8678436452464788,0.6388221545442524
13.3493547,-0.6158399196114744,-2.0353470588941467,0.8020903140301999
13.35435467,-0.4797273319287988,-2.1957082491087565,0.9647090018012044
13.35935467,-0.34406683223175677,-2.3486953787833755,1.1251049950792167
13.36435467,-0.20985429678077816,-2.494129606513822,1.2816846497625882
13.3693547,-0.07802609394685303,-2.6318864438401355,1.4328531724737943
13.37435537,0.05054388463842607,-2.761896591867301,1.5770346491338625
13.37935537,0.1750462251905726,-2.8841461674510525,1.712692543577098
13.38435533,0.2947372169860008,-2.9986762380940277,1.8383503598226116
13.3893553,0.40893949779217714,-3.1055815992559217,1.9526121466983246
13.39435527,0.5170423108410708,-3.205008748149491,2.0541825137183074
13.39935527,0.6185015499559069,-3.297153032812362,2.141885822465692
13.4043553,0.7128397446938073,-3.382254981544621,2.214684218017697
13.40935533,0.7996461036480403,-3.460595842777616,2.2716941697468194
13.41435536,0.8785766937944215,-3.532492387142288,2.3122011998034595
13.41935537,0.9493547904927628,-3.598291041192352,2.3356724908859934
13.42435536,1.0117713903288161,-3.658361435908295,2.3417670834581017
13.42935533,1.0656858408871193,-3.7130894630388998,2.330343397946966
13.43435533,1.1110265104009425,-3.7628699389750806,2.3014638513081045
13.43935533,1.147791397392103,-3.808098979873534,2.255396380762697
13.44435536,1.176048565850803,-3.8491661939847317,2.1926127406446687
13.44935536,1.195936284157141,-3.88644679834413,2.1137835002815826
13.45435536,1.2076627444381438,-3.9202937676334755,2.0197697398582317
13.45935533,1.2115052422960342,-3.951030123239495,1.9116115145919677
13.4643553,1.2078087042984262,-3.978941470152626,1.7905132321095099
13.46935526,1.196983462189815,-4.00426888801489,1.6578261606324263
13.47435526,1.1795021884083219,-4.0272022800419816,1.5150283541030345
13.47935526,1.155895926852461,-4.047874279629394,1.3637023431403807
13.4843553,1.1267491754170937,-4.066354809415927,1.2055109966717639
13.48935533,1.0926940020804923,-4.0826463818746825,1.0421720074106635
13.49435536,1.0544032037652664,-4.096680224597037,0.8754314941389919
13.49935536,1.0125825462739158,-4.108313307293219,0.7070372437038187
13.50435536,0.9679621537738072,-4.11732634012885,0.5387121337202856
13.50935533,0.9212871467454804,-4.123422802608418,0.3721282805283224
13.51435533,0.8733076562142471,-4.126229047578498,0.20888244380197574
13.51935533,0.8247683668434541,-4.125295506547283,0.05047318893282725
13.52435536,0.7763977604215007,-4.120099002688848,-0.10171973771157589
13.52935536,0.728897245243928,-4.110046159708242,-0.24645342509745838
13.53435536,0.6829303681047242,-4.094477880777757,-0.38263688023844233
13.53935536,0.6391123151864736,-4.0726748631927405,-0.509342929648439
13.54435536,0.5979999151242634,-4.043864110899238,-0.6258167716162848
13.54935536,0.5600823599465022,-4.007226407248859,-0.7314810889658423
13.55435533,0.5257728557964158,-3.961904712176193,-0.8259377054899666
13.55935533,0.4954014044541028,-3.9070134488423376,-0.908965840000569
13.56435533,0.469208898540081,-3.841648642027383,-0.9805170828926235
13.56935536,0.44734268811097294,-3.7648988626068096,-1.040707293172997
13.57435536,0.4298537447915311,-3.6758569193903106,-1.089805687553682
13.57935536,0.4166955129340644,-3.5736322228306747,-1.1282214623950897
13.58435532,0.40772449736611527,-3.4573637264395582,-1.156488347683918
13.58935529,0.40270259563589905,-3.3262333327809186,-1.1752475350204574
13.59435529,0.40130114017452456,-3.1794796329925363,-1.1852294464961608
13.59935532,0.4031065732351599,-3.0164118331325462,-1.1872348179973495
13.60435536,0.40762763641614036,-2.836423708257301,-1.1821155596440147
13.60935536,0.41430391970452657,-2.6390074164386697,-1.1707558294909497
13.61435536,0.4225155855890357,-2.423766999582247,-1.1540537168983207
13.61935536,0.43159406476642853,-2.190431395021489,-1.1329038821814115
13.62435536,0.44083351236093066,-1.9388667804824113,-1.1081814423336944
13.62935536,0.4495028157693228,-1.6690880745029628,-1.0807273319883859
13.63435532,0.45685795369962284,-1.3812694146034405,-1.051335308073839
13.63935532,0.4621545171353832,-1.0757534368272577,-1.0207407098102983
13.64435532,0.46466021459083007,-0.7530591834521339,-0.9896110360745113
13.64935536,0.46366719519351135,-0.4138884713794047,-0.95853836143858
13.65435536,0.45850403349717633,-0.05913056215943487,-0.9280335802058451
13.65935536,0.44854722923930185,0.31013501437763186,-0.898522442839597
13.66435532,0.43323208348386616,0.6926376174895731,-0.8703433289420085
13.66935529,0.4120628202544654,1.0869167524047298,-0.8437466831304523
13.67435525,0.38462183087134116,1.491325525925408,-0.8188960231227485
13.67935525,0.35057792768604795,1.9040363768973823,-0.7958704123597418
13.68435529,0.30969350505172,2.3230491306783674,-0.7746682729154715
13.68935532,0.26183051775878324,2.74620139598001,-0.7552123994313991
13.69435535,0.20695520007787654,3.1711812885233193,-0.7373560226572523
13.69935535,0.14514146139951156,3.5955424296749317,-0.7208897626574254
13.70435535,0.07657290702562579,4.016721130624457,-0.7055493068734972
13.70935532,0.0015434450959376212,4.43205563480489,-0.6910236465800477
13.71435529,-0.07954354671192607,4.838807254249038,-0.6769637063970118
13.71935528,-0.16617750777542625,5.234183200479902,-0.6629912052574723
13.72435532,-0.25774443324116036,5.615360878356345,-0.6487075935697835
13.72935535,-0.3535320483926546,5.979513382990543,-0.6337029201590769
13.73435535,-0.45273638593132515,6.323835916306501,-0.6175644936115813
13.73935535,-0.5544697163458088,6.645572821752676,-0.599885215420061
13.74435532,-0.6577697638150801,6.942044923645734,-0.5802714763907288
13.74935528,-0.7616101218577976,7.210676851991011,-0.55835052278743
13.75435525,-0.8649117643335961,7.449024034652827,-0.5337772144658585
13.75935525,-0.9665555285769868,7.654799046398192,-0.5062401136807532
13.76435528,-1.0653954286816543,7.825897018110485,-0.4754668601975716
13.76935532,-1.1602726387467548,7.960419828362887,-0.44122880553202637
13.77435535,-1.2500299689300496,8.056698822083689,-0.40334489608539037
13.77935535,-1.3335266422052985,8.113315825379878,-0.36168481094481375
13.78435535,-1.4096531676072608,8.129122249719815,-0.31617137438811005
13.78935531,-1.4773460972152794,8.103256100898573,-0.2667822749254699
13.79435531,-1.535602449678934,8.035156727444738,-0.2135511314012333
13.79935531,-1.5834935828864556,7.924577159034555,-0.1565679518372234
13.80435535,-1.6201783023369538,7.771593898309738,-0.09597903218271424
13.80935535,-1.6449149997553367,7.576614039864254,-0.03198634009054715
13.81435535,-1.6570726283749644,7.340379598859025,0.03515357640484777
13.81935535,-1.6561403370513974,7.063968939578984,0.1051311234110954
13.82435535,-1.6417356049217193,6.748795202098501,0.17758561709415002
13.82935535,-1.6136107415794838,6.396601633905002,0.2521076505749022
13.83435531,-1.571657644419317,6.009453743732561,0.3282418731804282
13.83935528,-1.5159107344378253,5.5897282079638515,0.4054901946047159
13.84435528,-1.446548023703585,5.140098476853894,0.4833154360639164
13.84935531,-1.3638903010829109,4.663517049586543,0.561145457392885
13.85435534,-1.268398456519581,4.163194414681328,0.6383777923721677
13.85935534,-1.1606689968991841,3.6425746860667876,0.7143848238335556
13.86435535,-1.0414278370540349,3.1053080053505617,0.7885195250124736
13.86935531,-0.9115224769694127,2.5552198271697555,0.8601217842113275
13.87435531,-0.7719127004449844,1.9962772564398152,0.928525316326205
13.87935531,-0.6236599514275066,1.4325526631557188,0.9930651474563845
13.88435534,-0.4679155621172185,0.8681848613964126,1.0530856378179214
13.88935534,-0.30590802172298326,0.30733820347717505,1.1079489833712357
13.89435534,-0.13892948610825376,-0.245839993306214,1.157044107523041
13.89935534,0.03167826387901748,-0.7872632025612394,1.1997958206820913
13.90435534,0.20453820422601102,-1.3129500760091555,1.2356740880463528
13.90935534,0.3782525795880188,-1.819068846939255,1.2642032076443603
13.91435531,0.5514173405435908,-2.301981075992243,1.2849706671248082
13.91935531,0.7226363118070857,-2.7582840141182645,1.2976354269975623
13.92435531,0.8905349115043489,-3.18485081727353,1.30193537705426
13.92935534,1.0537732597388978,-3.5788678224870827,1.2976937335997902
13.93435534,1.211058534391675,-3.9378680907205657,1.2848241822117743
13.93935534,1.3611564512076,-4.2597604440343195,1.263334611972277
13.94435531,1.5029017627557104,-4.542853277331507,1.2333293199504218
13.94935528,1.635207687508678,-4.785872510311538,1.1950095835332781
13.95435524,1.757074197499561,-4.987973162443973,1.1486725087443768
13.95935524,1.867595112224276,-5.148744179983759,1.0947080795128232
13.96435524,1.9659639693890367,-5.268206315197291,1.0335943698647962
13.96935527,2.0514786712874935,-5.3468030481352695,0.9658909418908491
13.97435531,2.1235449382835805,-5.385384741314313,0.892230528765108
13.97935534,2.1816786336721417,-5.385186415000595,0.8133091797477329
13.98435534,2.225507050776647,-5.347799711769005,0.729875110145308
13.98935534,2.254769268772344,-5.275139772293524,0.6427165462312241
13.99435531,2.2693156872158085,-5.16940786311509,0.5526488815651477
13.99935531,2.269106842398607,-5.03305067917615,0.4605014697436852
14.00435531,2.254211594297684,-4.868717289878224,0.36710437410982816
14.00935534,2.2248047537277653,-4.679214709270513,0.27327538176247473
14.01435534,2.1811641975589735,-4.46746305132473,0.17980756997952488
14.01935534,2.123667497632513,-4.236451183502304,0.08745768863303094
14.02435464,2.0527880682745683,-3.9891937203158583,-0.003064407965630515
14.02935461,1.9690908197935748,-3.72869010839903,-0.09110508226524101
14.03435391,1.8732272923399014,-3.4578864511639082,-0.17607483111060354
14.0393539,1.7659302368768501,-3.179640609803974,-0.2574546872678784
14.04435394,1.648007608356096,-2.896691002991688,-0.3348010369036252
14.04935397,1.5203359409204746,-2.611629414050486,-0.40774882752034414
14.0543536,1.3838530861339364,-2.3268780046986572,-0.47601317896472134
14.0593536,1.2395503123383949,-2.044670631004021,-0.5393894428869622
14.0643536,1.088463785151728,-1.7670384617681463,-0.5977517835975994
14.06935357,0.931665474393992,-1.4957998136011539,-0.6510503764927453
14.07435357,0.7702535597647867,-1.2325540415169245,-0.6993073399902164
14.07935357,0.6053424347324775,-0.9786792596406277,-0.7426115337278225
14.0843536,0.4380524336278431,-0.7353336138405716,-0.7811123696081687
14.08935364,0.26949942911993974,-0.5034597867324667,-0.8150127927906236
14.09435364,0.10078446435856327,-0.28379238533766066,-0.84456159657632
14.09935364,-0.06701640542287407,-0.07686784230354335,-0.8700452381939101
14.10435364,-0.23286188405126376,0.11696354777029498,-0.8917793219563597
14.10935364,-0.3957546450727071,0.2975238360316179,-0.9100999124965151
14.11435364,-0.5547498201684028,0.46479224393240043,-0.9253548342884537
14.1193536,-0.7089626210018091,0.6188889659329108,-0.937895105086458
14.1243536,-0.8575749725057956,0.7600582962811305,-0.9480666411662835
14.1293536,-0.999841061640033,0.8886514076171728,-0.9562023623084108
14.13435364,-1.1350917338750837,1.005109088825747,-0.9626148150101741
14.13935364,-1.262737698357949,1.1099447275615435,-0.967589423584532
14.14435364,-1.3822715300738408,1.2037277995676725,-0.9713784701256495
14.1493536,-1.4932684817525852,1.2870681025387911,-0.97419589487022
14.1543536,-1.595386138802104,1.3606009469210658,-0.976212997206276
14.1593536,-1.6883629671405347,1.4249734895581363,-0.9775551037476945
14.16435363,-1.7720158172815408,1.4808323681618605,-0.9782992534542108
14.16935363,-1.846236459703456,1.5288127647803567,-0.9784729314173168
14.1743543,-1.9109872376772035,1.5695289943762625,-0.9780538638000368
14.1793543,-1.9662959353151743,1.6035666801916488,-0.9769708677048679
14.18435497,-2.0122499712267294,1.6314765410677687,-0.975105732302609
14.18935497,-2.0489900420186693,1.653769778086146,-0.972296091715798
14.19435493,-2.076703354702447,1.6709150099669252,-0.9683392358039169
14.19935493,-2.0956166020493385,1.6833366699997383,-0.962996791847323
14.20435533,-2.1059888486333556,1.691414743354211,-0.9560001978866647
14.20935536,-2.108104505803782,1.6954856938198286,-0.9470568768530865
14.2143554,-2.1022665791421455,1.6958444046348071,-0.9358570092493844
14.2193554,-2.0887903704761586,1.6927469401707058,-0.9220807907038475
14.22435536,-2.0679978073247614,1.686413924611556,-0.9054060493133003
14.22935533,-2.040212555620317,1.6770343307032032,-0.8855160870271723
14.2343553,-2.0057560473462166,1.6647694759423333,-0.8621076005406155
14.23935526,-1.9649445244153965,1.649757034644818,-0.8348985313553905
14.24435526,-1.9180871647621498,1.6321148914351493,-0.8036356924797546
14.2493553,-1.8654853173130248,1.6119446839917528,-0.7681020209323934
14.25435533,-1.8074328307933578,1.5893349093366336,-0.7281233110085388
14.25935536,-1.7442174193046263,1.5643634973027627,-0.6835742933838503
14.26435536,-1.67612296737162,1.537099785667249,-0.6343839394284483
14.26935536,-1.6034326402714547,1.5076058625436928,-0.5805398877500398
14.27435556,-1.5264326328765727,1.4759372720013957,-0.5220919095850701
14.27935556,-1.4454163626165781,1.4421431077630267,-0.45915434969544394
14.28435556,-1.3606888901570757,1.4062655464874803,-0.39190749873404396
14.28935559,-1.2725713358320305,1.3683388956894205,-0.320597870999623
14.29435559,-1.1814050515973884,1.3283882507729785,-0.24553737795531463
14.29935559,-1.0875553079308717,1.2864278700089085,-0.1671014029181969
14.30435556,-0.9914142630131182,1.242459384842118,-0.08572579614689348
14.30935553,-0.8934029978019046,1.196469965275669,-0.0019028225071518834
14.31435549,-0.7939724252264488,1.148430556189988,0.08382389353365492
14.31935549,-0.6936029144508133,1.098294290689522,0.1708653681430173
14.32435553,-0.5928025114354407,1.0459951717158917,0.25859413301971257
14.32935556,-0.4921036839370095,0.9914470943469419,0.34635190078848654
14.33435559,-0.3920585713237308,0.9345432597420361,0.4334579229453934
14.33935562,-0.2932327754957107,0.8751560090793297,0.5192179288363349
14.34435562,-0.1961977868077047,0.8131370836877116,0.6029335212275162
14.34935559,-0.10152219583203415,0.7483182976276272,0.6839118921366208
14.35435556,-0.00976189534515606,0.6805125929189579,0.7614757120819686
14.35935556,0.07855047568528269,0.6095154368878557,0.834973037118068
14.36435556,0.16291655532870772,0.535106516570979,0.9037870713591359
14.36935559,0.2428834291412442,0.4570516868435318,0.9673456186017917
14.37435559,0.3180546091793343,0.3751051362413547,1.0251300555833673
14.37935559,0.3881004751817182,0.2890117461776779,1.0766836617159068
14.38435559,0.45276783484352595,0.1985096341245198,1.1216191460940088
14.38935559,0.5118882743422447,0.10333288804223359,1.1596252223269505
14.39435559,0.5653849949273889,0.0032145165181093165,1.1904720951516403
14.39935556,0.6132778655275608,-0.10211034485234502,1.2140157393304871
14.40435556,0.655686463683666,-0.21290091705815567,1.230200870275592
14.40935556,0.692830926264381,-0.3294068887040346,1.2390625264556658
14.41435559,0.7250304859637166,-0.45186408908782877,1.240726205442343
14.41935559,0.752699628176683,-0.580489661941226,1.2354065181451328
14.42435535,0.7763418641029733,-0.7154766897845763,1.2234043491734397
14.42935532,0.7965411782537991,-0.8569882373842123,1.2051025352265596
14.43435532,0.8139512701211777,-1.0051508078059874,1.1809600979723782
14.43935532,0.8292827687459302,-1.160047234734433,1.1515050932465507
14.44435535,0.8432886536717383,-1.3217090682935544,1.1173261648417574
14.44935535,0.8567481651228311,-1.4901085463261379,1.0790629186035479
14.45435535,0.8704495294160969,-1.6651502763522124,1.0373952602873797
14.45935535,0.8851718620849526,-1.8466627826197313,0.993031867245018
14.46435535,0.9016666405653261,-2.034390095785604,0.946697987720051
14.46935535,0.9206391602347833,-2.2279835789101576,0.8991227806707669
14.47435532,0.9427304016921817,-2.4269941927597314,0.8510264224274819
14.47935528,0.9684997429017737,-2.6308654066584056,0.8031072137434901
14.48435529,0.9984089466591577,-2.8389269591501334,0.7560289224817324
14.48935528,1.0328078411698425,-3.05038966605076,0.7104085946853224
14.49435532,1.0719220884961282,-3.264341462254076,0.6668050618779068
14.49935532,1.1158434008970795,-3.479744848023345,0.6257083667293073
14.50435532,1.1645225169484519,-3.695435890857156,0.5875303235239022
14.50935528,1.217765186119186,-3.9101249111031193,0.5525964234018865
14.51435525,1.275231331479376,-4.122398954151422,0.5211392842229092
14.51935522,1.3364374670003136,-4.330726125063425,0.49329382697615065
14.52435522,1.4007623434724117,-4.53346183363975,0.4690943314810788
14.52935525,1.4674556934810656,-4.728856970064344,0.4484734826431713
