"Time (s)","Acceleration x (m/s^2)","Acceleration y (m/s^2)","Acceleration z (m/s^2)"
6.659482000E-3,-2.329558372E0,5.559635639E0,7.652167797E0
1.165948200E-2,-2.422932148E0,5.602731228E0,7.829339027E0
1.665948200E-2,-2.389413357E0,5.626673222E0,7.917924404E0
2.165748200E-2,-2.238578558E0,5.633855820E0,7.882011414E0
2.665081500E-2,-1.991975784E0,5.650615215E0,7.700051785E0
3.165081500E-2,-1.757344007E0,5.672163010E0,7.470208645E0
3.665081500E-2,-1.561019540E0,5.710470200E0,7.216423035E0
4.164964800E-2,-1.414973259E0,5.765536785E0,7.027281284E0
4.664964800E-2,-1.309628367E0,5.818209171E0,6.933907509E0
5.164977300E-2,-1.235408068E0,5.851728439E0,6.929119110E0
5.664977300E-2,-1.165976286E0,5.854122639E0,7.008127689E0
6.164977300E-2,-1.098938584E0,5.820603371E0,7.163750648E0
6.664977300E-2,-1.017535686E0,5.753565788E0,7.393594265E0
7.164977300E-2,-9.097966552E-1,5.669768810E0,7.661744595E0
7.664977300E-2,-8.188169599E-1,5.590760231E0,7.949048996E0
8.164984400E-2,-7.469909191E-1,5.523722649E0,8.238747597E0
8.664984400E-2,-6.967126727E-1,5.504569054E0,8.590695381E0
9.164984400E-2,-6.488286853E-1,5.542876244E0,8.968978882E0
9.664984400E-2,-5.961562395E-1,5.631461620E0,9.304166794E0
1.016498440E-1,-5.506663918E-1,5.746383190E0,9.569923401E0
1.066498440E-1,-5.099649429E-1,5.861305237E0,9.744700432E0
1.116498440E-1,-4.740519226E-1,5.952284813E0,9.804554939E0
1.166498440E-1,-4.381389022E-1,5.995380402E0,9.761459351E0
1.216498440E-1,-4.141969085E-1,5.995380402E0,9.622595787E0
1.266498440E-1,-3.974374831E-1,5.945102215E0,9.404723167E0
1.316498440E-1,-3.758896589E-1,5.844545841E0,9.115025520E0
1.366498440E-1,-3.447650373E-1,5.688922405E0,8.724770546E0
1.416498440E-1,-3.327940404E-1,5.406406879E0,8.279448509E0
1.466498440E-1,-3.232172430E-1,5.095160484E0,7.838915825E0
1.516498440E-1,-3.088520169E-1,4.845864296E0,7.482179642E0
1.566498440E-1,-3.303998411E-1,4.661510944E0,7.216423035E0
1.616498440E-1,-3.974374831E-1,4.568136692E0,7.010521889E0
1.666498440E-1,-5.027823448E-1,4.584896088E0,6.862081528E0
1.716499770E-1,-6.488286853E-1,4.683058739E0,6.768707275E0
1.766506430E-1,-8.020575643E-1,4.829104900E0,6.716034889E0
1.816506430E-1,-9.361328483E-1,5.001786709E0,6.735188484E0
1.866506430E-1,-9.816226959E-1,5.224447250E0,6.926724911E0
1.916508760E-1,-9.313444495E-1,5.425560474E0,7.218817234E0
1.966508760E-1,-8.020575643E-1,5.540482044E0,7.520486832E0
2.016508420E-1,-5.434837937E-1,5.602731228E0,7.776666164E0
2.066508750E-1,-1.771709323E-1,5.626673222E0,8.042423248E0
2.116508750E-1,1.771709323E-1,5.588366032E0,8.346486092E0
2.166508750E-1,4.572925270E-1,5.478232861E0,8.643367767E0
2.216508750E-1,7.015010715E-1,5.332186222E0,8.897152901E0
2.266508750E-1,9.552865028E-1,5.150227070E0,9.088688850E0
2.316508410E-1,1.187524080E0,4.929960728E0,9.237129211E0
2.366508410E-1,1.376665950E0,4.661510944E0,9.342473984E0
2.416508740E-1,1.513135433E0,4.410119534E0,9.423876762E0
2.466508740E-1,1.592144132E0,4.197035789E0,9.493309021E0
2.516508740E-1,1.637633920E0,4.034229755E0,9.560346603E0
2.566508740E-1,1.642422318E0,3.924096584E0,9.624990463E0
2.616508740E-1,1.623268723E0,3.847482204E0,9.675268173E0
2.666508740E-1,1.584961534E0,3.790021181E0,9.696816444E0
2.716508740E-1,1.549048543E0,3.742137194E0,9.694421768E0
2.766508740E-1,1.520318031E0,3.694253206E0,9.677662849E0
2.816508740E-1,1.498770237E0,3.632004023E0,9.687239647E0
2.866508740E-1,1.484405041E0,3.560178041E0,9.735123634E0
2.916508740E-1,1.474828243E0,3.485957623E0,9.811738014E0
2.966508740E-1,1.474828243E0,3.409343243E0,9.888352394E0
3.016508740E-1,1.484405041E0,3.325546265E0,9.941024780E0
3.066508740E-1,1.498770237E0,3.234566450E0,9.974543571E0
3.116508740E-1,1.515529633E0,3.138798475E0,9.993697166E0
3.166508740E-1,1.522712231E0,3.016694069E0,9.972148895E0
3.216508740E-1,1.453280449E0,2.767697096E0,9.888352394E0
3.266508740E-1,1.429338455E0,2.499546528E0,9.847650528E0
3.316508740E-1,1.455674648E0,2.255337954E0,9.869198799E0
3.366508740E-1,1.477222443E0,2.015917778E0,9.871592522E0
3.416508740E-1,1.467645645E0,1.759738207E0,9.826103210E0
3.466508740E-1,1.419761658E0,1.505952835E0,9.737517357E0
3.516508740E-1,1.321599364E0,1.285686255E0,9.629778862E0
3.566508400E-1,1.216254473E0,1.137245774E0,9.474155426E0
3.616508400E-1,1.125274777E0,1.063025594E0,9.253889084E0
3.666508400E-1,1.098938584E0,1.058237195E0,8.992920876E0
3.716508400E-1,1.199495077E0,1.151610970E0,8.731952667E0
3.766508400E-1,1.493981838E0,1.312022567E0,8.528446198E0
3.816508400E-1,1.927332401E0,1.510741234E0,8.456619263E0
3.866508400E-1,2.454056740E0,1.695094824E0,8.554781914E0
3.916508060E-1,2.935291290E0,1.783680320E0,8.715193748E0
3.966508060E-1,3.318363667E0,1.790862918E0,8.940248489E0
4.016508060E-1,3.632004023E0,1.766920805E0,9.213187218E0
4.066508060E-1,3.885789394E0,1.714248419E0,9.481337547E0
4.116508060E-1,4.118026733E0,1.659181833E0,9.737517357E0
4.166508060E-1,4.345476151E0,1.582567334E0,9.960178375E0
4.216508060E-1,4.527435303E0,1.436521053E0,1.012777233E1
4.266503720E-1,4.639962673E0,1.156399369E0,1.021396351E1
4.316503720E-1,4.721365929E0,7.948749661E-1,1.023551178E1
4.366503720E-1,4.776432514E0,3.998316824E-1,1.019002151E1
4.416504050E-1,4.788403511E0,-1.197100803E-2,1.009904194E1
4.466504050E-1,4.707000732E0,-4.429273009E-1,9.938630104E0
4.516504050E-1,4.565742493E0,-8.283938169E-1,9.747094154E0
4.566504050E-1,4.345476151E0,-1.163581967E0,9.498097420E0
4.616504050E-1,4.062960148E0,-1.455674648E0,9.174880028E0
4.666504050E-1,3.667917013E0,-1.685518026E0,8.815750122E0
4.716504050E-1,3.208230257E0,-1.855506301E0,8.468590736E0
4.766504050E-1,2.767697096E0,-1.924938202E0,8.063970566E0
4.816504050E-1,2.473210335E0,-1.893813491E0,7.561188221E0
4.866504050E-1,2.389413357E0,-1.781286120E0,7.034463882E0
4.916504050E-1,2.489969730E0,-1.637633920E0,6.548440933E0
4.966504050E-1,2.722207308E0,-1.496376038E0,6.107907772E0
5.016504050E-1,3.064578056E0,-1.405396342E0,5.732017994E0
5.066504050E-1,3.605667830E0,-1.448492050E0,5.425560474E0
5.116504050E-1,4.218583584E0,-1.541865945E0,5.219658852E0
5.166504050E-1,4.857835293E0,-1.556231141E0,5.265148640E0
5.216504050E-1,5.365705490E0,-1.302445769E0,5.717652798E0
5.266504050E-1,5.662586212E0,-9.385270476E-1,6.241982937E0
5.316504050E-1,5.818209171E0,-6.679822803E-1,6.699275494E0
5.366504050E-1,5.916371822E0,-5.841852427E-1,7.072771072E0
5.416504050E-1,5.969044209E0,-6.416460276E-1,7.388805866E0
5.466497380E-1,5.916371822E0,-7.445967197E-1,7.628225803E0
5.516488380E-1,5.746383190E0,-8.188169599E-1,7.738358974E0
5.566479380E-1,5.504569054E0,-8.379706144E-1,7.702445984E0
5.616474380E-1,5.250783443E0,-8.212111592E-1,7.513304234E0
5.666473380E-1,4.949114323E0,-7.757213712E-1,7.161356449E0
5.716468710E-1,4.627991676E0,-7.661445141E-1,6.747159481E0
5.766468370E-1,4.367023945E0,-8.331822157E-1,6.337751389E0
5.816467030E-1,4.139574528E0,-9.552865028E-1,5.988197803E0
5.866462030E-1,3.928884983E0,-1.106121182E0,5.739200592E0
5.916456690E-1,3.711012602E0,-1.268926859E0,5.631461620E0
5.966451690E-1,3.392583847E0,-1.441309452E0,5.585971832E0
6.016446690E-1,3.011905670E0,-1.568202138E0,5.698499203E0
6.066441690E-1,2.679111719E0,-1.644816518E0,5.935525417E0
6.116441690E-1,2.504334927E0,-1.692700624E0,6.179733753E0
6.166442020E-1,2.518700123E0,-1.709460020E0,6.392817974E0
6.216442350E-1,2.655169725E0,-1.687912226E0,6.562806129E0
6.266442680E-1,2.882618904E0,-1.625662923E0,6.680121899E0
6.316442680E-1,3.155557871E0,-1.505952835E0,6.754342079E0
6.366442680E-1,3.435679436E0,-1.316810966E0,6.823774338E0
6.416442680E-1,3.715801001E0,-1.072602391E0,6.907571316E0
6.466443010E-1,4.015076160E0,-8.331822157E-1,7.022492886E0
6.516443340E-1,4.388571739E0,-7.350199223E-1,7.173327446E0
6.566443670E-1,4.788403511E0,-7.900865674E-1,7.355287075E0
6.616443670E-1,5.119102478E0,-9.074024558E-1,7.551611423E0
6.666443670E-1,5.274725437E0,-1.000776291E0,7.733570576E0
6.716443670E-1,5.284302235E0,-1.079784989E0,7.905953407E0
6.766443670E-1,5.202899456E0,-1.199495077E0,8.068758965E0
6.816443670E-1,5.083189487E0,-1.388636947E0,8.190863609E0
6.866443670E-1,4.934749126E0,-1.644816518E0,8.267477989E0
6.916444000E-1,4.786009312E0,-1.929726601E0,8.305785179E0
6.966451000E-1,4.666299343E0,-2.221819162E0,8.320150375E0
7.016460330E-1,4.623203278E0,-2.499546528E0,8.320150375E0
7.066469330E-1,4.745307922E0,-2.748543501E0,8.346486092E0
7.116474330E-1,5.013757706E0,-2.932897091E0,8.372822762E0
7.166475330E-1,5.442319870E0,-3.043030262E0,8.401553154E0
7.216479990E-1,6.052841187E0,-3.055001259E0,8.418312073E0
7.266484650E-1,6.766313076E0,-2.947262287E0,8.360851288E0
7.316485980E-1,7.554005623E0,-2.748543501E0,8.221987724E0
7.366490980E-1,8.396764755E0,-2.549824715E0,7.989750385E0
7.416496310E-1,9.249100685E0,-2.387019157E0,7.697657585E0
7.466501640E-1,1.009185982E1,-2.288856745E0,7.355287075E0
7.516506970E-1,1.084842682E1,-2.255337954E0,7.075165272E0
7.566511970E-1,1.154035187E1,-2.281674147E0,6.847716331E0
7.616511970E-1,1.212453651E1,-2.327163935E0,6.641814709E0
7.666511630E-1,1.256985855E1,-2.391807556E0,6.447884560E0
7.716511630E-1,1.288349819E1,-2.521094322E0,6.277895927E0
7.766511630E-1,1.309658241E1,-2.695871115E0,6.186916351E0
7.816511960E-1,1.320192719E1,-2.851494312E0,6.146214962E0
7.866511960E-1,1.321629238E1,-2.949656487E0,6.122272968E0
7.916511960E-1,1.317319679E1,-3.023876667E0,6.083965778E0
7.966511620E-1,1.311334229E1,-3.119644880E0,6.026504993E0
8.016511280E-1,1.309179401E1,-3.272873640E0,5.937919617E0
8.066510940E-1,1.314207268E1,-3.476380825E0,5.794267178E0
8.116510940E-1,1.326657104E1,-3.675099611E0,5.638644218E0
8.166511270E-1,1.343416500E1,-3.799597979E0,5.456685066E0
8.216511600E-1,1.359218216E1,-3.821146011E0,5.219658852E0
8.266511930E-1,1.371907520E1,-3.744531393E0,4.951508522E0
8.316511930E-1,1.375738239E1,-3.588908434E0,4.675876141E0
8.366511930E-1,1.392018795E1,-3.521870613E0,4.434061527E0
8.416511590E-1,1.408778191E1,-3.462015629E0,4.254496574E0
8.466511250E-1,1.421946335E1,-3.385401249E0,4.048594952E0
8.516511250E-1,1.432241344E1,-3.303998232E0,3.811569214E0
8.566504910E-1,1.441099930E1,-3.224989653E0,3.591302633E0
8.616505240E-1,1.443254757E1,-3.145981073E0,3.330334663E0
8.666498570E-1,1.435593224E1,-3.093308687E0,2.987963676E0
8.716494570E-1,1.420749187E1,-3.107673883E0,2.552218914E0
8.766487900E-1,1.398243713E1,-3.210624456E0,2.080561161E0
8.816481230E-1,1.366879654E1,-3.354276657E0,1.625662923E0
8.866474890E-1,1.329051304E1,-3.473986626E0,1.201889277E0
8.916467890E-1,1.291222858E1,-3.545812607E0,8.499416113E-1
8.966467890E-1,1.256267548E1,-3.588908434E0,6.033388376E-1
9.016461220E-1,1.222748756E1,-3.617638826E0,4.596867263E-1
9.066461550E-1,1.184441471E1,-3.667917013E0,4.381389022E-1
9.116454880E-1,1.144458294E1,-3.742137194E0,5.171475410E-1
9.166446880E-1,1.103996372E1,-3.811569214E0,6.727706790E-1
9.216439880E-1,1.063534355E1,-3.861847401E0,8.643068075E-1
9.266433210E-1,1.022832870E1,-3.885789394E0,1.053448796E0
9.316426540E-1,9.816526413E0,-3.907337189E0,1.177947283E0
9.366426870E-1,9.366415977E0,-3.938461781E0,1.072602391E0
9.416426870E-1,8.703222275E0,-4.089296341E0,-3.040636182E-1
9.466426870E-1,7.867646217E0,-4.256890774E0,-2.679111719E0
9.516426870E-1,6.977003098E0,-4.455609322E0,-5.099948883E0
9.566426870E-1,6.172551155E0,-4.505887508E0,-6.749553680E0
9.616426870E-1,5.799055576E0,-4.182670593E0,-6.921936512E0
9.666426530E-1,5.777507782E0,-3.926490784E0,-6.110301971E0
9.716426190E-1,5.940313816E0,-3.945644379E0,-4.996998310E0
9.766426190E-1,6.155791759E0,-4.079719543E0,-3.924096584E0
9.816426520E-1,6.222829342E0,-4.132391930E0,-2.937685490E0
9.866422850E-1,6.258742332E0,-4.235342979E0,-2.027888775E0
9.916422850E-1,6.251559734E0,-4.314351559E0,-1.189918280E0
9.966422850E-1,6.182127953E0,-4.345476151E0,-6.105214357E-1
1.001642251E0,5.971438408E0,-4.386177540E0,-1.987187415E-1
1.006642884E0,5.559635639E0,-4.788403511E0,2.681505978E-1
1.011642850E0,5.396830082E0,-5.492598057E0,6.919242740E-1
1.016643516E0,5.248389244E0,-6.067206383E0,1.034295082E0
1.021643949E0,5.016151905E0,-5.890035629E0,9.672574997E-1
1.026643982E0,4.802768707E0,-5.645826817E0,7.637503147E-1
1.031644682E0,5.147832870E0,-6.060023785E0,5.458779931E-1
1.036644915E0,5.301061630E0,-6.601113319E0,3.303998411E-1
1.041644681E0,5.301061630E0,-6.986579895E0,1.915361360E-2
1.046643747E0,5.346551895E0,-7.123049259E0,-1.915361360E-2
1.051644013E0,5.526116848E0,-7.075165272E0,1.580173075E-1
1.056643346E0,5.693710804E0,-6.950666904E0,4.908113480E-1
1.061644046E0,5.624279022E0,-6.811803341E0,7.781155705E-1
1.066644846E0,5.684134007E0,-6.771101475E0,8.978256583E-1
1.071645112E0,5.722441196E0,-6.672939301E0,9.193734527E-1
1.076645345E0,5.722441196E0,-6.560411930E0,8.786720037E-1
1.081645078E0,5.849334240E0,-6.428730965E0,7.038952708E-1
1.086645044E0,5.925948620E0,-6.335357189E0,5.386953950E-1
1.094504845E0,5.913977623E0,-6.380846977E0,4.285621047E-1
1.099504845E0,5.897218227E0,-6.596324921E0,2.873041928E-1
1.104504478E0,5.899612427E0,-6.866869926E0,9.576806426E-2
1.109503744E0,6.265924931E0,-7.161356449E0,-7.661445439E-2
1.114504310E0,6.969820499E0,-7.448660851E0,-2.059013397E-1
1.119503410E0,7.649773598E0,-7.609072208E0,-1.508347094E-1
1.124503143E0,8.214805603E0,-7.716811180E0,1.173158810E-1
1.129503109E0,8.729558945E0,-7.951443195E0,5.123591423E-1
1.134502442E0,9.110237122E0,-8.171710014E0,7.948749661E-1
1.139502842E0,9.234735489E0,-8.389581680E0,8.499416113E-1
1.144502875E0,9.215581894E0,-8.545205116E0,7.517793179E-1
1.149502875E0,9.038411140E0,-8.590695381E0,5.147533417E-1
1.154502208E0,8.885181427E0,-8.463802338E0,2.849099934E-1
1.159502208E0,8.801384926E0,-8.131008148E0,4.548983276E-2
1.164502208E0,8.775048256E0,-7.570765018E0,-2.466027737E-1
1.169502208E0,8.798990250E0,-6.773495674E0,-6.057330370E-1
1.174502174E0,8.861239433E0,-6.016928196E0,-7.948749661E-1
1.179502840E0,8.839692116E0,-5.550058842E0,-9.576806799E-3
1.184502840E0,8.573935509E0,-5.442319870E0,1.314416766E0
1.189503273E0,7.740753174E0,-5.909189224E0,2.949656487E0
1.194504173E0,6.593930721E0,-5.751171589E0,3.256114244E0
1.199505073E0,5.607519627E0,-5.466261864E0,2.609679937E0
1.204505439E0,4.618414879E0,-5.296273232E0,1.867477298E0
1.209506072E0,3.665522814E0,-5.377676487E0,1.223437071E0
1.214506038E0,2.861071110E0,-5.796661377E0,6.895300746E-1
1.219506038E0,2.205059767E0,-6.543652534E0,2.082955539E-1
1.224506438E0,1.673547029E0,-7.276278019E0,-2.513911724E-1
1.229506204E0,1.259350061E0,-7.795820236E0,-7.685387731E-1
1.234507137E0,8.882488012E-1,-8.281843185E0,-1.295263171E0
1.239507170E0,4.501099288E-1,-8.614637375E0,-1.735796213E0
1.244507170E0,-2.394201607E-2,-8.712799072E0,-1.975216389E0
1.249507170E0,-3.016694188E-1,-8.724770546E0,-2.013523579E0
1.254507536E0,-3.854664862E-1,-8.633790970E0,-2.023100376E0
1.259508302E0,-2.489969730E-1,-8.542811394E0,-2.152387381E0
1.264507768E0,-3.830722719E-2,-8.447042465E0,-2.229001760E0
1.269508701E0,2.154781520E-1,-8.356062889E0,-1.740584612E0
1.274508967E0,6.799532771E-1,-8.389581680E0,-1.034295082E0
1.279508967E0,1.400607944E0,-8.389581680E0,-4.572925270E-1
1.284509600E0,2.145204782E0,-8.387187958E0,-1.197100878E-1
1.289509566E0,3.002328873E0,-8.526051521E0,-2.585737705E-1
1.294509532E0,3.794809580E0,-8.892364502E0,-7.254431248E-1
1.299509532E0,4.436455727E0,-9.253889084E0,-1.096544385E0
1.304510232E0,4.841075897E0,-9.624990463E0,-1.053448796E0
1.309510265E0,4.989815712E0,-9.845256805E0,-7.685387731E-1
1.314510298E0,4.965873718E0,-1.006791782E1,-5.698199868E-1
1.319510298E0,4.695029736E0,-1.041028786E1,-5.841852427E-1
1.324509631E0,4.319139957E0,-1.081011963E1,-7.326257229E-1
1.329510097E0,3.775655985E0,-1.130093098E1,-9.528923035E-1
1.334509397E0,3.222595453E0,-1.176061821E1,-1.144428372E0
1.339509663E0,2.731784105E0,-1.211256599E1,-1.237802267E0
1.344509029E0,2.341529369E0,-1.245254230E1,-1.201889277E0
1.349508395E0,2.020706177E0,-1.273984623E1,-1.058237195E0
1.354508395E0,1.771709204E0,-1.295532513E1,-9.097966552E-1
1.359508395E0,1.630451322E0,-1.310376549E1,-7.637503147E-1
1.364509595E0,1.553836942E0,-1.322108078E1,-6.248866320E-1
1.369509595E0,1.477222443E0,-1.337909794E1,-5.291185975E-1
1.374509595E0,1.403002143E0,-1.351796246E1,-4.812345505E-1
1.379510228E0,1.436521053E0,-1.356824017E1,-4.644751251E-1
1.384510228E0,1.508347034E0,-1.355148125E1,-4.548983276E-1
1.389509561E0,1.589749932E0,-1.334318542E1,-4.668693244E-1
1.394509594E0,1.656787634E0,-1.303193951E1,-4.908113480E-1
1.399508960E0,1.654393315E0,-1.264886665E1,-5.602431893E-1
1.404508960E0,1.637633920E0,-1.219396877E1,-6.512228847E-1
1.409508926E0,1.632845521E0,-1.166963863E1,-7.374141216E-1
1.414508926E0,1.637633920E0,-1.119079781E1,-8.092401624E-1
1.419508926E0,1.616086125E0,-1.074547672E1,-8.738836050E-1
1.424508959E0,1.575384736E0,-1.034564495E1,-9.217676520E-1
1.429508292E0,1.534683347E0,-9.955389977E0,-9.840168953E-1
1.434508292E0,1.489193439E0,-9.596260071E0,-1.074996591E0
1.439508292E0,1.450886250E0,-9.289801598E0,-1.134851575E0
1.444508292E0,1.434126854E0,-9.026439667E0,-1.168370485E0
1.449508292E0,1.419761658E0,-8.810961723E0,-1.146822572E0
1.454508258E0,1.424550056E0,-8.344092369E0,-1.125274777E0
1.459508258E0,1.055842996E0,-1.580173075E-1,-2.650381327E0
1.464508258E0,1.012747288E0,2.592920542E0,-2.719813108E0
1.469508291E0,1.110909581E0,2.087743998E0,-2.375048161E0
1.474508991E0,1.300051570E0,1.872265697E0,-2.319981337E0
1.479508491E0,1.400607944E0,1.944091797E0,-2.640804529E0
1.484509157E0,1.206677675E0,1.314416766E0,-3.059789658E0
1.489508857E0,4.285621047E-1,1.101332754E-1,-3.306392431E0
1.494509490E0,-6.224924326E-1,-1.276109457E0,-3.605667830E0
1.499510123E0,-1.608903527E0,-2.765302896E0,-3.861847401E0
1.504510123E0,-2.353500366E0,-4.331110954E0,-4.031835556E0
1.509510156E0,-2.923320293E0,-5.538087845E0,-3.636792421E0
1.514508989E0,-3.265691042E0,-6.632237911E0,-3.100491285E0
1.519509022E0,-3.397372246E0,-7.455843449E0,-2.224213362E0
1.524509022E0,-3.406949043E0,-7.774271965E0,-9.457096457E-1
1.529509022E0,-3.342305660E0,-7.929895401E0,4.070143029E-2
1.534508988E0,-3.071760893E0,-7.822156429E0,2.274491638E-1
1.539509654E0,-2.592920542E0,-7.738358974E0,1.005564705E-1
1.544509654E0,-1.795651317E0,-8.054393768E0,-1.103726983E0
1.549510320E0,-8.259995580E-1,-8.703222275E0,-2.849100113E0
1.554510320E0,2.873042040E-2,-9.009679794E0,-4.355052948E0
1.559510320E0,8.451532125E-1,-9.021651268E0,-4.985027313E0
1.564510286E0,1.479616642E0,-8.777442932E0,-4.898836136E0
1.569510252E0,1.742978811E0,-8.631396294E0,-4.692635536E0
1.574510218E0,1.752555609E0,-8.715193748E0,-4.671087742E0
1.579510884E0,1.568202138E0,-8.928277016E0,-4.577713490E0
1.584510917E0,1.434126854E0,-9.148544312E0,-4.118026733E0
1.589510950E0,1.280897856E0,-9.493309021E0,-3.620033026E0
1.594510983E0,1.132457376E0,-1.016847420E1,-3.007117271E0
1.599511016E0,9.888052940E-1,-1.062576675E1,-2.341529369E0
1.604511016E0,8.283938169E-1,-1.096574306E1,-1.874659896E0
1.609510982E0,5.793967843E-1,-1.123628807E1,-1.702277422E0
1.614510948E0,3.423708379E-1,-1.147570801E1,-1.661576033E0
1.619510948E0,8.619125932E-2,-1.170555115E1,-1.896207690E0
1.624510948E0,-1.316810995E-1,-1.194736576E1,-2.209848166E0
1.629510314E0,-3.615244627E-1,-1.219875717E1,-2.602497339E0
1.634510314E0,-5.746083856E-1,-1.245254230E1,-2.983175278E0
1.639510314E0,-7.015010715E-1,-1.271351051E1,-3.315969467E0
1.644510314E0,-8.882488012E-1,-1.294335365E1,-3.538630009E0
1.649510314E0,-1.163581967E0,-1.318995667E1,-3.670311213E0
1.654510314E0,-1.517923832E0,-1.344374180E1,-3.734954596E0
1.659510280E0,-1.855506301E0,-1.383160210E1,-3.687070608E0
1.664510280E0,-2.233790159E0,-1.426255894E1,-3.572149038E0
1.669510280E0,-2.537853718E0,-1.479915905E1,-3.514688015E0
1.674510313E0,-2.791639090E0,-1.543122864E1,-3.318363667E0
1.679510313E0,-2.913743496E0,-1.613751793E1,-3.167528868E0
1.684510313E0,-3.086126089E0,-1.658283997E1,-2.999934673E0
1.689510279E0,-3.327940464E0,-1.669536781E1,-2.863465309E0
1.694510279E0,-3.550601006E0,-1.654932022E1,-2.801215887E0
1.699510279E0,-3.620033026E0,-1.614470100E1,-2.810792685E0
1.704510312E0,-3.576937437E0,-1.565388966E1,-2.861071110E0
1.709510312E0,-3.351882458E0,-1.492844582E1,-2.959233284E0
1.714510312E0,-3.062183857E0,-1.412848377E1,-3.066972494E0
1.719510312E0,-2.681505919E0,-1.310376549E1,-3.186682463E0
1.724510412E0,-2.348711967E0,-1.210538292E1,-3.327940464E0
1.729510412E0,-2.152387381E0,-1.122192287E1,-3.495534420E0
1.734510378E0,-2.075772762E0,-1.053478718E1,-3.629609823E0
1.739510344E0,-2.080561161E0,-1.001285076E1,-3.689464808E0
1.744510344E0,-2.128445387E0,-9.636960983E0,-3.672705412E0
1.749510344E0,-2.217030764E0,-9.352050781E0,-3.591302633E0
1.754510377E0,-2.317587137E0,-9.141361237E0,-3.485957623E0
1.759510377E0,-2.434903145E0,-9.021651268E0,-3.351882458E0
1.764510077E0,-2.545036316E0,-8.947430611E0,-3.236960649E0
1.769509377E0,-2.659958124E0,-8.952219009E0,-3.153163671E0
1.774509377E0,-2.762908697E0,-8.964190483E0,-3.086126089E0
1.779510043E0,-2.853888512E0,-8.971372604E0,-3.033453465E0
1.784509743E0,-2.925714493E0,-8.976161003E0,-2.995146275E0
1.789509743E0,-2.937685490E0,-9.000102997E0,-2.966415882E0
1.794509743E0,-2.918531895E0,-9.045593262E0,-2.964021683E0
1.799509743E0,-2.851494312E0,-9.115025520E0,-2.999934673E0
1.804509743E0,-2.755726099E0,-9.167697906E0,-3.050212860E0
1.809509743E0,-2.614468336E0,-9.174880028E0,-3.138798475E0
1.814509709E0,-2.456450939E0,-9.153332710E0,-3.229778051E0
1.819509709E0,-2.272097349E0,-9.100660324E0,-3.320757866E0
1.824509709E0,-2.097320795E0,-9.057564735E0,-3.418920040E0
1.829508842E0,-1.972822189E0,-9.031228065E0,-3.519476414E0
1.834508842E0,-1.912967205E0,-9.021651268E0,-3.605667830E0
1.839508842E0,-1.908178806E0,-9.016862869E0,-3.653551817E0
1.844508808E0,-1.917755604E0,-9.007286072E0,-3.667917013E0
1.849508108E0,-1.934514999E0,-8.992920876E0,-3.639186621E0
1.854508074E0,-1.951274395E0,-8.971372604E0,-3.603273630E0
1.859508074E0,-1.980004787E0,-8.947430611E0,-3.567360640E0
1.864508074E0,-2.008735180E0,-8.921094894E0,-3.541024208E0
1.869508107E0,-2.035071373E0,-8.894758224E0,-3.531447411E0
1.874508040E0,-2.063801765E0,-8.875604630E0,-3.536235809E0
1.879508073E0,-2.087743998E0,-8.858845711E0,-3.552995205E0
1.884508073E0,-2.109291792E0,-8.844480515E0,-3.574543238E0
1.889508073E0,-2.130839586E0,-8.832509041E0,-3.588908434E0
1.894508039E0,-2.152387381E0,-8.825326920E0,-3.593696833E0
1.899507372E0,-2.164358377E0,-8.822932243E0,-3.586514235E0
1.904507372E0,-2.173935175E0,-8.820538521E0,-3.567360640E0
1.909507405E0,-2.181117773E0,-8.815750122E0,-3.538630009E0
1.914507705E0,-2.193088770E0,-8.813355446E0,-3.507505417E0
1.919508371E0,-2.200271368E0,-8.808567047E0,-3.478775024E0
1.924508337E0,-2.207453966E0,-8.806173325E0,-3.452438831E0
1.929508303E0,-2.219424963E0,-8.808567047E0,-3.433285236E0
1.934508603E0,-2.236184359E0,-8.815750122E0,-3.418920040E0
1.939508603E0,-2.262520552E0,-8.825326920E0,-3.426102638E0
1.944508636E0,-2.288856745E0,-8.834903717E0,-3.442862034E0
1.949508669E0,-2.308010340E0,-8.844480515E0,-3.469198227E0
1.954508702E0,-2.319981337E0,-8.851662636E0,-3.495534420E0
1.959508702E0,-2.324769735E0,-8.851662636E0,-3.517082214E0
1.964508702E0,-2.319981337E0,-8.858845711E0,-3.529053211E0
1.969508668E0,-2.319981337E0,-8.863634109E0,-3.524264812E0
1.974508634E0,-2.317587137E0,-8.868422508E0,-3.502717018E0
1.979509534E0,-2.315192938E0,-8.875604630E0,-3.476380825E0
1.984509567E0,-2.322375536E0,-8.880393028E0,-3.452438831E0
1.989509600E0,-2.322375536E0,-8.877999306E0,-3.426102638E0
1.994509600E0,-2.327163935E0,-8.873210907E0,-3.402160645E0
1.999510266E0,-2.329558372E0,-8.863634109E0,-3.383007050E0
2.004510266E0,-2.329558372E0,-8.854057312E0,-3.373430252E0
2.009510266E0,-2.334346771E0,-8.839692116E0,-3.373430252E0
2.014510266E0,-2.346317768E0,-8.822932243E0,-3.375824451E0
2.019510232E0,-2.355894566E0,-8.815750122E0,-3.375824451E0
2.024510232E0,-2.370259762E0,-8.815750122E0,-3.380612850E0
2.029509565E0,-2.387019157E0,-8.820538521E0,-3.385401249E0
2.034509165E0,-2.406172752E0,-8.827720642E0,-3.387795448E0
2.039509165E0,-2.425326347E0,-8.834903717E0,-3.394978046E0
2.044509165E0,-2.444479942E0,-8.837297440E0,-3.409343243E0
2.049509798E0,-2.466027737E0,-8.842085838E0,-3.430891037E0
2.054509764E0,-2.482787132E0,-8.844480515E0,-3.447650433E0
2.059509730E0,-2.492363930E0,-8.844480515E0,-3.457227230E0
2.064509330E0,-2.494758129E0,-8.844480515E0,-3.464409828E0
2.069509363E0,-2.492363930E0,-8.842085838E0,-3.471592426E0
2.074508729E0,-2.489969730E0,-8.842085838E0,-3.469198227E0
2.079508095E0,-2.485181332E0,-8.844480515E0,-3.459621429E0
2.084508095E0,-2.485181332E0,-8.846874237E0,-3.447650433E0
2.089508095E0,-2.473210335E0,-8.849268913E0,-3.426102638E0
2.094508061E0,-2.461239338E0,-8.849268913E0,-3.402160645E0
2.099508027E0,-2.451662540E0,-8.854057312E0,-3.378218651E0
2.104508027E0,-2.442085743E0,-8.856451035E0,-3.356670856E0
2.109508060E0,-2.427720547E0,-8.861239433E0,-3.335123062E0
2.114508093E0,-2.408566952E0,-8.863634109E0,-3.320757866E0
2.119508093E0,-2.391807556E0,-8.863634109E0,-3.315969467E0
2.124508093E0,-2.375048161E0,-8.858845711E0,-3.315969467E0
2.129508059E0,-2.358288765E0,-8.856451035E0,-3.320757866E0
2.134508025E0,-2.339135170E0,-8.846874237E0,-3.327940464E0
2.139507991E0,-2.315192938E0,-8.844480515E0,-3.339911461E0
2.144507591E0,-2.296039343E0,-8.846874237E0,-3.354276657E0
2.149507624E0,-2.281674147E0,-8.846874237E0,-3.371036053E0
2.154507657E0,-2.269703150E0,-8.846874237E0,-3.390189648E0
2.159507690E0,-2.262520552E0,-8.851662636E0,-3.406949043E0
2.164507690E0,-2.248155355E0,-8.856451035E0,-3.414131641E0
2.169507023E0,-2.229001760E0,-8.863634109E0,-3.416525841E0
2.174506989E0,-2.221819162E0,-8.870816231E0,-3.423708439E0
2.179507655E0,-2.221819162E0,-8.875604630E0,-3.428496838E0
2.184508088E0,-2.224213362E0,-8.882787704E0,-3.435679436E0
2.189508121E0,-2.231395960E0,-8.889969826E0,-3.450044632E0
2.194508121E0,-2.240972757E0,-8.897152901E0,-3.459621429E0
2.199508121E0,-2.248155355E0,-8.901941299E0,-3.471592426E0
2.204508121E0,-2.252943754E0,-8.901941299E0,-3.476380825E0
2.209508121E0,-2.252943754E0,-8.901941299E0,-3.476380825E0
2.214508521E0,-2.250549555E0,-8.894758224E0,-3.473986626E0
2.219508487E0,-2.248155355E0,-8.889969826E0,-3.466804028E0
2.224509120E0,-2.245761156E0,-8.887576103E0,-3.457227230E0
2.229509120E0,-2.243366957E0,-8.877999306E0,-3.445256233E0
2.234509153E0,-2.238578558E0,-8.875604630E0,-3.433285236E0
2.239509186E0,-2.236184359E0,-8.870816231E0,-3.414131641E0
2.244509186E0,-2.240972757E0,-8.868422508E0,-3.402160645E0
2.249509186E0,-2.250549555E0,-8.866027832E0,-3.394978046E0
2.254509152E0,-2.257732153E0,-8.861239433E0,-3.394978046E0
2.259509118E0,-2.267308950E0,-8.861239433E0,-3.394978046E0
2.264509084E0,-2.264914751E0,-8.866027832E0,-3.394978046E0
2.269509084E0,-2.257732153E0,-8.868422508E0,-3.399766445E0
2.274509117E0,-2.248155355E0,-8.870816231E0,-3.409343243E0
2.279509150E0,-2.240972757E0,-8.873210907E0,-3.423708439E0
2.284509183E0,-2.236184359E0,-8.877999306E0,-3.442862034E0
2.289509183E0,-2.233790159E0,-8.877999306E0,-3.459621429E0
2.294509583E0,-2.229001760E0,-8.875604630E0,-3.471592426E0
2.299509549E0,-2.224213362E0,-8.875604630E0,-3.478775024E0
2.304509549E0,-2.221819162E0,-8.875604630E0,-3.478775024E0
2.309509549E0,-2.224213362E0,-8.873210907E0,-3.466804028E0
2.314509582E0,-2.231395960E0,-8.875604630E0,-3.452438831E0
2.319510248E0,-2.236184359E0,-8.882787704E0,-3.440467834E0
2.324510248E0,-2.240972757E0,-8.892364502E0,-3.433285236E0
2.329510214E0,-2.238578558E0,-8.901941299E0,-3.435679436E0
2.334509480E0,-2.238578558E0,-8.906729698E0,-3.440467834E0
2.339509446E0,-2.238578558E0,-8.911518097E0,-3.457227230E0
2.344509446E0,-2.243366957E0,-8.918700218E0,-3.478775024E0
2.349509446E0,-2.248155355E0,-8.918700218E0,-3.490746021E0
2.354509479E0,-2.250549555E0,-8.913911819E0,-3.500322819E0
2.359509512E0,-2.255337954E0,-8.906729698E0,-3.505111217E0
2.364509545E0,-2.252943754E0,-8.894758224E0,-3.497928619E0
2.369509545E0,-2.250549555E0,-8.887576103E0,-3.473986626E0
2.374509545E0,-2.250549555E0,-8.880393028E0,-3.450044632E0
2.379510178E0,-2.248155355E0,-8.873210907E0,-3.430891037E0
2.384510178E0,-2.250549555E0,-8.866027832E0,-3.416525841E0
2.389510178E0,-2.260126352E0,-8.856451035E0,-3.402160645E0
2.394510211E0,-2.260126352E0,-8.849268913E0,-3.392583847E0
2.399510211E0,-2.262520552E0,-8.854057312E0,-3.383007050E0
2.404510211E0,-2.272097349E0,-8.856451035E0,-3.380612850E0
2.409510211E0,-2.284068346E0,-8.856451035E0,-3.383007050E0
2.414510211E0,-2.298433542E0,-8.854057312E0,-3.387795448E0
2.419510211E0,-2.308010340E0,-8.854057312E0,-3.390189648E0
2.424510177E0,-2.312798738E0,-8.858845711E0,-3.394978046E0
2.429509510E0,-2.322375536E0,-8.854057312E0,-3.404554844E0
2.434509510E0,-2.343923569E0,-8.837297440E0,-3.411737442E0
2.439509543E0,-2.391807556E0,-8.834903717E0,-3.406949043E0
2.444509543E0,-2.418143749E0,-8.851662636E0,-3.399766445E0
2.449509543E0,-2.413355350E0,-8.868422508E0,-3.397372246E0
2.454509509E0,-2.406172752E0,-8.882787704E0,-3.399766445E0
2.459509475E0,-2.403778553E0,-8.894758224E0,-3.404554844E0
2.464509441E0,-2.408566952E0,-8.906729698E0,-3.411737442E0
2.469509441E0,-2.401384354E0,-8.909123421E0,-3.426102638E0
2.474509441E0,-2.384624958E0,-8.906729698E0,-3.442862034E0
2.479509474E0,-2.370259762E0,-8.909123421E0,-3.442862034E0
2.484510207E0,-2.351106167E0,-8.916306496E0,-3.435679436E0
2.489510240E0,-2.334346771E0,-8.901941299E0,-3.430891037E0
2.494510240E0,-2.324769735E0,-8.873210907E0,-3.428496838E0
2.499510240E0,-2.322375536E0,-8.842085838E0,-3.426102638E0
2.504510206E0,-2.329558372E0,-8.825326920E0,-3.409343243E0
2.509510206E0,-2.346317768E0,-8.813355446E0,-3.385401249E0
2.514510206E0,-2.363077164E0,-8.808567047E0,-3.363853455E0
2.519510239E0,-2.375048161E0,-8.815750122E0,-3.337517262E0
2.524510239E0,-2.375048161E0,-8.839692116E0,-3.308786631E0
2.529510239E0,-2.367865562E0,-8.866027832E0,-3.284844637E0
2.534510205E0,-2.353500366E0,-8.894758224E0,-3.265691042E0
2.539510171E0,-2.334346771E0,-8.916306496E0,-3.260902643E0
2.544510137E0,-2.322375536E0,-8.923488617E0,-3.265691042E0
2.549510137E0,-2.317587137E0,-8.918700218E0,-3.284844637E0
2.554510170E0,-2.305616140E0,-8.904335022E0,-3.325546265E0
2.559510203E0,-2.296039343E0,-8.887576103E0,-3.373430252E0
2.564510236E0,-2.284068346E0,-8.873210907E0,-3.421314240E0
2.569510236E0,-2.262520552E0,-8.870816231E0,-3.462015629E0
2.574510236E0,-2.248155355E0,-8.870816231E0,-3.490746021E0
2.579510869E0,-2.233790159E0,-8.873210907E0,-3.509899616E0
2.584510869E0,-2.233790159E0,-8.877999306E0,-3.521870613E0
2.589510869E0,-2.236184359E0,-8.880393028E0,-3.526659012E0
2.594510902E0,-2.240972757E0,-8.875604630E0,-3.524264812E0
2.599510935E0,-2.252943754E0,-8.868422508E0,-3.519476414E0
2.604510935E0,-2.264914751E0,-8.861239433E0,-3.507505417E0
2.609510935E0,-2.281674147E0,-8.854057312E0,-3.493140221E0
2.614510935E0,-2.298433542E0,-8.849268913E0,-3.485957623E0
2.619510935E0,-2.319981337E0,-8.851662636E0,-3.481169224E0
2.624510935E0,-2.334346771E0,-8.851662636E0,-3.473986626E0
2.629510235E0,-2.351106167E0,-8.851662636E0,-3.462015629E0
2.634510235E0,-2.370259762E0,-8.851662636E0,-3.447650433E0
2.639510235E0,-2.387019157E0,-8.851662636E0,-3.430891037E0
2.644510268E0,-2.403778553E0,-8.842085838E0,-3.418920040E0
2.649510268E0,-2.413355350E0,-8.839692116E0,-3.409343243E0
2.654510268E0,-2.420537949E0,-8.837297440E0,-3.394978046E0
2.659510234E0,-2.420537949E0,-8.827720642E0,-3.383007050E0
2.664510234E0,-2.422932148E0,-8.820538521E0,-3.380612850E0
2.669510234E0,-2.415749550E0,-8.815750122E0,-3.383007050E0
2.674510267E0,-2.401384354E0,-8.818143845E0,-3.387795448E0
2.679510267E0,-2.382230759E0,-8.822932243E0,-3.402160645E0
2.684510267E0,-2.358288765E0,-8.827720642E0,-3.418920040E0
2.689510267E0,-2.336740971E0,-8.830115318E0,-3.435679436E0
2.694510267E0,-2.317587137E0,-8.832509041E0,-3.442862034E0
2.699510267E0,-2.303221941E0,-8.837297440E0,-3.442862034E0
2.704510233E0,-2.291250944E0,-8.837297440E0,-3.438073635E0
2.709510233E0,-2.286462545E0,-8.834903717E0,-3.440467834E0
2.714510233E0,-2.281674147E0,-8.830115318E0,-3.442862034E0
2.719510266E0,-2.274491549E0,-8.832509041E0,-3.450044632E0
2.724510299E0,-2.269703150E0,-8.832509041E0,-3.464409828E0
2.729510299E0,-2.267308950E0,-8.834903717E0,-3.478775024E0
2.734510265E0,-2.264914751E0,-8.839692116E0,-3.488351822E0
2.739510231E0,-2.267308950E0,-8.844480515E0,-3.493140221E0
2.744510231E0,-2.276885748E0,-8.844480515E0,-3.490746021E0
2.749510231E0,-2.298433542E0,-8.844480515E0,-3.483563423E0
2.754510264E0,-2.312798738E0,-8.844480515E0,-3.473986626E0
2.759510264E0,-2.327163935E0,-8.844480515E0,-3.466804028E0
2.764509597E0,-2.339135170E0,-8.842085838E0,-3.457227230E0
2.769509597E0,-2.351106167E0,-8.837297440E0,-3.445256233E0
2.774509597E0,-2.355894566E0,-8.832509041E0,-3.440467834E0
2.779510263E0,-2.358288765E0,-8.830115318E0,-3.445256233E0
2.784510229E0,-2.355894566E0,-8.830115318E0,-3.452438831E0
2.789510229E0,-2.355894566E0,-8.827720642E0,-3.454833031E0
2.794510229E0,-2.358288765E0,-8.822932243E0,-3.457227230E0
2.799510262E0,-2.367865562E0,-8.822932243E0,-3.454833031E0
2.804509928E0,-2.382230759E0,-8.822932243E0,-3.452438831E0
2.809509928E0,-2.398990154E0,-8.827720642E0,-3.452438831E0
2.814509894E0,-2.415749550E0,-8.834903717E0,-3.457227230E0
2.819509860E0,-2.432508945E0,-8.844480515E0,-3.454833031E0
2.824509826E0,-2.439691544E0,-8.851662636E0,-3.457227230E0
2.829509159E0,-2.434903145E0,-8.851662636E0,-3.462015629E0
2.834509192E0,-2.432508945E0,-8.844480515E0,-3.471592426E0
2.839509225E0,-2.432508945E0,-8.839692116E0,-3.485957623E0
2.844509258E0,-2.434903145E0,-8.834903717E0,-3.490746021E0
2.849509291E0,-2.434903145E0,-8.832509041E0,-3.490746021E0
2.854509291E0,-2.434903145E0,-8.825326920E0,-3.488351822E0
2.859509257E0,-2.434903145E0,-8.825326920E0,-3.483563423E0
2.864509223E0,-2.437297344E0,-8.825326920E0,-3.481169224E0
2.869509223E0,-2.439691544E0,-8.822932243E0,-3.481169224E0
2.874509223E0,-2.437297344E0,-8.818143845E0,-3.476380825E0
2.879509256E0,-2.427720547E0,-8.808567047E0,-3.473986626E0
2.884509256E0,-2.422932148E0,-8.798990250E0,-3.473986626E0
2.889509256E0,-2.413355350E0,-8.791808128E0,-3.481169224E0
2.894509222E0,-2.403778553E0,-8.791808128E0,-3.490746021E0
2.899509188E0,-2.398990154E0,-8.794201851E0,-3.500322819E0
2.904508488E0,-2.391807556E0,-8.803778648E0,-3.505111217E0
2.909508788E0,-2.389413357E0,-8.813355446E0,-3.497928619E0
2.914509488E0,-2.391807556E0,-8.820538521E0,-3.488351822E0
2.919509521E0,-2.403778553E0,-8.822932243E0,-3.478775024E0
2.924509554E0,-2.420537949E0,-8.827720642E0,-3.478775024E0
2.929509554E0,-2.434903145E0,-8.827720642E0,-3.481169224E0
2.934509554E0,-2.442085743E0,-8.827720642E0,-3.488351822E0
2.939509520E0,-2.446874142E0,-8.827720642E0,-3.495534420E0
2.944509520E0,-2.449268341E0,-8.827720642E0,-3.502717018E0
2.949509520E0,-2.454056740E0,-8.822932243E0,-3.495534420E0
2.954509886E0,-2.456450939E0,-8.820538521E0,-3.483563423E0
2.959509886E0,-2.461239338E0,-8.825326920E0,-3.464409828E0
2.964509886E0,-2.458845139E0,-8.825326920E0,-3.447650433E0
2.969509886E0,-2.458845139E0,-8.827720642E0,-3.430891037E0
2.974509886E0,-2.458845139E0,-8.822932243E0,-3.423708439E0
2.979510552E0,-2.456450939E0,-8.822932243E0,-3.418920040E0
2.984510518E0,-2.446874142E0,-8.830115318E0,-3.414131641E0
2.989510484E0,-2.434903145E0,-8.827720642E0,-3.409343243E0
2.994510484E0,-2.422932148E0,-8.827720642E0,-3.404554844E0
2.999510484E0,-2.413355350E0,-8.822932243E0,-3.404554844E0
3.004510517E0,-2.403778553E0,-8.818143845E0,-3.411737442E0
3.009510517E0,-2.398990154E0,-8.813355446E0,-3.435679436E0
3.014510517E0,-2.391807556E0,-8.803778648E0,-3.457227230E0
3.019509817E0,-2.384624958E0,-8.789413452E0,-3.478775024E0
3.024509783E0,-2.372653961E0,-8.775048256E0,-3.488351822E0
3.029509083E0,-2.365471363E0,-8.767866135E0,-3.500322819E0
3.034509083E0,-2.365471363E0,-8.767866135E0,-3.507505417E0
3.039508449E0,-2.372653961E0,-8.775048256E0,-3.507505417E0
3.044507582E0,-2.384624958E0,-8.784625053E0,-3.500322819E0
3.049506715E0,-2.389413357E0,-8.796596527E0,-3.481169224E0
3.054506981E0,-2.391807556E0,-8.806173325E0,-3.462015629E0
3.059506014E0,-2.382230759E0,-8.820538521E0,-3.447650433E0
3.064505314E0,-2.370259762E0,-8.830115318E0,-3.440467834E0
3.069505314E0,-2.358288765E0,-8.837297440E0,-3.440467834E0
3.074505314E0,-2.341529369E0,-8.842085838E0,-3.452438831E0
3.079505347E0,-2.329558372E0,-8.842085838E0,-3.466804028E0
3.084505347E0,-2.317587137E0,-8.837297440E0,-3.483563423E0
3.089505347E0,-2.310404539E0,-8.834903717E0,-3.505111217E0
3.094505313E0,-2.310404539E0,-8.832509041E0,-3.526659012E0
3.099505446E0,-2.317587137E0,-8.832509041E0,-3.552995205E0
3.104506012E0,-2.319981337E0,-8.837297440E0,-3.579331636E0
3.109506012E0,-2.315192938E0,-8.842085838E0,-3.605667830E0
3.114506012E0,-2.303221941E0,-8.844480515E0,-3.632004023E0
3.119457382E0,-2.293645144E0,-8.844480515E0,-3.639186621E0
3.124457415E0,-2.284068346E0,-8.844480515E0,-3.634398222E0
3.129457448E0,-2.274491549E0,-8.844480515E0,-3.617638826E0
3.134457448E0,-2.272097349E0,-8.842085838E0,-3.588908434E0
3.139457448E0,-2.276885748E0,-8.832509041E0,-3.548206806E0
3.144457414E0,-2.276885748E0,-8.825326920E0,-3.509899616E0
3.149457414E0,-2.281674147E0,-8.813355446E0,-3.471592426E0
3.154457414E0,-2.291250944E0,-8.803778648E0,-3.440467834E0
3.159457447E0,-2.296039343E0,-8.796596527E0,-3.416525841E0
3.164457447E0,-2.296039343E0,-8.798990250E0,-3.404554844E0
3.169458113E0,-2.298433542E0,-8.798990250E0,-3.402160645E0
3.174458113E0,-2.293645144E0,-8.798990250E0,-3.411737442E0
3.179458779E0,-2.291250944E0,-8.803778648E0,-3.421314240E0
3.184458779E0,-2.284068346E0,-8.810961723E0,-3.430891037E0
3.189459412E0,-2.286462545E0,-8.820538521E0,-3.440467834E0
3.194460312E0,-2.293645144E0,-8.832509041E0,-3.454833031E0
3.199461212E0,-2.308010340E0,-8.849268913E0,-3.466804028E0
3.204461645E0,-2.315192938E0,-8.863634109E0,-3.473986626E0
3.209462311E0,-2.327163935E0,-8.868422508E0,-3.481169224E0
3.214462977E0,-2.339135170E0,-8.873210907E0,-3.493140221E0
3.219462943E0,-2.343923569E0,-8.873210907E0,-3.507505417E0
3.224462909E0,-2.348711967E0,-8.870816231E0,-3.517082214E0
3.229462242E0,-2.351106167E0,-8.868422508E0,-3.524264812E0
3.234462275E0,-2.351106167E0,-8.866027832E0,-3.524264812E0
3.239462308E0,-2.343923569E0,-8.863634109E0,-3.514688015E0
3.244461641E0,-2.336740971E0,-8.861239433E0,-3.500322819E0
3.249461474E0,-2.331952572E0,-8.854057312E0,-3.485957623E0
3.254460874E0,-2.331952572E0,-8.846874237E0,-3.473986626E0
3.259460874E0,-2.336740971E0,-8.834903717E0,-3.476380825E0
3.264460874E0,-2.353500366E0,-8.827720642E0,-3.483563423E0
3.269460840E0,-2.367865562E0,-8.820538521E0,-3.495534420E0
3.274460840E0,-2.382230759E0,-8.815750122E0,-3.505111217E0
3.279460840E0,-2.384624958E0,-8.813355446E0,-3.514688015E0
3.284460873E0,-2.384624958E0,-8.808567047E0,-3.519476414E0
3.289460873E0,-2.384624958E0,-8.806173325E0,-3.509899616E0
3.294460873E0,-2.384624958E0,-8.801384926E0,-3.500322819E0
3.299460839E0,-2.391807556E0,-8.803778648E0,-3.485957623E0
3.304460805E0,-2.401384354E0,-8.806173325E0,-3.473986626E0
3.309460771E0,-2.413355350E0,-8.813355446E0,-3.457227230E0
3.314460771E0,-2.427720547E0,-8.818143845E0,-3.442862034E0
3.319460804E0,-2.439691544E0,-8.822932243E0,-3.428496838E0
3.324460837E0,-2.444479942E0,-8.825326920E0,-3.418920040E0
3.329460870E0,-2.451662540E0,-8.827720642E0,-3.411737442E0
3.334460870E0,-2.456450939E0,-8.832509041E0,-3.409343243E0
3.339460870E0,-2.458845139E0,-8.832509041E0,-3.409343243E0
3.344460836E0,-2.456450939E0,-8.832509041E0,-3.414131641E0
3.349460802E0,-2.456450939E0,-8.830115318E0,-3.421314240E0
3.354460802E0,-2.451662540E0,-8.832509041E0,-3.430891037E0
3.359460835E0,-2.446874142E0,-8.839692116E0,-3.445256233E0
3.364460868E0,-2.434903145E0,-8.846874237E0,-3.466804028E0
3.369460868E0,-2.420537949E0,-8.854057312E0,-3.490746021E0
3.374460234E0,-2.406172752E0,-8.858845711E0,-3.505111217E0
3.379460867E0,-2.394201756E0,-8.858845711E0,-3.505111217E0
3.384460833E0,-2.382230759E0,-8.863634109E0,-3.495534420E0
3.389460799E0,-2.375048161E0,-8.866027832E0,-3.476380825E0
3.394461465E0,-2.365471363E0,-8.873210907E0,-3.454833031E0
3.399461498E0,-2.365471363E0,-8.880393028E0,-3.428496838E0
3.404461531E0,-2.375048161E0,-8.880393028E0,-3.409343243E0
3.409461564E0,-2.382230759E0,-8.877999306E0,-3.392583847E0
3.414461564E0,-2.382230759E0,-8.875604630E0,-3.378218651E0
3.419461564E0,-2.379836559E0,-8.866027832E0,-3.371036053E0
3.424461530E0,-2.382230759E0,-8.856451035E0,-3.366247654E0
3.429460830E0,-2.384624958E0,-8.849268913E0,-3.366247654E0
3.434460796E0,-2.384624958E0,-8.849268913E0,-3.373430252E0
3.439460796E0,-2.367865562E0,-8.844480515E0,-3.385401249E0
3.444460829E0,-2.351106167E0,-8.849268913E0,-3.402160645E0
3.449460195E0,-2.363077164E0,-8.870816231E0,-3.423708439E0
3.454460228E0,-2.377442360E0,-8.882787704E0,-3.445256233E0
3.459460228E0,-2.375048161E0,-8.885181427E0,-3.464409828E0
3.464459561E0,-2.363077164E0,-8.880393028E0,-3.481169224E0
3.469459527E0,-2.351106167E0,-8.875604630E0,-3.497928619E0
3.474459493E0,-2.336740971E0,-8.870816231E0,-3.514688015E0
3.479459493E0,-2.319981337E0,-8.866027832E0,-3.536235809E0
3.484459526E0,-2.315192938E0,-8.858845711E0,-3.564966440E0
3.489459559E0,-2.310404539E0,-8.856451035E0,-3.600879431E0
3.494459559E0,-2.300827742E0,-8.854057312E0,-3.641580820E0
3.499459559E0,-2.298433542E0,-8.844480515E0,-3.687070608E0
3.504459525E0,-2.279279947E0,-8.844480515E0,-3.718195200E0
3.509459491E0,-2.240972757E0,-8.851662636E0,-3.742137194E0
3.514459457E0,-2.205059767E0,-8.849268913E0,-3.758896589E0
3.519459457E0,-2.166752577E0,-8.837297440E0,-3.749319792E0
3.524460123E0,-2.130839586E0,-8.832509041E0,-3.730166197E0
3.529460156E0,-2.092532396E0,-8.839692116E0,-3.703830004E0
3.534460189E0,-2.070984364E0,-8.851662636E0,-3.679888010E0
3.539460189E0,-2.070984364E0,-8.861239433E0,-3.655946016E0
3.544460189E0,-2.085349798E0,-8.866027832E0,-3.641580820E0
3.549460155E0,-2.104503393E0,-8.882787704E0,-3.641580820E0
3.554460155E0,-2.126051188E0,-8.897152901E0,-3.655946016E0
3.559460155E0,-2.149993181E0,-8.911518097E0,-3.675099611E0
3.564460188E0,-2.176329374E0,-8.913911819E0,-3.682282209E0
3.569460188E0,-2.195482969E0,-8.904335022E0,-3.672705412E0
3.574460188E0,-2.219424963E0,-8.885181427E0,-3.658340216E0
3.579460854E0,-2.231395960E0,-8.849268913E0,-3.634398222E0
3.584460854E0,-2.229001760E0,-8.813355446E0,-3.608062029E0
3.589460854E0,-2.205059767E0,-8.777442932E0,-3.574543238E0
3.594460820E0,-2.169146776E0,-8.751106262E0,-3.541024208E0
3.599461453E0,-2.128445387E0,-8.727164268E0,-3.512293816E0
3.604461453E0,-2.090138197E0,-8.710405350E0,-3.488351822E0
3.609461486E0,-2.051830769E0,-8.703222275E0,-3.473986626E0
3.614462186E0,-2.015917778E0,-8.703222275E0,-3.471592426E0
3.619462186E0,-1.980004787E0,-8.719982147E0,-3.473986626E0
3.624462186E0,-1.960851192E0,-8.741529465E0,-3.478775024E0
3.629461486E0,-1.953668594E0,-8.777442932E0,-3.485957623E0
3.634461486E0,-1.953668594E0,-8.813355446E0,-3.497928619E0
3.639461486E0,-1.963245392E0,-8.846874237E0,-3.512293816E0
3.644461519E0,-1.987187386E0,-8.885181427E0,-3.517082214E0
3.649461519E0,-2.018311977E0,-8.916306496E0,-3.512293816E0
3.654461519E0,-2.049436569E0,-8.933065414E0,-3.507505417E0
3.659461519E0,-2.078166962E0,-8.935460091E0,-3.497928619E0
3.664461519E0,-2.106897593E0,-8.921094894E0,-3.490746021E0
3.669461519E0,-2.130839586E0,-8.892364502E0,-3.481169224E0
3.674461485E0,-2.140416384E0,-8.858845711E0,-3.466804028E0
3.679461485E0,-2.130839586E0,-8.825326920E0,-3.457227230E0
3.684461485E0,-2.116474390E0,-8.784625053E0,-3.452438831E0
3.689461518E0,-2.092532396E0,-8.746317863E0,-3.464409828E0
3.694461518E0,-2.068590164E0,-8.710405350E0,-3.478775024E0
3.699461518E0,-2.042253971E0,-8.676886559E0,-3.497928619E0
3.704461484E0,-2.013523579E0,-8.652944565E0,-3.519476414E0
3.709461450E0,-1.980004787E0,-8.640973091E0,-3.536235809E0
3.714461416E0,-1.944091797E0,-8.636184692E0,-3.550601006E0
3.719461416E0,-1.905784607E0,-8.650549889E0,-3.562572241E0
3.724461416E0,-1.877054095E0,-8.676886559E0,-3.569754839E0
3.729461449E0,-1.836352706E0,-8.722375870E0,-3.569754839E0
3.734461482E0,-1.793257117E0,-8.775048256E0,-3.572149038E0
3.739461515E0,-1.752555609E0,-8.830115318E0,-3.579331636E0
3.744461515E0,-1.719036818E0,-8.880393028E0,-3.596091032E0
3.749461515E0,-1.697489023E0,-8.925883293E0,-3.612850428E0
3.754461481E0,-1.685518026E0,-8.957007408E0,-3.639186621E0
3.759461481E0,-1.683123827E0,-8.971372604E0,-3.675099611E0
3.764461481E0,-1.687912226E0,-8.973767281E0,-3.713406801E0
3.769461514E0,-1.702277422E0,-8.961795807E0,-3.749319792E0
3.774461514E0,-1.716642618E0,-8.942642212E0,-3.770867586E0
3.779462180E0,-1.740584612E0,-8.913911819E0,-3.782838583E0
3.784462146E0,-1.783680320E0,-8.885181427E0,-3.782838583E0
3.789462112E0,-1.841141105E0,-8.863634109E0,-3.763684988E0
3.794462078E0,-1.905784607E0,-8.846874237E0,-3.722983599E0
3.799462078E0,-1.984793186E0,-8.834903717E0,-3.670311213E0
3.804462111E0,-2.063801765E0,-8.825326920E0,-3.617638826E0
3.809462144E0,-2.133233786E0,-8.820538521E0,-3.576937437E0
3.814462177E0,-2.185906172E0,-8.810961723E0,-3.548206806E0
3.819462177E0,-2.212242365E0,-8.803778648E0,-3.538630009E0
3.824462177E0,-2.209848166E0,-8.803778648E0,-3.536235809E0
3.829461477E0,-2.178723574E0,-8.808567047E0,-3.545812607E0
3.834461477E0,-2.128445387E0,-8.818143845E0,-3.567360640E0
3.839461477E0,-2.078166962E0,-8.827720642E0,-3.591302633E0
3.844461510E0,-2.037465572E0,-8.842085838E0,-3.612850428E0
3.849461543E0,-2.013523579E0,-8.854057312E0,-3.627215624E0
3.854461543E0,-1.999158382E0,-8.863634109E0,-3.636792421E0
3.859461543E0,-1.994369984E0,-8.868422508E0,-3.627215624E0
3.864460909E0,-1.989581585E0,-8.877999306E0,-3.612850428E0
3.869460909E0,-1.980004787E0,-8.875604630E0,-3.588908434E0
3.874460742E0,-1.970427990E0,-8.870816231E0,-3.562572241E0
3.879460708E0,-1.960851192E0,-8.866027832E0,-3.538630009E0
3.884460708E0,-1.941697598E0,-8.856451035E0,-3.524264812E0
3.889460708E0,-1.910573006E0,-8.849268913E0,-3.519476414E0
3.894460741E0,-1.872265697E0,-8.854057312E0,-3.524264812E0
3.899460741E0,-1.826775908E0,-8.866027832E0,-3.545812607E0
3.904460741E0,-1.790862918E0,-8.885181427E0,-3.560178041E0
3.909460707E0,-1.747767210E0,-8.916306496E0,-3.562572241E0
3.914460707E0,-1.714248419E0,-8.949825287E0,-3.550601006E0
3.919460707E0,-1.673547029E0,-8.973767281E0,-3.519476414E0
3.924460740E0,-1.642422318E0,-8.985737801E0,-3.478775024E0
3.929460740E0,-1.606509328E0,-8.980949402E0,-3.421314240E0
3.934460740E0,-1.575384736E0,-8.957007408E0,-3.366247654E0
3.939460740E0,-1.551442742E0,-8.933065414E0,-3.320757866E0
3.944460740E0,-1.534683347E0,-8.918700218E0,-3.299209833E0
3.949460740E0,-1.515529633E0,-8.930671692E0,-3.299209833E0
3.954460706E0,-1.503558636E0,-8.961795807E0,-3.294421434E0
3.959460706E0,-1.493981838E0,-9.014469147E0,-3.244143248E0
3.964460706E0,-1.491587639E0,-9.076718330E0,-3.160346270E0
3.969460739E0,-1.505952835E0,-9.146149635E0,-3.021482468E0
3.974460772E0,-1.570596337E0,-9.206005096E0,-2.870647907E0
3.979461438E0,-1.661576033E0,-9.253889084E0,-2.659958124E0
3.984461404E0,-1.771709204E0,-9.277831078E0,-2.394201756E0
3.989461370E0,-1.905784607E0,-9.265859604E0,-2.097320795E0
3.994461370E0,-2.066195965E0,-9.222764015E0,-1.817199111E0
3.999461370E0,-2.238578558E0,-9.124602318E0,-1.620874524E0
4.004461403E0,-2.396595955E0,-9.026439667E0,-1.537077546E0
4.009461403E0,-2.545036316E0,-8.933065414E0,-1.654393315E0
4.014462036E0,-2.652775526E0,-8.846874237E0,-1.886630893E0
4.019462036E0,-2.719813108E0,-8.731952667E0,-2.312798738E0
4.024462202E0,-2.760514498E0,-8.614637375E0,-2.827552319E0
4.029461535E0,-2.772485495E0,-8.521263123E0,-3.349488258E0
4.034461501E0,-2.748543501E0,-8.442254066E0,-3.806780815E0
4.039461501E0,-2.698265314E0,-8.391976357E0,-4.161122322E0
4.044460601E0,-2.652775526E0,-8.358457565E0,-4.426878929E0
4.049459734E0,-2.614468336E0,-8.368034363E0,-4.620809078E0
4.054458834E0,-2.573766708E0,-8.384793282E0,-4.733336926E0
4.059458434E0,-2.542642117E0,-8.413523674E0,-4.721365929E0
4.064458400E0,-2.511517525E0,-8.432677269E0,-4.637568474E0
4.069458400E0,-2.463633537E0,-8.411129951E0,-4.443638325E0
4.074458400E0,-2.389413357E0,-8.346486092E0,-4.209006786E0
4.079457766E0,-2.300827742E0,-8.250718117E0,-3.979163170E0
4.084457766E0,-2.221819162E0,-8.128614426E0,-3.794809580E0
4.089457499E0,-2.181117773E0,-7.999327183E0,-3.687070608E0
4.094457099E0,-2.190694571E0,-7.896376610E0,-3.670311213E0
4.099456432E0,-2.243366957E0,-7.855675220E0,-3.754108191E0
4.104456198E0,-2.317587137E0,-7.862857819E0,-3.890577793E0
4.109456164E0,-2.418143749E0,-7.932289600E0,-4.089296341E0
4.114456130E0,-2.513911724E0,-8.025663376E0,-4.271255970E0
4.119456130E0,-2.616862535E0,-8.152556419E0,-4.422090530E0
4.124456130E0,-2.717418909E0,-8.303390503E0,-4.522646904E0
4.129456163E0,-2.813186884E0,-8.470984459E0,-4.563348293E0
4.134456163E0,-2.894589901E0,-8.645761490E0,-4.546588898E0
4.139456163E0,-2.983175278E0,-8.808567047E0,-4.462791920E0
4.144456129E0,-3.064578056E0,-8.968978882E0,-4.359841347E0
4.149456095E0,-3.153163671E0,-9.131784439E0,-4.204218388E0
4.154456061E0,-3.244143248E0,-9.263465881E0,-4.041412354E0
4.159456061E0,-3.344699860E0,-9.385569572E0,-3.861847401E0
4.164456094E0,-3.442862034E0,-9.478943825E0,-3.691859007E0
4.169456127E0,-3.509899616E0,-9.541193008E0,-3.529053211E0
4.174456160E0,-3.529053211E0,-9.574711800E0,-3.387795448E0
4.179456826E0,-3.514688015E0,-9.574711800E0,-3.248931646E0
4.184456826E0,-3.452438831E0,-9.526827812E0,-3.114856482E0
4.189456792E0,-3.344699860E0,-9.435848236E0,-2.990357876E0
4.194457692E0,-3.229778051E0,-9.335291862E0,-2.882618904E0
4.199458592E0,-3.117250681E0,-9.217975616E0,-2.772485495E0
4.204459525E0,-3.021482468E0,-9.112630844E0,-2.669534922E0
4.209459925E0,-2.925714493E0,-9.026439667E0,-2.564189911E0
4.214459925E0,-2.839523315E0,-8.961795807E0,-2.456450939E0
4.219459891E0,-2.753331900E0,-8.923488617E0,-2.322375536E0
4.224459857E0,-2.669534922E0,-8.897152901E0,-2.197877169E0
4.229459823E0,-2.602497339E0,-8.880393028E0,-2.106897593E0
4.234459823E0,-2.564189911E0,-8.866027832E0,-2.054224968E0
4.239460089E0,-2.547430515E0,-8.861239433E0,-2.023100376E0
4.244460522E0,-2.537853718E0,-8.861239433E0,-2.001552582E0
4.249461222E0,-2.540247917E0,-8.866027832E0,-2.011129379E0
4.254461488E0,-2.540247917E0,-8.882787704E0,-2.039859772E0
4.259461488E0,-2.537853718E0,-8.923488617E0,-2.092532396E0
4.264461488E0,-2.525882721E0,-8.971372604E0,-2.138022184E0
4.269461454E0,-2.523488522E0,-9.026439667E0,-2.166752577E0
4.274461454E0,-2.504334927E0,-9.081506729E0,-2.200271368E0
4.279461454E0,-2.494758129E0,-9.136572838E0,-2.238578558E0
4.284461487E0,-2.487575531E0,-9.186851501E0,-2.276885748E0
4.289461487E0,-2.497152328E0,-9.232340813E0,-2.317587137E0
4.294461487E0,-2.489969730E0,-9.268254280E0,-2.355894566E0
4.299461487E0,-2.477998734E0,-9.280224800E0,-2.394201756E0
4.304461487E0,-2.463633537E0,-9.282619476E0,-2.430114746E0
4.309461487E0,-2.456450939E0,-9.273042679E0,-2.451662540E0
4.314461453E0,-2.444479942E0,-9.256282806E0,-2.446874142E0
4.319461453E0,-2.437297344E0,-9.232340813E0,-2.415749550E0
4.324461453E0,-2.437297344E0,-9.198822021E0,-2.367865562E0
4.329461486E0,-2.468421936E0,-9.160514832E0,-2.308010340E0
4.334461486E0,-2.518700123E0,-9.134179115E0,-2.236184359E0
4.339461486E0,-2.578555346E0,-9.129390717E0,-2.152387381E0
4.344461452E0,-2.633621931E0,-9.143755913E0,-2.080561161E0
4.349461418E0,-2.681505919E0,-9.186851501E0,-2.030282974E0
4.354461384E0,-2.722207308E0,-9.241917610E0,-2.006340981E0
4.359461384E0,-2.753331900E0,-9.323320389E0,-2.011129379E0
4.364461384E0,-2.782062292E0,-9.421483040E0,-2.035071373E0
4.369461417E0,-2.806004286E0,-9.522039413E0,-2.070984364E0
4.374461450E0,-2.827552319E0,-9.610625267E0,-2.121262789E0
4.379462150E0,-2.853888512E0,-9.677662849E0,-2.183511972E0
4.384462150E0,-2.877830505E0,-9.708786964E0,-2.238578558E0
4.389462150E0,-2.894589901E0,-9.680056572E0,-2.288856745E0
4.394462116E0,-2.911349297E0,-9.622595787E0,-2.336740971E0
4.399462116E0,-2.932897091E0,-9.541193008E0,-2.389413357E0
4.404462116E0,-2.959233284E0,-9.457395554E0,-2.439691544E0
4.409462149E0,-2.975992680E0,-9.392752647E0,-2.485181332E0
4.414462149E0,-2.964021683E0,-9.347262383E0,-2.521094322E0
4.419462149E0,-2.923320293E0,-9.332897186E0,-2.545036316E0
4.424462115E0,-2.849100113E0,-9.352050781E0,-2.554613113E0
4.429461415E0,-2.762908697E0,-9.404723167E0,-2.549824715E0
4.434461381E0,-2.691082716E0,-9.476549149E0,-2.523488522E0
4.439461381E0,-2.628833532E0,-9.562741280E0,-2.477998734E0
4.444461414E0,-2.578555346E0,-9.646537781E0,-2.430114746E0
4.449461447E0,-2.542642117E0,-9.720758438E0,-2.370259762E0
4.454461480E0,-2.513911724E0,-9.783007622E0,-2.319981337E0
4.459461480E0,-2.487575531E0,-9.823708534E0,-2.329558372E0
4.464461480E0,-2.461239338E0,-9.852438927E0,-2.406172752E0
4.469461446E0,-2.420537949E0,-9.862015724E0,-2.501940727E0
4.474461412E0,-2.365471363E0,-9.838073730E0,-2.566584110E0
4.479461412E0,-2.310404539E0,-9.756670952E0,-2.566584110E0
4.484461445E0,-2.272097349E0,-9.651326180E0,-2.518700123E0
4.489461478E0,-2.243366957E0,-9.502885818E0,-2.394201756E0
4.494461478E0,-2.221819162E0,-9.361627579E0,-2.229001760E0
4.499461478E0,-2.207453966E0,-9.229947090E0,-2.001552582E0
4.504461478E0,-2.207453966E0,-9.119813919E0,-1.702277422E0
4.509461478E0,-2.224213362E0,-9.021651268E0,-1.343147159E0
4.514461478E0,-2.260126352E0,-8.928277016E0,-9.911994934E-1
4.519461444E0,-2.324769735E0,-8.827720642E0,-7.206547260E-1
4.524461444E0,-2.408566952E0,-8.715193748E0,-5.817909837E-1
4.529461444E0,-2.509123325E0,-8.581118584E0,-6.727706790E-1
4.534461477E0,-2.592920542E0,-8.456619263E0,-8.882488012E-1
4.539461477E0,-2.650381327E0,-8.344092369E0,-1.259350061E0
4.544461477E0,-2.676717520E0,-8.253112793E0,-1.623268723E0
4.549461443E0,-2.640804529E0,-8.200440407E0,-1.946485996E0
4.554461409E0,-2.568978310E0,-8.176498413E0,-2.212242365E0
4.559461375E0,-2.487575531E0,-8.183680534E0,-2.437297344E0
4.564461375E0,-2.422932148E0,-8.212410927E0,-2.609679937E0
4.569461408E0,-2.406172752E0,-8.253112793E0,-2.722207308E0
4.574461441E0,-2.432508945E0,-8.291419983E0,-2.762908697E0
4.579462141E0,-2.501940727E0,-8.324938774E0,-2.703053713E0
4.584462141E0,-2.585737944E0,-8.336909294E0,-2.612074137E0
4.589462141E0,-2.710236311E0,-8.320150375E0,-2.516305923E0
4.594462107E0,-2.832340717E0,-8.291419983E0,-2.449268341E0
4.599462073E0,-2.952050686E0,-8.255506516E0,-2.418143749E0
4.604462073E0,-3.076549292E0,-8.214805603E0,-2.408566952E0
4.609462106E0,-3.201047659E0,-8.183680534E0,-2.396595955E0
4.614462139E0,-3.308786631E0,-8.169315338E0,-2.365471363E0
4.619462139E0,-3.387795448E0,-8.202834129E0,-2.322375536E0
4.624462139E0,-3.447650433E0,-8.274660110E0,-2.281674147E0
4.629461439E0,-3.476380825E0,-8.418312073E0,-2.236184359E0
4.634461405E0,-3.478775024E0,-8.593089104E0,-2.202665567E0
4.639461371E0,-3.445256233E0,-8.830115318E0,-2.197877169E0
4.644461371E0,-3.387795448E0,-9.069535255E0,-2.214636564E0
4.649461404E0,-3.263296843E0,-9.337685585E0,-2.267308950E0
4.654461437E0,-3.169923067E0,-9.591471672E0,-2.303221941E0
4.659460803E0,-3.093308687E0,-9.809343338E0,-2.329558372E0
4.664460803E0,-3.052607059E0,-9.981725693E0,-2.329558372E0
4.669460803E0,-3.064578056E0,-1.007509995E1,-2.296039343E0
4.674460769E0,-3.090914488E0,-1.011101341E1,-2.250549555E0
4.679460735E0,-3.136404276E0,-1.006791782E1,-2.183511972E0
4.684460701E0,-3.181894064E0,-1.000327396E1,-2.116474390E0
4.689460701E0,-3.222595453E0,-9.917082787E0,-2.059013367E0
4.694460734E0,-3.229778051E0,-9.835680008E0,-2.042253971E0
4.699460767E0,-3.296815634E0,-9.739912033E0,-2.023100376E0
4.704460800E0,-3.380612850E0,-9.653720856E0,-2.023100376E0
4.709460800E0,-3.459621429E0,-9.577106476E0,-2.044648170E0
4.714460800E0,-3.529053211E0,-9.507674217E0,-2.073378563E0
4.719460766E0,-3.581725836E0,-9.443030357E0,-2.109291792E0
4.724460732E0,-3.627215624E0,-9.385569572E0,-2.145204782E0
4.729460732E0,-3.665522814E0,-9.335291862E0,-2.181117773E0
4.734460765E0,-3.694253206E0,-9.296984673E0,-2.202665567E0
4.739460798E0,-3.682282209E0,-9.265859604E0,-2.195482969E0
4.744460798E0,-3.634398222E0,-9.222764015E0,-2.154781580E0
4.749460798E0,-3.624821424E0,-9.167697906E0,-2.066195965E0
4.754460364E0,-3.610456228E0,-9.115025520E0,-1.987187386E0
4.759460330E0,-3.605667830E0,-9.057564735E0,-1.920149803E0
4.764460296E0,-3.593696833E0,-8.990526199E0,-1.843535304E0
4.769460296E0,-3.576937437E0,-8.923488617E0,-1.754949808E0
4.774460329E0,-3.560178041E0,-8.856451035E0,-1.675941229E0
4.779461029E0,-3.538630009E0,-8.782231331E0,-1.611297727E0
4.784461062E0,-3.517082214E0,-8.708010674E0,-1.563413739E0
4.789461062E0,-3.507505417E0,-8.629002571E0,-1.520318031E0
4.794461062E0,-3.517082214E0,-8.554781914E0,-1.472434044E0
4.799461028E0,-3.529053211E0,-8.485349655E0,-1.424550056E0
4.804461028E0,-3.529053211E0,-8.432677269E0,-1.391031146E0
4.809461694E0,-3.536235809E0,-8.394370079E0,-1.371877551E0
4.814461727E0,-3.552995205E0,-8.377611160E0,-1.395819545E0
4.819461727E0,-3.581725836E0,-8.391976357E0,-1.470039845E0
4.824461727E0,-3.608062029E0,-8.425495148E0,-1.556231141E0
4.829461060E0,-3.629609823E0,-8.504503250E0,-1.640028119E0
4.834461060E0,-3.648763418E0,-8.600272179E0,-1.704671621E0
4.839461060E0,-3.629609823E0,-8.729558945E0,-1.723825216E0
4.844461026E0,-3.655946016E0,-8.837297440E0,-1.711854219E0
4.849460992E0,-3.713406801E0,-8.921094894E0,-1.695094824E0
4.854460992E0,-3.778050184E0,-8.968978882E0,-1.683123827E0
4.859461025E0,-3.816357613E0,-8.971372604E0,-1.673547029E0
4.864461058E0,-3.823540211E0,-8.947430611E0,-1.675941229E0
4.869461058E0,-3.756502390E0,-8.909123421E0,-1.711854219E0
4.874461058E0,-3.651157618E0,-8.880393028E0,-1.766920805E0
4.879461024E0,-3.512293816E0,-8.873210907E0,-1.855506301E0
4.884460990E0,-3.378218651E0,-8.880393028E0,-1.948880196E0
4.889460956E0,-3.239354849E0,-8.904335022E0,-2.035071373E0
4.894460956E0,-3.124433279E0,-8.911518097E0,-2.106897593E0
4.899460989E0,-3.055001259E0,-8.909123421E0,-2.173935175E0
4.904461422E0,-3.023876667E0,-8.901941299E0,-2.221819162E0
4.909461455E0,-3.038241863E0,-8.918700218E0,-2.257732153E0
4.914461455E0,-3.069366693E0,-8.949825287E0,-2.281674147E0
4.919461455E0,-3.114856482E0,-9.019257545E0,-2.300827742E0
4.924461421E0,-3.148375273E0,-9.095871925E0,-2.317587137E0
4.929461421E0,-3.179499865E0,-9.158121109E0,-2.310404539E0
4.934461421E0,-3.210624456E0,-9.203610420E0,-2.264914751E0
4.939461454E0,-3.258508444E0,-9.222764015E0,-2.188300371E0
4.944461454E0,-3.335123062E0,-9.210793495E0,-2.104503393E0
4.949461454E0,-3.426102638E0,-9.182063103E0,-2.027888775E0
4.954461420E0,-3.517082214E0,-9.146149635E0,-1.956062794E0
4.959461386E0,-3.593696833E0,-9.122207642E0,-1.891419291E0
4.964461352E0,-3.651157618E0,-9.110237122E0,-1.850717902E0
4.969461352E0,-3.679888010E0,-9.110237122E0,-1.845929503E0
4.974461352E0,-3.691859007E0,-9.119813919E0,-1.829170108E0
4.979462052E0,-3.675099611E0,-9.129390717E0,-1.762132406E0
4.984462085E0,-3.648763418E0,-9.129390717E0,-1.656787634E0
4.989462118E0,-3.632004023E0,-9.124602318E0,-1.541865945E0
4.994462118E0,-3.622427225E0,-9.126996040E0,-1.438915253E0
4.999462118E0,-3.643975019E0,-9.126996040E0,-1.352723956E0
5.004462084E0,-3.696647406E0,-9.136572838E0,-1.285686255E0
5.009462084E0,-3.770867586E0,-9.162909508E0,-1.230619669E0
5.014462084E0,-3.852270603E0,-9.198822021E0,-1.194706678E0
5.019462117E0,-3.938461781E0,-9.268254280E0,-1.197100878E0
5.024462117E0,-4.015076160E0,-9.347262383E0,-1.218648672E0
5.029461450E0,-4.062960148E0,-9.447818756E0,-1.252167463E0
5.034461450E0,-4.094084740E0,-9.541193008E0,-1.278503656E0
5.039461450E0,-4.110844135E0,-9.601048470E0,-1.288080573E0
5.044460550E0,-3.952826977E0,-9.636960983E0,-1.321599364E0
5.049459616E0,-3.871424198E0,-9.589076996E0,-1.295263171E0
5.054458716E0,-3.809175014E0,-9.534010887E0,-1.273715258E0
5.059458716E0,-3.866635799E0,-9.500492096E0,-1.278503656E0
5.064458749E0,-3.950432777E0,-9.507674217E0,-1.323993564E0
5.069458749E0,-4.019864559E0,-9.565135002E0,-1.450886250E0
5.074458749E0,-4.106055737E0,-9.617807388E0,-1.587355733E0
5.079458715E0,-4.127603531E0,-9.692028046E0,-1.762132406E0
5.084458015E0,-4.084507942E0,-9.771036148E0,-1.941697598E0
5.089458015E0,-3.971980572E0,-9.850045204E0,-2.104503393E0
5.094458048E0,-3.818751812E0,-9.897929192E0,-2.243366957E0
5.099457414E0,-3.627215624E0,-9.917082787E0,-2.339135170E0
5.104456747E0,-3.426102638E0,-9.897929192E0,-2.396595955E0
5.109456080E0,-3.215412855E0,-9.833285332E0,-2.408566952E0
5.114456080E0,-3.031059265E0,-9.763854027E0,-2.398990154E0
5.119456080E0,-2.863465309E0,-9.694421768E0,-2.377442360E0
5.124456080E0,-2.729389906E0,-9.632172585E0,-2.363077164E0
5.129456046E0,-2.614468336E0,-9.574711800E0,-2.365471363E0
5.134456046E0,-2.521094322E0,-9.529222488E0,-2.396595955E0
5.139456046E0,-2.449268341E0,-9.507674217E0,-2.451662540E0
5.144456079E0,-2.394201756E0,-9.524434090E0,-2.506729126E0
5.149456079E0,-2.355894566E0,-9.567529678E0,-2.547430515E0
5.154456079E0,-2.339135170E0,-9.620202065E0,-2.566584110E0
5.159456045E0,-2.360682964E0,-9.675268173E0,-2.549824715E0
5.164456011E0,-2.413355350E0,-9.727940559E0,-2.513911724E0
5.169455977E0,-2.504334927E0,-9.766247749E0,-2.432508945E0
5.174455977E0,-2.604891539E0,-9.792584419E0,-2.324769735E0
5.179456677E0,-2.691082716E0,-9.797372818E0,-2.209848166E0
5.184456710E0,-2.748543501E0,-9.783007622E0,-2.092532396E0
5.189456743E0,-2.774879694E0,-9.747094154E0,-1.980004787E0
5.194457643E0,-2.765302896E0,-9.682451248E0,-1.874659896E0
5.199458543E0,-2.738966703E0,-9.589076996E0,-1.778891921E0
5.204459409E0,-2.707842112E0,-9.502885818E0,-1.704671621E0
5.209459409E0,-2.674323320E0,-9.438241959E0,-1.637633920E0
5.214459409E0,-2.645592928E0,-9.397541046E0,-1.580173135E0
5.219459442E0,-2.650381327E0,-9.392752647E0,-1.551442742E0
5.224459475E0,-2.695871115E0,-9.407117844E0,-1.553836942E0
5.229458808E0,-2.762908697E0,-9.438241959E0,-1.568202138E0
5.234458808E0,-2.825158119E0,-9.464578629E0,-1.589749932E0
5.239458774E0,-2.880224705E0,-9.495702744E0,-1.620874524E0
5.244458740E0,-2.923320293E0,-9.531616211E0,-1.659181833E0
5.249459373E0,-2.942473888E0,-9.567529678E0,-1.692700624E0
5.254460039E0,-2.944868088E0,-9.589076996E0,-1.709460020E0
5.259460739E0,-2.925714493E0,-9.574711800E0,-1.675941229E0
5.264460772E0,-2.896984100E0,-9.534010887E0,-1.611297727E0
5.269460805E0,-2.868253708E0,-9.440636635E0,-1.477222443E0
5.274460805E0,-2.839523315E0,-9.325715065E0,-1.300051570E0
5.279460805E0,-2.806004286E0,-9.196428299E0,-1.089361787E0
5.284460771E0,-2.779668093E0,-9.067141533E0,-8.595184088E-1
5.289460771E0,-2.782062292E0,-8.961795807E0,-6.344634295E-1
5.294460771E0,-2.803610086E0,-8.889969826E0,-4.453215301E-1
5.299460804E0,-2.839523315E0,-8.861239433E0,-3.184288144E-1
5.304460804E0,-2.861071110E0,-8.849268913E0,-2.418143749E-1
5.309460804E0,-2.892195702E0,-8.880393028E0,-2.657563984E-1
5.314460804E0,-2.904166698E0,-8.923488617E0,-3.423708379E-1
5.319460804E0,-2.885013103E0,-8.971372604E0,-4.740519226E-1
5.324460804E0,-2.892195702E0,-9.019257545E0,-6.248866320E-1
5.329460770E0,-2.885013103E0,-9.059958458E0,-7.972691655E-1
5.334460770E0,-2.825158119E0,-9.079112053E0,-9.935936928E-1
5.339460770E0,-2.803610086E0,-9.045593262E0,-1.163581967E0
5.344460803E0,-2.849100113E0,-8.990526199E0,-1.314416766E0
5.349460836E0,-2.849100113E0,-8.940248489E0,-1.474828243E0
5.354460836E0,-2.868253708E0,-8.892364502E0,-1.589749932E0
5.359460802E0,-2.808398485E0,-8.875604630E0,-1.668758631E0
5.364460768E0,-2.753331900E0,-8.868422508E0,-1.711854219E0
5.369460734E0,-2.729389906E0,-8.854057312E0,-1.747767210E0
5.374460700E0,-2.643198729E0,-8.846874237E0,-1.795651317E0
5.379461366E0,-2.559401512E0,-8.830115318E0,-1.829170108E0
5.384462066E0,-2.473210335E0,-8.801384926E0,-1.848323703E0
5.389462099E0,-2.377442360E0,-8.755894661E0,-1.872265697E0
5.394462132E0,-2.226607561E0,-8.719982147E0,-1.917755604E0
5.399462132E0,-2.133233786E0,-8.662521362E0,-1.917755604E0
5.404462132E0,-2.078166962E0,-8.602665901E0,-1.908178806E0
5.409462098E0,-2.037465572E0,-8.530839920E0,-1.905784607E0
5.414462098E0,-2.006340981E0,-8.461407661E0,-1.915361404E0
5.419462098E0,-1.951274395E0,-8.396764755E0,-1.963245392E0
5.424462131E0,-1.896207690E0,-8.346486092E0,-2.030282974E0
5.429461464E0,-1.932120800E0,-8.303390503E0,-2.082955360E0
5.434461464E0,-2.008735180E0,-8.289025307E0,-2.149993181E0
5.439461430E0,-2.094926596E0,-8.303390503E0,-2.243366957E0
5.444461396E0,-2.138022184E0,-8.341697693E0,-2.341529369E0
5.449461362E0,-2.240972757E0,-8.391976357E0,-2.363077164E0
5.454461362E0,-2.341529369E0,-8.447042465E0,-2.353500366E0
5.459460695E0,-2.406172752E0,-8.526051521E0,-2.310404539E0
5.464460728E0,-2.466027737E0,-8.600272179E0,-2.240972757E0
5.469460761E0,-2.511517525E0,-8.667309761E0,-2.152387381E0
5.474460794E0,-2.528276920E0,-8.717587471E0,-2.049436569E0
5.479460794E0,-2.619256735E0,-8.741529465E0,-1.932120800E0
5.484460760E0,-2.746149302E0,-8.746317863E0,-1.836352706E0
5.489460726E0,-2.889801502E0,-8.743924141E0,-1.778891921E0
5.494460726E0,-3.014299870E0,-8.743924141E0,-1.752555609E0
5.499460726E0,-3.016694069E0,-8.760683060E0,-1.793257117E0
5.504460759E0,-3.052607059E0,-8.782231331E0,-1.821987510E0
5.509460759E0,-3.124433279E0,-8.822932243E0,-1.881842494E0
5.514460759E0,-3.169923067E0,-8.877999306E0,-1.975216389E0
5.519460759E0,-3.277662039E0,-8.942642212E0,-2.056619167E0
5.524460759E0,-3.406949043E0,-9.028834343E0,-2.133233786E0
5.529460759E0,-3.490746021E0,-9.122207642E0,-2.212242365E0
5.534460725E0,-3.507505417E0,-9.234735489E0,-2.281674147E0
5.539460725E0,-3.505111217E0,-9.361627579E0,-2.308010340E0
5.544460725E0,-3.471592426E0,-9.474155426E0,-2.329558372E0
5.549460758E0,-3.524264812E0,-9.569923401E0,-2.329558372E0
5.554460758E0,-3.572149038E0,-9.648932457E0,-2.355894566E0
5.559460758E0,-3.588908434E0,-9.694421768E0,-2.415749550E0
5.564460724E0,-3.639186621E0,-9.711181641E0,-2.477998734E0
5.569460724E0,-3.646369219E0,-9.725546837E0,-2.564189911E0
5.574460724E0,-3.610456228E0,-9.742305756E0,-2.655169725E0
5.579461424E0,-3.526659012E0,-9.768642426E0,-2.767697096E0
5.584461424E0,-3.399766445E0,-9.799766541E0,-2.889801502E0
5.589461424E0,-3.160346270E0,-9.816526413E0,-3.055001259E0
5.594461424E0,-2.985569477E0,-9.833285332E0,-3.165134668E0
5.599461424E0,-2.839523315E0,-9.857227325E0,-3.287238836E0
5.604461424E0,-2.698265314E0,-9.873987198E0,-3.409343243E0
5.609462090E0,-2.540247917E0,-9.859622002E0,-3.533841610E0
5.614462056E0,-2.389413357E0,-9.816526413E0,-3.655946016E0
5.619462056E0,-2.274491549E0,-9.735123634E0,-3.773261786E0
5.624462056E0,-2.181117773E0,-9.627384186E0,-3.873818398E0
5.629461422E0,-2.085349798E0,-9.498097420E0,-3.955221176E0
5.634461422E0,-2.013523579E0,-9.354445457E0,-4.024652958E0
5.639461422E0,-1.980004787E0,-9.186851501E0,-4.091690540E0
5.644461388E0,-1.960851192E0,-9.026439667E0,-4.151545525E0
5.649461354E0,-2.001552582E0,-8.849268913E0,-4.206612587E0
5.654461320E0,-2.097320795E0,-8.684068680E0,-4.259284973E0
5.659461320E0,-2.238578558E0,-8.523657799E0,-4.316745758E0
5.664461386E0,-2.415749550E0,-8.391976357E0,-4.376600742E0
5.669461419E0,-3.521870613E0,-7.944260597E0,-4.620809078E0
5.674461452E0,-3.881000996E0,-8.066365242E0,-4.558559895E0
5.679461452E0,-4.343081951E0,-8.348880768E0,-4.338293552E0
5.684461452E0,-4.474762917E0,-8.523657799E0,-4.146757126E0
5.689461418E0,-4.714183331E0,-8.758289337E0,-3.734954596E0
5.694461418E0,-4.872200489E0,-8.858845711E0,-3.450044632E0
5.699461418E0,-4.886565685E0,-8.930671692E0,-3.131615877E0
5.704461451E0,-4.745307922E0,-8.973767281E0,-3.078943491E0
5.709461451E0,-4.596867085E0,-8.887576103E0,-3.167528868E0
5.714461451E0,-4.611232281E0,-8.803778648E0,-3.521870613E0
5.719461417E0,-4.632780075E0,-8.748712540E0,-4.058171749E0
5.724461383E0,-4.477157116E0,-8.724770546E0,-4.726154327E0
5.729461349E0,-3.859453201E0,-8.873210907E0,-5.499780655E0
5.734461349E0,-3.584120035E0,-8.966584206E0,-5.722441196E0
5.739461349E0,-3.155557871E0,-9.076718330E0,-6.002563000E0
5.744461382E0,-2.875436306E0,-9.050381660E0,-6.124667168E0
5.749461415E0,-2.676717520E0,-9.186851501E0,-6.464643955E0
5.754461448E0,-2.628833532E0,-9.373599052E0,-6.586748123E0
5.759461448E0,-2.777273893E0,-9.668086052E0,-6.840533733E0
5.764461448E0,-2.961627483E0,-1.003439903E1,-6.792649269E0
5.769461414E0,-3.311181068E0,-1.020199299E1,-6.383241177E0
5.774461414E0,-3.509899616E0,-1.029776096E1,-5.921160221E0
5.779462080E0,-3.768473387E0,-1.034564495E1,-5.360917091E0
5.784462113E0,-3.857059002E0,-1.025227070E1,-4.980238914E0
5.789462113E0,-3.854664803E0,-1.009664822E1,-4.618414879E0
5.794462113E0,-3.620033026E0,-1.016847420E1,-4.690241337E0
5.799462113E0,-3.299209833E0,-1.021396351E1,-4.953902721E0
5.804462113E0,-3.071760893E0,-1.025466537E1,-5.293879032E0
5.809462113E0,-2.985569477E0,-1.016847420E1,-5.655403614E0
5.814462046E0,-2.937685490E0,-1.000566864E1,-6.172551155E0
5.819462046E0,-2.834734917E0,-9.783007622E0,-6.799831867E0
5.824462046E0,-2.899378300E0,-9.644144058E0,-7.079953671E0
5.829461412E0,-2.954444885E0,-9.483732224E0,-7.403171062E0
5.834461412E0,-2.997540474E0,-9.419088364E0,-7.527669430E0
5.839461412E0,-2.880224705E0,-9.160514832E0,-7.654561996E0
5.844461378E0,-2.640804529E0,-9.076718330E0,-7.762300968E0
5.849461344E0,-2.343923569E0,-8.880393028E0,-7.721599579E0
5.854461310E0,-2.102109194E0,-8.748712540E0,-7.611466408E0
5.859461310E0,-1.819593310E0,-8.763077736E0,-7.355287075E0
5.864461310E0,-1.635239720E0,-8.708010674E0,-6.950666904E0
5.869461343E0,-1.453280449E0,-8.528446198E0,-6.479009151E0
5.874461376E0,-1.453280449E0,-8.363245964E0,-6.294655323E0
5.879461409E0,-1.362300754E0,-8.068758965E0,-6.162974358E0
5.884461409E0,-1.297657371E0,-7.870040417E0,-6.184522152E0
5.889461409E0,-1.070208192E0,-7.628225803E0,-6.366481781E0
5.894461375E0,-8.738836050E-1,-7.479785442E0,-6.567594528E0
5.899461375E0,-7.230489254E-1,-7.350498676E0,-6.735188484E0
5.904461375E0,-4.860229492E-1,-7.264307022E0,-6.945878506E0
5.909461408E0,-4.381389022E-1,-7.309797287E0,-7.079953671E0
5.914461408E0,-5.123591423E-1,-7.328950882E0,-7.206846237E0
5.919461408E0,-8.451532125E-1,-7.410353661E0,-7.266701221E0
5.924461374E0,-9.433154464E-1,-7.439084053E0,-7.216423035E0
5.929461340E0,-9.241618514E-1,-7.482179642E0,-7.247547626E0
5.934461306E0,-1.086967587E0,-7.503727436E0,-7.156568050E0
5.939461306E0,-1.156399369E0,-7.379229069E0,-7.046434879E0
5.944461339E0,-1.086967587E0,-7.175721645E0,-7.149385452E0
5.949461372E0,-1.043871999E0,-7.003339291E0,-7.221211433E0
5.954461405E0,-9.983820915E-1,-6.943484306E0,-7.376834869E0
5.959461405E0,-1.127668977E0,-7.020098686E0,-7.460631847E0
5.964461405E0,-1.017535686E0,-7.065588474E0,-7.585130215E0
5.969461371E0,-1.268926859E0,-7.053617477E0,-7.417536259E0
5.974461337E0,-1.529894829E0,-7.106289864E0,-7.283460617E0
5.979462003E0,-1.685518026E0,-7.041646481E0,-7.139808655E0
5.984462036E0,-1.419761658E0,-6.823774338E0,-7.470208645E0
5.989462069E0,-1.529894829E0,-6.569988728E0,-7.735964775E0
5.994461402E0,-2.147598982E0,-6.653785706E0,-7.362469673E0
5.999460735E0,-2.315192938E0,-6.546046734E0,-7.182904243E0
6.004460735E0,-2.310404539E0,-6.457461357E0,-7.245153427E0
6.009460735E0,-2.367865562E0,-6.246771336E0,-7.439084053E0
6.014460735E0,-2.274491549E0,-6.210858345E0,-7.678503990E0
6.019460701E0,-2.056619167E0,-6.093542576E0,-7.824550629E0
6.024460701E0,-1.774103403E0,-6.007351398E0,-7.929895401E0
6.029460034E0,-1.350329757E0,-5.827786446E0,-7.690474987E0
6.034460067E0,-1.103726983E0,-5.696105003E0,-7.494150639E0
6.039459400E0,-7.398083210E-1,-5.308244228E0,-7.355287075E0
6.044458500E0,-4.405331016E-1,-4.915595531E0,-7.465420246E0
6.049457800E0,-1.580173075E-1,-4.067748547E0,-7.486968040E0
6.054457133E0,3.519476354E-1,-3.632004023E0,-7.716811180E0
6.059456233E0,3.782838583E-1,-3.904942989E0,-8.131008148E0
6.064455366E0,5.482721925E-1,-4.165910721E0,-8.097489357E0
6.069454466E0,5.506663918E-1,-4.244919777E0,-7.843704224E0
6.074453566E0,6.224924326E-1,-4.369418144E0,-7.539640427E0
6.079453566E0,6.416460276E-1,-4.649539471E0,-6.905177116E0
6.084453566E0,4.189853072E-1,-4.733336926E0,-6.620266914E0
6.089453566E0,3.208230138E-1,-4.814739704E0,-6.186916351E0
6.094453532E0,2.035071403E-1,-4.774038315E0,-6.086359978E0
6.099453098E0,-9.097966552E-2,-4.560954094E0,-6.067206383E0
6.104453098E0,-4.094084799E-1,-4.355052948E0,-6.220435143E0
6.109453131E0,-9.888052940E-1,-4.110844135E0,-6.162974358E0
6.114453164E0,-1.249773264E0,-4.015076160E0,-6.026504993E0
6.119452764E0,-1.175553083E0,-3.773261786E0,-6.088754177E0
6.124452764E0,-1.113303781E0,-3.696647406E0,-6.474220753E0
6.129452730E0,-1.036689281E0,-3.586514235E0,-6.546046734E0
6.134452696E0,-6.488286853E-1,-3.560178041E0,-6.749553680E0
6.139452662E0,-4.620809257E-1,-3.390189648E0,-6.775889874E0
6.144453328E0,7.900865376E-2,-3.533841610E0,-6.864475727E0
6.149454028E0,3.016694188E-1,-3.744531393E0,-7.077559471E0
6.154454061E0,3.256114423E-1,-3.904942989E0,-7.412747860E0
6.159454094E0,2.992752194E-1,-4.194641590E0,-7.484573841E0
6.164454094E0,1.556231081E-1,-4.345476151E0,-7.465420246E0
6.169454094E0,-2.633621916E-2,-4.493916512E0,-7.309797287E0
6.174454060E0,-1.987187415E-1,-4.438849926E0,-7.101501465E0
6.179454726E0,-2.681505978E-1,-4.345476151E0,-6.955455303E0
6.184454726E0,-2.442085743E-1,-4.242525578E0,-6.761524677E0
6.189455426E0,-2.346317619E-1,-4.118026733E0,-6.498162746E0
6.194456326E0,-1.747767180E-1,-3.931279182E0,-6.359299183E0
6.199456992E0,3.591302410E-2,-3.833117008E0,-6.273107529E0
6.204457625E0,6.703764945E-2,-3.775655985E0,-6.304232121E0
6.209458491E0,-4.788403399E-3,-3.816357613E0,-6.536469936E0
6.214459357E0,1.675941236E-2,-3.957615376E0,-6.737582684E0
6.219460257E0,-3.040636182E-1,-4.161122322E0,-7.027281284E0
6.224461157E0,-4.668693244E-1,-4.235342979E0,-7.187692642E0
6.229460523E0,-7.924807668E-1,-4.299986362E0,-7.364863873E0
6.234460556E0,-1.065419793E0,-4.395754337E0,-7.343316078E0
6.239460589E0,-1.323993564E0,-4.364629745E0,-7.501333237E0
6.244460589E0,-1.647210717E0,-4.232948780E0,-7.625831604E0
6.249460989E0,-1.941697598E0,-4.220977783E0,-7.599495411E0
6.254460955E0,-2.063801765E0,-4.187458992E0,-7.716811180E0
6.259460955E0,-1.963245392E0,-4.015076160E0,-7.917924404E0
6.264460955E0,-1.867477298E0,-4.050989151E0,-7.956231594E0
6.269461388E0,-1.810016513E0,-4.110844135E0,-8.018480301E0
6.274461388E0,-1.582567334E0,-4.187458992E0,-8.219594002E0
6.279461388E0,-1.362300754E0,-4.424484730E0,-8.447042465E0
6.284461388E0,-1.015141487E0,-4.690241337E0,-8.741529465E0
6.289461388E0,-8.978256583E-1,-4.932354927E0,-8.988132477E0
6.294461388E0,-7.565677166E-1,-5.114314079E0,-9.210793495E0
6.299461354E0,-9.121908545E-1,-5.119102478E0,-9.399934769E0
6.304461354E0,-7.445967197E-1,-5.186140060E0,-9.555558205E0
6.309461354E0,-6.057330370E-1,-4.987421513E0,-9.862015724E0
6.314461387E0,-4.022258818E-1,-4.867412090E0,-1.008467674E1
6.319461387E0,-1.484405100E-1,-4.908412933E0,-1.040310574E1
6.324461387E0,-3.232172430E-1,-5.028122902E0,-1.067125607E1
6.329461353E0,-2.753331959E-1,-5.595548630E0,-1.177498341E1
6.334461319E0,-4.788403213E-2,-6.285078526E0,-1.258182907E1
6.339461285E0,9.576806799E-3,-7.041646481E0,-1.280688381E1
6.344461285E0,-3.112462163E-2,-7.599495411E0,-1.246211910E1
6.349461285E0,1.053448766E-1,-7.870040417E0,-1.122910500E1
6.354461318E0,-1.532289088E-1,-7.716811180E0,-1.065928555E1
6.359461351E0,-5.123591423E-1,-6.886023521E0,-1.004876423E1
6.364461384E0,-8.786720037E-1,-6.258742332E0,-9.562741280E0
6.369461384E0,-1.333570361E0,-4.953902721E0,-8.794201851E0
6.374461384E0,-1.541865945E0,-4.333505154E0,-8.289025307E0
6.379462017E0,-1.460463047E0,-3.861847401E0,-8.133402824E0
6.384462017E0,-1.505952835E0,-3.430891037E0,-8.262689590E0
6.389462017E0,-1.379060149E0,-3.313575268E0,-8.660126686E0
6.394462050E0,-1.517923832E0,-3.220201254E0,-8.916306496E0
6.399462050E0,-1.726219416E0,-3.066972494E0,-8.952219009E0
6.404462050E0,-1.843535304E0,-2.966415882E0,-8.928277016E0
6.409462016E0,-2.126051188E0,-2.767697096E0,-8.782231331E0
6.414461982E0,-2.161964178E0,-2.537853718E0,-8.806173325E0
6.419461948E0,-1.857900500E0,-2.188300371E0,-9.009679794E0
6.424461948E0,-1.213860273E0,-1.788468719E0,-9.529222488E0
6.429461314E0,-2.274491549E0,-2.276885748E0,-8.722375870E0
6.434461347E0,-2.477998734E0,-2.681505919E0,-8.174103737E0
6.439461380E0,-2.169146776E0,-2.985569477E0,-8.617031097E0
6.444461380E0,-1.869871497E0,-3.213018656E0,-8.798990250E0
6.449461380E0,-1.599326730E0,-3.387795448E0,-8.549993515E0
6.454461346E0,-1.455674648E0,-3.378218651E0,-8.514080048E0
6.459461346E0,-1.185129881E0,-3.210624456E0,-8.571541786E0
6.464461346E0,-9.600749016E-1,-3.002328873E0,-8.717587471E0
6.469461379E0,-8.930372596E-1,-2.334346771E0,-8.758289337E0
6.474461412E0,-9.959878922E-1,-1.695094824E0,-8.631396294E0
6.479461412E0,-1.161187768E0,-1.199495077E0,-8.399158478E0
6.484461412E0,-1.242590666E0,-1.060631394E0,-8.207622528E0
6.489461412E0,-1.137245774E0,-1.345541358E0,-8.152556419E0
6.494461412E0,-1.027112484E0,-1.810016513E0,-8.128614426E0
6.499461412E0,-1.106121182E0,-2.365471363E0,-8.147768021E0
6.504461378E0,-1.154005170E0,-2.652775526E0,-8.272266388E0
6.509461378E0,-9.911994934E-1,-3.045424461E0,-8.612242699E0
6.514461378E0,-1.017535686E0,-3.162740469E0,-8.798990250E0
6.519461411E0,-1.007958889E0,-3.205836058E0,-8.980949402E0
6.524461411E0,-7.350199223E-1,-3.177105665E0,-9.129390717E0
6.529461411E0,-7.541735172E-1,-2.901772499E0,-9.352050781E0
6.534461377E0,-6.703764796E-1,-2.525882721E0,-9.565135002E0
6.539461343E0,5.027823523E-2,-2.173935175E0,-9.888352394E0
6.544461309E0,5.626373887E-1,-2.063801765E0,-9.976937294E0
6.549461309E0,1.221042871E0,-2.214636564E0,-9.840468407E0
6.554461342E0,1.604115129E0,-2.375048161E0,-9.761459351E0
6.559461375E0,1.977610588E0,-2.643198729E0,-9.548376083E0
6.564461408E0,1.946485996E0,-2.726995707E0,-9.443030357E0
6.569461408E0,1.932120800E0,-2.791639090E0,-9.445425034E0
6.574461408E0,2.001552582E0,-2.942473888E0,-9.464578629E0
6.579462041E0,1.915361404E0,-3.222595453E0,-9.275436401E0
6.584462041E0,1.553836942E0,-3.483563423E0,-8.930671692E0
6.589462041E0,8.140285611E-1,-3.500322819E0,-8.681674957E0
6.594462074E0,4.668693244E-1,-3.351882458E0,-8.952219009E0
6.599462107E0,2.561795712E-1,-3.217807055E0,-9.811738014E0
6.604462107E0,3.399766386E-1,-3.428496838E0,-1.022832870E1
6.609462073E0,5.578489900E-1,-4.180276394E0,-1.062337208E1
6.614462039E0,8.954314590E-1,-4.862623692E0,-1.092025280E1
6.619462005E0,1.182735682E0,-5.377676487E0,-1.112376022E1
6.624461971E0,1.565807939E0,-5.655403614E0,-1.123389339E1
6.629461304E0,1.723825216E0,-5.696105003E0,-1.103517532E1
6.634461337E0,1.723825216E0,-5.473444462E0,-1.067365074E1
6.639461370E0,1.661576033E0,-5.025728703E0,-1.001045704E1
6.644461403E0,1.314416766E0,-4.639962673E0,-9.517251015E0
6.649461403E0,1.015141487E0,-3.933673382E0,-8.856451035E0
6.654461403E0,1.074996591E0,-3.548206806E0,-8.521263123E0
6.659461369E0,6.200982332E-1,-3.131615877E0,-7.635408401E0
6.664461369E0,4.572925270E-1,-2.956839085E0,-7.264307022E0
6.669461369E0,2.873041928E-1,-2.820369720E0,-7.106289864E0
6.674461402E0,2.394201700E-3,-2.719813108E0,-7.182904243E0
6.679461402E0,-2.777273953E-1,-2.789244890E0,-7.343316078E0
6.684461402E0,-4.022258818E-1,-2.983175278E0,-7.463026047E0
6.689461402E0,-4.979939461E-1,-3.236960649E0,-7.498939037E0
6.694461402E0,-5.865794420E-1,-3.349488258E0,-7.472602844E0
6.699461402E0,-4.955997467E-1,-3.459621429E0,-7.496544838E0
6.704461368E0,-2.753331959E-1,-3.526659012E0,-7.539640427E0
6.709461368E0,1.316810995E-1,-3.581725836E0,-7.415142059E0
6.714461368E0,1.149216816E-1,-3.517082214E0,-7.146991253E0
6.719461401E0,5.027823523E-2,-3.428496838E0,-6.883629322E0
6.724461434E0,-1.508347094E-1,-3.244143248E0,-6.751947880E0
6.729461434E0,2.226607651E-1,-3.114856482E0,-6.550835133E0
6.734461400E0,2.968810201E-1,-3.076549292E0,-6.414365768E0
6.739461366E0,5.602431893E-1,-3.011905670E0,-6.232406139E0
6.744461366E0,6.177040339E-1,-3.059789658E0,-6.172551155E0
6.749461366E0,8.714894056E-1,-3.306392431E0,-6.361693382E0
6.754461399E0,7.900865674E-1,-3.416525841E0,-6.546046734E0
6.759461399E0,7.374141216E-1,-3.648763418E0,-6.866869926E0
6.764461399E0,3.256114423E-1,-3.785232782E0,-7.010521889E0
6.769461399E0,-1.364694983E-1,-4.048594952E0,-7.111078262E0
6.774461399E0,-5.985504389E-1,-4.185064793E0,-7.259518623E0
6.779462065E0,-9.600749016E-1,-4.335899353E0,-7.561188221E0
6.784462031E0,-1.149216771E0,-4.453215122E0,-7.738358974E0
6.789462031E0,-1.340752959E0,-4.661510944E0,-7.970596790E0
6.794462031E0,-1.467645645E0,-4.809951305E0,-8.092700958E0
6.799462064E0,-1.819593310E0,-5.123890877E0,-8.217199326E0
6.804462064E0,-2.018311977E0,-5.291484833E0,-8.341697693E0
6.809462064E0,-1.836352706E0,-5.657797813E0,-8.473379135E0
6.814462030E0,-1.824381709E0,-5.834969044E0,-8.545205116E0
6.819461996E0,-1.484405041E0,-6.038475990E0,-8.784625053E0
6.824461962E0,-9.552865028E-1,-6.289866924E0,-8.957007408E0
6.829461295E0,-2.346317619E-1,-6.610690117E0,-9.000102997E0
6.834461328E0,7.182604820E-2,-6.725611687E0,-8.949825287E0
6.839461361E0,5.626373887E-1,-6.953061104E0,-8.806173325E0
6.844461394E0,8.188169599E-1,-7.178115845E0,-8.631396294E0
6.849461427E0,1.177947283E0,-7.513304234E0,-8.219594002E0
6.854461427E0,1.350329757E0,-7.719205379E0,-7.896376610E0
6.859461393E0,1.367089152E0,-7.762300968E0,-7.683292389E0
6.864461359E0,1.259350061E0,-7.616254807E0,-7.623437405E0
6.869461359E0,1.118092179E0,-7.295432091E0,-7.611466408E0
6.874461359E0,8.954314590E-1,-7.063194275E0,-7.477391243E0
6.879461392E0,3.639186621E-1,-6.754342079E0,-7.288249016E0
6.884461392E0,5.746084079E-2,-6.591536522E0,-7.285854816E0
6.889461392E0,-4.333505034E-1,-6.287472725E0,-7.350498676E0
6.894461358E0,-6.823474765E-1,-6.198887348E0,-7.345710278E0
6.899461291E0,-1.007958889E0,-6.244377136E0,-7.407959461E0
6.904461257E0,-9.481038451E-1,-6.423942566E0,-7.654561996E0
6.909461257E0,-9.648633003E-1,-6.591536522E0,-7.889194012E0
6.914461290E0,-1.039083481E0,-6.881235123E0,-8.059182167E0
6.919461323E0,-1.242590666E0,-7.060800076E0,-8.099884033E0
6.924461356E0,-1.350329757E0,-7.269095421E0,-8.013691902E0
6.929461356E0,-1.510741234E0,-7.568370819E0,-7.984961987E0
6.934461356E0,-1.690306425E0,-7.685686588E0,-8.047211647E0
6.939461322E0,-1.884236693E0,-7.893982410E0,-7.975385189E0
6.944461322E0,-1.968033791E0,-8.085518837E0,-7.884405613E0
6.949461322E0,-2.173935175E0,-8.195652008E0,-7.803002834E0
6.954461355E0,-2.097320795E0,-8.296208382E0,-7.630620003E0
6.959461355E0,-2.056619167E0,-8.466196060E0,-7.439084053E0
6.964461355E0,-2.106897593E0,-8.571541786E0,-7.525275230E0
6.969461355E0,-2.030282974E0,-8.719982147E0,-7.623437405E0
6.974461355E0,-1.968033791E0,-8.837297440E0,-7.606678009E0
6.979462021E0,-1.987187386E0,-8.736741066E0,-7.865252018E0
6.984461987E0,-1.898601890E0,-8.760683060E0,-7.913136005E0
6.989461953E0,-1.637633920E0,-8.655338287E0,-7.929895401E0
6.994461953E0,-1.304839969E0,-8.559570312E0,-7.860463619E0
6.999461953E0,-7.924807668E-1,-8.403946877E0,-7.716811180E0
7.004461986E0,-3.495534360E-1,-8.322544098E0,-7.623437405E0
7.009461986E0,-3.591302410E-2,-8.327332497E0,-7.455843449E0
7.014461986E0,3.375824392E-1,-8.363245964E0,-7.192481041E0
7.019461952E0,7.254431248E-1,-8.391976357E0,-6.823774338E0
7.024461952E0,7.517793179E-1,-8.363245964E0,-6.771101475E0
7.029461285E0,6.464344859E-1,-8.391976357E0,-6.660968304E0
7.034461318E0,5.075707436E-1,-8.415918350E0,-6.589142323E0
7.039461318E0,4.908113480E-1,-8.360851288E0,-6.524498940E0
7.044460651E0,2.394201756E-1,-8.348880768E0,-6.550835133E0
7.049460017E0,-1.963245422E-1,-8.291419983E0,-6.512527943E0
7.054459117E0,-6.081272364E-1,-8.372822762E0,-6.550835133E0
7.059458217E0,-1.063025594E0,-8.478167534E0,-6.615478516E0
7.064457283E0,-1.288080573E0,-8.660126686E0,-6.632237911E0
7.069457283E0,-1.565807939E0,-8.693645477E0,-6.605901718E0
7.074456616E0,-1.735796213E0,-8.624214172E0,-6.644208908E0
7.079456649E0,-1.977610588E0,-8.585906982E0,-6.720823288E0
7.084456649E0,-2.104503393E0,-8.593089104E0,-6.761524677E0
7.089456649E0,-1.987187386E0,-8.691251755E0,-6.864475727E0
7.094456615E0,-1.654393315E0,-8.849268913E0,-6.957849503E0
7.099456581E0,-1.460463047E0,-8.873210907E0,-7.096713066E0
7.104456547E0,-1.374271750E0,-8.954613686E0,-7.187692642E0
7.109456547E0,-1.096544385E0,-9.150938034E0,-7.264307022E0
7.114456547E0,-9.696516991E-1,-9.416694641E0,-7.355287075E0
7.119455913E0,-8.379706144E-1,-9.505280495E0,-7.482179642E0
7.124455946E0,-7.422025204E-1,-9.543587685E0,-7.630620003E0
7.129455579E0,-6.440402865E-1,-9.794978142E0,-7.891588211E0
7.134455179E0,-5.793967843E-1,-9.998485565E0,-7.946654797E0
7.139454279E0,-6.200982332E-1,-1.036958694E1,-7.984961987E0
7.144453579E0,-6.919242740E-1,-1.070956326E1,-8.085518837E0
7.149452912E0,-8.547300100E-1,-1.106869411E1,-8.078335762E0
7.154452912E0,-9.217676520E-1,-1.137275696E1,-8.190863609E0
7.159452812E0,-1.084573388E0,-1.159541798E1,-8.265083313E0
7.164452745E0,-1.091755986E0,-1.173188782E1,-8.315361977E0
7.169452745E0,-1.288080573E0,-1.182286739E1,-8.403946877E0
7.174452711E0,-1.395819545E0,-1.175104141E1,-8.339303970E0
7.179453344E0,-1.525106430E0,-1.143979454E1,-8.063970566E0
7.184453310E0,-1.556231141E0,-1.119319248E1,-7.762300968E0
7.189453310E0,-1.604115129E0,-1.081011963E1,-7.118260860E0
7.194454010E0,-1.496376038E0,-1.051802731E1,-6.579565525E0
7.199454710E0,-1.323993564E0,-1.030015469E1,-6.067206383E0
7.204455643E0,-1.199495077E0,-1.010383034E1,-5.698499203E0
7.209456543E0,-1.082179189E0,-9.840468407E0,-5.368099689E0
7.214457443E0,-1.096544385E0,-9.668086052E0,-5.265148640E0
7.219457409E0,-1.113303781E0,-9.330503464E0,-5.200505257E0
7.224458042E0,-1.108515382E0,-9.131784439E0,-5.171774864E0
7.229457375E0,-1.185129881E0,-8.880393028E0,-5.123890877E0
7.234457408E0,-1.264138460E0,-8.789413452E0,-5.123890877E0
7.239457441E0,-1.304839969E0,-8.643367767E0,-5.114314079E0
7.244457441E0,-1.268926859E0,-8.593089104E0,-5.140650272E0
7.249457441E0,-1.165976286E0,-8.492532730E0,-5.143044472E0
7.254457441E0,-9.313444495E-1,-8.382399559E0,-5.109525681E0
7.259457441E0,-6.847416759E-1,-8.243535995E0,-4.980238914E0
7.264457441E0,-6.105214357E-1,-8.154950142E0,-4.838681698E0
7.269458074E0,-4.429273009E-1,-7.975385189E0,-4.611232281E0
7.274458074E0,-3.854664862E-1,-7.848492622E0,-4.462791920E0
7.279458474E0,-2.825157940E-1,-7.618649006E0,-4.340687752E0
7.284458907E0,-2.609679997E-1,-7.446266651E0,-4.244919777E0
7.289459807E0,-2.394201756E-1,-7.156568050E0,-4.168305397E0
7.294460473E0,-3.160346150E-1,-6.943484306E0,-4.079719543E0
7.299461106E0,-2.920926213E-1,-6.787860870E0,-4.079719543E0
7.304461072E0,-2.609679997E-1,-6.689698696E0,-4.223371983E0
7.309461172E0,-3.232172430E-1,-6.785466671E0,-4.556165695E0
7.314461238E0,-3.016694188E-1,-6.888417721E0,-4.843470097E0
7.319461271E0,-2.968810201E-1,-7.101501465E0,-5.267542839E0
7.324461304E0,-2.322375625E-1,-7.247547626E0,-5.581183434E0
7.329461337E0,-3.112462163E-2,-7.415142059E0,-6.139032364E0
7.334461337E0,6.224924326E-2,-7.592312813E0,-6.483797550E0
7.339461337E0,1.364694983E-1,-7.769483566E0,-6.833351135E0
7.344461303E0,2.873041928E-1,-7.896376610E0,-7.120655060E0
7.349461269E0,4.572925270E-1,-8.028057098E0,-7.357681274E0
7.354461269E0,5.099649429E-1,-8.114249229E0,-7.474997044E0
7.359461302E0,6.775590777E-1,-8.133402824E0,-7.546823025E0
7.364461335E0,6.919242740E-1,-8.171710014E0,-7.525275230E0
7.369461335E0,7.134721279E-1,-8.150161743E0,-7.443872452E0
7.374461335E0,5.985504389E-1,-8.131008148E0,-7.350498676E0
7.379461968E0,8.379705995E-2,-8.195652008E0,-7.163750648E0
7.384461934E0,-2.011129409E-1,-8.193257332E0,-7.240365028E0
7.389461900E0,-1.340752989E-1,-8.181286812E0,-7.556399822E0
7.394461900E0,0.000000000E0,-8.305785179E0,-8.042423248E0
7.399461933E0,3.016694188E-1,-8.561964989E0,-8.540416718E0
7.404461966E0,5.506663918E-1,-8.906729698E0,-9.143755913E0
7.409461999E0,6.105214357E-1,-9.390357971E0,-9.636960983E0
7.414461999E0,5.027823448E-1,-9.718363762E0,-9.763854027E0
7.419461999E0,4.908113480E-1,-1.028339577E1,-1.006312943E1
7.424461965E0,5.506663918E-1,-1.059943008E1,-1.014213753E1
7.429461298E0,6.129156351E-1,-1.087715721E1,-1.023311710E1
7.434461298E0,6.416460276E-1,-1.092982960E1,-1.001524544E1
7.439461331E0,8.307880163E-1,-1.089391708E1,-9.677662849E0
7.444461331E0,8.571242094E-1,-1.075026512E1,-9.081506729E0
7.449461331E0,5.698199868E-1,-1.051084518E1,-8.001721382E0
7.454461331E0,3.615244627E-1,-1.032649136E1,-7.350498676E0
7.459461331E0,9.576806799E-3,-9.890746117E0,-6.232406139E0
7.464461331E0,-1.173158810E-1,-9.613018990E0,-5.557241440E0
7.469461297E0,-2.561795712E-1,-9.086295128E0,-4.750096321E0
7.474461263E0,-2.370259613E-1,-8.724770546E0,-4.544194698E0
7.479461263E0,-2.657563984E-1,-8.087912560E0,-4.479551315E0
7.484461296E0,-5.099649429E-1,-7.633014202E0,-4.541800499E0
7.489461329E0,-7.924807668E-1,-7.135020256E0,-4.690241337E0
7.494461329E0,-1.096544385E0,-6.579565525E0,-4.965873718E0
7.499461329E0,-1.328781962E0,-5.866093636E0,-5.581183434E0
7.504461295E0,-1.319205165E0,-5.485415459E0,-6.055235386E0
7.509461261E0,-1.254561663E0,-5.073612690E0,-6.802226067E0
7.514461227E0,-1.144428372E0,-4.953902721E0,-7.185298443E0
7.519461227E0,-8.954314590E-1,-4.994604111E0,-7.680898190E0
7.524461260E0,-5.770025849E-1,-5.102343082E0,-7.968202591E0
7.529461293E0,-1.604115069E-1,-5.408801079E0,-8.119037628E0
7.534461326E0,2.011129409E-1,-5.739200592E0,-8.231564522E0
7.539461326E0,3.447650373E-1,-6.079177380E0,-8.224382401E0
7.544461326E0,5.841852427E-1,-6.354510784E0,-8.202834129E0
7.549461292E0,8.068459630E-1,-6.682516098E0,-8.025663376E0
7.554461292E0,8.068459630E-1,-6.797437668E0,-7.896376610E0
7.559461292E0,8.738836050E-1,-6.828562737E0,-7.642591000E0
7.564461325E0,9.720458984E-1,-6.809409142E0,-7.506121635E0
7.569460458E0,7.469909191E-1,-6.469432354E0,-7.024887085E0
7.574459591E0,7.493851185E-1,-6.402394772E0,-7.010521889E0
7.579459324E0,7.661445141E-1,-6.318597794E0,-6.984185696E0
7.584459290E0,8.283938169E-1,-6.201281548E0,-6.941090107E0
7.589459256E0,8.738836050E-1,-5.964255810E0,-6.921936512E0
7.594459256E0,8.379706144E-1,-5.870882034E0,-6.967426300E0
7.599459256E0,9.265560508E-1,-5.887641430E0,-7.271489620E0
7.604458622E0,9.289502501E-1,-5.923554420E0,-7.506121635E0
7.609458655E0,1.003170490E0,-6.021716595E0,-7.953837395E0
7.614458021E0,1.041477680E0,-6.112696171E0,-8.291419983E0
7.619457354E0,8.667010069E-1,-6.268319130E0,-8.784625053E0
7.624457354E0,9.600749016E-1,-6.361693382E0,-9.301773071E0
7.629456654E0,8.858546019E-1,-6.586748123E0,-9.538799286E0
7.634456654E0,7.326257229E-1,-6.857293129E0,-9.648932457E0
7.639456654E0,5.722141862E-1,-7.032069683E0,-9.799766541E0
7.644456687E0,7.972691655E-1,-7.240365028E0,-9.924264908E0
7.649456687E0,1.089361787E0,-7.388805866E0,-9.972148895E0
7.654456187E0,1.173158884E0,-7.479785442E0,-9.931447983E0
7.659456187E0,1.242590666E0,-7.661744595E0,-9.708786964E0
7.664456187E0,1.268926859E0,-7.652167797E0,-9.598653793E0
7.669456187E0,1.161187768E0,-7.549217224E0,-9.299378395E0
7.674456153E0,1.125274777E0,-7.403171062E0,-9.016862869E0
7.679456153E0,1.240196466E0,-7.209240437E0,-8.834903717E0
7.684456153E0,1.319205165E0,-7.084742069E0,-8.636184692E0
7.689456186E0,9.289502501E-1,-6.840533733E0,-8.320150375E0
7.694455319E0,9.289502501E-1,-6.807014942E0,-8.320150375E0
7.699455319E0,9.026140571E-1,-6.747159481E0,-8.303390503E0
7.704455285E0,8.571242094E-1,-6.639420509E0,-8.322544098E0
7.709455251E0,5.315127969E-1,-6.419154167E0,-8.356062889E0
7.714455217E0,1.987187415E-1,-6.309020519E0,-8.358457565E0
7.719456083E0,2.633621916E-2,-6.122272968E0,-8.461407661E0
7.724456949E0,1.077390760E-1,-6.050446987E0,-8.401553154E0
7.729457882E0,1.915361285E-1,-6.016928196E0,-8.408735275E0
7.734457915E0,2.346317619E-1,-6.069600582E0,-8.346486092E0
7.739457948E0,4.070143029E-2,-5.942708015E0,-8.107066154E0
7.744457948E0,3.112462163E-2,-5.815814972E0,-8.025663376E0
7.749457948E0,8.858546615E-2,-5.650615215E0,-7.795820236E0
7.754458581E0,7.900865376E-2,-5.559635639E0,-7.613860607E0
7.759458581E0,-1.029506698E-1,-5.341763496E0,-7.410353661E0
7.764459247E0,-9.097966552E-2,-5.128679276E0,-7.422324657E0
7.769459947E0,1.197100803E-2,-4.925172329E0,-7.644985199E0
7.774459947E0,2.681505978E-1,-4.778826714E0,-8.047211647E0
7.779460613E0,5.889736414E-1,-4.711789131E0,-8.564358711E0
7.784460579E0,8.667010069E-1,-4.762067318E0,-8.942642212E0
7.789460545E0,9.552865028E-1,-4.738125324E0,-9.186851501E0
7.794460511E0,1.048660398E0,-4.800374508E0,-9.110237122E0
7.799460511E0,1.369483352E0,-4.941931725E0,-8.705616951E0
7.804461044E0,1.405396342E0,-5.059247494E0,-8.269871712E0
7.809461077E0,1.043871999E0,-5.296273232E0,-7.637802601E0
7.814461110E0,7.302315235E-1,-5.415983677E0,-7.561188221E0
7.819461110E0,3.878606856E-1,-5.509357452E0,-7.735964775E0
7.824461110E0,8.858546615E-2,-5.576395035E0,-8.150161743E0
7.829460410E0,1.436521020E-2,-5.528511047E0,-8.564358711E0
7.834460010E0,-5.985504389E-2,-5.322609425E0,-8.626607895E0
7.839460010E0,-3.902548850E-1,-4.884171486E0,-8.140584946E0
7.844460910E0,-5.913678408E-1,-4.450820923E0,-7.886799812E0
7.849460943E0,-7.924807668E-1,-3.837905407E0,-7.633014202E0
7.854460943E0,-7.972691655E-1,-3.598485231E0,-7.623437405E0
7.859460943E0,-7.541735172E-1,-3.371036053E0,-7.652167797E0
7.864460943E0,-6.344634295E-1,-3.347094059E0,-7.556399822E0
7.869460943E0,-6.248866320E-1,-3.457227230E0,-7.374440670E0
7.874460943E0,-7.015010715E-1,-3.572149038E0,-7.211634636E0
7.879460909E0,-6.177040339E-1,-3.643975019E0,-7.084742069E0
7.884460909E0,-6.153098345E-1,-3.500322819E0,-7.130231857E0
7.889460909E0,-7.134721279E-1,-3.244143248E0,-7.254730225E0
7.894460942E0,-6.751648784E-1,-3.055001259E0,-7.388805866E0
7.899460942E0,-5.267243981E-1,-2.810792685E0,-7.587524414E0
7.904460942E0,-4.788403511E-1,-2.688688517E0,-7.623437405E0
7.909460908E0,-2.178723514E-1,-2.463633537E0,-7.656956196E0
7.914460874E0,5.506663769E-2,-2.226607561E0,-7.601889610E0
7.919460840E0,1.963245422E-1,-2.051830769E0,-7.554005623E0
7.924460840E0,4.165911078E-1,-1.968033791E0,-7.709628582E0
7.929460873E0,6.224924326E-1,-2.018311977E0,-7.853281021E0
7.934460906E0,5.650315881E-1,-2.066195965E0,-7.803002834E0
7.939460939E0,7.996633649E-1,-2.094926596E0,-7.733570576E0
7.944460939E0,9.097966552E-1,-2.008735180E0,-7.673715591E0
7.949460939E0,8.499416113E-1,-1.771709204E0,-7.664138794E0
7.954460905E0,6.200982332E-1,-1.628057122E0,-7.764695168E0
7.959460905E0,3.567360640E-1,-1.357512355E0,-8.092700958E0
7.964460905E0,4.548983276E-2,-1.297657371E0,-8.245929718E0
7.969460938E0,9.816227108E-2,-1.410184860E0,-8.324938774E0
7.974460971E0,3.615244627E-1,-1.721431017E0,-8.341697693E0
7.979461637E0,4.644751251E-1,-2.106897593E0,-8.334515572E0
7.984462003E0,5.339069963E-1,-2.229001760E0,-8.394370079E0
7.989461969E0,4.764461517E-1,-2.310404539E0,-8.468590736E0
7.994461935E0,4.644751251E-1,-2.430114746E0,-8.502109528E0
7.999461901E0,4.860229492E-1,-2.636016130E0,-8.650549889E0
8.004461901E0,4.094084799E-1,-2.738966703E0,-8.681674957E0
8.009461934E0,4.405331016E-1,-2.772485495E0,-8.736741066E0
8.014461967E0,4.453215301E-1,-2.760514498E0,-8.866027832E0
8.019462000E0,5.123591423E-1,-2.753331900E0,-9.045593262E0
8.024462000E0,5.267243981E-1,-2.743755102E0,-9.162909508E0
8.029461333E0,5.817909837E-1,-2.789244890E0,-9.095871925E0
8.034461299E0,7.062895298E-1,-2.846705914E0,-8.923488617E0
8.039461299E0,8.690952063E-1,-3.016694069E0,-8.506897926E0
8.044461299E0,9.385270476E-1,-3.074155092E0,-8.255506516E0
8.049460665E0,8.499416113E-1,-3.040636063E0,-7.934683800E0
8.054459765E0,7.398083210E-1,-2.992752075E0,-7.855675220E0
8.059459098E0,4.716577232E-1,-2.858676910E0,-7.721599579E0
8.064458198E0,1.197100878E-1,-2.700659513E0,-7.577947617E0
8.069457298E0,2.394201607E-2,-2.516305923E0,-7.563582420E0
8.074456398E0,1.915361360E-2,-2.410961151E0,-7.609072208E0
8.079456364E0,1.819593310E-1,-2.391807556E0,-7.731176376E0
8.084455464E0,3.160346150E-1,-2.415749550E0,-7.769483566E0
8.089455397E0,5.841852427E-1,-2.468421936E0,-7.769483566E0
8.094454763E0,7.254431248E-1,-2.537853718E0,-7.783848763E0
8.099454396E0,9.385270476E-1,-2.700659513E0,-7.901165009E0
8.104454396E0,1.177947283E0,-2.908955097E0,-8.083124161E0
8.109453696E0,1.398213744E0,-3.126827478E0,-8.296208382E0
8.114452996E0,1.520318031E0,-3.251325846E0,-8.360851288E0
8.119452596E0,1.879448295E0,-3.380612850E0,-8.279448509E0
8.124452196E0,2.075772762E0,-3.564966440E0,-8.183680534E0
8.129452229E0,2.260126352E0,-3.768473387E0,-8.028057098E0
8.134452295E0,2.238578558E0,-3.890577793E0,-7.910741806E0
8.139451895E0,2.104503393E0,-4.019864559E0,-7.853281021E0
8.144451895E0,2.020706177E0,-4.050989151E0,-7.913136005E0
8.149451895E0,1.972822189E0,-4.139574528E0,-8.133402824E0
8.154451895E0,1.922544003E0,-4.232948780E0,-8.277054787E0
8.159451861E0,1.855506301E0,-4.273650169E0,-8.339303970E0
8.164451861E0,1.776497602E0,-4.352658749E0,-8.348880768E0
8.169451861E0,1.537077546E0,-4.417302132E0,-8.293813705E0
8.174451894E0,1.347935557E0,-4.455609322E0,-8.284236908E0
8.179451894E0,1.149216771E0,-4.575319290E0,-8.317755699E0
8.184451894E0,1.058237195E0,-4.659116745E0,-8.317755699E0
8.189451194E0,8.331822157E-1,-4.771644115E0,-8.399158478E0
8.194451194E0,7.733271718E-1,-4.838681698E0,-8.418312073E0
8.199451860E0,7.134721279E-1,-4.908412933E0,-8.391976357E0
8.204452793E0,6.655880809E-1,-5.032911301E0,-8.332120895E0
8.209453459E0,6.823474765E-1,-5.207687855E0,-8.291419983E0
8.214454359E0,6.607996821E-1,-5.301061630E0,-8.344092369E0
8.219455259E0,6.607996821E-1,-5.418377876E0,-8.382399559E0
8.224456159E0,6.368576288E-1,-5.478232861E0,-8.427888870E0
8.229455492E0,5.817909837E-1,-5.478232861E0,-8.631396294E0
8.234457392E0,5.770025849E-1,-5.466261864E0,-8.724770546E0
8.239457425E0,4.884171486E-1,-5.499780655E0,-8.849268913E0
8.244458091E0,3.375824392E-1,-5.569212437E0,-8.866027832E0
8.249458491E0,2.585737705E-1,-5.684134007E0,-8.868422508E0
8.254458524E0,2.513911724E-1,-5.825392246E0,-8.827720642E0
8.259459190E0,3.088520169E-1,-5.964255810E0,-8.748712540E0
8.264459856E0,3.567360640E-1,-6.141426563E0,-8.631396294E0
8.269460222E0,4.548983276E-1,-6.347328186E0,-8.593089104E0
8.274460588E0,4.261679053E-1,-6.476614952E0,-8.660126686E0
8.279460554E0,4.189853072E-1,-6.644208908E0,-8.775048256E0
8.284460487E0,4.118026793E-1,-6.790255070E0,-8.765471458E0
8.289460920E0,3.615244627E-1,-6.929119110E0,-8.559570312E0
8.294460953E0,3.687070608E-1,-6.965032101E0,-8.289025307E0
8.299460986E0,4.285621047E-1,-6.950666904E0,-7.992144585E0
8.304460986E0,5.147533417E-1,-6.840533733E0,-7.769483566E0
8.309460986E0,5.985504389E-1,-6.670545101E0,-7.558794022E0
8.314460952E0,7.852981687E-1,-6.342539787E0,-7.527669430E0
8.319460952E0,8.379706144E-1,-6.007351398E0,-7.498939037E0
8.324460952E0,5.698199868E-1,-5.777507782E0,-7.474997044E0
8.329461652E0,-4.070143029E-2,-5.662586212E0,-7.352892876E0
8.334461652E0,-5.410895944E-1,-5.667374611E0,-7.230788231E0
8.339462318E0,-2.183511972E0,-5.822998047E0,-6.921936512E0
8.344462284E0,-3.576937437E0,-6.146214962E0,-6.933907509E0
8.349462250E0,-4.604049683E0,-6.608295918E0,-7.245153427E0
8.354462216E0,-4.850652695E0,-7.168539047E0,-7.723993778E0
8.359462216E0,-3.876212597E0,-7.685686588E0,-8.217199326E0
8.364462216E0,-2.997540474E0,-8.059182167E0,-8.526051521E0
8.369462249E0,-1.972822189E0,-8.554781914E0,-9.244312286E0
8.374462282E0,-1.654393315E0,-8.923488617E0,-9.627384186E0
8.379462982E0,-1.302445769E0,-9.802161217E0,-9.871592522E0
8.384461948E0,-1.051054597E0,-1.037916374E1,-9.797372818E0
8.389461948E0,-5.530605912E-1,-1.111178970E1,-9.375992775E0
8.394461914E0,-2.346317619E-1,-1.137275696E1,-8.784625053E0
8.399461880E0,-9.337386489E-2,-1.124825859E1,-8.202834129E0
8.404461446E0,1.340752989E-1,-1.081251431E1,-7.757512569E0
8.409461446E0,5.386953950E-1,-1.006073475E1,-7.601889610E0
8.414461479E0,6.584054828E-1,-9.586683273E0,-7.618649006E0
8.419461512E0,5.075707436E-1,-8.782231331E0,-7.690474987E0
8.424461545E0,3.687070608E-1,-8.478167534E0,-7.606678009E0
8.429460878E0,1.628057212E-1,-8.217199326E0,-7.187692642E0
8.434460878E0,1.340752989E-1,-8.157344818E0,-6.883629322E0
8.439460844E0,1.843535304E-1,-8.238747597E0,-6.273107529E0
8.444460844E0,2.154781520E-1,-8.308178902E0,-5.571606636E0
8.449460844E0,-1.125274822E-1,-8.279448509E0,-5.001786709E0
8.454460877E0,-6.320692301E-1,-7.846098423E0,-5.016151905E0
8.459460877E0,-5.386953950E-1,-7.867646217E0,-4.881777287E0
8.464460877E0,-2.657563984E-1,-7.963414192E0,-4.711789131E0
8.469460843E0,-5.410895944E-1,-8.023268700E0,-4.752490520E0
8.474460809E0,-1.086967587E0,-8.073547363E0,-4.766855717E0
8.479460775E0,-2.003946781E0,-7.939472198E0,-5.020940304E0
8.484460775E0,-2.410961151E0,-7.807791233E0,-5.387253284E0
8.489460775E0,-2.394201756E0,-7.774271965E0,-5.739200592E0
8.494460808E0,-2.964021683E0,-7.738358974E0,-5.732017994E0
8.499460841E0,-3.059789658E0,-7.659350395E0,-5.813420773E0
8.504460874E0,-3.179499865E0,-7.664138794E0,-5.973832607E0
8.509460874E0,-3.035847664E0,-7.723993778E0,-6.289866924E0
8.514460874E0,-2.875436306E0,-7.929895401E0,-6.490980148E0
8.519460840E0,-2.568978310E0,-8.401553154E0,-6.869264126E0
8.524460840E0,-2.219424963E0,-8.887576103E0,-7.084742069E0
8.529460840E0,-1.733402014E0,-9.708786964E0,-7.393594265E0
8.534460873E0,-1.474828243E0,-1.018762779E1,-7.530063629E0
8.539460873E0,-1.206677675E0,-1.039592266E1,-7.604283810E0
8.544460873E0,-1.101332784E0,-1.040310574E1,-7.695263386E0
8.549460873E0,-9.744400978E-1,-1.030254936E1,-7.779060364E0
8.554461273E0,-7.278373241E-1,-1.015650272E1,-7.882011414E0
8.559461273E0,-4.285621047E-1,-9.941024780E0,-7.999327183E0
8.564461239E0,-3.088520169E-1,-9.828496933E0,-8.006509781E0
8.569461239E0,-3.950432837E-1,-9.646537781E0,-7.972990990E0
8.574461239E0,-6.584054828E-1,-9.584288597E0,-7.982567787E0
8.579461939E0,-1.254561663E0,-9.591471672E0,-8.006509781E0
8.584461939E0,-1.448492050E0,-9.423876762E0,-7.934683800E0
8.589461939E0,-1.534683347E0,-9.210793495E0,-7.877223015E0
8.594461905E0,-1.458068848E0,-8.973767281E0,-7.589918613E0
8.599461871E0,-1.343147159E0,-8.672098160E0,-7.149385452E0
8.604461837E0,-1.312022567E0,-8.509291649E0,-6.847716331E0
8.609461837E0,-1.527500629E0,-8.324938774E0,-6.462249756E0
8.614461837E0,-1.750161409E0,-8.169315338E0,-6.263530731E0
8.619455224E0,-2.094926596E0,-7.977779388E0,-5.885247231E0
8.624455257E0,-2.250549555E0,-7.877223015E0,-5.621884823E0
8.629454623E0,-2.372653961E0,-7.743147373E0,-5.066430092E0
8.634454623E0,-2.288856745E0,-7.688080788E0,-4.683058739E0
8.639454623E0,-2.224213362E0,-7.625831604E0,-4.357447147E0
8.644454589E0,-2.188300371E0,-7.527669430E0,-4.149151325E0
8.649454589E0,-2.140416384E0,-7.407959461E0,-4.103661537E0
8.654454589E0,-2.082955360E0,-7.376834869E0,-4.101267338E0
8.659454622E0,-1.968033791E0,-7.127837658E0,-4.084507942E0
8.664454622E0,-1.910573006E0,-6.953061104E0,-4.108449936E0
8.669454622E0,-1.810016513E0,-6.680121899E0,-4.158728123E0
8.674454588E0,-1.647210717E0,-6.548440933E0,-4.118026733E0
8.679454554E0,-1.659181833E0,-6.419154167E0,-3.995922565E0
8.684453854E0,-1.580173135E0,-6.404788971E0,-3.811569214E0
8.689453187E0,-1.199495077E0,-6.352116585E0,-3.828328609E0
8.694453220E0,-6.416460276E-1,-6.285078526E0,-4.137180328E0
8.699453253E0,1.532289088E-1,-6.186916351E0,-4.946720123E0
8.704452619E0,5.147533417E-1,-6.213252544E0,-5.578789234E0
8.709452619E0,9.911994934E-1,-6.392817974E0,-6.634632111E0
8.714452619E0,1.079784989E0,-6.660968304E0,-7.343316078E0
8.719452585E0,1.098938584E0,-7.199663639E0,-8.679280281E0
8.724452551E0,1.103726983E0,-7.611466408E0,-9.804554939E0
8.729452551E0,9.959878922E-1,-8.016086578E0,-1.081969643E1
8.734452584E0,9.050082564E-1,-8.406341553E0,-1.156908226E1
8.739452617E0,7.302315235E-1,-8.777442932E0,-1.204552841E1
8.744452617E0,4.141969085E-1,-9.019257545E0,-1.233762074E1
8.749452617E0,2.609679997E-1,-9.043199539E0,-1.255070496E1
8.754452617E0,1.747767180E-1,-8.933065414E0,-1.260337734E1
8.759452617E0,1.197100878E-1,-8.655338287E0,-1.231128407E1
8.764452617E0,1.723825186E-1,-8.509291649E0,-1.194018269E1
8.769452583E0,2.346317619E-1,-8.262689590E0,-1.104235744E1
8.774452583E0,2.346317619E-1,-8.047211647E0,-1.016847420E1
8.779453249E0,1.843535304E-1,-7.862857819E0,-9.241917610E0
8.784453282E0,4.548983276E-2,-7.700051785E0,-8.289025307E0
8.789453282E0,-2.561795712E-1,-7.503727436E0,-7.443872452E0
8.794453282E0,-6.464344859E-1,-7.273883820E0,-6.730400085E0
8.799453248E0,-1.204283476E0,-6.988974094E0,-6.129455566E0
8.804453248E0,-1.534683347E0,-6.857293129E0,-5.947496414E0
8.809453248E0,-2.051830769E0,-6.701669693E0,-5.940313816E0
8.814453281E0,-2.267308950E0,-6.663362503E0,-6.069600582E0
8.819453281E0,-2.547430515E0,-6.651391506E0,-6.541258335E0
8.824453281E0,-2.679111719E0,-6.648997307E0,-7.003339291E0
8.829452614E0,-2.700659513E0,-6.656179905E0,-7.391200066E0
8.834453280E0,-2.506729126E0,-6.591536522E0,-7.702445984E0
8.839453946E0,-1.958456993E0,-6.488585949E0,-8.004115105E0
8.844453912E0,-1.434126854E0,-6.411971569E0,-8.166921616E0
8.849453878E0,-7.661445141E-1,-6.388029575E0,-8.262689590E0
8.854454544E0,-4.668693244E-1,-6.402394772E0,-8.233959198E0
8.859454577E0,2.130839527E-1,-6.359299183E0,-8.147768021E0
8.864454610E0,5.746083856E-1,-6.309020519E0,-7.999327183E0
8.869454610E0,9.648633003E-1,-6.249165535E0,-7.618649006E0
8.874454610E0,1.221042871E0,-6.196493149E0,-7.295432091E0
8.879454576E0,1.381454349E0,-6.196493149E0,-7.044040680E0
8.884454542E0,1.568202138E0,-6.253953934E0,-6.874052525E0
8.889454508E0,1.529894829E0,-6.263530731E0,-6.699275494E0
8.894454508E0,1.412579060E0,-6.213252544E0,-6.728005886E0
8.899454541E0,1.161187768E0,-5.892429829E0,-6.945878506E0
8.904454574E0,7.781155705E-1,-5.664980412E0,-7.079953671E0
8.909454607E0,2.825157940E-1,-5.164592266E0,-7.398382664E0
8.914454607E0,5.027823523E-2,-4.876988888E0,-7.721599579E0
8.919454607E0,-2.729389966E-1,-4.410119534E0,-7.953837395E0
8.924454573E0,-3.711012602E-1,-4.118026733E0,-8.226776123E0
8.929454573E0,-3.830722570E-1,-3.823540211E0,-8.451830864E0
8.934454573E0,-1.508347094E-1,-3.622427225E0,-8.751106262E0
8.939454606E0,4.548983276E-1,-3.612850428E0,-9.186851501E0
8.944454606E0,7.015010715E-1,-3.682282209E0,-9.428665161E0
8.949454606E0,9.409212470E-1,-3.964797974E0,-9.878775597E0
8.954454572E0,9.457096457E-1,-4.185064793E0,-1.015889740E1
8.959454538E0,1.142034173E0,-4.572925091E0,-1.053239250E1
8.964454504E0,1.235408068E0,-4.874594688E0,-1.056112289E1
8.969454504E0,1.244984865E0,-5.073612690E0,-1.039592266E1
8.974454504E0,1.405396342E0,-5.238812447E0,-1.027142429E1
8.979455204E0,1.429338455E0,-5.377676487E0,-1.019002151E1
8.984455237E0,1.221042871E0,-5.796661377E0,-1.015171432E1
8.989455270E0,1.005564690E0,-6.541258335E0,-1.009425354E1
8.994455270E0,9.528923035E-1,-7.075165272E0,-1.011580181E1
8.999455270E0,9.409212470E-1,-7.860463619E0,-9.993697166E0
9.004455236E0,8.882488012E-1,-8.277054787E0,-9.814131737E0
9.009455236E0,1.271321058E0,-8.657732964E0,-9.598653793E0
9.014455236E0,1.599326730E0,-8.803778648E0,-9.538799286E0
9.019455269E0,1.453280449E0,-8.779836655E0,-9.500492096E0
9.024455269E0,1.086967587E0,-8.638579369E0,-9.258677483E0
9.029454602E0,7.829039693E-1,-8.403946877E0,-9.119813919E0
9.034454602E0,-4.788403399E-3,-8.099884033E0,-9.124602318E0
9.039453935E0,-1.096544385E0,-7.637802601E0,-9.378387451E0
9.044453035E0,-1.558625340E0,-7.271489620E0,-9.459790230E0
9.049452335E0,-1.810016513E0,-6.546046734E0,-9.581894875E0
9.054451668E0,-1.877054095E0,-6.172551155E0,-9.545981407E0
9.059451668E0,-1.790862918E0,-5.717652798E0,-9.225158691E0
9.064451701E0,-1.561019540E0,-5.353734493E0,-8.985737801E0
9.069451034E0,-1.261744261E0,-5.054459095E0,-8.669703484E0
9.074450134E0,-8.307880163E-1,-4.793191910E0,-8.435071945E0
9.079449200E0,-4.812345505E-1,-4.551377296E0,-8.425495148E0
9.084448466E0,4.309562966E-2,-4.637568474E0,-8.289025307E0
9.089447532E0,2.178723514E-1,-4.484339714E0,-7.992144585E0
9.094447532E0,2.657563984E-1,-4.369418144E0,-7.704840183E0
9.099447532E0,3.591302633E-1,-3.993528366E0,-7.324162483E0
9.104446898E0,3.830722570E-1,-3.809175014E0,-7.249941826E0
9.109446931E0,4.501099288E-1,-3.538630009E0,-7.448660851E0
9.114447364E0,4.692635238E-1,-3.440467834E0,-7.554005623E0
9.119447364E0,2.681505978E-1,-3.253720045E0,-7.537246227E0
9.124446697E0,3.423708379E-1,-3.351882458E0,-7.549217224E0
9.129446663E0,3.064578176E-1,-3.502717018E0,-7.640196800E0
9.134446663E0,2.394201756E-1,-3.639186621E0,-7.716811180E0
9.139445996E0,1.077390760E-1,-3.787626982E0,-7.903559208E0
9.144446029E0,-7.182605099E-3,-3.754108191E0,-7.908347607E0
9.149445929E0,-2.585737705E-1,-3.519476414E0,-7.707234383E0
9.154445929E0,-3.184288144E-1,-3.287238836E0,-7.549217224E0
9.159445895E0,-5.339069963E-1,-2.743755102E0,-7.482179642E0
9.164445861E0,-5.434837937E-1,-2.418143749E0,-7.494150639E0
9.169445827E0,-4.932055473E-1,-2.276885748E0,-7.527669430E0
9.174445827E0,-4.189853072E-1,-2.217030764E0,-7.700051785E0
9.179446527E0,-2.657563984E-1,-2.142810583E0,-8.013691902E0
9.184446560E0,-1.388636976E-1,-2.142810583E0,-8.080730438E0
9.189447260E0,1.771709323E-1,-2.102109194E0,-7.728782177E0
9.194448160E0,3.327940404E-1,-2.061407566E0,-7.340921879E0
9.199448826E0,3.495534360E-1,-1.968033791E0,-6.723217487E0
9.204449459E0,2.130839527E-1,-1.872265697E0,-6.543652534E0
9.209448925E0,7.661445439E-2,-1.745373011E0,-6.665756702E0
9.214448291E0,-5.267243832E-2,-1.616086125E0,-7.003339291E0
9.219448991E0,-3.830722719E-2,-1.587355733E0,-7.252336025E0
9.224449924E0,-1.675941236E-2,-1.714248419E0,-7.491756439E0
9.229450824E0,5.506663769E-2,-2.059013367E0,-7.630620003E0
9.234451524E0,-1.436521020E-2,-2.300827742E0,-7.570765018E0
9.239452424E0,-3.854664862E-1,-2.518700123E0,-7.544428825E0
9.244452424E0,-5.937620401E-1,-2.506729126E0,-7.676109791E0
9.249452424E0,-9.385270476E-1,-2.276885748E0,-7.915530205E0
9.254453057E0,-8.834604025E-1,-1.994369984E0,-8.214805603E0
9.259453057E0,-6.655880809E-1,-1.642422318E0,-8.351274490E0
9.264452657E0,-2.729389966E-1,-1.340752959E0,-8.411129951E0
9.269452690E0,2.466027737E-1,-1.161187768E0,-8.348880768E0
9.274453356E0,5.961562395E-1,-1.223437071E0,-8.248324394E0
9.279453356E0,9.481038451E-1,-1.426944256E0,-7.968202591E0
9.284452656E0,9.026140571E-1,-1.510741234E0,-7.788637638E0
9.289453322E0,7.637503147E-1,-1.498770237E0,-7.817368031E0
9.294453322E0,6.248866320E-1,-1.503558636E0,-7.893982410E0
9.299453455E0,6.607996821E-1,-1.484405041E0,-8.281843185E0
9.304453455E0,8.236053586E-1,-1.529894829E0,-8.614637375E0
9.309453455E0,9.145850539E-1,-1.606509328E0,-8.705616951E0
9.314453455E0,9.504981041E-1,-1.647210717E0,-8.607454300E0
9.319452788E0,9.840168953E-1,-1.726219416E0,-8.490138054E0
9.324452788E0,9.504981041E-1,-1.900996208E0,-8.418312073E0
9.329452754E0,8.092401624E-1,-2.128445387E0,-8.423100471E0
9.334452754E0,6.751648784E-1,-2.245761156E0,-8.403946877E0
9.339452754E0,4.548983276E-1,-2.317587137E0,-8.286631584E0
9.344452787E0,4.309563041E-1,-2.324769735E0,-8.327332497E0
9.349452820E0,2.082955539E-1,-2.291250944E0,-8.289025307E0
9.354452820E0,1.891419291E-1,-2.178723574E0,-8.408735275E0
9.359453320E0,1.053448766E-1,-2.094926596E0,-8.499714851E0
9.364453920E0,2.035071403E-1,-1.946485996E0,-8.638579369E0
9.369453920E0,2.729389966E-1,-1.850717902E0,-8.619425774E0
9.374453920E0,3.327940404E-1,-1.877054095E0,-8.497321129E0
9.379453953E0,5.626373887E-1,-1.865083098E0,-8.265083313E0
9.384453953E0,5.410895944E-1,-1.891419291E0,-8.063970566E0
9.389453286E0,4.237737060E-1,-1.924938202E0,-7.850886822E0
9.394453286E0,3.974374831E-1,-1.932120800E0,-7.822156429E0
9.399453286E0,3.208230138E-1,-1.953668594E0,-7.826944828E0
9.404453286E0,3.351882398E-1,-1.994369984E0,-7.853281021E0
9.409453252E0,3.327940404E-1,-2.003946781E0,-7.803002834E0
9.414453252E0,2.226607651E-1,-2.035071373E0,-7.676109791E0
9.419453252E0,3.064578176E-1,-2.092532396E0,-7.465420246E0
9.424453285E0,4.094084799E-1,-2.161964178E0,-7.305008888E0
9.429453285E0,4.955997467E-1,-2.288856745E0,-7.130231857E0
9.434453951E0,5.506663918E-1,-2.360682964E0,-7.051223278E0
9.439453917E0,6.153098345E-1,-2.525882721E0,-7.149385452E0
9.444453917E0,7.278373241E-1,-2.645592928E0,-7.331345081E0
9.449453917E0,8.714894056E-1,-2.782062292E0,-7.513304234E0
9.454453950E0,1.048660398E0,-2.944868088E0,-7.702445984E0
9.459453950E0,1.146822572E0,-3.169923067E0,-7.814973831E0
9.464453950E0,1.161187768E0,-3.512293816E0,-7.800608635E0
9.469454616E0,1.058237195E0,-3.998316765E0,-7.882011414E0
9.474454616E0,1.036689281E0,-4.323928356E0,-8.016086578E0
9.479454616E0,1.027112484E0,-4.937143326E0,-8.171710014E0
9.484454582E0,9.074024558E-1,-5.353734493E0,-8.236352921E0
9.489454548E0,6.296750307E-1,-6.167762756E0,-8.382399559E0
9.494454548E0,4.046200812E-1,-6.816591740E0,-8.629002571E0
9.499454548E0,1.939303428E-1,-7.467814445E0,-8.885181427E0
9.504454581E0,7.661445439E-2,-7.987356186E0,-9.198822021E0
9.509454581E0,2.849099934E-1,-8.279448509E0,-9.605836868E0
9.514454581E0,4.165911078E-1,-8.473379135E0,-9.873987198E0
9.519454547E0,6.512228847E-1,-8.590695381E0,-9.936236382E0
9.524454513E0,7.685387731E-1,-8.597877502E0,-9.888352394E0
9.529454479E0,7.565677166E-1,-8.590695381E0,-9.677662849E0
9.534454479E0,7.182605267E-1,-8.511686325E0,-9.395146370E0
9.539455179E0,5.410895944E-1,-8.236352921E0,-8.751106262E0
9.544455212E0,4.812345505E-1,-7.874828815E0,-8.123826027E0
9.549455245E0,4.812345505E-1,-7.326556683E0,-7.570765018E0
9.554455245E0,4.620809257E-1,-6.692092896E0,-7.225999832E0
9.559455245E0,4.309563041E-1,-5.787084579E0,-7.027281284E0
9.564455211E0,4.644751251E-1,-5.248389244E0,-6.979397297E0
9.569455211E0,5.698199868E-1,-4.419696331E0,-6.960243702E0
9.574455211E0,6.655880809E-1,-3.926490784E0,-6.926724911E0
9.579455244E0,8.236053586E-1,-3.248931646E0,-6.902782917E0
9.584455244E0,9.481038451E-1,-2.913743496E0,-6.816591740E0
9.589454577E0,1.063025594E0,-2.470816135E0,-6.560411930E0
9.594454143E0,1.106121182E0,-2.169146776E0,-6.380846977E0
9.599454109E0,9.720458984E-1,-1.982398987E0,-6.328174591E0
9.604454075E0,9.433154464E-1,-1.850717902E0,-6.366481781E0
9.609454075E0,1.158793569E0,-1.934514999E0,-6.352116585E0
9.614454075E0,1.273715258E0,-2.059013367E0,-6.512527943E0
9.619454108E0,1.338358760E0,-2.310404539E0,-6.785466671E0
9.624454141E0,1.398213744E0,-2.588132143E0,-6.948272705E0
9.629454174E0,1.376665950E0,-3.117250681E0,-7.285854816E0
9.634454174E0,1.376665950E0,-3.543418407E0,-7.388805866E0
9.639454174E0,1.268926859E0,-4.096478939E0,-7.374440670E0
9.644454140E0,1.163581967E0,-4.618414879E0,-7.544428825E0
9.649454140E0,9.433154464E-1,-5.155015469E0,-7.807791233E0
9.654454140E0,6.919242740E-1,-5.729623795E0,-8.099884033E0
9.659454173E0,4.620809257E-1,-6.285078526E0,-8.511686325E0
9.664454173E0,4.644751251E-1,-6.562806129E0,-8.813355446E0
9.669454173E0,1.915361285E-1,-7.015310287E0,-9.352050781E0
9.674454173E0,1.364694983E-1,-7.285854816E0,-9.471760750E0
9.679454173E0,-1.915361360E-2,-7.759906769E0,-9.421483040E0
9.684454173E0,-5.386953950E-1,-8.320150375E0,-9.265859604E0
9.689454139E0,-9.193734527E-1,-8.767866135E0,-9.251494408E0
9.694454139E0,-1.127668977E0,-9.050381660E0,-9.313743591E0
9.699454139E0,-1.254561663E0,-9.191639900E0,-9.560346603E0
9.704454172E0,-8.738836050E-1,-9.610625267E0,-9.524434090E0
9.709454172E0,-5.386953950E-1,-9.950601578E0,-9.009679794E0
9.714454172E0,-2.513911724E-1,-1.007270622E1,-8.791808128E0
9.719454138E0,1.101332754E-1,-1.007270622E1,-8.825326920E0
9.724454104E0,3.423708379E-1,-1.003439903E1,-8.942642212E0
9.729454104E0,4.548983276E-1,-9.948206902E0,-9.220370293E0
9.734454137E0,4.644751251E-1,-9.845256805E0,-9.306561470E0
9.739454837E0,5.458779931E-1,-9.742305756E0,-9.229947090E0
9.744455237E0,5.219359994E-1,-9.426271439E0,-9.098265648E0
9.749455237E0,5.099649429E-1,-9.179668427E0,-8.858845711E0
9.754455237E0,5.482721925E-1,-8.897152901E0,-8.590695381E0
9.759455237E0,6.009446383E-1,-8.624214172E0,-8.370428085E0
9.764455237E0,5.219359994E-1,-8.459013939E0,-8.207622528E0
9.769455203E0,2.681505978E-1,-8.219594002E0,-7.901165009E0
9.774455203E0,2.442085743E-1,-8.193257332E0,-7.700051785E0
9.779455203E0,4.788403399E-3,-8.181286812E0,-7.290643215E0
9.784455236E0,-2.681505978E-1,-8.128614426E0,-6.943484306E0
9.789454569E0,-2.944868207E-1,-8.123826027E0,-6.536469936E0
9.794454569E0,-2.992752194E-1,-8.054393768E0,-6.110301971E0
9.799454535E0,-2.082955539E-1,-8.159738541E0,-5.700893402E0
9.804453835E0,-2.777273953E-1,-8.231564522E0,-5.619490623E0
9.809452901E0,-3.256114423E-1,-8.396764755E0,-5.542876244E0
9.814452001E0,-4.094084799E-1,-8.490138054E0,-5.612308025E0
9.819451367E0,-4.860229492E-1,-8.588300705E0,-5.743988991E0
9.824450733E0,-5.291185975E-1,-8.643367767E0,-5.851728439E0
9.829450099E0,-6.823474765E-1,-8.722375870E0,-6.028899193E0
9.834449399E0,-7.158663273E-1,-8.870816231E0,-6.234800339E0
9.839448732E0,-6.751648784E-1,-9.103054047E0,-6.447884560E0
9.844447798E0,-5.865794420E-1,-9.296984673E0,-6.627449512E0
9.849447098E0,-4.764461517E-1,-9.390357971E0,-6.771101475E0
9.854446198E0,-4.118026793E-1,-9.455001831E0,-6.852504730E0
9.859445331E0,-3.112462163E-1,-9.447818756E0,-6.921936512E0
9.864445364E0,-2.442085743E-1,-9.366415977E0,-6.909965515E0
9.869446564E0,-2.370259613E-1,-9.160514832E0,-6.888417721E0
9.874445897E0,-2.920926213E-1,-8.968978882E0,-6.818985939E0
9.879445630E0,-4.333505034E-1,-8.672098160E0,-6.646603107E0
9.884445596E0,-5.386953950E-1,-8.506897926E0,-6.474220753E0
9.889445562E0,-5.363011956E-1,-8.320150375E0,-6.320991993E0
9.894444895E0,-5.315127969E-1,-8.178892136E0,-6.265924931E0
9.899444928E0,-5.363011956E-1,-8.071153641E0,-6.222829342E0
9.904444961E0,-5.339069963E-1,-8.059182167E0,-6.249165535E0
9.909444094E0,-5.650315881E-1,-8.104672432E0,-6.342539787E0
9.914444094E0,-6.009446383E-1,-8.171710014E0,-6.414365768E0
9.919444094E0,-5.674257874E-1,-8.296208382E0,-6.529287338E0
9.924443860E0,-5.410895944E-1,-8.353669167E0,-6.572382927E0
9.929443860E0,-5.171475410E-1,-8.389581680E0,-6.581959724E0
9.934443860E0,-6.368576288E-1,-8.444648743E0,-6.567594528E0
9.939444560E0,-6.368576288E-1,-8.502109528E0,-6.603507519E0
9.944444560E0,-5.123591423E-1,-8.535628319E0,-6.716034889E0
9.949444560E0,-2.944868207E-1,-8.526051521E0,-6.933907509E0
9.954445226E0,-2.059013397E-1,-8.557176590E0,-7.017704487E0
9.959446126E0,-1.675941199E-1,-8.509291649E0,-7.180510044E0
9.964447026E0,-1.580173075E-1,-8.425495148E0,-7.283460617E0
9.969447659E0,-3.088520169E-1,-8.334515572E0,-7.472602844E0
9.974448292E0,-4.620809257E-1,-8.286631584E0,-7.656956196E0
9.979448958E0,-5.482721925E-1,-8.329727173E0,-7.850886822E0
9.984449691E0,-4.165911078E-1,-8.461407661E0,-8.162133217E0
9.989449724E0,-1.580173075E-1,-8.643367767E0,-8.375216484E0
9.994450624E0,1.197100878E-1,-8.928277016E0,-8.578723907E0
9.999451290E0,6.919242740E-1,-9.375992775E0,-8.866027832E0
1.000445216E1,9.792284966E-1,-9.720758438E0,-8.990526199E0
1.000945306E1,1.070208192E0,-1.036958694E1,-9.117419243E0
1.001445306E1,9.050082564E-1,-1.066646767E1,-9.186851501E0
1.001945189E1,3.734954596E-1,-1.084842682E1,-9.335291862E0
1.002445256E1,-3.112462163E-2,-1.094898319E1,-9.347262383E0
1.002945279E1,-4.022258818E-1,-1.098968506E1,-9.150938034E0
1.003445279E1,-6.775590777E-1,-1.092504120E1,-8.770259857E0
1.003945279E1,-1.039083481E0,-1.078378391E1,-8.078335762E0
1.004445345E1,-1.285686255E0,-1.062097836E1,-7.582736015E0
1.004945342E1,-1.596932530E0,-1.041268253E1,-6.775889874E0
1.005445342E1,-1.731007814E0,-1.029057789E1,-6.299443722E0
1.005945432E1,-2.140416384E0,-1.007270622E1,-5.308244228E0
1.006445435E1,-2.504334927E0,-1.007031155E1,-4.759673119E0
1.006945435E1,-2.212242365E0,-9.687239647E0,-4.000710964E0
1.007445455E1,-2.070984364E0,-9.519645691E0,-3.567360640E0
1.007945452E1,-1.781286120E0,-9.220370293E0,-3.198653460E0
1.008445448E1,-1.740584612E0,-8.868422508E0,-2.683900118E0
1.008945445E1,-1.678335428E0,-8.322544098E0,-2.173935175E0
1.009445445E1,-1.642422318E0,-8.013691902E0,-2.030282974E0
1.009945445E1,-1.620874524E0,-7.510910034E0,-2.039859772E0
1.010445448E1,-1.668758631E0,-7.209240437E0,-2.157175779E0
1.010945452E1,-1.654393315E0,-6.778284073E0,-2.365471363E0
1.011445455E1,-1.575384736E0,-6.548440933E0,-2.540247917E0
1.011945455E1,-1.338358760E0,-6.505345345E0,-2.825158119E0
1.012445455E1,-1.103726983E0,-6.577171326E0,-3.203441858E0
1.012945452E1,-8.451532125E-1,-6.648997307E0,-3.593696833E0
1.013445452E1,-5.243301988E-1,-6.672939301E0,-3.993528366E0
1.013945518E1,-7.661445439E-2,-6.598719120E0,-4.438849926E0
1.014445522E1,2.633621991E-1,-6.493374348E0,-4.709394932E0
1.014945522E1,6.703764796E-1,-6.320991993E0,-5.202899456E0
1.015445522E1,8.810662031E-1,-6.241982937E0,-5.485415459E0
1.015945518E1,1.321599364E0,-6.079177380E0,-5.930737019E0
1.016445515E1,1.663970232E0,-6.016928196E0,-6.215646744E0
1.016945511E1,1.948880196E0,-6.028899193E0,-6.378452778E0
