Time (s),Acceleration x (m/s^2),Acceleration y (m/s^2),Acceleration z (m/s^2)
4.000097035,9.207490828733487e+37,-1.990067009623076e+39,1.4163115478434334e+39
4.002097068,9.262925248795282e+37,-1.9838211029599277e+39,1.4003794471644282e+39
4.004096768,9.317878323375621e+37,-1.9775599193038178e+39,1.3844928606641667e+39
4.006096734,9.372351096290526e+37,-1.9712836416257198e+39,1.36865193681888e+39
4.0080967,9.426344615487594e+37,-1.964992452439863e+39,1.3528568217679886e+39
4.010096666,9.479859932783383e+37,-1.958686533806791e+39,1.3371076593224316e+39
4.012096632,9.532898103608228e+37,-1.9523660673364785e+39,1.3214045909733795e+39
4.014096598,9.585460186758811e+37,-1.9460312341914934e+39,1.3057477559013476e+39
4.016096564,9.63754724415873e+37,-1.939682215090201e+39,1.2901372909857314e+39
4.01809653,9.689160340627249e+37,-1.933319190310013e+39,1.2745733308147613e+39
4.02009653,9.740300543656337e+37,-1.9269423396906812e+39,1.2590560076958818e+39
4.022095596,9.79096892319603e+37,-1.920551842637617e+39,1.2435854516665483e+39
4.024095596,9.841166551448168e+37,-1.9141478781252446e+39,1.228161790505435e+39
4.026095596,9.89089450266857e+37,-1.9077306247004254e+39,1.2127851497440431e+39
4.028095596,9.940153852977631e+37,-1.9013002604859776e+39,1.1974556526787065e+39
4.030095596,9.988945680179275e+37,-1.8948569631843253e+39,1.1821734203829869e+39
4.032094929,1.003727106358827e+38,-1.8884009100813185e+39,1.1669385717204439e+39
4.034095762,1.008513108386584e+38,-1.8819322780502662e+39,1.1517512233577637e+39
4.036095762,1.01325268228635e+38,-1.875451243556218e+39,1.1366114897782328e+39
4.038095795,1.0179459363475071e+38,-1.868957982660508e+39,1.1215194832955341e+39
4.040096261,1.022592978949684e+38,-1.8624526710255585e+39,1.1064753140678466e+39
4.042096294,1.0271939185495844e+38,-1.8559354839199426e+39,1.091479090112228e+39
4.044096327,1.0317488636686223e+38,-1.8494065962237023e+39,1.0765309173192693e+39
4.04609636,1.0362579228813446e+38,-1.8428661824339205e+39,1.0616308994680157e+39
4.048096393,1.0407212048046163e+38,-1.8363144166705485e+39,1.0467791382411441e+39
4.050096426,1.0451388180875491e+38,-1.8297514726824676e+39,1.0319757332403928e+39
4.052096826,1.0495108714021533e+38,-1.8231775238537438e+39,1.0172207820022416e+39
4.054096792,1.0538374734346771e+38,-1.816592743210016e+39,1.0025143800138401e+39
4.056096758,1.0581187328776131e+38,-1.809997303424981e+39,9.878566207291727e+38
4.058097224,1.0623547584223491e+38,-1.8033913768269494e+39,9.732475955854417e+38
4.06009719,1.0665456587524421e+38,-1.796775135405458e+39,9.586873940196574e+38
4.062097156,1.0706915425374966e+38,-1.7901487508179075e+39,9.441761034854278e+38
4.064097422,1.074792518427632e+38,-1.78351239439621e+39,9.297138094699438e+38
4.066097422,1.0788486950485284e+38,-1.7768662371534378e+39,9.153005955111644e+38
4.068097422,1.0828601809970337e+38,-1.7702104497904826e+39,9.009365432151983e+38
4.070097455,1.086827084837313e+38,-1.763545202702728e+39,8.866217322738817e+38
4.072097488,1.0907495150975085e+38,-1.7568706659867505e+39,8.723562404825524e+38
4.074097521,1.09462758026688e+38,-1.7501870094470398e+39,8.581401437580137e+38
4.076097554,1.098461388793395e+38,-1.743494402602743e+39,8.439735161566858e+38
4.078097587,1.1022510490817402e+38,-1.7367930146944322e+39,8.298564298929427e+38
4.08009762,1.1059966694917222e+38,-1.7300830146908934e+39,8.157889553576373e+38
4.082098053,1.1096983583370286e+38,-1.723364571295926e+39,8.017711611368272e+38
4.084098053,1.1133562238843183e+38,-1.716637852955146e+39,7.878031140306998e+38
4.086098053,1.1169703743526187e+38,-1.7099030278627787e+39,7.738848790726955e+38
4.088098053,1.120540917913014e+38,-1.7031602639683983e+39,7.600165195488151e+38
4.090098053,1.124067962688606e+38,-1.6964097289836e+39,7.46198097017096e+38
4.092098719,1.127551616754737e+38,-1.689651590388569e+39,7.324296713272435e+38
4.094097885,1.1309919881394689e+38,-1.682886015438514e+39,7.187113006404141e+38
4.096097885,1.1343891848243236e+38,-1.6761131711699222e+39,7.050430414491457e+38
4.098097851,1.137743314745275e+38,-1.6693332244066022e+39,6.914249485974302e+38
4.100097784,1.1410544857939958e+38,-1.662546341765486e+39,6.7785707530092446e+38
4.10209775,1.1443228058193524e+38,-1.6557526896621834e+39,6.643394731672959e+38
4.104097716,1.1475483826291346e+38,-1.6489524343162792e+39,6.508721922167056e+38
4.106097682,1.1507313239920101e+38,-1.642145741756365e+39,6.374552809024211e+38
4.108097648,1.1538717376396822e+38,-1.6353327778248044e+39,6.240887861315482e+38
4.110097614,1.1569697312692364e+38,-1.6285137081822523e+39,6.107727532858728e+38
4.11209758,1.1600254125456568e+38,-1.6216886983119465e+39,5.975072262428105e+38
4.11409758,1.1630388891044932e+38,-1.6148579135237866e+39,5.842922473964655e+38
4.116097613,1.1660102685546718e+38,-1.6080215189581953e+39,5.711278576788004e+38
4.118097146,1.1689396584814376e+38,-1.6011796795897548e+39,5.580140965809197e+38
4.120097179,1.171827166449411e+38,-1.594332560230621e+39,5.449510021744677e+38
4.122097212,1.1746729000057467e+38,-1.5874803255337196e+39,5.31938611133146e+38
4.124097245,1.1774769666833794e+38,-1.5806231399957373e+39,5.189769587543535e+38
4.126097278,1.1802394740043498e+38,-1.5737611679599213e+39,5.060660789809487e+38
4.128097311,1.1829605294831972e+38,-1.5668945736187128e+39,4.932060044231349e+38
4.130097311,1.1856402406304125e+38,-1.560023521016225e+39,4.803967663804635e+38
4.132097277,1.1882787149559503e+38,-1.553148174050576e+39,4.6763839486395146e+38
4.134097243,1.1908760599727978e+38,-1.5462686964760685e+39,4.549309186183061e+38
4.136097209,1.1934323832005916e+38,-1.5393852519051998e+39,4.42274365144248e+38
4.138097175,1.1959477921692651e+38,-1.532498003810491e+39,4.29668760720928e+38
4.140097141,1.1984223944227225e+38,-1.5256071155261205e+39,4.1711413042843096e+38
4.142097107,1.2008562975225349e+38,-1.518712750249366e+39,4.046104981703623e+38
4.14409624,1.2032496090516682e+38,-1.5118150710418542e+39,3.9215788669651246e+38
4.14609624,1.2056024366182509e+38,-1.5049142408306214e+39,3.79756317625594e+38
4.148096273,1.2079148878593876e+38,-1.49801042240899e+39,3.674058114680472e+38
4.150096306,1.2101870704450328e+38,-1.491103778437247e+39,3.5510638764890574e+38
4.152096272,1.2124190920819312e+38,-1.4841944714431065e+39,3.4285806453071944e+38
4.154096305,1.2146110605176578e+38,-1.477282663821927e+39,3.3066085943652762e+38
4.156096338,1.2167630835447807e+38,-1.4703685178366578e+39,3.1851478867287935e+38
4.158096371,1.218875269005171e+38,-1.463452195617482e+39,3.0641986755289706e+38
4.160096404,1.2209477247944804e+38,-1.4565338591611362e+39,2.9437611041937672e+38
4.162096404,1.2229805588668121e+38,-1.449613670329891e+39,2.8238353066792e+38
4.164096404,1.2249738792396035e+38,-1.442691790850182e+39,2.704421407700943e+38
4.166096404,1.2269277939987337e+38,-1.4357683823108808e+39,2.5855195229661508e+38
4.168096404,1.2288424113038657e+38,-1.4288436061611995e+39,2.4671297594054604e+38
4.170096404,1.2307178393940421e+38,-1.4219176237082286e+39,2.3492522154051267e+38
4.172096404,1.2325541865935452e+38,-1.4149905961141133e+39,2.2318869810392053e+38
4.174096404,1.2343515613180204e+38,-1.4080626843928788e+39,2.1150341383016785e+38
4.17609637,1.236110072080864e+38,-1.401134049406915e+39,1.998693761338412e+38
4.178096336,1.2378298274998687e+38,-1.3942048518631287e+39,1.882865916678833e+38
4.180096302,1.2395109363041123e+38,-1.3872752523087695e+39,1.7675506634672043e+38
4.182096268,1.2411535073410655e+38,-1.380345411126917e+39,1.6527480536933929e+38
4.184096234,1.2427576495839044e+38,-1.373415488531627e+39,1.5384581324230177e+38
4.1860962,1.2443234721390127e+38,-1.366485644562729e+39,1.4246809380268584e+38
4.188096166,1.2458510842536616e+38,-1.359556039080263e+39,1.3114165024093905e+38
4.190096132,1.247340595323866e+38,-1.3526268317585373e+39,1.1986648512363119e+38
4.192096132,1.2487921149024022e+38,-1.3456981820797786e+39,1.086426004160924e+38
4.194096165,1.2502057527069906e+38,-1.3387702493273633e+39,9.746999750492326e+37
4.196096198,1.2515816186286466e+38,-1.3318431925786431e+39,8.634867722036311e+37
4.198096231,1.2529198227402036e+38,-1.3249171706973847e+39,7.527863985850304e+37
4.200096264,1.2542204753050052e+38,-1.3179923423258472e+39,6.425988520333121e+37
4.202095897,1.2554836867857664e+38,-1.3110688658765114e+39,5.329241254859893e+37
4.204096797,1.2567095678536057e+38,-1.3041468995234848e+39,4.237622071949554e+37
4.20609683,1.25789822939725e+38,-1.2972266011935925e+39,3.1511308094120263e+37
4.20809683,1.2590497825324173e+38,-1.2903081285571656e+39,2.069767262473923e+37
4.210096796,1.2601643386113757e+38,-1.2833916390185242e+39,9.935311858815679e+36
4.212096829,1.261242009232676e+38,-1.2764772897061685e+39,-7.757770401997074e+35
4.214096795,1.2622829062510445e+38,-1.2695652374626804e+39,-1.143559727233158e+37
4.216096761,1.2632871417874302e+38,-1.262655638834345e+39,-2.204415238080938e+37
4.218096727,1.264254828239201e+38,-1.2557486500604916e+39,-3.2601446232077394e+37
4.220096693,1.2651860782904835e+38,-1.2488444270625476e+39,-4.3107482996099655e+37
4.222096693,1.2660810049226313e+38,-1.2419431254328046e+39,-5.356226712697423e+37
4.224096693,1.2669397214248036e+38,-1.2350449004228958e+39,-6.396580334387179e+37
4.226096726,1.2677623414046361e+38,-1.228149906931975e+39,-7.431809661231394e+37
4.228096759,1.268548978798981e+38,-1.2212582994945962e+39,-8.46191521258064e+37
4.230096792,1.2692997478846882e+38,-1.2143702322682941e+39,-9.486897528784268e+37
4.232095925,1.2700147632894129e+38,-1.2074858590208796e+39,-1.0506757169429368e+38
4.234095291,1.2706941400024236e+38,-1.2006053331174535e+39,-1.1521494711619939e+38
4.236095324,1.2713379933853988e+38,-1.1937288075071372e+39,-1.2531110748297887e+38
4.238095357,1.2719464391831888e+38,-1.1868564347095245e+39,-1.3535605886607625e+38
4.24009539,1.2725195935345287e+38,-1.1799883668008563e+39,-1.4534980746306003e+38
4.24209539,1.2730575729826752e+38,-1.1731247553999265e+39,-1.5529235958219292e+38
4.24409539,1.2735604944859425e+38,-1.1662657516537292e+39,-1.6518372162748972e+38
4.24609539,1.2740284754281067e+38,-1.1594115062228627e+39,-1.7502390008428073e+38
4.24809539,1.2744616336286436e+38,-1.1525621692667118e+39,-1.8481290150529767e+38
4.25009539,1.2748600873527768e+38,-1.1457178904284296e+39,-1.9455073249729868e+38
4.25209539,1.2752239553213254e+38,-1.1388788188197495e+39,-2.0423739970824844e+38
4.254095356,1.2755533567203428e+38,-1.132045103005661e+39,-2.1387290981506692e+38
4.256095322,1.2758484112105396e+38,-1.1252168909889838e+39,-2.2345726951196173e+38
4.258095288,1.2761092389364915e+38,-1.1183943301948728e+39,-2.329904854993586e+38
4.260095254,1.2763359605356292e+38,-1.111577567455291e+39,-2.4247256447344744e+38
4.26209562,1.2765286971470135e+38,-1.1047667489934791e+39,-2.5190351311636054e+38
4.264095186,1.276687570419887e+38,-1.0979620204084542e+39,-2.612833380869985e+38
4.266095152,1.2768127025220065e+38,-1.09116352665957e+39,-2.70612046012518e+38
4.268094718,1.2769042161477703e+38,-1.0843714120511732e+39,-2.7988964348049454e+38
4.270094718,1.2769622345261515e+38,-1.0775858202173822e+39,-2.891161370317711e+38
4.272094751,1.276986881428452e+38,-1.0708068941070202e+39,-2.9829153315400334e+38
4.274094784,1.2769782811758884e+38,-1.0640347759687389e+39,-3.0741583827591154e+38
4.276094817,1.276936558647025e+38,-1.0572696073363753e+39,-3.1648905876224713e+38
4.27809485,1.2768618392850763e+38,-1.050511529014574e+39,-3.2551120090948293e+38
4.280094883,1.2767542491050955e+38,-1.0437606810647013e+39,-3.3448227094223534e+38
4.282094916,1.2766139147010643e+38,-1.037017202791085e+39,-3.434022750104291e+38
4.284094949,1.2764409632528843e+38,-1.0302812327275992e+39,-3.5227121918721575e+38
4.286094949,1.2762355225332565e+38,-1.0235529086246244e+39,-3.6108910946765545e+38
4.288094915,1.2759977209144355e+38,-1.0168323674364052e+39,-3.698559517681749e+38
4.290094881,1.27572768737484e+38,-1.0101197453088296e+39,-3.785717519268136e+38
4.292096181,1.275425551505512e+38,-1.0034151775676467e+39,-3.872365157042704e+38
4.294096814,1.275091443516412e+38,-9.967187987071388e+38,-3.958502487857674e+38
4.29609678,1.2747254942425488e+38,-9.900307423792612e+38,-4.0441295678374464e+38
4.298096746,1.2743278351499387e+38,-9.833511413832649e+38,-4.129246452413995e+38
4.300096712,1.2738985983413923e+38,-9.766801276558134e+38,-4.213853196370834e+38
4.302096712,1.2734379165621176e+38,-9.700178322615996e+38,-4.29794985389562e+38
4.304096745,1.2729459232051285e+38,-9.633643853844713e+38,-4.381536478641522e+38
4.306096778,1.2724227523164509e+38,-9.567199163190631e+38,-4.4646131237974306e+38
4.308096811,1.2718685386001259e+38,-9.500845534629322e+38,-4.54717984216705e+38
4.310096844,1.2712834174230124e+38,-9.434584243091899e+38,-4.629236686256863e+38
4.312096877,1.2706675248193975e+38,-9.368416554396244e+38,-4.7107837083730406e+38
4.31409691,1.270020997495426e+38,-9.302343725183088e+38,-4.7918209607273295e+38
4.316096943,1.2693439728333555e+38,-9.236367002856824e+38,-4.8723484955520046e+38
4.318096976,1.2686365888956472e+38,-9.170487625530997e+38,-4.952366365223958e+38
4.320096976,1.2678989844288995e+38,-9.104706821978421e+38,-5.0318746223979426e+38
4.322097009,1.2671312988676288e+38,-9.039025811585909e+38,-5.1108733201489684e+38
4.324097009,1.266333672337901e+38,-8.973445804313516e+38,-5.1893625121238805e+38
4.326097009,1.2655062456608162e+38,-8.907968000658346e+38,-5.2673422527020846e+38
4.328097409,1.264649160355842e+38,-8.842593591622867e+38,-5.344812597165322e+38
4.330097409,1.2637625586439919e+38,-8.777323758687658e+38,-5.421773601876381e+38
4.332097375,1.2628465834508442e+38,-8.712159673788552e+38,-5.498225324466628e+38
4.334097341,1.261901378409403e+38,-8.647102499298029e+38,-5.574167824032227e+38
4.336097307,1.2609270878627894e+38,-8.582153388010709e+38,-5.649601161338866e+38
4.338097273,1.2599238568667468e+38,-8.517313483132774e+38,-5.724525399034799e+38
4.340097239,1.2588918311919456e+38,-8.452583918275163e+38,-5.798940601871995e+38
4.342097205,1.2578311573260627e+38,-8.387965817450497e+38,-5.872846836935182e+38
4.344097171,1.2567419824756128e+38,-8.323460295073691e+38,-5.946244173878531e+38
4.346097137,1.2556244545675155e+38,-8.259068455966176e+38,-6.019132685169763e+38
4.348097137,1.2544787222503724e+38,-8.194791395363572e+38,-6.0915124463414286e+38
4.35009717,1.253304934895446e+38,-8.130630198926588e+38,-6.16338353624908e+38
4.35209647,1.2521032425973461e+38,-8.066585942755008e+38,-6.2347460373361276e+38
4.354096503,1.2508737961744408e+38,-8.002659693404634e+38,-6.305600035905101e+38
4.356096536,1.2496167471690147e+38,-7.938852507907046e+38,-6.3759456223950285e+38
4.358096569,1.2483322478471911e+38,-7.875165433792089e+38,-6.445782891664606e+38
4.360096602,1.2470204511986291e+38,-7.811599509112901e+38,-6.515111943280868e+38
4.362096635,1.2456815109360163e+38,-7.748155762473318e+38,-6.5839328818130386e+38
4.364096635,1.2443155814943733e+38,-7.684835213057488e+38,-6.6522458171312216e+38
4.366096601,1.2429228180301865e+38,-7.62163887066159e+38,-6.7200508647096e+38
4.368096567,1.2415033764203745e+38,-7.55856773572747e+38,-6.787348145933755e+38
4.370096533,1.2400574132610989e+38,-7.49562279937814e+38,-6.85413778841178e+38
4.372096499,1.2385850858664325e+38,-7.432805043455036e+38,-6.920419926288911e+38
4.374096465,1.2370865522668956e+38,-7.370115440556992e+38,-6.986194700565493e+38
4.376096431,1.2355619712078567e+38,-7.307554954080814e+38,-7.051462259418075e+38
4.378096397,1.2340115021477921e+38,-7.245124538263302e+38,-7.116222758523458e+38
4.380096397,1.2324353052563966e+38,-7.182825138224612e+38,-7.180476361385412e+38
4.382097263,1.2308335414125389e+38,-7.120657690012903e+38,-7.24422323966386e+38
4.384097696,1.2292063722020405e+38,-7.058623120650192e+38,-7.30746357350629e+38
4.386097729,1.227553959915262e+38,-6.99672234817937e+38,-7.370197551881169e+38
4.388097762,1.2258764675444803e+38,-6.934956281712315e+38,-7.43242537291318e+38
4.390097795,1.2241740587810363e+38,-6.873325821478956e+38,-7.49414724422014e+38
4.392097828,1.2224468980122467e+38,-6.811831858877071e+38,-7.555363383251353e+38
4.394097861,1.2206951503180699e+38,-6.750475276522596e+38,-7.616074017627302e+38
4.396097894,1.2189189814675296e+38,-6.6892569483001746e+38,-7.676279385480562e+38
4.398097894,1.2171185579148974e+38,-6.6281777394137585e+38,-7.73597973579782e+38
4.400097894,1.215294046795635e+38,-6.567238506437111e+38,-7.79517532876287e+38
4.402097894,1.2134456159220941e+38,-6.506440097364049e+38,-7.853866436100384e+38
4.404097894,1.2115734337789612e+38,-6.4457833516582874e+38,-7.912053341420175e+38
4.406097894,1.209677669518454e+38,-6.385269100302806e+38,-7.969736340561637e+38
4.408097894,1.2077584929552572e+38,-6.324898165848683e+38,-8.026915741937969e+38
4.41009786,1.2058160745611795e+38,-6.264671362463333e+38,-8.083591866879818e+38
4.412098593,1.2038505854595028e+38,-6.204589495978129e+38,-8.139765049977966e+38
4.414098559,1.201862197419003e+38,-6.144653363935423e+38,-8.195435639424776e+38
4.416098525,1.1998510828476165e+38,-6.084863755634975e+38,-8.250603997354036e+38
4.418098491,1.197817414785728e+38,-6.025221452179879e+38,-8.3052705001788e+38
4.420098457,1.1957613668990447e+38,-5.9657272265220026e+38,-8.359435538926873e+38
4.422098423,1.1936831134710338e+38,-5.9063818435069624e+38,-8.4130995195735e+38
4.424098389,1.1915828293949021e+38,-5.847186059918652e+38,-8.466262863370826e+38
4.426098389,1.1894606901650976e+38,-5.7881406245233756e+38,-8.518926007173773e+38
4.428098422,1.187316871868315e+38,-5.729246278113622e+38,-8.571089403761884e+38
4.430098455,1.1851515511739891e+38,-5.6705037535515635e+38,-8.622753522156656e+38
4.432097821,1.1829649053242515e+38,-5.611913775812339e+38,-8.673918847933785e+38
4.434097854,1.1807571121233208e+38,-5.5534770620271906e+38,-8.724585883529778e+38
4.436097887,1.1785283499263006e+38,-5.495194321526525e+38,-8.774755148542357e+38
4.438097787,1.1762787976273618e+38,-5.437066255882974e+38,-8.824427180024098e+38
4.440097153,1.1740086346473003e+38,-5.379093558954501e+38,-8.873602532768892e+38
4.442095886,1.1717180409204514e+38,-5.321276916927553e+38,-8.922281779590781e+38
4.444095852,1.1694071968809566e+38,-5.263617008360284e+38,-8.970465511594842e+38
4.446095818,1.1670762834483731e+38,-5.206114504225843e+38,-9.018154338439851e+38
4.448095784,1.1647254820126056e+38,-5.148770067955652e+38,-9.065348888592521e+38
4.45009575,1.162354974418145e+38,-5.091584355482576e+38,-9.11204980957308e+38
4.452095716,1.1599649429476168e+38,-5.034558015283874e+38,-9.158257768191936e+38
4.454095682,1.1575555703046398e+38,-4.977691688423832e+38,-9.203973450777118e+38
4.456095648,1.1551270395959943e+38,-4.9209860085960266e+38,-9.249197563392247e+38
4.458095648,1.1526795343131045e+38,-4.864441602165144e+38,-9.29393083204479e+38
4.460095648,1.1502132383128426e+38,-4.808059088208272e+38,-9.338174002884247e+38
4.462095648,1.1477283357976625e+38,-4.751839078555545e+38,-9.381927842389969e+38
4.464095648,1.1452250112950832e+38,-4.695782177830049e+38,-9.425193137548233e+38
4.466095648,1.1427034496365358e+38,-4.6398889834869074e+38,-9.467970696018236e+38
4.468095648,1.1401638359355962e+38,-4.5841600858515016e+38,-9.510261346286743e+38
4.470095648,1.1376063555656373e+38,-4.528596068156758e+38,-9.552065937811177e+38
4.472095181,1.1350311941369237e+38,-4.473197506579504e+38,-9.593385341151096e+38
4.474095181,1.1324385374731787e+38,-4.417964970275891e+38,-9.634220448087992e+38
4.476095214,1.129828571587649e+38,-4.362899021415901e+38,-9.674572171733304e+38
4.478095247,1.1272014826586991e+38,-4.308000215216924e+38,-9.714441446624519e+38
4.48009528,1.1245574570049746e+38,-4.25326909997636e+38,-9.753829228809237e+38
4.482095313,1.1218966810601804e+38,-4.1987062171032235e+38,-9.79273649591714e+38
4.484095346,1.1192193413475227e+38,-4.144312101148734e+38,-9.831164247219837e+38
4.486095379,1.1165256244538637e+38,-4.090087279835874e+38,-9.869113503678598e+38
4.488095379,1.1138157170036332e+38,-4.03603227408792e+38,-9.906585307980047e+38
4.490095379,1.1110898056325368e+38,-3.982147598056e+38,-9.943580724559795e+38
4.492096012,1.1083480769611025e+38,-3.928433759145726e+38,-9.980100839614031e+38
4.494095978,1.1055907175681092e+38,-3.874891258042981e+38,-1.0016146761099127e+39
4.496095944,1.1028179139639472e+38,-3.821520588738906e+38,-1.0051719618719329e+39
4.498096044,1.1000298525639471e+38,-3.768322238554128e+38,-1.0086820563902686e+39
4.500096677,1.0972267196617116e+38,-3.715296688162226e+38,-1.0121450769765367e+39
4.502097043,1.0944087014024791e+38,-3.6624444116124084e+38,-1.0155611431064424e+39
4.504097043,1.0915759837565387e+38,-3.609765876351421e+38,-1.0189303764139171e+39
4.506097076,1.0887287524927058e+38,-3.557261543244652e+38,-1.02225290068413e+39
4.508097009,1.0858671931518586e+38,-3.504931866596434e+38,-1.025528841845383e+39
4.510097042,1.0829914910205405e+38,-3.4527772941695726e+38,-1.0287583279599029e+39
4.512097075,1.080101831104635e+38,-3.4007982672041574e+38,-1.0319414892135501e+39
4.514097108,1.0771983981031167e+38,-3.3489952204356676e+38,-1.0350784579044667e+39
4.516097141,1.0742813763818882e+38,-3.297368582112411e+38,-1.0381693684306803e+39
4.518097174,1.0713509499477072e+38,-3.2459187740122977e+38,-1.0412143572766858e+39
4.520097207,1.0684073024222051e+38,-3.1946462114589126e+38,-1.0442135629990274e+39
4.522097207,1.065450617015994e+38,-3.14355130333686e+38,-1.047167126210905e+39
4.524097207,1.0624810765028633e+38,-3.0926344521063437e+38,-1.0500751895658313e+39
4.526097207,1.0594988631940672e+38,-3.0418960538169714e+38,-1.0529378977403573e+39
4.528097207,1.0565041589127124e+38,-2.9913364981207824e+38,-1.0557553974158887e+39
4.530097207,1.053497144968248e+38,-2.9409561682844905e+38,-1.0585278372596175e+39
4.532097207,1.0504780021310664e+38,-2.8907554412009505e+38,-1.061255367904599e+39
4.534097207,1.0474469106072286e+38,-2.840734687399845e+38,-1.0639381419290045e+39
4.536097173,1.044404050013346e+38,-2.7908942710575743e+38,-1.0665763138345786e+39
4.538097139,1.0413495993516451e+38,-2.741234550006355e+38,-1.0691700400243392e+39
4.540098505,1.038283736985243e+38,-2.6917558757425452e+38,-1.0717194787795564e+39
4.542098471,1.0352066406136533e+38,-2.6424585934341898e+38,-1.0742247902360627e+39
4.544098437,1.0321184872485426e+38,-2.5933430419277852e+38,-1.0766861363599474e+39
4.546098403,1.0290194531897558e+38,-2.5444095537542605e+38,-1.0791036809226868e+39
4.548098369,1.0259097140016273e+38,-2.4956584551341724e+38,-1.081477589475754e+39
4.550098335,1.0227894444895976e+38,-2.447090065982091e+38,-1.0838080293247458e+39
4.552098301,1.0196588186771482e+38,-2.398704699910154e+38,-1.0860951695030617e+39
4.554098334,1.0165180097830737e+38,-2.350502664230783e+38,-1.0883391807451615e+39
4.556098367,1.0133671901991006e+38,-2.3024842599585554e+38,-1.0905402354594308e+39
4.5580984,1.0102065314678599e+38,-2.254649781811241e+38,-1.092698507700684e+39
4.560098433,1.0070362042612193e+38,-2.2069995182100124e+38,-1.0948141731423203e+39
4.562098466,1.0038563783589845e+38,-2.159533751278869e+38,-1.096887409048145e+39
4.564098499,1.0006672226279852e+38,-2.1122527568433093e+38,-1.0989183942438664e+39
4.566098499,9.974689050015637e+37,-2.0651568044282977e+38,-1.1009073090882778e+39
4.568098599,9.942615924594904e+37,-2.018246157255571e+38,-1.1028543354441231e+39
4.570098565,9.910454510083276e+37,-1.9715210722403383e+38,-1.104759656648655e+39
4.572098531,9.878206456622609e+37,-1.9249817999874244e+38,-1.1066234574838906e+39
4.574098497,9.845873404244132e+37,-1.8786285847869085e+38,-1.1084459241465729e+39
4.576098463,9.813456982686614e+37,-1.8324616646093102e+38,-1.1102272442178464e+39
4.578098429,9.780958811219706e+37,-1.7864812711003724e+38,-1.111967606632659e+39
4.580098395,9.74838049847264e+37,-1.7406876295754987e+38,-1.113667201648896e+39
4.582098395,9.715723642268526e+37,-1.6950809590138923e+38,-1.1153262208162487e+39
4.584098428,9.682989829464522e+37,-1.6496614720524486e+38,-1.1169448569448296e+39
4.586098461,9.650180635798174e+37,-1.6044293749794466e+38,-1.118523304073536e+39
4.588098494,9.617297625740297e+37,-1.5593848677280873e+38,-1.1200617574381638e+39
4.590098527,9.584342352354655e+37,-1.5145281438699195e+38,-1.1215604134392732e+39
4.59209856,9.5513163571647e+37,-1.4698593906081869e+38,-1.1230194696098126e+39
4.594098593,9.518221170027478e+37,-1.4253787887711258e+38,-1.124439124582503e+39
4.596098626,9.485058309014819e+37,-1.381086512805248e+38,-1.1258195780569947e+39
4.598098659,9.451829280301893e+37,-1.3369827307686435e+38,-1.1271610307667967e+39
4.600097259,9.418535578063137e+37,-1.2930676043243387e+38,-1.1284636844459845e+39
4.602097259,9.385178684375567e+37,-1.2493412887337396e+38,-1.1297277417956906e+39
4.604097259,9.35176006912958e+37,-1.205803932850193e+38,-1.1309534064503877e+39
4.606097259,9.318281189947269e+37,-1.1624556791127133e+38,-1.1321408829439728e+39
4.608097259,9.284743492108368e+37,-1.1192966635399216e+38,-1.1332903766756662e+39
4.610097259,9.251148408483925e+37,-1.076327015724238e+38,-1.1344020938757426e+39
4.612097292,9.2174973594778e+37,-1.0335468588263693e+38,-1.1354762415711131e+39
4.614097258,9.183791752976053e+37,-9.90956309570119e+37,-1.1365130275507785e+39
4.616097224,9.150032984304117e+37,-9.48555478237554e+37,-1.1375126603311817e+39
4.61809719,9.116222436191725e+37,-9.06344468664555e+37,-1.1384753491214814e+39
4.620097156,9.082361478745515e+37,-8.64323378236789e+37,-1.1394013037887553e+39
4.622097122,9.048451469429274e+37,-8.224922978861314e+37,-1.1402907348231388e+39
4.624097088,9.014493753051674e+37,-7.808513120875749e+37,-1.141143853302907e+39
4.626097054,8.980489661761533e+37,-7.394004988566645e+37,-1.1419608708595035e+39
4.62809702,8.94644051505058e+37,-6.981399297474859e+37,-1.1427419996425255e+39
4.63009702,8.912347619763648e+37,-6.57069669851237e+37,-1.1434874522846732e+39
4.632096386,8.878212270116246e+37,-6.16189777795413e+37,-1.1441974418666756e+39
4.634096419,8.84403574771936e+37,-5.755003057436316e+37,-1.1448721818822103e+39
4.636096119,8.809819321611425e+37,-5.3500129939612055e+37,-1.1455118862028287e+39
4.638096152,8.775564248297318e+37,-4.946927979908938e+37,-1.1461167690429e+39
4.640096185,8.741271771794287e+37,-4.545748343056418e+37,-1.146687044924587e+39
4.642095551,8.7069431236846e+37,-4.146474346603706e+37,-1.147222928642879e+39
4.644095551,8.672579523174678e+37,-3.749106189208198e+37,-1.1477246352307173e+39
4.646095551,8.638182177160417e+37,-3.353644005026878e+37,-1.1481923799242357e+39
4.648095217,8.603752280298443e+37,-2.9600878637669265e+37,-1.1486263781281431e+39
4.650095183,8.569291015083038e+37,-2.5684377707449916e+37,-1.1490268453812664e+39
4.652094749,8.534799551928488e+37,-2.1786936669554402e+37,-1.1493939973222841e+39
4.654094715,8.500279049256678e+37,-1.7908554291479036e+37,-1.1497280496556713e+39
4.656094681,8.465730653589772e+37,-1.4049228699144432e+37,-1.1500292181178758e+39
4.658094647,8.431155499647851e+37,-1.0208957377866562e+37,-1.1502977184437364e+39
4.660094647,8.396554710451341e+37,-6.387737173430441e+36,-1.1505337663331488e+39
4.66209468,8.361929397427992e+37,-2.5855642932697695e+36,-1.1507375774179935e+39
4.664094713,8.327280660524078e+37,1.197565692244194e+36,-1.1509093672293437e+39
4.666094746,8.292609588319466e+37,4.9616578484013476e+36,-1.1510493511649689e+39
4.668094779,8.257917258146338e+37,8.706717874635843e+36,-1.1511577444571451e+39
4.670094812,8.223204736211229e+37,1.2432752102890386e+37,-1.1512347621407915e+39
4.672094845,8.188473077720107e+37,1.6139767495858585e+37,-1.1512806190219542e+39
4.674094878,8.153723327006276e+37,1.9827771645102233e+37,-1.151295529646664e+39
4.676094911,8.118956517660928e+37,2.349677276904046e+37,-1.1512797082701915e+39
4.678094911,8.084173672666193e+37,2.7146779710807718e+37,-1.1512333688267226e+39
4.680094911,8.049375804530633e+37,3.0777801935977683e+37,-1.151156724899486e+39
4.682094911,8.014563915426995e+37,3.438984953015035e+37,-1.151049989691362e+39
4.684094911,7.97973899733204e+37,3.798293319639973e+37,-1.1509133759959984e+39
4.686094911,7.944902032168224e+37,4.155706425257989e+37,-1.150747096169459e+39
4.688094511,7.910053991947101e+37,4.511225462848703e+37,-1.1505513621024235e+39
4.690094511,7.875195838914303e+37,4.864851686287532e+37,-1.1503263851929603e+39
4.692095144,7.840328525695909e+37,5.2165864100324375e+37,-1.1500723763199e+39
4.69409511,7.805452995446016e+37,5.566431008795638e+37,-1.1497895458168228e+39
4.69609541,7.770570181995268e+37,5.914386917200065e+37,-1.1494781034466845e+39
4.698095376,7.735681010000145e+37,6.260455629420372e+37,-1.1491382583770976e+39
4.700094942,7.700786395092774e+37,6.604638698808376e+37,-1.1487702191562939e+39
4.702095575,7.665887244031086e+37,6.946937737502848e+37,-1.1483741936897782e+39
4.704095541,7.630984454849193e+37,7.2873544160236375e+37,-1.1479503892176932e+39
4.706095507,7.596078917007852e+37,7.625890462850108e+37,-1.1474990122929106e+39
4.708095807,7.5611715115449075e+37,7.962547663983937e+37,-1.1470202687598583e+39
4.71009584,7.526263111225565e+37,8.297327862496384e+37,-1.1465143637340968e+39
4.712095506,7.491354580692362e+37,8.630232958060153e+37,-1.1459815015826695e+39
4.714095539,7.456446776614697e+37,8.961264906466065e+37,-1.1454218859052477e+39
4.716095572,7.421540547837712e+37,9.29042571912487e+37,-1.1448357195160882e+39
4.718095605,7.386636735530383e+37,9.617717462554582e+37,-1.1442232044268089e+39
4.720095638,7.351736173332692e+37,9.943142257853799e+37,-1.1435845418299929e+39
4.722095638,7.316839687501696e+37,1.0266702280161403e+38,-1.1429199320836278e+39
4.724095638,7.281948097056273e+37,1.0588399758103158e+38,-1.1422295746963862e+39
4.726095604,7.247062213920337e+37,1.0908236973225722e+38,-1.1415136683137544e+39
4.72809557,7.212182843064328e+37,1.1226216259418677e+38,-1.140772410705023e+39
4.730095536,7.177310782644791e+37,1.1542340002325096e+38,-1.1400059987511496e+39
4.732095502,7.142446824141841e+37,1.1856610638741181e+38,-1.1392146284334984e+39
4.734095468,7.107591752494397e+37,1.2169030656005498e+38,-1.138398494823456e+39
4.736095434,7.072746346233051e+37,1.2479602591378386e+38,-1.1375577920729216e+39
4.738095434,7.037911377610476e+37,1.2788329031412217e+38,-1.1366927134056721e+39
4.740095434,7.003087612729332e+37,1.3095212611313006e+38,-1.1358034511096003e+39
4.742095067,6.968275811667651e+37,1.3400256014293904e+38,-1.1348901965298267e+39
4.7440951,6.933476728601642e+37,1.3703461970921118e+38,-1.1339531400626863e+39
4.746095133,6.898691111925923e+37,1.4004833258452753e+38,-1.132992471150593e+39
4.748095566,6.8639197043712035e+37,1.4304372700171191e+38,-1.1320083782777757e+39
4.750095599,6.829163243119429e+37,1.4602083164709552e+38,-1.1310010489668732e+39
4.752095632,6.794422459916381e+37,1.4897967565372847e+38,-1.1299706697763788e+39
4.754095665,6.759698081181695e+37,1.5192028859454442e+38,-1.1289174262989235e+39
4.756095665,6.724990828116176e+37,1.5484270047548404e+38,-1.1278415031603805e+39
4.758095665,6.690301416806354e+37,1.577469417285831e+38,-1.1267430840197798e+39
4.760095731,6.655630558326226e+37,1.6063304320503115e+38,-1.125622351570012e+39
4.762095731,6.62097895883615e+37,1.635010361682066e+38,-1.1244794875393014e+39
4.764095731,6.586347319678828e+37,1.6635095228669412e+38,-1.1233146726934273e+39
4.766095731,6.551736337472393e+37,1.691828236272908e+38,-1.1221280868386675e+39
4.768095731,6.517146704200595e+37,1.7199668264800714e+38,-1.1209199088254371e+39
4.770095697,6.482579107300153e+37,1.7479256219106792e+38,-1.1196903165525938e+39
4.77209643,6.448034229745276e+37,1.7757049547591802e+38,-1.1184394869723784e+39
4.774096396,6.413512750129397e+37,1.8033051609223613e+38,-1.117167596095958e+39
4.776096362,6.379015342744076e+37,1.830726579929611e+38,-1.1158748189995359e+39
4.778096328,6.344542677655043e+37,1.8579695548733575e+38,-1.114561329830981e+39
4.780096294,6.310095420775332e+37,1.885034432339716e+38,-1.1132273018169199e+39
4.78209626,6.275674233935454e+37,1.911921562339374e+38,-1.1118729072702353e+39
4.784096226,6.241279774950543e+37,1.9386312982387282e+38,-1.1104983175979174e+39
4.786096226,6.206912697684403e+37,1.9651639966912872e+38,-1.1091037033092163e+39
4.788096259,6.172573652110471e+37,1.9915200175693574e+38,-1.107689234024054e+39
4.790096292,6.138263284369684e+37,2.0176997238960235e+38,-1.106255078481661e+39
4.792096325,6.103982236825275e+37,2.043703481777427e+38,-1.1048014045494024e+39
4.794096358,6.0697311481145e+37,2.069531660335354e+38,-1.1033283792317679e+39
4.796096391,6.035510653197302e+37,2.0951846316401453e+38,-1.1018361686794977e+39
4.798096424,6.00132138340191e+37,2.120662770643943e+38,-1.1003249381988149e+39
4.800096457,5.967163966467367e+37,2.1459664551142594e+38,-1.098794852260737e+39
4.802096457,5.933039026583029e+37,2.171096065567871e+38,-1.0972460745104378e+39
4.804096423,5.89894718442498e+37,2.196051985205022e+38,-1.0956787677766308e+39
4.806096389,5.864889057189451e+37,2.220834599843924e+38,-1.0940930940809445e+39
4.808096355,5.830865258623283e+37,2.2454442978555265e+38,-1.0924892146472592e+39
4.810096321,5.796876399051512e+37,2.2698814700985372e+38,-1.0908672899109707e+39
4.812096287,5.762923085402206e+37,2.2941465098546743e+38,-1.0892274795281457e+39
4.814096253,5.729005921228635e+37,2.31823981276414e+38,-1.0875699423845306e+39
4.816096253,5.695125506728897e+37,2.3421617767613123e+38,-1.0858948366043728e+39
4.818096253,5.661282438763119e+37,2.3659128020106385e+38,-1.0842023195590132e+39
4.820096619,5.627477310868301e+37,2.389493290842743e+38,-1.0824925478752114e+39
4.822096652,5.593710713270892e+37,2.4129036476907567e+38,-1.0807656774431757e+39
4.824096685,5.559983232897132e+37,2.4361442790268666e+38,-1.0790218634242663e+39
4.826096718,5.526295453381256e+37,2.4592155932990765e+38,-1.0772612602583433e+39
4.828096751,5.492647955071693e+37,2.4821180008681708e+38,-1.075484021670742e+39
4.830096784,5.459041315035371e+37,2.5048519139448654e+38,-1.0736903006788601e+39
4.832095917,5.425476107060256e+37,2.527417746527146e+38,-1.0718802495983447e+39
4.834095917,5.39195290165626e+37,2.5498159143377973e+38,-1.0700540200488675e+39
4.83609525,5.358472266054663e+37,2.5720468347621183e+38,-1.068211762959493e+39
4.83809525,5.3250347642062205e+37,2.5941109267858237e+38,-1.0663536285736372e+39
4.84009525,5.291640956778125e+37,2.616008610933125e+38,-1.0644797664536137e+39
4.84209525,5.258291401149962e+37,2.6377403092049945e+38,-1.0625903254847687e+39
4.844095316,5.224986651408801e+37,2.6593064450176148e+38,-1.0606854538792171e+39
4.846095316,5.19172725834352e+37,2.6807074431410236e+38,-1.0587652991791828e+39
4.848095282,5.158513769438443e+37,2.7019437296379873e+38,-1.0568300082599419e+39
4.850095248,5.125346728866389e+37,2.7230157318031463e+38,-1.054879727332368e+39
4.852094548,5.092226677481254e+37,2.7439238781024998e+38,-1.0529146019450793e+39
4.854094514,5.059154152810203e+37,2.7646685981133093e+38,-1.0509347769861874e+39
4.85609448,5.026129689045572e+37,2.7852503224645085e+38,-1.048940396684642e+39
4.858094446,4.99315381703658e+37,2.8056694827776707e+38,-1.0469316046111666e+39
4.860093746,4.960227064280968e+37,2.825926511608573e+38,-1.0449085436787869e+39
4.862094112,4.927349954916695e+37,2.8460218423893725e+38,-1.0428713561429693e+39
4.864094112,4.8945230097138e+37,2.8659559093714192e+38,-1.0408201836013906e+39
4.866094145,4.861746746066521e+37,2.8857291475687077e+38,-1.038755166993355e+39
4.868094178,4.829021677985687e+37,2.9053419927019675e+38,-1.0366764465988756e+39
4.870094211,4.796348316091447e+37,2.924794881143391e+38,-1.0345841620374261e+39
4.872094244,4.763727167606326e+37,2.9440882498620056e+38,-1.032478452266375e+39
4.874094277,4.731158736348601e+37,2.9632225363697245e+38,-1.0303594555791e+39
4.87609431,4.698643522725982e+37,2.982198178668109e+38,-1.028227309602775e+39
4.878094343,4.666182023729568e+37,3.001015615195863e+38,-1.026082151295819e+39
4.880094343,4.633774732928053e+37,3.019675284777064e+38,-1.0239241169450048e+39
4.882094309,4.601422140462224e+37,3.0381776265701434e+38,-1.0217533421622231e+39
4.884094275,4.569124733039754e+37,3.056523080017621e+38,-1.0195699618808977e+39
4.886094241,4.536882993930294e+37,3.074712084796629e+38,-1.0173741103520412e+39
4.888094207,4.504697402960856e+37,3.092745080770258e+38,-1.0151659211399483e+39
4.890094173,4.4725684365114e+37,3.110622507939744e+38,-1.0129455271175192e+39
4.892095039,4.440496567510588e+37,3.128344806397525e+38,-1.0107130604612124e+39
4.894095039,4.408482265431629e+37,3.1459124162811747e+38,-1.0084686526456328e+39
4.896095705,4.376525996288202e+37,3.16332577772823e+38,-1.0062124344377654e+39
4.898095738,4.3446282226303865e+37,3.18058533083193e+38,-1.003944535890875e+39
4.900095771,4.312789403540568e+37,3.1976915155978844e+38,-1.0016650863380953e+39
4.902095804,4.281009994629333e+37,3.2146447719016896e+38,-9.993742143857446e+38
4.90409577,4.2492904480313444e+37,3.2314455394475157e+38,-9.970720479063907e+38
4.906095803,4.2176312124012344e+37,3.248094257727678e+38,-9.947587140316919e+38
4.908095836,4.1860327329095397e+37,3.2645913659832106e+38,-9.924343391450298e+38
4.910095869,4.1544954512387514e+37,3.2809373031654704e+38,-9.900990488739512e+38
4.912096535,4.123019805579492e+37,3.2971325078987973e+38,-9.877529680824486e+38
4.914096535,4.091606230626881e+37,3.3131774184442426e+38,-9.853962208631029e+38
4.916096535,4.060255157577123e+37,3.3290724726643566e+38,-9.830289305291065e+38
4.918096535,4.0289670141243527e+37,3.344818107989039e+38,-9.806512196061913e+38
4.920097201,3.9977422244577846e+37,3.3604147613824333e+38,-9.782632098244831e+38
4.922096301,3.966581209259172e+37,3.3758628693108312e+38,-9.75865022110305e+38
4.924096301,3.935484385700587e+37,3.3911628677115568e+38,-9.734567765779615e+38
4.926096267,3.904452167442501e+37,3.406315191962781e+38,-9.710385925215215e+38
4.928096233,3.873484964632174e+37,3.421320276854204e+38,-9.686105884066254e+38
4.930096199,3.842583183902388e+37,3.436178556558568e+38,-9.661728818623431e+38
4.932096165,3.8117472283705075e+37,3.450890464604013e+38,-9.637255896731113e+38
4.934096131,3.780977497637839e+37,3.465456433847269e+38,-9.612688277707816e+38
4.936096097,3.7502743877892324e+37,3.479876896447649e+38,-9.588027112268083e+38
4.938096063,3.719638291392891e+37,3.494152283841799e+38,-9.563273542446054e+38
4.940096029,3.6890695975003423e+37,3.5082830267191785e+38,-9.538428701520914e+38
4.942096029,3.658568691646561e+37,3.522269554998235e+38,-9.51349371394438e+38
4.944096062,3.628135955850209e+37,3.536112297803272e+38,-9.488469695270485e+38
4.946096095,3.5977717686139892e+37,3.5498116834420025e+38,-9.463357752087873e+38
4.948096128,3.5674765049251223e+37,3.563368139383795e+38,-9.438158981954895e+38
4.950096161,3.537250536255976e+37,3.576782092238654e+38,-9.412874473337861e+38
4.952095894,3.507094230564865e+37,3.5900539677369164e+38,-9.387505305552749e+38
4.954095927,3.477007952297046e+37,3.603184190709664e+38,-9.362052548710578e+38
4.95609596,3.44699206238592e+37,3.616173185069872e+38,-9.336517263666702e+38
4.95809596,3.4170469182544596e+37,3.629021373794295e+38,-9.310900501974234e+38
4.960095926,3.38717287381687e+37,3.641729178906079e+38,-9.285203305841887e+38
4.962095892,3.357370279480462e+37,3.654297021458093e+38,-9.259426708096467e+38
4.964095858,3.3276394821477046e+37,3.66672532151694e+38,-9.233571732150305e+38
4.966095824,3.297980825218439e+37,3.6790144981476284e+38,-9.207639391973854e+38
4.96809579,3.2683946485922425e+37,3.691164969398894e+38,-9.181630692073709e+38
4.970095756,3.2388812886709336e+37,3.703177152289161e+38,-9.155546627476285e+38
4.972095756,3.2094410783612058e+37,3.715051462793145e+38,-9.129388183717362e+38
4.974095756,3.1800743470773923e+37,3.726788315829129e+38,-9.103156336837719e+38
4.976095756,3.1507814207443716e+37,3.738388125246954e+38,-9.076852053385071e+38
4.978095756,3.1215626218006237e+37,3.7498513038167394e+38,-9.050476290422467e+38
4.980095756,3.092418269201468e+37,3.761178263218377e+38,-9.02402999554326e+38
4.982096656,3.06334867842253e+37,3.772369414031842e+38,-8.997514106892759e+38
4.984096656,3.0343541614634883e+37,3.78342516572833e+38,-8.970929553196645e+38
4.986096656,3.0054350268521133e+37,3.7943459266622314e+38,-8.944277253796233e+38
4.988096656,2.976591579648618e+37,3.805132104063927e+38,-8.917558118690545e+38
4.990096656,2.9478241214503116e+37,3.8157841040333834e+38,-8.890773048585266e+38
4.992096689,2.919132950396537e+37,3.826302331534523e+38,-8.863922934948583e+38
4.994096722,2.8905183611738468e+37,3.8366871903903326e+38,-8.837008660073938e+38
4.996096755,2.8619806450214057e+37,3.8469390832786845e+38,-8.810031097149723e+38
4.998096788,2.833520089736597e+37,3.857058411728858e+38,-8.782991110335916e+38
5.000096821,2.805136979680802e+37,3.867045576118734e+38,-8.75588955484763e+38
5.002096854,2.776831595785336e+37,3.876900975672652e+38,-8.72872727704549e+38
5.004096854,2.7486042155575233e+37,3.88662500845991e+38,-8.701505114532698e+38
5.00609682,2.7204551130868955e+37,3.896218071393873e+38,-8.674223896258625e+38
5.008096786,2.6923845590515167e+37,3.9056805602317e+38,-8.646884442628817e+38
5.010096752,2.664392820724447e+37,3.915012869574661e+38,-8.61948756562131e+38
5.012096685,2.63648016198034e+37,3.924215392869019e+38,-8.592034068909242e+38
5.014096651,2.608646843302149e+37,3.933288522407453e+38,-8.564524747989682e+38
5.016096617,2.5808931217879585e+37,3.942232649330992e+38,-8.536960390318511e+38
5.018096583,2.5532192511579575e+37,3.9510481636314404e+38,-8.509341775451198e+38
5.020096583,2.52562548176162e+37,3.959735454154288e+38,-8.48166967518921e+38
5.022096616,2.4981120605851357e+37,3.968294908602093e+38,-8.453944853731829e+38
5.024096649,2.4706792312591277e+37,3.976726913538364e+38,-8.426168067833094e+38
5.026096682,2.443327234066681e+37,3.985031854391949e+38,-8.398340066963556e+38
5.028096715,2.4160563059516834e+37,3.9932101154619716e+38,-8.370461593476532e+38
5.030096748,2.3888666805274973e+37,4.00126207992334e+38,-8.342533382778486e+38
5.032096114,2.3617585880859607e+37,4.0091881298327964e+38,-8.314556163503117e+38
5.034096147,2.334732255606746e+37,4.016988646135518e+38,-8.286530657688661e+38
5.03609618,2.3077879067670835e+37,4.024664008672261e+38,-8.25845758095796e+38
5.03809618,2.280925761951861e+37,4.03221459618704e+38,-8.230337642700861e+38
5.04009618,2.2541460382641067e+37,4.039640786335339e+38,-8.202171546258596e+38
5.04209578,2.2274489495358576e+37,4.046942955692896e+38,-8.173959989109844e+38
5.04409578,2.200834706339434e+37,4.054121479765073e+38,-8.145703663058196e+38
5.04609578,2.1743035159991266e+37,4.0611767329968765e+38,-8.117403254420742e+38
5.04809578,2.147855582603311e+37,4.068109088783688e+38,-8.089059444217554e+38
5.05009578,2.1214911070169932e+37,4.074918919482795e+38,-8.060672908361813e+38
5.052095746,2.0952102868948016e+37,4.08160659642584e+38,-8.032244317850304e+38
5.054095712,2.0690133166944133e+37,4.08817248993228e+38,-8.003774338953995e+38
5.056095678,2.0429003876904072e+37,4.094616969323942e+38,-7.975263633408454e+38
5.058095644,2.0168716879885222e+37,4.100940402940732e+38,-7.94671285860382e+38
5.06009561,1.9909274025402944e+37,4.107143158157533e+38,-7.91812266777412e+38
5.062095576,1.9650677131580482e+37,4.113225601402318e+38,-7.889493710185596e+38
5.064095542,1.939292798530215e+37,4.1191880981754804e+38,-7.860826631323807e+38
5.066095542,1.9136028342369456e+37,4.125031013070388e+38,-7.832122073079222e+38
5.068095542,1.88799799276598e+37,4.1307547097951545e+38,-7.803380673931033e+38
5.070095575,1.8624784435287416e+37,4.1363595511956205e+38,-7.774603069128982e+38
5.072095941,1.837044352876648e+37,4.141845899279539e+38,-7.745789890872943e+38
5.074095974,1.811695884117632e+37,4.147214115241921e+38,-7.71694176849002e+38
5.076095107,1.786433197532868e+37,4.152464559491455e+38,-7.688059328608865e+38
5.07809514,1.7612564503936991e+37,4.1575975916779085e+38,-7.659143195330927e+38
5.080095173,1.7361657969787865e+37,4.162613570720453e+38,-7.630193990398413e+38
5.082095173,1.7111613885914998e+37,4.167512854836859e+38,-7.601212333358714e+38
5.084095139,1.6862433735775623e+37,4.17229580157346e+38,-7.572198841725034e+38
5.086096005,1.6614118973429675e+37,4.1769627678357855e+38,-7.543154131132968e+38
5.088095971,1.636667102372194e+37,4.1815141099197475e+38,-7.514078815492857e+38
5.090095937,1.6120091282467386e+37,4.185950183543281e+38,-7.484973507137753e+38
5.09209657,1.5874381116639898e+37,4.190271343878366e+38,-7.455838816966886e+38
5.094096536,1.5629541864564428e+37,4.1944779455833554e+38,-7.426675354584511e+38
5.096096102,1.5385574836112555e+37,4.19857034283561e+38,-7.397483728434023e+38
5.098096102,1.5142481312901542e+37,4.2025488893644175e+38,-7.368264545927275e+38
5.100096135,1.490026254849687e+37,4.206413938484219e+38,-7.339018413569055e+38
5.102096168,1.4658919768618398e+37,4.210165843128117e+38,-7.309745937076676e+38
5.104096201,1.4418454171350298e+37,4.2138049558816476e+38,-7.280447721494687e+38
5.106096234,1.4178866927354869e+37,4.217331629016752e+38,-7.251124371304628e+38
5.108096267,1.3940159180090402e+37,4.220746214525868e+38,-7.221776490529746e+38
5.1100963,1.3702332046033213e+37,4.224049064156038e+38,-7.192404682834637e+38
5.112096333,1.3465386614903993e+37,4.2272405294429205e+38,-7.163009551619722e+38
5.114096366,1.3229323949898504e+37,4.230320961744556e+38,-7.133591700110576e+38
5.116096366,1.2994145087922509e+37,4.233290712274737e+38,-7.104151731442102e+38
5.118096366,1.2759851039830777e+37,4.236150132135812e+38,-7.074690248737637e+38
5.120096366,1.252644279066997e+37,4.238899572350798e+38,-7.045207855183041e+38
5.122096366,1.229392129992524e+37,4.2415393838946885e+38,-7.015705154095912e+38
5.124096366,1.2062287501770384e+37,4.244069917724863e+38,-6.986182748989984e+38
5.126096366,1.1831542305321225e+37,4.246491524810585e+38,-6.956641243634897e+38
5.128096366,1.1601686594891926e+37,4.248804556161591e+38,-6.92708124211149e+38
5.130096332,1.137272123025389e+37,4.251009362855798e+38,-6.89750334886272e+38
5.132096298,1.1144647046896825e+37,4.253106296066154e+38,-6.867908168740295e+38
5.134096264,1.0917464856291647e+37,4.255095707086682e+38,-6.838296307047079e+38
5.13609713,1.0691175446154784e+37,4.256977947357751e+38,-6.808668369575402e+38
5.138097096,1.0465779580713444e+37,4.258753368490655e+38,-6.779024962641353e+38
5.140097062,1.0241278000971369e+37,4.2604223222915415e+38,-6.749366693115153e+38
5.142097028,1.0017671424974697e+37,4.261985160784709e+38,-6.71969416844768e+38
5.144097028,9.794960548077536e+36,4.2634422362353174e+38,-6.690007996693267e+38
5.146096128,9.573146043206957e+36,4.264793901171557e+38,-6.660308786528921e+38
5.148096161,9.352228561127142e+36,4.266040508406339e+38,-6.6305971472701675e+38
5.150096194,9.132208730702387e+36,4.267182411058505e+38,-6.600873688883691e+38
5.152096227,8.913087159158704e+36,4.268219962573562e+38,-6.571139021996883e+38
5.15409626,8.694864432343802e+36,4.269153516743971e+38,-6.541393757904354e+38
5.156096693,8.477541114985043e+36,4.269983427729059e+38,-6.511638508571449e+38
5.158096726,8.261117750944981e+36,4.270710050074625e+38,-6.481873886634911e+38
5.160096726,8.04559486347411e+36,4.271333738732303e+38,-6.4521005054007236e+38
5.162096692,7.830972955460403e+36,4.271854849078784e+38,-6.4223189788392125e+38
5.164096658,7.617252509675265e+36,4.2722737369349566e+38,-6.39252992157741e+38
5.166096624,7.40443398901562e+36,4.272590758585066e+38,-6.362733948888725e+38
5.16809659,7.192517836741796e+36,4.272806270795984e+38,-6.332931676679988e+38
5.170096556,6.981504476710884e+36,4.2729206308366384e+38,-6.303123721475931e+38
5.172096522,6.771394313605211e+36,4.2729341964976376e+38,-6.273310700401088e+38
5.174096488,6.562187733155633e+36,4.2728473261112075e+38,-6.243493231159189e+38
5.176096488,6.35388510235934e+36,4.272660378571549e+38,-6.213671932010137e+38
5.178096521,6.146486769691865e+36,4.2723737133557346e+38,-6.18384742174468e+38
5.180096554,5.939993065313047e+36,4.271987690545233e+38,-6.1540203196568834e+38
5.182096587,5.734404301266807e+36,4.271502670848112e+38,-6.12419124551452e+38
5.18409662,5.529720771674557e+36,4.27091901562194e+38,-6.0943608195274526e+38
5.186096653,5.325942752922194e+36,4.270237086897439e+38,-6.064529662314102e+38
5.188096686,5.123070503840566e+36,4.269457247402931e+38,-6.034698394866005e+38
5.190096719,4.9211042658793596e+36,4.268579860589542e+38,-6.004867638510502e+38
5.192097885,4.720044263274325e+36,4.26760529065714e+38,-5.975038014871586e+38
5.194097885,4.519890703207754e+36,4.266533902580944e+38,-5.945210145828979e+38
5.196097885,4.320643775962154e+36,4.2653660621387056e+38,-5.91538465347555e+38
5.198097885,4.1223036550670334e+36,4.264102135938389e+38,-5.885562160073145e+38
5.200097885,3.924870497438764e+36,4.26274249144627e+38,-5.855743288006848e+38
5.202097885,3.7283444435134455e+36,4.261287497015422e+38,-5.8259286597377e+38
5.204097885,3.532725617372712e+36,4.259737521914479e+38,-5.796118897753851e+38
5.206097885,3.338014126862404e+36,4.258092936356597e+38,-5.766314624520151e+38
5.208097851,3.144210063704077e+36,4.256354111528551e+38,-5.736516462426174e+38
5.210097817,2.9513135035993446e+36,4.254521419619893e+38,-5.706725033732667e+38
5.212097783,2.759324506327078e+36,4.252595233852038e+38,-5.676940960516407e+38
5.214097749,2.5682431158335248e+36,4.250575928507188e+38,-5.6471648646135054e+38
5.216097715,2.378069360315374e+36,4.248463878956948e+38,-5.617397367561196e+38
5.218097681,2.1888032522957983e+36,4.246259461690582e+38,-5.587639090538217e+38
5.220097647,2.0004447886935196e+36,4.243963054342848e+38,-5.557890654303897e+38
5.222097647,1.8129939508849554e+36,4.2415750357213844e+38,-5.528152679136051e+38
5.224097647,1.62645070475952e+36,4.239095785833581e+38,-5.498425784767872e+38
5.22609768,1.4408150007681652e+36,4.236525685912854e+38,-5.4687105903239445e+38
5.228097713,1.256086773965262e+36,4.233865118444278e+38,-5.439007714255582e+38
5.230097746,1.072265944043922e+36,4.231114467189557e+38,-5.409317774275617e+38
5.232097112,8.893524153648835e+35,4.228274117211287e+38,-5.379641387292821e+38
5.234096478,7.073460769790672e+35,4.225344454896511e+38,-5.349979169346106e+38
5.236096511,5.2624680264392096e+35,4.222325867979564e+38,-5.320331735538688e+38
5.238096511,3.4605445083367266e+35,4.219218745564228e+38,-5.2906996999723945e+38
5.240096511,1.6676886474362556e+35,4.216023478145209e+38,-5.2610836756822706e+38
5.242096477,-1.1610127711365212e+34,4.212740457628966e+38,-5.231484274571663e+38
5.244096443,-1.8908271390409292e+35,4.209370077353919e+38,-5.2019021073479345e+38
5.246097576,-3.6564909650772334e+35,4.205912732110033e+38,-5.17233778345897e+38
5.248097542,-5.4130949351388195e+35,4.2023688181577734e+38,-5.142791911030585e+38
5.250097508,-7.160641382559369e+35,4.198738733246411e+38,-5.113265096804974e+38
5.252095941,-8.899132794373012e+35,4.195022876631659e+38,-5.083757946080301e+38
5.254095941,-1.0628571811645717e+36,4.191221649092651e+38,-5.0542710626515e+38
5.256095974,-1.234896122985317e+36,4.1873354529482524e+38,-5.024805048752356e+38
5.258096007,-1.4060303999303205e+36,4.183364692072707e+38,-4.995360504998892e+38
5.26009604,-1.576260322560072e+36,4.179309771910655e+38,-4.965938030334122e+38
5.262096073,-1.7455862170152997e+36,4.1751710994914976e+38,-4.9365382219741965e+38
5.264096106,-1.9140084250713343e+36,4.170949083443103e+38,-4.907161675355967e+38
5.266096139,-2.0815273041960798e+36,4.1666441340048544e+38,-4.8778089840860434e+38
5.268096172,-2.2481432276113486e+36,4.162256663040057e+38,-4.848480739891388e+38
5.270096205,-2.4138565843573396e+36,4.157787084047714e+38,-4.8191775325714494e+38
5.272096205,-2.5786677793600157e+36,4.1532358121737634e+38,-4.789899949951792e+38
5.274096205,-2.742577233501154e+36,4.148603264221814e+38,-4.760648577839128e+38
5.276096205,-2.9055853836908196e+36,4.143889858663442e+38,-4.7314239999776876e+38
5.278096205,-3.0676926829420116e+36,4.139096015648074e+38,-4.702226798006846e+38
5.280096205,-3.2288996004472276e+36,4.134222157012459e+38,-4.673057551419919e+38
5.282096605,-3.3892066216566894e+36,4.129268706289673e+38,-4.643916837524089e+38
5.284096605,-3.548614248357995e+36,4.124236088717567e+38,-4.614805231401398e+38
5.286096571,-3.707122998756932e+36,4.11912473124656e+38,-4.5857233058707354e+38
5.288096537,-3.8647334075592044e+36,4.113935062546697e+38,-4.556671631450798e+38
5.290096503,-4.0214460260528035e+36,4.108667513013824e+38,-4.527650776323991e+38
5.292097136,-4.1772614221907486e+36,4.103322514774741e+38,-4.498661306301272e+38
5.294097769,-4.332180180673904e+36,4.097900501691168e+38,-4.469703784787929e+38
5.296097735,-4.48620290303359e+36,4.092401909362406e+38,-4.440778772750287e+38
5.298097701,-4.639330207713699e+36,4.086827175126563e+38,-4.4118868286833704e+38
5.300097667,-4.7915627301519736e+36,4.081176738060244e+38,-4.383028508579477e+38
5.302097667,-4.942901122860108e+36,4.075451038976549e+38,-4.354204365897613e+38
5.3040977,-5.093346055502321e+36,4.0696505204212954e+38,-4.325414951533675e+38
5.306096566,-5.2428982149720526e+36,4.063775626667359e+38,-4.296660813791248e+38
5.308096599,-5.39155830546645e+36,4.057826803707102e+38,-4.267942498352941e+38
5.310096632,-5.53932704855826e+36,4.051804499242845e+38,-4.23926054825222e+38
5.312096665,-5.686205183264821e+36,4.045709162675353e+38,-4.210615503845674e+38
5.314096698,-5.832193466113746e+36,4.039541245090325e+38,-4.1820079027856904e+38
5.316096698,-5.977292671204994e+36,4.033301199242884e+38,-4.153438279993461e+38
5.318096698,-6.121503590268986e+36,4.026989479540072e+38,-4.124907167632312e+38
5.320096664,-6.264827032720469e+36,4.0206065420214036e+38,-4.0964150950813135e+38
5.32209663,-6.407263825707775e+36,4.0141528443375525e+38,-4.067962588909185e+38
5.324096596,-6.548814814157148e+36,4.007628845727238e+38,-4.039550172848499e+38
5.326096562,-6.689480860811889e+36,4.001035006992411e+38,-4.011178367770203e+38
5.328096528,-6.82926284626604e+36,3.9943717904718454e+38,-3.982847691658451e+38
5.330096494,-6.968161668992366e+36,3.987639660013229e+38,-3.954558659585707e+38
5.332096494,-7.106178245364324e+36,3.980839080943849e+38,-3.926311783688102e+38
5.334096494,-7.243313509671891e+36,3.973970520039956e+38,-3.898107573141074e+38
5.336096494,-7.379568414131061e+36,3.967034445494928e+38,-3.869946534135271e+38
5.338096494,-7.514943928886916e+36,3.960031326886344e+38,-3.8418291698527046e+38
5.340096494,-7.64944104201016e+36,3.952961635142094e+38,-3.813755980443147e+38
5.342096494,-7.783060759486954e+36,3.945825842505626e+38,-3.7857274630007684e+38
5.344096494,-7.915804105201967e+36,3.938624422500435e+38,-3.757744111541046e+38
5.346096094,-8.047672120914544e+36,3.931357849893876e+38,-3.7298064169779814e+38
5.348096094,-8.178665866227953e+36,3.924026600660346e+38,-3.7019148671016405e+38
5.350096127,-8.308786418551618e+36,3.916631151943911e+38,-3.674069946556016e+38
5.35209616,-8.438034873056163e+36,3.9091719820203906e+38,-3.64627213681725e+38
5.354096193,-8.566412342621084e+36,3.9016495702589676e+38,-3.618521916172253e+38
5.356096226,-8.693919957774891e+36,3.894064397083384e+38,-3.5908197596977676e+38
5.358096259,-8.820558866627521e+36,3.886416943932777e+38,-3.563166139239934e+38
5.360096292,-8.946330234794847e+36,3.878707693222224e+38,-3.535561523394448e+38
5.362096325,-9.071235245315063e+36,3.870937128303099e+38,-3.508006377487376e+38
5.364096325,-9.195275098556739e+36,3.86310573342329e+38,-3.48050116355671e+38
5.366096291,-9.31845101211835e+36,3.855213993687342e+38,-3.453046340334724e+38
5.368096257,-9.440764220719044e+36,3.847262395016564e+38,-3.4256423632311966e+38
5.370096223,-9.562215976080455e+36,3.8392514241091554e+38,-3.398289684317588e+38
5.372096189,-9.682807546799318e+36,3.8311815684004034e+38,-3.370988752312243e+38
5.374096155,-9.802540218210665e+36,3.823053316022977e+38,-3.3437400125667195e+38
5.376096121,-9.921415292241383e+36,3.8148671557673705e+38,-3.3165439070533237e+38
5.378096087,-1.0039434087253931e+37,3.806623577042527e+38,-3.2894008743539196e+38
5.380096087,-1.0156597937879974e+37,3.798323069836672e+38,-3.262311349650092e+38
5.38209612,-1.0272908194843708e+37,3.789966124678396e+38,-3.2352757647147023e+38
5.38409592,-1.0388366224774748e+37,3.7815532325980356e+38,-3.208294547904886e+38
5.386095953,-1.0502973410010464e+37,3.773084885089388e+38,-3.181368124156533e+38
5.388095986,-1.0616731148387598e+37,3.764561574071786e+38,-3.154496914980266e+38
5.390096019,-1.0729640853023197e+37,3.755983791852573e+38,-3.1276813384589134e+38
5.392096052,-1.0841703952085017e+37,3.7473520310899896e+38,-3.1009218092464665e+38
5.394096085,-1.0952921888551544e+37,3.7386667847564454e+38,-3.0742187385684935e+38
5.396096118,-1.1063296119961832e+37,3.729928546102186e+38,-3.0475725342239925e+38
5.398096118,-1.1172828118155317e+37,3.721137808619338e+38,-3.0209836005886614e+38
5.400096118,-1.1281519369001756e+37,3.712295066006284e+38,-2.9944523386195674e+38
5.402096118,-1.1389371372121419e+37,3.703400812132329e+38,-2.967979145861207e+38
5.404096118,-1.1496385640595736e+37,3.694455541002645e+38,-2.9415644164529402e+38
5.406096518,-1.1602563700668602e+37,3.685459746723493e+38,-2.9152085411377926e+38
5.408096518,-1.170790709143857e+37,3.676413923467716e+38,-2.888911907272579e+38
5.410096484,-1.1812417364542135e+37,3.66731856544049e+38,-2.8626748988393016e+38
5.412096484,-1.191609608382832e+37,3.658174166845304e+38,-2.8364978964577607e+38
5.414095717,-1.2018944825024864e+37,3.648981221850159e+38,-2.810381277399329e+38
5.416095717,-1.212096517539642e+37,3.639740224553955e+38,-2.784325415601821e+38
5.418095717,-1.2222158733395173e+37,3.6304516689530614e+38,-2.7583306816854005e+38
5.420095717,-1.2322527108304373e+37,3.62111604890811e+38,-2.7323974429694698e+38
5.422095717,-1.2422071919875304e+37,3.611733858111052e+38,-2.706526063490465e+38
5.424095717,-1.2520794797958278e+37,3.602305590052545e+38,-2.6807169040204902e+38
5.42609575,-1.2618697382128354e+37,3.592831737989707e+38,-2.6549703220867173e+38
5.42809575,-1.2715781321306403e+37,3.583312794914237e+38,-2.6292866719914933e+38
5.43009575,-1.281204827337612e+37,3.573749253520884e+38,-2.6036663048330798e+38
5.43209525,-1.2907499904797713e+37,3.564141606176229e+38,-2.5781095685269477e+38
5.43409525,-1.300213789021894e+37,3.55449034488773e+38,-2.5526168078275567e+38
5.43609525,-1.3095963912084053e+37,3.5447959612730076e+38,-2.5271883643505506e+38
5.43809525,-1.3188979660241365e+37,3.535058946529322e+38,-2.5018245765952947e+38
5.44009525,-1.3281186831550114e+37,3.5252797914031594e+38,-2.476525779967686e+38
5.442095216,-1.3372587129487196e+37,3.5154589861598435e+38,-2.4512923068031514e+38
5.444095416,-1.346318226375455e+37,3.5055970205530976e+38,-2.4261244863897765e+38
5.446095382,-1.35529739498879e+37,3.4956943837945204e+38,-2.4010226449915276e+38
5.448095348,-1.3641963908867592e+37,3.48575156452294e+38,-2.37598710587153e+38
5.450095314,-1.3730153866732253e+37,3.4757690507735976e+38,-2.3510181893153455e+38
5.45209528,-1.3817545554196028e+37,3.4657473299471275e+38,-2.326116212654212e+38
5.454095246,-1.3904140706270152e+37,3.455686888778281e+38,-2.3012814902882028e+38
5.456095212,-1.3989941061889487e+37,3.445588213304357e+38,-2.276514333709271e+38
5.458095212,-1.4074948363544588e+37,3.4354517888333015e+38,-2.2518150515241512e+38
5.460095245,-1.4159164356919882e+37,3.425278099911442e+38,-2.227183949477092e+38
5.462095278,-1.4242590790538541e+37,3.4150676302908416e+38,-2.2026213304723793e+38
5.464095311,-1.432522941541456e+37,3.404820862896294e+38,-2.1781274945966066e+38
5.466095344,-1.4407081984712363e+37,3.394538279791988e+38,-2.1537027391406785e+38
5.468095377,-1.448815025341421e+37,3.3842203621478558e+38,-2.1293473586215497e+38
5.47009541,-1.4568435977995696e+37,3.373867590205672e+38,-2.1050616448037018e+38
5.47209541,-1.4647940916109672e+37,3.363480443244954e+38,-2.0808458867203655e+38
5.474096176,-1.4726666826278827e+37,3.353059399548708e+38,-2.0567003706944902e+38
5.476096142,-1.4804615467597386e+37,3.342604936369026e+38,-2.032625380359452e+38
5.478096108,-1.488178859944228e+37,3.332117529892561e+38,-2.008621196679495e+38
5.480096074,-1.4958187981194002e+37,3.321597655205907e+38,-1.9846880979698785e+38
5.48209604,-1.5033815371967466e+37,3.311045786260894e+38,-1.9608263599167128e+38
5.484096006,-1.510867253035306e+37,3.3004623958398253e+38,-1.9370362555964293e+38
5.486095972,-1.518276121416814e+37,3.289847955520681e+38,-1.9133180554948526e+38
5.488095972,-1.5256083180219044e+37,3.279202935642316e+38,-1.8896720275258266e+38
5.490095972,-1.5328640184073692e+37,3.2685278052696866e+38,-1.8660984370493604e+38
5.492095972,-1.5400433979844782e+37,3.2578230321591437e+38,-1.842597546889258e+38
5.494095972,-1.5471466319983552e+37,3.2470890827238282e+38,-1.8191696173502025e+38
5.496095972,-1.5541738955084176e+37,3.236326421999204e+38,-1.7958149062342834e+38
5.498095972,-1.5611253633698956e+37,3.2255355136087947e+38,-1.772533668856959e+38
5.500095972,-1.5680012102164304e+37,3.2147168197301572e+38,-1.7493261580624628e+38
5.502095972,-1.5748016104437508e+37,3.203870801061148e+38,-1.7261926242386562e+38
5.504095972,-1.5815267381944098e+37,3.192997916786508e+38,-1.7031333153313455e+38
5.506096005,-1.588176767343584e+37,3.1820986245448036e+38,-1.6801484768580657e+38
5.508096038,-1.5947518714859412e+37,3.171173380395772e+38,-1.657238351921335e+38
5.510096071,-1.6012522239235837e+37,3.1602226387880775e+38,-1.6344031812213822e+38
5.512096104,-1.6076779976550732e+37,3.149246852527519e+38,-1.6116432030683333e+38
5.514096137,-1.6140293653655441e+37,3.1382464727457162e+38,-1.588958653393859e+38
5.51609617,-1.620306499417905e+37,3.1272219488693084e+38,-1.5663497657622689e+38
5.518096203,-1.6265095718451448e+37,3.1161737285896936e+38,-1.5438167713810401e+38
5.520096203,-1.6326387543437592e+37,3.1051022578333473e+38,-1.5213598991107771e+38
5.522096169,-1.6386942182683143e+37,3.09400798073272e+38,-1.4989793754746051e+38
5.524096135,-1.6446761346271607e+37,3.0828913395977187e+38,-1.4766754246669984e+38
5.526096101,-1.650584674079313e+37,3.0717527748877662e+38,-1.454448268562034e+38
5.528095667,-1.6564200069325131e+37,3.0605927251844396e+38,-1.4322981267210655e+38
5.530095633,-1.6621823031424945e+37,3.0494116271646892e+38,-1.410225216399803e+38
5.532095599,-1.6678717323134535e+37,3.0382099155746663e+38,-1.3882297525547864e+38
5.534095565,-1.6734884636997443e+37,3.0269880232041776e+38,-1.3663119478492343e+38
5.536095565,-1.679032666208797e+37,3.015746380861788e+38,-1.3444720126582355e+38
5.538095598,-1.684504508405251e+37,3.004485417350587e+38,-1.3227101550732577e+38
5.540095631,-1.6899041585162963e+37,2.9932055594446398e+38,-1.3010265809059365e+38
5.542095664,-1.6952317844382216e+37,2.9819072318661257e+38,-1.2794214936911212e+38
5.544095697,-1.7004875537441637e+37,2.970590857263194e+38,-1.2578950946891577e+38
5.54609573,-1.7056716336930444e+37,2.959256856188551e+38,-1.2364475828874045e+38
5.548095763,-1.710784191239688e+37,2.9479056470788106e+38,-1.215079155000982e+38
5.550095796,-1.7158253930461133e+37,2.9365376462346423e+38,-1.1937900054727647e+38
5.552097862,-1.720795405494e+37,2.9251532678017534e+38,-1.1725803264726264e+38
5.554097862,-1.725694394698322e+37,2.9137529237527378e+38,-1.1514503078959464e+38
5.556097862,-1.7305225265221344e+37,2.9023370238698303e+38,-1.1304001373613946e+38
5.558097862,-1.7352799665924902e+37,2.8909059757286254e+38,-1.1094300002080026e+38
5.560097862,-1.7399668803174725e+37,2.8794601846827937e+38,-1.0885400794915297e+38
5.562097862,-1.7445834329043088e+37,2.8680000538498164e+38,-1.067730555980136e+38
5.564097862,-1.7491297893785344e+37,2.8565259840977506e+38,-1.047001608149378e+38
5.566097828,-1.7536061146041534e+37,2.845038374033025e+38,-1.0263534121765395e+38
5.568097794,-1.7580125733047605e+37,2.833537619989249e+38,-1.0057861419343218e+38
5.57009776,-1.7623493300855948e+37,2.822024116017011e+38,-9.852999689839147e+37
5.572097726,-1.7666165494564867e+37,2.810498253874656e+38,-9.648950625674724e+37
5.574097692,-1.770814395855647e+37,2.798960423020018e+38,-9.44571589600006e+37
5.576097658,-1.7749430336742519e+37,2.7874110106030865e+38,-9.243297146607068e+37
5.578097624,-1.7790026272817884e+37,2.77585040145957e+38,-9.041695999837055e+37
5.58009759,-1.7829933410521376e+37,2.764278978105319e+38,-8.840914054482825e+37
5.582096723,-1.7869153393903593e+37,2.752697120731548e+38,-8.640952885685376e+37
5.584096756,-1.7907687867601538e+37,2.7411052072008404e+38,-8.441814044825239e+37
5.586096789,-1.794553847711962e+37,2.7295036130439206e+38,-8.243499059408576e+37
5.588097222,-1.7982706869116655e+37,2.717892711457205e+38,-8.046009432948163e+37
5.590097255,-1.8019194691698547e+37,2.706272873301138e+38,-7.849346644839421e+37
5.592097288,-1.805500359471634e+37,2.6946444670993232e+38,-7.653512150231673e+37
5.594097321,-1.809013523006943e+37,2.683007859038432e+38,-7.45850737989482e+37
5.596097354,-1.812459125201366e+37,2.6713634129688742e+38,-7.264333740081691e+37
5.598097354,-1.8158373317474008e+37,2.659711490406207e+38,-7.070992612386283e+37
5.60009732,-1.819148308636165e+37,2.6480524505332503e+38,-6.878485353598086e+37
5.602097286,-1.8223922221895175e+37,2.6363866502028855e+38,-6.686813295552685e+37
5.604097252,-1.825569239092579e+37,2.624714443941519e+38,-6.495977744978786e+37
5.606097218,-1.8286795264266137e+37,2.6130361839531832e+38,-6.305979983341806e+37
5.608097184,-1.8317232517022478e+37,2.6013522201242735e+38,-6.116821266684157e+37
5.61009715,-1.8347005828929786e+37,2.5896629000289084e+38,-5.928502825462295e+37
5.612095116,-1.8376116884689355e+37,2.5779685689348816e+38,-5.741025864380614e+37
5.614095116,-1.8404567374308608e+37,2.5662695698101625e+38,-5.554391562222257e+37
5.616095149,-1.8432358993442692e+37,2.554566243329917e+38,-5.368601071677004e+37
5.618095182,-1.8459493443737433e+37,2.5428589278840123e+38,-5.183655519166436e+37
5.620095215,-1.8485972433173203e+37,2.5311479595849892e+38,-4.999556004666564e+37
5.622095248,-1.851179767640916e+37,2.51943367227651e+38,-4.816303601528079e+37
5.624096214,-1.8536970895127245e+37,2.507716397542271e+38,-4.633899356294399e+37
5.626096247,-1.856149381837525e+37,2.4959964647153715e+38,-4.45234428851766e+37
5.62809628,-1.8585368182908284e+37,2.484274200888137e+38,-4.271639390572848e+37
5.630096313,-1.8608595733527994e+37,2.4725499309223944e+38,-4.0917856274702154e+37
5.632095646,-1.8631178223418963e+37,2.4608239774602046e+38,-3.9127839366661804e+37
5.634095646,-1.8653117414481808e+37,2.4490966609350266e+38,-3.73463522787287e+37
5.636095646,-1.8674415077662534e+37,2.4373682995832993e+38,-3.5573403828664633e+37
5.638095646,-1.8695072993277855e+37,2.425639209456422e+38,-3.3809002552944944e+37
5.640095646,-1.871509295133614e+37,2.4139097044331276e+38,-3.205315670482294e+37
5.642095646,-1.8734476751853659e+37,2.4021800962322548e+38,-3.030587425238752e+37
5.644095612,-1.875322620516585e+37,2.3904506944259256e+38,-2.8567162876616086e+37
5.646095578,-1.8771343132233265e+37,2.3787218064531214e+38,-2.683702996942444e+37
5.648095544,-1.8788829364941936e+37,2.3669937376336433e+38,-2.5115482631715675e+37
5.65009551,-1.880568674639782e+37,2.3552667911824495e+38,-2.340252767143001e+37
5.652095476,-1.8821917131215e+37,2.3435412682243564e+38,-2.1698171601597306e+37
5.654095042,-1.8837522385797307e+37,2.3318174678090894e+38,-2.0002420638394423e+37
5.656095008,-1.8852504388613136e+37,2.3200956869266755e+38,-1.8315280699209678e+37
5.658094974,-1.8866865030463234e+37,2.3083762205231656e+38,-1.663675740071679e+37
5.660094974,-1.8880606214741198e+37,2.2966593615166736e+38,-1.496685605696084e+37
5.662095007,-1.8893729857686537e+37,2.2849454008137185e+38,-1.3305581677458657e+37
5.66409504,-1.8906237888630145e+37,2.2732346273258468e+38,-1.1652938965316113e+37
5.666095073,-1.8918132250232e+37,2.261527327986494e+38,-1.0008932315364783e+37
5.668095106,-1.8929414898711017e+37,2.2498237877680397e+38,-8.373565812320554e+36
5.670095139,-1.8940087804066863e+37,2.2381242896990136e+38,-6.746843228966662e+36
5.672095172,-1.8950152950293672e+37,2.226429114881404e+38,-5.128768024363733e+36
5.674095205,-1.8959612335585567e+37,2.2147385425080155e+38,-3.519343342089341e+36
5.676095205,-1.8968467972533956e+37,2.2030528498798347e+38,-1.9185720085095902e+36
5.678095171,-1.897672188831658e+37,2.1913723124233423e+38,-3.264565310852129e+35
5.680095137,-1.8984376124878206e+37,2.179697203707716e+38,1.2570009032853078e+36
5.682095103,-1.8991432739102906e+37,2.1680277954618763e+38,2.8317984298831633e+36
5.684094136,-1.899789380297786e+37,2.1563643575913392e+38,4.397934507744804e+36
5.686094102,-1.900376140374876e+37,2.144707158194851e+38,5.95540792119332e+36
5.688094068,-1.9009037644066985e+37,2.1330564635807896e+38,7.504217781323251e+36
5.690094034,-1.9013724642128674e+37,2.1214125382833413e+38,9.044363527436483e+36
5.6920947,-1.9017824531805884e+37,2.1097756450784483e+38,1.0575844928426945e+37
5.694094733,-1.9021339462769855e+37,2.0981460449995136e+38,1.2098662084111836e+37
5.696094766,-1.9024271600606376e+37,2.0865239973528713e+38,1.361281542650722e+37
5.698094799,-1.902662312692326e+37,2.0749097597330563e+38,1.5118305721045934e+37
5.700094832,-1.9028396239450082e+37,2.063303588037885e+38,1.6615134067735873e+37
5.702095732,-1.90295931521304e+37,2.0517057364833642e+38,1.810330190225682e+37
5.704095765,-1.903021609520681e+37,2.040116457618441e+38,1.9582810996994048e+37
5.706095798,-1.903026731529921e+37,2.0285360023395936e+38,2.1053663462006965e+37
5.708095831,-1.9029749075476593e+37,2.0169646199052417e+38,2.2515861745931204e+37
5.710095831,-1.9028663655322692e+37,2.0054025579499703e+38,2.3969408636812437e+37
5.712095831,-1.9027013350995651e+37,1.9938500624985735e+38,2.5414307262870327e+37
5.714096231,-1.9024800475282011e+37,1.9823073779799123e+38,2.685056109319092e+37
5.716096231,-1.9022027357645218e+37,1.9707747472405936e+38,2.827817393834591e+37
5.718096231,-1.9018696344268822e+37,1.9592524115584707e+38,2.969714995093742e+37
5.720096231,-1.9014809798094656e+37,1.947740610655966e+38,3.1107493626066767e+37
5.722096197,-1.9010370098856323e+37,1.936239582713199e+38,3.2509209801725648e+37
5.724096163,-1.900537964310827e+37,1.924749564380917e+38,3.390230365910839e+37
5.726096129,-1.8999840844250662e+37,1.9132707907932214e+38,3.5286780722844114e+37
5.728096095,-1.899375613255024e+37,1.9018034955800862e+38,3.6662646861147974e+37
5.730096061,-1.8987127955157512e+37,1.890347910879668e+38,3.8029908285890624e+37
5.732096894,-1.897995877612053e+37,1.8789042673504072e+38,3.9388571552584824e+37
5.73409686,-1.8972251076395448e+37,1.8674727941829056e+38,4.0738643560288246e+37
5.736096826,-1.896400735385393e+37,1.8560537191115777e+38,4.2080131551421563e+37
5.738096826,-1.8955230123287602e+37,1.844647268426078e+38,4.341304311150105e+37
5.740096826,-1.8945921916409608e+37,1.8332536669825017e+38,4.473738616878517e+37
5.742096859,-1.893608528185324e+37,1.8218731382143465e+38,4.6053168993834805e+37
5.744096892,-1.8925722785167456e+37,1.8105059041432298e+38,4.736040019898703e+37
5.746096925,-1.8914837008809045e+37,1.799152185389355e+38,4.865908873774185e+37
5.748096958,-1.890343055213112e+37,1.7878122011817207e+38,4.994924390406167e+37
5.750096991,-1.8891506031367684e+37,1.7764861693680467e+38,5.123087533158255e+37
5.752097024,-1.8879066079614047e+37,1.7651743064243867e+38,5.250399299273707e+37
5.754097024,-1.8866113346802833e+37,1.753876827464396e+38,5.376860719778803e+37
5.75609659,-1.8852650499675476e+37,1.7425939462482104e+38,5.50247285937724e+37
5.758096556,-1.8838680221749029e+37,1.7313258751908965e+38,5.627236816335532e+37
5.760096522,-1.8824205213278088e+37,1.720072825370452e+38,5.751153722359417e+37
5.762096488,-1.8809228191211494e+37,1.708835006535339e+38,5.874224742461313e+37
5.764096454,-1.8793751889143522e+37,1.6976126271115467e+38,5.996451074818904e+37
5.76609642,-1.8777779057259293e+37,1.6864058942091729e+38,6.117833950624913e+37
5.768095986,-1.8761312462274117e+37,1.6752150136285197e+38,6.238374633928134e+37
5.770095986,-1.8744354887366477e+37,1.6640401898657061e+38,6.358074421465718e+37
5.772096019,-1.87269091321043e+37,1.6528816261177864e+38,6.476934642486709e+37
5.774096052,-1.870897801236407e+37,1.6417395242873619e+38,6.594956658566818e+37
5.776096085,-1.8690564360242284e+37,1.6306140849866916e+38,6.712141863414445e+37
5.778096118,-1.8671671023958689e+37,1.619505507541296e+38,6.828491682667914e+37
5.780096151,-1.865230086775081e+37,1.6084139899930661e+38,6.944007573683901e+37
5.782096184,-1.863245677175923e+37,1.5973397291028693e+38,7.058691025317038e+37
5.784096217,-1.8612141631903098e+37,1.5862829203526643e+38,7.172543557690719e+37
5.78609625,-1.8591358359745243e+37,1.5752437579471342e+38,7.285566721959099e+37
5.78809625,-1.8570109882346381e+37,1.5642224348148669e+38,7.397762100060351e+37
5.79009625,-1.8548399142107873e+37,1.5532191426091136e+38,7.509131304461253e+37
5.79209625,-1.8526229096602682e+37,1.5422340717081545e+38,7.61967597789314e+37
5.79409625,-1.85036027183943e+37,1.531267411215299e+38,7.729397793079263e+37
5.79609625,-1.848052299484368e+37,1.5203193489585471e+38,7.838298452453601e+37
5.79809625,-1.8456992927904114e+37,1.5093900714899363e+38,7.9463796878711715e+37
5.80009625,-1.8433015533904078e+37,1.4984797640846096e+38,8.053643260309893e+37
5.802096216,-1.8408593843318201e+37,1.4875886107396365e+38,8.160090959564101e+37
5.804096182,-1.8383730900526479e+37,1.4767167941726247e+38,8.265724603929759e+37
5.806096148,-1.835842976356189e+37,1.465864495820154e+38,8.370546039881441e+37
5.808096114,-1.8332693503846667e+37,1.4550318958360597e+38,8.474557141741159e+37
5.81009608,-1.8306525205917579e+37,1.4442191730895986e+38,8.577759811339076e+37
5.812096046,-1.8279927967140556e+37,1.4334265051635413e+38,8.680155977666092e+37
5.814096012,-1.8252904897414896e+37,1.4226540683522321e+38,8.781747596518377e+37
5.816096412,-1.8225459118867464e+37,1.4119020376596503e+38,8.882536650133881e+37
5.818096412,-1.819759376553722e+37,1.401170586797506e+38,8.98252514682075e+37
5.820096445,-1.8169311983050503e+37,1.3904598881833995e+38,9.081715120577618e+37
5.822096945,-1.8140616928287588e+37,1.3797701129390714e+38,9.180108630705803e+37
5.824096978,-1.8111511769040923e+37,1.3691014308887691e+38,9.277707761413442e+37
5.826097011,-1.8081999683665478e+37,1.3584540105577524e+38,9.374514621411601e+37
5.828097444,-1.8052083860721537e+37,1.3478280191709541e+38,9.470531343502354e+37
5.830097477,-1.8021767498610344e+37,1.3372236226518125e+38,9.565760084158857e+37
5.83209681,-1.7991053805203038e+37,1.3266409856212887e+38,9.66020302309744e+37
5.834096776,-1.7959945997463218e+37,1.3160802713970751e+38,9.753862362841782e+37
5.836096742,-1.792844730106353e+37,1.305541641992989e+38,9.846740328279213e+37
5.838096708,-1.789656094999673e+37,1.29502525811855e+38,9.938839166209171e+37
5.840096674,-1.7864290186181748e+37,1.2845312791787226e+38,1.0030161144883925e+38
5.84209664,-1.7831638259065132e+37,1.2740598632738153e+38,1.0120708553541667e+38
5.844096606,-1.7798608425218142e+37,1.2636111671995258e+38,1.021048370193207e+38
5.846096572,-1.7765203947929736e+37,1.2531853464471267e+38,1.0299488919834427e+38
5.848096572,-1.7731428096795725e+37,1.2427825552037864e+38,1.0387726556568518e+38
5.850096605,-1.769728414730447e+37,1.2324029463530219e+38,1.0475198980498364e+38
5.852096638,-1.7662775380419348e+37,1.2220466714752852e+38,1.056190857852896e+38
5.854096671,-1.7627905082158257e+37,1.2117138808486875e+38,1.0647857755595978e+38
5.856096704,-1.7592676543170395e+37,1.2014047234498452e+38,1.0733048934148543e+38
5.858096737,-1.7557093058310433e+37,1.1911193469548332e+38,1.0817484553625205e+38
5.86009677,-1.7521157926210202e+37,1.1808578977402358e+38,1.0901167069923301e+38
5.862096803,-1.7484874448848118e+37,1.1706205208842899e+38,1.0984098954861734e+38
5.864096836,-1.744824593111653e+37,1.1604073601681233e+38,1.1066282695637306e+38
5.866096836,-1.7411275680387137e+37,1.1502185580770884e+38,1.114772079427469e+38
5.868096836,-1.7373967006074783e+37,1.1400542558021926e+38,1.1228415767070243e+38
5.870096836,-1.7336323219199972e+37,1.1299145932416145e+38,1.1308370144029918e+38
5.872096836,-1.72983476319505e+37,1.119799709002308e+38,1.1387586468301556e+38
5.874096836,-1.726004355724249e+37,1.1097097404016975e+38,1.146606729560191e+38
5.876096836,-1.7221414308281064e+37,1.0996448234694734e+38,1.1543815193638902e+38
5.878096836,-1.718246319812086e+37,1.0896050929494896e+38,1.1620832741529589e+38
5.880096802,-1.7143193539226653e+37,1.0795906823017634e+38,1.1697122529214294e+38
5.882097168,-1.710360864303438e+37,1.069601723704577e+38,1.17726871568674e+38
5.884097134,-1.706371181951282e+37,1.0596383480566674e+38,1.1847529234305287e+38
5.8860971,-1.70235063767262e+37,1.0497006849794948e+38,1.1921651380391967e+38
5.888097066,-1.698299562039798e+37,1.0397888628195906e+38,1.1995056222442901e+38
5.890097032,-1.6942182853476104e+37,1.0299030086509739e+38,1.2067746395627533e+38
5.892097665,-1.69010713757e+37,1.0200432482776284e+38,1.213972454237113e+38
5.894097665,-1.6859664483169746e+37,1.0102097062360289e+38,1.2210993311756541e+38
5.896097665,-1.6817965467917698e+37,1.0004025057977163e+38,1.228155535892648e+38
5.898097698,-1.6775977617483112e+37,9.906217689719225e+37,1.2351413344486822e+38
5.900097731,-1.6733704214490071e+37,9.808676165082485e+37,1.242056993391149e+38
5.902097764,-1.6691148536228897e+37,9.711401678993945e+37,1.2489027796949573e+38
5.904097797,-1.6648313854241054e+37,9.614395413839406e+37,1.2556789607035344e+38
5.90609783,-1.6605203433907677e+37,9.517658539491731e+37,1.262385804070181e+38
5.908097863,-1.656182053404179e+37,9.4211922133394e+37,1.2690235776998374e+38
5.910097863,-1.6518168406484354e+37,9.324997580315287e+37,1.275592549691313e+38
5.912097829,-1.6474250295704392e+37,9.229075772925594e+37,1.2820929882800292e+38
5.914097795,-1.6430069438403467e+37,9.133427911278945e+37,1.2885251617813123e+38
5.916097761,-1.6385629063124612e+37,9.038055103115594e+37,1.2948893385342733e+38
5.918097727,-1.634093238986583e+37,8.942958443836624e+37,1.3011857868462991e+38
5.920097693,-1.6295982629698269e+37,8.848139016533002e+37,1.3074147749381875e+38
5.922097659,-1.6250782984389178e+37,8.753597892014339e+37,1.3135765708899416e+38
5.924097625,-1.620533664602972e+37,8.659336128837185e+37,1.3196714425872329e+38
5.926097625,-1.6159646796667545e+37,8.565354773332755e+37,1.3256996576685345e+38
5.928097625,-1.6113716607944097e+37,8.471654859633964e+37,1.3316614834729324e+38
5.930097625,-1.6067549240736621e+37,8.378237409701639e+37,1.3375571869886245e+38
5.932097625,-1.6021147844804833e+37,8.285103433349786e+37,1.3433870348021344e+38
5.934097625,-1.5974515558442337e+37,8.192253928269931e+37,1.3491512930482657e+38
5.936097625,-1.5927655508132757e+37,8.099689880054466e+37,1.3548502273608313e+38
5.938097625,-1.588057080821064e+37,8.00741226221894e+37,1.3604841028241827e+38
5.940097625,-1.5833264560527216e+37,7.91542203622325e+37,1.3660531839255724e+38
5.942096358,-1.578573985412124e+37,7.823720151491781e+37,1.3715577345083804e+38
5.944096391,-1.5737999764895017e+37,7.732307545432443e+37,1.3769980177262432e+38
5.946096424,-1.569004735529586e+37,7.641185143454628e+37,1.3823742959981181e+38
5.948096457,-1.564188567400346e+37,7.550353858986046e+37,1.3876868309643233e+38
5.95009649,-1.5593517755623458e+37,7.459814593488461e+37,1.3929358834435927e+38
5.952096723,-1.5544946620387463e+37,7.369568236472331e+37,1.3981217133911832e+38
5.954096756,-1.549617527385979e+37,7.279615665510389e+37,1.4032445798580754e+38
5.956096789,-1.5447206706651115e+37,7.189957746250168e+37,1.4083047409512978e+38
5.958096789,-1.5398043894139367e+37,7.100595332425507e+37,1.4133024537954017e+38
5.960096755,-1.534868979619821e+37,7.011529265867051e+37,1.4182379744951126e+38
5.962096721,-1.529914735693336e+37,6.922760376511751e+37,1.423111558099185e+38
5.964096687,-1.5249419504427172e+37,6.834289482411436e+37,1.427923458565469e+38
5.966096653,-1.51995091504918e+37,6.746117389740518e+37,1.4326739287271964e+38
5.968096619,-1.5149419190431346e+37,6.658244892802905e+37,1.4373632202604905e+38
5.970096585,-1.5099152502813358e+37,6.570672774038206e+37,1.4419915836531176e+38
5.972096585,-1.5048711949250139e+37,6.483401804027345e+37,1.4465592681744941e+38
5.974096585,-1.4998100374190269e+37,6.396432741497666e+37,1.4510665218469619e+38
5.976096618,-1.4947320604720623e+37,6.309766333327583e+37,1.4555135914183388e+38
5.978096651,-1.4896375450379045e+37,6.223403314550824e+37,1.4599007223357506e+38
5.980096684,-1.484526770297773e+37,6.137344408360349e+37,1.4642281587207508e+38
5.982096717,-1.479400013643732e+37,6.051590326111954e+37,1.4684961433457319e+38
5.98409675,-1.4742575506631685e+37,5.966141767327671e+37,1.4727049176116218e+38
5.986096783,-1.4690996551243274e+37,5.88099941969903e+37,1.4768547215268686e+38
5.988096816,-1.4639265989628918e+37,5.796163959090282e+37,1.480945793687718e+38
5.990096849,-1.4587386522695957e+37,5.711636049541667e+37,1.4849783712597925e+38
5.992096849,-1.4535360832788655e+37,5.627416343272791e+37,1.4889526899609855e+38
5.994096849,-1.4483191583584745e+37,5.54350548068619e+37,1.492868984045684e+38
5.996096849,-1.4430881420001735e+37,5.459904090371171e+37,1.4967274862903318e+38
5.998096849,-1.437843296811266e+37,5.37661278910798e+37,1.5005284279803333e+38
6.000096849,-1.4325848835070832e+37,5.293632181872437e+37,1.504272038898315e+38
6.002097249,-1.4273131609043115e+37,5.210962861841199e+37,1.5079585473137588e+38
6.004097215,-1.422028385915143e+37,5.128605410397831e+37,1.5115881799740126e+38
6.006097181,-1.4167308135422053e+37,5.046560397139852e+37,1.5151611620966751e+38
6.008097147,-1.411420696874232e+37,4.964828379886883e+37,1.518677717363364e+38
6.010097113,-1.4060982870824513e+37,4.883409904689959e+37,1.522138067914877e+38
6.012096879,-1.4007638334176728e+37,4.80230550584206e+37,1.525542434347756e+38
6.014096845,-1.3954175832080516e+37,4.721515705889894e+37,1.5288910357122568e+38
6.016096811,-1.3900597818575066e+37,4.641041015647032e+37,1.532184089511729e+38
6.018096777,-1.384690672844784e+37,4.560881934208455e+37,1.535421811703401e+38
6.020096777,-1.3793104977231532e+37,4.481038948966571e+37,1.5386044167005654e+38
6.02209681,-1.3739194961207182e+37,4.401512535628696e+37,1.5417321173761499e+38
6.024096843,-1.3685179057413414e+37,4.322303158236008e+37,1.5448051250676557e+38
6.026096876,-1.3631059623661908e+37,4.243411269183976e+37,1.5478236495834488e+38
6.028096909,-1.3576838998559102e+37,4.1648373092442805e+37,1.5507878992103784e+38
6.030096942,-1.3522519501534113e+37,4.0865817075882543e+37,1.5536980807227028e+38
6.032096075,-1.346810343287296e+37,4.0086448818118753e+37,1.5565543993922936e+38
6.034096108,-1.3413593073759185e+37,3.9310272379623666e+37,1.5593570590000965e+38
6.036096108,-1.3358990686320914e+37,3.85372917056647e+37,1.5621062618488144e+38
6.038096074,-1.3304298513684418e+37,3.7767510626604343e+37,1.5648022087767799e+38
6.04009564,-1.3249518780034103e+37,3.7000932858217665e+37,1.5674450991729899e+38
6.042095606,-1.3194653690678961e+37,3.623756200202789e+37,1.5700351309932747e+38
6.044095872,-1.3139705432125582e+37,3.5477401545660316e+37,1.5725725007775586e+38
6.046095838,-1.3084676172157618e+37,3.4720454863214477e+37,1.5750574036681676e+38
6.048095804,-1.3029568059921693e+37,3.3966725215654586e+37,1.577490033429142e+38
6.05009577,-1.2974383226019663e+37,3.3216215751218113e+37,1.5798705824665204e+38
6.05209577,-1.2919123782607005e+37,3.246892950584239e+37,1.5821992418495781e+38
6.054095803,-1.2863791823497035e+37,3.1724869403608957e+37,1.5844762013330132e+38
6.056095836,-1.2808389424270542e+37,3.0984038257205233e+37,1.5867016493800692e+38
6.058095469,-1.2752918642390557e+37,3.0246438768402713e+37,1.5888757731865867e+38
6.060095502,-1.2697381517322003e+37,2.951207352855093e+37,1.5909987587059794e+38
6.062095335,-1.2641780070655985e+37,2.8780945019086484e+37,1.5930707906751283e+38
6.064095368,-1.258611630623841e+37,2.8053055612056557e+37,1.595092052641174e+38
6.066095401,-1.2530392210302758e+37,2.7328407570656494e+37,1.5970627269891846e+38
6.068095434,-1.2474609751606905e+37,2.6607003049780965e+37,1.5989829949706626e+38
6.070095434,-1.2418770881573879e+37,2.588884409658827e+37,1.6008530367328474e+38
6.072095434,-1.236287753443654e+37,2.5173932651077824e+37,1.6026730313487736e+38
6.074095434,-1.2306931627386144e+37,2.4462270546680726e+37,1.6044431568480398e+38
6.076095434,-1.2250935060724649e+37,2.37538595108633e+37,1.6061635902482499e+38
6.078095434,-1.2194889718020552e+37,2.304870116574363e+37,1.6078345075870979e+38
6.080095434,-1.2138797466268017e+37,2.234679702872105e+37,1.6094560839550661e+38
6.0820954,-1.2082660156049093e+37,2.164814851311841e+37,1.6110284935286892e+38
6.084095366,-1.2026479621698945e+37,2.0952756928836577e+37,1.612551909604343e+38
6.086095332,-1.197025768147404e+37,2.0260623483020521e+37,1.6140265046325214e+38
6.088095298,-1.1913996137723236e+37,1.9571749280736606e+37,1.615452450252559e+38
6.090095264,-1.1857696777061712e+37,1.8886135325660452e+37,1.616829917327775e+38
6.09209613,-1.1801361370547752e+37,1.8203782520774947e+37,1.6181590759810214e+38
6.094096096,-1.1744991673862354e+37,1.752469166907788e+37,1.619440095630608e+38
6.096096062,-1.1688589427491523e+37,1.6848863474298626e+37,1.620673145026564e+38
6.098096062,-1.1632156356911168e+37,1.6176298541623356e+37,1.6218583922871867e+38
6.100096495,-1.1575694172774388e+37,1.5506997378428225e+37,1.6229960049358492e+38
6.102096528,-1.1519204571100895e+37,1.4840960395019972e+37,1.6240861499380475e+38
6.104096261,-1.1462689233468235e+37,1.4178187905383418e+37,1.6251289937386718e+38
6.106096294,-1.1406149827204438e+37,1.35186801279354e+37,1.6261247022994877e+38
6.108096327,-1.134958800558177e+37,1.2862437186284823e+37,1.627073441136805e+38
6.11009636,-1.12930054080112e+37,1.2209459109998443e+37,1.6279753753593155e+38
6.112096393,-1.123640366023728e+37,1.1559745835371895e+37,1.6288306697060772e+38
6.114096393,-1.1179784374533088e+37,1.0913297206205634e+37,1.629639488584617e+38
6.116096359,-1.1123149149894916e+37,1.0270112974585442e+37,1.630401996109146e+38
6.118096725,-1.106649957223633e+37,9.630192801667129e+36,1.6311183561388754e+38
6.120096691,-1.1009837214581173e+37,8.993536258465125e+36,1.6317887323164021e+38
6.122096491,-1.095316363725521e+37,8.360142826644571e+36,1.6324132881061428e+38
6.124096457,-1.0896480388076009e+37,7.7300118993166e+36,1.632992186832785e+38
6.126096423,-1.0839789002540774e+37,7.103142781836481e+36,1.6335255917197215e+38
6.128096389,-1.078309100401181e+37,6.479534692604211e+36,1.6340136659274256e+38
6.130096389,-1.072638790389936e+37,5.859186763867218e+36,1.6344565725917187e+38
6.132096422,-1.066968120184142e+37,5.2420980425247056e+36,1.6348544748618957e+38
6.134096455,-1.0612972385880151e+37,4.628267490933306e+36,1.6352075359386642e+38
6.136096488,-1.0556262932634533e+37,4.017693987713721e+36,1.6355159191118507e+38
6.138096521,-1.0499554307469053e+37,3.4103763285580344e+36,1.635779787797811e+38
6.140096554,-1.0442847964658211e+37,2.806313227037375e+36,1.6359993055764777e+38
6.142096587,-1.0386145347546619e+37,2.2055033154095926e+36,1.6361746362279722e+38
6.14409662,-1.0329447888704535e+37,1.6079451454266253e+36,1.6363059437687126e+38
6.146096653,-1.0272757010078611e+37,1.0136371891412209e+36,1.6363933924869683e+38
6.148096653,-1.021607412313775e+37,4.2257783971266786e+35,1.636437146977819e+38
6.150096653,-1.0159400629014027e+37,-1.6523458778882988e+35,1.6364373721774666e+38
6.152096286,-1.0102737918638632e+37,-7.498018555795081e+35,1.6363942333968745e+38
6.154096286,-1.0046087372872759e+37,-1.331125802361518e+36,1.6363078963546902e+38
6.156096752,-9.989450362633433e+36,-1.9092083425249168e+36,1.6361785272094291e+38
6.158096752,-9.932828249014194e+36,-2.484051465352562e+36,1.6360062925908943e+38
6.160096718,-9.876222383400613e+36,-3.055657234228313e+36,1.6357913596308029e+38
6.162096684,-9.819634107580582e+36,-3.6240277858489305e+36,1.6355338959925895e+38
6.16409665,-9.763064753849346e+36,-4.1891653294400765e+36,1.635234069900337e+38
6.166096616,-9.706515645109287e+36,-4.751072145976854e+36,1.6348920501667832e+38
6.168096582,-9.649988094964496e+36,-5.309750587409281e+36,1.6345080062203641e+38
6.170096548,-9.593483407810192e+36,-5.865203075893109e+36,1.6340821081312649e+38
6.172096514,-9.537002878917116e+36,-6.41743210302643e+36,1.6336145266364644e+38
6.17409648,-9.480547794511003e+36,-6.966440229092548e+36,1.6331054331637687e+38
6.17609648,-9.424119431847275e+36,-7.512230082309558e+36,1.6325549998548405e+38
6.178096513,-9.36771905928111e+36,-8.054804358087162e+36,1.6319633995872268e+38
6.180096546,-9.311347936333099e+36,-8.594165818291284e+36,1.6313308059953797e+38
6.182097679,-9.255007313750756e+36,-9.130317290517037e+36,1.6306573934906599e+38
6.184097712,-9.198698433566145e+36,-9.663261667370581e+36,1.6299433372802973e+38
6.186097745,-9.142422529149944e+36,-1.0193001905760433e+37,1.6291888133852891e+38
6.188097778,-9.086180825262285e+36,-1.0719541026198842e+37,1.628393998657228e+38
6.190097811,-9.029974538100665e+36,-1.124288211211385e+37,1.6275590707940514e+38
6.192097811,-8.973804875345202e+36,-1.1763028309172755e+37,1.6266842083547059e+38
6.194097777,-8.917673036201545e+36,-1.227998282461758e+37,1.6257695907727186e+38
6.196097477,-8.861580211441746e+36,-1.2793748926613162e+37,1.6248153983686859e+38
6.198097443,-8.805527583443348e+36,-1.330432994360845e+37,1.6238218123616866e+38
6.200097043,-8.749516326226988e+36,-1.3811729263711571e+37,1.6227890148796144e+38
6.202097009,-8.693547605492748e+36,-1.4315950334079377e+37,1.6217171889684224e+38
6.204096975,-8.637622578655441e+36,-1.4816996660321919e+37,1.620606518600281e+38
6.206096941,-8.581742394878999e+36,-1.5314871805922268e+37,1.6194571886806525e+38
6.208096941,-8.525908195110095e+36,-1.580957939167202e+37,1.6182693850542806e+38
6.210096974,-8.470121112111042e+36,-1.6301123095123008e+37,1.6170432945100813e+38
6.212097307,-8.414382270492073e+36,-1.6789506650055735e+37,1.6157791047849257e+38
6.21409734,-8.358692786743104e+36,-1.7274733845965013e+37,1.61447700456631e+38
6.216096906,-8.303053769265089e+36,-1.7756808527563268e+37,1.613137183493912e+38
6.218096939,-8.247466318401108e+36,-1.8235734594301932e+37,1.6117598321600225e+38
6.220096972,-8.191931526467252e+36,-1.8711515999911337e+37,1.610345142108858e+38
6.222097005,-8.136450477783403e+36,-1.9184156751959324e+37,1.6088933058347676e+38
6.224097371,-8.081024248703866e+36,-1.9653660911428877e+37,1.60740451677935e+38
6.226097371,-8.025653907647908e+36,-2.012003259231494e+37,1.6058789693274986e+38
6.228097371,-7.970340515130167e+36,-2.058327596124059e+37,1.6043168588023868e+38
6.230097371,-7.915085123790887e+36,-2.1043395237092558e+37,1.6027183814594229e+38
6.232096704,-7.859888778425951e+36,-2.1500394690676204e+37,1.601083734479206e+38
6.234096037,-7.804752516016736e+36,-2.195427864439e+37,1.5994131159595246e+38
6.236096037,-7.749677365759836e+36,-2.240505147191959e+37,1.5977067249064482e+38
6.238096003,-7.694664349096688e+36,-2.2852717597951346e+37,1.5959647612245714e+38
6.240095969,-7.639714479743223e+36,-2.329728149790534e+37,1.5941874257064704e+38
6.242095202,-7.584828763719624e+36,-2.373874769768786e+37,1.5923749200214392e+38
6.244094468,-7.530008199380283e+36,-2.4177120773463644e+37,1.5905274467035599e+38
6.246094434,-7.475253777443999e+36,-2.461240535144813e+37,1.5886452091391532e+38
6.2480944,-7.420566481024492e+36,-2.5044606107719997e+37,1.586728411553646e+38
6.250094366,-7.365947285661337e+36,-2.5473727768054215e+37,1.5847772589978987e+38
6.252094332,-7.311397159351344e+36,-2.5899775107775927e+37,1.5827919573340226e+38
6.254094132,-7.25691706258039e+36,-2.6322752951635393e+37,1.5807727132207255e+38
6.256094432,-7.202507948355713e+36,-2.674266617370417e+37,1.5787197340982293e+38
6.258094465,-7.148170762238661e+36,-2.715951969729281e+37,1.576633228172804e+38
6.260094865,-7.093906442377932e+36,-2.7573318494890386e+37,1.57451340440094e+38
6.262094898,-7.039715919543316e+36,-2.798406758812617e+37,1.5723604724731869e+38
6.264094931,-6.985600117159966e+36,-2.8391772047753485e+37,1.5701746427976904e+38
6.266094964,-6.93155995134318e+36,-2.879643699365588e+37,1.5679561264834497e+38
6.268094997,-6.877596330933683e+36,-2.919806759487564e+37,1.5657051353233231e+38
6.270094997,-6.823710157533336e+36,-2.9596669069664594e+37,1.5634218817768098e+38
6.27209503,-6.769902325541209e+36,-2.999224668555716e+37,1.5611065789526325e+38
6.274094996,-6.716173722190019e+36,-3.0384805759465653e+37,1.5587594405911413e+38
6.276094962,-6.662525227582928e+36,-3.077435165779784e+37,1.5563806810465668e+38
6.278094928,-6.608957714730787e+36,-3.116088979659674e+37,1.5539705152691506e+38
6.280094894,-6.555472049589907e+36,-3.1544425641702272e+37,1.5515291587871896e+38
6.28209486,-6.502069091100507e+36,-3.1924964708934335e+37,1.5490568276890234e+38
6.284094093,-6.448749691225846e+36,-3.230251256429658e+37,1.5465537386049907e+38
6.286094093,-6.395514694992154e+36,-3.2677074824199924e+37,1.5440201086893816e+38
6.288094126,-6.342364940529453e+36,-3.304865715570485e+37,1.541456155602411e+38
6.290094159,-6.289301259113394e+36,-3.3417265276781516e+37,1.5388620974922378e+38
6.292094859,-6.236324475208179e+36,-3.3782904956586464e+37,1.5362381529770493e+38
6.294095559,-6.18343540651073e+36,-3.414558201575505e+37,1.5335845411272349e+38
6.296095592,-6.130634863996242e+36,-3.450530232670855e+37,1.530901481447667e+38
6.298095625,-6.077923651965238e+36,-3.4862071813975023e+37,1.528189193860115e+38
6.300095658,-6.025302568092152e+36,-3.521589645452313e+37,1.5254478986858134e+38
6.302094791,-5.972772403475514e+36,-3.556678227810791e+37,1.5226778166282e+38
6.304095491,-5.920333942689775e+36,-3.591473536762742e+37,1.5198791687558312e+38
6.306095491,-5.867987963838768e+36,-3.6259761859488673e+37,1.5170521764854852e+38
6.308095491,-5.815735238610793e+36,-3.6601867943981363e+37,1.5141970615654594e+38
6.310095491,-5.763576532335251e+36,-3.6941059865657788e+37,1.5113140460590625e+38
6.312095491,-5.711512604040712e+36,-3.727734392371743e+37,1.5084033523283002e+38
6.314095691,-5.659544206514338e+36,-3.761072647239446e+37,1.5054652030177477e+38
6.316095657,-5.607672086362514e+36,-3.794121392134648e+37,1.5024998210385926e+38
6.318095623,-5.555896984072566e+36,-3.8268812736042925e+37,1.4995074295528289e+38
6.320095589,-5.504219634075456e+36,-3.8593529438151544e+37,1.4964882519575989e+38
6.322095555,-5.452640764809428e+36,-3.8915370605921217e+37,1.493442511869687e+38
6.324095521,-5.401161098784507e+36,-3.923434287455906e+37,1.4903704331101726e+38
6.326095487,-5.349781352647834e+36,-3.9550452936599986e+37,1.4872722396892367e+38
6.328095453,-5.298502237249807e+36,-3.986370754226691e+37,1.4841481557911185e+38
6.330095419,-5.24732445771097e+36,-4.017411349981989e+37,1.4809984057592151e+38
6.332095852,-5.1962487134895783e+36,-4.048167767589237e+37,1.477823214081327e+38
6.334095885,-5.145275698449825e+36,-4.0786406995812996e+37,1.4746228053750464e+38
6.336095918,-5.0944061009306534e+36,-4.108830844391152e+37,1.471397404373294e+38
6.338095951,-5.0436406038151294e+36,-4.138738906380733e+37,1.4681472359100006e+38
6.340095984,-4.992979884600356e+36,-4.168365595867922e+37,1.4648725249059346e+38
6.342096017,-4.9424246154678795e+36,-4.197711629151512e+37,1.461573496354676e+38
6.34409645,-4.89197546335451e+36,-4.226777728534035e+37,1.4582503753087402e+38
6.346096483,-4.8416330900234074e+36,-4.25556462234231e+37,1.4549033868658459e+38
6.348096483,-4.791398152135329e+36,-4.2840730449456035e+37,1.4515327561553234e+38
6.350096449,-4.7412713013199345e+36,-4.312303736771292e+37,1.448138708324672e+38
6.352096415,-4.691253184247069e+36,-4.340257444317915e+37,1.4447214685262855e+38
6.354096381,-4.641344442697954e+36,-4.367934920165445e+37,1.441281261904367e+38
6.356096347,-4.5915457136362045e+36,-4.395336922982578e+37,1.4378183135820544e+38
6.358096313,-4.541857629278593e+36,-4.422464217530847e+37,1.4343328486487655e+38
6.360096279,-4.4922808171654974e+36,-4.449317574665307e+37,1.4308250921477795e+38
6.362097912,-4.442815900230991e+36,-4.475897771331557e+37,1.4272952690640599e+38
6.364097912,-4.393463496872568e+36,-4.502205590558845e+37,1.423743604312315e+38
6.366097945,-4.344224221020496e+36,-4.528241821448966e+37,1.4201703227252838e+38
6.368097978,-4.295098682206744e+36,-4.5540072591606985e+37,1.416575649042232e+38
6.370098011,-4.246087485633456e+36,-4.57950270488953e+37,1.4129598078976362e+38
6.372098044,-4.1971912322409306e+36,-4.60472896584247e+37,1.4093230238100305e+38
6.374098077,-4.1484105187750835e+36,-4.629686855207739e+37,1.4056655211710107e+38
6.37609811,-4.099745937854412e+36,-4.654377192119184e+37,1.4019875242343789e+38
6.378098143,-4.051198078036465e+36,-4.678800801615273e+37,1.3982892571054057e+38
6.380098176,-4.002767523883841e+36,-4.702958514592574e+37,1.3945709437301961e+38
6.382098176,-3.9544548560297275e+36,-4.726851167753602e+37,1.3908328078851505e+38
6.384098176,-3.9062606512429753e+36,-4.750479603548931e+37,1.3870750731665047e+38
6.386098176,-3.8581854824926593e+36,-4.77384467011345e+37,1.3832979629799313e+38
6.388098176,-3.810229919012023e+36,-4.796947221196709e+37,1.3795017005301934e+38
6.390098176,-3.7623945263617164e+36,-4.819788116087312e+37,1.3756865088108379e+38
6.392097742,-3.714679866492253e+36,-4.842368219531343e+37,1.3718526105939123e+38
6.394097708,-3.667086497805605e+36,-4.864688401644809e+37,1.3680002284196888e+38
6.396097674,-3.619614975215809e+36,-4.886749537820116e+37,1.3641295845863691e+38
6.39809764,-3.5722658502084826e+36,-4.908552508626598e+37,1.3602409011397506e+38
6.400097606,-3.525039670899112e+36,-4.930098199705176e+37,1.356334399862851e+38
6.402097572,-3.477936982089996e+36,-4.951387501657213e+37,1.352410302265486e+38
6.404097538,-3.430958325325735e+36,-4.972421309927649e+37,1.3484688295737786e+38
6.406097504,-3.384104238947174e+36,-4.993200524682552e+37,1.3445102027195769e+38
6.40809747,-3.337375258143644e+36,-5.013726050681249e+37,1.3405346423297558e+38
6.41009747,-3.2907719150034e+36,-5.033998797143187e+37,1.336542368715398e+38
6.412097503,-3.244294738562195e+36,-5.0540196776097035e+37,1.3325336018608392e+38
6.414097536,-3.1979442548499045e+36,-5.073789609800875e+37,1.32850856141257e+38
6.416097569,-3.151720986935164e+36,-5.093309515467603e+37,1.3244674666679737e+38
6.418097602,-3.105625454967936e+36,-5.112580320239083e+37,1.3204105365638864e+38
6.420097635,-3.059658176219948e+36,-5.131602953465909e+37,1.3163379896649704e+38
6.422096501,-3.0138196651229443e+36,-5.150378348059052e+37,1.312250044151909e+38
6.424096534,-2.968110433304702e+36,-5.168907440324987e+37,1.3081469178094322e+38
6.426096534,-2.922530989622777e+36,-5.18719116979721e+37,1.3040288280141861e+38
6.428097067,-2.877081840195967e+36,-5.205230479064386e+37,1.2998959917224617e+38
6.430097033,-2.831763488433469e+36,-5.223026313595377e+37,1.295748625457789e+38
6.432096333,-2.786576435061746e+36,-5.240579621561372e+37,1.2915869452983947e+38
6.434096299,-2.7415211781491024e+36,-5.257891353655357e+37,1.2874111668645148e+38
6.436096265,-2.6965982131279483e+36,-5.274962462909173e+37,1.2832215053055599e+38
6.438096231,-2.6518080328147428e+36,-5.291793904508432e+37,1.279018175287145e+38
6.440096197,-2.6071511274276236e+36,-5.308386635605522e+37,1.274801390977994e+38
6.442096197,-2.5626279846017003e+36,-5.32474161513099e+37,1.2705713660367306e+38
6.44409623,-2.518239089401998e+36,-5.340859803603509e+37,1.2663283135985532e+38
6.446096263,-2.4739849243340458e+36,-5.35674216293866e+37,1.2620724462617939e+38
6.448096296,-2.4298659693520897e+36,-5.372389656256755e+37,1.2578039760743565e+38
6.450096329,-2.385882701864922e+36,-5.387803247689993e+37,1.253523114520015e+38
6.452096362,-2.342035596739329e+36,-5.40298390218918e+37,1.2492300725045478e+38
6.454096395,-2.29832512630117e+36,-5.417932585330276e+37,1.244925060341685e+38
6.456096428,-2.2547517603340757e+36,-5.43265026312102e+37,1.2406082877388458e+38
6.458096461,-2.2113159660757843e+36,-5.447137901807933e+37,1.2362799637826548e+38
6.460096461,-2.1680182082120924e+36,-5.461396467683948e+37,1.2319402969242395e+38
6.462096461,-2.1248589488684195e+36,-5.475426926896937e+37,1.2275894949643042e+38
6.464096461,-2.081838647598979e+36,-5.489230245259368e+37,1.2232277650379727e+38
6.466096461,-2.0389577613735636e+36,-5.5028073880593915e+37,1.2188553135993978e+38
6.468096461,-1.996216744561946e+36,-5.516159319873608e+37,1.2144723464061491e+38
6.470096461,-1.953616048915914e+36,-5.529287004381821e+37,1.210079068503393e+38
6.472096427,-1.9111561235489513e+36,-5.542191404184058e+37,1.205675684207874e+38
6.474096393,-1.868837414913595e+36,-5.554873480620164e+37,1.2012623970917081e+38
6.476096359,-1.8266603667764882e+36,-5.567334193592268e+37,1.1968394099660044e+38
6.478096325,-1.7846254201911572e+36,-5.57957450139045e+37,1.1924069248643348e+38
6.480096291,-1.742733013468538e+36,-5.591595360521918e+37,1.1879651430260628e+38
6.482096557,-1.7009835821452897e+36,-5.603397725543996e+37,1.183514264879541e+38
6.484096523,-1.6593775589499233e+36,-5.614982548901224e+37,1.1790544900251908e+38
6.486096489,-1.617915373766791e+36,-5.626350780766884e+37,1.1745860172184774e+38
6.488095055,-1.576597453597973e+36,-5.637503368889252e+37,1.1701090443528022e+38
6.490095055,-1.535424222523107e+36,-5.6484412584428335e+37,1.16562376844233e+38
6.492095755,-1.49439610165722e+36,-5.659165391884761e+37,1.1611303856047677e+38
6.494095788,-1.453513509106605e+36,-5.66967670881651e+37,1.1566290910441148e+38
6.496095821,-1.412776859922794e+36,-5.67997614585108e+37,1.1521200790333994e+38
6.498095854,-1.3721865660546655e+36,-5.690064636485738e+37,1.1476035428974108e+38
6.500095887,-1.331743036298737e+36,-5.69994311098045e+37,1.1430796749954293e+38
6.50209592,-1.2914466762476769e+36,-5.709612496242078e+37,1.138548666703962e+38
6.50409592,-1.2512978882370765e+36,-5.719073715714519e+37,1.1340107083994879e+38
6.506095886,-1.21129707129053e+36,-5.728327689274817e+37,1.1294659894412126e+38
6.508095852,-1.1714446210630792e+36,-5.737375333135283e+37,1.1249146981538444e+38
6.510095818,-1.1317409297830677e+36,-5.746217559751624e+37,1.1203570218104046e+38
6.512096718,-1.0921863861924554e+36,-5.7548552777370715e+37,1.1157931466150956e+38
6.514096684,-1.0527813754856437e+36,-5.763289391782573e+37,1.1112232576862477e+38
6.51609665,-1.0135262792468708e+36,-5.771520802583101e+37,1.1066475390393695e+38
6.518096616,-9.744214753862264e+35,-5.779550406770103e+37,1.1020661735703398e+38
6.520096616,-9.354673380743374e+35,-5.787379096850133e+37,1.0974793430387665e+38
6.522096616,-8.966642376757795e+35,-5.79500776114975e+37,1.092887228051542e+38
6.524096616,-8.580125406812684e+35,-5.802437283766742e+37,1.0882900080466215e+38
6.526096616,-8.195126096386847e+35,-5.8096685445277095e+37,1.0836878612770416e+38
6.528096616,-7.811648030829862e+35,-5.816702418952008e+37,1.0790809647951932e+38
6.530096616,-7.429694754650667e+35,-5.823539778222049e+37,1.0744694944373586e+38
6.532096616,-7.049269770796204e+35,-5.830181489159934e+37,1.0698536248085368e+38
6.534096616,-6.670376539920744e+35,-5.836628414210412e+37,1.065233529267581e+38
6.536096616,-6.2930184796465105e+35,-5.842881411430109e+37,1.0606093799126755e+38
6.538096649,-5.917198963816267e+35,-5.848941334483035e+37,1.0559813475671826e+38
6.540096682,-5.5429213217385135e+35,-5.854809032642337e+37,1.0513496017658863e+38
6.542096415,-5.170188837425906e+35,-5.86048535079823e+37,1.0467143107416582e+38
6.544096448,-4.799004748827582e+35,-5.865971129472031e+37,1.0420756414125865e+38
6.546096481,-4.42937224705601e+35,-5.871267204836195e+37,1.0374337593696033e+38
6.548097381,-4.06129447560906e+35,-5.876374408740308e+37,1.0327888288646497e+38
6.550097414,-3.694774529587959e+35,-5.881293568742912e+37,1.0281410127994146e+38
6.552097414,-3.329815454911849e+35,-5.886025508149093e+37,1.0234904727146883e+38
6.55409738,-2.9664202475296316e+35,-5.890571046053749e+37,1.0188373687803668e+38
6.556097346,-2.604591852629832e+35,-5.894930997390465e+37,1.0141818597861378e+38
6.558097312,-2.2443331638492485e+35,-5.899106172985917e+37,1.0095241031328675e+38
6.560097278,-1.8856470224811536e+35,-5.903097379619743e+37,1.004864254824699e+38
6.562097244,-1.5285362166838789e+35,-5.906905420089786e+37,1.0002024694618633e+38
6.56409721,-1.1730034806905973e+35,-5.910531093282594e+37,9.955389002342023e+37
6.56609721,-8.190514940211343e+34,-5.913975194249039e+37,9.908736989154032e+37
6.56809721,-4.666828806966345e+34,-5.917238514285012e+37,9.862070158579333e+37
6.570097243,-1.1590020845791068e+34,-5.920321841017138e+37,9.81538999988677e+37
6.572095876,2.3329401201168256e+34,-5.923225958493457e+37,9.76869798805264e+37
6.574095909,5.808973278580008e+34,-5.92595164727901e+37,9.721995583730878e+37
6.576095942,9.269073448216305e+34,-5.928499684556324e+37,9.675284233230085e+37
6.578095975,1.271321727996321e+35,-5.930870844230777e+37,9.628565368497478e+37
6.580096008,1.6141382025794672e+35,-5.933065897040762e+37,9.58184040710971e+37
6.582096041,1.9553545546137743e+35,-5.935085610672551e+37,9.5351107522707e+37
6.584096274,2.29496863171922e+35,-5.936930749879742e+37,9.488377792816564e+37
6.586096274,2.6329783438144145e+35,-5.938602076607161e+37,9.441642903227854e+37
6.588096274,2.9693816638264547e+35,-5.9401003501190365e+37,9.394907443649161e+37
6.590096274,3.3041766283883663e+35,-5.941426327131272e+37,9.348172759916203e+37
6.592096274,3.637361338523226e+35,-5.942580761947611e+37,9.301440183590366e+37
6.594096274,3.968933960314077e+35,-5.943564406599458e+37,9.254711032000622e+37
6.596096274,4.298892725558756e+35,-5.944378010989108e+37,9.207986608292632e+37
6.59809624,4.6272359324087394e+35,-5.945022323036025e+37,9.161268201484835e+37
6.600096206,4.953961945991088e+35,-5.945498088825952e+37,9.114557086531315e+37
6.602095672,5.279069199012528e+35,-5.945806052762542e+37,9.067854524391147e+37
6.604095638,5.6025561923447625e+35,-5.945946957721205e+37,9.021161762103864e+37
6.606095604,5.924421495590097e+35,-5.945921545204882e+37,8.974480032870728e+37
6.60809557,6.244663747626425e+35,-5.945730555501436e+37,8.92781055614144e+37
6.610095536,6.563281657130623e+35,-5.945374727842357e+37,8.88115453770597e+37
6.612095502,6.880274003079439e+35,-5.944854800562437e+37,8.834513169791276e+37
6.614095502,7.195639635226948e+35,-5.944171511260095e+37,8.78788763116276e+37
6.616095535,7.509377474557684e+35,-5.943325596958021e+37,8.74127908723034e+37
6.618095568,7.821486513714505e+35,-5.942317794263756e+37,8.694688690158905e+37
6.620095601,8.13196581740031e+35,-5.941148839529822e+37,8.648117578982892e+37
6.622095634,8.440814522752676e+35,-5.939819469013093e+37,8.601566879724625e+37
6.624095667,8.748031839690425e+35,-5.938330419033022e+37,8.555037705516146e+37
6.6260957,9.053617051231128e+35,-5.936682426128343e+37,8.50853115672426e+37
6.628095733,9.357569513778614e+35,-5.934876227211941e+37,8.462048321078573e+37
6.630095733,9.659888657379613e+35,-5.932912559723562e+37,8.415590273802299e+37
6.632095499,9.960573985948663e+35,-5.930792161780082e+37,8.3691580777456e+37
6.634095465,1.0259625077460468e+36,-5.928515772323e+37,8.32275278352135e+37
6.636095431,1.0557041584108913e+36,-5.92608413126288e+37,8.276375429643069e+37
6.638095397,1.0852823232431989e+36,-5.923497979620484e+37,8.230027042664903e+37
6.640095363,1.1146969823402031e+36,-5.920758059664295e+37,8.183708637323568e+37
6.642095329,1.1439481232480731e+36,-5.917865115044239e+37,8.137421216682232e+37
6.644095095,1.1730357409638549e+36,-5.914819890921382e+37,8.091165772276238e+37
6.646095095,1.2019598379338215e+36,-5.911623134093389e+37,8.044943284260631e+37
6.648095128,1.2307204240482152e+36,-5.908275593115544e+37,7.998754721559405e+37
6.650095161,1.2593175166323656e+36,-5.904778018417194e+37,7.952601042016336e+37
6.652095194,1.2877511404341742e+36,-5.901131162413451e+37,7.906483192547247e+37
6.654095227,1.3160213276079512e+36,-5.897335779612041e+37,7.860402109293566e+37
6.65609526,1.344128117694588e+36,-5.893392626715222e+37,7.81435871777693e+37
6.658095293,1.3720715575980538e+36,-5.889302462716748e+37,7.768353933054675e+37
6.660095326,1.3998517015581983e+36,-5.885066048993824e+37,7.722388659875974e+37
6.662095492,1.4274686111198556e+36,-5.880684149393951e+37,7.676463792838355e+37
6.664095492,1.4549223550982306e+36,-5.876157530316574e+37,7.630580216544341e+37
6.666095492,1.4822130095405684e+36,-5.871486960789494e+37,7.5847388057579885e+37
6.668095492,1.5093406576840938e+36,-5.866673212539976e+37,7.538940425561106e+37
6.670095492,1.5363053899102286e+36,-5.861717060060452e+37,7.493185931508932e+37
6.672095492,1.5631073036950867e+36,-5.856619280668744e+37,7.447476169785097e+37
6.674095492,1.5897465035562435e+36,-5.851380654562778e+37,7.401811977355738e+37
6.676095458,1.6162231009957797e+36,-5.846001964869878e+37,7.356194182122604e+37
6.678095424,1.6425372144396058e+36,-5.84048399769061e+37,7.310623603074969e+37
6.68009539,1.668688969173082e+36,-5.834827542137214e+37,7.265101050440207e+37
6.682095356,1.694678497272948e+36,-5.82903339036659e+37,7.21962732583291e+37
6.684095322,1.72050593753559e+36,-5.823102337607906e+37,7.1742032224024335e+37
6.686095288,1.746171435401662e+36,-5.817035182184817e+37,7.128829524978697e+37
6.688095254,1.771675142877091e+36,-5.810832725532338e+37,7.083507010216092e+37
6.69009522,1.797017218450493e+36,-5.804495772208426e+37,7.0382364467353675e+37
6.692095886,1.8221978270070485e+36,-5.798025129900327e+37,6.993018595263387e+37
6.694095919,1.8472171397388844e+36,-5.791421609425755e+37,6.947854208770642e+37
6.696095952,1.872075334052028e+36,-5.78468602472898e+37,6.902744032606461e+37
6.698095985,1.896772593469987e+36,-5.777819192871916e+37,6.857688804631818e+37
6.700096018,1.921309107534017e+36,-5.7708219340203035e+37,6.812689255349714e+37
6.702096051,1.945685071700154e+36,-5.763695071425078e+37,6.767746108033046e+37
6.704095617,1.969900687233109e+36,-5.756439431398967e+37,6.72286007884993e+37
6.70609565,1.993956161097146e+36,-5.74905584328834e+37,6.678031876986476e+37
6.70809565,2.017851705844058e+36,-5.741545139440302e+37,6.633262204766976e+37
6.710095616,2.041587539498368e+36,-5.733908155165048e+37,6.588551757771462e+37
6.712095582,2.0651638854398637e+36,-5.726145728693464e+37,6.54390122495059e+37
6.714095548,2.0885809722836e+36,-5.718258701130023e+37,6.499311288737803e+37
6.716095514,2.1118390337575082e+36,-5.710247916401086e+37,6.454782625158744e+37
6.71809548,2.1349383085777707e+36,-5.702114221198758e+37,6.410315903937917e+37
6.720095446,2.1578790403221383e+36,-5.693858464920447e+37,6.365911788602568e+37
6.722095946,2.1806614773013676e+36,-5.685481499604348e+37,6.321570936583772e+37
6.724095946,2.2032858724289548e+36,-5.676984179861007e+37,6.2772939993147185e+37
6.726095979,2.2257524830893318e+36,-5.668367362801125e+37,6.233081622326231e+37
6.728096012,2.2480615710046792e+36,-5.659631907959795e+37,6.188934445339541e+37
6.730096045,2.2702134021005135e+36,-5.650778677217376e+37,6.144853102356375e+37
6.732096078,2.2922082463702096e+36,-5.641808534717248e+37,6.100838221746341e+37
6.734096111,2.314046377738609e+36,-5.632722346780633e+37,6.05689042633158e+37
6.736096144,2.3357280739248595e+36,-5.62352098181869e+37,6.013010333468633e+37
6.738096177,2.3572536163046272e+36,-5.614205310242112e+37,5.969198555127469e+37
6.74009621,2.3786232897718243e+36,-5.6047762043683785e+37,5.925455697967654e+37
6.74209621,2.3998373825999882e+36,-5.595234538326784e+37,5.881782363411628e+37
6.74409621,2.42089618630343e+36,-5.585581187961426e+37,5.8381791477150145e+37
6.74609621,2.441799995498269e+36,-5.575817030732333e+37,5.794646642033965e+37
6.74809621,2.4625491077634846e+36,-5.5659429456149545e+37,5.751185432489483e+37
6.75009621,2.4831438235021048e+36,-5.555959812998238e+37,5.707796100228659e+37
6.75209621,2.5035844458026514e+36,-5.545868514581561e+37,5.664479221482722e+37
6.754096176,2.523871280300976e+36,-5.535669933270801e+37,5.62123536762189e+37
6.756096142,2.544004635042607e+36,-5.525364953073863e+37,5.578065105207104e+37
6.758096108,2.5639848203457118e+36,-5.514954458995909e+37,5.534968996038705e+37
6.760096074,2.5838121486647812e+36,-5.50443933693457e+37,5.491947597202222e+37
6.76209604,2.6034869344551604e+36,-5.493820473575391e+37,5.449001461111375e+37
6.764096473,2.6230094940385427e+36,-5.483098756287771e+37,5.406131135548352e+37
6.766096539,2.6423801454695455e+36,-5.472275073021597e+37,5.363337163701432e+37
6.768096505,2.6615992084034795e+36,-5.461350312204825e+37,5.32062008420001e+37
6.770096505,2.680667003965405e+36,-5.45032536264225e+37,5.277980431147151e+37
6.772096538,2.6995838546205676e+36,-5.439201113415689e+37,5.235418734149841e+37
6.774096571,2.718350084046309e+36,-5.427978453785839e+37,5.192935518347164e+37
6.776096471,2.7369660170055423e+36,-5.416658273095955e+37,5.150531304436609e+37
6.778096504,2.7554319792219094e+36,-5.405241460677516e+37,5.108206608698712e+37
6.780096537,2.7737482972567145e+36,-5.393728905757971e+37,5.065961943020192e+37
6.782096803,2.791915298387744e+36,-5.38212149737063e+37,5.023797814915761e+37
6.784096836,2.8099333104900594e+36,-5.3704201242667095e+37,4.9817147275487855e+37
6.786096836,2.82780266191886e+36,-5.358625674829564e+37,4.939713179750914e+37
6.788096802,2.845523681394493e+36,-5.34673903699112e+37,4.897793666040786e+37
6.790096768,2.8630966978896814e+36,-5.334761098150554e+37,4.855956676641909e+37
6.792096734,2.88052204051901e+36,-5.32269274509521e+37,4.81420269749978e+37
6.7940967,2.897800038430685e+36,-5.310534863923817e+37,4.772532210298304e+37
6.796096666,2.914931020700563e+36,-5.298288339972026e+37,4.730945692475548e+37
6.798096632,2.9319153162284217e+36,-5.28595405774035e+37,4.689443617238866e+37
6.800095698,2.9487532536364716e+36,-5.273532900824471e+37,4.648026453579471e+37
6.802095698,2.9654451611701124e+36,-5.261025751847901e+37,4.606694666286491e+37
6.804095731,2.9819913666009624e+36,-5.248433492396945e+37,4.565448715960565e+37
6.806095364,2.9983921971321994e+36,-5.235757002957883e+37,4.52428905902702e+37
6.808095397,3.014647979306257e+36,-5.222997162856285e+37,4.483216147748669e+37
6.81009543,3.030759038914949e+36,-5.210154850198313e+37,4.442230430238257e+37
6.812095063,3.0467257009121e+36,-5.197230941813898e+37,4.401332350470589e+37
6.814095096,3.0625482893287467e+36,-5.184226313201715e+37,4.360522348294381e+37
6.816095129,3.0782271271909826e+36,-5.171141838475828e+37,4.319800859443918e+37
6.818096029,3.0937625364405136e+36,-5.157978390313885e+37,4.279168315550551e+37
6.820096029,3.1091548378579763e+36,-5.1447368399066825e+37,4.238625144154069e+37
6.822096029,3.1244043509890707e+36,-5.13141805690895e+37,4.1981717687140124e+37
6.824096029,3.139511394073559e+36,-5.118022909391218e+37,4.157808608621017e+37
6.826095929,3.154476283977175e+36,-5.104552263792644e+37,4.1175360792082535e+37
6.828095929,3.1692993361264684e+36,-5.091006984874666e+37,4.077354591762993e+37
6.830095929,3.183980864446635e+36,-5.077387935675326e+37,4.0372645535383273e+37
6.832095229,3.1985211813023596e+36,-5.063695977464077e+37,3.9972663677650605e+37
6.834095195,3.2129205974416875e+36,-5.049931969696878e+37,3.957360433663785e+37
6.836095295,3.227179421942952e+36,-5.0360967699714175e+37,3.9175471464572025e+37
6.838095261,3.241297962164795e+36,-5.0221912339822775e+37,3.877826897382707e+37
6.840095227,3.2552765236993055e+36,-5.008216215475864e+37,3.8382000737052534e+37
6.842094793,3.269115410328343e+36,-4.994172566204966e+37,3.7986670587305304e+37
6.844094759,3.282814923983073e+36,-4.980061135882854e+37,3.759228231818463e+37
6.846094725,3.296375364706727e+36,-4.965882772136843e+37,3.7198839683970766e+37
6.848094725,3.309797030620635e+36,-4.951638320461242e+37,3.6806346399767977e+37
6.850094758,3.323080217893512e+36,-4.937328624169622e+37,3.6414806141652583e+37
6.852094791,3.336225220714028e+36,-4.922954524346372e+37,3.602422254682661e+37
6.854094824,3.349232331266686e+36,-4.908516859797503e+37,3.563459921377748e+37
6.856094857,3.3621018397110784e+36,-4.894016467000663e+37,3.52459397024439e+37
6.85809489,3.374834034164575e+36,-4.879454180054394e+37,3.4858247534387953e+37
6.860095823,3.3874292006884634e+36,-4.864830830626657e+37,3.447152619297313e+37
6.862095856,3.3998876232775954e+36,-4.850147247902656e+37,3.408577912354821e+37
6.864095856,3.4122095838535664e+36,-4.835404258532016e+37,3.370100973363678e+37
6.866096222,3.4243953622614813e+36,-4.82060268657538e+37,3.3317221393132094e+37
6.868096188,3.43644523627029e+36,-4.805743353450469e+37,3.293441743449719e+37
6.870096154,3.448359481576691e+36,-4.790827077877615e+37,3.2552601152969704e+37
6.872097354,3.4601383718126346e+36,-4.775854675824846e+37,3.2171775806770986e+37
6.87409732,3.471782178556434e+36,-4.760826960452516e+37,3.179194461731894e+37
6.876097286,3.4832911713475555e+36,-4.745744742057551e+37,3.1413110769444055e+37
6.878096386,3.494665617705137e+36,-4.73060882801734e+37,3.103527741160794e+37
6.880096386,3.505905783150292e+36,-4.715420022733362e+37,3.0658447656123934e+37
6.882096419,3.517011931232241e+36,-4.7001791275745845e+37,3.028262457937919e+37
6.884096452,3.5279843235583095e+36,-4.684886940820757e+37,2.990781122205811e+37
6.886095885,3.538823219827821e+36,-4.669544257605663e+37,2.9534010589366984e+37
6.888095918,3.549528877869887e+36,-4.654151869860414e+37,2.916122565125985e+37
6.890095284,3.5601015536850764e+36,-4.638710566256821e+37,2.878945934266576e+37
6.892095317,3.5705415014909427e+36,-4.62322113215092e+37,2.841871456371751e+37
6.89409535,3.580848973771393e+36,-4.607684349526744e+37,2.804899417998207e+37
6.896095383,3.591024221329876e+36,-4.592100996940433e+37,2.768030102269294e+37
6.898095383,3.6010674933463896e+36,-4.576471849464801e+37,2.73126378889849e+37
6.900095383,3.610979037438291e+36,-4.560797678634485e+37,2.694600754213147e+37
6.902095783,3.620759099724875e+36,-4.545079252391785e+37,2.658041271178541e+37
6.904095783,3.6304079248957125e+36,-4.529317335033295e+37,2.621585609422217e+37
6.906095783,3.639925756282717e+36,-4.513512687157451e+37,2.585234035258592e+37
6.908095783,3.6493128359359114e+36,-4.497666065613118e+37,2.548986811713803e+37
6.910095749,3.658569404702843e+36,-4.481778223449338e+37,2.512844198550803e+37
6.912095715,3.6676957023115557e+36,-4.465849909866434e+37,2.476806452294678e+37
6.914095681,3.676691967456992e+36,-4.449881870168577e+37,2.440873826258176e+37
6.916095647,3.685558437890659e+36,-4.433874845717976e+37,2.405046570567422e+37
6.918095613,3.6942953505134334e+36,-4.417829573890802e+37,2.369324932187827e+37
6.920095179,3.702902941471355e+36,-4.401746788035029e+37,2.333709154950178e+37
6.922095145,3.711381446254258e+36,-4.385627217430276e+37,2.2981994795768877e+37
6.924095111,3.7197310997970414e+36,-4.369471587249775e+37,2.2627961437083743e+37
6.926095111,3.727952136583382e+36,-4.353280618524515e+37,2.2274993819295567e+37
6.928095144,3.736044790751657e+36,-4.337055028109615e+37,2.192309425796443e+37
6.930095177,3.74400929620288e+36,-4.320795528652921e+37,2.1572265038628007e+37
6.932094377,3.7518458867104213e+36,-4.304502828565802e+37,2.1222508417068718e+37
6.93409441,3.7595547960313236e+36,-4.288177631996107e+37,2.0873826619581071e+37
6.936094443,3.767136258018974e+36,-4.271820638803268e+37,2.0526221843238878e+37
6.938094476,3.7745905067369574e+36,-4.255432544535517e+37,2.0179696256162003e+37
6.940094509,3.7819177765739035e+36,-4.239014040409206e+37,1.9834251997782333e+37
6.942094509,3.789118302359138e+36,-4.2225658132902243e+37,1.9489891179108567e+37
6.944094475,3.7961923194789577e+36,-4.2060885456775223e+37,1.9146615882989535e+37
6.946095041,3.8031400639933646e+36,-4.189582915688779e+37,1.8804428164375783e+37
6.948095007,3.8099617727531364e+36,-4.1730495970482094e+37,1.846333005057926e+37
6.95009564,3.8166576835170954e+36,-4.156489259076502e+37,1.8123323541530935e+37
6.952096273,3.82322803506945e+36,-4.1399025666828657e+37,1.7784410610036224e+37
6.954096239,3.82967306733709e+36,-4.123290180359131e+37,1.7446593202028102e+37
6.956096205,3.8359930215066943e+36,-4.1066527561758572e+37,1.7109873236817922e+37
6.958096205,3.842188140141541e+36,-4.0899909457803855e+37,1.6774252607343849e+37
6.960096238,3.8482586672978926e+36,-4.0733053963967787e+37,1.6439733180416721e+37
6.962096271,3.854204848640862e+36,-4.056596750827552e+37,1.610631679696326e+37
6.964096304,3.860026931559669e+36,-4.0398656474570914e+37,1.5774005272266692e+37
6.966096337,3.865725165282187e+36,-4.023112720256671e+37,1.5442800396204936e+37
6.96809637,3.871299800988694e+36,-4.006338598790985e+37,1.5112703933486283e+37
6.970096403,3.876751091924745e+36,-3.9895439082261494e+37,1.4783717623882472e+37
6.972096436,3.8820792935130703e+36,-3.9727292693391045e+37,1.4455843182459086e+37
6.974096469,3.8872846634644475e+36,-3.9558952985283564e+37,1.4129082299803133e+37
6.976096469,3.8923674618874744e+36,-3.93904260782599e+37,1.3803436642247661e+37
