"Time (s)","Acceleration x (m/s^2)","Acceleration y (m/s^2)","Acceleration z (m/s^2)"
1.552412200E-2,-2.039859772E0,6.766313076E0,5.921160221E0
2.052412200E-2,-2.092532396E0,6.608295918E0,6.340145588E0
2.551212200E-2,-2.133233786E0,6.249165535E0,6.505345345E0
3.051212200E-2,-1.824381709E0,6.373664379E0,6.469432354E0
3.550978800E-2,-1.745373011E0,6.440701962E0,6.625055313E0
4.051003800E-2,-1.596932530E0,6.364087582E0,7.096713066E0
4.551003800E-2,-1.383848548E0,6.277895927E0,7.302614689E0
5.051003800E-2,-1.288080573E0,6.184522152E0,7.451055050E0
5.551003800E-2,-1.343147159E0,6.129455566E0,7.436689854E0
6.051003800E-2,-1.110909581E0,6.306626320E0,7.412747860E0
6.551003800E-2,-1.125274777E0,6.479009151E0,7.415142059E0
7.051003800E-2,-1.276109457E0,6.546046734E0,7.515698433E0
7.551003800E-2,-8.643068075E-1,6.040870190E0,7.333739281E0
8.051003800E-2,-6.847416759E-1,5.475838661E0,6.900388718E0
8.551003800E-2,-6.871358752E-1,5.006575108E0,6.553229332E0
9.051003800E-2,-6.703764796E-1,4.673481941E0,6.737582684E0
9.551003800E-2,-7.062895298E-1,4.654327869E0,6.945878506E0
1.005100380E-1,-7.086837292E-1,4.759673119E0,7.180510044E0
1.055100380E-1,-6.296750307E-1,4.793191910E0,7.360075474E0
1.105100380E-1,-7.230489254E-1,4.757278919E0,7.800608635E0
1.155100900E-1,-8.259995580E-1,4.809951305E0,8.059182167E0
1.205100900E-1,-7.182605099E-3,5.143044472E0,8.171710014E0
1.255100900E-1,1.482010841E0,5.214870453E0,8.056788445E0
1.305100900E-1,2.463633537E0,4.876988888E0,7.702445984E0
1.355100900E-1,3.169923067E0,4.237737179E0,7.893982410E0
1.405100900E-1,3.670311213E0,3.572149038E0,8.607454300E0
1.455100900E-1,3.766079187E0,3.315969467E0,8.892364502E0
1.505100900E-1,3.835511208E0,3.244143248E0,9.033622742E0
1.555091270E-1,4.010287762E0,4.254496574E0,5.940313816E0
1.605081980E-1,4.010287762E0,4.254496574E0,5.940313816E0
1.655073350E-1,4.010287762E0,4.254496574E0,5.940313816E0
1.705073680E-1,3.488351822E0,4.249708176E0,5.040093899E0
1.755078010E-1,2.961627483E0,4.213795185E0,4.027047157E0
1.805078010E-1,2.753331900E0,4.139574528E0,2.765302896E0
1.855080340E-1,2.370259762E0,4.338293552E0,3.057395458E0
1.905080000E-1,1.276109457E0,4.481945515E0,8.971372604E0
1.955080330E-1,1.285686255E0,4.762067318E0,1.240465832E1
2.005080330E-1,2.109291792E0,5.554847240E0,1.169118595E1
2.055080330E-1,3.059789658E0,5.902006626E0,9.608230591E0
2.105080330E-1,3.404554844E0,6.024110794E0,8.442254066E0
2.155080330E-1,3.236960649E0,5.638644218E0,8.973767281E0
2.205080330E-1,2.880224705E0,5.320215225E0,8.696040154E0
2.255080330E-1,2.712630510E0,4.651933670E0,7.872434616E0
2.305080330E-1,2.185906172E0,3.643975019E0,7.127837658E0
2.355080330E-1,1.805228114E0,3.222595453E0,6.917148113E0
2.405080660E-1,1.642422318E0,2.576161146E0,6.701669693E0
2.455080990E-1,1.572990537E0,2.525882721E0,6.687304497E0
2.505081320E-1,1.800439715E0,2.777273893E0,7.386411667E0
2.555081650E-1,1.898601890E0,2.954444885E0,7.915530205E0
2.605081650E-1,2.437297344E0,3.191470861E0,9.107842445E0
2.655081310E-1,2.837129116E0,3.440467834E0,9.881169319E0
2.705081310E-1,3.272873640E0,3.493140221E0,1.047253704E1
2.755081310E-1,3.248931646E0,3.447650433E0,1.049408531E1
2.805081310E-1,2.896984100E0,3.268085241E0,1.061858368E1
2.855081310E-1,2.525882721E0,3.107673883E0,1.067604446E1
2.905081640E-1,1.891419291E0,3.117250681E0,1.071195793E1
2.955078970E-1,1.632845521E0,3.351882458E0,1.056112289E1
3.005070300E-1,1.398213744E0,3.852270603E0,9.933841705E0
3.055078960E-1,1.403002143E0,4.129997730E0,9.443030357E0
3.105087620E-1,1.414973259E0,4.532223701E0,8.566753387E0
3.155095950E-1,1.534683347E0,4.568136692E0,7.874828815E0
3.205095610E-1,1.733402014E0,4.508281708E0,7.182904243E0
3.255095270E-1,2.106897593E0,4.340687752E0,6.555623531E0
3.305095270E-1,2.839523315E0,4.086902142E0,5.789478779E0
3.355095270E-1,3.117250681E0,3.962403774E0,5.516540051E0
3.405095270E-1,3.239354849E0,3.641580820E0,5.253177643E0
3.455094930E-1,3.241749048E0,3.325546265E0,5.241206646E0
3.505094930E-1,3.253720045E0,2.746149302E0,5.449502468E0
3.555094930E-1,3.284844637E0,2.432508945E0,5.471050262E0
3.605094930E-1,3.428496838E0,2.056619167E0,5.217264652E0
3.655095260E-1,3.418920040E0,1.905784607E0,5.032911301E0
3.705095590E-1,3.090914488E0,1.714248419E0,4.968267918E0
3.755095920E-1,2.784456491E0,1.850717902E0,5.090372086E0
3.805095920E-1,2.217030764E0,2.188300371E0,5.602731228E0
3.855095920E-1,1.877054095E0,2.387019157E0,5.992986202E0
3.905095580E-1,1.218648672E0,2.535459518E0,6.483797550E0
3.955095240E-1,8.547300100E-1,2.564189911E0,6.878840923E0
4.005094900E-1,4.189853072E-1,2.600103140E0,7.659350395E0
4.055094560E-1,3.998316824E-1,2.734178305E0,8.382399559E0
4.105094560E-1,6.967126727E-1,3.224989653E0,9.375992775E0
4.155094560E-1,7.302315235E-1,3.531447411E0,1.055633450E1
4.205094560E-1,7.182605099E-3,3.699041605E0,1.132966137E1
4.255094560E-1,-8.475474119E-1,3.485957623E0,1.145176601E1
4.305094560E-1,-1.199495077E0,2.777273893E0,1.062576675E1
4.355094560E-1,-8.044517636E-1,2.106897593E0,9.979331970E0
4.405094220E-1,1.915361360E-2,2.229001760E0,9.352050781E0
4.455097220E-1,-2.633621916E-2,2.214636564E0,9.469367027E0
4.505105880E-1,-1.185129881E0,1.400607944E0,9.464578629E0
4.555105880E-1,-7.062895298E-1,1.357512355E0,8.818143845E0
4.605105880E-1,-9.528923035E-1,1.314416766E0,8.233959198E0
4.655105880E-1,-1.436521053E0,1.680729628E0,8.784625053E0
4.705105880E-1,-4.213795066E-1,2.138022184E0,8.253112793E0
4.755105880E-1,5.889736414E-1,2.353500366E0,7.477391243E0
4.805105880E-1,1.017535686E0,2.906560898E0,7.683292389E0
4.855105880E-1,1.000776291E0,3.272873640E0,8.159738541E0
4.905106210E-1,8.331822157E-1,3.739742994E0,8.492532730E0
4.955106540E-1,7.829039693E-1,4.173093796E0,8.624214172E0
5.005106540E-1,6.512228847E-1,4.472368717E0,9.299378395E0
5.055106540E-1,4.070142806E-1,4.304774761E0,9.519645691E0
5.105106540E-1,2.322375625E-1,3.998316765E0,9.311349869E0
5.155106200E-1,4.333505034E-1,3.603273630E0,9.225158691E0
5.205105860E-1,8.858546019E-1,3.148375273E0,8.186075211E0
5.255105520E-1,1.096544385E0,2.784456491E0,6.687304497E0
5.305105520E-1,5.865794420E-1,2.240972757E0,6.596324921E0
5.355105520E-1,-1.364694983E-1,1.790862918E0,6.881235123E0
5.405105520E-1,-1.149216771E0,1.189918280E0,6.876446724E0
5.455098850E-1,-1.498770237E0,1.024718285E0,6.706458092E0
5.505098850E-1,-1.510741234E0,1.022324085E0,6.524498940E0
5.555089850E-1,-1.314416766E0,1.130063176E0,6.332962990E0
5.605080850E-1,-1.247379065E0,1.118092179E0,5.897218227E0
5.655075850E-1,-1.331176162E0,1.051054597E0,5.257966042E0
5.705071180E-1,-1.393425345E0,9.576807022E-1,4.443638325E0
5.755066510E-1,-1.513135433E0,9.050082564E-1,4.288015366E0
5.805061840E-1,-1.534683347E0,5.746083856E-1,4.228160381E0
5.855056840E-1,-1.407790542E0,2.322375625E-1,4.106055737E0
5.905051840E-1,-1.149216771E0,-3.256114423E-1,3.916913986E0
5.955046500E-1,-1.271321058E0,-6.775590777E-1,4.094084740E0
6.005041500E-1,-1.534683347E0,-1.314416766E0,4.754884720E0
6.055036500E-1,-1.654393315E0,-1.944091797E0,5.571606636E0
6.105031500E-1,-1.695094824E0,-2.600103140E0,6.502951145E0
6.155029830E-1,-1.853112102E0,-3.047818661E0,7.661744595E0
6.205030160E-1,-1.831564307E0,-3.189076662E0,8.947430611E0
6.255030490E-1,-1.723825216E0,-3.081337690E0,9.531616211E0
6.305030820E-1,-1.577778935E0,-2.724601507E0,1.032888508E1
6.355030820E-1,-1.527500629E0,-2.387019157E0,1.074068832E1
6.405030480E-1,-1.403002143E0,-1.829170108E0,1.130811405E1
6.455030140E-1,-1.192312479E0,-1.546654344E0,1.149725628E1
6.505030470E-1,-9.385270476E-1,-1.268926859E0,1.158584118E1
6.555030800E-1,-7.445967197E-1,-1.120486379E0,1.162893677E1
6.605031130E-1,-5.722141862E-1,-1.019929886E0,1.165287876E1
6.655031130E-1,-2.466027737E-1,-1.154005170E0,1.173667622E1
6.705031130E-1,2.154781483E-2,-1.549048543E0,1.177977180E1
6.755031130E-1,-1.915361360E-2,-1.824381709E0,1.171273422E1
6.805031130E-1,-4.022258818E-1,-2.403778553E0,1.157387066E1
6.855031130E-1,-1.010353088E0,-2.784456491E0,1.146613121E1
6.905031130E-1,-2.406172752E0,-3.282450438E0,1.118600941E1
6.955038130E-1,-3.483563423E0,-3.517082214E0,1.087715721E1
7.005038460E-1,-4.357447147E0,-3.785232782E0,1.056830597E1
7.055047790E-1,-5.068824291E0,-4.084507942E0,1.030494308E1
7.105056790E-1,-5.909189224E0,-4.371812344E0,1.010622501E1
7.155061790E-1,-6.984185696E0,-4.541800499E0,1.007270622E1
7.205066450E-1,-8.516474724E0,-4.438849926E0,1.032409668E1
7.255071450E-1,-9.335291862E0,-4.333505154E0,1.053957558E1
7.305076450E-1,-1.039352894E1,-4.414907932E0,1.078617764E1
7.355081780E-1,-1.075984192E1,-4.551377296E0,1.101123333E1
7.405086780E-1,-1.104954052E1,-4.771644115E0,1.137994003E1
7.455091780E-1,-1.108305931E1,-4.949114323E0,1.155232239E1
7.505096780E-1,-1.092743587E1,-5.047276497E0,1.154035187E1
7.555101780E-1,-1.066167927E1,-4.929960728E0,1.137515163E1
7.605106780E-1,-1.029297256E1,-4.718971729E0,1.116685581E1
7.655108440E-1,-9.766247749E0,-4.783615112E0,1.100883865E1
7.705108100E-1,-9.016862869E0,-5.408801079E0,1.083166790E1
7.755108100E-1,-8.933065414E0,-5.811026573E0,1.065689087E1
7.805108100E-1,-9.210793495E0,-6.158185959E0,1.037676907E1
7.855108430E-1,-9.172486305E0,-6.170156956E0,1.017805099E1
7.905108430E-1,-8.480561256E0,-6.596324921E0,9.933841705E0
7.955108430E-1,-7.965808392E0,-6.742371082E0,9.541193008E0
8.005108090E-1,-8.080730438E0,-6.356904984E0,8.930671692E0
8.055107750E-1,-8.700828552E0,-5.767930984E0,8.473379135E0
8.105107410E-1,-9.498097420E0,-5.411195278E0,8.224382401E0
8.155107410E-1,-9.682451248E0,-5.341763496E0,7.999327183E0
8.205107740E-1,-9.668086052E0,-5.186140060E0,7.259518623E0
8.255108070E-1,-9.617807388E0,-5.073612690E0,6.890811920E0
8.305108400E-1,-9.304166794E0,-5.056853294E0,6.723217487E0
8.355108400E-1,-8.801384926E0,-5.159803867E0,6.814197540E0
8.405108400E-1,-7.726387978E0,-5.456685066E0,6.921936512E0
8.455108060E-1,-7.182904243E0,-5.641038418E0,6.955455303E0
8.505108060E-1,-6.754342079E0,-5.858911037E0,6.977003098E0
8.555108060E-1,-6.289866924E0,-6.203675747E0,6.907571316E0
8.605101720E-1,-6.007351398E0,-6.572382927E0,6.708852291E0
8.655095050E-1,-6.210858345E0,-6.957849503E0,6.395212173E0
8.705088380E-1,-6.790255070E0,-7.144597054E0,5.942708015E0
8.755086380E-1,-7.180510044E0,-7.316979885E0,5.729623795E0
8.805086040E-1,-7.448660851E0,-7.824550629E0,5.504569054E0
8.855079040E-1,-7.326556683E0,-7.989750385E0,5.545270443E0
8.905072370E-1,-6.864475727E0,-7.996932983E0,5.693710804E0
8.955065700E-1,-6.352116585E0,-8.621819496E0,5.542876244E0
9.005059360E-1,-6.119878769E0,-8.854057312E0,5.602731228E0
9.055053020E-1,-5.631461620E0,-8.617031097E0,5.705681801E0
9.105046680E-1,-5.284302235E0,-7.968202591E0,5.911583424E0
9.155037680E-1,-5.190928459E0,-7.685686588E0,5.933131218E0
9.205028680E-1,-5.494992256E0,-7.872434616E0,5.760748386E0
9.255021680E-1,-5.715258598E0,-7.994538784E0,5.645826817E0
9.305015010E-1,-5.715258598E0,-7.908347607E0,5.368099689E0
9.355008340E-1,-5.542876244E0,-7.949048996E0,5.004180908E0
9.405008670E-1,-5.250783443E0,-8.119037628E0,4.522646904E0
9.455008670E-1,-4.968267918E0,-8.277054787E0,4.137180328E0
9.505008670E-1,-4.616020679E0,-8.310573578E0,3.722983599E0
9.555008670E-1,-4.213795185E0,-8.267477989E0,3.485957623E0
9.605008670E-1,-3.969586372E0,-7.946654797E0,3.605667830E0
9.655008670E-1,-4.053383350E0,-7.829339027E0,3.730166197E0
9.705008330E-1,-4.604049683E0,-8.085518837E0,3.770867586E0
9.755008330E-1,-4.170699596E0,-8.286631584E0,3.811569214E0
9.805008330E-1,-2.765302896E0,-8.540416718E0,3.974374771E0
9.855008660E-1,-4.637568474E0,-9.004891396E0,3.335123062E0
9.905008660E-1,-7.613860607E0,-9.677662849E0,2.614468336E0
9.955008660E-1,-8.844480515E0,-1.002003384E1,1.750161409E0
1.000500832E0,-9.045593262E0,-9.907505989E0,1.060631394E0
1.005500798E0,-8.095095634E0,-9.703998566E0,7.493851185E-1
1.010501464E0,-6.361693382E0,-9.407117844E0,1.201889277E0
1.015502164E0,-5.250783443E0,-9.273042679E0,1.668758631E0
1.020502864E0,-3.442862034E0,-8.992920876E0,1.635239720E0
1.025503030E0,-2.726995707E0,-8.770259857E0,1.642422318E0
1.030502363E0,-2.032677174E0,-8.554781914E0,1.582567334E0
1.035503029E0,-1.800439715E0,-8.566753387E0,1.501164436E0
1.040503029E0,-1.824381709E0,-8.468590736E0,1.474828243E0
1.045502795E0,-2.353500366E0,-8.255506516E0,1.695094824E0
1.050503028E0,-3.481169224E0,-7.915530205E0,1.836352706E0
1.055502794E0,-4.350264549E0,-7.692869186E0,2.233790159E0
1.060503460E0,-5.758354187E0,-7.374440670E0,3.201047659E0
1.065504393E0,-6.411971569E0,-7.312191486E0,3.122039080E0
1.070505293E0,-6.847716331E0,-7.293037415E0,2.114080191E0
1.075505959E0,-6.653785706E0,-7.364863873E0,1.759738207E0
1.080506225E0,-5.509357452E0,-7.446266651E0,1.551442742E0
1.085505958E0,-4.505887508E0,-7.726387978E0,1.977610588E0
1.090505924E0,-3.677493811E0,-8.138191223E0,3.505111217E0
1.095505924E0,-3.265691042E0,-8.142979622E0,4.309563160E0
1.100505957E0,-2.925714493E0,-7.556399822E0,5.636250019E0
1.105505090E0,-3.093308687E0,-6.936301708E0,6.000168800E0
1.110504223E0,-3.588908434E0,-6.206069946E0,5.253177643E0
1.115503323E0,-4.146757126E0,-5.825392246E0,4.498704910E0
1.120502923E0,-5.008969307E0,-5.396830082E0,3.093308687E0
1.125501989E0,-5.332186222E0,-5.356128693E0,2.410961151E0
1.130501955E0,-5.425560474E0,-5.760748386E0,1.276109457E0
1.135501955E0,-4.992209911E0,-6.364087582E0,2.226607651E-1
1.140501988E0,-4.477157116E0,-6.610690117E0,-3.519476354E-1
1.145501354E0,-4.070142746E0,-6.921936512E0,-5.506663918E-1
1.150500687E0,-5.001786709E0,-7.166144848E0,-4.297592163E0
1.155500687E0,-6.043264389E0,-7.039252281E0,-1.800439715E0
1.160500653E0,-5.686528206E0,-7.544428825E0,6.857293129E0
1.165500619E0,-5.360917091E0,-7.472602844E0,1.068562126E1
1.170500585E0,-6.488585949E0,-6.249165535E0,1.069759274E1
1.175500585E0,-7.982567787E0,-5.411195278E0,6.917148113E0
1.180501285E0,-9.014469147E0,-4.867412090E0,3.047818661E0
1.185501318E0,-9.064746857E0,-5.169380665E0,1.096544385E0
1.190502018E0,-7.798214436E0,-6.155791759E0,8.595184088E-1
1.195502918E0,-5.739200592E0,-7.190086842E0,1.549048543E0
1.200503318E0,-3.363853455E0,-8.205228806E0,2.621650934E0
1.205504184E0,-2.509123325E0,-8.645761490E0,2.908955097E0
1.210504184E0,-2.032677174E0,-9.012074471E0,2.485181332E0
1.215504184E0,-2.616862535E0,-9.201216698E0,2.099714994E0
1.220504217E0,-3.727771997E0,-8.794201851E0,1.790862918E0
1.225504217E0,-4.589684486E0,-8.348880768E0,1.891419291E0
1.230503917E0,-5.272331238E0,-7.860463619E0,2.559401512E0
1.235504817E0,-5.892429829E0,-7.489362240E0,2.992752075E0
1.240504817E0,-6.421548367E0,-7.520486832E0,2.959233284E0
1.245504817E0,-6.330568790E0,-7.458237648E0,2.410961151E0
1.250504783E0,-6.194098949E0,-7.575553417E0,1.922544003E0
1.255505649E0,-6.115090370E0,-7.489362240E0,1.733402014E0
1.260506549E0,-6.162974358E0,-6.869264126E0,1.951274395E0
1.265507482E0,-6.601113319E0,-6.529287338E0,2.224213362E0
1.270507915E0,-7.580341816E0,-5.691316605E0,3.292027235E0
1.275508815E0,-8.233959198E0,-5.131073475E0,3.713406801E0
1.280508815E0,-9.359233856E0,-4.453215122E0,4.036623955E0
1.285508781E0,-1.035043335E1,-3.833117008E0,4.158728123E0
1.290508781E0,-1.163133144E1,-3.016694069E0,5.004180908E0
1.295509447E0,-1.079575443E1,-3.478775024E0,3.289633036E0
1.300510147E0,-1.151640987E1,-3.478775024E0,3.610456228E0
1.305509947E0,-1.101362705E1,-3.713406801E0,4.132391930E0
1.310509947E0,-1.038395214E1,-4.335899353E0,4.230554581E0
1.315509947E0,-9.945813179E0,-4.869806290E0,3.371036053E0
1.320509947E0,-8.772654533E0,-5.820603371E0,1.367089152E0
1.325509947E0,-7.446266651E0,-6.689698696E0,-4.788403399E-3
1.330509913E0,-5.772719383E0,-7.690474987E0,-1.067813993E0
1.335509913E0,-4.644751072E0,-8.873210907E0,-2.652775526E0
1.340509913E0,-3.689464808E0,-9.804554939E0,-3.157952070E0
1.345509946E0,-3.066972494E0,-1.017086792E1,-2.425326347E0
1.350509946E0,-2.509123325E0,-9.806949615E0,-1.259350061E0
1.355509946E0,-2.229001760E0,-9.466972351E0,-2.178723514E-1
1.360509912E0,-2.499546528E0,-8.739135742E0,1.316810966E0
1.365509878E0,-2.540247917E0,-8.339303970E0,1.893813491E0
1.370509844E0,-2.774879694E0,-7.501333237E0,3.040636063E0
1.375509844E0,-1.788468719E0,-7.034463882E0,4.596867085E0
1.380510510E0,-3.904942989E0,-4.242525578E0,6.452672958E0
1.385510543E0,-5.813420773E0,-2.964021683E0,6.203675747E0
1.390510576E0,-7.582736015E0,-2.499546528E0,6.002563000E0
1.395509942E0,-1.142303562E1,-2.796427488E0,7.530063629E0
1.400511642E0,-1.068083286E1,-4.491522312E0,6.459855556E0
1.405511642E0,-8.818143845E0,-5.478232861E0,5.882853031E0
1.410511608E0,-6.383241177E0,-6.763918877E0,5.241206646E0
1.415511608E0,-3.495534420E0,-7.633014202E0,3.921702385E0
1.420511608E0,-2.896984100E0,-8.511686325E0,1.453280449E0
1.425511641E0,-1.821987510E0,-9.814131737E0,-2.351106167E0
1.430510974E0,5.178957462E0,-1.344134808E1,-1.381005478E1
1.435510574E0,1.490450382E1,-1.765304756E1,-2.943760681E1
1.440510540E0,-7.613561153E-1,-1.695394135E1,-7.642591000E0
1.445510506E0,-4.462791920E0,-1.677916336E1,-1.175553083E0
1.450510472E0,-4.790797710E0,-1.632426643E1,5.363011956E-1
1.455510672E0,-4.857835293E0,-1.510561752E1,-1.455674648E0
1.460510705E0,-7.106289864E0,-1.311813068E1,-4.185064793E0
1.465510738E0,-9.067141533E0,-1.195454884E1,-5.061641693E0
1.470510771E0,-1.069519806E1,-1.031691456E1,-4.850652695E0
1.475510771E0,-1.094180107E1,-9.593865395E0,-2.827552319E0
1.480510771E0,-1.088673401E1,-9.811738014E0,-2.260126352E0
1.485510737E0,-9.514857292E0,-9.560346603E0,-1.077390790E0
1.490510737E0,-9.179668427E0,-9.002497673E0,7.517793179E-1
1.495510737E0,-7.630620003E0,-8.815750122E0,2.020706177E0
1.500510770E0,-5.557241440E0,-9.711181641E0,2.327163935E0
1.505510803E0,-4.831499100E0,-9.811738014E0,2.169146776E0
1.510510803E0,-3.857059002E0,-9.251494408E0,1.711854219E0
1.515510803E0,-4.050989151E0,-9.440636635E0,1.532289028E0
1.520510803E0,-5.399224281E0,-1.013256073E1,1.175553083E0
1.525510803E0,-6.091148376E0,-1.051563358E1,8.714894056E-1
1.530510803E0,-6.579565525E0,-1.048929691E1,1.297657371E0
1.535510769E0,-6.392817974E0,-1.000327396E1,1.608903527E0
1.540510769E0,-6.483797550E0,-1.019480991E1,1.886630893E0
1.545511435E0,-6.376058578E0,-1.020678139E1,2.059013367E0
1.550509768E0,-6.514922142E0,-9.988908768E0,2.432508945E0
1.555509768E0,-6.455067158E0,-9.725546837E0,2.616862535E0
1.560509768E0,-7.008127689E0,-9.469367027E0,2.995146275E0
1.565509734E0,-7.058405876E0,-8.983344078E0,3.323152065E0
1.570509700E0,-7.309797287E0,-8.245929718E0,3.969586372E0
1.575509666E0,-7.707234383E0,-7.482179642E0,4.704606533E0
1.580510332E0,-8.415918350E0,-6.766313076E0,5.267542839E0
1.585510765E0,-8.803778648E0,-6.368875980E0,5.765536785E0
1.590510798E0,-8.961795807E0,-6.083965778E0,6.191704750E0
1.595510831E0,-8.387187958E0,-5.755959988E0,6.136638165E0
1.600510831E0,-7.240365028E0,-5.336975098E0,5.542876244E0
1.605510831E0,-5.791872978E0,-4.886565685E0,4.985027313E0
1.610510797E0,-4.371812344E0,-4.556165695E0,4.079719543E0
1.615510797E0,-4.182670593E0,-4.481945515E0,3.131615877E0
1.620510797E0,-4.395754337E0,-4.201824188E0,2.240972757E0
1.625510830E0,-5.200505257E0,-3.938461781E0,1.103726983E0
1.630510196E0,-6.603507519E0,-3.593696833E0,-3.663128614E-1
1.635510196E0,-7.599495411E0,-3.442862034E0,-1.343147159E0
1.640510162E0,-8.004115105E0,-3.564966440E0,-1.405396342E0
1.645510128E0,-8.073547363E0,-3.572149038E0,-1.134851575E0
1.650510094E0,-7.707234383E0,-3.569754839E0,-5.985504389E-1
1.655509360E0,-7.151779652E0,-3.634398222E0,2.561795712E-1
1.660508693E0,-5.308244228E0,-2.243366957E0,9.169792533E-1
1.665508726E0,-4.340687752E0,-2.056619167E0,1.118092179E0
1.670508726E0,-3.629609823E0,-2.561795712E0,1.048660398E0
1.675508759E0,-3.002328873E0,-3.337517262E0,5.889736414E-1
1.680508759E0,-2.114080191E0,-4.302380562E0,-5.363011956E-1
1.685508759E0,-1.790862918E0,-4.869806290E0,-1.003170490E0
1.690508725E0,-1.290474772E0,-6.019322395E0,-1.003170490E0
1.695508725E0,-9.409212470E-1,-6.876446724E0,-6.823474765E-1
1.700508725E0,-9.385270476E-1,-7.474997044E0,-5.770025849E-1
1.705508758E0,-2.384624958E0,-6.926724911E0,-1.915361360E-2
1.710508758E0,-3.797203779E0,-6.177339554E0,5.458779931E-1
1.715508758E0,-4.496310711E0,-5.966650009E0,8.307880163E-1
1.720508758E0,-4.189853191E0,-5.892429829E0,9.409212470E-1
1.725508758E0,-2.533065319E0,-6.083965778E0,1.137245774E0
1.730508758E0,-8.619126081E-1,-6.337751389E0,1.168370485E0
1.735508724E0,-6.943184882E-2,-6.110301971E0,1.098938584E0
1.740508724E0,-1.388636976E-1,-5.468656063E0,1.276109457E0
1.745508724E0,-2.561795712E-1,-5.135861874E0,1.879448295E0
1.750508757E0,-3.519476354E-1,-5.126285076E0,3.385401249E0
1.755508790E0,-5.865794420E-1,-4.929960728E0,4.730942726E0
1.760508790E0,-8.858546019E-1,-4.400542736E0,4.901230335E0
1.765508756E0,-1.163581967E0,-3.603273630E0,4.292803764E0
1.770508722E0,-1.446097851E0,-2.841917515E0,3.785232782E0
1.775508722E0,-1.508347034E0,-2.528276920E0,3.347094059E0
1.780509388E0,-1.216254473E0,-2.454056740E0,2.925714493E0
1.785508754E0,-6.637026310E0,-9.194033623E0,2.401384354E0
1.790508754E0,-4.817133904E0,-8.851662636E0,3.203441858E0
1.795508754E0,-3.169923067E0,-2.236962509E1,4.592078686E0
1.800508754E0,-7.831733227E0,-3.272724152E1,8.138191223E0
1.805509454E0,-7.113472462E0,-3.708977509E1,6.969820499E0
1.810510120E0,-5.569212437E0,-3.730525208E1,6.716034889E0
1.815509686E0,-7.046434879E0,-3.277033615E1,6.036081791E0
1.820509719E0,-5.313032627E0,-2.473060799E1,5.030517101E0
1.825509119E0,-4.611232281E0,-1.867537117E1,4.072536945E0
1.830508485E0,-3.763684988E0,-1.485661983E1,3.201047659E0
1.835508485E0,-2.202665567E0,-1.200961494E1,3.040636063E0
1.840508485E0,-7.805097699E-1,-9.354445457E0,2.547430515E0
1.845508451E0,-4.836287498E-1,-8.016086578E0,2.035071373E0
1.850508451E0,-2.657563984E-1,-6.541258335E0,1.304839969E0
1.855508451E0,2.825157940E-1,-5.940313816E0,8.140285611E-1
1.860508484E0,8.259995580E-1,-5.834969044E0,7.158663273E-1
1.865508484E0,1.211466074E0,-6.124667168E0,1.036689281E0
1.870508484E0,1.661576033E0,-6.795043468E0,1.726219416E0
1.875508484E0,1.637633920E0,-7.676109791E0,2.018311977E0
1.880508484E0,1.302445769E0,-8.672098160E0,2.015917778E0
1.885508484E0,1.194706678E0,-9.270648003E0,1.874659896E0
1.890508450E0,1.132457376E0,-9.833285332E0,1.759738207E0
1.895508416E0,1.091755986E0,-1.025705910E1,1.608903527E0
1.900508416E0,9.720458984E-1,-1.074068832E1,1.984793186E0
1.905508416E0,8.667010069E-1,-1.087715721E1,2.015917778E0
1.910508449E0,1.003170490E0,-1.095616627E1,2.209848166E0
1.915508449E0,1.012747288E0,-1.104235744E1,2.401384354E0
1.920508382E0,1.079784989E0,-1.078617764E1,2.549824715E0
1.925508348E0,1.201889277E0,-1.063055515E1,2.602497339E0
1.930508348E0,1.493981838E0,-1.040310574E1,2.657563925E0
1.935509014E0,1.869871497E0,-1.016607952E1,2.676717520E0
1.940509047E0,2.255337954E0,-9.830891609E0,2.681505919E0
1.945509047E0,2.312798738E0,-9.639355659E0,2.626439333E0
1.950509047E0,2.080561161E0,-9.462183952E0,2.518700123E0
1.955509047E0,1.733402014E0,-9.373599052E0,2.418143749E0
1.960509047E0,1.417367458E0,-9.237129211E0,2.284068346E0
1.965508680E0,1.192312479E0,-9.112630844E0,2.195482969E0
1.970508646E0,9.816226959E-1,-9.033622742E0,2.123656988E0
1.975509246E0,8.020575643E-1,-9.043199539E0,2.032677174E0
1.980509912E0,6.607996821E-1,-9.122207642E0,1.941697598E0
1.985509945E0,6.416460276E-1,-9.186851501E0,1.884236693E0
1.990509945E0,4.548983276E-1,-9.210793495E0,1.877054095E0
1.995509945E0,3.926490843E-1,-9.287407875E0,1.848323703E0
2.000509911E0,4.261679053E-1,-9.308955193E0,1.831564307E0
2.005509877E0,4.237737060E-1,-9.318531990E0,1.790862918E0
2.010509877E0,4.596867263E-1,-9.337685585E0,1.790862918E0
2.015509910E0,3.519476354E-1,-9.323320389E0,1.817199111E0
2.020509943E0,3.303998411E-1,-9.292196274E0,1.941697598E0
2.025509943E0,3.663128614E-1,-9.299378395E0,1.960851192E0
2.030509276E0,4.046200812E-1,-9.342473984E0,2.001552582E0
2.035509276E0,4.333505034E-1,-9.435848236E0,2.051830769E0
2.040508609E0,3.591302633E-1,-9.512462616E0,2.068590164E0
2.045507709E0,2.777273953E-1,-9.574711800E0,2.094926596E0
2.050507675E0,4.165911078E-1,-9.739912033E0,2.056619167E0
2.055507675E0,3.998316824E-1,-9.792584419E0,2.109291792E0
2.060507441E0,3.040636182E-1,-9.830891609E0,2.308010340E0
2.065507474E0,2.992752194E-1,-9.811738014E0,2.468421936E0
2.070507540E0,4.381389022E-1,-9.771036148E0,2.506729126E0
2.075507540E0,4.237737060E-1,-9.687239647E0,2.557007313E0
2.080507506E0,4.979939461E-1,-9.529222488E0,2.530671120E0
2.085507506E0,4.405331016E-1,-9.361627579E0,2.525882721E0
2.090507506E0,4.764461517E-1,-9.155726433E0,2.425326347E0
2.095507539E0,3.902548850E-1,-8.988132477E0,2.343923569E0
2.100507539E0,4.572925270E-1,-8.834903717E0,2.255337954E0
2.105507539E0,4.501099288E-1,-8.693645477E0,2.188300371E0
2.110507539E0,4.357447028E-1,-8.664915085E0,2.193088770E0
2.115508305E0,4.884171486E-1,-8.650549889E0,2.044648170E0
2.120508305E0,4.165911078E-1,-8.787019730E0,1.857900500E0
2.125508271E0,3.782838583E-1,-8.875604630E0,1.812410712E0
2.130508237E0,2.633621991E-1,-8.957007408E0,1.754949808E0
2.135508237E0,2.873041928E-1,-9.079112053E0,1.738190413E0
2.140508270E0,2.801215947E-1,-9.263465881E0,1.778891921E0
2.145508303E0,2.178723514E-1,-9.416694641E0,1.800439715E0
2.150508303E0,2.298433632E-1,-9.629778862E0,1.802833915E0
2.155508303E0,3.782838583E-1,-9.761459351E0,1.680729628E0
2.160508269E0,3.160346150E-1,-9.766247749E0,1.821987510E0
2.165508235E0,2.873041928E-1,-9.759065628E0,1.896207690E0
2.170508201E0,1.771709323E-1,-9.735123634E0,2.078166962E0
2.175508201E0,1.508347094E-1,-9.723152161E0,2.087743998E0
2.180508901E0,4.788403213E-2,-9.622595787E0,2.238578558E0
2.185508934E0,-7.900865376E-2,-9.507674217E0,2.317587137E0
2.190509634E0,-2.298433632E-1,-9.368810654E0,2.528276920E0
2.195510534E0,-3.303998411E-1,-9.162909508E0,2.628833532E0
2.200510534E0,-5.410895944E-1,-9.059958458E0,2.762908697E0
2.205510500E0,-6.248866320E-1,-8.988132477E0,2.801215887E0
2.210510733E0,-6.991068721E-1,-8.971372604E0,2.873042107E0
2.215510733E0,-7.613561153E-1,-8.947430611E0,2.839523315E0
2.220510766E0,-9.074024558E-1,-9.038411140E0,2.839523315E0
2.225510766E0,-8.738836050E-1,-9.141361237E0,2.741360903E0
2.230510099E0,-8.092401624E-1,-9.275436401E0,2.537853718E0
2.235510065E0,-7.685387731E-1,-9.395146370E0,2.370259762E0
2.240510031E0,-6.775590777E-1,-9.531616211E0,2.317587137E0
2.245509997E0,-5.985504389E-1,-9.584288597E0,2.190694571E0
2.250509997E0,-5.243301988E-1,-9.596260071E0,2.123656988E0
2.255509997E0,-5.123591423E-1,-9.557952881E0,2.092532396E0
2.260510030E0,-4.788403511E-1,-9.411906242E0,2.092532396E0
2.265510063E0,-3.854664862E-1,-9.289801598E0,2.130839586E0
2.270510096E0,-5.243301988E-1,-9.057564735E0,2.128445387E0
2.275510096E0,-6.895300746E-1,-8.894758224E0,2.351106167E0
2.280510096E0,-7.541735172E-1,-8.753500938E0,2.351106167E0
2.285510062E0,-7.398083210E-1,-8.664915085E0,2.305616140E0
2.290510062E0,-9.816226959E-1,-8.629002571E0,2.360682964E0
2.295510062E0,-1.165976286E0,-8.708010674E0,2.442085743E0
2.300510095E0,-1.297657371E0,-8.830115318E0,2.552218914E0
2.305510095E0,-1.357512355E0,-9.062353134E0,2.664746523E0
2.310510095E0,-1.328781962E0,-9.308955193E0,2.688688517E0
2.315510095E0,-1.335964561E0,-9.651326180E0,2.839523315E0
2.320510095E0,-1.393425345E0,-9.974543571E0,2.937685490E0
2.325510095E0,-1.364694953E0,-1.012777233E1,3.004723072E0
2.330510061E0,-1.280897856E0,-1.026184750E1,3.122039080E0
2.335510061E0,-1.142034173E0,-1.026424217E1,3.157952070E0
2.340510061E0,-9.744400978E-1,-1.016129112E1,3.124433279E0
2.345510094E0,-8.738836050E-1,-1.000088024E1,3.114856482E0
2.350510094E0,-8.355764151E-1,-9.799766541E0,3.117250681E0
2.355510094E0,-8.068459630E-1,-9.538799286E0,3.055001259E0
2.360510060E0,-8.571242094E-1,-9.323320389E0,3.007117271E0
2.365510026E0,-9.026140571E-1,-9.273042679E0,2.930502892E0
2.370509992E0,-8.355764151E-1,-9.263465881E0,2.786850691E0
2.375509992E0,-9.121908545E-1,-9.296984673E0,2.715024710E0
2.380510658E0,-7.972691655E-1,-9.399934769E0,2.485181332E0
2.385510691E0,-9.289502501E-1,-9.507674217E0,2.382230759E0
2.390510724E0,-9.816226959E-1,-9.615413666E0,2.296039343E0
2.395510757E0,-7.374141216E-1,-9.780612946E0,2.217030764E0
2.400510757E0,-6.895300746E-1,-9.862015724E0,2.262520552E0
2.405510757E0,-6.607996821E-1,-9.912294388E0,2.231395960E0
2.410510723E0,-7.469909191E-1,-9.964966774E0,2.238578558E0
2.415510723E0,-7.972691655E-1,-9.986514091E0,2.343923569E0
2.420510723E0,-8.690952063E-1,-9.888352394E0,2.547430515E0
2.425510756E0,-8.667010069E-1,-9.826103210E0,2.686294317E0
2.430510089E0,-8.116343617E-1,-9.641749382E0,2.892195702E0
2.435510089E0,-7.469909191E-1,-9.426271439E0,3.007117271E0
2.440509389E0,-7.422025204E-1,-9.217975616E0,3.071760893E0
2.445509355E0,-8.906430602E-1,-9.081506729E0,3.148375273E0
2.450509321E0,-1.082179189E0,-9.119813919E0,3.222595453E0
2.455509321E0,-1.218648672E0,-9.268254280E0,3.248931646E0
2.460509354E0,-1.252167463E0,-9.608230591E0,3.246537447E0
2.465509387E0,-1.307234168E0,-9.842862129E0,3.198653460E0
2.470509420E0,-1.362300754E0,-1.004876423E1,3.112462282E0
2.475509420E0,-1.391031146E0,-1.019720459E1,2.983175278E0
2.480509420E0,-1.371877551E0,-1.027860737E1,2.825158119E0
2.485509386E0,-1.225831270E0,-1.030494308E1,2.686294317E0
2.490509386E0,-1.010353088E0,-1.031451988E1,2.604891539E0
2.495509386E0,-7.517793179E-1,-1.034803867E1,2.468421936E0
2.500509419E0,-5.315127969E-1,-1.036240387E1,2.384624958E0
2.505509452E0,-3.974374831E-1,-1.035282707E1,2.331952572E0
2.510509452E0,-2.298433632E-1,-1.031930828E1,2.305616140E0
2.515509452E0,-2.394201607E-2,-1.023072338E1,2.298433542E0
2.520509452E0,1.484405100E-1,-1.012059021E1,2.391807556E0
2.525509452E0,2.130839527E-1,-9.984120369E0,2.511517525E0
2.530509452E0,2.561795712E-1,-9.864410400E0,2.640804529E0
2.535509418E0,2.442085743E-1,-9.768642426E0,2.774879694E0
2.540509418E0,1.580173075E-1,-9.742305756E0,2.956839085E0
2.545509418E0,1.005564705E-1,-9.754277229E0,3.145981073E0
2.550509451E0,8.379705995E-2,-9.768642426E0,3.356670856E0
2.555509451E0,2.394201607E-2,-9.840468407E0,3.485957623E0
2.560509451E0,5.027823523E-2,-9.957783699E0,3.476380825E0
2.565509417E0,5.267243832E-2,-9.952995300E0,3.440467834E0
2.570509417E0,5.746084079E-2,-9.900322914E0,3.397372246E0
2.575509417E0,3.112462163E-2,-9.840468407E0,3.380612850E0
2.580510117E0,-1.005564705E-1,-9.699210167E0,3.303998232E0
2.585510117E0,-2.178723514E-1,-9.574711800E0,3.136404276E0
2.590510783E0,-3.351882398E-1,-9.526827812E0,2.992752075E0
2.595510783E0,-4.070142806E-1,-9.615413666E0,2.841917515E0
2.600510783E0,-3.016694188E-1,-9.771036148E0,2.726995707E0
2.605510783E0,-2.202665508E-1,-9.881169319E0,2.710236311E0
2.610510749E0,-1.316810995E-1,-9.996091843E0,2.734178305E0
2.615510749E0,-1.915361360E-2,-1.009425354E1,2.748543501E0
2.620510749E0,6.943184882E-2,-1.017086792E1,2.794033289E0
2.625510782E0,1.556231081E-1,-1.016368580E1,2.844311714E0
2.630510815E0,2.035071403E-1,-1.019002151E1,2.873042107E0
2.635510815E0,2.466027737E-1,-1.019002151E1,2.892195702E0
2.640510781E0,3.711012602E-1,-1.012059021E1,2.985569477E0
2.645510747E0,4.357447028E-1,-9.991303444E0,3.071760893E0
2.650510747E0,5.746083856E-1,-9.823708534E0,3.157952070E0
2.655510747E0,7.158663273E-1,-9.684844971E0,3.215412855E0
2.660510780E0,8.619126081E-1,-9.505280495E0,3.244143248E0
2.665510780E0,8.978256583E-1,-9.380781174E0,3.270479441E0
2.670510780E0,9.433154464E-1,-9.282619476E0,3.268085241E0
2.675510780E0,8.834604025E-1,-9.241917610E0,3.241749048E0
2.680510780E0,7.398083210E-1,-9.256282806E0,3.248931646E0
2.685510880E0,5.841852427E-1,-9.289801598E0,3.246537447E0
2.690510846E0,4.381389022E-1,-9.342473984E0,3.229778051E0
2.695510846E0,2.896983922E-1,-9.459790230E0,3.181894064E0
2.700510846E0,2.035071403E-1,-9.560346603E0,3.083731890E0
2.705510879E0,2.035071403E-1,-9.567529678E0,3.057395458E0
2.710510879E0,2.059013397E-1,-9.581894875E0,2.987963676E0
2.715510879E0,2.035071403E-1,-9.498097420E0,2.997540474E0
2.720510845E0,2.082955539E-1,-9.342473984E0,3.035847664E0
2.725510845E0,2.513911724E-1,-9.222764015E0,3.083731890E0
2.730510845E0,2.729389966E-1,-9.126996040E0,3.122039080E0
2.735510878E0,3.471592367E-1,-9.107842445E0,3.179499865E0
2.740510878E0,3.782838583E-1,-9.059958458E0,3.153163671E0
2.745510878E0,3.351882398E-1,-9.043199539E0,3.148375273E0
2.750510878E0,2.394201756E-1,-9.088688850E0,3.117250681E0
2.755510878E0,1.628057212E-1,-9.148544312E0,3.131615877E0
2.760510878E0,2.202665508E-1,-9.239523888E0,3.126827478E0
2.765510844E0,2.609679997E-1,-9.323320389E0,3.112462282E0
2.770510810E0,2.489969730E-1,-9.483732224E0,3.088520288E0
2.775510810E0,2.849099934E-1,-9.656114578E0,3.026270866E0
2.780510810E0,3.064578176E-1,-9.814131737E0,2.908955097E0
2.785510843E0,2.705447972E-1,-9.909899712E0,2.796427488E0
2.790510843E0,2.418143749E-1,-9.981725693E0,2.698265314E0
2.795510843E0,1.651999205E-1,-9.988908768E0,2.580949545E0
2.800510809E0,1.292868853E-1,-9.862015724E0,2.521094322E0
2.805510775E0,1.029506698E-1,-9.732728958E0,2.439691544E0
2.810510741E0,7.900865376E-2,-9.481337547E0,2.243366957E0
2.815510741E0,1.508347094E-1,-9.239523888E0,2.138022184E0
2.820510774E0,2.346317619E-1,-8.976161003E0,2.099714994E0
2.825510807E0,2.394201756E-1,-8.760683060E0,2.109291792E0
2.830510173E0,1.963245422E-1,-8.612242699E0,2.161964178E0
2.835510073E0,1.699883193E-1,-8.518868446E0,2.257732153E0
2.840510073E0,2.657563984E-1,-8.535628319E0,2.238578558E0
2.845510039E0,2.681505978E-1,-8.552388191E0,2.260126352E0
2.850510039E0,2.370259613E-1,-8.669703484E0,2.272097349E0
2.855510039E0,2.346317619E-1,-8.801384926E0,2.382230759E0
2.860510072E0,2.681505978E-1,-8.976161003E0,2.492363930E0
2.865510072E0,2.681505978E-1,-9.057564735E0,2.477998734E0
2.870510072E0,2.681505978E-1,-9.138967514E0,2.470816135E0
2.875510038E0,3.208230138E-1,-9.194033623E0,2.434903145E0
2.880510004E0,3.663128614E-1,-9.217975616E0,2.420537949E0
2.885509970E0,4.453215301E-1,-9.227552414E0,2.446874142E0
2.890509970E0,4.692635238E-1,-9.234735489E0,2.475604534E0
2.895509970E0,4.812345505E-1,-9.227552414E0,2.391807556E0
2.900510003E0,4.764461517E-1,-9.143755913E0,2.161964178E0
2.905510036E0,4.884171486E-1,-9.079112053E0,1.984793186E0
2.910510069E0,5.219359994E-1,-8.976161003E0,1.728613615E0
2.915510069E0,5.243301988E-1,-8.868422508E0,1.740584612E0
2.920510069E0,4.788403511E-1,-8.834903717E0,1.762132406E0
2.925510035E0,4.596867263E-1,-8.844480515E0,1.831564307E0
2.930510035E0,4.046200812E-1,-8.882787704E0,1.932120800E0
2.935509368E0,3.902548850E-1,-8.945036888E0,2.068590164E0
2.940509401E0,2.346317619E-1,-8.904335022E0,2.214636564E0
2.945508734E0,1.939303428E-1,-8.849268913E0,2.310404539E0
2.950508734E0,1.747767180E-1,-8.787019730E0,2.365471363E0
2.955508734E0,1.412578970E-1,-8.712799072E0,2.329558372E0
2.960508734E0,-9.097966552E-2,-8.540416718E0,2.410961151E0
2.965508734E0,-1.029506698E-1,-8.363245964E0,2.358288765E0
2.970508700E0,-8.379705995E-2,-8.262689590E0,2.286462545E0
2.975508700E0,-1.268926859E-1,-8.262689590E0,2.260126352E0
2.980509366E0,-9.097966552E-2,-8.408735275E0,2.219424963E0
2.985509399E0,-3.591302410E-2,-8.554781914E0,2.173935175E0
2.990509399E0,0.000000000E0,-8.729558945E0,2.169146776E0
2.995509399E0,7.422025502E-2,-8.904335022E0,2.233790159E0
3.000509365E0,2.106897533E-1,-9.076718330E0,2.315192938E0
3.005509331E0,2.346317619E-1,-9.148544312E0,2.387019157E0
3.010509331E0,3.399766386E-1,-9.253889084E0,2.384624958E0
3.015509364E0,3.902548850E-1,-9.337685585E0,2.363077164E0
3.020509397E0,4.692635238E-1,-9.440636635E0,2.276885748E0
3.025509397E0,5.530605912E-1,-9.431059837E0,2.181117773E0
3.030508730E0,5.722141862E-1,-9.404723167E0,2.109291792E0
3.035508730E0,5.578489900E-1,-9.289801598E0,2.049436569E0
3.040508063E0,5.195417404E-1,-9.064746857E0,1.996764183E0
3.045507396E0,4.501099288E-1,-8.906729698E0,2.011129379E0
3.050507362E0,4.141969085E-1,-8.693645477E0,2.035071373E0
3.055506695E0,4.381389022E-1,-8.561964989E0,2.090138197E0
3.060506695E0,5.027823448E-1,-8.442254066E0,2.183511972E0
3.065506728E0,6.344634295E-1,-8.444648743E0,2.252943754E0
3.070506728E0,7.158663273E-1,-8.564358711E0,2.358288765E0
3.075506728E0,7.422025204E-1,-8.703222275E0,2.415749550E0
3.080506661E0,7.398083210E-1,-8.935460091E0,2.418143749E0
3.085507294E0,7.469909191E-1,-9.040804863E0,2.427720547E0
3.090507260E0,7.493851185E-1,-9.232340813E0,2.487575531E0
3.095507926E0,7.445967197E-1,-9.375992775E0,2.564189911E0
3.100507959E0,7.158663273E-1,-9.464578629E0,2.549824715E0
3.105508192E0,6.847416759E-1,-9.457395554E0,2.487575531E0
3.114779998E0,6.775590777E-1,-9.419088364E0,2.367865562E0
3.119779998E0,7.062895298E-1,-9.397541046E0,2.274491549E0
3.124779998E0,7.948749661E-1,-9.438241959E0,2.217030764E0
3.129779964E0,8.020575643E-1,-9.507674217E0,2.197877169E0
3.134779930E0,8.188169599E-1,-9.574711800E0,2.262520552E0
3.139779930E0,7.613561153E-1,-9.648932457E0,2.346317768E0
3.144779963E0,6.536170840E-1,-9.672874451E0,2.413355350E0
3.149779996E0,5.841852427E-1,-9.634567261E0,2.461239338E0
3.154779996E0,5.434837937E-1,-9.601048470E0,2.568978310E0
3.159779996E0,5.171475410E-1,-9.574711800E0,2.700659513E0
3.164779962E0,5.291185975E-1,-9.610625267E0,2.887407303E0
3.169779928E0,4.955997467E-1,-9.653720856E0,3.071760893E0
3.174779894E0,4.501099288E-1,-9.706393242E0,3.205836058E0
3.179779894E0,3.040636182E-1,-9.775824547E0,3.280056238E0
3.184780594E0,9.097966552E-2,-9.802161217E0,3.306392431E0
3.189780627E0,-6.943184882E-2,-9.792584419E0,3.325546265E0
3.194781327E0,-2.202665508E-1,-9.814131737E0,3.327940464E0
3.199781993E0,-3.232172430E-1,-9.881169319E0,3.320757866E0
3.204781993E0,-3.232172430E-1,-1.003918743E1,3.232172251E0
3.209782626E0,-2.418143749E-1,-1.012298393E1,3.098097086E0
3.214782626E0,-7.900865376E-2,-1.020917511E1,2.901772499E0
3.219782626E0,1.197100878E-1,-1.030015469E1,2.703053713E0
3.224782659E0,2.944868207E-1,-1.035522175E1,2.528276920E0
3.229782659E0,4.429273009E-1,-1.041747093E1,2.401384354E0
3.234782025E0,6.847416759E-1,-1.045577812E1,2.140416384E0
3.239782025E0,6.871358752E-1,-1.043422985E1,1.920149803E0
3.244782025E0,6.512228847E-1,-1.027860737E1,1.762132406E0
3.249782025E0,4.716577232E-1,-1.004397583E1,1.740584612E0
3.254781991E0,3.543418646E-1,-9.653720856E0,1.853112102E0
3.259781757E0,4.644751251E-1,-9.361627579E0,1.867477298E0
3.264781757E0,4.022258818E-1,-9.045593262E0,1.956062794E0
3.269781790E0,6.224924326E-1,-8.889969826E0,1.991975784E0
3.274781823E0,1.091755986E0,-8.822932243E0,1.982398987E0
3.279781823E0,1.340752959E0,-8.837297440E0,2.056619167E0
3.284781823E0,1.345541358E0,-8.933065414E0,2.355894566E0
3.289781789E0,1.268926859E0,-9.059958458E0,2.564189911E0
3.294781789E0,1.158793569E0,-9.301773071E0,2.741360903E0
3.299781789E0,1.067813993E0,-9.636960983E0,2.880224705E0
3.304781822E0,9.816226959E-1,-9.996091843E0,2.940079689E0
3.309781822E0,9.768342972E-1,-1.040071106E1,2.944868088E0
3.314781822E0,9.672574997E-1,-1.084842682E1,2.920926094E0
3.319781822E0,9.504981041E-1,-1.121713448E1,2.834734917E0
3.324781822E0,9.768342972E-1,-1.156908226E1,2.755726099E0
3.329781822E0,1.003170490E0,-1.170076275E1,2.741360903E0
3.334781788E0,1.053448796E0,-1.176301193E1,2.760514498E0
3.339781788E0,1.000776291E0,-1.164090824E1,2.858676910E0
3.344781788E0,9.050082564E-1,-1.124586487E1,2.930502892E0
3.349781821E0,7.709329724E-1,-1.088912868E1,2.928108692E0
3.354781821E0,5.195417404E-1,-1.055394077E1,2.916137695E0
3.359781387E0,3.998316824E-1,-1.028578949E1,2.918531895E0
3.364781353E0,1.915361360E-2,-1.019241619E1,2.808398485E0
3.369781353E0,-1.604115069E-1,-1.017805099E1,2.904166698E0
3.374781419E0,-3.423708379E-1,-1.022354031E1,2.863465309E0
3.379781452E0,-3.639186621E-1,-1.026663589E1,2.839523315E0
3.384782152E0,-3.663128614E-1,-1.032649136E1,2.815581083E0
3.389782152E0,-2.849099934E-1,-1.036240387E1,2.772485495E0
3.394782152E0,-1.364694983E-1,-1.035282707E1,2.731784105E0
3.399782152E0,1.197100803E-2,-1.025705910E1,2.688688517E0
3.404782152E0,9.097966552E-2,-1.012059021E1,2.614468336E0
3.409782152E0,2.681505978E-1,-9.993697166E0,2.470816135E0
3.414782118E0,4.405331016E-1,-9.883563995E0,2.375048161E0
3.419782118E0,6.440402865E-1,-9.823708534E0,2.298433542E0
3.424782118E0,8.092401624E-1,-9.711181641E0,2.233790159E0
3.429782151E0,8.595184088E-1,-9.598653793E0,2.224213362E0
3.434781484E0,9.193734527E-1,-9.481337547E0,2.173935175E0
3.439781484E0,9.600749016E-1,-9.282619476E0,2.121262789E0
3.444781450E0,8.930372596E-1,-9.026439667E0,2.106897593E0
3.449781416E0,8.140285611E-1,-8.777442932E0,2.140416384E0
3.454781382E0,7.781155705E-1,-8.624214172E0,2.135627985E0
3.459781382E0,7.374141216E-1,-8.506897926E0,2.135627985E0
3.464781415E0,6.560112834E-1,-8.451830864E0,2.118868589E0
3.469781448E0,6.368576288E-1,-8.466196060E0,2.128445387E0
3.474781481E0,6.272808313E-1,-8.511686325E0,2.152387381E0
3.479781481E0,6.416460276E-1,-8.638579369E0,2.133233786E0
3.484781481E0,6.224924326E-1,-8.832509041E0,2.147598982E0
3.489781447E0,6.057330370E-1,-8.954613686E0,2.121262789E0
3.494781447E0,5.554547906E-1,-9.153332710E0,2.075772762E0
3.499781447E0,4.692635238E-1,-9.234735489E0,2.047042370E0
3.504781480E0,3.902548850E-1,-9.270648003E0,2.061407566E0
3.509781946E0,3.663128614E-1,-9.246706009E0,2.047042370E0
3.514781946E0,3.711012602E-1,-9.239523888E0,2.011129379E0
3.519781912E0,3.878606856E-1,-9.280224800E0,1.994369984E0
3.524781812E0,4.189853072E-1,-9.385569572E0,1.996764183E0
3.529781778E0,4.261679053E-1,-9.478943825E0,2.020706177E0
3.534781744E0,3.782838583E-1,-9.524434090E0,2.078166962E0
3.539781744E0,3.064578176E-1,-9.440636635E0,2.159569979E0
3.544781777E0,1.604115069E-1,-9.112630844E0,2.219424963E0
3.549781810E0,9.576806799E-3,-8.868422508E0,2.252943754E0
3.554781843E0,-9.816227108E-2,-8.626607895E0,2.315192938E0
3.559781843E0,-1.963245422E-1,-8.420706749E0,2.331952572E0
3.564781843E0,-2.537853718E-1,-8.291419983E0,2.267308950E0
3.569781809E0,-2.777273953E-1,-8.253112793E0,2.190694571E0
3.574781809E0,-2.849099934E-1,-8.293813705E0,2.130839586E0
3.579781809E0,-2.346317619E-1,-8.401553154E0,2.126051188E0
3.584782509E0,-1.508347094E-1,-8.624214172E0,2.226607561E0
3.589782509E0,-1.699883193E-1,-8.806173325E0,2.305616140E0
3.594782509E0,-2.202665508E-1,-8.889969826E0,2.427720547E0
3.599782509E0,-3.280056417E-1,-8.911518097E0,2.552218914E0
3.604782509E0,-3.280056417E-1,-8.964190483E0,2.619256735E0
3.609782509E0,-2.729389966E-1,-9.007286072E0,2.657563925E0
3.614782475E0,-2.657563984E-1,-9.047987938E0,2.659958124E0
3.619782475E0,-2.082955539E-1,-9.062353134E0,2.647987127E0
3.624782475E0,-1.029506698E-1,-8.995314598E0,2.566584110E0
3.629782508E0,-7.900865376E-2,-8.899546623E0,2.523488522E0
3.634781874E0,7.182604820E-2,-8.705616951E0,2.394201756E0
3.639781874E0,2.035071403E-1,-8.435071945E0,2.343923569E0
3.644781840E0,2.633621991E-1,-8.344092369E0,2.353500366E0
3.649781806E0,2.585737705E-1,-8.317755699E0,2.384624958E0
3.654781806E0,2.226607651E-1,-8.348880768E0,2.456450939E0
3.659781806E0,1.699883193E-1,-8.408735275E0,2.530671120E0
3.664781839E0,1.651999205E-1,-8.590695381E0,2.633621931E0
3.669781839E0,2.154781520E-1,-8.815750122E0,2.758120298E0
3.674781839E0,2.226607651E-1,-9.057564735E0,2.875436306E0
3.679781839E0,2.226607651E-1,-9.253889084E0,2.930502892E0
3.684781839E0,2.226607651E-1,-9.438241959E0,2.968810081E0
3.689781839E0,2.657563984E-1,-9.529222488E0,2.913743496E0
3.694781805E0,3.280056417E-1,-9.636960983E0,2.796427488E0
3.699781805E0,4.022258818E-1,-9.732728958E0,2.681505919E0
3.704781805E0,5.506663918E-1,-9.833285332E0,2.561795712E0
3.709781838E0,6.272808313E-1,-9.914688110E0,2.477998734E0
3.714781838E0,6.655880809E-1,-9.917082787E0,2.375048161E0
3.719781838E0,7.134721279E-1,-9.871592522E0,2.243366957E0
3.724781804E0,7.302315235E-1,-9.723152161E0,2.063801765E0
3.729781804E0,7.278373241E-1,-9.615413666E0,2.027888775E0
3.734781804E0,7.038952708E-1,-9.294589996E0,2.037465572E0
3.739781837E0,6.344634295E-1,-8.935460091E0,2.075772762E0
3.744781837E0,6.248866320E-1,-8.564358711E0,2.126051188E0
3.749781837E0,5.770025849E-1,-8.356062889E0,2.157175779E0
3.754781837E0,5.985504389E-1,-8.281843185E0,2.190694571E0
3.759781837E0,6.991068721E-1,-8.308178902E0,2.272097349E0
3.764781837E0,8.283938169E-1,-8.518868446E0,2.444479942E0
3.769781803E0,9.217676520E-1,-8.688857079E0,2.573766708E0
3.774781769E0,1.031900883E0,-8.923488617E0,2.774879694E0
3.779781769E0,9.864110947E-1,-9.155726433E0,2.997540474E0
3.784782435E0,9.002198577E-1,-9.404723167E0,3.186682463E0
3.789782468E0,7.062895298E-1,-9.519645691E0,3.213018656E0
3.794782468E0,4.908113480E-1,-9.507674217E0,3.191470861E0
3.799782468E0,3.639186621E-1,-9.447818756E0,3.148375273E0
3.804782434E0,3.495534360E-1,-9.320926666E0,2.992752075E0
3.809782400E0,3.998316824E-1,-9.237129211E0,2.856282711E0
3.814782366E0,4.596867263E-1,-9.059958458E0,2.628833532E0
3.819782366E0,5.554547906E-1,-8.868422508E0,2.408566952E0
3.824782399E0,6.320692301E-1,-8.698433876E0,2.159569979E0
3.829782432E0,7.110779285E-1,-8.619425774E0,2.020706177E0
3.834781798E0,7.637503147E-1,-8.617031097E0,1.977610588E0
3.839781798E0,7.709329724E-1,-8.566753387E0,2.001552582E0
3.844781131E0,7.876923680E-1,-8.502109528E0,2.097320795E0
3.849780431E0,7.757213712E-1,-8.466196060E0,2.236184359E0
3.854780431E0,7.422025204E-1,-8.466196060E0,2.367865562E0
3.859780431E0,7.110779285E-1,-8.576330185E0,2.528276920E0
3.864780464E0,7.517793179E-1,-8.832509041E0,2.750937700E0
3.869780464E0,7.589619160E-1,-8.971372604E0,2.861071110E0
3.874780464E0,7.541735172E-1,-9.115025520E0,3.009511471E0
3.879780430E0,7.158663273E-1,-9.217975616E0,3.074155092E0
3.884780396E0,7.015010715E-1,-9.318531990E0,3.102885485E0
3.889780362E0,5.913678408E-1,-9.371204376E0,3.160346270E0
3.894780362E0,5.267243981E-1,-9.392752647E0,3.215412855E0
3.899780362E0,4.692635238E-1,-9.488520622E0,3.177105665E0
3.904780395E0,3.854664862E-1,-9.656114578E0,3.090914488E0
3.909780428E0,3.399766386E-1,-9.773430824E0,3.040636063E0
3.914780461E0,2.585737705E-1,-9.952995300E0,2.992752075E0
3.919780461E0,2.298433632E-1,-1.012537861E1,2.920926094E0
3.924780461E0,2.274491638E-1,-1.026903057E1,2.846705914E0
3.929780427E0,2.394201756E-1,-1.029057789E1,2.784456491E0
3.934780427E0,2.777273953E-1,-1.019002151E1,2.741360903E0
3.939780427E0,2.609679997E-1,-9.929053307E0,2.707842112E0
3.944780460E0,1.675941199E-1,-9.526827812E0,2.707842112E0
3.949780460E0,6.224924326E-2,-9.007286072E0,2.724601507E0
3.954780460E0,-9.816227108E-2,-8.523657799E0,2.731784105E0
3.959780460E0,-2.585737705E-1,-8.159738541E0,2.750937700E0
3.964780460E0,-3.615244627E-1,-8.042423248E0,2.715024710E0
3.969780460E0,-3.567360640E-1,-8.138191223E0,2.681505919E0
3.974780426E0,-2.633621991E-1,-8.557176590E0,2.671929121E0
3.979780426E0,-1.843535304E-1,-8.957007408E0,2.743755102E0
3.984781092E0,-1.101332754E-1,-9.337685585E0,2.861071110E0
3.989781125E0,1.197100803E-2,-9.696816444E0,2.995146275E0
3.994781791E0,1.580173075E-1,-1.000566864E1,3.150769472E0
3.999782457E0,3.088520169E-1,-1.029776096E1,3.215412855E0
4.004782423E0,4.955997467E-1,-1.053478718E1,3.232172251E0
4.009782389E0,5.530605912E-1,-1.063534355E1,3.186682463E0
4.014782389E0,6.392518282E-1,-1.070238113E1,3.093308687E0
4.019782422E0,6.799532771E-1,-1.068562126E1,3.004723072E0
4.024782455E0,6.679822803E-1,-1.049169159E1,2.899378300E0
4.029782455E0,6.057330370E-1,-1.024748230E1,2.798821688E0
4.034782455E0,5.003881454E-1,-9.883563995E0,2.736572504E0
4.039782455E0,3.016694188E-1,-9.459790230E0,2.650381327E0
4.044781555E0,1.532289088E-1,-9.036016464E0,2.523488522E0
4.049781155E0,2.394201607E-2,-8.791808128E0,2.401384354E0
4.054780455E0,-4.788403399E-3,-8.734347343E0,2.250549555E0
4.059780455E0,7.422025502E-2,-8.820538521E0,2.145204782E0
4.064780455E0,7.900865376E-2,-8.966584206E0,2.106897593E0
4.069780088E0,1.460463107E-1,-9.229947090E0,2.147598982E0
4.074779188E0,1.795651317E-1,-9.560346603E0,2.248155355E0
4.079778521E0,2.466027737E-1,-9.885957718E0,2.379836559E0
4.084778487E0,2.705447972E-1,-1.016847420E1,2.501940727E0
4.089778487E0,3.567360640E-1,-1.038634586E1,2.602497339E0
4.094778487E0,4.596867263E-1,-1.062816048E1,2.683900118E0
4.099778520E0,6.081272364E-1,-1.083406162E1,2.743755102E0
4.104778520E0,7.350199223E-1,-1.101602173E1,2.758120298E0
4.109778520E0,7.661445141E-1,-1.105432892E1,2.765302896E0
4.114778520E0,7.469909191E-1,-1.085321522E1,2.837129116E0
4.119778520E0,6.416460276E-1,-1.044620132E1,2.930502892E0
4.124778520E0,4.668693244E-1,-9.845256805E0,2.999934673E0
4.129778486E0,2.394201756E-1,-9.241917610E0,3.023876667E0
4.134778452E0,-5.506663769E-2,-8.722375870E0,2.964021683E0
4.139778452E0,-3.256114423E-1,-8.387187958E0,2.846705914E0
4.144778485E0,-5.051765442E-1,-8.315361977E0,2.647987127E0
4.149778518E0,-5.674257874E-1,-8.401553154E0,2.509123325E0
4.154778518E0,-6.129156351E-1,-8.564358711E0,2.336740971E0
4.159778518E0,-6.584054828E-1,-8.873210907E0,2.209848166E0
4.164778484E0,-6.033388376E-1,-9.368810654E0,2.094926596E0
4.169778450E0,-4.764461517E-1,-9.749488831E0,2.092532396E0
4.174778416E0,-4.046200812E-1,-9.998485565E0,2.145204782E0
4.179778416E0,-2.274491638E-1,-1.014932060E1,2.281674147E0
4.184778449E0,1.795651317E-1,-1.035522175E1,2.406172752E0
4.189778482E0,3.878606856E-1,-1.044859505E1,2.504334927E0
4.194779415E0,6.129156351E-1,-1.055394077E1,2.545036316E0
4.199779815E0,7.709329724E-1,-1.067604446E1,2.487575531E0
4.204780481E0,8.164227605E-1,-1.080533123E1,2.394201756E0
4.209780447E0,8.092401624E-1,-1.086997509E1,2.303221941E0
4.214780447E0,7.230489254E-1,-1.080054283E1,2.281674147E0
4.219780847E0,6.177040339E-1,-1.061140156E1,2.322375536E0
4.224781780E0,5.291185975E-1,-1.033367348E1,2.365471363E0
4.229782446E0,3.782838583E-1,-1.004158115E1,2.444479942E0
4.234781779E0,1.699883193E-1,-9.792584419E0,2.528276920E0
4.239781445E0,-5.506663769E-2,-9.517251015E0,2.636016130E0
4.244781411E0,-2.729389966E-1,-9.225158691E0,2.719813108E0
4.249781377E0,-3.280056417E-1,-9.167697906E0,2.753331900E0
4.254781377E0,-3.495534360E-1,-9.126996040E0,2.760514498E0
4.259781377E0,-4.141969085E-1,-9.184456825E0,2.779668093E0
4.264781410E0,-5.027823448E-1,-9.273042679E0,2.798821688E0
4.269781443E0,-5.291185975E-1,-9.404723167E0,2.851494312E0
4.274781476E0,-5.195417404E-1,-9.591471672E0,2.901772499E0
4.279781476E0,-4.070142806E-1,-9.876380920E0,2.999934673E0
4.284781476E0,-2.705447972E-1,-1.036958694E1,3.081337690E0
4.289781442E0,-1.699883193E-1,-1.065449715E1,3.071760893E0
4.294781442E0,2.394201700E-3,-1.103278065E1,3.028665066E0
4.299781442E0,1.651999205E-1,-1.133444977E1,2.901772499E0
4.304781475E0,3.591302633E-1,-1.143021774E1,2.748543501E0
4.309781475E0,4.860229492E-1,-1.138472843E1,2.621650934E0
4.314781475E0,5.913678408E-1,-1.106629944E1,2.499546528E0
4.319781475E0,6.751648784E-1,-1.069040966E1,2.449268341E0
4.324781475E0,7.565677166E-1,-1.031451988E1,2.382230759E0
4.329781475E0,7.685387731E-1,-9.895534515E0,2.305616140E0
4.334781441E0,7.158663273E-1,-9.469367027E0,2.243366957E0
4.339781441E0,5.770025849E-1,-9.081506729E0,2.154781580E0
4.344781441E0,4.118026793E-1,-8.722375870E0,2.080561161E0
4.349780807E0,3.232172430E-1,-8.609848976E0,2.047042370E0
4.354780807E0,2.298433632E-1,-8.557176590E0,1.999158382E0
4.359780807E0,2.106897533E-1,-8.609848976E0,1.948880196E0
4.364780773E0,1.292868853E-1,-8.561964989E0,1.965639591E0
4.369780739E0,6.703764945E-2,-8.451830864E0,2.006340981E0
4.374780705E0,3.112462163E-2,-8.356062889E0,2.073378563E0
4.379780705E0,3.591302410E-2,-8.250718117E0,2.157175779E0
4.384781371E0,4.309562966E-2,-8.262689590E0,2.229001760E0
4.389781704E0,8.619125932E-2,-8.389581680E0,2.267308950E0
4.394781737E0,6.943184882E-2,-8.621819496E0,2.315192938E0
4.399781770E0,1.292868853E-1,-8.997709274E0,2.341529369E0
4.404781770E0,2.226607651E-1,-9.579500198E0,2.317587137E0
4.409781770E0,3.663128614E-1,-1.008467674E1,2.274491549E0
4.414781736E0,4.333505034E-1,-1.051563358E1,2.331952572E0
4.419781736E0,5.530605912E-1,-1.084363842E1,2.389413357E0
4.424781736E0,6.775590777E-1,-1.098968506E1,2.470816135E0
4.429781769E0,7.110779285E-1,-1.097053146E1,2.590526342E0
4.434781102E0,6.895300746E-1,-1.080293751E1,2.686294317E0
4.439781102E0,6.679822803E-1,-1.051802731E1,2.798821688E0
4.444781068E0,5.722141862E-1,-1.008946514E1,2.791639090E0
4.449781034E0,5.434837937E-1,-9.876380920E0,2.710236311E0
4.454781000E0,4.501099288E-1,-9.620202065E0,2.583343744E0
4.459781000E0,3.782838583E-1,-9.541193008E0,2.389413357E0
4.464781033E0,2.178723514E-1,-9.450213432E0,2.248155355E0
4.469781066E0,-3.112462163E-2,-9.273042679E0,2.106897593E0
4.474781099E0,-1.915361285E-1,-9.055170059E0,2.018311977E0
4.479781099E0,-3.016694188E-1,-8.832509041E0,2.020706177E0
4.484781099E0,-4.189853072E-1,-8.624214172E0,2.085349798E0
4.489781065E0,-4.788403511E-1,-8.511686325E0,2.152387381E0
4.494781065E0,-6.416460276E-1,-8.415918350E0,2.252943754E0
4.499781731E0,-7.110779285E-1,-8.461407661E0,2.300827742E0
4.504781764E0,-7.469909191E-1,-8.731952667E0,2.324769735E0
4.509781797E0,-7.182605267E-1,-9.167697906E0,2.322375536E0
4.514781797E0,-5.961562395E-1,-9.675268173E0,2.346317768E0
4.519781797E0,-4.381389022E-1,-1.008228302E1,2.449268341E0
4.524781797E0,-2.106897533E-1,-1.046056652E1,2.633621931E0
4.529781797E0,-1.029506698E-1,-1.057069969E1,2.825158119E0
4.534781797E0,-1.675941236E-2,-1.050366211E1,3.055001259E0
4.539781763E0,8.619125932E-2,-1.032888508E1,3.248931646E0
4.544782396E0,2.705447972E-1,-1.001285076E1,3.383007050E0
4.549782396E0,3.327940404E-1,-9.888352394E0,3.354276657E0
4.554782429E0,3.423708379E-1,-9.739912033E0,3.236960649E0
4.559782429E0,3.208230138E-1,-9.648932457E0,3.102885485E0
4.564782429E0,2.130839527E-1,-9.548376083E0,2.968810081E0
4.569782395E0,1.101332754E-1,-9.380781174E0,2.786850691E0
4.574782395E0,2.633621916E-2,-9.160514832E0,2.561795712E0
4.579782395E0,-1.436521020E-2,-8.968978882E0,2.334346771E0
4.584783095E0,-1.077390760E-1,-8.715193748E0,2.195482969E0
4.589783095E0,-2.130839527E-1,-8.643367767E0,2.171540976E0
4.594783095E0,-3.758896589E-1,-8.693645477E0,2.161964178E0
4.599783095E0,-4.118026793E-1,-8.846874237E0,2.109291792E0
4.604783095E0,-3.926490843E-1,-9.258677483E0,2.023100376E0
4.609783095E0,-3.160346150E-1,-9.608230591E0,2.006340981E0
4.614783061E0,-2.035071403E-1,-9.969755173E0,2.035071373E0
4.619783061E0,-7.661445439E-2,-1.024987698E1,2.059013367E0
4.624783061E0,1.388636976E-1,-1.043662453E1,2.133233786E0
4.629783094E0,2.825157940E-1,-1.050845051E1,2.161964178E0
4.634782460E0,5.027823448E-1,-1.055394077E1,2.193088770E0
4.639782460E0,6.799532771E-1,-1.052042198E1,2.267308950E0
4.644781760E0,8.523358107E-1,-1.028818417E1,2.329558372E0
4.649781726E0,9.409212470E-1,-9.984120369E0,2.375048161E0
4.654781726E0,9.576807022E-1,-9.636960983E0,2.449268341E0
4.659781726E0,9.457096457E-1,-9.229947090E0,2.468421936E0
4.664781759E0,8.978256583E-1,-8.901941299E0,2.434903145E0
4.669781759E0,7.876923680E-1,-8.674491882E0,2.331952572E0
4.674781759E0,6.967126727E-1,-8.559570312E0,2.250549555E0
4.679781759E0,5.626373887E-1,-8.499714851E0,2.202665567E0
4.684781759E0,3.112462163E-1,-8.530839920E0,2.221819162E0
4.689781759E0,2.059013397E-1,-8.640973091E0,2.205059767E0
4.694781092E0,7.182604820E-2,-8.856451035E0,2.243366957E0
4.699781092E0,5.746084079E-2,-9.067141533E0,2.231395960E0
4.704781092E0,4.548983276E-2,-9.265859604E0,2.219424963E0
4.709781125E0,5.746084079E-2,-9.399934769E0,2.161964178E0
4.714781125E0,1.292868853E-1,-9.512462616E0,2.138022184E0
4.719781125E0,2.154781520E-1,-9.545981407E0,2.138022184E0
4.724781091E0,4.141969085E-1,-9.481337547E0,2.085349798E0
4.729781091E0,5.410895944E-1,-9.368810654E0,2.049436569E0
4.734781091E0,6.512228847E-1,-9.203610420E0,2.003946781E0
4.739781124E0,7.733271718E-1,-9.002497673E0,1.915361404E0
4.744781124E0,9.552865028E-1,-8.782231331E0,1.783680320E0
4.749781124E0,1.149216771E0,-8.652944565E0,1.716642618E0
4.754781124E0,1.204283476E0,-8.502109528E0,1.707065821E0
4.759781124E0,1.204283476E0,-8.480561256E0,1.747767210E0
4.764781124E0,1.177947283E0,-8.585906982E0,1.843535304E0
4.769781090E0,1.113303781E0,-8.674491882E0,1.977610588E0
4.774781056E0,9.481038451E-1,-8.779836655E0,2.188300371E0
4.779781056E0,7.757213712E-1,-8.787019730E0,2.372653961E0
4.784781722E0,5.243301988E-1,-8.787019730E0,2.616862535E0
4.789781755E0,4.046200812E-1,-8.830115318E0,2.731784105E0
4.794782421E0,2.585737705E-1,-8.880393028E0,2.779668093E0
4.799782421E0,2.226607651E-1,-8.873210907E0,2.777273893E0
4.804782387E0,2.130839527E-1,-8.849268913E0,2.657563925E0
4.809782387E0,1.819593310E-1,-8.813355446E0,2.533065319E0
4.814782387E0,1.939303428E-1,-8.877999306E0,2.384624958E0
4.819782420E0,2.418143749E-1,-8.985737801E0,2.152387381E0
4.824782420E0,2.442085743E-1,-9.119813919E0,1.889025092E0
4.829782420E0,2.633621991E-1,-9.182063103E0,1.766920805E0
4.834781753E0,2.585737705E-1,-9.222764015E0,1.656787634E0
4.839781753E0,4.165911078E-1,-9.246706009E0,1.532289028E0
4.844781753E0,3.758896589E-1,-9.076718330E0,1.537077546E0
4.849781719E0,3.902548850E-1,-8.772654533E0,1.561019540E0
4.854781719E0,3.639186621E-1,-8.439860344E0,1.575384736E0
4.859781719E0,2.729389966E-1,-8.059182167E0,1.628057122E0
4.864781752E0,1.460463107E-1,-7.757512569E0,1.628057122E0
4.869781752E0,7.900865376E-2,-7.735964775E0,1.635239720E0
4.874781752E0,2.394201700E-3,-7.889194012E0,1.632845521E0
4.879781718E0,-4.070143029E-2,-8.255506516E0,1.666364431E0
4.884781684E0,-9.576806799E-3,-8.966584206E0,1.793257117E0
4.889781650E0,1.915361360E-2,-9.507674217E0,1.951274395E0
4.894781650E0,-5.506663769E-2,-9.917082787E0,2.178723574E0
4.899781650E0,-3.830722719E-2,-1.022593498E1,2.439691544E0
4.904781683E0,-8.619125932E-2,-1.035522175E1,2.700659513E0
4.909781716E0,-1.556231081E-1,-1.027381897E1,2.964021683E0
4.914781749E0,-2.370259613E-1,-1.000327396E1,3.201047659E0
4.919781749E0,-3.615244627E-1,-9.617807388E0,3.337517262E0
4.924781749E0,-5.219359994E-1,-9.124602318E0,3.373430252E0
4.929781715E0,-5.434837937E-1,-8.945036888E0,3.268085241E0
4.934781715E0,-5.099649429E-1,-8.861239433E0,3.007117271E0
4.939781715E0,-4.955997467E-1,-8.930671692E0,2.798821688E0
4.944781748E0,-4.477157295E-1,-9.033622742E0,2.597708941E0
4.949781748E0,-4.860229492E-1,-9.194033623E0,2.446874142E0
4.954781748E0,-4.979939461E-1,-9.323320389E0,2.403778553E0
4.959781714E0,-5.267243981E-1,-9.471760750E0,2.439691544E0
4.964781680E0,-4.453215301E-1,-9.636960983E0,2.497152328E0
4.969781646E0,-3.256114423E-1,-9.780612946E0,2.480392933E0
4.974781646E0,-1.364694983E-1,-9.981725693E0,2.487575531E0
4.979781679E0,1.268926859E-1,-1.029536629E1,2.406172752E0
4.984782379E0,5.099649429E-1,-1.059943008E1,2.382230759E0
4.989782412E0,6.584054828E-1,-1.069040966E1,2.389413357E0
4.994782412E0,7.829039693E-1,-1.062816048E1,2.398990154E0
4.999782412E0,8.307880163E-1,-1.039113426E1,2.401384354E0
5.004782378E0,6.871358752E-1,-9.988908768E0,2.576161146E0
5.009782344E0,5.746083856E-1,-9.452607155E0,2.688688517E0
5.014782344E0,3.280056417E-1,-8.892364502E0,2.875436306E0
5.019782377E0,4.788403213E-2,-8.344092369E0,3.007117271E0
5.024782410E0,-3.184288144E-1,-7.800608635E0,3.119644880E0
5.029782410E0,-5.147533417E-1,-7.568370819E0,3.131615877E0
5.034781743E0,-8.786720037E-1,-7.422324657E0,3.112462282E0
5.039781743E0,-1.132457376E0,-7.587524414E0,3.076549292E0
5.044781076E0,-1.302445769E0,-7.961019993E0,2.990357876E0
5.049780742E0,-1.359906554E0,-8.478167534E0,2.959233284E0
5.054780708E0,-1.244984865E0,-9.119813919E0,2.875436306E0
5.059780708E0,-1.017535686E0,-9.735123634E0,2.803610086E0
5.064780708E0,-6.248866320E-1,-1.032170296E1,2.784456491E0
5.069780741E0,-3.256114423E-1,-1.058267117E1,2.777273893E0
5.074780741E0,2.082955539E-1,-1.081011963E1,2.765302896E0
5.079780074E0,4.572925270E-1,-1.088194561E1,2.808398485E0
5.084780040E0,7.805097699E-1,-1.087955189E1,2.865859509E0
5.089780040E0,9.600749016E-1,-1.093701267E1,2.880224705E0
5.094780040E0,1.089361787E0,-1.101362705E1,2.911349297E0
5.099780073E0,1.139639974E0,-1.113094330E1,2.952050686E0
5.104780073E0,1.115697980E0,-1.116685581E1,3.069366693E0
5.109780073E0,1.041477680E0,-1.110460663E1,3.150769472E0
5.114780073E0,8.738836050E-1,-1.087476349E1,3.287238836E0
5.119780073E0,6.871358752E-1,-1.050126839E1,3.423708439E0
5.124780073E0,3.423708379E-1,-9.799766541E0,3.490746021E0
5.129780039E0,6.224924326E-2,-9.196428299E0,3.454833031E0
5.134780005E0,-2.178723514E-1,-8.660126686E0,3.330334663E0
5.139780005E0,-4.860229492E-1,-8.231564522E0,3.196259260E0
5.144780038E0,-7.445967197E-1,-7.949048996E0,3.059789658E0
5.149780071E0,-9.313444495E-1,-7.822156429E0,2.973598480E0
5.154780071E0,-1.115697980E0,-7.860463619E0,2.899378300E0
5.159780071E0,-1.213860273E0,-8.063970566E0,2.920926094E0
5.164780037E0,-1.158793569E0,-8.633790970E0,2.913743496E0
5.169780003E0,-1.089361787E0,-9.045593262E0,2.904166698E0
5.174779969E0,-6.847416759E-1,-9.751882553E0,2.875436306E0
5.179779969E0,-3.280056417E-1,-1.023551178E1,2.825158119E0
5.184780669E0,8.619125932E-2,-1.059943008E1,2.832340717E0
5.189780702E0,4.764461517E-1,-1.074547672E1,2.882618904E0
5.194781402E0,7.685387731E-1,-1.073111153E1,2.968810081E0
5.199781735E0,9.672574997E-1,-1.062337208E1,3.117250681E0
5.204781735E0,1.118092179E0,-1.040789413E1,3.301604033E0
5.209781701E0,1.156399369E0,-1.022593498E1,3.363853455E0
5.214781701E0,1.132457376E0,-9.957783699E0,3.464409828E0
5.219781701E0,1.024718285E0,-9.658509254E0,3.507505417E0
5.224781734E0,9.002198577E-1,-9.443030357E0,3.526659012E0
5.229782400E0,7.709329724E-1,-9.419088364E0,3.418920040E0
5.234781733E0,6.392518282E-1,-9.507674217E0,3.260902643E0
5.239781699E0,5.602431893E-1,-9.680056572E0,3.081337690E0
5.244781665E0,4.572925270E-1,-9.871592522E0,2.899378300E0
5.249780965E0,4.740519226E-1,-1.004636955E1,2.743755102E0
5.254780965E0,4.860229492E-1,-1.009185982E1,2.686294317E0
5.259780965E0,4.596867263E-1,-9.960178375E0,2.726995707E0
5.264780998E0,4.477157295E-1,-9.591471672E0,2.798821688E0
5.269781031E0,4.788403511E-1,-9.347262383E0,2.841917515E0
5.274781064E0,5.099649429E-1,-8.945036888E0,2.882618904E0
5.279781064E0,5.554547906E-1,-8.715193748E0,2.873042107E0
5.284781064E0,5.913678408E-1,-8.561964989E0,2.791639090E0
5.289781030E0,5.434837937E-1,-8.447042465E0,2.760514498E0
5.294781030E0,6.464344859E-1,-8.511686325E0,2.717418909E0
5.299781030E0,8.451532125E-1,-8.736741066E0,2.829946518E0
5.304781063E0,5.339069963E-1,-9.215581894E0,2.674323320E0
5.309781063E0,4.285621047E-1,-9.531616211E0,2.674323320E0
5.314781063E0,3.351882398E-1,-9.878775597E0,2.873042107E0
5.319781063E0,3.064578176E-1,-1.013256073E1,3.131615877E0
5.324781063E0,3.375824392E-1,-1.024269390E1,3.457227230E0
5.329781063E0,3.112462163E-1,-1.022593498E1,3.632004023E0
5.334781029E0,2.944868207E-1,-1.014932060E1,3.758896589E0
5.339781029E0,3.160346150E-1,-1.010622501E1,3.751713991E0
5.344781029E0,3.327940404E-1,-9.998485565E0,3.725377798E0
5.349781062E0,3.040636182E-1,-9.859622002E0,3.684676409E0
5.354781062E0,3.040636182E-1,-9.754277229E0,3.593696833E0
5.359781062E0,2.896983922E-1,-9.761459351E0,3.512293816E0
5.364781028E0,3.064578176E-1,-9.890746117E0,3.428496838E0
5.369781028E0,2.466027737E-1,-9.952995300E0,3.325546265E0
5.374781028E0,1.867477298E-1,-1.004397583E1,3.227383852E0
5.379781061E0,1.364694983E-1,-1.005834103E1,3.105279684E0
5.384781761E0,1.651999205E-1,-1.004636955E1,2.944868088E0
5.389781761E0,1.987187415E-1,-9.936236382E0,2.808398485E0
5.394781761E0,2.849099934E-1,-9.857227325E0,2.655169725E0
5.399782427E0,4.381389022E-1,-9.811738014E0,2.571372509E0
5.404782427E0,6.320692301E-1,-9.830891609E0,2.530671120E0
5.409782427E0,7.062895298E-1,-9.818920135E0,2.525882721E0
5.414782393E0,7.062895298E-1,-9.727940559E0,2.607285738E0
5.419782393E0,6.200982332E-1,-9.598653793E0,2.798821688E0
5.424782393E0,4.764461517E-1,-9.474155426E0,3.023876667E0
5.429782426E0,3.088520169E-1,-9.299378395E0,3.280056238E0
5.434781759E0,6.703764945E-2,-9.021651268E0,3.538630009E0
5.439781759E0,-1.292868853E-1,-8.760683060E0,3.751713991E0
5.444781725E0,-3.758896589E-1,-8.533234596E0,3.871424198E0
5.449781691E0,-4.740519226E-1,-8.497321129E0,3.866635799E0
5.454781657E0,-5.865794420E-1,-8.605060577E0,3.773261786E0
5.459781657E0,-5.961562395E-1,-8.882787704E0,3.588908434E0
5.464781690E0,-5.554547906E-1,-9.486125946E0,3.342305660E0
5.469781723E0,-4.189853072E-1,-1.008467674E1,3.119644880E0
5.474781756E0,-2.585737705E-1,-1.056591129E1,2.997540474E0
5.479781756E0,-5.985504389E-2,-1.084124470E1,2.928108692E0
5.484781756E0,1.316810995E-1,-1.094658947E1,2.858676910E0
5.489781722E0,3.399766386E-1,-1.079336071E1,2.849100113E0
5.494781722E0,4.381389022E-1,-1.033606815E1,2.868253708E0
5.499781722E0,5.243301988E-1,-9.715970039E0,2.827552319E0
5.504781755E0,4.812345505E-1,-8.839692116E0,2.762908697E0
5.509781788E0,4.477157295E-1,-8.442254066E0,2.612074137E0
5.514781788E0,3.543418646E-1,-8.028057098E0,2.363077164E0
5.519781754E0,2.035071403E-1,-7.927501202E0,2.214636564E0
5.524781720E0,1.915361360E-2,-8.016086578E0,2.109291792E0
5.529781686E0,-9.816227108E-2,-8.344092369E0,2.082955360E0
5.534781652E0,-1.891419291E-1,-8.753500938E0,2.161964178E0
5.539781652E0,-2.801215947E-1,-9.155726433E0,2.262520552E0
5.544781685E0,-3.016694188E-1,-9.550769806E0,2.432508945E0
5.549781718E0,-2.729389966E-1,-9.699210167E0,2.566584110E0
5.554781751E0,-1.675941199E-1,-9.783007622E0,2.717418909E0
5.559781751E0,-1.292868853E-1,-9.656114578E0,2.863465309E0
5.564781751E0,-9.097966552E-2,-9.414299965E0,2.956839085E0
5.569781717E0,-6.224924326E-2,-9.294589996E0,2.954444885E0
5.574781717E0,-6.464344263E-2,-9.280224800E0,2.877830505E0
5.579781717E0,-1.197100878E-1,-9.404723167E0,2.820369720E0
5.584782417E0,-1.963245422E-1,-9.653720856E0,2.707842112E0
5.589782417E0,-2.561795712E-1,-9.799766541E0,2.695871115E0
5.594782417E0,-2.992752194E-1,-9.960178375E0,2.750937700E0
5.599782417E0,-3.998316824E-1,-1.003200436E1,2.877830505E0
5.604782417E0,-4.764461517E-1,-9.914688110E0,3.035847664E0
5.609782417E0,-5.147533417E-1,-9.775824547E0,3.090914488E0
5.614782383E0,-6.033388376E-1,-9.332897186E0,3.093308687E0
5.619782383E0,-7.541735172E-1,-8.856451035E0,3.016694069E0
5.624782383E0,-8.331822157E-1,-8.418312073E0,2.877830505E0
5.629782416E0,-9.337386489E-1,-8.109460831E0,2.767697096E0
5.634781782E0,-9.624691010E-1,-8.063970566E0,2.612074137E0
5.639781782E0,-8.954314590E-1,-8.289025307E0,2.513911724E0
5.644781748E0,-7.613561153E-1,-8.894758224E0,2.406172752E0
5.649781714E0,-6.871358752E-1,-9.304166794E0,2.389413357E0
5.654781714E0,-5.889736414E-1,-9.890746117E0,2.458845139E0
5.659781714E0,-4.740519226E-1,-1.020678139E1,2.561795712E0
5.664781747E0,-3.902548850E-1,-1.028339577E1,2.772485495E0
5.669781747E0,-2.968810201E-1,-1.014453220E1,2.952050686E0
5.674781747E0,-1.580173075E-1,-9.895534515E0,3.138798475E0
5.679781747E0,-7.182604820E-2,-9.627384186E0,3.232172251E0
5.684781747E0,-1.244984865E-1,-9.206005096E0,3.268085241E0
5.689781747E0,-2.322375625E-1,-8.921094894E0,3.208230257E0
5.694781713E0,-3.495534360E-1,-8.760683060E0,3.026270866E0
5.699781713E0,-3.854664862E-1,-8.751106262E0,2.825158119E0
5.704781713E0,-5.650315881E-1,-8.777442932E0,2.671929121E0
5.709781746E0,-6.871358752E-1,-8.808567047E0,2.604891539E0
5.714781746E0,-7.445967197E-1,-8.916306496E0,2.650381327E0
5.719781746E0,-7.637503147E-1,-9.062353134E0,2.736572504E0
5.724781712E0,-7.661445141E-1,-9.093477249E0,2.841917515E0
5.729781712E0,-7.326257229E-1,-8.973767281E0,2.980781078E0
5.734781712E0,-6.727706790E-1,-8.815750122E0,3.057395458E0
5.739781745E0,-5.937620401E-1,-8.676886559E0,3.086126089E0
5.744781745E0,-5.746083856E-1,-8.466196060E0,3.055001259E0
5.749781745E0,-5.315127969E-1,-8.317755699E0,2.990357876E0
5.754781745E0,-5.315127969E-1,-8.140584946E0,2.978386879E0
5.759781745E0,-4.812345505E-1,-8.195652008E0,2.975992680E0
5.764781745E0,-4.548983276E-1,-8.413523674E0,2.949656487E0
5.769781711E0,-4.668693244E-1,-8.767866135E0,2.949656487E0
5.774781677E0,-4.501099288E-1,-9.265859604E0,2.892195702E0
5.779781677E0,-3.854664862E-1,-9.761459351E0,2.863465309E0
5.784782343E0,-2.394201756E-1,-1.032888508E1,2.873042107E0
5.789782376E0,-1.173158810E-1,-1.064252567E1,2.841917515E0
5.794782376E0,8.140286058E-2,-1.088194561E1,2.853888512E0
5.799782376E0,2.992752194E-1,-1.100883865E1,2.834734917E0
5.804782342E0,5.243301988E-1,-1.088912868E1,2.851494312E0
5.809782308E0,6.631938815E-1,-1.049647999E1,2.861071110E0
5.814782274E0,6.655880809E-1,-9.900322914E0,2.877830505E0
5.819782274E0,6.344634295E-1,-9.371204376E0,2.829946518E0
5.824782307E0,5.793967843E-1,-8.866027832E0,2.786850691E0
5.829782340E0,4.860229492E-1,-8.633790970E0,2.772485495E0
5.834782373E0,2.944868207E-1,-8.411129951E0,2.832340717E0
5.839782373E0,1.268926859E-1,-8.327332497E0,2.944868088E0
5.844782373E0,-9.337386489E-2,-8.375216484E0,3.203441858E0
5.849782339E0,-2.274491638E-1,-8.394370079E0,3.361459255E0
5.854782339E0,-4.572925270E-1,-8.427888870E0,3.588908434E0
5.859782339E0,-5.554547906E-1,-8.466196060E0,3.696647406E0
5.864782372E0,-5.482721925E-1,-8.523657799E0,3.734954596E0
5.869782372E0,-5.315127969E-1,-8.612242699E0,3.706224203E0
5.874782372E0,-4.668693244E-1,-8.698433876E0,3.624821424E0
5.879782338E0,-3.734954596E-1,-8.921094894E0,3.500322819E0
5.884782304E0,-1.508347094E-1,-9.407117844E0,3.263296843E0
5.889782270E0,-1.436521020E-2,-9.751882553E0,3.107673883E0
5.894782270E0,2.705447972E-1,-1.029776096E1,2.952050686E0
5.899782270E0,5.985504389E-1,-1.081011963E1,2.880224705E0
5.904782303E0,8.307880163E-1,-1.118122101E1,2.885013103E0
5.909782336E0,1.039083481E0,-1.119558620E1,2.920926094E0
5.914782369E0,1.122880578E0,-1.092264748E1,3.002328873E0
5.919782369E0,1.223437071E0,-1.043662453E1,3.129221678E0
5.924782369E0,1.182735682E0,-9.589076996E0,3.241749048E0
5.929782335E0,1.082179189E0,-8.911518097E0,3.270479441E0
5.934782335E0,8.882488012E-1,-8.044816971E0,3.256114244E0
5.939782335E0,5.770025849E-1,-7.386411667E0,3.203441858E0
5.944782368E0,4.548983276E-2,-6.948272705E0,3.074155092E0
5.949782368E0,-2.825157940E-1,-7.034463882E0,2.887407303E0
5.954782368E0,-5.889736414E-1,-7.372046471E0,2.794033289E0
5.959782368E0,-7.685387731E-1,-7.893982410E0,2.784456491E0
5.964782368E0,-8.930372596E-1,-8.588300705E0,2.856282711E0
5.969782368E0,-8.379706144E-1,-9.323320389E0,2.913743496E0
5.974782334E0,-6.200982332E-1,-1.000806236E1,2.940079689E0
5.979782334E0,-2.968810201E-1,-1.048211479E1,2.992752075E0
5.984782334E0,2.059013397E-1,-1.069280434E1,3.076549292E0
5.989782367E0,4.716577232E-1,-1.061858368E1,3.098097086E0
5.994782367E0,7.398083210E-1,-1.017565632E1,3.098097086E0
5.999782367E0,8.523358107E-1,-9.833285332E0,3.107673883E0
6.004782333E0,8.116343617E-1,-9.560346603E0,3.100491285E0
6.009782299E0,6.799532771E-1,-9.349657059E0,3.107673883E0
6.014782299E0,5.051765442E-1,-9.253889084E0,3.090914488E0
6.019781665E0,2.657563984E-1,-9.234735489E0,3.136404276E0
6.024781698E0,-2.873042040E-2,-9.261071205E0,3.136404276E0
6.029781698E0,-1.747767180E-1,-9.249100685E0,3.093308687E0
6.034781031E0,-3.375824392E-1,-9.146149635E0,2.956839085E0
6.039780364E0,-3.256114423E-1,-9.040804863E0,2.806004286E0
6.044780364E0,-3.375824392E-1,-8.779836655E0,2.588132143E0
6.049779697E0,-3.423708379E-1,-8.444648743E0,2.420537949E0
6.054778997E0,-4.429273009E-1,-8.174103737E0,2.260126352E0
6.059778997E0,-5.171475410E-1,-8.006509781E0,2.099714994E0
6.064778997E0,-6.272808313E-1,-8.032846451E0,1.989581585E0
6.069779030E0,-6.177040339E-1,-8.231564522E0,2.003946781E0
6.074779030E0,-5.386953950E-1,-8.743924141E0,2.066195965E0
6.079779030E0,-3.734954596E-1,-9.464578629E0,2.243366957E0
6.084778996E0,-8.140286058E-2,-1.025705910E1,2.600103140E0
6.089778296E0,6.224924326E-2,-1.063534355E1,2.808398485E0
6.094778262E0,2.202665508E-1,-1.092025280E1,3.205836058E0
6.099778262E0,2.537853718E-1,-1.069519806E1,3.356670856E0
6.104778295E0,1.221042871E-1,-1.010143661E1,3.514688015E0
6.109778328E0,-4.070143029E-2,-9.332897186E0,3.600879431E0
6.114778361E0,-2.082955539E-1,-8.619425774E0,3.562572241E0
6.119778361E0,-3.830722570E-1,-8.114249229E0,3.426102638E0
6.124777694E0,-5.578489900E-1,-7.917924404E0,3.076549292E0
6.129777660E0,-6.464344859E-1,-8.018480301E0,2.868253708E0
6.134777626E0,-7.924807668E-1,-8.310573578E0,2.640804529E0
6.139777626E0,-8.667010069E-1,-8.664915085E0,2.537853718E0
6.144777659E0,-9.002198577E-1,-9.229947090E0,2.588132143E0
6.149777692E0,-8.906430602E-1,-9.567529678E0,2.700659513E0
6.154777692E0,-8.283938169E-1,-9.804554939E0,2.865859509E0
6.159777692E0,-7.206547260E-1,-9.857227325E0,2.995146275E0
6.164777658E0,-5.027823448E-1,-9.680056572E0,3.126827478E0
6.169778291E0,-3.878606856E-1,-9.505280495E0,3.143586874E0
6.174778257E0,-2.418143749E-1,-9.337685585E0,3.066972494E0
6.179778257E0,-1.340752989E-1,-9.330503464E0,2.925714493E0
6.184778957E0,-1.388636976E-1,-9.431059837E0,2.782062292E0
6.189779657E0,-2.130839527E-1,-9.613018990E0,2.628833532E0
6.194779690E0,-3.016694188E-1,-9.828496933E0,2.640804529E0
6.199780356E0,-4.094084799E-1,-1.011819553E1,2.822763920E0
6.204781022E0,-4.357447028E-1,-1.038395214E1,3.052607059E0
6.209780988E0,-5.051765442E-1,-1.055633450E1,3.277662039E0
6.214780988E0,-5.339069963E-1,-1.054436398E1,3.452438831E0
6.219780988E0,-5.578489900E-1,-1.035043335E1,3.500322819E0
6.224781021E0,-6.512228847E-1,-9.912294388E0,3.327940464E0
6.229781021E0,-6.440402865E-1,-9.675268173E0,3.141192675E0
6.234780354E0,-5.530605912E-1,-9.505280495E0,2.698265314E0
6.239781020E0,-5.554547906E-1,-9.364022255E0,2.398990154E0
6.244781020E0,-5.458779931E-1,-9.268254280E0,2.161964178E0
6.249781020E0,-5.267243981E-1,-9.232340813E0,2.025494576E0
6.254780986E0,-5.602431893E-1,-9.222764015E0,2.003946781E0
6.259780952E0,-5.793967843E-1,-9.217975616E0,2.111685991E0
6.264780952E0,-6.320692301E-1,-9.292196274E0,2.319981337E0
6.269780985E0,-6.200982332E-1,-9.404723167E0,2.477998734E0
6.274781685E0,-5.698199868E-1,-9.534010887E0,2.671929121E0
6.279781685E0,-5.865794420E-1,-9.490914345E0,2.839523315E0
6.284781685E0,-6.799532771E-1,-9.373599052E0,2.997540474E0
6.289781651E0,-7.398083210E-1,-9.244312286E0,3.059789658E0
6.294781651E0,-8.379706144E-1,-9.160514832E0,3.059789658E0
6.299781651E0,-1.012747288E0,-9.088688850E0,3.136404276E0
6.304781684E0,-1.221042871E0,-9.095871925E0,3.246537447E0
6.309781684E0,-1.288080573E0,-9.294589996E0,3.292027235E0
6.314781684E0,-1.347935557E0,-9.529222488E0,3.387795448E0
6.319781684E0,-1.321599364E0,-9.835680008E0,3.380612850E0
6.324781684E0,-1.158793569E0,-1.013974380E1,3.368641853E0
6.329781684E0,-1.125274777E0,-1.021875191E1,3.347094059E0
6.334781650E0,-7.876923680E-1,-1.033606815E1,3.143586874E0
6.339781650E0,-5.554547906E-1,-1.015171432E1,2.935291290E0
6.344781650E0,-3.711012602E-1,-9.842862129E0,2.681505919E0
6.349781683E0,-2.466027737E-1,-9.493309021E0,2.442085743E0
6.354781683E0,-8.619125932E-2,-9.182063103E0,2.190694571E0
6.359781683E0,-2.394201700E-3,-8.918700218E0,2.013523579E0
6.364781649E0,3.112462163E-2,-8.633790970E0,1.860294700E0
6.369781615E0,5.027823523E-2,-8.602665901E0,1.807622313E0
6.374781581E0,1.436521020E-2,-8.686463356E0,1.872265697E0
6.379780914E0,-1.029506698E-1,-8.784625053E0,2.008735180E0
6.384781580E0,-2.633621991E-1,-9.126996040E0,2.336740971E0
6.389781613E0,-4.046200812E-1,-9.466972351E0,2.698265314E0
6.394781646E0,-5.363011956E-1,-9.708786964E0,3.031059265E0
6.399781679E0,-7.350199223E-1,-9.756670952E0,3.351882458E0
6.404781679E0,-9.097966552E-1,-9.706393242E0,3.643975019E0
6.409781679E0,-9.576807022E-1,-9.694421768E0,3.732560396E0
6.414781645E0,-9.361328483E-1,-9.636960983E0,3.761290789E0
6.419781645E0,-8.571242094E-1,-9.591471672E0,3.684676409E0
6.424781645E0,-5.913678408E-1,-9.684844971E0,3.462015629E0
6.429781678E0,-4.261679053E-1,-9.548376083E0,3.244143248E0
6.434781011E0,-3.016694188E-1,-9.366415977E0,3.023876667E0
6.439781011E0,-2.729389966E-1,-9.019257545E0,2.858676910E0
6.444780977E0,-4.094084799E-1,-8.559570312E0,2.743755102E0
6.449780943E0,-6.153098345E-1,-8.135796547E0,2.631227732E0
6.454780909E0,-7.852981687E-1,-7.803002834E0,2.487575531E0
6.459780909E0,-8.690952063E-1,-7.702445984E0,2.372653961E0
6.464780942E0,-9.050082564E-1,-7.752724171E0,2.231395960E0
6.469780975E0,-8.331822157E-1,-7.905953407E0,2.114080191E0
6.474781008E0,-6.033388376E-1,-8.329727173E0,1.917755604E0
6.479781008E0,-4.261679053E-1,-8.763077736E0,1.740584612E0
6.484781008E0,-1.771709323E-1,-9.342473984E0,1.556231141E0
6.489780974E0,6.464344263E-2,-9.862015724E0,1.484405041E0
6.494780974E0,3.208230138E-1,-1.038395214E1,1.462857246E0
6.499780974E0,6.200982332E-1,-1.083166790E1,1.546654344E0
6.504781007E0,8.403648138E-1,-1.114530849E1,1.819593310E0
6.509781040E0,8.930372596E-1,-1.114052010E1,2.037465572E0
6.514781040E0,7.876923680E-1,-1.096574306E1,2.396595955E0
6.519781040E0,6.464344859E-1,-1.058506489E1,2.676717520E0
6.524781040E0,3.519476354E-1,-9.890746117E0,2.932897091E0
6.529781706E0,-5.267243832E-2,-9.380781174E0,3.016694069E0
6.534781706E0,-3.950432837E-1,-8.925883293E0,3.074155092E0
6.539781672E0,-4.596867263E-1,-8.497321129E0,2.937685490E0
6.544781672E0,-6.368576288E-1,-8.097489357E0,2.810792685E0
6.549781672E0,-8.738836050E-1,-7.697657585E0,2.755726099E0
6.554781705E0,-1.249773264E0,-7.424718857E0,2.786850691E0
6.559781705E0,-1.625662923E0,-7.264307022E0,2.875436306E0
6.564781705E0,-1.898601890E0,-7.427113056E0,2.961627483E0
6.569781671E0,-1.987187386E0,-7.774271965E0,2.913743496E0
6.574781671E0,-1.951274395E0,-8.569147110E0,2.782062292E0
6.579781671E0,-1.735796213E0,-9.356839180E0,2.583343744E0
6.584782371E0,-1.453280449E0,-1.010861874E1,2.353500366E0
6.589782371E0,-1.130063176E0,-1.057309437E1,2.279279947E0
6.594782371E0,-8.451532125E-1,-1.070716953E1,2.372653961E0
6.599782371E0,-6.009446383E-1,-1.057069969E1,2.434903145E0
6.604782371E0,-4.548983276E-1,-1.018523312E1,2.564189911E0
6.609782371E0,-4.692635238E-1,-9.787796021E0,2.710236311E0
6.614782337E0,-4.908113480E-1,-9.294589996E0,2.806004286E0
6.619782337E0,-4.525041282E-1,-8.909123421E0,2.796427488E0
6.624782337E0,-3.854664862E-1,-8.614637375E0,2.667140722E0
6.629782370E0,-4.692635238E-1,-8.485349655E0,2.619256735E0
6.634781736E0,-7.469909191E-1,-8.439860344E0,2.674323320E0
6.639781736E0,-9.959878922E-1,-8.691251755E0,2.650381327E0
6.644781702E0,-1.343147159E0,-9.088688850E0,2.681505919E0
6.649781668E0,-1.472434044E0,-9.385569572E0,2.736572504E0
6.654781668E0,-1.841141105E0,-9.703998566E0,2.896984100E0
6.659781668E0,-2.070984364E0,-1.001045704E1,3.126827478E0
6.664781701E0,-1.855506301E0,-1.058267117E1,3.222595453E0
6.669781701E0,-1.424550056E0,-1.089631081E1,3.244143248E0
6.674781701E0,-9.361328483E-1,-1.131290245E1,3.275267839E0
6.679781701E0,-5.171475410E-1,-1.151162148E1,3.260902643E0
6.684781701E0,-1.723825186E-1,-1.160978317E1,3.248931646E0
6.689781701E0,1.316810995E-1,-1.158344746E1,3.220201254E0
6.694781667E0,2.657563984E-1,-1.137036324E1,3.213018656E0
6.699781667E0,2.873041928E-1,-1.095855999E1,3.277662039E0
6.704781667E0,1.221042871E-1,-1.022354031E1,3.421314240E0
6.709781700E0,-5.506663769E-2,-9.857227325E0,3.509899616E0
6.714781700E0,-3.854664862E-1,-9.464578629E0,3.572149038E0
6.719781700E0,-7.062895298E-1,-9.198822021E0,3.576937437E0
6.724781666E0,-1.060631394E0,-9.007286072E0,3.536235809E0
6.729781632E0,-1.386242747E0,-9.012074471E0,3.538630009E0
6.734781598E0,-1.623268723E0,-9.131784439E0,3.507505417E0
6.739781598E0,-1.821987510E0,-9.313743591E0,3.526659012E0
6.744781631E0,-1.912967205E0,-9.668086052E0,3.567360640E0
6.749781664E0,-1.934514999E0,-9.893140793E0,3.579331636E0
6.754781697E0,-1.874659896E0,-1.016368580E1,3.617638826E0
6.759781730E0,-1.673547029E0,-1.025945377E1,3.605667830E0
6.764781730E0,-1.321599364E0,-1.030015469E1,3.536235809E0
6.769781696E0,-1.022324085E0,-1.027621269E1,3.399766445E0
6.774781662E0,-6.272808313E-1,-1.036479855E1,3.162740469E0
6.779781662E0,-2.585737705E-1,-1.057309437E1,2.928108692E0
6.784782328E0,2.873042040E-2,-1.082927322E1,2.791639090E0
6.789782361E0,2.561795712E-1,-1.108784771E1,2.715024710E0
6.794782361E0,3.711012602E-1,-1.118122101E1,2.789244890E0
6.799782361E0,4.525041282E-1,-1.115009689E1,2.940079689E0
6.804782327E0,4.357447028E-1,-1.082209110E1,3.256114244E0
6.809782293E0,3.088520169E-1,-1.039352894E1,3.483563423E0
6.814782259E0,-1.244984865E-1,-9.474155426E0,3.790021181E0
6.819782259E0,-5.051765442E-1,-8.909123421E0,3.835511208E0
6.824782292E0,-8.643068075E-1,-8.571541786E0,3.835511208E0
6.829782325E0,-1.170764685E0,-8.480561256E0,3.699041605E0
6.834781691E0,-1.491587639E0,-8.631396294E0,3.541024208E0
6.839781691E0,-1.654393315E0,-9.076718330E0,3.373430252E0
6.844781691E0,-1.649604917E0,-9.991303444E0,3.229778051E0
6.849781657E0,-1.537077546E0,-1.056591129E1,3.224989653E0
6.854781657E0,-1.235408068E0,-1.123149967E1,3.289633036E0
6.859781657E0,-8.547300100E-1,-1.165287876E1,3.378218651E0
6.864781690E0,-4.860229492E-1,-1.162175465E1,3.531447411E0
6.869781690E0,-3.303998411E-1,-1.112854862E1,3.636792421E0
6.874781690E0,-2.633621991E-1,-1.045577812E1,3.699041605E0
6.879781690E0,-3.711012602E-1,-9.725546837E0,3.751713991E0
6.884781690E0,-6.296750307E-1,-9.062353134E0,3.670311213E0
6.889781690E0,-7.350199223E-1,-8.949825287E0,3.560178041E0
6.894781656E0,-8.762778044E-1,-8.954613686E0,3.411737442E0
6.899781622E0,-1.019929886E0,-9.172486305E0,3.282450438E0
6.904781622E0,-1.118092179E0,-9.756670952E0,3.122039080E0
6.909781622E0,-1.177947283E0,-1.008707142E1,3.105279684E0
6.914781655E0,-1.177947283E0,-1.043183613E1,3.153163671E0
6.919781655E0,-1.197100878E0,-1.041507626E1,3.265691042E0
6.924781655E0,-1.168370485E0,-1.026184750E1,3.406949043E0
6.929781621E0,-1.115697980E0,-9.914688110E0,3.567360640E0
6.934781621E0,-1.151610970E0,-9.478943825E0,3.739742994E0
6.939781621E0,-1.137245774E0,-9.196428299E0,3.778050184E0
6.944781654E0,-1.154005170E0,-9.057564735E0,3.701435804E0
6.949781654E0,-1.177947283E0,-9.126996040E0,3.612850428E0
6.954781654E0,-1.199495077E0,-9.529222488E0,3.308786631E0
6.959781654E0,-1.168370485E0,-9.941024780E0,3.126827478E0
6.964781654E0,-1.074996591E0,-1.028818417E1,2.987963676E0
6.969781654E0,-9.720458984E-1,-1.040789413E1,2.904166698E0
6.974781620E0,-8.020575643E-1,-1.032649136E1,2.849100113E0
6.979781620E0,-5.793967843E-1,-9.974543571E0,2.856282711E0
6.984782286E0,-4.237737060E-1,-9.184456825E0,2.853888512E0
6.989782319E0,-4.357447028E-1,-8.590695381E0,2.825158119E0
6.994782319E0,-5.889736414E-1,-7.805397034E0,2.753331900E0
6.999782319E0,-7.876923680E-1,-7.228394032E0,2.700659513E0
7.004782285E0,-1.106121182E0,-6.938695908E0,2.681505919E0
7.009782251E0,-1.376665950E0,-6.984185696E0,2.686294317E0
7.014782217E0,-1.666364431E0,-7.264307022E0,2.782062292E0
7.019782217E0,-1.857900500E0,-7.803002834E0,2.911349297E0
7.024782217E0,-1.912967205E0,-8.535628319E0,3.052607059E0
7.029782250E0,-1.824381709E0,-9.313743591E0,3.196259260E0
7.034781616E0,-1.608903527E0,-1.000566864E1,3.354276657E0
7.039781649E0,-1.297657371E0,-1.052281570E1,3.457227230E0
7.044780982E0,-9.145850539E-1,-1.082687950E1,3.517082214E0
7.049780082E0,-6.775590777E-1,-1.088194561E1,3.509899616E0
7.054780048E0,-3.591302633E-1,-1.073589993E1,3.414131641E0
7.059779981E0,-2.442085743E-1,-1.041028786E1,3.339911461E0
7.064779981E0,-1.891419291E-1,-1.009425354E1,3.275267839E0
7.069780014E0,-2.130839527E-1,-9.857227325E0,3.248931646E0
7.074780014E0,-3.303998411E-1,-9.703998566E0,3.229778051E0
7.079779980E0,-5.147533417E-1,-9.562741280E0,3.248931646E0
7.084779046E0,-7.829039693E-1,-9.433453560E0,3.282450438E0
7.089779012E0,-9.265560508E-1,-9.364022255E0,3.282450438E0
7.094778312E0,-1.110909581E0,-9.294589996E0,3.227383852E0
7.099778312E0,-1.268926859E0,-9.203610420E0,3.213018656E0
7.104778345E0,-1.407790542E0,-9.047987938E0,3.268085241E0
7.109778378E0,-1.505952835E0,-8.923488617E0,3.294421434E0
7.114778411E0,-1.549048543E0,-8.820538521E0,3.315969467E0
7.119778411E0,-1.505952835E0,-8.743924141E0,3.332728863E0
7.124778411E0,-1.489193439E0,-8.719982147E0,3.318363667E0
7.129778377E0,-1.529894829E0,-8.705616951E0,3.294421434E0
7.134778343E0,-1.489193439E0,-8.712799072E0,3.184288263E0
7.139778343E0,-1.328781962E0,-8.801384926E0,3.117250681E0
7.144778376E0,-1.118092179E0,-8.995314598E0,3.047818661E0
7.149778409E0,-9.983820915E-1,-9.098265648E0,3.062183857E0
7.154778409E0,-8.092401624E-1,-9.201216698E0,3.150769472E0
7.159778409E0,-6.536170840E-1,-9.227552414E0,3.268085241E0
7.164778409E0,-5.051765442E-1,-9.217975616E0,3.351882458E0
7.169778409E0,-4.357447028E-1,-9.103054047E0,3.440467834E0
7.174778409E0,-4.453215301E-1,-8.952219009E0,3.543418407E0
7.179778375E0,-4.979939461E-1,-8.818143845E0,3.586514235E0
7.184779041E0,-5.530605912E-1,-8.722375870E0,3.557783842E0
7.189779041E0,-6.009446383E-1,-8.743924141E0,3.552995205E0
7.194779741E0,-6.512228847E-1,-8.856451035E0,3.519476414E0
7.199780641E0,-6.607996821E-1,-9.126996040E0,3.502717018E0
7.204780641E0,-6.200982332E-1,-9.644144058E0,3.423708439E0
7.209780674E0,-5.243301988E-1,-1.024987698E1,3.363853455E0
7.214780674E0,-3.495534360E-1,-1.087236881E1,3.311181068E0
7.219780674E0,-9.816227108E-2,-1.131769085E1,3.308786631E0
7.224780707E0,1.053448766E-1,-1.138233376E1,3.313575268E0
7.229780740E0,2.466027737E-1,-1.119319248E1,3.385401249E0
7.234780973E0,3.998316824E-1,-1.075744724E1,3.394978046E0
7.239780973E0,5.291185975E-1,-1.013974380E1,3.404554844E0
7.244781639E0,4.908113480E-1,-9.301773071E0,3.351882458E0
7.249781639E0,3.112462163E-1,-8.746317863E0,3.248931646E0
7.254781605E0,1.005564705E-1,-8.365639687E0,3.052607059E0
7.259781571E0,-1.651999205E-1,-8.171710014E0,2.896984100E0
7.264781571E0,-4.118026793E-1,-8.107066154E0,2.758120298E0
7.269781604E0,-5.554547906E-1,-8.176498413E0,2.772485495E0
7.274781637E0,-4.979939461E-1,-8.286631584E0,2.961627483E0
7.279781637E0,-1.000776291E0,-8.530839920E0,2.920926094E0
7.284781637E0,-1.216254473E0,-8.751106262E0,2.987963676E0
7.289781603E0,-1.204283476E0,-8.822932243E0,3.076549292E0
7.294781569E0,-1.149216771E0,-8.897152901E0,3.179499865E0
7.299781535E0,-9.768342972E-1,-8.968978882E0,3.241749048E0
7.304781535E0,-7.589619160E-1,-9.155726433E0,3.253720045E0
7.309781568E0,-5.578489900E-1,-9.438241959E0,3.201047659E0
7.314781601E0,-4.094084799E-1,-9.756670952E0,3.124433279E0
7.319781634E0,-3.136404157E-1,-9.993697166E0,3.083731890E0
7.324781634E0,-2.178723514E-1,-1.008707142E1,3.110068083E0
7.329781634E0,-1.651999205E-1,-1.006073475E1,3.201047659E0
7.334781600E0,-1.292868853E-1,-9.933841705E0,3.418920040E0
7.339781600E0,-1.388636976E-1,-9.725546837E0,3.643975019E0
7.344781600E0,-2.657563984E-1,-9.474155426E0,3.871424198E0
7.349781633E0,-4.165911078E-1,-9.387964249E0,3.960009575E0
7.354781633E0,-5.434837937E-1,-9.438241959E0,3.938461781E0
7.359781633E0,-6.895300746E-1,-9.584288597E0,3.828328609E0
7.364781599E0,-8.379706144E-1,-9.845256805E0,3.665522814E0
7.369781565E0,-9.169792533E-1,-1.002242756E1,3.624821424E0
7.374781531E0,-1.007958889E0,-1.026184750E1,3.600879431E0
7.379781531E0,-9.696516991E-1,-1.041986465E1,3.581725836E0
7.384782197E0,-8.379706144E-1,-1.059703636E1,3.545812607E0
7.389782230E0,-7.302315235E-1,-1.069280434E1,3.509899616E0
7.394782263E0,-4.836287498E-1,-1.072871685E1,3.289633036E0
7.399782296E0,-2.801215947E-1,-1.066407394E1,3.129221678E0
7.404782296E0,-4.309562966E-2,-1.051084518E1,3.011905670E0
7.409782296E0,1.412578970E-1,-1.030494308E1,2.877830505E0
7.414782262E0,2.609679997E-1,-9.988908768E0,2.868253708E0
7.419782262E0,2.609679997E-1,-9.601048470E0,2.964021683E0
7.424782262E0,8.140286058E-2,-9.043199539E0,3.244143248E0
7.429782295E0,-6.464344263E-2,-8.798990250E0,3.404554844E0
7.434781628E0,-2.992752194E-1,-8.535628319E0,3.639186621E0
7.439781628E0,-7.206547260E-1,-8.238747597E0,3.964797974E0
7.444781628E0,-1.034295082E0,-7.905953407E0,4.103661537E0
7.449781628E0,-1.309628367E0,-7.779060364E0,4.153939724E0
7.454781628E0,-1.441309452E0,-7.903559208E0,4.132391930E0
7.459781594E0,-1.508347034E0,-8.188468933E0,4.003105164E0
7.464781594E0,-1.446097851E0,-8.832509041E0,3.734954596E0
7.469781594E0,-1.343147159E0,-9.323320389E0,3.552995205E0
7.474781627E0,-1.091755986E0,-9.972148895E0,3.311181068E0
7.479781627E0,-7.422025204E-1,-1.049408531E1,3.071760893E0
7.484781627E0,-2.825157940E-1,-1.071914005E1,2.834734917E0
7.489781593E0,1.436521020E-2,-1.055633450E1,2.722207308E0
7.494781559E0,1.987187415E-1,-1.021156979E1,2.681505919E0
7.499781525E0,3.878606856E-1,-9.751882553E0,2.614468336E0
7.504781525E0,4.812345505E-1,-9.220370293E0,2.535459518E0
7.509781525E0,4.668693244E-1,-8.758289337E0,2.422932148E0
7.514781558E0,3.734954596E-1,-8.499714851E0,2.281674147E0
7.519781591E0,2.561795712E-1,-8.466196060E0,2.145204782E0
7.524781624E0,7.661445439E-2,-8.633790970E0,2.116474390E0
7.529781624E0,-7.182604820E-2,-8.803778648E0,2.152387381E0
7.534781624E0,-2.753331959E-1,-9.124602318E0,2.276885748E0
7.539781590E0,-4.165911078E-1,-9.371204376E0,2.470816135E0
7.544781590E0,-4.333505034E-1,-9.610625267E0,2.645592928E0
7.549781590E0,-3.854664862E-1,-9.759065628E0,2.815581083E0
7.554781623E0,-3.303998411E-1,-9.768642426E0,2.990357876E0
7.559781623E0,-1.628057212E-1,-9.653720856E0,3.078943491E0
7.564781623E0,2.394201607E-2,-9.325715065E0,3.174711466E0
7.569781589E0,9.337386489E-2,-9.086295128E0,3.162740469E0
7.574781555E0,1.364694983E-1,-8.815750122E0,3.119644880E0
7.579781521E0,3.591302410E-2,-8.470984459E0,3.081337690E0
7.584782187E0,-1.963245422E-1,-7.922712803E0,2.882618904E0
7.589782220E0,-4.165911078E-1,-7.580341816E0,2.722207308E0
7.594782253E0,-6.105214357E-1,-7.386411667E0,2.506729126E0
7.599782286E0,-7.876923680E-1,-7.316979885E0,2.296039343E0
7.604782286E0,-8.690952063E-1,-7.522881031E0,2.035071373E0
7.609782286E0,-8.858546019E-1,-7.961019993E0,1.944091797E0
7.614782252E0,-7.541735172E-1,-8.605060577E0,1.872265697E0
7.619782252E0,-5.817909837E-1,-9.337685585E0,1.891419291E0
7.624782252E0,-3.830722570E-1,-1.015889740E1,2.063801765E0
7.629782285E0,-2.849099934E-1,-1.051084518E1,2.252943754E0
7.634781651E0,-1.699883193E-1,-1.086518669E1,2.554613113E0
7.639781651E0,-1.628057212E-1,-1.085082150E1,2.813186884E0
7.644781651E0,-1.723825186E-1,-1.067125607E1,3.021482468E0
7.649781651E0,-2.705447972E-1,-1.030015469E1,3.155557871E0
7.654781651E0,-4.046200812E-1,-9.742305756E0,3.213018656E0
7.659781284E0,-5.626373887E-1,-9.162909508E0,3.157952070E0
7.664781250E0,-7.589619160E-1,-8.583512306E0,3.035847664E0
7.669781250E0,-8.786720037E-1,-8.382399559E0,2.985569477E0
7.674781250E0,-1.120486379E0,-8.269871712E0,2.896984100E0
7.679781283E0,-1.393425345E0,-8.329727173E0,2.920926094E0
7.684781283E0,-1.541865945E0,-8.518868446E0,3.090914488E0
7.689781283E0,-1.611297727E0,-8.755894661E0,3.313575268E0
7.694781249E0,-1.520318031E0,-9.215581894E0,3.466804028E0
7.699781249E0,-1.297657371E0,-9.893140793E0,3.543418407E0
7.704781249E0,-9.816226959E-1,-1.075265884E1,3.533841610E0
7.709781282E0,-7.852981687E-1,-1.109742451E1,3.488351822E0
7.714781282E0,-5.482721925E-1,-1.135360336E1,3.418920040E0
7.719781282E0,-2.489969730E-1,-1.137994003E1,3.404554844E0
7.724781282E0,7.900865376E-2,-1.115249062E1,3.380612850E0
7.729781282E0,2.992752194E-1,-1.087236881E1,3.426102638E0
7.734781282E0,4.644751251E-1,-1.052281570E1,3.440467834E0
7.739781248E0,5.051765442E-1,-1.005355263E1,3.404554844E0
7.744781248E0,4.309563041E-1,-9.526827812E0,3.308786631E0
7.749781248E0,2.561795712E-1,-9.083900452E0,3.160346270E0
7.754781281E0,2.394201607E-2,-8.825326920E0,2.885013103E0
7.759781314E0,-2.226607651E-1,-8.753500938E0,2.542642117E0
7.764781314E0,-5.889736414E-1,-8.640973091E0,2.286462545E0
7.769781280E0,-8.116343617E-1,-8.516474724E0,2.257732153E0
7.774781246E0,-1.189918280E0,-8.205228806E0,2.475604534E0
7.779781246E0,-1.381454349E0,-8.047211647E0,2.609679937E0
7.784781912E0,-1.474828243E0,-7.992144585E0,2.715024710E0
7.789781945E0,-1.558625340E0,-8.047211647E0,2.796427488E0
7.794781945E0,-1.592144132E0,-8.248324394E0,2.837129116E0
7.799781945E0,-1.513135433E0,-8.540416718E0,2.822763920E0
7.804781945E0,-1.256955862E0,-9.079112053E0,2.743755102E0
7.809782311E0,-1.046266198E0,-9.452607155E0,2.753331900E0
7.814782311E0,-7.110779285E-1,-9.964966774E0,2.791639090E0
7.819782277E0,-3.423708379E-1,-1.052999878E1,2.928108692E0
7.824782277E0,1.436520964E-1,-1.132008457E1,3.148375273E0
7.829782277E0,4.668693244E-1,-1.177258873E1,3.315969467E0
7.834781643E0,6.799532771E-1,-1.199285603E1,3.414131641E0
7.839781643E0,8.762778044E-1,-1.205510521E1,3.430891037E0
7.844781643E0,9.911994934E-1,-1.191384697E1,3.368641853E0
7.849781609E0,9.888052940E-1,-1.147810268E1,3.246537447E0
7.854781575E0,8.499416113E-1,-1.062097836E1,3.157952070E0
7.859781541E0,6.200982332E-1,-9.715970039E0,2.978386879E0
7.864781541E0,2.825157940E-1,-8.698433876E0,2.580949545E0
7.869781574E0,7.182604820E-2,-8.164526939E0,2.329558372E0
7.874781607E0,-2.705447972E-1,-7.530063629E0,1.857900500E0
7.879781640E0,-5.219359994E-1,-7.297826290E0,1.520318031E0
7.884781673E0,-6.823474765E-1,-7.259518623E0,1.328781962E0
7.889781673E0,-8.164227605E-1,-7.340921879E0,1.204283476E0
7.894781639E0,-8.451532125E-1,-7.537246227E0,1.249773264E0
7.899781605E0,-8.236053586E-1,-7.755118370E0,1.532289028E0
7.904781605E0,-6.967126727E-1,-8.085518837E0,1.889025092E0
7.909781605E0,-5.889736414E-1,-8.320150375E0,2.197877169E0
7.914781638E0,-3.998316824E-1,-8.734347343E0,2.552218914E0
7.919781638E0,-2.154781520E-1,-9.220370293E0,2.904166698E0
7.924781638E0,6.464344263E-2,-9.967360497E0,3.189076662E0
7.929781604E0,2.226607651E-1,-1.054915237E1,3.366247654E0
7.934780904E0,3.351882398E-1,-1.105432892E1,3.502717018E0
7.939780204E0,4.716577232E-1,-1.145415974E1,3.521870613E0
7.944780204E0,5.434837937E-1,-1.157865906E1,3.538630009E0
7.949780237E0,6.224924326E-1,-1.144218922E1,3.507505417E0
7.954780270E0,6.392518282E-1,-1.098250294E1,3.473986626E0
7.959780303E0,5.865794420E-1,-1.018523312E1,3.426102638E0
7.964780303E0,3.567360640E-1,-8.901941299E0,3.277662039E0
7.969780303E0,6.943184882E-2,-8.135796547E0,2.992752075E0
7.974780269E0,-2.537853718E-1,-7.180510044E0,2.578555346E0
7.979780269E0,-5.674257874E-1,-6.546046734E0,2.181117773E0
7.984780935E0,-8.834604025E-1,-6.093542576E0,1.850717902E0
7.989780968E0,-1.170764685E0,-5.849334240E0,1.618480325E0
7.994780968E0,-1.414973259E0,-5.832574844E0,1.513135433E0
7.999780968E0,-1.592144132E0,-5.992986202E0,1.534683347E0
8.004780968E0,-1.640028119E0,-6.565200329E0,1.714248419E0
8.009780968E0,-1.505952835E0,-7.182904243E0,1.788468719E0
8.014780968E0,-1.110909581E0,-8.538022995E0,1.884236693E0
8.019780934E0,-6.751648784E-1,-9.634567261E0,2.013523579E0
8.024780900E0,-7.661445439E-2,-1.073111153E1,2.121262789E0
8.029780900E0,5.434837937E-1,-1.176540661E1,2.425326347E0
8.034780233E0,1.067813993E0,-1.252197456E1,2.865859509E0
8.039780266E0,1.486799240E0,-1.289786339E1,3.303998232E0
8.044779599E0,1.752555609E0,-1.284519100E1,3.749319792E0
8.049778699E0,1.750161409E0,-1.247887897E1,3.948038578E0
8.054778665E0,1.596932530E0,-1.169358063E1,4.055777550E0
8.059778531E0,1.256955862E0,-1.064492035E1,4.156333923E0
8.064778531E0,7.182605267E-1,-9.407117844E0,4.041412354E0
8.069778564E0,2.609679997E-1,-8.698433876E0,3.730166197E0
8.074778564E0,-2.178723514E-1,-8.320150375E0,3.289633036E0
8.079778164E0,-6.895300746E-1,-8.181286812E0,2.834734917E0
8.084777930E0,-1.096544385E0,-8.162133217E0,2.394201756E0
8.089777930E0,-1.297657371E0,-8.142979622E0,2.212242365E0
8.094777696E0,-1.424550056E0,-8.253112793E0,2.011129379E0
8.099777662E0,-1.345541358E0,-8.490138054E0,1.929726601E0
8.104777662E0,-1.235408068E0,-8.866027832E0,1.994369984E0
8.109777762E0,-1.130063176E0,-9.088688850E0,2.070984364E0
8.114777128E0,-8.667010069E-1,-9.404723167E0,2.229001760E0
8.119776561E0,-6.631938815E-1,-9.435848236E0,2.461239338E0
8.124776561E0,-4.572925270E-1,-9.311349869E0,2.729389906E0
8.129776527E0,-3.519476354E-1,-8.954613686E0,3.095702887E0
8.134776493E0,-3.184288144E-1,-8.552388191E0,3.438073635E0
8.139776493E0,-4.094084799E-1,-8.152556419E0,3.744531393E0
8.144776526E0,-6.272808313E-1,-7.953837395E0,3.936067581E0
8.149776559E0,-7.326257229E-1,-8.044816971E0,3.919308186E0
8.154776559E0,-7.924807668E-1,-8.432677269E0,3.797203779E0
8.159776559E0,-7.972691655E-1,-9.126996040E0,3.591302633E0
8.164776559E0,-6.392518282E-1,-1.005834103E1,3.303998232E0
8.169776559E0,-4.213795066E-1,-1.072632313E1,3.105279684E0
8.174776559E0,-1.292868853E-1,-1.133444977E1,3.011905670E0
8.179776525E0,1.915361285E-1,-1.175822353E1,2.980781078E0
8.184777191E0,5.003881454E-1,-1.182765579E1,3.002328873E0
8.189777191E0,6.033388376E-1,-1.165527344E1,3.023876667E0
8.194777891E0,6.703764796E-1,-1.112376022E1,3.129221678E0
8.199778791E0,6.464344859E-1,-1.042944145E1,3.131615877E0
8.204778791E0,5.291185975E-1,-9.510068893E0,3.086126089E0
8.209778891E0,4.094084799E-1,-9.143755913E0,2.987963676E0
8.214778857E0,2.537853718E-1,-8.734347343E0,2.913743496E0
8.219778823E0,-1.197100803E-2,-8.494926453E0,2.853888512E0
8.224778823E0,-2.896983922E-1,-8.212410927E0,2.834734917E0
8.229779256E0,-6.488286853E-1,-7.886799812E0,2.908955097E0
8.234779522E0,-9.959878922E-1,-7.707234383E0,3.009511471E0
8.239780222E0,-1.189918280E0,-7.716811180E0,3.134010077E0
8.244780122E0,-1.225831270E0,-8.145373344E0,3.241749048E0
8.249780122E0,-1.192312479E0,-8.542811394E0,3.222595453E0
8.254780088E0,-9.864110947E-1,-9.349657059E0,3.179499865E0
8.259779954E0,-7.398083210E-1,-1.008707142E1,3.143586874E0
8.264780620E0,-3.878606856E-1,-1.076463032E1,3.019088268E0
8.269781220E0,-9.576806426E-2,-1.129614258E1,2.947262287E0
8.274781253E0,1.268926859E-1,-1.161457157E1,2.925714493E0
8.279781253E0,3.615244627E-1,-1.184202099E1,2.940079689E0
8.284781253E0,6.799532771E-1,-1.207904720E1,3.069366693E0
8.289781219E0,8.020575643E-1,-1.210298920E1,3.143586874E0
8.294781185E0,7.972691655E-1,-1.184202099E1,3.215412855E0
8.299781151E0,7.158663273E-1,-1.126262379E1,3.282450438E0
8.304781151E0,4.429273009E-1,-1.018762779E1,3.296815634E0
8.309781184E0,2.298433632E-1,-9.323320389E0,3.215412855E0
8.314781217E0,9.576806799E-3,-8.585906982E0,2.971204281E0
8.319781250E0,-2.370259613E-1,-8.123826027E0,2.683900118E0
8.324781250E0,-5.027823448E-1,-7.925107002E0,2.377442360E0
8.329781250E0,-7.709329724E-1,-7.807791233E0,2.035071373E0
8.334781216E0,-1.120486379E0,-7.757512569E0,1.819593310E0
8.339781216E0,-1.446097851E0,-7.795820236E0,1.853112102E0
8.344781216E0,-1.690306425E0,-8.135796547E0,2.133233786E0
8.349781249E0,-1.716642618E0,-8.569147110E0,2.351106167E0
8.354781249E0,-1.685518026E0,-9.404723167E0,2.750937700E0
8.359781249E0,-1.441309452E0,-1.020199299E1,2.980781078E0
8.364781249E0,-1.106121182E0,-1.090588760E1,3.186682463E0
8.369780582E0,-6.823474765E-1,-1.147570801E1,3.320757866E0
8.374780582E0,-2.489969730E-1,-1.199524975E1,3.394978046E0
8.379780548E0,1.340752989E-1,-1.229452515E1,3.375824451E0
8.384781181E0,5.195417404E-1,-1.224185276E1,3.361459255E0
8.389781181E0,6.560112834E-1,-1.199046135E1,3.383007050E0
8.394781547E0,7.589619160E-1,-1.140627575E1,3.380612850E0
8.399781580E0,7.709329724E-1,-1.062097836E1,3.457227230E0
8.404781580E0,5.770025849E-1,-9.349657059E0,3.550601006E0
8.409781580E0,2.466027737E-1,-8.320150375E0,3.620033026E0
8.414781546E0,-2.489969730E-1,-7.463026047E0,3.560178041E0
8.419781546E0,-7.876923680E-1,-6.838139534E0,3.471592426E0
8.424781546E0,-1.472434044E0,-6.546046734E0,3.359065056E0
8.429781579E0,-1.826775908E0,-6.625055313E0,3.294421434E0
8.434780912E0,-2.157175779E0,-7.053617477E0,3.186682463E0
8.439780912E0,-2.379836559E0,-7.829339027E0,2.983175278E0
8.444780912E0,-2.341529369E0,-9.196428299E0,2.650381327E0
8.449780912E0,-2.157175779E0,-1.000088024E1,2.480392933E0
8.454780912E0,-1.771709204E0,-1.092982960E1,2.276885748E0
8.459780878E0,-1.292868972E0,-1.124107647E1,2.207453966E0
8.464780878E0,-7.302315235E-1,-1.120516300E1,2.226607561E0
8.469780878E0,-2.729389966E-1,-1.081490803E1,2.363077164E0
8.474780911E0,1.149216816E-1,-1.017805099E1,2.516305923E0
8.479780911E0,2.346317619E-1,-9.385569572E0,2.688688517E0
8.484780911E0,1.484405100E-1,-8.413523674E0,2.758120298E0
8.489780877E0,-7.182605099E-3,-7.965808392E0,2.734178305E0
8.494780843E0,-3.519476354E-1,-7.618649006E0,2.700659513E0
8.499780809E0,-5.746083856E-1,-7.817368031E0,2.669534922E0
8.504780809E0,-7.972691655E-1,-8.640973091E0,2.731784105E0
8.509780809E0,-1.039083481E0,-9.354445457E0,2.856282711E0
8.514780842E0,-1.165976286E0,-1.009425354E1,3.026270866E0
8.519781542E0,-1.175553083E0,-1.087955189E1,3.239354849E0
8.524781575E0,-1.089361787E0,-1.161217785E1,3.426102638E0
8.529781575E0,-1.041477680E0,-1.184202099E1,3.481169224E0
8.534781575E0,-9.457096457E-1,-1.191863537E1,3.531447411E0
8.539781541E0,-6.967126727E-1,-1.188511658E1,3.548206806E0
8.544781541E0,-4.429273009E-1,-1.151401520E1,3.529053211E0
8.549781541E0,-2.825157940E-1,-1.110221291E1,3.390189648E0
8.554781574E0,-1.460463107E-1,-1.064970875E1,3.186682463E0
8.559781574E0,-1.723825186E-1,-1.020917511E1,2.944868088E0
8.564781574E0,-2.873041928E-1,-9.682451248E0,2.784456491E0
8.569781540E0,-4.788403511E-1,-9.112630844E0,2.619256735E0
8.574781506E0,-7.158663273E-1,-8.648156166E0,2.432508945E0
8.579781472E0,-9.145850539E-1,-8.272266388E0,2.296039343E0
8.584782138E0,-1.132457376E0,-7.874828815E0,2.248155355E0
8.589782171E0,-1.216254473E0,-7.649773598E0,2.252943754E0
8.594782204E0,-1.381454349E0,-7.345710278E0,2.365471363E0
8.599782237E0,-1.458068848E0,-7.271489620E0,2.449268341E0
8.604782237E0,-1.491587639E0,-7.441478252E0,2.451662540E0
8.609782237E0,-1.482010841E0,-7.757512569E0,2.454056740E0
8.614782203E0,-1.347935557E0,-8.238747597E0,2.387019157E0
8.619782203E0,-1.163581967E0,-8.794201851E0,2.398990154E0
8.624782203E0,-8.403648138E-1,-9.380781174E0,2.494758129E0
8.629782236E0,-6.296750307E-1,-9.723152161E0,2.607285738E0
8.634781602E0,-4.141969085E-1,-1.009185982E1,2.873042107E0
8.639781602E0,-1.723825186E-1,-1.044859505E1,3.090914488E0
8.644781602E0,4.788403213E-2,-1.075265884E1,3.320757866E0
8.649781602E0,1.173158810E-1,-1.080772591E1,3.442862034E0
8.654781602E0,1.915361285E-1,-1.071674633E1,3.471592426E0
8.659781602E0,2.442085743E-1,-1.061618996E1,3.442862034E0
8.664781568E0,3.064578176E-1,-1.044620132E1,3.402160645E0
8.669781568E0,3.256114423E-1,-1.028818417E1,3.349488258E0
8.674781568E0,2.250549644E-1,-9.936236382E0,3.234566450E0
8.679781601E0,6.224924326E-2,-9.462183952E0,3.090914488E0
8.684781601E0,-1.173158810E-1,-8.861239433E0,2.920926094E0
8.689781601E0,-2.226607651E-1,-8.506897926E0,2.801215887E0
8.694781567E0,-3.471592367E-1,-7.982567787E0,2.631227732E0
8.699781533E0,-3.830722570E-1,-7.728782177E0,2.494758129E0
8.704781499E0,-3.232172430E-1,-7.747935772E0,2.446874142E0
8.709781499E0,-3.040636182E-1,-7.999327183E0,2.391807556E0
8.714781532E0,-2.082955539E-1,-8.423100471E0,2.396595955E0
8.719781565E0,-1.053448766E-1,-8.937853813E0,2.480392933E0
8.724781598E0,6.943184882E-2,-9.500492096E0,2.710236311E0
8.729781598E0,1.340752989E-1,-9.687239647E0,2.894589901E0
8.734781598E0,1.292868853E-1,-9.787796021E0,3.157952070E0
8.739781564E0,1.005564705E-1,-9.809343338E0,3.531447411E0
8.744781564E0,1.580173075E-1,-9.749488831E0,3.794809580E0
8.749781564E0,2.082955539E-1,-9.677662849E0,3.976768970E0
8.754781597E0,1.843535304E-1,-9.581894875E0,3.967192173E0
8.759781630E0,1.077390760E-1,-9.526827812E0,3.837905407E0
8.764781630E0,3.830722719E-2,-9.572318077E0,3.512293816E0
8.769781596E0,2.873042040E-2,-9.577106476E0,3.244143248E0
8.774781562E0,3.591302410E-2,-9.732728958E0,2.908955097E0
8.779781528E0,1.556231081E-1,-9.881169319E0,2.652775526E0
8.784782161E0,3.471592367E-1,-9.914688110E0,2.487575531E0
8.789782161E0,5.099649429E-1,-9.732728958E0,2.420537949E0
8.794782194E0,7.134721279E-1,-9.371204376E0,2.319981337E0
8.799782227E0,8.355764151E-1,-8.904335022E0,2.286462545E0
8.804782260E0,9.145850539E-1,-8.396764755E0,2.224213362E0
8.809782260E0,9.050082564E-1,-7.917924404E0,2.212242365E0
8.814782260E0,8.762778044E-1,-7.525275230E0,2.291250944E0
8.819782226E0,7.062895298E-1,-7.297826290E0,2.456450939E0
8.824782226E0,2.729389966E-1,-7.336133480E0,2.741360903E0
8.829782226E0,4.070143029E-2,-7.563582420E0,2.925714493E0
8.834781592E0,-3.112462163E-1,-8.016086578E0,3.215412855E0
8.839781592E0,-4.596867263E-1,-8.765471458E0,3.435679436E0
8.844781592E0,-4.932055473E-1,-9.423876762E0,3.500322819E0
8.849781592E0,-4.572925270E-1,-9.974543571E0,3.481169224E0
8.854781592E0,-2.992752194E-1,-1.032170296E1,3.385401249E0
8.859781592E0,-1.915361360E-2,-1.052281570E1,3.217807055E0
8.864781558E0,3.854664862E-1,-1.042704773E1,2.956839085E0
8.869781558E0,6.033388376E-1,-1.021635818E1,2.829946518E0
8.874781558E0,8.475474119E-1,-9.723152161E0,2.712630510E0
8.879781591E0,1.043871999E0,-9.191639900E0,2.597708941E0
8.884781624E0,1.110909581E0,-8.741529465E0,2.499546528E0
8.889781624E0,1.070208192E0,-8.511686325E0,2.480392933E0
8.894781590E0,9.481038451E-1,-8.485349655E0,2.564189911E0
8.899781556E0,7.613561153E-1,-8.595483780E0,2.712630510E0
8.904781556E0,5.386953950E-1,-8.966584206E0,2.949656487E0
8.909781556E0,3.591302633E-1,-9.371204376E0,3.078943491E0
8.914781589E0,1.604115069E-1,-9.787796021E0,3.229778051E0
8.919781589E0,5.027823523E-2,-1.017565632E1,3.284844637E0
8.924781589E0,-4.548983276E-2,-1.057309437E1,3.277662039E0
8.929781589E0,-2.394201607E-2,-1.068322754E1,3.234566450E0
8.934781589E0,-1.197100803E-2,-1.056112289E1,3.052607059E0
8.939781589E0,1.675941236E-2,-1.023311710E1,2.918531895E0
8.944781555E0,3.112462163E-2,-9.751882553E0,2.817975283E0
8.949781555E0,1.436521020E-2,-9.153332710E0,2.774879694E0
8.954781555E0,-1.484405100E-1,-8.518868446E0,2.755726099E0
8.959781588E0,-3.711012602E-1,-7.994538784E0,2.801215887E0
8.964781588E0,-6.296750307E-1,-7.702445984E0,2.820369720E0
8.969781588E0,-8.523358107E-1,-7.623437405E0,2.827552319E0
8.974781554E0,-1.185129881E0,-7.609072208E0,2.966415882E0
8.979781554E0,-1.450886250E0,-7.786243439E0,3.095702887E0
8.984782220E0,-1.568202138E0,-8.277054787E0,3.280056238E0
8.989782253E0,-1.584961534E0,-8.748712540E0,3.476380825E0
8.994782253E0,-1.446097851E0,-9.220370293E0,3.569754839E0
8.999782253E0,-1.290474772E0,-9.598653793E0,3.682282209E0
9.004782253E0,-9.911994934E-1,-9.974543571E0,3.660734415E0
9.009782253E0,-8.092401624E-1,-1.007988834E1,3.545812607E0
9.014782253E0,-6.057330370E-1,-1.009425354E1,3.385401249E0
9.019782219E0,-3.519476354E-1,-9.969755173E0,3.153163671E0
9.024782185E0,-1.053448766E-1,-9.670479774E0,2.961627483E0
9.029782185E0,1.077390760E-1,-9.507674217E0,2.784456491E0
9.034781518E0,2.777273953E-1,-9.352050781E0,2.643198729E0
9.039781551E0,3.926490843E-1,-9.320926666E0,2.497152328E0
9.044780884E0,4.237737060E-1,-9.414299965E0,2.398990154E0
9.049779984E0,3.950432837E-1,-9.526827812E0,2.348711967E0
9.054779950E0,2.992752194E-1,-9.677662849E0,2.310404539E0
9.059779283E0,1.795651317E-1,-9.811738014E0,2.377442360E0
9.064779116E0,1.915361285E-1,-1.011580181E1,2.432508945E0
9.069779116E0,2.825157940E-1,-1.036719227E1,2.442085743E0
9.074779149E0,4.309563041E-1,-1.074547672E1,2.442085743E0
9.079779182E0,6.081272364E-1,-1.107108784E1,2.482787132E0
9.084779215E0,7.422025204E-1,-1.141106415E1,2.573766708E0
9.089778815E0,8.355764151E-1,-1.159302425E1,2.643198729E0
9.094778981E0,8.547300100E-1,-1.147091961E1,2.779668093E0
9.099778947E0,7.565677166E-1,-1.111418343E1,3.016694069E0
9.104778947E0,5.434837937E-1,-1.034564495E1,3.390189648E0
9.109778947E0,3.303998411E-1,-9.684844971E0,3.564966440E0
9.114778980E0,-4.788403213E-2,-8.708010674E0,3.718195200E0
9.119778313E0,-5.147533417E-1,-7.798214436E0,3.799597979E0
9.124778313E0,-1.077390790E0,-6.838139534E0,3.727771997E0
9.129778279E0,-1.479616642E0,-6.174945354E0,3.564966440E0
9.134778245E0,-1.836352706E0,-5.763142586E0,3.363853455E0
9.139778211E0,-2.044648170E0,-5.691316605E0,3.026270866E0
9.144778211E0,-2.114080191E0,-5.930737019E0,2.715024710E0
9.149778211E0,-2.102109194E0,-6.471826553E0,2.499546528E0
9.154778244E0,-2.171540976E0,-7.338527679E0,2.049436569E0
9.159778277E0,-1.853112102E0,-8.470984459E0,1.800439715E0
9.164778310E0,-1.209071875E0,-9.842862129E0,1.853112102E0
9.169778310E0,-6.943184733E-1,-1.053718090E1,1.968033791E0
9.174778310E0,1.628057212E-1,-1.166245556E1,2.353500366E0
9.179778276E0,8.667010069E-1,-1.260098267E1,2.779668093E0
9.184778942E0,1.393425345E0,-1.344853020E1,3.268085241E0
9.189778942E0,1.699883223E0,-1.405905151E1,3.727771997E0
9.194779642E0,1.860294700E0,-1.429847145E1,4.019864559E0
9.199780542E0,1.848323703E0,-1.402792740E1,4.340687752E0
9.204780542E0,1.477222443E0,-1.285476780E1,4.714183331E0
9.209781175E0,1.144428372E0,-1.175822353E1,4.795586109E0
9.214781308E0,6.895300746E-1,-1.013495541E1,4.898836136E0
9.219781308E0,3.136404157E-1,-8.729558945E0,4.649539471E0
9.224781274E0,-1.436520964E-1,-7.479785442E0,4.096478939E0
9.229781274E0,-5.267243981E-1,-6.823774338E0,3.500322819E0
9.234780607E0,-8.403648138E-1,-6.411971569E0,2.815581083E0
9.239781040E0,-1.019929886E0,-6.335357189E0,2.082955360E0
9.244780873E0,-1.089361787E0,-6.617872715E0,1.460463047E0
9.249780873E0,-8.379706144E-1,-7.029675484E0,1.417367458E0
9.254780839E0,-5.123591423E-1,-7.824550629E0,1.462857246E0
9.259780805E0,-3.734954596E-1,-8.708010674E0,1.599326730E0
9.264780805E0,-1.580173075E-1,-9.605836868E0,2.044648170E0
9.269781505E0,8.619125932E-2,-9.960178375E0,2.545036316E0
9.274781538E0,3.615244627E-1,-1.020438671E1,3.112462282E0
9.279781538E0,7.086837292E-1,-1.037676907E1,3.699041605E0
9.284781538E0,9.097966552E-1,-1.053239250E1,4.153939724E0
9.289781538E0,9.313444495E-1,-1.064492035E1,4.529829502E0
9.294781538E0,8.667010069E-1,-1.069759274E1,4.714183331E0
9.299781538E0,7.302315235E-1,-1.063534355E1,4.795586109E0
9.304781504E0,4.860229492E-1,-1.036479855E1,4.759673119E0
9.309781504E0,3.112462163E-1,-1.009425354E1,4.702212334E0
9.314781504E0,-6.703764945E-2,-9.581894875E0,4.517858505E0
9.319781537E0,-2.705447972E-1,-9.256282806E0,4.302380562E0
9.324781537E0,-3.758896589E-1,-9.004891396E0,3.881000996E0
9.329781537E0,-4.716577232E-1,-8.815750122E0,3.356670856E0
9.334781503E0,-4.644751251E-1,-8.729558945E0,2.731784105E0
9.339781469E0,-4.429273009E-1,-8.583512306E0,2.123656988E0
9.344781435E0,-4.189853072E-1,-8.557176590E0,1.671152830E0
9.349781435E0,-3.734954596E-1,-8.679280281E0,1.563413739E0
9.354781468E0,-3.495534360E-1,-8.952219009E0,1.661576033E0
9.359781501E0,-2.226607651E-1,-9.352050781E0,1.814804912E0
9.364781534E0,-1.388636976E-1,-9.641749382E0,2.229001760E0
9.369781534E0,-1.005564705E-1,-9.778219223E0,2.638410330E0
9.374781534E0,7.422025502E-2,-9.945813179E0,2.896984100E0
9.379781500E0,3.639186621E-1,-1.020917511E1,2.985569477E0
9.384782133E0,7.589619160E-1,-1.057309437E1,2.985569477E0
9.389782133E0,1.103726983E0,-1.080293751E1,3.019088268E0
9.394782166E0,1.391031146E0,-1.087715721E1,3.045424461E0
9.399782199E0,1.568202138E0,-1.077420712E1,3.119644880E0
9.404782199E0,1.592144132E0,-1.030973148E1,3.210624456E0
9.409782199E0,1.517923832E0,-9.890746117E0,3.222595453E0
9.414782165E0,1.297657371E0,-8.959402084E0,3.325546265E0
9.419782131E0,1.007958889E0,-8.183680534E0,3.387795448E0
9.424782097E0,6.248866320E-1,-7.618649006E0,3.383007050E0
9.429782097E0,1.556231081E-1,-7.216423035E0,3.284844637E0
9.434781463E0,-2.681505978E-1,-7.034463882E0,3.131615877E0
9.439781496E0,-6.488286853E-1,-7.067982674E0,3.014299870E0
9.444781529E0,-1.012747288E0,-7.307403088E0,2.861071110E0
9.449781529E0,-1.154005170E0,-7.565976620E0,2.760514498E0
9.454781529E0,-1.182735682E0,-8.104672432E0,2.559401512E0
9.459781495E0,-1.070208192E0,-8.815750122E0,2.305616140E0
9.464781495E0,-7.278373241E-1,-9.605836868E0,2.051830769E0
9.469781495E0,-2.849099934E-1,-9.955389977E0,1.891419291E0
9.474781528E0,2.992752194E-1,-1.018044472E1,1.833958507E0
9.479781528E0,7.852981687E-1,-1.032888508E1,1.853112102E0
9.484781528E0,1.283292055E0,-1.033606815E1,1.936909199E0
9.489781528E0,1.477222443E0,-1.021875191E1,2.018311977E0
9.494781528E0,1.651999116E0,-1.003679276E1,2.152387381E0
9.499781528E0,1.714248419E0,-9.847650528E0,2.317587137E0
9.504781494E0,1.565807939E0,-9.543587685E0,2.621650934E0
9.509781460E0,1.292868972E0,-9.337685585E0,2.837129116E0
9.514781460E0,8.571242094E-1,-9.014469147E0,3.229778051E0
9.519781493E0,3.280056417E-1,-8.734347343E0,3.524264812E0
9.524781526E0,-2.059013397E-1,-8.418312073E0,3.675099611E0
9.529781526E0,-7.326257229E-1,-8.111854553E0,3.763684988E0
9.534781526E0,-1.173158884E0,-7.889194012E0,3.679888010E0
9.539781492E0,-1.484405041E0,-7.668927193E0,3.445256233E0
9.544781492E0,-1.644816518E0,-7.589918613E0,3.062183857E0
9.549781492E0,-1.651999116E0,-7.673715591E0,2.815581083E0
9.554781525E0,-1.424550056E0,-8.166921616E0,2.351106167E0
9.559781525E0,-1.067813993E0,-8.803778648E0,2.032677174E0
9.564781525E0,-6.224924326E-1,-9.584288597E0,1.807622313E0
9.569781525E0,-9.337386489E-2,-1.034564495E1,1.690306425E0
9.574781525E0,5.674257874E-1,-1.109742451E1,1.675941229E0
9.579781525E0,1.122880578E0,-1.165766716E1,1.783680320E0
9.584782158E0,1.697489023E0,-1.190187550E1,2.047042370E0
9.589782158E0,1.936909199E0,-1.183483791E1,2.209848166E0
9.594782158E0,2.063801765E0,-1.148049641E1,2.437297344E0
9.599782191E0,2.054224968E0,-1.090588760E1,2.568978310E0
9.604782191E0,1.764526606E0,-9.862015724E0,2.652775526E0
9.609782191E0,1.419761658E0,-8.937853813E0,2.693476915E0
9.614782157E0,9.385270476E-1,-8.229170799E0,2.717418909E0
9.619782157E0,3.327940404E-1,-7.803002834E0,2.774879694E0
9.624782157E0,-3.160346150E-1,-7.525275230E0,2.853888512E0
9.629782190E0,-8.595184088E-1,-7.460631847E0,2.990357876E0
9.634781556E0,-1.264138460E0,-7.520486832E0,3.107673883E0
9.639781556E0,-1.575384736E0,-7.527669430E0,3.169923067E0
9.644781556E0,-1.790862918E0,-7.544428825E0,3.177105665E0
9.649781556E0,-1.795651317E0,-7.642591000E0,3.093308687E0
9.654781556E0,-1.654393315E0,-7.939472198E0,2.846705914E0
9.659781556E0,-1.347935557E0,-8.387187958E0,2.547430515E0
9.664781522E0,-8.307880163E-1,-9.002497673E0,2.281674147E0
9.669781522E0,-1.221042871E-1,-9.720758438E0,2.094926596E0
9.674781522E0,5.554547906E-1,-1.034085655E1,2.008735180E0
9.679781555E0,1.055842996E0,-1.089391708E1,2.018311977E0
9.684781555E0,1.582567334E0,-1.141106415E1,2.140416384E0
9.689781555E0,1.893813491E0,-1.162414837E1,2.274491549E0
9.694781521E0,2.185906172E0,-1.167921543E1,2.561795712E0
9.699781521E0,2.284068346E0,-1.138712215E1,2.849100113E0
9.704781521E0,2.018311977E0,-1.059464169E1,3.110068083E0
9.709781554E0,1.558625340E0,-9.680056572E0,3.337517262E0
9.714781554E0,1.019929886E0,-8.775048256E0,3.272873640E0
9.719781554E0,5.434837937E-1,-8.126219749E0,3.090914488E0
9.724781554E0,-1.915361360E-2,-7.582736015E0,2.549824715E0
9.729781554E0,-2.609679997E-1,-7.391200066E0,2.142810583E0
9.734781554E0,-5.626373887E-1,-7.338527679E0,1.714248419E0
9.739781520E0,-8.164227605E-1,-7.484573841E0,1.302445769E0
9.744781520E0,-1.000776291E0,-7.779060364E0,1.010353088E0
9.749781520E0,-1.051054597E0,-7.970596790E0,1.000776291E0
9.754781553E0,-8.714894056E-1,-8.339303970E0,1.125274777E0
9.759781586E0,-6.560112834E-1,-8.581118584E0,1.403002143E0
9.764781586E0,-3.256114423E-1,-8.763077736E0,1.769315004E0
9.769781552E0,1.197100878E-1,-9.103054047E0,2.008735180E0
9.774781518E0,5.865794420E-1,-9.538799286E0,2.233790159E0
9.779781484E0,8.786720037E-1,-9.929053307E0,2.547430515E0
9.784782117E0,1.115697980E0,-1.036001015E1,2.980781078E0
9.789782117E0,1.132457376E0,-1.054196930E1,3.289633036E0
9.794782150E0,9.193734527E-1,-1.060182476E1,3.816357613E0
9.799782183E0,6.488286853E-1,-1.053239250E1,4.146757126E0
9.804782216E0,4.213795066E-1,-1.051084518E1,4.390965939E0
9.809782216E0,2.537853718E-1,-1.063534355E1,4.431667328E0
9.814782216E0,1.843535304E-1,-1.091785908E1,4.268861771E0
9.819782182E0,2.106897533E-1,-1.133923817E1,3.878606796E0
9.824782182E0,2.968810201E-1,-1.190427017E1,3.315969467E0
9.829782182E0,2.873041928E-1,-1.199764442E1,2.983175278E0
9.834781548E0,2.322375625E-1,-1.186117458E1,2.528276920E0
9.839781548E0,2.202665508E-1,-1.152598667E1,2.169146776E0
9.844781548E0,2.226607651E-1,-1.107587624E1,1.908178806E0
9.849781514E0,2.322375625E-1,-1.071435165E1,1.838746905E0
9.854781480E0,1.651999205E-1,-1.022354031E1,1.896207690E0
9.859781446E0,1.077390760E-1,-9.730335236E0,1.996764183E0
9.864781446E0,1.436521020E-2,-9.263465881E0,2.116474390E0
9.869781479E0,-1.149216816E-1,-8.736741066E0,2.255337954E0
9.874781512E0,-2.226607651E-1,-8.308178902E0,2.432508945E0
9.879781545E0,-3.160346150E-1,-8.044816971E0,2.628833532E0
9.884781578E0,-3.734954596E-1,-7.987356186E0,2.863465309E0
9.889781578E0,-3.854664862E-1,-8.056788445E0,2.975992680E0
9.894781544E0,-4.596867263E-1,-8.231564522E0,3.268085241E0
9.899781510E0,-4.022258818E-1,-8.511686325E0,3.488351822E0
9.904781510E0,-3.591302633E-1,-8.834903717E0,3.703830004E0
9.909781510E0,-2.202665508E-1,-9.194033623E0,3.804386616E0
9.914781543E0,-9.097966552E-2,-9.534010887E0,3.859453201E0
9.919781543E0,8.140286058E-2,-9.792584419E0,3.878606796E0
9.924781543E0,2.920926213E-1,-9.943418503E0,3.780444384E0
9.929781543E0,3.327940404E-1,-9.866804123E0,3.720589399E0
9.934781543E0,3.591302633E-1,-9.651326180E0,3.667917013E0
9.939781543E0,3.399766386E-1,-9.402329445E0,3.557783842E0
9.944781509E0,2.777273953E-1,-9.119813919E0,3.481169224E0
9.949781509E0,2.729389966E-1,-9.079112053E0,3.337517262E0
9.954781509E0,2.537853718E-1,-9.208398819E0,3.155557871E0
9.959781542E0,3.303998411E-1,-9.545981407E0,2.935291290E0
9.964781542E0,4.716577232E-1,-1.005834103E1,2.633621931E0
9.969781542E0,5.578489900E-1,-1.026184750E1,2.480392933E0
9.974781508E0,6.991068721E-1,-1.049408531E1,2.343923569E0
9.979781508E0,8.595184088E-1,-1.062576675E1,2.329558372E0
9.984782174E0,9.888052940E-1,-1.069519806E1,2.379836559E0
9.989782207E0,1.098938584E0,-1.071914005E1,2.410961151E0
9.994782207E0,1.223437071E0,-1.080772591E1,2.384624958E0
9.999782207E0,1.316810966E0,-1.087715721E1,2.396595955E0
1.000478221E1,1.395819545E0,-1.081490803E1,2.370259762E0
1.000978221E1,1.321599364E0,-1.060182476E1,2.406172752E0
1.001478221E1,1.247379065E0,-1.031930828E1,2.511517525E0
1.001978217E1,1.154005170E0,-9.969755173E0,2.662352324E0
1.002478214E1,9.313444495E-1,-9.364022255E0,2.810792685E0
1.002978214E1,6.368576288E-1,-8.925883293E0,2.959233284E0
1.003478147E1,2.418143749E-1,-8.217199326E0,3.148375273E0
1.003978150E1,-2.011129409E-1,-7.542034626E0,3.234566450E0
1.004478084E1,-4.860229492E-1,-6.751947880E0,3.306392431E0
1.004977994E1,-3.375824392E-1,-6.311414719E0,3.440467834E0
1.005477900E1,-7.206547260E-1,-6.095936775E0,3.402160645E0
1.005977900E1,-1.146822572E0,-6.160580158E0,3.179499865E0
1.006477834E1,-1.187524080E0,-6.816591740E0,2.904166698E0
1.006977770E1,-1.175553083E0,-7.477391243E0,2.755726099E0
1.007477770E1,-9.840168953E-1,-8.511686325E0,2.571372509E0
1.007977770E1,-6.392518282E-1,-9.510068893E0,2.470816135E0
1.008477770E1,1.915361360E-2,-1.053478718E1,2.456450939E0
1.008977730E1,7.206547260E-1,-1.117403889E1,2.516305923E0
1.009477730E1,1.302445769E0,-1.164090824E1,2.561795712E0
1.009977727E1,1.735796213E0,-1.194018269E1,2.564189911E0
1.010477727E1,1.982398987E0,-1.201440334E1,2.549824715E0
1.010977727E1,2.063801765E0,-1.183004951E1,2.518700123E0
1.011477730E1,1.951274395E0,-1.130093098E1,2.568978310E0
1.011977730E1,1.778891921E0,-1.055633450E1,2.729389906E0
1.012477730E1,1.570596337E0,-9.507674217E0,2.937685490E0
1.012977727E1,1.391031146E0,-8.904335022E0,3.076549292E0
1.013477723E1,8.283938169E-1,-8.080730438E0,3.292027235E0
1.013977720E1,3.615244627E-1,-7.623437405E0,3.335123062E0
1.014477720E1,-3.830722719E-2,-7.343316078E0,3.236960649E0
1.014977720E1,-2.753331959E-1,-7.161356449E0,2.999934673E0
1.015477723E1,-3.471592367E-1,-7.094318867E0,2.607285738E0
1.015977727E1,-3.974374831E-1,-6.833351135E0,2.233790159E0
1.016477663E1,-5.410895944E-1,-6.378452778E0,1.984793186E0
1.016977663E1,-6.560112834E-1,-6.074388981E0,1.951274395E0
1.017477663E1,-7.398083210E-1,-5.720046997E0,2.061407566E0
1.017977660E1,-6.943184733E-1,-5.557241440E0,2.243366957E0
1.018477726E1,-4.405331016E-1,-5.949890614E0,2.521094322E0
1.018977726E1,-1.077390760E-1,-6.854898930E0,2.628833532E0
1.019477796E1,3.064578176E-1,-8.159738541E0,2.681505919E0
1.019977886E1,7.565677166E-1,-9.586683273E0,2.683900118E0
1.020477976E1,1.266532660E0,-1.097053146E1,2.796427488E0
1.020977973E1,1.606509328E0,-1.214608479E1,2.952050686E0
1.021478036E1,2.003946781E0,-1.296490192E1,3.177105665E0
1.021978100E1,2.238578558E0,-1.338149261E1,3.459621429E0
1.022478100E1,2.236184359E0,-1.319474506E1,3.854664803E0
1.022978103E1,2.051830769E0,-1.268717384E1,3.981557369E0
1.023478040E1,1.460463047E0,-1.143740082E1,3.962403774E0
1.023978083E1,1.029506683E0,-1.053478718E1,3.732560396E0
1.024478083E1,7.852981687E-1,-9.883563995E0,3.191470861E0
1.024978083E1,5.530605912E-1,-9.364022255E0,2.597708941E0
1.025478079E1,3.088520169E-1,-8.921094894E0,2.066195965E0
1.025978076E1,7.661445439E-2,-8.504503250E0,1.702277422E0
1.026478076E1,-2.226607651E-1,-7.968202591E0,1.601720929E0
1.026978079E1,-4.692635238E-1,-7.601889610E0,1.762132406E0
1.027478083E1,-8.116343617E-1,-7.142202854E0,2.171540976E0
1.027978083E1,-1.041477680E0,-6.754342079E0,2.573766708E0
1.028478083E1,-1.233013868E0,-6.505345345E0,2.839523315E0
1.028978083E1,-1.405396342E0,-6.347328186E0,2.870647907E0
1.029478083E1,-1.496376038E0,-6.294655323E0,2.813186884E0
