"Time (s)","Acceleration x (m/s^2)","Acceleration y (m/s^2)","Acceleration z (m/s^2)"
3.383655000E-3,-2.895913601E0,3.533600807E0,7.268796921E0
8.160374000E-3,-2.881556749E0,3.403192043E0,7.196413994E0
1.293709300E-2,-2.895913601E0,3.355335474E0,7.186842918E0
1.771381100E-2,-2.962314367E0,3.417548895E0,7.268796921E0
2.249047800E-2,-3.042474031E0,3.547359467E0,7.412964344E0
2.726719700E-2,-3.079562664E0,3.715455294E0,7.624729156E0
3.204391600E-2,-3.055036306E0,3.888935089E0,7.869395256E0
3.682063400E-2,-2.977867842E0,4.019343853E0,8.132605553E0
4.159735300E-2,-2.862414122E0,4.091726780E0,8.381459236E0
4.637407200E-2,-2.766103029E0,4.120440483E0,8.592027664E0
5.115073800E-2,-2.632104874E0,4.077369690E0,8.769096375E0
5.592745700E-2,-2.516651154E0,4.034298897E0,8.922237396E0
6.070417600E-2,-2.406581402E0,3.943371773E0,9.012566566E0
6.548089500E-2,-2.343769789E0,3.885345697E0,9.055637360E0
7.025761300E-2,-2.290529490E0,3.793820381E0,9.122636795E0
7.503433200E-2,-1.676770449E0,3.579064369E0,9.057432175E0
7.981099900E-2,-1.622931957E0,3.516252756E0,9.253643036E0
8.458771800E-2,-1.689931035E0,3.540181160E0,9.254241943E0
8.936443600E-2,-1.856830359E0,3.607180119E0,9.187840462E0
9.414115500E-2,-1.952543259E0,3.635894060E0,9.125627518E0
9.891787400E-2,-2.062613010E0,3.635894060E0,9.016156197E0
1.036945930E-1,-2.205584288E0,3.625724554E0,8.887541771E0
1.084712590E-1,-2.353939295E0,3.625724554E0,8.797212601E0
1.132479780E-1,-2.464009047E0,3.591626883E0,8.763712883E0
1.180246970E-1,-2.606382132E0,3.552743435E0,8.764909744E0
1.228014160E-1,-2.724826813E0,3.431905985E0,8.760722160E0
1.275781340E-1,-2.776272535E0,3.398406267E0,8.900103569E0
1.323548530E-1,-2.856431961E0,3.354737282E0,8.991629601E0
1.371315720E-1,-2.903092146E0,3.263211966E0,9.044869423E0
1.419082380E-1,-2.935993433E0,3.175873756E0,9.126225471E0
1.466849570E-1,-2.973082066E0,3.117847919E0,9.232108116E0
1.514616760E-1,-2.967698336E0,3.083750248E0,9.303893089E0
1.562383950E-1,-2.957528830E0,3.050250769E0,9.352347374E0
1.610151130E-1,-2.995215654E0,2.949153900E0,9.357132912E0
1.657917800E-1,-3.237488985E0,2.630908489E0,9.243474007E0
1.705684990E-1,-3.079562664E0,2.688934565E0,9.448657990E0
1.753452180E-1,-2.918047190E0,2.819343328E0,9.538987160E0
1.801219360E-1,-2.965903759E0,2.939582586E0,9.529416084E0
1.848986550E-1,-3.184846878E0,3.044866800E0,9.511469841E0
1.896753740E-1,-3.303889751E0,3.092723370E0,9.502496719E0
1.944520930E-1,-3.262015581E0,3.156133175E0,9.401400566E0
1.992287590E-1,-3.040081263E0,3.233899832E0,9.218349457E0
2.040054780E-1,-2.755933523E0,3.306880951E0,9.043673515E0
2.087821970E-1,-2.533401012E0,3.418147087E0,8.922835350E0
2.135589160E-1,-2.372483730E0,3.514458179E0,8.864211082E0
2.183356340E-1,-2.086541414E0,3.573082447E0,8.901300430E0
2.231123530E-1,-1.730010748E0,3.579064369E0,8.923434258E0
2.278890720E-1,-1.316052437E0,3.613760471E0,9.011968613E0
2.326524570E-1,-9.822536707E-1,3.691527128E0,9.120841980E0
2.374424570E-1,-6.861419082E-1,3.749552965E0,9.311071396E0
2.422191760E-1,-5.898307562E-1,3.759722471E0,9.526425362E0
2.469958950E-1,-6.741777658E-1,3.817150354E0,9.733404160E0
2.517726130E-1,-9.924231768E-1,3.897907972E0,9.893723488E0
2.565493320E-1,-1.450050473E0,4.027120590E0,9.881160736E0
2.613259990E-1,-1.911865234E0,4.136591911E0,9.802198410E0
2.661027180E-1,-2.203191519E0,4.237090588E0,9.644869804E0
2.708794360E-1,-2.410170555E0,4.342973232E0,9.362516403E0
2.756561550E-1,-2.690130949E0,4.713262558E0,8.946763992E0
2.804328740E-1,-2.483749866E0,4.680361271E0,8.450851440E0
2.852095930E-1,-2.208575249E0,4.599603176E0,8.152346611E0
2.899863110E-1,-2.099701881E0,4.730011940E0,8.161319733E0
2.947629780E-1,-2.567498684E0,5.099104881E0,8.158329010E0
2.995396970E-1,-3.555136204E0,5.930611134E0,8.182256699E0
3.043031340E-1,-3.980460405E0,5.818746567E0,8.501100540E0
3.090931340E-1,-3.801596880E0,5.559125423E0,8.827122688E0
3.138698530E-1,-3.540779352E0,5.501697540E0,8.758927345E0
3.186465720E-1,-3.307479143E0,5.410770416E0,8.623134613E0
3.234232380E-1,-3.075375319E0,5.218147755E0,8.410173416E0
3.281999570E-1,-2.899502754E0,4.983053207E0,8.227720261E0
3.329766760E-1,-2.679961443E0,4.603192329E0,8.178668022E0
3.377533950E-1,-2.594418049E0,4.207778454E0,7.929215908E0
3.425301130E-1,-2.417947292E0,3.827918053E0,7.808378696E0
3.473068320E-1,-2.193620205E0,3.515654564E0,7.735397339E0
3.520835510E-1,-1.879562140E0,3.270988464E0,7.652844906E0
3.568602180E-1,-1.570289850E0,3.112463951E0,7.517052174E0
3.616369360E-1,-1.213759303E0,2.992822886E0,7.399205685E0
3.664136550E-1,-9.517452121E-1,2.843869686E0,7.402794838E0
3.711903740E-1,-9.589236975E-1,2.641676188E0,7.652844906E0
3.759537590E-1,-1.214955688E0,2.356930256E0,8.407780647E0
3.807438110E-1,-1.301695466E0,2.260020971E0,9.056235313E0
3.855205300E-1,-1.173081279E0,2.404786825E0,9.098708153E0
3.902971970E-1,-1.057029366E0,2.641077995E0,8.742775917E0
3.950739160E-1,-9.637092948E-1,2.761915445E0,8.535796165E0
3.998506340E-1,-9.343972206E-1,2.804986238E0,8.608179092E0
4.046273530E-1,-9.092726111E-1,2.781058073E0,8.833105087E0
4.094040720E-1,-7.316055298E-1,2.771486759E0,9.125029564E0
4.141807910E-1,-4.217349887E-1,2.897708178E0,9.363115311E0
4.189575090E-1,-7.357929647E-2,3.086143017E0,9.490532875E0
4.237341760E-1,2.685943544E-1,3.313461065E0,9.594022751E0
4.285108950E-1,6.065805554E-1,3.531208038E0,9.765707016E0
4.332743320E-1,1.088136077E0,3.686143398E0,9.959526062E0
4.380643320E-1,1.472184181E0,3.851248026E0,9.904491425E0
4.428410510E-1,1.889731646E0,3.871587038E0,9.753743172E0
4.476044360E-1,2.179861546E0,3.814159393E0,9.660423279E0
4.523944880E-1,2.222932339E0,3.684348583E0,9.617352486E0
4.571711550E-1,2.510071039E0,3.299702406E0,9.668798447E0
4.619345930E-1,2.204387903E0,3.400201082E0,9.569496155E0
4.667245930E-1,1.349551916E0,3.923032761E0,9.262018204E0
4.715013110E-1,4.372883439E-1,4.427320004E0,8.949754715E0
4.762780300E-1,-2.081755698E-1,4.743771076E0,8.660223007E0
4.810547490E-1,-5.431707501E-1,4.839483738E0,8.378468513E0
4.858314680E-1,-6.155536175E-1,4.733003139E0,8.177471161E0
4.905948530E-1,-3.607180119E-1,4.392025948E0,7.682157040E0
4.953848530E-1,-1.339980662E-1,4.316053867E0,7.368697166E0
5.001615720E-1,-1.513460279E-1,4.325624943E0,7.685746193E0
5.049382910E-1,-1.854437590E-1,4.382454872E0,8.324031830E0
5.097150090E-1,2.991028316E-2,4.325026989E0,9.249456406E0
5.144917280E-1,3.164508045E-1,4.311268330E0,9.420542717E0
5.192684470E-1,4.217349887E-1,4.340580463E0,9.486943245E0
5.240451130E-1,3.355933726E-1,4.450650215E0,9.506684303E0
5.288218320E-1,4.683950245E-1,4.340580463E0,9.371489525E0
5.335985510E-1,7.393822074E-1,4.051646709E0,9.169296265E0
5.383752700E-1,9.948160052E-1,3.821337700E0,8.846863747E0
5.431519880E-1,1.174277663E0,3.667598963E0,8.490332603E0
5.479287070E-1,1.201196909E0,3.614956856E0,8.197810173E0
5.527054260E-1,1.171884894E0,3.605385542E0,8.010572433E0
5.574821450E-1,1.253240824E0,3.581457376E0,8.144570351E0
5.622588110E-1,1.287936807E0,3.547957659E0,8.316853523E0
5.670355300E-1,1.253839016E0,3.533600807E0,8.225926399E0
5.718122490E-1,1.320239902E0,3.437289715E0,8.158926964E0
5.765889680E-1,1.439282775E0,3.302693367E0,8.042875290E0
5.813656860E-1,1.459023595E0,3.172882795E0,8.085946083E0
5.861424050E-1,1.269392371E0,3.113660574E0,8.163712502E0
5.909190720E-1,1.211964726E0,3.118446112E0,8.145168304E0
5.956957910E-1,1.254437327E0,3.070589542E0,8.101499557E0
6.004725090E-1,1.359123230E0,3.099901676E0,8.120043755E0
6.052492280E-1,1.502094388E0,3.123830080E0,8.181658745E0
6.100259470E-1,1.682752490E0,3.168695450E0,8.176275253E0
6.148026660E-1,1.825125456E0,3.149552822E0,8.088936806E0
6.195793840E-1,2.100300074E0,3.111267567E0,7.943572998E0
6.243561030E-1,2.256431818E0,3.107080221E0,7.755736351E0
6.291327700E-1,3.122633457E0,3.002992392E0,7.875975609E0
6.338962070E-1,3.790230989E0,2.754138947E0,7.944769382E0
6.386862070E-1,3.851846218E0,2.629113913E0,7.795815945E0
6.434629260E-1,4.016951084E0,2.610569477E0,7.593622684E0
6.482263110E-1,4.021138668E0,2.639283419E0,7.463213921E0
6.530163630E-1,3.772883177E0,2.715853691E0,7.406982422E0
6.577930820E-1,3.696911097E0,2.787638426E0,7.412366390E0
6.625697490E-1,3.706482172E0,2.793022156E0,7.465008259E0
6.673464680E-1,3.868596077E0,2.725425005E0,7.508079052E0
6.721231860E-1,4.167698860E0,2.625524759E0,7.400402069E0
6.768999050E-1,4.524827480E0,2.447857618E0,7.250252724E0
6.816766240E-1,4.667200565E0,2.178664923E0,7.071987152E0
6.864533430E-1,4.714458942E0,1.932802439E0,6.846463680E0
6.912300610E-1,4.565505505E0,1.721037745E0,6.530611038E0
6.960067280E-1,4.288536549E0,1.474576950E0,6.311069489E0
7.007834470E-1,3.963710785E0,1.305284739E0,5.948556900E0
7.055468840E-1,3.424727440E0,1.145563841E0,5.572285652E0
7.103368840E-1,2.737389088E0,9.613165259E-1,5.177470207E0
7.151136030E-1,2.474776745E0,7.770691514E-1,4.838287354E0
7.198769880E-1,2.234896421E0,5.886343718E-1,4.446462631E0
7.246670410E-1,1.647458434E0,4.863412082E-1,4.074976921E0
7.294437070E-1,1.023529887E0,5.042873621E-1,3.871587038E0
7.342071450E-1,3.086741269E-1,6.664010882E-1,3.832105398E0
7.389971450E-1,-4.366901144E-2,9.020941257E-1,3.900899172E0
7.437738630E-1,-1.256231815E-1,1.156929731E0,3.901497364E0
7.485373010E-1,-4.007977992E-2,1.445863128E0,3.924827337E0
7.533273010E-1,4.965107143E-2,1.706082582E0,4.010370731E0
7.581040200E-1,-6.819544733E-2,1.941775560E0,4.308875561E0
7.628674050E-1,-2.763710022E-1,2.187039852E0,4.688735962E0
7.676574570E-1,-2.853440940E-1,2.456830740E0,4.966901779E0
7.724341240E-1,-1.363908947E-1,2.755335331E0,5.330610752E0
7.771975610E-1,-1.459621787E-1,3.174677372E0,5.603990555E0
7.819875610E-1,5.503492355E-1,3.364308596E0,5.907280922E0
7.867642800E-1,2.289333105E0,3.156731367E0,6.142973900E0
7.915276660E-1,4.071387768E0,2.553141832E0,6.354738712E0
7.963177180E-1,5.355136871E0,1.833500385E0,6.608377934E0
8.010944360E-1,6.214160442E0,1.286740422E0,6.695117950E0
8.058578220E-1,6.775277138E0,1.018146038E0,6.534200668E0
8.106478220E-1,7.106084824E0,1.024128079E0,6.200999737E0
8.154245410E-1,7.089335442E0,1.255633712E0,5.884549141E0
8.201879780E-1,7.181458950E0,1.491924882E0,5.542973518E0
8.249779780E-1,7.131807804E0,1.713261008E0,5.240281582E0
8.297546970E-1,6.811768055E0,1.837687731E0,5.078765869E0
8.345180820E-1,6.325426579E0,1.850848317E0,4.985445976E0
8.393081340E-1,5.906682491E0,1.782652855E0,4.911268711E0
8.440848530E-1,5.573482037E0,1.637288928E0,4.811966419E0
8.488615200E-1,5.478367329E0,1.444666624E0,4.735994339E0
8.536382380E-1,6.147161484E0,1.234098315E0,5.082953453E0
8.584149570E-1,6.349354744E0,1.032503009E0,5.413163185E0
8.631916760E-1,6.217151642E0,9.164510965E-1,5.443073273E0
8.679683950E-1,6.174678802E0,9.020941257E-1,5.457430363E0
8.727451130E-1,6.301498413E0,8.973084688E-1,5.264808178E0
8.775218320E-1,6.633502483E0,9.463613629E-1,5.032704353E0
8.822985510E-1,6.898507595E0,8.602197170E-1,4.752744198E0
8.870752180E-1,7.015756130E0,5.521438122E-1,4.373481750E0
8.918519360E-1,7.176673412E0,5.479564071E-1,4.219144344E0
8.966286550E-1,7.376473904E0,5.724828243E-1,4.252045631E0
9.014053740E-1,7.609774113E0,5.826523304E-1,4.279563427E0
9.061687590E-1,7.892127514E0,4.821537733E-1,4.431507587E0
9.109588110E-1,8.113463402E0,2.853440940E-1,4.737190723E0
9.157355300E-1,8.268398285E0,-1.794617064E-2,5.020142078E0
9.205122490E-1,8.361120224E0,-4.277170599E-1,5.260022163E0
9.252889160E-1,8.558527946E0,-8.608179688E-1,5.407779217E0
9.300656340E-1,8.626125336E0,-1.308275819E0,5.345565796E0
9.348290720E-1,8.806783676E0,-1.631306887E0,5.204987526E0
9.396190720E-1,9.035298347E0,-1.880758643E0,4.998008251E0
9.443957910E-1,9.387042999E0,-2.005185366E0,4.852644444E0
9.491591760E-1,9.756733894E0,-2.254637241E0,4.596612453E0
9.539492280E-1,1.026102161E1,-2.595614433E0,4.335196495E0
9.587259470E-1,1.096690464E1,-2.748156786E0,4.581058979E0
9.634893320E-1,1.153101254E1,-2.809772015E0,4.975874901E0
9.682793320E-1,1.175653553E1,-2.751147747E0,5.277968407E0
9.730560510E-1,1.169073296E1,-2.660220623E0,5.469992638E0
9.778194880E-1,1.150528908E1,-2.588435888E0,5.484947681E0
9.826094880E-1,1.130489063E1,-2.651247501E0,5.404788017E0
9.873862070E-1,1.119123173E1,-2.757728100E0,5.371886730E0
9.921629260E-1,1.117268753E1,-2.892324448E0,5.448457241E0
9.969396450E-1,1.105424213E1,-3.046661377E0,5.507081509E0
1.001716363E0,1.089751244E1,-3.157927752E0,5.426323414E0
1.006493030E0,1.061097240E1,-3.235694408E0,5.230710506E0
1.011269749E0,9.896714211E0,-3.632902861E0,4.908277512E0
1.016046468E0,9.220742226E0,-4.115654945E0,4.528416634E0
1.020823186E0,9.516854286E0,-3.888336897E0,4.157529354E0
1.025599905E0,9.795019150E0,-3.728615999E0,3.805186272E0
1.030376624E0,1.027537823E1,-3.693919897E0,3.701696634E0
1.035153343E0,1.071326542E1,-3.885345697E0,3.738187075E0
1.039930061E0,1.103270721E1,-4.192823410E0,3.693321705E0
1.044706728E0,1.138504982E1,-4.442275047E0,3.547957659E0
1.049470166E0,1.180798149E1,-4.551746845E0,3.406781197E0
1.054260166E0,1.222134209E1,-4.570291042E0,3.356531858E0
1.059036884E0,1.266461182E1,-4.578666210E0,3.445664644E0
1.063800270E0,1.307976723E1,-4.558327198E0,3.668795347E0
1.068590322E0,1.344347572E1,-4.509872437E0,4.007379532E0
1.073367041E0,1.372164154E1,-4.436891556E0,4.366302967E0
1.078130426E0,1.399382496E1,-4.344767570E0,4.681557655E0
1.082920478E0,1.425224972E1,-4.320241451E0,4.963312149E0
1.087697145E0,1.451605892E1,-4.382454872E0,5.187041283E0
1.092460582E0,1.466501141E1,-4.531407833E0,5.316852093E0
1.097250582E0,1.474636745E1,-4.646861553E0,5.354538918E0
1.102027301E0,1.477029610E1,-4.719244480E0,5.397609711E0
1.106790686E0,1.481815243E1,-4.699503899E0,5.431109428E0
1.111580738E0,1.494138241E1,-4.578666210E0,5.425725460E0
1.116357457E0,1.514537048E1,-4.409972191E0,5.405386448E0
1.121120843E0,1.538704586E1,-4.197608948E0,5.365306377E0
1.125910895E0,1.566640759E1,-3.932005882E0,5.204987526E0
1.130687613E0,1.599601936E1,-3.651447296E0,4.910071850E0
1.135450999E0,1.628794289E1,-3.385245800E0,4.515256405E0
1.140240999E0,1.657986832E1,-3.249453068E0,4.134797573E0
1.145017718E0,1.687897110E1,-3.316452265E0,3.936193228E0
1.149781103E0,1.710688782E1,-3.392424345E0,3.786043644E0
1.154571155E0,1.724866295E1,-3.401995659E0,3.631706476E0
1.159347874E0,1.727139473E1,-3.329612732E0,3.569493294E0
1.164124593E0,1.713619995E1,-3.021536827E0,3.315854073E0
1.168901311E0,1.696152306E1,-2.588435888E0,2.995215654E0
1.173678030E0,1.683589935E1,-2.304288149E0,2.803191662E0
1.178454697E0,1.682513237E1,-2.270190477E0,2.673381090E0
1.183231416E0,1.688734627E1,-2.462812662E0,2.587239504E0
1.188008134E0,1.687837219E1,-2.684746981E0,2.601596355E0
1.192784853E0,1.674676704E1,-2.800798893E0,2.741576433E0
1.197561572E0,1.659362602E1,-2.858824968E0,2.656033039E0
1.202338291E0,1.620419502E1,-2.956332445E0,2.715853691E0
1.207115009E0,1.548754501E1,-3.068794966E0,2.968894720E0
1.211891728E0,1.464227962E1,-3.162115097E0,3.093919754E0
1.216668395E0,1.375633717E1,-3.178864956E0,3.007179976E0
1.221431832E0,1.296610737E1,-3.199802160E0,2.857030153E0
1.226221832E0,1.237089348E1,-3.312264681E0,2.663809776E0
1.230998551E0,1.190010548E1,-3.568296671E0,2.670988321E0
1.235761936E0,1.153938675E1,-3.887738705E0,2.625524759E0
1.240551988E0,1.111107159E1,-4.153341770E0,2.478964329E0
1.245328707E0,1.038185883E1,-4.295116425E0,2.123031855E0
1.250092093E0,8.787042618E0,-4.351347923E0,1.210170031E0
1.254882145E0,7.677371502E0,-4.478765965E0,2.129612118E-1
1.259658863E0,7.155138016E0,-4.639084816E0,2.733799815E-1
1.264422249E0,7.025327206E0,-4.837689400E0,1.459023595E0
1.269212249E0,7.436294556E0,-4.914857864E0,3.309871912E0
1.273988968E0,7.013961315E0,-4.978865623E0,4.238286972E0
1.278752405E0,6.951747894E0,-5.036293507E0,4.176671982E0
1.283542405E0,6.988238335E0,-5.330610752E0,4.512265205E0
1.288319124E0,7.099504948E0,-4.902295589E0,5.782854080E0
1.293082509E0,6.762714863E0,-4.050450325E0,6.427719593E0
1.297872561E0,6.616752625E0,-4.001996040E0,5.232504845E0
1.302649280E0,6.866204739E0,-4.198207378E0,4.545764923E0
1.307412666E0,7.190432072E0,-4.347160339E0,5.461019516E0
1.312202666E0,7.868198872E0,-4.422534466E0,4.910071850E0
1.316979384E0,8.769096375E0,-4.984847546E0,6.533003807E0
1.321756103E0,8.830113411E0,-5.162514687E0,5.548955917E0
1.326532822E0,9.211171150E0,-5.571089268E0,5.326423168E0
1.331309541E0,9.432506561E0,-5.710471153E0,5.661418438E0
1.336086259E0,9.400203705E0,-5.917450428E0,4.941178799E0
1.340862978E0,9.593423843E0,-6.181857109E0,5.343770981E0
1.345639697E0,9.521639824E0,-6.172883987E0,5.209773064E0
1.350403082E0,9.340981483E0,-6.003592014E0,2.973680258E0
1.355193134E0,9.647860527E0,-6.098108292E0,1.034297585E0
1.359969801E0,9.884750366E0,-5.866004944E0,1.830509305E-1
1.364733238E0,8.980861664E0,-4.687539577E0,7.244270444E-1
1.369523238E0,8.205587387E0,-4.097708702E0,1.947159410E0
1.374299957E0,7.657630444E0,-4.306482315E0,2.549552441E0
1.379063343E0,7.368697166E0,-4.808377266E0,2.484348059E0
1.383853395E0,7.637889862E0,-5.251049519E0,2.723032236E0
1.388630113E0,7.973483086E0,-5.376074314E0,3.782454491E0
1.393393499E0,8.146365166E0,-5.409573555E0,4.746163845E0
1.398183551E0,8.266005516E0,-5.833701611E0,6.290730953E0
1.402960218E0,7.784450054E0,-5.955735683E0,6.730412006E0
1.407723655E0,6.614359856E0,-5.673382282E0,4.682155609E0
1.412513655E0,5.708676815E0,-5.400600910E0,3.664607763E0
1.417290374E0,5.151148796E0,-5.155934811E0,2.913859844E0
1.422053811E0,5.658427238E0,-5.304289818E0,3.343371391E0
1.426843811E0,5.999404430E0,-5.428716183E0,3.778266907E0
1.431620530E0,5.778666496E0,-4.967499733E0,4.484747887E0
1.436397249E0,6.293123722E0,-4.956133842E0,3.920041800E0
1.441173968E0,6.753143787E0,-4.998008251E0,3.548556089E0
1.445950686E0,7.427321434E0,-4.981856823E0,3.415754318E0
1.450727353E0,7.905287743E0,-5.163711071E0,2.788834810E0
1.455504072E0,8.155337334E0,-5.023132801E0,2.576471806E0
1.460280791E0,8.023732185E0,-4.811367989E0,2.130808592E0
1.465044228E0,7.548159122E0,-4.518247128E0,1.604985833E0
1.469834228E0,7.459624767E0,-4.152743816E0,2.080559254E0
1.474610947E0,7.761120319E0,-3.834498405E0,3.245265722E0
1.479387666E0,8.077570915E0,-3.602394581E0,3.799802303E0
1.484164384E0,7.751548767E0,-3.656233072E0,3.379263878E0
1.488941103E0,6.753741741E0,-3.302095175E0,3.029313564E0
1.493717822E0,7.390830994E0,-3.352942705E0,2.943770170E0
1.498494541E0,8.374280930E0,-3.365504980E0,3.433700562E0
1.503271259E0,9.485747337E0,-3.425923824E0,3.936193228E0
1.508034645E0,1.097468090E1,-3.942773581E0,4.427918434E0
1.512824645E0,1.214955711E1,-4.296911240E0,4.983651161E0
1.517601363E0,1.133839035E1,-4.173680782E0,5.333601475E0
1.522378082E0,9.256035805E0,-3.994817495E0,4.134797573E0
1.527154801E0,7.768897057E0,-3.820141315E0,3.005385160E0
1.531931520E0,7.108478069E0,-3.623929977E0,2.532802820E0
1.536694905E0,6.826723099E0,-3.634697676E0,3.034099102E0
1.541484957E0,6.976274490E0,-3.879961967E0,4.093521118E0
1.546261676E0,7.308278561E0,-4.033700943E0,4.677370071E0
1.551038343E0,7.863413334E0,-4.172484398E0,5.010570526E0
1.555815061E0,6.667002201E0,-4.044468403E0,3.922434568E0
1.560591780E0,5.661418438E0,-3.839882135E0,3.040081263E0
1.565355218E0,4.916652203E0,-3.643670797E0,2.745764017E0
1.570145218E0,4.822733879E0,-3.552145243E0,3.015554667E0
1.574921936E0,5.093721390E0,-3.512663603E0,2.979662418E0
1.579685322E0,4.699503899E0,-3.364308596E0,2.405983210E0
1.584475374E0,4.850251675E0,-3.200400352E0,2.199003935E0
1.589252093E0,4.949553490E0,-3.050848961E0,2.246262312E0
1.594028811E0,5.093721390E0,-3.064607620E0,2.475973129E0
1.598805478E0,5.063212872E0,-3.122633457E0,2.879163742E0
1.603582197E0,5.032704353E0,-3.464807272E0,3.187239647E0
1.608358916E0,4.830510616E0,-3.754936934E0,3.327219963E0
1.613135634E0,4.357329845E0,-3.780659676E0,3.804588079E0
1.617912353E0,3.714857101E0,-3.854238987E0,3.741178274E0
1.622675738E0,3.945166349E0,-3.872783422E0,3.265006542E0
1.627465791E0,3.900300980E0,-3.997808456E0,2.847458839E0
1.632242509E0,4.534996986E0,-3.948157310E0,2.344966173E0
1.637019228E0,5.200201988E0,-3.772883177E0,2.360519648E0
1.641795947E0,5.827719688E0,-3.617349625E0,2.367099762E0
1.646572666E0,6.488736629E0,-3.369692564E0,2.435295343E0
1.651336051E0,6.736393929E0,-3.291925669E0,2.515454769E0
1.656126051E0,6.725028038E0,-3.363710403E0,1.330409408E0
1.660902770E0,7.326224804E0,-3.121437073E0,1.092323542E0
1.665666207E0,7.944170952E0,-2.864806890E0,1.016949654E0
1.670456207E0,7.841877937E0,-2.836092949E0,1.458425403E0
1.675232926E0,7.578667641E0,-3.154936552E0,1.877767563E0
1.680009645E0,7.294519901E0,-3.430111170E0,1.893919110E0
1.684786363E0,7.397411346E0,-3.251247883E0,1.734198213E0
1.689563082E0,7.919046402E0,-2.985644341E0,2.374876499E0
1.694339801E0,7.785048485E0,-3.293720484E0,1.257428288E0
1.699116520E0,6.967899323E0,-3.960121393E0,3.170489967E-1
1.703893238E0,7.785048485E0,-3.625724554E0,2.691925466E-1
1.708656624E0,8.690732002E0,-2.245664120E0,6.041877270E-1
1.713446624E0,8.704490662E0,-2.072184324E0,6.041877270E-1
1.718223343E0,8.717052460E0,-3.748356581E0,-5.324030519E-1
1.723000061E0,7.728816986E0,-3.100499868E0,2.452643216E-2
1.727776780E0,6.619743824E0,-2.264806747E0,-4.648058116E-1
1.732553499E0,6.370292187E0,-1.672582984E0,-1.265205026E0
1.737330218E0,7.777870178E0,-1.573280931E0,-5.964110494E-1
1.742106936E0,7.759325504E0,-1.679761529E0,9.882357717E-1
1.746883655E0,7.525427341E0,-2.042274237E0,2.309073925E0
1.751647041E0,7.305287361E0,-2.684746981E0,4.130012035E0
1.756437093E0,7.275975227E0,-3.301496983E0,5.214558601E0
1.761213811E0,7.415955544E0,-4.095914364E0,5.079962254E0
1.765977197E0,7.467401028E0,-4.610969067E0,4.715655327E0
1.770767197E0,7.437490940E0,-4.972883701E0,4.241278172E0
1.775543916E0,7.372884750E0,-5.175076962E0,3.684348583E0
1.780307353E0,7.445267677E0,-5.347958565E0,3.050848961E0
1.785097353E0,7.409973621E0,-5.391029358E0,2.633301258E0
1.789874072E0,7.205985546E0,-5.324030399E0,2.744567633E0
1.794650791E0,6.432505608E0,-4.694717884E0,3.506681681E0
1.799427509E0,5.914459229E0,-3.844667673E0,4.722833633E0
1.804204228E0,5.730212212E0,-3.020938635E0,5.443671703E0
1.808967613E0,4.774279594E0,-2.213959217E0,5.164309502E0
1.813757666E0,3.052643538E0,-1.047458172E0,5.076373100E0
1.818534332E0,2.267797709E0,2.991028316E-2,4.820939541E0
1.823297770E0,2.350350142E0,3.200400174E-1,3.759722471E0
1.828087770E0,3.564109325E0,-4.420739710E-1,1.100100160E0
1.832864488E0,3.717249870E0,-9.702895880E-1,-1.429113269E0
1.837627926E0,3.477967739E0,-1.572084427E0,-5.089533806E0
1.842417926E0,2.737389088E0,-2.396411896E0,-6.870391846E0
1.847194645E0,1.830509305E0,-3.212962627E0,-6.932007313E0
1.851958030E0,1.272383451E0,-4.024129391E0,-6.923632145E0
1.856748082E0,1.180259824E0,-4.751547337E0,-7.599604607E0
1.861524801E0,1.749751568E0,-5.577669621E0,-8.993423462E0
1.866288186E0,3.300300598E0,-6.561119556E0,-1.040698433E1
1.871078238E0,4.930410862E0,-7.631309509E0,-1.040040398E1
1.875854905E0,6.695715904E0,-8.735597610E0,-9.492327690E0
1.880618343E0,8.185248375E0,-9.841081619E0,-7.584649563E0
1.885408343E0,8.532805443E0,-1.029870892E1,-4.629513741E0
1.890185061E0,8.596813202E0,-1.036331463E1,-1.170090318E0
1.894948499E0,8.023732185E0,-1.030289650E1,1.582852125E0
1.899738499E0,7.492526054E0,-1.033938694E1,3.457030535E0
1.904515218E0,7.208976269E0,-1.032084274E1,4.481158733E0
1.909278603E0,6.734599113E0,-1.003310490E1,4.828716278E0
1.914068655E0,6.748358250E0,-9.334401131E0,4.334000111E0
1.918845374E0,7.483552933E0,-8.417351723E0,3.743571043E0
1.923608759E0,8.191229820E0,-7.466204643E0,3.230908871E0
1.928398811E0,8.875576973E0,-6.644868374E0,2.790031195E0
1.933175478E0,9.812367439E0,-6.623332977E0,2.002792597E0
1.937938916E0,1.219681549E1,-8.129016876E0,-1.055832982E0
1.942728916E0,1.474457359E1,-9.716654778E0,-3.074178934E0
1.947505634E0,1.455554008E1,-1.012104130E1,-3.163909674E0
1.952269072E0,1.239661598E1,-9.443274498E0,-1.795215130E0
1.957059072E0,1.027119160E1,-8.788837433E0,-4.935196638E-1
1.961835791E0,8.748159409E0,-8.359924316E0,4.977070987E-1
1.966599176E0,7.818548203E0,-7.711469173E0,5.162515044E-1
1.971389228E0,7.599006653E0,-7.220940590E0,6.610172391E-1
1.976165947E0,7.414759159E0,-6.743572235E0,4.121637046E-1
1.980929332E0,6.536593437E0,-6.119643688E0,-5.288137794E-1
1.985719384E0,5.197809219E0,-5.557928562E0,-2.067398787E0
1.990496051E0,4.054039955E0,-5.261219025E0,-3.808775425E0
1.995259488E0,4.015754700E0,-5.665007591E0,-5.645864964E0
2.000049488E0,4.738387108E0,-6.433701992E0,-6.949953556E0
2.004826207E0,5.292923450E0,-6.991229534E0,-7.609774113E0
2.009589645E0,5.093721390E0,-7.430312634E0,-6.931408882E0
2.014379645E0,4.869992256E0,-7.710870743E0,-5.572285652E0
2.019156363E0,4.484149456E0,-7.967501163E0,-4.231108665E0
2.023919749E0,4.055834293E0,-8.263612747E0,-2.794218540E0
2.028709801E0,3.432504177E0,-8.492127419E0,-1.436890006E0
2.033486520E0,2.825923443E0,-8.489136696E0,-2.195414752E-1
2.038249905E0,2.383251429E0,-8.399405479E0,5.688936114E-1
2.043039957E0,1.909472466E0,-8.048258781E0,1.152144074E0
2.047816676E0,1.558923960E0,-7.765307903E0,1.561915040E0
2.052580061E0,1.001994491E0,-7.179066181E0,1.852044702E0
2.057370061E0,3.308077157E-1,-6.530611038E0,2.066800594E0
2.062146780E0,-4.313062727E-1,-5.877370834E0,2.280958176E0
2.066910218E0,-1.231705427E0,-5.219344616E0,2.404786825E0
2.071700218E0,-1.837089539E0,-4.676173687E0,2.584846735E0
2.076476936E0,-2.076371908E0,-4.267001152E0,2.490330219E0
2.081240374E0,-2.085345030E0,-3.963710785E0,1.986042738E0
2.086030374E0,-2.006979942E0,-3.785445452E0,1.620539188E0
2.090807093E0,-1.780260086E0,-3.456432343E0,1.595414519E0
2.095570478E0,-1.552343726E0,-3.138186932E0,1.670788407E0
2.100360530E0,-1.373480201E0,-2.949752092E0,1.487139225E0
2.105137249E0,-1.103091240E0,-2.891726255E0,1.322632670E0
2.109900634E0,-9.565308690E-1,-2.693720102E0,1.302891970E0
2.114690686E0,-9.206385016E-1,-2.384447813E0,1.134197950E0
2.119467353E0,-8.075776696E-1,-2.230110645E0,9.852447510E-1
2.124230791E0,-5.802595019E-1,-2.172084808E0,8.877372146E-1
2.129020791E0,-4.193421602E-1,-2.075175524E0,8.434699774E-1
2.133797509E0,-3.224328458E-1,-2.089532375E0,1.135992527E0
2.138574228E0,-2.404786795E-1,-2.065604210E0,1.293918848E0
2.143350947E0,-1.704886109E-1,-2.055434704E0,1.115653515E0
2.148127666E0,4.785645381E-2,-2.203789711E0,7.980063558E-1
2.152891051E0,2.267797709E0,-4.481756687E0,9.690931439E-2
2.157681103E0,6.655636311E0,-1.324726391E1,-4.387838364E0
2.162457822E0,9.357132912E0,-1.845943069E1,-2.516651154E0
2.167221207E0,8.582456589E0,-2.042752647E1,-1.105484009E0
2.172011259E0,7.379465103E0,-2.206900406E1,-2.865405083E-1
2.176787978E0,6.020939827E0,-2.396591377E1,-1.345962733E-1
2.181551363E0,4.898705959E0,-2.499961281E1,1.938186288E-1
2.186341416E0,4.074378967E0,-2.623550606E1,9.188438654E-1
2.191118082E0,2.157129526E0,-2.869712257E1,1.093519926E0
2.195881520E0,-3.221337557E0,-3.781078339E1,5.419743061E-1
2.200671520E0,-6.982256413E0,-4.432883453E1,6.909275651E-1
2.205448238E0,-4.848456860E0,-4.251746750E1,2.085345030E0
2.210211676E0,7.920243144E-1,-3.615973663E1,3.500699520E0
2.215001676E0,5.611767292E0,-2.988934517E1,3.691527128E0
2.219778395E0,8.174480438E0,-2.444388008E1,3.238087177E0
2.224541780E0,6.388238430E0,-1.885903168E1,2.748754978E0
2.229331832E0,6.432505608E0,-1.539960861E1,1.657029629E0
2.234108551E0,1.076351452E1,-1.391426373E1,3.667000830E-1
2.238871936E0,1.087896824E1,-1.140838051E1,3.206382394E-1
2.243661988E0,7.214360237E0,-8.821140289E0,1.561915040E0
2.248438707E0,2.033301115E0,-6.897311211E0,2.532802820E0
2.253202093E0,-2.579462767E0,-5.829514027E0,2.757728100E0
2.257992145E0,-6.888338089E0,-5.575276852E0,3.116053343E0
2.262768811E0,-1.002592659E1,-5.640480995E0,2.676372051E0
2.267532249E0,-1.277886963E1,-6.061617851E0,2.762513638E0
2.272322249E0,-1.522074509E1,-6.385845661E0,3.174079180E0
2.277098968E0,-1.659781456E1,-6.451648235E0,2.763710260E0
2.281862405E0,-1.645065498E1,-6.315257072E0,1.188634634E0
2.286652405E0,-1.581954861E1,-5.927021503E0,-2.778665304E0
2.291429124E0,-1.423609829E1,-5.959922791E0,-6.074778557E0
2.296192509E0,-1.209392357E1,-6.416952133E0,-6.090332031E0
2.300982561E0,-9.872786522E0,-7.009773731E0,-4.973481655E0
2.305759280E0,-8.136195183E0,-7.487740040E0,-3.580260992E0
2.310522666E0,-6.680162430E0,-7.874779224E0,-2.340180635E0
2.315312718E0,-5.393422127E0,-8.253443718E0,-1.372283816E0
2.320089436E0,-4.408177376E0,-8.703892708E0,-7.100701332E-1
2.324852822E0,-3.447459221E0,-9.144769669E0,-2.919243574E-1
2.329642822E0,-2.579462767E0,-9.586245537E0,-3.708875179E-2
2.334419541E0,-1.828714728E0,-1.001336479E1,2.614158690E-1
2.339182978E0,-1.188036442E0,-1.037827015E1,5.940182209E-1
2.343972978E0,-6.723831892E-1,-1.059362411E1,8.464609981E-1
2.348749697E0,-2.476571500E-1,-1.072762203E1,1.002592683E0
2.353513134E0,-1.226321608E-1,-1.082393360E1,1.126421213E0
2.358303134E0,-1.980060786E-1,-1.085803127E1,1.304088354E0
2.363079853E0,-3.535395563E-1,-1.074736309E1,1.530808330E0
2.367843238E0,-5.294120312E-1,-1.060857964E1,1.665404558E0
2.372633291E0,-4.438686073E-1,-1.053619671E1,1.670190215E0
2.377410009E0,-3.535395563E-1,-1.039143085E1,1.722234130E0
2.382173395E0,-2.452643216E-1,-1.016889763E1,1.707278967E0
2.386963447E0,-3.708875179E-2,-9.942177773E0,1.537986755E0
2.391740166E0,2.464607358E-1,-9.787242889E0,1.325025558E0
2.396503551E0,3.834498227E-1,-9.743574142E0,1.166501045E0
2.401293603E0,3.924229145E-1,-9.820143700E0,1.031904817E0
2.406070270E0,2.111666054E-1,-9.921838760E0,9.565308690E-1
2.410846988E0,-1.256231871E-2,-1.001874828E1,8.709874153E-1
2.415623707E0,-2.464607358E-1,-1.007677460E1,7.573283911E-1
2.420400426E0,-3.756731451E-1,-1.011565781E1,5.700899959E-1
2.425177145E0,-4.151547253E-1,-1.010608673E1,3.786641955E-1
2.429953863E0,-4.492524564E-1,-1.009172916E1,2.111666054E-1
2.434730582E0,-4.600201547E-1,-1.006780148E1,5.742774159E-2
2.439507301E0,-5.174478889E-1,-1.002891827E1,-2.871387079E-2
2.444284020E0,-6.035895348E-1,-9.971489906E0,-1.142572835E-1
2.449060738E0,-7.369893789E-1,-9.890133858E0,-1.136590764E-1
2.453837457E0,-8.464609981E-1,-9.784252167E0,-7.477571070E-2
2.458614176E0,-9.607182741E-1,-9.678967476E0,2.153540403E-2
2.463390895E0,-1.016949654E0,-9.587442398E0,1.704886109E-1
2.468167613E0,-1.016351461E0,-9.558728218E0,3.523431420E-1
2.472944332E0,-1.019940615E0,-9.534799576E0,5.347958803E-1
2.477721051E0,-1.075573802E0,-9.549157143E0,7.172485590E-1
2.482497718E0,-1.174277663E0,-9.592825890E0,9.104689956E-1
2.487274436E0,-1.273579836E0,-9.656235695E0,1.064207911E0
2.492051155E0,-1.357926846E0,-9.694520950E0,1.204187989E0
2.496827874E0,-1.386042476E0,-9.728618622E0,1.343569875E0
2.501604593E0,-1.399203062E0,-9.772287369E0,1.444068432E0
2.506381311E0,-1.365703583E0,-9.766903877E0,1.501496196E0
2.511158030E0,-1.336989641E0,-9.762118340E0,1.496710539E0
2.515934749E0,-1.332802176E0,-9.752547264E0,1.463211060E0
2.520711468E0,-1.366301775E0,-9.742975235E0,1.396211982E0
2.525488186E0,-1.386042476E0,-9.738189697E0,1.314257860E0
2.530264905E0,-1.424327731E0,-9.719047546E0,1.223330617E0
2.535041624E0,-1.449452281E0,-9.709476471E0,1.094118118E0
2.539818343E0,-1.464407444E0,-9.699904442E0,9.601200819E-1
2.544595061E0,-1.465005636E0,-9.699904442E0,8.255237937E-1
2.549371780E0,-1.466202021E0,-9.694520950E0,6.669993401E-1
2.554148499E0,-1.500299811E0,-9.704689980E0,5.371887088E-1
2.558925218E0,-1.548754454E0,-9.719047546E0,3.840480447E-1
2.563701884E0,-1.578066587E0,-9.709476471E0,2.213360965E-1
2.568478603E0,-1.602592945E0,-9.699904442E0,5.862415582E-2
2.573255322E0,-1.608574986E0,-9.699306488E0,-1.381855011E-1
2.578032041E0,-1.634297848E0,-9.675378799E0,-3.637090325E-1
2.582808759E0,-1.644467354E0,-9.704092026E0,-5.318048596E-1
2.587585478E0,-1.593021631E0,-9.732806206E0,-6.520441771E-1
2.592362197E0,-1.578664780E0,-9.762118340E0,-7.190431952E-1
2.597138916E0,-1.621137381E0,-9.805189133E0,-6.759724021E-1
2.601915634E0,-1.644467354E0,-9.824930191E0,-5.605186820E-1
2.606692353E0,-1.605584025E0,-9.814760208E0,-4.169493318E-1
2.611469072E0,-1.514058471E0,-9.809974670E0,-2.536391914E-1
2.616245791E0,-1.423131227E0,-9.775876999E0,-1.393819153E-1
2.621022509E0,-1.365105271E0,-9.771091461E0,-5.383851007E-3
2.625799228E0,-1.326221943E0,-9.785448074E0,1.531406492E-1
2.630575947E0,-1.301695466E0,-9.809974670E0,3.014956415E-1
2.635352666E0,-1.291526079E0,-9.800403595E0,4.259224236E-1
2.640129384E0,-1.286142230E0,-9.775876999E0,4.546363056E-1
2.644906051E0,-1.281954765E0,-9.766305923E0,4.307080805E-1
2.649682770E0,-1.281954765E0,-9.751948357E0,3.780659735E-1
2.654459488E0,-1.287338614E0,-9.742377281E0,2.967100143E-1
2.659236207E0,-1.297508121E0,-9.732806206E0,1.956132501E-1
2.664012926E0,-1.326820135E0,-9.737591743E0,1.046859920E-1
2.668789645E0,-1.360917926E0,-9.723235130E0,4.187439568E-3
2.673566363E0,-1.422533035E0,-9.713663101E0,-5.264209956E-2
2.678343082E0,-1.456630826E0,-9.704092026E0,-1.052841991E-1
2.683119801E0,-1.509272933E0,-9.680164337E0,-1.292124242E-1
2.687896520E0,-1.532602906E0,-9.651450157E0,-1.148554832E-1
2.692673238E0,-1.556531072E0,-9.627521515E0,-7.597211748E-2
2.697449957E0,-1.575075507E0,-9.637093544E0,-8.973085321E-3
2.702226676E0,-1.588834286E0,-9.627521515E0,5.324030295E-2
2.707003395E0,-1.621735573E0,-9.617950439E0,1.351944804E-1
2.711780113E0,-1.649851203E0,-9.627521515E0,2.219343036E-1
2.716556832E0,-1.663609982E0,-9.617950439E0,2.985046208E-1
2.721333551E0,-1.643869162E0,-9.613164902E0,3.750749528E-1
2.726110270E0,-1.648654819E0,-9.594022751E0,4.325026870E-1
2.730886988E0,-1.657627940E0,-9.598808289E0,5.144568682E-1
2.735663707E0,-1.661815286E0,-9.598808289E0,5.431707501E-1
2.740440426E0,-1.657029629E0,-9.608379364E0,5.718846321E-1
2.745217093E0,-1.652244091E0,-9.622735977E0,6.101697683E-1
2.749993811E0,-1.628315806E0,-9.647262573E0,6.436693072E-1
2.754770530E0,-1.622931957E0,-9.666405678E0,6.532405615E-1
2.759547249E0,-1.608574986E0,-9.675976753E0,6.675975323E-1
2.764323968E0,-1.585245013E0,-9.661619186E0,6.580262184E-1
2.769100686E0,-1.556531072E0,-9.656235695E0,6.430711150E-1
2.773877405E0,-1.551745534E0,-9.661021233E0,6.430711150E-1
2.778654124E0,-1.528415442E0,-9.656235695E0,6.047859192E-1
2.783430843E0,-1.485942841E0,-9.656235695E0,5.659025311E-1
2.788207561E0,-1.485942841E0,-9.641879082E0,5.515456200E-1
2.792984280E0,-1.453041553E0,-9.632308006E0,5.084748268E-1
2.797760999E0,-1.415354609E0,-9.612566948E0,4.504488707E-1
2.802537718E0,-1.406381488E0,-9.588638306E0,4.025924206E-1
2.807314436E0,-1.430309772E0,-9.588638306E0,3.499503136E-1
2.812091155E0,-1.430309772E0,-9.607781410E0,2.877369225E-1
2.816867874E0,-1.416550994E0,-9.602995872E0,2.249253243E-1
2.821644593E0,-1.417149186E0,-9.602995872E0,1.866401732E-1
2.826421311E0,-1.421934843E0,-9.593423843E0,1.435693651E-1
2.831197978E0,-1.412961721E0,-9.607781410E0,8.135596663E-2
2.835974697E0,-1.432104349E0,-9.631709099E0,2.871387079E-2
2.840751416E0,-1.475175142E0,-9.650852203E0,-0.000000000E0
2.845528134E0,-1.499103427E0,-9.646066666E0,-1.435693540E-2
2.850304853E0,-1.512862086E0,-9.661021233E0,-8.973085321E-3
2.855081572E0,-1.503290772E0,-9.661021233E0,-0.000000000E0
2.859858291E0,-1.508076429E0,-9.651450157E0,1.974078640E-2
2.864635009E0,-1.527219057E0,-9.641280174E0,1.974078640E-2
2.869411728E0,-1.536192179E0,-9.646664619E0,6.759724021E-2
2.874188447E0,-1.550549030E0,-9.637093544E0,1.106680483E-1
2.878965166E0,-1.540977836E0,-9.622138023E0,1.298106313E-1
2.883741884E0,-1.526620865E0,-9.622138023E0,1.585244983E-1
2.888518603E0,-1.512263894E0,-9.602995872E0,1.872383654E-1
2.893295322E0,-1.512263894E0,-9.588638306E0,1.776670814E-1
2.898072041E0,-1.478764415E0,-9.559925079E0,2.015953064E-1
2.902848759E0,-1.436291814E0,-9.554540634E0,2.063809484E-1
2.907625478E0,-1.436291814E0,-9.544969559E0,2.015953064E-1
2.912402197E0,-1.412363529E0,-9.530612946E0,2.249253243E-1
2.917178916E0,-1.388435364E0,-9.525827408E0,2.297109663E-1
2.921955634E0,-1.359721422E0,-9.530612946E0,2.440679073E-1
2.926732353E0,-1.350150228E0,-9.540184021E0,2.727817893E-1
2.931509072E0,-1.311864972E0,-9.544969559E0,2.967100143E-1
2.936285738E0,-1.278365493E0,-9.540184021E0,3.302095234E-1
2.941062457E0,-1.292722464E0,-9.554540634E0,3.541377485E-1
2.945839176E0,-1.287936807E0,-9.559326172E0,3.684946895E-1
2.950615895E0,-1.282552958E0,-9.564111710E0,3.924229145E-1
2.955392613E0,-1.258624673E0,-9.573683739E0,4.211367965E-1
2.960169332E0,-1.224527001E0,-9.554540634E0,4.546363056E-1
2.964946051E0,-1.224527001E0,-9.549755096E0,4.833501875E-1
2.969722770E0,-1.219741344E0,-9.515657425E0,4.929214716E-1
2.974499488E0,-1.244267821E0,-9.496515274E0,5.168496966E-1
2.979276207E0,-1.272383451E0,-9.516255379E0,5.599204898E-1
2.984052926E0,-1.234098315E0,-9.515657425E0,5.503492355E-1
2.988829645E0,-1.191027522E0,-9.482157707E0,5.647061467E-1
2.993606363E0,-1.134197950E0,-9.486943245E0,5.593222976E-1
2.998383082E0,-1.119840980E0,-9.477372169E0,5.688936114E-1
3.003159801E0,-1.133599758E0,-9.472586632E0,5.784648657E-1
3.007936520E0,-1.124028444E0,-9.506086349E0,5.784648657E-1
3.012713238E0,-1.114457130E0,-9.515657425E0,5.832505226E-1
3.017489957E0,-1.095314622E0,-9.520442963E0,5.928218365E-1
3.022266676E0,-1.043270707E0,-9.510871887E0,5.730810165E-1
3.027043395E0,-1.005583763E0,-9.510273933E0,5.778666735E-1
3.031820113E0,-9.672985673E-1,-9.524630547E0,5.874379873E-1
3.036596832E0,-9.481559992E-1,-9.515059471E0,5.922235847E-1
3.041373499E0,-9.385846853E-1,-9.558728218E0,6.017948985E-1
3.046150270E0,-9.242277741E-1,-9.573084831E0,5.970092416E-1
3.050926936E0,-9.050851464E-1,-9.597013474E0,5.964110494E-1
3.055703707E0,-8.811569214E-1,-9.592227936E0,6.155536175E-1
3.060480374E0,-8.763712645E-1,-9.587442398E0,6.251249313E-1
3.065257093E0,-8.428717852E-1,-9.625727654E0,6.346961856E-1
3.070033811E0,-7.956135273E-1,-9.616155624E0,6.538388133E-1
3.074810530E0,-7.806583643E-1,-9.659226418E0,6.729813814E-1
3.079587249E0,-7.375875711E-1,-9.687940598E0,7.016952634E-1
3.084363968E0,-7.232306600E-1,-9.717252731E0,6.963114142E-1
3.089140686E0,-7.280163169E-1,-9.774680138E0,7.160521746E-1
3.093917405E0,-7.232306600E-1,-9.813564301E0,7.256234884E-1
3.098694124E0,-6.993024349E-1,-9.823135376E0,7.298108935E-1
3.103470843E0,-6.610172391E-1,-9.832108498E0,7.591229677E-1
3.108247561E0,-6.179464459E-1,-9.841679573E0,7.782655358E-1
3.113024280E0,-5.796613097E-1,-9.856036186E0,7.830511928E-1
3.117800999E0,-5.467599630E-1,-9.865608215E0,7.872386575E-1
3.122577718E0,-5.318048596E-1,-9.899705887E0,7.920243144E-1
3.127354436E0,-5.084748268E-1,-9.928419113E0,7.920243144E-1
3.132131155E0,-4.654040039E-1,-9.942776680E0,7.872386575E-1
3.136907874E0,-4.701896608E-1,-9.961918831E0,7.776673436E-1
3.141684593E0,-4.935196638E-1,-9.996016502E0,7.776673436E-1
3.146461311E0,-4.749752879E-1,-9.966704369E0,7.680960894E-1
3.151238030E0,-5.180460811E-1,-9.937990189E0,7.728816867E-1
3.156014749E0,-5.324030519E-1,-9.928419113E0,7.680960894E-1
3.160791468E0,-6.077769399E-1,-9.933204651E0,7.974081635E-1
3.165568186E0,-6.693921089E-1,-9.943374634E0,8.267202377E-1
3.170344853E0,-7.076773047E-1,-9.933803558E0,8.554341197E-1
3.175121572E0,-6.981059909E-1,-9.909874916E0,8.650053740E-1
3.179898291E0,-7.124629617E-1,-9.909874916E0,8.506484628E-1
3.184675009E0,-7.411768436E-1,-9.890133858E0,8.650053740E-1
3.189451728E0,-7.740781307E-1,-9.861420631E0,8.799605370E-1
3.194228447E0,-8.261220455E-1,-9.827920914E0,9.086744189E-1
3.199005166E0,-8.931210637E-1,-9.808777809E0,9.236295223E-1
3.203781884E0,-9.212366939E-1,-9.803992271E0,9.284151793E-1
3.208558603E0,-9.690931439E-1,-9.794421196E0,9.290133715E-1
3.213335322E0,-1.016949654E0,-9.799804688E0,9.146564603E-1
3.218112041E0,-1.045065284E0,-9.809376717E0,9.337990284E-1
3.222888759E0,-1.045065284E0,-9.809376717E0,9.146564603E-1
3.227665478E0,-1.035493970E0,-9.818947792E0,9.146564603E-1
3.232442197E0,-1.025922656E0,-9.828518867E0,8.955138922E-1
3.237218916E0,-1.031306505E0,-9.818947792E0,8.668000102E-1
3.241995634E0,-1.026520967E0,-9.833304405E0,8.811569214E-1
3.246772353E0,-1.049850941E0,-9.838089943E0,8.955138922E-1
3.251549072E0,-1.025922656E0,-9.828518867E0,9.050851464E-1
3.256325791E0,-9.924231768E-1,-9.818947792E0,9.385846853E-1
3.261102509E0,-1.001994491E0,-9.828518867E0,9.481559992E-1
3.265879228E0,-9.780662656E-1,-9.838089943E0,9.768698215E-1
3.270655947E0,-9.206385016E-1,-9.809376717E0,1.014556766E0
3.275432666E0,-8.781659007E-1,-9.770493507E0,1.033699393E0
3.280209384E0,-8.919246197E-1,-9.794421196E0,1.048056364E0
3.284986103E0,-9.296116233E-1,-9.833304405E0,1.110867858E0
3.289762822E0,-9.816554785E-1,-9.842875481E0,1.120439172E0
3.294539488E0,-1.005583763E0,-9.867402077E0,1.121037364E0
3.299316259E0,-9.816554785E-1,-9.867402077E0,1.110867858E0
3.304092978E0,-9.631111026E-1,-9.857233047E0,1.086939692E0
3.308869645E0,-9.822536707E-1,-9.862616539E0,1.101296663E0
3.313646363E0,-1.039083242E0,-9.896116257E0,1.077966571E0
3.318423082E0,-1.110269666E0,-9.911071777E0,1.082752228E0
3.323199801E0,-1.171884894E0,-9.911071777E0,1.088136077E0
3.327976520E0,-1.244267821E0,-9.915857315E0,1.079162955E0
3.332753238E0,-1.281954765E0,-9.906285286E0,1.088734269E0
3.337529957E0,-1.315454245E0,-9.834501266E0,1.093519926E0
3.342306676E0,-1.329811215E0,-9.790832520E0,1.079162955E0
3.347083395E0,-1.335195065E0,-9.752547264E0,1.074377418E0
3.351860113E0,-1.320838094E0,-9.718449593E0,1.083948612E0
3.356636832E0,-1.339980721E0,-9.689735413E0,1.083948612E0
3.361413551E0,-1.387238979E0,-9.684949875E0,1.103689432E0
3.366190270E0,-1.453639746E0,-9.695118904E0,1.113260746E0
3.370966988E0,-1.448854089E0,-9.699904442E0,1.118046403E0
3.375743707E0,-1.448854089E0,-9.690333366E0,1.122832060E0
3.380520426E0,-1.458425403E0,-9.675976753E0,1.151545882E0
3.385297145E0,-1.467398524E0,-9.685547829E0,1.195214868E0
3.390073863E0,-1.476969719E0,-9.714262009E0,1.228714466E0
3.394850582E0,-1.462612867E0,-9.728618622E0,1.262213945E0
3.399627301E0,-1.452443361E0,-9.723833084E0,1.324427366E0
3.404404020E0,-1.433300734E0,-9.733404160E0,1.367498159E0
3.409180738E0,-1.375872970E0,-9.752547264E0,1.410568953E0
3.413957457E0,-1.356730461E0,-9.747760773E0,1.439282775E0
3.418734176E0,-1.341775298E0,-9.728618622E0,1.491924882E0
3.423510895E0,-1.308874011E0,-9.719047546E0,1.511067510E0
3.428287613E0,-1.313659668E0,-9.699904442E0,1.520638824E0
3.433064332E0,-1.280160069E0,-9.689735413E0,1.520040631E0
3.437841051E0,-1.241874933E0,-9.699306488E0,1.524826288E0
3.442617770E0,-1.227517962E0,-9.704092026E0,1.510469317E0
3.447394488E0,-1.217946768E0,-9.723235130E0,1.520040631E0
3.452171207E0,-1.217946768E0,-9.723235130E0,1.500898004E0
3.456947874E0,-1.203589797E0,-9.732806206E0,1.476969719E0
3.461724645E0,-1.151545882E0,-9.732806206E0,1.438086390E0
3.466501311E0,-1.137787223E0,-9.737591743E0,1.404586911E0
3.471278030E0,-1.113858938E0,-9.732806206E0,1.375274777E0
3.476054749E0,-1.109671474E0,-9.723235130E0,1.341775298E0
3.480831468E0,-1.119242787E0,-9.728020668E0,1.327418327E0
3.485608186E0,-1.104885817E0,-9.723235130E0,1.327418327E0
3.490384905E0,-1.076171994E0,-9.723235130E0,1.313061476E0
3.495161624E0,-1.061815023E0,-9.723235130E0,1.308275819E0
3.499938343E0,-1.052842021E0,-9.703494072E0,1.298106313E0
3.504715061E0,-1.066600680E0,-9.723235130E0,1.313061476E0
3.509491780E0,-1.071386337E0,-9.713663101E0,1.303490162E0
3.514268499E0,-1.076171994E0,-9.718449593E0,1.293918848E0
3.519045218E0,-1.066600680E0,-9.708279610E0,1.303490162E0
3.523821936E0,-1.028913736E0,-9.698708534E0,1.283749342E0
3.528598655E0,-1.033699393E0,-9.693922997E0,1.293320656E0
3.533375374E0,-1.033699393E0,-9.689137459E0,1.298106313E0
3.538152093E0,-1.004985452E0,-9.655637741E0,1.312463164E0
3.542928811E0,-9.960124493E-1,-9.655637741E0,1.298106313E0
3.547705530E0,-1.009771109E0,-9.626325607E0,1.307677627E0
3.552482249E0,-1.038485050E0,-9.641280174E0,1.322034478E0
3.557258968E0,-1.048056364E0,-9.636494637E0,1.332203984E0
3.562035686E0,-1.057029366E0,-9.636494637E0,1.351346612E0
3.566812405E0,-1.071984529E0,-9.617352486E0,1.336989641E0
3.571589124E0,-1.028913736E0,-9.602396965E0,1.326820135E0
3.576365843E0,-1.019940615E0,-9.592825890E0,1.307677627E0
3.581142561E0,-9.960124493E-1,-9.568898201E0,1.278963685E0
3.585919280E0,-1.000798106E0,-9.559326172E0,1.264606714E0
3.590695999E0,-1.025324464E0,-9.530014038E0,1.240678549E0
3.595472718E0,-1.043868899E0,-9.525228500E0,1.226321578E0
3.600249436E0,-1.025324464E0,-9.520442963E0,1.211964726E0
3.605026155E0,-9.918249846E-1,-9.534799576E0,1.206580877E0
3.609802874E0,-9.918249846E-1,-9.525228500E0,1.197009563E0
3.614579593E0,-9.349954724E-1,-9.501300812E0,1.163509965E0
3.619356311E0,-8.877372146E-1,-9.510871887E0,1.129412293E0
3.624133030E0,-8.123632669E-1,-9.500701904E0,1.085743308E0
3.628909749E0,-7.788637877E-1,-9.529416084E0,1.080957651E0
3.633686416E0,-8.261220455E-1,-9.539586067E0,1.091127157E0
3.638463186E0,-8.548358679E-1,-9.544371605E0,1.110269666E0
3.643239905E0,-7.974081635E-1,-9.505488396E0,1.182054400E0
3.648016624E0,-6.873382926E-1,-9.510273933E0,1.258026481E0
3.652793291E0,-5.778666735E-1,-9.538987160E0,1.305284739E0
3.657570009E0,-5.437689424E-1,-9.572486877E0,1.367498159E0
3.662346728E0,-5.575276613E-1,-9.582057953E0,1.463809252E0
3.667123447E0,-5.665007830E-1,-9.586843491E0,1.530808330E0
3.671900166E0,-5.617151260E-1,-9.558130264E0,1.583450437E0
3.676676884E0,-5.665007830E-1,-9.505488396E0,1.612164259E0
3.681453603E0,-5.569294691E-1,-9.490532875E0,1.645663738E0
3.686230322E0,-5.330012441E-1,-9.524630547E0,1.660020709E0
3.691007041E0,-4.803591371E-1,-9.514460564E0,1.717448473E0
3.695783759E0,-4.468596280E-1,-9.524032593E0,1.746162295E0
3.700560478E0,-3.655036688E-1,-9.509675026E0,1.759921074E0
3.705337197E0,-3.367897868E-1,-9.514460564E0,1.779063582E0
3.710113916E0,-2.889333367E-1,-9.562317848E0,1.807777524E0
3.714890634E0,-2.793620527E-1,-9.615557671E0,1.841277003E0
3.719667353E0,-2.650051117E-1,-9.663414001E0,1.850848317E0
3.724444072E0,-2.315055877E-1,-9.649057388E0,1.855035782E0
3.729220791E0,-2.171486616E-1,-9.639486313E0,1.869392633E0
3.733997509E0,-2.171486616E-1,-9.687342644E0,1.874776483E0
3.738774228E0,-1.926222295E-1,-9.735796928E0,1.941775560E0
3.743550947E0,-1.495514214E-1,-9.769296646E0,1.970489502E0
3.748327666E0,-9.212367237E-2,-9.817152977E0,1.970489502E0
3.753104384E0,-4.905286431E-2,-9.855438232E0,1.936391711E0
3.757881103E0,2.691925503E-2,-9.899106979E0,1.893320918E0
3.762657822E0,8.853443712E-2,-9.884152412E0,1.839482427E0
3.767434541E0,6.400800496E-2,-9.893723488E0,1.767697692E0
3.772211259E0,5.443671346E-2,-9.970891953E0,1.700698733E0
3.776987978E0,6.340979785E-2,-1.002353382E1,1.599601984E0
3.781764697E0,1.004985496E-1,-1.007198906E1,1.445863128E0
3.786541416E0,1.525424421E-1,-1.011984539E1,1.297508121E0
3.791318134E0,1.561316848E-1,-1.014855862E1,1.105484009E0
3.796094853E0,1.118644550E-1,-1.014377308E1,9.284151793E-1
3.800871572E0,6.340979785E-2,-1.017248726E1,7.651050687E-1
3.805648291E0,6.759724021E-2,-1.012463093E1,6.209374666E-1
3.810425009E0,-1.375873014E-2,-1.011984539E1,5.443671346E-1
3.815201728E0,-9.930214286E-2,-1.022094154E1,5.210371017E-1
3.819978447E0,-1.663011760E-1,-1.028853893E1,5.216353536E-1
3.824755166E0,-1.710868180E-1,-1.030289650E1,5.359922647E-1
3.829531884E0,-1.992024779E-1,-1.026939678E1,5.886343718E-1
3.834308603E0,-2.608176768E-1,-1.020239735E1,6.658028960E-1
3.839085322E0,-3.080759048E-1,-1.013001442E1,7.573283911E-1
3.843862041E0,-3.744767308E-1,-1.005823040E1,8.536394835E-1
3.848638759E0,-3.930211067E-1,-9.985847473E0,9.403793216E-1
3.853415478E0,-4.067798555E-1,-9.918848038E0,1.021735311E0
3.858192197E0,-4.163511395E-1,-9.865608215E0,1.079162955E0
3.862968916E0,-4.019941986E-1,-9.846465111E0,1.112662554E0
3.867745634E0,-3.732803464E-1,-9.822537422E0,1.136590719E0
3.872522353E0,-3.684946895E-1,-9.798010826E0,1.122233868E0
3.877299072E0,-3.589234054E-1,-9.851250648E0,1.117448211E0
3.882075791E0,-3.349951804E-1,-9.870393753E0,1.131805062E0
3.886852509E0,-3.014956415E-1,-9.856036186E0,1.146162033E0
3.891629228E0,-2.398804724E-1,-9.856036186E0,1.164706469E0
3.896405895E0,-2.111666054E-1,-9.850652695E0,1.217348576E0
3.901182666E0,-2.153540403E-1,-9.826724052E0,1.284347534E0
3.905959384E0,-2.195414752E-1,-9.807581902E0,1.385444283E0
3.910736051E0,-2.285145670E-1,-9.778867722E0,1.462014675E0
3.915512770E0,-2.333002090E-1,-9.754940033E0,1.552941918E0
3.920289541E0,-2.709871531E-1,-9.754940033E0,1.620539188E0
3.925066207E0,-2.991028428E-1,-9.731011391E0,1.677966833E0
3.929842926E0,-3.224328458E-1,-9.735796928E0,1.721635938E0
3.934619697E0,-3.457628787E-1,-9.750154495E0,1.745564103E0
3.939396363E0,-3.553341627E-1,-9.769894600E0,1.764706731E0
3.944173082E0,-4.169493318E-1,-9.784252167E0,1.789233088E0
3.948949801E0,-4.642075896E-1,-9.818349838E0,1.847259045E0
3.953726520E0,-5.162515044E-1,-9.866206169E0,1.886142492E0
3.958503238E0,-5.443671346E-1,-9.909874916E0,1.920240164E0
3.963279957E0,-6.059823632E-1,-9.909874916E0,1.939382792E0
3.968056676E0,-6.388836503E-1,-9.895518303E0,1.959123492E0
3.972833395E0,-6.771687865E-1,-9.871589661E0,1.963909149E0
3.977610113E0,-6.819544435E-1,-9.857233047E0,1.930409670E0
3.982386832E0,-6.155536175E-1,-9.832706451E0,1.915454507E0
3.987163551E0,-5.922235847E-1,-9.794421196E0,1.871785522E0
3.991940270E0,-5.688936114E-1,-9.770493507E0,1.799402595E0
3.996716988E0,-5.216353536E-1,-9.779465675E0,1.751546144E0
4.001493707E0,-4.887340367E-1,-9.789037704E0,1.669592023E0
4.006270426E0,-4.133601189E-1,-9.803394318E0,1.563709617E0
4.011047145E0,-3.523431420E-1,-9.812965393E0,1.453041553E0
4.015823863E0,-3.242274821E-1,-9.808179855E0,1.347159147E0
4.020600582E0,-3.254238665E-1,-9.812965393E0,1.237089276E0
4.025377301E0,-3.397808075E-1,-9.788438797E0,1.170090318E0
4.030154020E0,-3.260220885E-1,-9.764511108E0,1.107876897E0
4.034930738E0,-3.308077157E-1,-9.745368004E0,1.103091240E0
4.039707457E0,-3.260220885E-1,-9.706484795E0,1.150947690E0
4.044484176E0,-3.349951804E-1,-9.692128181E0,1.213161111E0
4.049260895E0,-3.302095234E-1,-9.677771568E0,1.299302697E0
4.054037613E0,-3.290131092E-1,-9.682557106E0,1.443470240E0
4.058814332E0,-3.236292601E-1,-9.687342644E0,1.587039590E0
4.063591051E0,-2.985046208E-1,-9.682557106E0,1.731207132E0
4.068367770E0,-2.691925466E-1,-9.692128181E0,1.869990945E0
4.073144488E0,-2.685943544E-1,-9.692726135E0,1.966302037E0
4.077921207E0,-2.973082066E-1,-9.678369522E0,2.024327993E0
4.082697926E0,-3.158525825E-1,-9.649057388E0,2.033899307E0
4.087474645E0,-2.877369225E-1,-9.629914284E0,2.062613010E0
4.092251363E0,-2.590230405E-1,-9.610772133E0,2.042872429E0
4.097028082E0,-2.638086975E-1,-9.601201057E0,2.042872429E0
4.101804801E0,-2.781656384E-1,-9.610772133E0,2.042872429E0
4.106581520E0,-2.452643216E-1,-9.567103386E0,1.999801517E0
4.111358238E0,-2.213360965E-1,-9.586245537E0,1.971087694E0
4.116134957E0,-2.219343036E-1,-9.595816612E0,1.908276081E0
4.120911676E0,-2.267199457E-1,-9.600603104E0,1.879562140E0
4.125688395E0,-2.506481707E-1,-9.620343208E0,1.850848317E0
4.130465113E0,-2.458625287E-1,-9.629914284E0,1.821536183E0
4.135241832E0,-2.697907388E-1,-9.649057388E0,1.822134495E0
4.140018551E0,-2.697907388E-1,-9.702297211E0,1.807777524E0
4.144795270E0,-2.219343036E-1,-9.716055870E0,1.792822361E0
4.149571988E0,-2.889333367E-1,-9.740582466E0,1.793420553E0
4.154348707E0,-3.553341627E-1,-9.754940033E0,1.779063582E0
4.159125426E0,-2.985046208E-1,-9.750154495E0,1.755135417E0
4.163902145E0,-2.177468538E-1,-9.731011391E0,1.697109461E0
4.168678863E0,-1.663011760E-1,-9.730413437E0,1.619940877E0
4.173455582E0,-1.668993831E-1,-9.730413437E0,1.538584948E0
4.178232301E0,-2.147558331E-1,-9.720842361E0,1.457229018E0
4.183009020E0,-2.386840582E-1,-9.745368004E0,1.380658627E0
4.187785738E0,-2.817548811E-1,-9.769296646E0,1.375872970E0
4.192562457E0,-3.002992272E-1,-9.778867722E0,1.399801254E0
4.197339176E0,-3.146561682E-1,-9.778867722E0,1.448255897E0
4.202115895E0,-3.421736360E-1,-9.783653259E0,1.553540111E0
4.206892613E0,-3.840480447E-1,-9.765109062E0,1.697707653E0
4.211669332E0,-4.313062727E-1,-9.750752449E0,1.813161373E0
4.216446051E0,-4.115654826E-1,-9.726225853E0,1.904686809E0
4.221222770E0,-3.876372576E-1,-9.707083702E0,1.957328916E0
4.225999488E0,-3.876372576E-1,-9.692726135E0,1.995614052E0
4.230776207E0,-4.492524564E-1,-9.687940598E0,2.039283037E0
4.235552926E0,-4.725824594E-1,-9.664012909E0,2.082353830E0
4.240329645E0,-4.965106845E-1,-9.630513191E0,2.116451740E0
4.245106363E0,-5.347958803E-1,-9.582656860E0,2.097309113E0
4.249883082E0,-5.682953596E-1,-9.558728218E0,2.044667006E0
4.254659801E0,-5.449653864E-1,-9.505488396E0,1.967498422E0
4.259436520E0,-5.078766346E-1,-9.471389771E0,1.881356835E0
4.264213238E0,-4.845465720E-1,-9.457033157E0,1.789233088E0
4.268989957E0,-4.235295951E-1,-9.447462082E0,1.683350682E0
4.273766676E0,-4.336991012E-1,-9.485747337E0,1.563709617E0
4.278543395E0,-4.815555513E-1,-9.519247055E0,1.467996716E0
4.283320113E0,-4.295116663E-1,-9.538389206E0,1.376471281E0
4.288096832E0,-3.876372576E-1,-9.562317848E0,1.295115232E0
4.292873551E0,-3.924229145E-1,-9.601201057E0,1.266401410E0
4.297650270E0,-4.540380836E-1,-9.658628464E0,1.271187067E0
4.302426988E0,-4.959124923E-1,-9.726225853E0,1.324427366E0
4.307203707E0,-5.000999570E-1,-9.774680138E0,1.439282775E0
4.311980426E0,-4.564309120E-1,-9.803394318E0,1.549352646E0
4.316757145E0,-3.798605800E-1,-9.779465675E0,1.659422517E0
4.321533863E0,-3.128615618E-1,-9.769296646E0,1.726421595E0
4.326310582E0,-2.225325108E-1,-9.735796928E0,1.754537225E0
4.331087301E0,-1.465603858E-1,-9.716055870E0,1.753939033E0
4.335864020E0,-5.084748194E-2,-9.677172661E0,1.743769526E0
4.340640738E0,4.905286431E-2,-9.638887405E0,1.753340840E0
4.345417457E0,1.298106313E-1,-9.580862045E0,1.771885157E0
4.350194176E0,2.291127741E-1,-9.546764374E0,1.761715651E0
4.354970895E0,3.200400174E-1,-9.512666702E0,1.794616938E0
4.359747613E0,3.960121572E-1,-9.517452240E0,1.837687731E0
4.364524332E0,5.108676553E-1,-9.522237778E0,1.895115495E0
4.369301051E0,6.107679605E-1,-9.535996437E0,1.932802439E0
4.374077770E0,6.777670383E-1,-9.570094109E0,1.971087694E0
4.378854488E0,7.016952634E-1,-9.617950439E0,1.995015860E0
4.383631207E0,6.783652306E-1,-9.641879082E0,2.004587173E0
4.388407926E0,6.448656917E-1,-9.641879082E0,1.971087694E0
4.393184645E0,6.155536175E-1,-9.627521515E0,1.899302959E0
4.397961363E0,6.011967063E-1,-9.627521515E0,1.841277003E0
4.402738082E0,5.485545993E-1,-9.579665184E0,1.793420553E0
4.407514801E0,4.480560422E-1,-9.546165466E0,1.746162295E0
4.412291520E0,3.858426511E-1,-9.608977318E0,1.650449395E0
4.417068238E0,3.194418252E-1,-9.681360245E0,1.612762451E0
4.421844957E0,2.051845491E-1,-9.710672379E0,1.599003673E0
4.426621676E0,8.614161611E-2,-9.696315765E0,1.575673699E0
4.431398395E0,4.785645287E-3,-9.701101303E0,1.523031592E0
4.436175113E0,-3.349951655E-2,-9.711270332E0,1.484746456E0
4.440951832E0,-1.339980662E-1,-9.711270332E0,1.427916884E0
4.445728551E0,-2.673979402E-1,-9.696913719E0,1.399801254E0
4.450505270E0,-3.720839322E-1,-9.687342644E0,1.366899967E0
4.455281988E0,-4.624129832E-1,-9.697511673E0,1.377069473E0
4.460058707E0,-5.150550604E-1,-9.707083702E0,1.357926846E0
4.464835426E0,-5.910272002E-1,-9.712467194E0,1.372882009E0
4.469612145E0,-6.813562512E-1,-9.726823807E0,1.387837172E0
4.474388863E0,-7.477570772E-1,-9.722038269E0,1.392622828E0
4.479165582E0,-7.573283911E-1,-9.717252731E0,1.402194023E0
4.483942301E0,-7.854440212E-1,-9.712467194E0,1.431506157E0
4.488719020E0,-8.093722463E-1,-9.698110580E0,1.441077471E0
4.493495738E0,-8.231309652E-1,-9.645467758E0,1.541576028E0
4.498272457E0,-8.793623447E-1,-9.592825890E0,1.728814363E0
4.503049176E0,-9.068797827E-1,-9.568898201E0,1.863410592E0
4.507825895E0,-8.596215248E-1,-9.564111710E0,1.844268084E0
4.512602613E0,-9.170492887E-1,-9.554540634E0,1.748555183E0
4.517379332E0,-9.415757060E-1,-9.539586067E0,1.648056626E0
4.522156051E0,-9.661021233E-1,-9.539586067E0,1.546959877E0
4.526932770E0,-1.009172916E0,-9.568898201E0,1.451845169E0
4.531709488E0,-1.095314622E0,-9.617352486E0,1.380060434E0
4.536486207E0,-1.095314622E0,-9.669994354E0,1.336989641E0
4.541262926E0,-1.100100160E0,-9.718449593E0,1.308275819E0
4.546039645E0,-1.071386337E0,-9.756733894E0,1.284347534E0
4.550816363E0,-9.954141974E-1,-9.766305923E0,1.288534999E0
4.555593082E0,-9.050851464E-1,-9.746564865E0,1.278365493E0
4.560369801E0,-8.530412912E-1,-9.732208252E0,1.268794179E0
4.565146520E0,-8.105686903E-1,-9.727422714E0,1.249053478E0
4.569923238E0,-7.674978375E-1,-9.746564865E0,1.253839016E0
4.574699957E0,-7.196413875E-1,-9.770493507E0,1.282552958E0
4.579476676E0,-6.622136831E-1,-9.832706451E0,1.296311617E0
4.584253395E0,-6.239284873E-1,-9.895518303E0,1.344168067E0
4.589030113E0,-5.802595019E-1,-9.967302322E0,1.382453322E0
4.593806832E0,-5.276173949E-1,-1.000558758E1,1.425524116E0
4.598583551E0,-4.660021961E-1,-1.002951622E1,1.453639746E0
4.603360270E0,-3.990031779E-1,-1.001994514E1,1.463211060E0
4.608136988E0,-3.750749528E-1,-1.000558758E1,1.482353687E0
4.612913707E0,-3.278166950E-1,-1.000558758E1,1.510469317E0
4.617690426E0,-3.038884699E-1,-9.995418549E0,1.539183140E0
4.622467145E0,-2.751746178E-1,-9.981060982E0,1.553540111E0
4.627243863E0,-2.560320199E-1,-9.966704369E0,1.591825247E0
4.632020582E0,-2.602194548E-1,-9.985847473E0,1.639681697E0
4.636797301E0,-2.697907388E-1,-9.976275444E0,1.673181176E0
4.641574020E0,-2.697907388E-1,-9.961918831E0,1.692323804E0
4.646350738E0,-2.548356056E-1,-9.942776680E0,1.740778446E0
4.651127457E0,-2.644068897E-1,-9.884750366E0,1.798206210E0
4.655904176E0,-2.021935135E-1,-9.822537422E0,1.855035782E0
4.660680895E0,-1.501496136E-1,-9.769296646E0,1.932204247E0
4.665457613E0,-1.304088384E-1,-9.711270332E0,2.003988981E0
4.670234332E0,-9.690931439E-2,-9.663414001E0,2.047059774E0
4.675011051E0,-5.982056726E-3,-9.614959717E0,2.075175524E0
4.679787770E0,6.041877344E-2,-9.571290970E0,2.137388945E0
4.684564488E0,7.477571070E-2,-9.518648148E0,2.185245275E0
4.689341207E0,8.973085135E-2,-9.484550476E0,2.257030010E0
4.694117926E0,1.136590764E-1,-9.436694145E0,2.314457655E0
4.698894645E0,1.328016520E-1,-9.402596474E0,2.347957134E0
4.703671363E0,1.848455518E-1,-9.369096756E0,2.395813704E0
4.708448082E0,2.470589429E-1,-9.349356651E0,2.443071842E0
4.713224801E0,2.614158690E-1,-9.325428009E0,2.500499725E0
4.718001520E0,2.189432681E-1,-9.315856934E0,2.548954248E0
4.722778238E0,1.148554832E-1,-9.330811501E0,2.559123755E0
4.727554957E0,4.307080805E-2,-9.335597992E0,2.539981127E0
4.732331676E0,-3.768695518E-2,-9.369695663E0,2.492722988E0
4.737108395E0,-1.668993831E-1,-9.403793335E0,2.431107759E0
4.741885113E0,-2.721835673E-1,-9.432506561E0,2.368894339E0
4.746661832E0,-3.720839322E-1,-9.461818695E0,2.302493572E0
4.751438551E0,-4.677968323E-1,-9.491130829E0,2.226521492E0
4.756215270E0,-5.676971674E-1,-9.505488396E0,2.154736757E0
4.760991988E0,-6.394818425E-1,-9.519845009E0,2.093121529E0
4.765768707E0,-6.969096065E-1,-9.534799576E0,2.035693884E0
4.770545426E0,-7.686942816E-1,-9.549157143E0,1.973480463E0
4.775322145E0,-8.494520187E-1,-9.578469276E0,1.911865234E0
4.780098863E0,-9.355936646E-1,-9.578469276E0,1.853839397E0
4.784875582E0,-1.021735311E0,-9.593423843E0,1.797009826E0
4.789652301E0,-1.121635556E0,-9.607781410E0,1.740180254E0
4.794429020E0,-1.202991605E0,-9.607781410E0,1.687538147E0
4.799205738E0,-1.280160069E0,-9.583852768E0,1.630708575E0
4.803982457E0,-1.337587833E0,-9.579067230E0,1.573280931E0
4.808759176E0,-1.390229940E0,-9.579665184E0,1.515853167E0
4.813535895E0,-1.447059512E0,-9.603593826E0,1.453639746E0
4.818312613E0,-1.470987678E0,-9.622735977E0,1.410568953E0
4.823089332E0,-1.505085468E0,-9.652048111E0,1.348953724E0
4.827866051E0,-1.514656782E0,-9.695118904E0,1.295713425E0
4.832642770E0,-1.491326690E0,-9.723833084E0,1.233500123E0
4.837419488E0,-1.448255897E0,-9.757332802E0,1.180858016E0
4.842196207E0,-1.348953724E0,-9.766903877E0,1.107876897E0
4.846972926E0,-1.249651670E0,-9.771689415E0,1.064207911E0
4.851749645E0,-1.139581800E0,-9.771091461E0,1.030110121E0
4.856526363E0,-1.044467092E0,-9.799804688E0,9.912267923E-1
4.861303082E0,-9.595218897E-1,-9.809376717E0,9.625129104E-1
4.866079801E0,-8.356932998E-1,-9.827920914E0,8.991031051E-1
4.870856520E0,-6.837490797E-1,-9.847063065E0,8.458628058E-1
4.875633238E0,-5.132604837E-1,-9.875777245E0,7.483552694E-1
4.880409957E0,-3.565305769E-1,-9.918250084E0,6.753742099E-1
4.885186676E0,-2.333002090E-1,-9.970891953E0,5.886343718E-1
4.889963447E0,-8.075776696E-2,-1.001874828E1,5.210371017E-1
4.894740166E0,8.554340899E-2,-1.005224800E1,4.719842672E-1
4.899516884E0,1.944168359E-1,-1.007079220E1,4.139583111E-1
4.904293603E0,2.703889608E-1,-1.006122112E1,4.468596280E-1
4.909070322E0,3.517449200E-1,-1.004207802E1,5.377869010E-1
4.913846988E0,4.432703853E-1,-1.002233791E1,6.669993401E-1
4.918623759E0,4.959124923E-1,-9.993623734E0,8.159525394E-1
4.923400478E0,5.018945336E-1,-9.984052658E0,9.595218897E-1
4.928177197E0,5.306084156E-1,-9.940383911E0,1.083948612E0
4.932953916E0,5.551348329E-1,-9.878170013E0,1.160519004E0
4.937730634E0,5.790630579E-1,-9.810572624E0,1.217946768E0
4.942507353E0,5.599204898E-1,-9.772287369E0,1.237089276E0
4.947284072E0,5.359922647E-1,-9.719047546E0,1.232901812E0
4.952060791E0,5.072783828E-1,-9.685547829E0,1.213759303E0
4.956837509E0,4.731806815E-1,-9.637093544E0,1.170688510E0
4.961614228E0,4.444667995E-1,-9.598808289E0,1.161117196E0
4.966390947E0,3.732803464E-1,-9.555737495E0,1.137188911E0
4.971167666E0,2.973082066E-1,-9.541379929E0,1.166501045E0
4.975944384E0,2.165504545E-1,-9.556335449E0,1.210170031E0
4.980721103E0,1.357926875E-1,-9.561120987E0,1.244267821E0
4.985497822E0,5.563312769E-2,-9.590433121E0,1.311864972E0
4.990274541E0,-1.974078640E-2,-9.614361763E0,1.384247899E0
4.995051259E0,-1.196411327E-1,-9.682557106E0,1.475773335E0
4.999827978E0,-2.285145670E-1,-9.731011391E0,1.562513232E0
5.004604697E0,-2.943171859E-1,-9.764511108E0,1.620539188E0
5.009381416E0,-3.750749528E-1,-9.769894600E0,1.668993831E0
5.014158134E0,-4.654040039E-1,-9.769894600E0,1.693520188E0
5.018934853E0,-5.078766346E-1,-9.750752449E0,1.736590981E0
5.023711572E0,-5.790630579E-1,-9.722038269E0,1.718046665E0
5.028488291E0,-6.693921089E-1,-9.731609344E0,1.704287887E0
5.033265009E0,-7.268198729E-1,-9.775279045E0,1.670788407E0
5.038041728E0,-7.507480979E-1,-9.765707016E0,1.618146300E0
5.042818447E0,-7.609176040E-1,-9.741779327E0,1.536790371E0
5.047595166E0,-7.854440212E-1,-9.678967476E0,1.445863128E0
5.052371884E0,-7.956135273E-1,-9.631111145E0,1.349551916E0
5.057148603E0,-8.105686903E-1,-9.587442398E0,1.292124271E0
5.061925322E0,-8.392825127E-1,-9.607182503E0,1.263410330E0
5.066702041E0,-8.632107973E-1,-9.678967476E0,1.220937729E0
5.071478759E0,-8.249256015E-1,-9.722636223E0,1.229910851E0
5.076255478E0,-7.728816867E-1,-9.736993790E0,1.186840057E0
5.081032197E0,-7.304090858E-1,-9.683753014E0,1.157527924E0
5.085808916E0,-7.357929349E-1,-9.597013474E0,1.090528965E0
5.090585634E0,-7.597211599E-1,-9.582656860E0,1.090528965E0
5.095362353E0,-7.310073376E-1,-9.592227936E0,1.080957651E0
5.100139072E0,-6.933203340E-1,-9.582656860E0,1.037288666E0
5.104915791E0,-5.940182209E-1,-9.567701340E0,9.744769931E-1
5.109692509E0,-4.797609448E-1,-9.577272415E0,9.499505758E-1
5.114469228E0,-4.319044948E-1,-9.596415520E0,9.738788009E-1
5.119245947E0,-3.936193287E-1,-9.629914284E0,1.045663476E0
5.124022666E0,-3.930211067E-1,-9.663414001E0,1.103091240E0
5.128799384E0,-3.780659735E-1,-9.707083702E0,1.179661512E0
5.133576103E0,-3.439682424E-1,-9.740582466E0,1.261017561E0
5.138352822E0,-3.200400174E-1,-9.759725571E0,1.318445325E0
5.143129541E0,-3.056831062E-1,-9.788438797E0,1.328016520E0
5.147906259E0,-3.008974493E-1,-9.788438797E0,1.332802176E0
5.152682978E0,-3.248256743E-1,-9.754940033E0,1.299302697E0
5.157459697E0,-3.445664644E-1,-9.726225853E0,1.246660590E0
5.162236416E0,-3.684946895E-1,-9.707083702E0,1.203589797E0
5.167013186E0,-3.780659735E-1,-9.682557106E0,1.155733347E0
5.171789853E0,-3.834498227E-1,-9.649057388E0,1.131805062E0
5.176566572E0,-3.978067636E-1,-9.615557671E0,1.117448211E0
5.181343291E0,-3.978067636E-1,-9.615557671E0,1.150947690E0
5.186120061E0,-3.786641955E-1,-9.610772133E0,1.146162033E0
5.190896780E0,-3.547359705E-1,-9.615557671E0,1.150947690E0
5.195673499E0,-3.164508045E-1,-9.634700775E0,1.174875975E0
5.200450218E0,-3.643072546E-1,-9.653842926E0,1.155733347E0
5.205226936E0,-3.780659735E-1,-9.653842926E0,1.179661512E0
5.210003655E0,-4.067798555E-1,-9.658628464E0,1.141376376E0
5.214780374E0,-4.354937077E-1,-9.639486313E0,1.117448211E0
5.219557093E0,-4.504488707E-1,-9.620343208E0,1.079162955E0
5.224333811E0,-5.264210105E-1,-9.615557671E0,1.041476011E0
5.229110530E0,-5.886343718E-1,-9.620942116E0,9.744769931E-1
5.233887249E0,-6.029912829E-1,-9.625727654E0,9.457631707E-1
5.238663968E0,-6.939185858E-1,-9.640084267E0,8.841479421E-1
5.243440686E0,-7.322037220E-1,-9.693324089E0,7.932206988E-1
5.248217405E0,-7.232306600E-1,-9.722038269E0,7.645068169E-1
5.252994124E0,-7.800601721E-1,-9.755537987E0,7.447660565E-1
5.257770843E0,-8.757730722E-1,-9.799206734E0,6.544370055E-1
5.262547561E0,-8.231309652E-1,-9.847063065E0,6.011967063E-1
5.267324280E0,-8.524430394E-1,-9.871589661E0,5.054838061E-1
5.272100999E0,-9.385846853E-1,-9.939187050E0,3.714857101E-1
5.276877718E0,-1.039083242E0,-1.001156998E1,2.380858511E-1
5.281654436E0,-1.039681435E0,-1.008814049E1,6.999006122E-2
5.286431155E0,-1.049850941E0,-1.017488003E1,-1.070788130E-1
5.291207874E0,-1.026520967E0,-1.028554821E1,-2.273181528E-1
5.295984593E0,-9.074779749E-1,-1.036750221E1,-2.279163599E-1
5.300761311E0,-8.452646136E-1,-1.044945621E1,-1.896311939E-1
5.305538030E0,-7.776673436E-1,-1.052183914E1,-7.477571070E-2
5.310314749E0,-7.106683254E-1,-1.055533886E1,4.007977992E-2
5.315091468E0,-6.813562512E-1,-1.055055332E1,1.453639716E-1
5.319868186E0,-6.191428304E-1,-1.052124119E1,2.219343036E-1
5.324644905E0,-6.047859192E-1,-1.045902824E1,2.554338276E-1
5.329421624E0,-5.808576941E-1,-1.039143085E1,3.122633696E-1
5.334198343E0,-5.760720372E-1,-1.031844902E1,3.846462369E-1
5.338975061E0,-5.850451589E-1,-1.024606609E1,4.755735099E-1
5.343751780E0,-5.605186820E-1,-1.017428207E1,6.382854581E-1
5.348528499E0,-6.113662124E-1,-1.010189915E1,8.841479421E-1
5.353305218E0,-6.293123364E-1,-1.002054310E1,1.171884894E0
5.358081936E0,-6.562315822E-1,-9.914660454E0,1.426122308E0
5.362858655E0,-6.843472719E-1,-9.813564301E0,1.613360643E0
5.367635374E0,-7.788637877E-1,-9.751350403E0,1.719243050E0
5.372412093E0,-8.650053740E-1,-9.684351921E0,1.657029629E0
5.377188811E0,-9.427721500E-1,-9.645467758E0,1.456032634E0
5.381965530E0,-9.248259664E-1,-9.631111145E0,1.220937729E0
5.386742301E0,-8.739784956E-1,-9.645467758E0,9.714859724E-1
5.391519020E0,-9.702895880E-1,-9.765707016E0,7.363911867E-1
5.396295738E0,-9.134600163E-1,-9.862018585E0,6.161518097E-1
5.401072457E0,-9.900303483E-1,-1.002114105E1,5.060819983E-1
5.405849176E0,-7.800601721E-1,-1.014078236E1,5.198407173E-1
5.410625895E0,-6.849454641E-1,-1.018385315E1,5.335994363E-1
5.415402613E0,-6.987041831E-1,-1.023709393E1,5.335994363E-1
5.420179332E0,-4.821537733E-1,-1.038185883E1,8.739784956E-1
5.424956051E0,-1.190429255E-1,-1.053978539E1,1.088136077E0
5.429732770E0,1.710868180E-1,-1.069292641E1,9.714859724E-1
5.434509488E0,2.841476798E-1,-1.081316566E1,7.112665176E-1
5.439286207E0,2.542374134E-1,-1.087059307E1,4.043870270E-1
5.444062926E0,2.901297510E-1,-1.092383385E1,9.750752151E-2
5.448839645E0,4.360919297E-1,-1.097587776E1,-2.249253243E-1
5.453616363E0,5.617151260E-1,-1.103330517E1,-6.430711150E-1
5.458393082E0,6.789634228E-1,-1.108116150E1,-1.022931695E0
5.463156468E0,7.962117195E-1,-1.112901783E1,-1.311266780E0
5.467946520E0,9.517452121E-1,-1.121994495E1,-1.581057549E0
5.472723238E0,1.036690354E0,-1.128215885E1,-1.801795483E0
5.477486624E0,9.637092948E-1,-1.132582760E1,-1.959721804E0
5.482276676E0,8.817551732E-1,-1.141735363E1,-2.179861546E0
5.487053395E0,6.945167780E-1,-1.156271744E1,-2.586641312E0
5.491816832E0,5.060819983E-1,-1.176491070E1,-3.186043262E0
5.496606832E0,4.773681164E-1,-1.198624706E1,-4.135993958E0
5.501383551E0,3.942175210E-1,-1.235653591E1,-5.483751297E0
5.506146988E0,1.920240223E-1,-1.277109241E1,-6.912266254E0
5.510936988E0,-1.854437590E-2,-1.326221943E1,-8.134400368E0
5.515713707E0,-2.793620527E-1,-1.381675625E1,-9.078369141E0
5.520477145E0,-6.741777658E-1,-1.453460312E1,-1.020359421E1
5.525267145E0,-1.114457130E0,-1.524826241E1,-1.106919765E1
5.530043863E0,-1.711466432E0,-1.586620903E1,-1.096989536E1
5.534807301E0,-2.511865616E0,-1.638963890E1,-9.851848602E0
5.539597301E0,-3.302095175E0,-1.674856186E1,-7.822137356E0
5.544374020E0,-3.669393539E0,-1.680359650E1,-5.603392601E0
5.549137457E0,-4.134199142E0,-1.656491280E1,-3.710071564E0
5.553927457E0,-4.717449665E0,-1.617667770E1,-2.286940336E0
5.558704228E0,-4.657031059E0,-1.559881115E1,-7.040880919E-1
5.563467613E0,-4.475774765E0,-1.460220051E1,1.410568953E0
5.568257666E0,-4.774877548E0,-1.324487114E1,3.101098061E0
5.573034384E0,-5.474180222E0,-1.173918819E1,3.832703590E0
5.577797770E0,-5.110470772E0,-1.035075283E1,3.378665686E0
5.582587822E0,-4.777270317E0,-9.251250267E0,2.517249346E0
5.587364541E0,-4.130609989E0,-8.324031830E0,2.143969059E0
5.592127926E0,-3.071187973E0,-7.931010723E0,2.085345030E0
5.596917978E0,-2.392224550E0,-7.366304398E0,2.133799553E0
5.601694697E0,-1.990230203E0,-6.815357208E0,2.059622049E0
5.606458082E0,-1.625923038E0,-6.284748554E0,2.033301115E0
5.611248134E0,-1.133599758E0,-5.980261803E0,1.660618901E0
5.616024853E0,-6.125625968E-1,-5.882156372E0,6.502495408E-1
5.620788238E0,1.770688742E-1,-6.105885029E0,-3.373879790E-1
5.625578291E0,9.684949517E-1,-6.556334019E0,-1.017547846E0
5.630355009E0,1.582253933E0,-7.099504948E0,-1.351346612E0
5.635118395E0,1.811964989E0,-7.855038643E0,-1.491326690E0
5.639908447E0,1.758126378E0,-8.760722160E0,-1.490130305E0
5.644685166E0,1.628315806E0,-9.667003632E0,-1.374078393E0
5.649448551E0,1.532004714E0,-1.051047325E1,-1.228714466E0
5.654238603E0,1.283749342E0,-1.127198887E1,-1.064207911E0
5.659015322E0,1.025922656E0,-1.198624706E1,-7.794619799E-1
5.663778759E0,9.337990284E-1,-1.263230896E1,-5.670989752E-1
5.668568759E0,8.548358679E-1,-1.320060444E1,-5.234299302E-1
5.673345478E0,5.778666735E-1,-1.348056412E1,-8.572286963E-1
5.678108916E0,-3.290131316E-2,-1.360678577E1,-1.338784218E0
5.682898916E0,-7.824530005E-1,-1.356550980E1,-1.714457393E0
5.687675634E0,-1.494915962E0,-1.335494137E1,-2.171486616E0
5.692439072E0,-1.968694806E0,-1.315394402E1,-2.557329178E0
5.697229072E0,-2.304886341E0,-1.300499153E1,-2.964108944E0
5.702005791E0,-2.207977057E0,-1.300439262E1,-3.487539053E0
5.706769228E0,-2.257628202E0,-1.296132183E1,-3.799802303E0
5.711559228E0,-2.534597397E0,-1.269212914E1,-3.754936934E0
5.716335947E0,-2.576471806E0,-1.247498131E1,-3.461816072E0
5.721099384E0,-2.683550596E0,-1.221057415E1,-2.943171740E0
5.725889436E0,-2.795415163E0,-1.178764248E1,-2.367099762E0
5.730666155E0,-3.033500910E0,-1.122891808E1,-2.097309113E0
5.735429541E0,-3.464209080E0,-1.066181946E1,-2.273181438E0
5.740219593E0,-3.740580082E0,-1.004566765E1,-2.694916487E0
5.744996311E0,-3.934996843E0,-9.453444481E0,-3.116651535E0
5.749759697E0,-4.362713814E0,-8.952746391E0,-3.603590965E0
5.754549749E0,-4.813760757E0,-8.525627136E0,-3.914059639E0
5.759326468E0,-4.922036171E0,-8.072187424E0,-4.264009953E0
5.764089853E0,-5.560919762E0,-7.852047443E0,-4.395017147E0
5.768879905E0,-5.915057659E0,-7.578667641E0,-4.613960266E0
5.773656624E0,-6.177670002E0,-7.415357590E0,-4.679762840E0
5.778420009E0,-6.212964058E0,-7.227520943E0,-4.843072891E0
5.783210061E0,-6.171687603E0,-7.039684296E0,-5.040481091E0
5.787986780E0,-6.031109333E0,-6.932605267E0,-5.285745144E0
5.792750218E0,-5.904289722E0,-6.826124668E0,-5.550750256E0
5.797540218E0,-5.729613781E0,-6.772884369E0,-5.738586903E0
5.802316936E0,-5.444868088E0,-6.699903488E0,-5.826523304E0
5.807080374E0,-5.182853699E0,-6.680162430E0,-5.770291805E0
5.811870374E0,-4.910670280E0,-6.727420807E0,-5.569892883E0
5.816647093E0,-4.514060020E0,-6.803991318E0,-5.399404526E0
5.821423811E0,-4.055834293E0,-6.942176819E0,-5.257629395E0
5.826200530E0,-3.503092289E0,-7.143772125E0,-5.140979290E0
5.830977249E0,-2.868994236E0,-7.392625332E0,-5.086542606E0
5.835740686E0,-2.292324066E0,-7.704290867E0,-5.122435093E0
5.840530686E0,-1.710868239E0,-8.011170387E0,-5.134997368E0
5.845307405E0,-1.253240824E0,-8.242077827E0,-5.031507969E0
5.850070843E0,-7.561319470E-1,-8.490931511E0,-4.880760193E0
5.854860895E0,-3.601198196E-1,-8.692526817E0,-4.718646049E0
5.859637613E0,-4.426721856E-2,-8.941978455E0,-4.609772682E0
5.864400999E0,2.847459018E-1,-9.181859016E0,-4.549354076E0
5.869191051E0,7.184450030E-1,-9.431908607E0,-4.560719967E0
5.873967770E0,1.195813060E0,-9.705288887E0,-4.500899315E0
5.878731155E0,1.463211060E0,-9.849455833E0,-4.430311203E0
5.883521207E0,1.629512191E0,-9.945169449E0,-4.473979950E0
5.888297926E0,1.709671736E0,-9.983454704E0,-4.560719967E0
5.893061311E0,1.685743570E0,-9.997811317E0,-4.670789719E0
5.897851363E0,1.556531072E0,-9.930811882E0,-4.752145767E0
5.902628082E0,1.488933921E0,-9.791430473E0,-4.789832592E0
5.907391468E0,1.636092424E0,-9.713663101E0,-4.824528694E0
5.912181520E0,1.835893154E0,-9.646066666E0,-4.768297195E0
5.916958238E0,2.155933142E0,-9.568299294E0,-4.649852753E0
5.921721676E0,2.449652195E0,-9.567103386E0,-4.809573650E0
5.926511676E0,2.650649309E0,-9.465408325E0,-5.267200947E0
5.931288395E0,2.413759947E0,-9.268598557E0,-5.831906796E0
5.936051832E0,2.081755638E0,-9.022735596E0,-6.286543369E0
5.940841832E0,1.722234130E0,-8.768498421E0,-6.616154671E0
5.945618551E0,1.563111424E0,-8.508877754E0,-6.792625427E0
5.950381988E0,1.561915040E0,-8.306085587E0,-6.941578388E0
5.955172041E0,1.423131227E0,-8.114061356E0,-6.940980434E0
5.959948707E0,1.202991605E0,-7.825128078E0,-7.012166977E0
5.964712145E0,9.254241586E-1,-7.387839794E0,-7.010970116E0
5.969502197E0,5.856433511E-1,-6.901498795E0,-7.052246571E0
5.974278916E0,2.853440940E-1,-6.459424496E0,-6.998407841E0
5.979042301E0,-1.298106313E-1,-6.069993019E0,-6.853044033E0
5.983832353E0,-4.145565331E-1,-5.728417397E0,-6.669394970E0
5.988609072E0,-5.090730190E-1,-5.517251015E0,-6.381059647E0
5.993372457E0,-5.306084156E-1,-5.411368370E0,-6.021538258E0
5.998162509E0,-6.293123364E-1,-5.291129112E0,-5.718247890E0
6.002939228E0,-6.669993401E-1,-5.190032482E0,-5.617151260E0
6.007702613E0,-8.195417523E-1,-5.060820103E0,-5.621338367E0
6.012492666E0,-6.963114142E-1,-5.036293507E0,-5.665007591E0
6.017269384E0,-6.687939167E-1,-5.112864017E0,-5.880959988E0
6.022046103E0,-7.076773047E-1,-5.262415409E0,-6.073582172E0
6.026822822E0,-1.070189953E0,-5.354538918E0,-6.339783669E0
6.031599541E0,-1.276570916E0,-5.470590591E0,-6.583253384E0
6.036376259E0,-1.476969719E0,-5.538187981E0,-6.716653347E0
6.041152978E0,-1.510469317E0,-5.600999832E0,-6.841079712E0
6.045929697E0,-1.239482164E0,-5.701498032E0,-6.885347366E0
6.050706416E0,-1.279561877E0,-5.715855122E0,-7.259823799E0
6.055483134E0,-1.129412293E0,-5.676971912E0,-7.601399422E0
6.060259853E0,-8.590233326E-1,-5.705087185E0,-7.785048485E0
6.065036572E0,-6.215356588E-1,-5.796014786E0,-7.853243828E0
6.069813343E0,-5.784648657E-1,-5.887540340E0,-7.911269665E0
6.074590061E0,-5.395814776E-1,-5.988636971E0,-7.820342541E0
6.079366780E0,-5.533402562E-1,-6.065805435E0,-7.719245911E0
6.084143499E0,-6.604190469E-1,-6.114260197E0,-7.426125050E0
6.088920218E0,-1.167099237E0,-5.889933109E0,-6.929016113E0
6.093696936E0,-1.369890928E0,-5.639284611E0,-6.453442574E0
6.098473655E0,-1.289133191E0,-5.379065514E0,-6.285944939E0
6.103250374E0,-1.162313581E0,-5.085346222E0,-6.435496330E0
6.108027093E0,-8.524430394E-1,-4.785645485E0,-6.964908600E0
6.112803811E0,-1.663011760E-1,-4.774279594E0,-7.491927624E0
6.117580530E0,2.554338276E-1,-4.816154003E0,-7.853842258E0
6.122357249E0,3.050848842E-1,-4.748556614E0,-8.257631302E0
6.127133968E0,3.421736360E-1,-4.748556614E0,-8.473583221E0
6.131910686E0,4.139583111E-1,-4.791627407E0,-8.382656097E0
6.136687405E0,6.544370055E-1,-4.978865623E0,-8.057231903E0
6.141464124E0,5.952146053E-1,-5.128417015E0,-7.673183918E0
6.146240843E0,3.786641955E-1,-5.292923450E0,-7.422535896E0
6.151017561E0,1.734796353E-2,-5.226522923E0,-7.368099213E0
6.155794280E0,-2.309073806E-1,-5.044070244E0,-7.314260483E0
6.160570999E0,-3.876372576E-1,-4.942973614E0,-7.284350395E0
6.165347770E0,-6.915257573E-1,-4.732405186E0,-7.115057945E0
6.170124488E0,-1.180858016E0,-4.472783566E0,-6.867401123E0
6.174901207E0,-1.542772412E0,-4.146163464E0,-6.674180508E0
6.179664593E0,-1.777867198E0,-3.935595036E0,-6.164509296E0
6.184454645E0,-2.085345030E0,-3.681357622E0,-5.745167255E0
6.189231363E0,-2.414358139E0,-3.305684566E0,-5.571089268E0
6.193994749E0,-2.533999205E0,-2.968894720E0,-5.556134224E0
6.198784801E0,-2.530410051E0,-2.694318295E0,-5.609374523E0
6.203561520E0,-2.456232548E0,-2.467598438E0,-5.724828243E0
6.208324905E0,-2.380858421E0,-2.346760750E0,-5.797211170E0
6.213114957E0,-2.304288149E0,-2.317448616E0,-5.783452511E0
6.217891676E0,-2.404188633E0,-2.255235434E0,-5.691926956E0
6.222668395E0,-2.594418049E0,-2.197807550E0,-5.618945599E0
6.227445113E0,-2.851048231E0,-2.174477577E0,-5.579464436E0
6.232221832E0,-3.174079180E0,-2.209173441E0,-5.596812248E0
6.236985270E0,-3.478565931E0,-2.272583246E0,-5.595017433E0
6.241775270E0,-3.664009571E0,-2.383849621E0,-5.593821049E0
6.246551988E0,-3.772883177E0,-2.495115757E0,-5.559723377E0
6.251328707E0,-3.844069481E0,-2.557927370E0,-5.602794170E0
6.256105478E0,-3.829712629E0,-2.611167669E0,-5.621936798E0
6.260882197E0,-3.748954773E0,-2.692523718E0,-5.689534187E0
6.265658916E0,-3.530609846E0,-2.826521635E0,-5.834300041E0
6.270435634E0,-3.340380430E0,-2.985046148E0,-5.940780640E0
6.275212353E0,-3.159124136E0,-3.206382275E0,-6.018547058E0
6.279989072E0,-3.083152056E0,-3.369692564E0,-6.114858150E0
6.284765791E0,-3.116651535E0,-3.494717360E0,-6.220142365E0
6.289542509E0,-3.198007345E0,-3.640081406E0,-6.334998131E0
6.294319228E0,-3.307479143E0,-3.674179077E0,-6.449255466E0
6.299095947E0,-3.469592810E0,-3.698705673E0,-6.520441532E0
6.303872666E0,-3.585046530E0,-3.674777269E0,-6.572485447E0
6.308649384E0,-3.622733593E0,-3.703491211E0,-6.605985165E0
6.313426103E0,-3.537189960E0,-3.766302824E0,-6.635297298E0
6.318202822E0,-3.303291559E0,-3.852444410E0,-6.588637352E0
6.322979541E0,-3.074178934E0,-3.880560160E0,-6.517450809E0
6.327756259E0,-2.988037348E0,-3.928416491E0,-6.393621922E0
6.332532978E0,-3.049652576E0,-3.885345697E0,-6.345167637E0
6.337309697E0,-3.111267567E0,-3.866203070E0,-6.282355785E0
6.342086468E0,-3.206382275E0,-3.847060680E0,-6.315257072E0
6.346863186E0,-3.321237803E0,-3.775275946E0,-6.387042046E0
6.351639905E0,-3.407977581E0,-3.722633839E0,-6.516254425E0
6.356416624E0,-3.485744476E0,-3.736990690E0,-6.745965004E0
6.361193343E0,-3.496512175E0,-3.746562004E0,-6.966104984E0
6.365970061E0,-3.373281717E0,-3.847060680E0,-7.192824841E0
6.370746780E0,-3.294318676E0,-3.952943087E0,-7.490731239E0
6.375523499E0,-3.281157970E0,-4.054039955E0,-7.735397339E0
6.380300218E0,-3.281756163E0,-4.144967079E0,-7.936992645E0
6.385076936E0,-3.400799274E0,-4.265804768E0,-8.041678429E0
6.389853655E0,-3.534797192E0,-4.309473515E0,-8.112865448E0
6.394630374E0,-3.739981890E0,-4.275974274E0,-8.178668022E0
6.399407093E0,-3.940979004E0,-4.243072987E0,-8.403593063E0
6.404183811E0,-3.910470486E0,-4.286143780E0,-8.806783676E0
6.408947249E0,-3.241078377E0,-4.486542225E0,-9.275776863E0
6.413737249E0,-3.035295486E0,-4.774877548E0,-9.909874916E0
6.418513968E0,-2.909074068E0,-5.169095039E0,-1.053440189E1
6.423277405E0,-2.782852650E0,-5.597410202E0,-1.105304623E1
6.428067457E0,-2.621337175E0,-6.016154289E0,-1.132702446E1
6.432844176E0,-2.553740025E0,-6.281159401E0,-1.135573769E1
6.437607561E0,-2.467598438E0,-6.352943897E0,-1.130848026E1
6.442397613E0,-2.382055044E0,-6.198606968E0,-1.119841003E1
6.447174332E0,-2.239083767E0,-5.909673691E0,-1.105065346E1
6.451951051E0,-2.049452543E0,-5.552545071E0,-1.095135117E1
6.456727770E0,-1.807179332E0,-5.277370453E0,-1.084247780E1
6.461504488E0,-1.445264935E0,-5.079364300E0,-1.069591713E1
6.466267874E0,-1.083350420E0,-4.996213913E0,-1.063071251E1
6.471057926E0,-7.878368497E-1,-4.990829945E0,-1.054098225E1
6.475834645E0,-6.448656917E-1,-5.057828903E0,-1.048415279E1
6.480598082E0,-6.059823632E-1,-5.111069202E0,-1.043569756E1
6.485388082E0,-6.771687865E-1,-5.173880577E0,-1.043988514E1
6.490164801E0,-8.673982024E-1,-5.193621635E0,-1.041057301E1
6.494941520E0,-1.066002488E0,-5.126622677E0,-1.025563812E1
6.499718238E0,-1.193420291E0,-5.006382942E0,-9.957731247E0
6.504494957E0,-1.272383451E0,-4.823930264E0,-9.516255379E0
6.509271728E0,-1.283749342E0,-4.592424870E0,-8.940183640E0
6.514048395E0,-1.243071318E0,-4.304089546E0,-8.355736732E0
6.518825166E0,-1.054636598E0,-4.034298897E0,-7.722835064E0
6.523588551E0,-8.901300430E-1,-3.687339783E0,-7.162914753E0
6.528378603E0,-7.836494446E-1,-3.311068296E0,-6.654439926E0
6.533155322E0,-6.065805554E-1,-2.891726255E0,-6.195616245E0
6.537918707E0,-5.766702294E-1,-2.467598438E0,-5.749354839E0
6.542708759E0,-6.269195080E-1,-2.039283037E0,-5.221737385E0
6.547485478E0,-6.059823632E-1,-1.654636860E0,-4.631308079E0
6.552248863E0,-4.791627228E-1,-1.326221943E0,-4.003790379E0
6.557038916E0,-2.530409992E-1,-1.075573802E0,-3.424129248E0
6.561815634E0,-6.939185411E-2,-8.685946465E-1,-2.921636343E0
6.566579072E0,2.500499785E-1,-8.003991842E-1,-2.683550596E0
6.571369072E0,5.593222976E-1,-9.008977413E-1,-2.781058073E0
6.576145791E0,8.524430394E-1,-1.106680512E0,-3.108874798E0
6.580909228E0,1.097109199E0,-1.336989641E0,-3.748356581E0
6.585699228E0,1.102493048E0,-1.568495274E0,-4.544568539E0
6.590475947E0,1.001396298E0,-1.890928149E0,-5.614160061E0
6.595239384E0,1.219741344E0,-2.274976015E0,-6.780661106E0
6.600029436E0,1.554736495E0,-2.620738983E0,-8.216953278E0
6.604806155E0,1.588834286E0,-3.110669374E0,-1.062652493E1
6.609569541E0,2.136192322E0,-4.028316975E0,-1.352243900E1
6.614359593E0,1.811964989E0,-4.885545731E0,-1.638066483E1
6.619136311E0,1.153340459E0,-4.943571568E0,-1.911207199E1
6.623899697E0,1.735394597E0,-5.639883041E0,-2.003630066E1
6.628689749E0,2.021337032E0,-6.367300987E0,-1.948535347E1
6.633466468E0,1.992623091E0,-6.700501442E0,-1.818425560E1
6.638229905E0,3.594019651E0,-7.603193760E0,-1.588834190E1
6.643019905E0,3.185445070E0,-7.503891945E0,-1.402971745E1
6.647796624E0,2.555534601E0,-7.024729252E0,-1.188634682E1
6.652560061E0,3.131606579E0,-6.668198586E0,-9.225527763E0
6.657350061E0,3.877569199E0,-6.552146435E0,-6.215955257E0
6.662126780E0,3.586841106E0,-6.028716564E0,-3.695116282E0
6.666890218E0,2.333600283E0,-5.093122959E0,-1.889731646E0
6.671680270E0,1.610967875E0,-4.088137627E0,-1.229312658E0
6.676456988E0,6.203392744E-1,-3.126821041E0,-1.666600943E0
6.681220374E0,-4.229314029E-1,-2.410768747E0,-3.120240688E0
6.686010426E0,-1.449452281E0,-2.031506538E0,-5.807380676E0
6.690787145E0,-2.512463808E0,-2.066202402E0,-9.295517921E0
6.695550530E0,-3.736990690E0,-2.395215511E0,-1.294636726E1
6.700340582E0,-4.904688358E0,-2.921636343E0,-1.595294857E1
6.705117301E0,-5.386841774E0,-3.707678795E0,-1.738505363E1
6.709880738E0,-5.211567879E0,-4.574478626E0,-1.720738602E1
6.714670738E0,-4.307080746E0,-5.324628353E0,-1.595474339E1
6.719447457E0,-3.043670416E0,-5.915057659E0,-1.428574944E1
6.724210895E0,-1.852642894E0,-6.375077724E0,-1.266939735E1
6.729000895E0,-8.733802438E-1,-6.772884369E0,-1.146042442E1
6.733777613E0,-2.853440940E-1,-7.066603661E0,-1.029212856E1
6.738541051E0,3.553341627E-1,-7.200003147E0,-9.196215630E0
6.743331051E0,1.049252748E0,-7.015756130E0,-8.370093346E0
6.748107822E0,1.061815023E0,-6.514459610E0,-7.688737392E0
6.752871207E0,5.521438122E-1,-5.653641701E0,-7.269395351E0
6.757661259E0,-4.450650215E-1,-4.741377831E0,-7.159325123E0
6.762437978E0,-1.211366415E0,-4.039084435E0,-7.760521889E0
6.767201363E0,-1.656431437E0,-3.582055569E0,-8.636893272E0
6.771991416E0,-2.018944025E0,-3.259622574E0,-9.412766457E0
6.776768134E0,-2.260020971E0,-3.077169895E0,-9.915258408E0
6.781531520E0,-1.732403636E0,-3.196212769E0,-9.951749802E0
6.786321572E0,-2.021337032E0,-3.380460262E0,-9.081359863E0
6.791098291E0,-2.327019930E0,-3.544966698E0,-7.889136314E0
6.795861728E0,-1.913659930E0,-3.665804386E0,-7.195816040E0
6.800651728E0,-1.233500123E0,-3.812962770E0,-7.261618614E0
6.805428447E0,-7.034898400E-1,-3.989433527E0,-7.873582840E0
6.810205166E0,-3.517449200E-1,-4.205385685E0,-8.830113411E0
6.814981884E0,-2.009970993E-1,-4.469194412E0,-9.896116257E0
6.819758655E0,-3.954139352E-1,-4.695316315E0,-1.073958588E1
6.824522041E0,-9.762716293E-1,-5.010570526E0,-1.102433205E1
6.829312093E0,-1.473978758E0,-5.194818020E0,-1.077248764E1
6.834088811E0,-1.821536183E0,-5.205585480E0,-1.003131104E1
6.838865530E0,-1.971685886E0,-4.994419098E0,-8.864211082E0
6.843642249E0,-1.974078655E0,-4.580460548E0,-7.429714203E0
6.848418968E0,-1.768894196E0,-3.934996843E0,-6.217151642E0
6.853182353E0,-1.552343726E0,-3.245863914E0,-5.374279499E0
6.857972405E0,-1.485344648E0,-2.624926329E0,-4.986642361E0
6.862749124E0,-1.644467354E0,-2.147558212E0,-5.139184952E0
6.867512561E0,-1.940579176E0,-1.835294962E0,-5.934200287E0
6.872302561E0,-2.386840582E0,-1.657627940E0,-7.175477028E0
6.877079280E0,-2.831307411E0,-1.648654819E0,-8.373085022E0
6.881842718E0,-3.111865759E0,-1.807777524E0,-9.215956688E0
6.886632770E0,-3.145963669E0,-2.076970100E0,-9.508479118E0
6.891409488E0,-2.952743053E0,-2.447857618E0,-9.211171150E0
6.896186207E0,-2.615355253E0,-2.789433002E0,-8.608179092E0
6.900962926E0,-2.205584288E0,-3.049054146E0,-7.942974567E0
6.905739645E0,-1.783251047E0,-3.240479946E0,-7.456035137E0
6.910516363E0,-1.473380566E0,-3.375076294E0,-7.347161770E0
6.915293082E0,-1.274776220E0,-3.461217880E0,-7.549355507E0
6.920069801E0,-1.248455167E0,-3.494119167E0,-7.947760582E0
6.924846520E0,-1.350748420E0,-3.499503136E0,-8.398807526E0
6.929623238E0,-1.610967875E0,-3.480360508E0,-8.886344910E0
6.934399957E0,-1.905883193E0,-3.446861029E0,-9.748957634E0
6.939163395E0,-2.199003935E0,-3.413361549E0,-1.095194912E1
6.943953395E0,-2.185843468E0,-3.475574970E0,-1.198863983E1
6.948730113E0,-2.017149448E0,-3.566502094E0,-1.244028473E1
6.953493551E0,-1.686939955E0,-3.667598963E0,-1.216391373E1
6.958283551E0,-1.171884894E0,-3.710071564E0,-1.125942707E1
6.963060322E0,-5.665007830E-1,-3.689732552E0,-1.016829967E1
6.967823707E0,-2.859423161E-1,-3.592823267E0,-9.339186668E0
6.972613759E0,-1.734796464E-1,-3.438486099E0,-8.822337151E0
6.977390478E0,-3.858426511E-1,-3.217748165E0,-8.413164139E0
6.982153863E0,-8.973084688E-1,-2.901297569E0,-7.863413334E0
6.986943916E0,-1.300499082E0,-2.473580360E0,-7.362715244E0
6.991720634E0,-1.319641709E0,-2.045265198E0,-7.152146816E0
6.996484020E0,-1.293918848E0,-1.645065546E0,-7.454838753E0
7.001274072E0,-9.846464992E-1,-1.359721422E0,-8.094321251E0
7.006050791E0,-3.990031779E-1,-1.295115232E0,-8.764909744E0
7.010827509E0,1.453639716E-1,-1.409372568E0,-9.333803177E0
7.015604228E0,7.417750359E-1,-1.605584025E0,-9.903294563E0
7.020380947E0,8.877372146E-1,-1.879562140E0,-1.025384331E1
7.025144384E0,9.074779749E-1,-2.331805706E0,-1.041655540E1
7.029934384E0,6.963114142E-1,-2.886940479E0,-1.021376324E1
7.034711155E0,6.011967063E-1,-3.311068296E0,-9.685547829E0
7.039487874E0,4.295116663E-1,-3.523431301E0,-9.069993973E0
7.044264593E0,2.422732860E-1,-3.591626883E0,-8.651249886E0
7.049041311E0,1.190429255E-1,-3.495913982E0,-8.483154297E0
7.053818030E0,-9.571290575E-3,-3.303291559E0,-8.420342445E0
7.058594749E0,-1.004985496E-1,-3.062813044E0,-8.405387878E0
7.063371468E0,-7.417750359E-2,-2.840878725E0,-8.606983185E0
7.068148186E0,-1.016949583E-2,-2.619542599E0,-8.972486496E0
7.072924905E0,3.074777126E-1,-2.584846735E0,-9.127422333E0
7.077701624E0,6.658028960E-1,-2.670988321E0,-8.898907661E0
7.082478343E0,9.870393276E-1,-2.785843849E0,-8.492725372E0
7.087255061E0,1.214357495E0,-2.925225735E0,-7.989634991E0
7.092031832E0,1.469193101E0,-3.011367321E0,-7.597810268E0
7.096808551E0,1.730608940E0,-3.126222849E0,-7.670791149E0
7.101585270E0,1.842473388E0,-3.231507063E0,-8.084151268E0
7.106361988E0,1.819143414E0,-3.361317635E0,-8.851649284E0
7.111125374E0,1.755733609E0,-3.558127165E0,-1.000798035E1
7.115915426E0,1.673181176E0,-3.852444410E0,-1.122592735E1
7.120692145E0,1.564906001E0,-4.256831646E0,-1.210828114E1
7.125455530E0,1.411167145E0,-4.719244480E0,-1.260598755E1
7.130245582E0,1.378265858E0,-5.191826820E0,-1.274536991E1
7.135022301E0,1.428515077E0,-5.577071190E0,-1.250489140E1
7.139785738E0,1.496112347E0,-5.871388435E0,-1.171346474E1
7.144575738E0,1.532602906E0,-6.040082455E0,-1.050927734E1
7.149352457E0,1.511067510E0,-5.968895912E0,-9.327820778E0
7.154115895E0,1.567897081E0,-5.751747608E0,-8.498707771E0
7.158905947E0,1.582852125E0,-5.361717224E0,-8.138587952E0
7.163682666E0,1.680957913E0,-4.932804108E0,-8.206783295E0
7.168459384E0,1.591825247E0,-4.465006828E0,-8.586046219E0
7.173236103E0,1.164108157E0,-4.008575916E0,-9.044271469E0
7.178012822E0,4.660021961E-1,-3.600599766E0,-9.396614075E0
7.182776207E0,-1.262213886E-1,-3.346362352E0,-9.533005714E0
7.187566259E0,-3.032902777E-1,-3.245863914E0,-9.695118904E0
7.192342978E0,-2.901297510E-1,-3.298506021E0,-9.925428391E0
7.197119697E0,-1.226321608E-1,-3.457030535E0,-9.835099220E0
7.201896416E0,1.483550072E-1,-3.678964853E0,-9.269794464E0
7.206673134E0,4.648058116E-1,-3.659224033E0,-8.834898949E0
7.211436572E0,6.687939167E-1,-3.721437454E0,-8.101499557E0
7.216226572E0,6.765705943E-1,-3.735794306E0,-7.607381344E0
7.221003343E0,6.017948985E-1,-3.697509289E0,-7.367500782E0
7.225766728E0,3.403790295E-1,-3.601796389E0,-7.317849636E0
7.230556780E0,-1.190429255E-1,-3.458226919E0,-7.675576687E0
7.235333499E0,-5.617151260E-1,-3.352942705E0,-8.460422516E0
7.240096884E0,-1.091127157E0,-3.257229805E0,-9.407979965E0
7.244886936E0,-1.390828133E0,-3.257827997E0,-1.019761181E1
7.249663655E0,-1.491924882E0,-3.368496180E0,-1.045125103E1
7.254440374E0,-1.353141189E0,-3.517449379E0,-1.033220863E1
7.259217093E0,-1.040279627E0,-3.739383698E0,-9.964311600E0
7.263993811E0,-6.783652306E-1,-3.984049797E0,-9.164510727E0
7.268770530E0,-4.241278172E-1,-4.157529354E0,-8.172087669E0
7.273547249E0,-3.439682424E-1,-4.195814610E0,-7.548757076E0
7.278323968E0,-3.912265003E-1,-4.143172264E0,-7.400402069E0
7.283100686E0,-6.490531564E-1,-3.975076675E0,-7.490133286E0
7.287877457E0,-9.505487680E-1,-3.778865099E0,-7.709076405E0
7.292654176E0,-1.472184181E0,-3.557528973E0,-8.008777618E0
7.297430895E0,-1.926820397E0,-3.361317635E0,-8.400602341E0
7.302207613E0,-2.387438774E0,-3.208176851E0,-8.940183640E0
7.306984332E0,-2.733201742E0,-3.169891834E0,-9.461818695E0
7.311747718E0,-2.873181820E0,-3.126821041E0,-9.739386559E0
7.316537770E0,-2.852842808E0,-3.107678413E0,-9.562317848E0
7.321314488E0,-2.532802820E0,-3.083152056E0,-9.294321060E0
7.326091207E0,-2.036890268E0,-3.134597778E0,-9.234500885E0
7.330867926E0,-1.660618901E0,-3.297309637E0,-9.178867340E0
7.335644645E0,-1.143769264E0,-3.605385542E0,-8.922237396E0
7.340421363E0,-7.322037220E-1,-3.921836376E0,-8.641678810E0
7.345198082E0,-7.866404653E-1,-4.110270977E0,-8.343772888E0
7.349974801E0,-1.131805062E0,-4.106083870E0,-7.981259823E0
7.354751572E0,-1.616949916E0,-3.871587038E0,-7.744370461E0
7.359528291E0,-1.984248161E0,-3.553939819E0,-7.804789066E0
7.364305009E0,-2.215155602E0,-3.284747362E0,-8.139784813E0
7.369081728E0,-2.300100803E0,-3.126222849E0,-8.681758881E0
7.373858447E0,-2.285743713E0,-3.077169895E0,-9.445069313E0
7.378635166E0,-2.286342144E0,-3.178266764E0,-1.037527943E1
7.383398603E0,-2.428116798E0,-3.409173965E0,-1.107577801E1
7.388188603E0,-2.431705952E0,-3.766302824E0,-1.098425198E1
7.392965322E0,-2.145763636E0,-4.073780537E0,-1.040459061E1
7.397742041E0,-1.764706731E0,-4.265804768E0,-9.624530792E0
7.402518759E0,-1.425524116E0,-4.400400639E0,-8.690134048E0
7.407295478E0,-1.262812138E0,-4.381258488E0,-7.688138962E0
7.412058916E0,-1.290927768E0,-4.222733974E0,-6.751947403E0
7.416848968E0,-1.550549030E0,-3.862613916E0,-6.237490654E0
7.421625686E0,-1.704886079E0,-3.337389469E0,-6.290132523E0
7.426389072E0,-1.561915040E0,-2.782852650E0,-6.775875568E0
7.431179124E0,-1.352542996E0,-2.391626120E0,-7.271788120E0
7.435955843E0,-1.045663476E0,-2.193620205E0,-7.642675400E0
7.440732561E0,-7.190431952E-1,-2.269592285E0,-7.922635555E0
7.445509280E0,-5.210371017E-1,-2.548954248E0,-8.331808090E0
7.450285999E0,-4.654040039E-1,-2.986840963E0,-8.859425545E0
7.455062718E0,-5.282155871E-1,-3.540181160E0,-9.347561836E0
7.459839436E0,-8.961120844E-1,-3.989433527E0,-9.801599503E0
7.464616155E0,-1.330409408E0,-4.298107624E0,-1.017846966E1
7.469379593E0,-1.539183140E0,-4.505684853E0,-1.022991467E1
7.474169645E0,-1.208375454E0,-4.678566456E0,-9.938589096E0
7.478946363E0,-5.276173949E-1,-4.788636208E0,-9.097511292E0
7.483709749E0,3.696911037E-1,-4.878366947E0,-7.935796261E0
7.488499801E0,1.589432478E0,-5.266602516E0,-6.257829189E0
7.493276520E0,1.393819153E-1,-4.055236340E0,-6.970890522E0
7.498039905E0,1.025324464E0,-3.638885021E0,-7.432106972E0
7.502829957E0,1.936989903E0,-4.234697819E0,-6.385247231E0
7.507606676E0,1.664208174E0,-4.235296249E0,-5.908477306E0
7.512370113E0,1.356730461E0,-4.139583111E0,-5.623731613E0
7.517160113E0,8.368897438E-1,-3.929014683E0,-5.592624664E0
7.521936832E0,5.012963414E-1,-3.674777269E0,-5.969494343E0
7.526713551E0,2.165504545E-1,-3.544368505E0,-6.520441532E0
7.531490322E0,-2.291127741E-1,-3.477967739E0,-6.959524632E0
7.536267041E0,-6.867401004E-1,-3.430709362E0,-7.192824841E0
7.541043759E0,-8.500502706E-1,-3.440878868E0,-7.432106972E0
7.545820478E0,-6.622136831E-1,-3.483351469E0,-7.831110477E0
7.550597197E0,-5.341976285E-1,-3.686143398E0,-8.042277336E0
7.555373916E0,-6.059823632E-1,-3.921836376E0,-8.239086151E0
7.560150634E0,-8.398807645E-1,-4.182653904E0,-8.482556343E0
7.564927353E0,-9.032905698E-1,-4.432703972E0,-8.923434258E0
7.569690791E0,-1.043270707E0,-4.683351994E0,-9.325428009E0
7.574480791E0,-1.176072359E0,-4.944169998E0,-9.483354568E0
7.579257509E0,-1.150947690E0,-5.194818020E0,-9.358329773E0
7.584034228E0,-1.019342422E0,-5.416153908E0,-8.994022369E0
7.588810999E0,-9.314061999E-1,-5.574678421E0,-8.624929428E0
7.593587718E0,-9.822536707E-1,-5.661418438E0,-8.461619377E0
7.598364436E0,-1.092323542E0,-5.690730572E0,-8.614161491E0
7.603141155E0,-1.013958573E0,-5.772086620E0,-9.046066284E0
7.607917874E0,-1.212562919E0,-5.922235966E0,-9.707681656E0
7.612681259E0,-1.683350682E0,-6.139384747E0,-1.055952644E1
7.617471311E0,-2.160120726E0,-6.366703033E0,-1.164168072E1
7.622248030E0,-2.603390932E0,-6.694519520E0,-1.267956734E1
7.627011468E0,-2.787638426E0,-7.032505512E0,-1.340818214E1
7.631801468E0,-2.635694027E0,-7.421937466E0,-1.367258835E1
7.636578186E0,-2.270190477E0,-7.787441254E0,-1.325205040E1
7.641341624E0,-1.948355794E0,-8.032705307E0,-1.213520050E1
7.646131676E0,-1.588235974E0,-8.129016876E0,-1.081256771E1
7.650908395E0,-1.241276741E0,-8.051250458E0,-1.004207802E1
7.655685113E0,-1.365703583E0,-7.810771465E0,-1.004148006E1
7.660461832E0,-1.721037745E0,-7.484150887E0,-1.038485050E1
7.665238551E0,-2.157129526E0,-7.037291527E0,-1.067617607E1
7.670015270E0,-2.516052961E0,-6.594020844E0,-1.078504944E1
7.674791988E0,-2.848655462E0,-6.104090691E0,-1.047159004E1
7.679568707E0,-3.120838881E0,-5.613562107E0,-9.640682220E0
7.684332145E0,-3.273381472E0,-5.113461971E0,-8.569893837E0
7.689122145E0,-3.436093330E0,-4.593621254E0,-7.691130161E0
7.693898863E0,-3.702893019E0,-4.055236340E0,-7.454838753E0
7.698662301E0,-4.039084435E0,-3.607778311E0,-7.712665558E0
7.703452301E0,-4.191627026E0,-3.246462107E0,-8.355138779E0
7.708229072E0,-4.153341770E0,-3.072384357E0,-9.041280746E0
7.712992457E0,-3.831507206E0,-3.023331404E0,-9.263813019E0
7.717782509E0,-3.524627686E0,-2.970091105E0,-8.776275635E0
7.722559228E0,-3.214159012E0,-2.858824968E0,-7.865806103E0
7.727322613E0,-2.776870728E0,-2.737987280E0,-7.052246571E0
7.732112666E0,-2.293520451E0,-2.645265341E0,-6.580262184E0
7.736889384E0,-1.779661894E0,-2.509472847E0,-6.491727829E0
7.741652822E0,-1.248455167E0,-2.377269268E0,-6.552146435E0
7.746442822E0,-6.352944374E-1,-2.298904419E0,-6.651448727E0
7.751219541E0,-1.322034448E-1,-2.249253273E0,-6.821937561E0
7.755982978E0,2.333002090E-1,-2.200200319E0,-6.982256413E0
7.760772978E0,4.558327198E-1,-2.199602127E0,-7.161119938E0
7.765549749E0,5.964110494E-1,-2.252244234E0,-7.540980339E0
7.770313134E0,7.399803996E-1,-2.367099762E0,-8.266604424E0
7.775103186E0,9.194421172E-1,-2.636292458E0,-9.370891571E0
7.779879905E0,1.057627559E0,-3.097508907E0,-1.044586754E1
7.784643291E0,9.565308690E-1,-3.753142357E0,-1.090588760E1
7.789433343E0,8.841479421E-1,-4.475774765E0,-1.069412231E1
7.794210061E0,9.379864931E-1,-5.015954494E0,-9.916455269E0
7.798973499E0,1.065404296E0,-5.362913609E0,-8.760123253E0
7.803763499E0,1.325025558E0,-5.444868088E0,-7.561917782E0
7.808540218E0,1.482951880E0,-5.314459324E0,-6.602396011E0
7.813303655E0,1.414158225E0,-5.074578762E0,-6.065207005E0
7.818093707E0,1.237687469E0,-4.810171604E0,-5.929414749E0
7.822870426E0,1.018146038E0,-4.602594376E0,-6.025127411E0
7.827633811E0,8.554341197E-1,-4.468596458E0,-6.034100533E0
7.832423863E0,9.601200819E-1,-4.458426952E0,-5.937789440E0
7.837200582E0,1.100698471E0,-4.515854359E0,-5.694319725E0
7.841963968E0,9.026923180E-1,-4.516452789E0,-5.313860893E0
7.846754020E0,3.954139352E-1,-4.484149456E0,-4.990231514E0
7.851530738E0,-3.290131316E-2,-4.384249210E0,-4.978267670E0
7.856307457E0,-3.266202807E-1,-4.225724697E0,-5.418546677E0
7.861084176E0,-5.844469070E-1,-4.033700943E0,-6.271588326E0
7.865860895E0,-7.154539824E-1,-3.874577999E0,-7.427321434E0
7.870624332E0,-7.746763229E-1,-3.821337700E0,-8.511868477E0
7.875414384E0,-6.885347366E-1,-3.887738705E0,-9.236295700E0
7.880191103E0,-5.503492355E-1,-4.070789337E0,-9.333204269E0
7.884954488E0,-3.553341627E-1,-4.363910198E0,-8.715258598E0
7.889744541E0,-1.483550072E-1,-4.652843475E0,-7.602595806E0
7.894521259E0,-2.033899166E-2,-4.889732838E0,-6.369693756E0
7.899284645E0,5.742774159E-2,-5.005784988E0,-5.371886730E0
7.904074697E0,-3.409772366E-2,-4.957928658E0,-4.780859470E0
7.908851416E0,-1.196411322E-3,-4.808377266E0,-4.718646049E0
7.913614853E0,5.264209956E-2,-4.509274483E0,-5.132006168E0
7.918404853E0,-1.339980662E-1,-4.229912281E0,-5.817550182E0
7.923181572E0,-5.383851007E-2,-4.089931965E0,-6.772884369E0
7.927945009E0,2.279163599E-1,-3.967898130E0,-8.017151833E0
7.932735061E0,5.862415433E-1,-3.942773581E0,-9.343972206E0
7.937511780E0,1.027717352E0,-4.061218262E0,-1.038724327E1
7.942275166E0,1.377069473E0,-4.296313286E0,-1.094118118E1
7.947065218E0,1.783251047E0,-4.700101852E0,-1.083290672E1
7.951841936E0,2.041077614E0,-5.143372059E0,-1.009472084E1
7.956605374E0,2.106282234E0,-5.538187981E0,-8.961718559E0
7.961395374E0,2.219342947E0,-5.837290764E0,-7.825128078E0
7.966172093E0,2.678166628E0,-6.207580090E0,-6.843472958E0
7.970935530E0,2.385046005E0,-6.261418819E0,-6.630511761E0
7.975725582E0,1.636092424E0,-5.583053589E0,-8.114660263E0
7.980502301E0,1.999801517E0,-5.808577061E0,-8.596813202E0
7.985279020E0,1.741974831E0,-5.968297958E0,-8.945567131E0
7.990055738E0,1.255035520E0,-6.065805435E0,-9.215956688E0
7.994832457E0,7.459624410E-1,-6.192026615E0,-9.309276581E0
7.999609176E0,5.599204898E-1,-6.327221394E0,-9.443274498E0
8.004385895E0,6.209374666E-1,-6.519843578E0,-9.692726135E0
8.009162613E0,8.207381964E-1,-6.817749977E0,-9.818349838E0
8.013939332E0,1.108475089E0,-7.168896675E0,-9.685547829E0
8.018716051E0,1.387238979E0,-7.500900745E0,-9.399007797E0
8.023492770E0,1.376471281E0,-7.703094482E0,-8.884550095E0
8.028256207E0,1.324427366E0,-7.819146156E0,-8.197810173E0
8.033046259E0,1.090528965E0,-7.747959614E0,-7.487142086E0
8.037822978E0,1.064207911E0,-7.521838188E0,-6.997211456E0
8.042586363E0,1.112662554E0,-7.338787079E0,-6.738188744E0
8.047376416E0,1.070189953E0,-7.185048103E0,-6.656832695E0
8.052153134E0,9.912267923E-1,-7.021738052E0,-6.934400082E0
8.056929853E0,7.489534616E-1,-6.833303452E0,-7.514659405E0
8.061706572E0,6.394818425E-1,-6.659823418E0,-8.286943436E0
8.066483291E0,6.352944374E-1,-6.539584160E0,-8.915059090E0
8.071260009E0,8.039883971E-1,-6.558128834E0,-9.270991325E0
8.076036728E0,1.030110121E0,-6.754938126E0,-9.075378418E0
8.080813499E0,1.268794179E0,-6.991229534E0,-8.289934158E0
8.085590218E0,1.318445325E0,-7.265805721E0,-7.262814999E0
8.090366936E0,1.088136077E0,-7.493722439E0,-6.181857109E0
8.095143655E0,7.788637877E-1,-7.629515171E0,-5.368896008E0
8.099907041E0,5.341976285E-1,-7.606184959E0,-4.940580368E0
8.104697093E0,4.145565331E-1,-7.485945702E0,-5.026721954E0
8.109473811E0,4.019941986E-1,-7.317251682E0,-5.481956482E0
8.114250530E0,3.960121572E-1,-7.153343201E0,-6.298507214E0
8.119027249E0,3.182454109E-1,-7.056434155E0,-7.339385033E0
8.123803968E0,1.130608693E-1,-7.085746288E0,-8.303094864E0
8.128567405E0,-2.757728100E-1,-7.240083218E0,-8.823533058E0
8.133357405E0,-6.502495408E-1,-7.457829952E0,-8.797810555E0
8.138134176E0,-8.841479421E-1,-7.718647480E0,-8.302495956E0
8.142910895E0,-9.505487680E-1,-7.969893932E0,-7.576872826E0
8.147687613E0,-7.890332937E-1,-8.152944565E0,-6.929614544E0
8.152464332E0,-5.383850932E-1,-8.325826645E0,-6.503692150E0
8.157241051E0,-2.470589429E-1,-8.446065903E0,-6.375676155E0
8.162017770E0,-1.040877849E-1,-8.527421951E0,-6.385845661E0
8.166794488E0,-1.668993831E-1,-8.565707207E0,-6.467201233E0
8.171571207E0,-4.181457460E-1,-8.561519623E0,-6.384050846E0
8.176347926E0,-8.111668825E-1,-8.529216766E0,-6.041877270E0
8.181124697E0,-1.192223907E0,-8.462815285E0,-5.410770416E0
8.185888082E0,-1.569691658E0,-8.353343964E0,-4.698307037E0
8.190678134E0,-1.804188251E0,-8.253443718E0,-4.145565033E0
8.195454853E0,-1.851446509E0,-8.065009117E0,-3.991826296E0
8.200218238E0,-1.620539188E0,-7.838288784E0,-4.170690060E0
8.205008291E0,-1.299900889E0,-7.644470215E0,-4.575675011E0
8.209785009E0,-9.894321561E-1,-7.441080093E0,-5.062614441E0
8.214561728E0,-7.202396393E-1,-7.353742123E0,-5.346762180E0
8.219338447E0,-5.012963414E-1,-7.372286797E0,-5.309673309E0
8.224115166E0,-4.271188378E-1,-7.478168964E0,-4.931009293E0
8.228891884E0,-4.372883439E-1,-7.627720356E0,-4.340580463E0
8.233668603E0,-6.580262184E-1,-7.763513088E0,-3.955335855E0
8.238445374E0,-7.477570772E-1,-7.831110477E0,-3.868596077E0
8.243222093E0,-6.634100676E-1,-7.840681553E0,-4.070191383E0
8.247998811E0,-7.806583643E-1,-7.758727551E0,-4.520640373E0
8.252775530E0,-9.427721500E-1,-7.744968891E0,-4.644468784E0
8.257552249E0,-1.378864050E0,-7.721638680E0,-5.098506927E0
8.262328968E0,-1.317248821E0,-7.639684677E0,-5.070391178E0
8.267105686E0,-1.616351724E0,-7.558328629E0,-4.968098164E0
8.271882405E0,-1.777269006E0,-7.515257835E0,-4.827519894E0
8.276659124E0,-1.776670814E0,-7.414759159E0,-4.640281200E0
8.281435843E0,-1.695314884E0,-7.308278561E0,-4.487739086E0
8.286212561E0,-1.456032634E0,-7.264609337E0,-4.229912281E0
8.290989332E0,-1.229910851E0,-7.244868755E0,-3.914657831E0
8.295766051E0,-1.108475089E0,-7.287939548E0,-3.444468260E0
8.300529436E0,-1.200598717E0,-7.332206726E0,-3.035893679E0
8.305319488E0,-1.156331539E0,-7.356134892E0,-2.791825771E0
8.310096207E0,-1.161715388E0,-7.332206726E0,-2.844467878E0
8.314872926E0,-1.150349498E0,-7.230511665E0,-3.295515060E0
8.319649645E0,-9.786644578E-1,-7.085147858E0,-3.925425529E0
8.324426363E0,-9.272187948E-2,-6.735795975E0,-4.366901398E0
8.329203134E0,-1.483550072E-1,-6.870391846E0,-4.870590687E0
8.333979801E0,-2.368894368E-1,-6.615556240E0,-5.277968407E0
8.338756572E0,5.563312769E-2,-6.672386169E0,-5.763711452E0
8.343519957E0,3.792623878E-1,-6.926623344E0,-5.822933674E0
8.348310009E0,1.896311939E-1,-7.245467186E0,-5.898307800E0
8.353086728E0,-2.763710022E-1,-7.655836105E0,-6.040082455E0
8.357863447E0,-4.402793646E-1,-8.079963684E0,-5.875576019E0
8.362640166E0,-6.975077987E-1,-8.495717049E0,-5.365306377E0
8.367416884E0,-6.586244106E-1,-8.900103569E0,-4.649852753E0
8.372180322E0,-6.580262184E-1,-9.228518486E0,-3.901497364E0
8.376970322E0,-5.150550604E-1,-9.517452240E0,-3.254238844E0
8.381747041E0,-4.546363056E-1,-9.844670296E0,-2.860619545E0
8.386510478E0,-2.530409992E-1,-1.012403297E1,-2.770290375E0
8.391300530E0,-6.281159073E-2,-1.018086243E1,-2.843271494E0
8.396077249E0,-1.220339537E-1,-1.016650486E1,-3.150151014E0
8.400853968E0,-4.671986103E-1,-1.006122112E1,-3.488735437E0
8.405630686E0,-6.029912829E-1,-9.859027863E0,-3.829712629E0
8.410407405E0,-4.067798555E-1,-9.651450157E0,-4.334000111E0
8.415170843E0,-1.429711580E-1,-9.366106033E0,-5.315057278E0
8.419960843E0,1.220339537E-1,-9.147761345E0,-6.348158360E0
8.424737561E0,4.247260094E-1,-9.035896301E0,-7.266404152E0
8.429500999E0,2.961117923E-1,-9.118449211E0,-7.395616531E0
8.434290999E0,1.411765367E-1,-9.466006279E0,-6.516254425E0
8.439067770E0,-3.487538993E-1,-9.882357597E0,-5.011168957E0
8.443831155E0,-8.273184299E-1,-1.016829967E1,-3.342773199E0
8.448621207E0,-1.092921734E0,-1.029452133E1,-1.729412556E0
8.453397926E0,-1.205384374E0,-1.018505001E1,-6.059823632E-1
8.458161311E0,-8.853443861E-1,-9.967302322E0,-2.231307179E-1
8.462951363E0,-4.654040039E-1,-9.610174179E0,-6.245267391E-1
8.467728082E0,1.214357466E-1,-9.212367058E0,-1.750947952E0
8.472504801E0,3.577269912E-1,-8.778069496E0,-3.340380430E0
8.477281520E0,3.475574851E-1,-8.411369324E0,-4.765904427E0
8.482058291E0,2.841476798E-1,-8.155936241E0,-5.730212212E0
8.486821676E0,-7.118647546E-2,-8.035696983E0,-6.237490654E0
8.491611728E0,-3.702892959E-1,-8.031509399E0,-6.044270039E0
8.496388447E0,-7.022934556E-1,-8.139185905E0,-5.202594757E0
8.501165166E0,-1.041476011E0,-8.343173981E0,-4.010370731E0
8.505941884E0,-1.100698471E0,-8.541180611E0,-2.882154942E0
8.510718603E0,-8.195417523E-1,-8.670392990E0,-2.029113531E0
8.515482041E0,-4.791627228E-1,-8.684749603E0,-1.657029629E0
8.520272041E0,-6.939185411E-2,-8.712266922E0,-1.572682738E0
8.525048759E0,2.470589429E-1,-8.702097893E0,-1.948355794E0
8.529825530E0,2.817548811E-1,-8.701499939E0,-2.495713949E0
8.534602249E0,1.734796464E-1,-8.687142372E0,-3.128615618E0
8.539378968E0,-6.879365444E-2,-8.721240044E0,-3.823730469E0
8.544155686E0,-2.961117923E-1,-8.822337151E0,-4.398007870E0
8.548932405E0,-4.977070987E-1,-8.967103004E0,-4.852046013E0
8.553709124E0,-7.651050687E-1,-9.193822861E0,-5.096114159E0
8.558485843E0,-8.333004713E-1,-9.604191780E0,-4.802394867E0
8.563262561E0,-8.859425783E-1,-1.001874828E1,-4.307679176E0
8.568039280E0,-7.034898400E-1,-1.050568771E1,-3.482753277E0
8.572802718E0,-6.753742099E-1,-1.086700439E1,-2.983849764E0
8.577592770E0,-7.202396393E-1,-1.116072273E1,-2.671586514E0
8.582369488E0,-8.422735929E-1,-1.139222908E1,-2.554936409E0
8.587132874E0,-7.842476368E-1,-1.156152058E1,-2.507079840E0
8.591922926E0,-7.322037220E-1,-1.164766216E1,-2.555534601E0
8.596699645E0,-6.765705943E-1,-1.167637634E1,-2.781656265E0
8.601476363E0,-1.591227055E-1,-1.176191998E1,-3.047857761E0
8.606253082E0,2.596212626E-1,-1.203051376E1,-3.179463148E0
8.611029801E0,-1.621137410E-1,-1.213220882E1,-3.661616802E0
8.615806520E0,-6.843472719E-1,-1.214297676E1,-4.378865242E0
8.620583291E0,-9.487541914E-1,-1.227338600E1,-4.915455818E0
8.625359957E0,-8.913264275E-1,-1.247557926E1,-4.929812908E0
8.630123395E0,-9.397810698E-1,-1.283270741E1,-4.463810444E0
8.634913447E0,-1.134796143E0,-1.310788250E1,-3.857828379E0
8.639690166E0,-1.682752490E0,-1.329691505E1,-3.269193888E0
8.644453551E0,-1.409372568E0,-1.335434341E1,-2.934797049E0
8.649243603E0,-9.960124493E-1,-1.318505096E1,-2.951546669E0
8.654020322E0,-8.560323119E-1,-1.272204018E1,-3.159124136E0
8.658797041E0,-7.830511928E-1,-1.209033489E1,-3.317648649E0
8.663573759E0,-6.765705943E-1,-1.140598774E1,-3.458226919E0
8.668350478E0,-6.891329288E-1,-1.079402256E1,-3.621536970E0
8.673113916E0,-5.814558864E-1,-1.034596729E1,-3.656233072E0
8.677903968E0,-3.439682424E-1,-1.000319481E1,-3.561716557E0
8.682680686E0,-2.057827413E-1,-9.790832520E0,-3.346362352E0
8.687444072E0,-5.473581553E-1,-9.580264091E0,-3.100499868E0
8.692234124E0,-6.981059909E-1,-9.344570160E0,-2.730210543E0
8.697010843E0,-6.143572330E-1,-9.190233231E0,-2.255235434E0
8.701774280E0,-6.023930907E-1,-9.089137077E0,-1.771286964E0
8.706564280E0,-7.381857634E-1,-8.988637924E0,-1.381256819E0
8.711340999E0,-8.183453679E-1,-8.825327873E0,-1.146162033E0
8.716104436E0,-1.377069473E0,-8.532805443E0,-1.272981644E0
8.720894488E0,-1.406381488E0,-8.291728973E0,-1.335195065E0
8.725671207E0,-1.445863128E0,-8.118846893E0,-1.406979680E0
8.730434593E0,-1.504487276E0,-7.993224144E0,-1.584646821E0
8.735224645E0,-1.792224169E0,-7.858627796E0,-1.957927108E0
8.740001363E0,-2.103889227E0,-7.777271748E0,-2.358724833E0
8.744778082E0,-2.200200319E0,-7.816154957E0,-2.598007202E0
8.749554801E0,-2.143370867E0,-8.008178711E0,-2.718844652E0
8.754331520E0,-2.204387903E0,-8.350951195E0,-2.775674343E0
8.759108238E0,-2.245664120E0,-8.779864311E0,-2.775674343E0
8.763884957E0,-2.401795626E0,-9.266803741E0,-2.721835852E0
8.768661728E0,-1.984248161E0,-9.738189697E0,-2.478366137E0
8.773425113E0,-1.209571838E0,-1.026580715E1,-2.121835470E0
8.778215166E0,-8.057830334E-1,-1.080479050E1,-1.735394597E0
8.782991884E0,-7.040880919E-1,-1.113260746E1,-1.534397483E0
8.787755270E0,-3.320041299E-1,-1.124686432E1,-1.444068432E0
8.792545322E0,-1.417747438E-1,-1.125164986E1,-1.445264935E0
8.797322041E0,-1.232303679E-1,-1.114516926E1,-1.478764415E0
8.802098759E0,-3.481557071E-1,-1.091007519E1,-1.593619823E0
8.806875478E0,-5.934200287E-1,-1.054457092E1,-1.789233088E0
8.811652249E0,-7.381857634E-1,-1.009172916E1,-1.985444546E0
8.816428968E0,-6.735795736E-1,-9.686744690E0,-2.091925144E0
8.821205686E0,-7.082754970E-1,-9.340383530E0,-2.144567251E0
8.825982405E0,-9.092726111E-1,-9.046664238E0,-2.177468538E0
8.830759124E0,-1.191027522E0,-8.733802795E0,-2.190629244E0
8.835535843E0,-1.620539188E0,-8.455636978E0,-2.197807550E0
8.840312561E0,-1.906481385E0,-8.148159027E0,-2.163111687E0
8.845075999E0,-1.792822361E0,-7.911269665E0,-2.072782516E0
8.849865999E0,-1.859223247E0,-7.767102242E0,-1.957328916E0
8.854642718E0,-1.981855392E0,-7.709674358E0,-1.817947030E0
8.859419488E0,-2.148156643E0,-7.676773071E0,-1.749751568E0
8.864196207E0,-2.337787628E0,-7.706085205E0,-1.652842283E0
8.868972926E0,-2.341975212E0,-7.783253670E0,-1.575673699E0
8.873749645E0,-2.517847538E0,-7.879564762E0,-1.575075507E0
8.878526363E0,-2.965305567E0,-7.890332699E0,-1.644467354E0
8.883303082E0,-2.540579557E0,-8.102097511E0,-1.482951880E0
8.888079801E0,-2.461616278E0,-8.482556343E0,-1.214357495E0
8.892856520E0,-2.420938253E0,-8.901300430E0,-1.031904817E0
8.897633238E0,-2.529213428E0,-9.244071960E0,-9.978070259E-1
8.902410009E0,-2.542972326E0,-9.455837250E0,-1.050449133E0
8.907186728E0,-2.529213428E0,-9.552147865E0,-1.165304661E0
8.911963447E0,-2.267199516E0,-9.633503914E0,-1.210170031E0
8.916740166E0,-1.849053741E0,-9.848857880E0,-1.380060434E0
8.921516884E0,-1.616351724E0,-1.003609657E1,-1.592423439E0
8.926293603E0,-1.374676585E0,-1.017009449E1,-1.809572101E0
8.931070322E0,-1.513460279E0,-1.016112137E1,-1.947757602E0
8.935847041E0,-1.609173179E0,-1.008395290E1,-1.942373753E0
8.940623811E0,-1.613958836E0,-9.886545181E0,-1.875374794E0
8.945400530E0,-1.462014675E0,-9.655039787E0,-1.761715651E0
8.950177249E0,-1.272383451E0,-9.413962364E0,-1.724028707E0
8.954953968E0,-1.101296663E0,-9.215357780E0,-1.730010748E0
8.959730686E0,-1.173081279E0,-9.095118523E0,-1.792224169E0
8.964507405E0,-1.440479279E0,-9.038289070E0,-1.829312921E0
8.969284124E0,-1.759322882E0,-9.082556725E0,-1.884945989E0
8.974060843E0,-2.115853310E0,-9.232706070E0,-1.964507341E0
8.978837561E0,-2.324627161E0,-9.493523598E0,-2.039881229E0
8.983614280E0,-2.415554523E0,-9.782457352E0,-2.140379906E0
8.988390999E0,-2.434098721E0,-1.008574772E1,-2.288734913E0
8.993167770E0,-2.382653236E0,-1.036092186E1,-2.504687071E0
8.997944488E0,-2.258226395E0,-1.061097240E1,-2.682952404E0
9.002721207E0,-2.026122570E0,-1.078325558E1,-2.861815929E0
9.007497926E0,-1.703091502E0,-1.090289593E1,-2.983251572E0
9.012274645E0,-1.484746456E0,-1.096510983E1,-3.094517946E0
9.017051363E0,-1.389631748E0,-1.103210926E1,-3.157329559E0
9.021828082E0,-1.370489120E0,-1.107518005E1,-3.176471949E0
9.026604801E0,-1.308874011E0,-1.114756203E1,-3.181855917E0
9.031381520E0,-1.241874933E0,-1.126301575E1,-3.162713289E0
9.036158291E0,-1.169492126E0,-1.135394382E1,-3.177070379E0
9.040935009E0,-1.126421213E0,-1.137846947E1,-3.158525944E0
9.045711728E0,-1.078564763E0,-1.136351490E1,-3.034099102E0
9.050488447E0,-9.397810698E-1,-1.118046379E1,-2.876770973E0
9.055265166E0,-7.680960894E-1,-1.086221886E1,-2.623131752E0
9.060041884E0,-5.730810165E-1,-1.037587738E1,-2.273779631E0
9.064818603E0,-5.485545993E-1,-9.802198410E0,-1.862214208E0
9.069595322E0,-6.568298340E-1,-9.220144272E0,-1.434497118E0
9.074358759E0,-7.848458290E-1,-8.705088615E0,-1.050449133E0
9.079148811E0,-9.744769931E-1,-8.300702095E0,-7.764709592E-1
9.083925530E0,-1.226321578E0,-7.992625713E0,-6.023930907E-1
9.088688916E0,-1.360319614E0,-7.814958572E0,-4.630111754E-1
9.093478968E0,-1.625923038E0,-7.810771465E0,-3.601198196E-1
9.098255686E0,-2.033301115E0,-8.042875290E0,-2.380858511E-1
9.103032405E0,-2.426920414E0,-8.477770805E0,-2.452643216E-1
9.107809124E0,-2.717050076E0,-9.070592880E0,-5.078766346E-1
9.112585843E0,-2.898306370E0,-9.808179855E0,-1.057627559E0
9.117349280E0,-2.800798893E0,-1.062233829E1,-1.801795483E0
9.122139280E0,-2.365305185E0,-1.147358418E1,-2.595016241E0
9.126916051E0,-1.832303882E0,-1.233380413E1,-3.139383316E0
9.131679436E0,-1.335793257E0,-1.307976723E1,-3.213560820E0
9.136469488E0,-9.415757060E-1,-1.362293720E1,-2.827120066E0
9.141246207E0,-7.082754970E-1,-1.385444355E1,-2.170290232E0
9.146009593E0,-5.910272002E-1,-1.371984673E1,-1.528415442E0
9.150799645E0,-6.047859192E-1,-1.320897961E1,-1.197009563E0
9.155576363E0,-6.317051649E-1,-1.239003563E1,-1.255035520E0
9.160353082E0,-6.879364848E-1,-1.145025444E1,-1.475773335E0
9.165129853E0,-8.829515576E-1,-1.062233829E1,-1.768894196E0
9.169906572E0,-1.353141189E0,-1.000139999E1,-2.015953064E0
9.174669957E0,-1.925624013E0,-9.555138588E0,-2.147558212E0
9.179460009E0,-2.393420935E0,-9.291330338E0,-2.198405743E0
9.184236728E0,-2.784049034E0,-9.123234749E0,-2.162513494E0
9.189000113E0,-3.064607620E0,-8.974879265E0,-2.094317913E0
9.193790166E0,-3.064009428E0,-8.844470978E0,-1.954936147E0
9.198566884E0,-2.939582586E0,-8.738588333E0,-1.778465390E0
9.203330322E0,-2.833700180E0,-8.690134048E0,-1.563111424E0
9.208120374E0,-2.717648268E0,-8.704490662E0,-1.275374413E0
9.212897093E0,-2.587837696E0,-8.742775917E0,-9.834501147E-1
9.217673811E0,-2.338385820E0,-8.727820396E0,-7.256234884E-1
9.222450530E0,-1.990828395E0,-8.602197647E0,-5.647061467E-1
9.227227249E0,-1.605584025E0,-8.394021988E0,-4.420739710E-1
9.232003968E0,-1.296311617E0,-8.104490280E0,-3.182454109E-1
9.236780686E0,-1.043868899E0,-7.800003529E0,-2.099701911E-1
9.241557405E0,-9.966106415E-1,-7.525427341E0,-1.142572835E-1
9.246320843E0,-1.025922656E0,-7.280162811E0,-1.046859920E-1
9.251110895E0,-1.150947690E0,-7.092326164E0,-1.615155339E-1
9.255887613E0,-1.342373490E0,-7.025327206E0,-2.709871531E-1
9.260664332E0,-1.528415442E0,-7.102495670E0,-4.145565331E-1
9.265441051E0,-1.718644857E0,-7.310073376E0,-5.330012441E-1
9.270217770E0,-1.922633052E0,-7.743772507E0,-6.664010882E-1
9.274994488E0,-2.188236237E0,-8.289336205E0,-7.986045480E-1
9.279771207E0,-2.416152716E0,-8.785846710E0,-9.744769931E-1
9.284547926E0,-2.444268227E0,-9.233902931E0,-1.170688510E0
9.289311363E0,-2.220539331E0,-9.565906525E0,-1.329811215E0
9.294101416E0,-1.930409670E0,-9.690333366E0,-1.408176184E0
9.298878134E0,-1.834696770E0,-9.646664619E0,-1.332203984E0
9.303654853E0,-1.981855392E0,-9.468997002E0,-1.134796143E0
9.308431572E0,-2.362314224E0,-9.161520004E0,-9.505487680E-1
9.313208291E0,-2.762513638E0,-8.830113411E0,-8.865407705E-1
9.317985009E0,-2.921038151E0,-8.618349075E0,-9.768698215E-1
9.322761728E0,-2.969492912E0,-8.599205971E0,-1.110867858E0
9.327538447E0,-3.046063185E0,-8.767900467E0,-1.287936807E0
9.332315166E0,-3.189034462E0,-9.105288506E0,-1.503290772E0
9.337091884E0,-3.221935749E0,-9.553344727E0,-1.742573142E0
9.341868655E0,-3.031706333E0,-1.003908730E1,-1.987837434E0
9.346632041E0,-2.527418852E0,-1.047697353E1,-2.163111687E0
9.351422093E0,-1.878963947E0,-1.079761219E1,-2.151745796E0
9.356198811E0,-1.268794179E0,-1.088315582E1,-1.905285001E0
9.360962249E0,-7.992027402E-1,-1.075214863E1,-1.427916884E0
9.365752249E0,-6.257231236E-1,-1.042014408E1,-8.632107973E-1
9.370528968E0,-8.099704385E-1,-9.952945709E0,-3.583251834E-1
9.375292405E0,-1.194616675E0,-9.463015556E0,8.374879137E-3
9.380082457E0,-1.552343726E0,-8.976674080E0,1.776670814E-1
9.384859176E0,-1.886142492E0,-8.650053978E0,1.836491376E-1
9.389635895E0,-2.224726915E0,-8.496912956E0,8.015955985E-2
9.394412613E0,-2.701496840E0,-8.507680893E0,-7.118647546E-2
9.399189332E0,-3.148954630E0,-8.681758881E0,-2.171486616E-1
9.403952770E0,-3.520440340E0,-8.933005333E0,-3.254238665E-1
9.408742770E0,-3.733999729E0,-9.198608398E0,-4.109672904E-1
9.413519488E0,-3.761517286E0,-9.473783493E0,-4.205385745E-1
9.418296259E0,-3.532404423E0,-9.723235130E0,-3.248256743E-1
9.423072978E0,-3.215953588E0,-9.900901794E0,-1.489532143E-1
9.427849697E0,-2.918645382E0,-1.004028416E1,1.519442350E-1
9.432626416E0,-2.579462767E0,-1.001994514E1,4.761717021E-1
9.437403134E0,-2.310868502E0,-9.884750366E0,8.303094506E-1
9.442179853E0,-2.119442701E0,-9.638887405E0,1.126421213E0
9.446943291E0,-2.014756680E0,-9.326025963E0,1.341775298E0
9.451733291E0,-1.953739643E0,-8.992825508E0,1.389033556E0
9.456510009E0,-1.883749604E0,-8.679366112E0,1.326221943E0
9.461286728E0,-1.919043779E0,-8.458029747E0,1.095912814E0
9.466063499E0,-2.078166485E0,-8.285148621E0,8.087740541E-1
9.470840218E0,-2.347358942E0,-8.155337334E0,4.115654826E-1
9.475616936E0,-2.626721144E0,-8.102695465E0,-4.307080805E-2
9.480393655E0,-2.819941521E0,-8.088338852E0,-5.174478889E-1
9.485170374E0,-2.898306370E0,-8.155936241E0,-9.439685345E-1
9.489933811E0,-2.894717216E0,-8.300702095E0,-1.226919770E0
9.494723811E0,-2.824128866E0,-8.468797684E0,-1.447657704E0
9.499500582E0,-2.758326292E0,-8.675776482E0,-1.645065546E0
9.504263968E0,-2.797209740E0,-8.911469460E0,-1.869990945E0
9.509054020E0,-3.110071182E0,-9.240483284E0,-1.950150490E0
9.513830738E0,-3.422932863E0,-9.577870369E0,-1.957328916E0
9.518607457E0,-3.626920938E0,-9.925428391E0,-1.975275040E0
9.523384176E0,-3.754936934E0,-1.022393322E1,-2.022533417E0
9.528160895E0,-3.759124279E0,-1.050389290E1,-2.089532375E0
9.532924332E0,-3.620340586E0,-1.073958588E1,-2.109273195E0
9.537714384E0,-3.554538012E0,-1.087896824E1,-2.272583246E0
9.542491103E0,-3.588635683E0,-1.099920750E1,-2.473580360E0
9.547267822E0,-3.546163082E0,-1.112423229E1,-2.647060156E0
9.552044541E0,-3.418147087E0,-1.125882912E1,-2.810968399E0
9.556821259E0,-3.275774240E0,-1.140299606E1,-2.916850805E0
9.561597978E0,-3.142374277E0,-1.157169056E1,-3.047259569E0
9.566374697E0,-3.086143017E0,-1.166261768E1,-3.166900873E0
9.571151416E0,-3.081357241E0,-1.165783215E1,-3.224926710E0
9.575928134E0,-2.938984394E0,-1.153699398E1,-3.196810961E0
9.580704853E0,-2.606382132E0,-1.124686432E1,-3.045464993E0
9.585481624E0,-2.234298229E0,-1.084187984E1,-2.769093990E0
9.590258343E0,-1.924427629E0,-1.040758228E1,-2.382055044E0
9.595035061E0,-1.757528186E0,-9.973882675E0,-2.028515339E0
9.599811780E0,-1.813161373E0,-9.641879082E0,-1.701895118E0
9.604588499E0,-1.941177368E0,-9.348159790E0,-1.470987678E0
9.609365218E0,-2.102692842E0,-9.102895737E0,-1.321436286E0
9.614141936E0,-2.221735716E0,-8.891130447E0,-1.244267821E0
9.618905374E0,-2.255833626E0,-8.727222443E0,-1.249053478E0
9.623695426E0,-2.190030813E0,-8.669196129E0,-1.307079315E0
9.628472145E0,-2.028515339E0,-8.688339233E0,-1.379462242E0
9.633248863E0,-1.719243050E0,-8.817551613E0,-1.429113269E0
9.638025582E0,-1.366899967E0,-9.014361382E0,-1.440479279E0
9.642802301E0,-1.018146038E0,-9.250054359E0,-1.403988719E0
9.647579020E0,-8.368897438E-1,-9.384052277E0,-1.337587833E0
9.652355738E0,-6.981059909E-1,-9.466006279E0,-1.237089276E0
9.657132457E0,-5.306084156E-1,-9.441479683E0,-1.094118118E0
9.661909176E0,-3.445664644E-1,-9.334999084E0,-9.421738982E-1
9.666685947E0,-2.350948304E-1,-9.165707588E0,-8.033902049E-1
9.671462666E0,-2.255235314E-1,-8.968298912E0,-6.885347366E-1
9.676239384E0,-2.494517565E-1,-8.770891190E0,-6.454638839E-1
9.681016103E0,-2.787638307E-1,-8.612366676E0,-6.406782866E-1
9.685792822E0,-3.505485058E-1,-8.539983749E0,-6.927221417E-1
9.690569541E0,-5.509474277E-1,-8.574081421E0,-7.974081635E-1
9.695346259E0,-8.410771489E-1,-8.705088615E0,-9.302098155E-1
9.700122978E0,-1.122233868E0,-8.950951576E0,-1.125224829E0
9.704899749E0,-1.188634634E0,-9.255437851E0,-1.302293777E0
9.709676468E0,-1.146162033E0,-9.543772697E0,-1.450648785E0
9.714453186E0,-1.040877819E0,-9.760323524E0,-1.537986755E0
9.719229905E0,-9.170492887E-1,-9.817750931E0,-1.538584948E0
9.724006624E0,-8.841479421E-1,-9.702297211E0,-1.490728498E0
9.728783343E0,-9.750752449E-1,-9.457033157E0,-1.442273855E0
9.733560061E0,-1.128215909E0,-9.230911255E0,-1.456032634E0
9.738336780E0,-1.367498159E0,-9.086145401E0,-1.589432478E0
9.743113499E0,-1.630708575E0,-9.101100922E0,-1.828116536E0
