Time (s),Acceleration x (m/s^2),Acceleration y (m/s^2),Acceleration z (m/s^2)
9.000315802,0.45902842969943847,-0.6651695227374279,0.33793112177937684
9.002315768,0.6093299945454554,-0.7105813248105033,0.3112699058002364
9.004316401,0.7594413528893812,-0.7607461685149677,0.2828358271177272
9.006316767,0.9090353030998625,-0.8161059318069265,0.25249213510973534
9.008316767,1.0577947224002415,-0.8770785546275398,0.22012121510431512
9.0103168,1.2054142519402142,-0.9440526786013087,0.1856268057594101
9.012316133,1.3516018683008586,-1.0173824019071254,0.14893601213317895
9.014316166,1.496080328124858,-1.0973822059364586,0.11000108546181007
9.016316199,1.6385884735478125,-1.184322108977533,0.06880094256348611
9.018316232,1.7788823872087127,-1.2784231001177202,0.025342400009836594
9.020316265,1.916736386816185,-1.3798529038936964,-0.020338899237077313
9.022316265,2.0519438505111482,-1.4887221230002112,-0.06817788612056928
9.024316265,2.184317865577188,-1.6050808026634835,-0.118079808855417
9.026316231,2.313691694414316,-1.7289154561773799,-0.1699203318794674
9.028316197,2.4399190531295605,-1.8601465866764701,-0.22354599893297522
9.030316163,2.5628741996189617,-1.9986267355524194,-0.27877506451501405
9.032316129,2.6824518296156055,-2.144139083058076,-0.3353986933991628
9.034316929,2.798566780851579,-2.2963966216195257,-0.3931825231006506
9.036316895,2.911153547231468,-2.4550419172197975,-0.4518685792297046
9.038316895,3.0201656067452567,-2.6196474689630733,-0.5111775286066212
9.040316928,3.125574568745441,-2.7897166716124335,-0.5708112499354903
9.042316961,3.2273691481375084,-2.964685380556435,-0.6304556968364357
9.044317894,3.325553975930922,-3.143924073350663,-0.6897840232383906
9.046317927,3.4201482574131425,-3.3267405967696084,-0.7484599366654652
9.04831796,3.5111842908899096,-3.512383483265476,-0.8061412409382642
9.050317993,3.5987058614384626,-3.70004581591363,-0.8624835263697909
9.052318026,3.6827665254205497,-3.8888696163503464,-0.9171439627596634
9.054318059,3.763427802590958,-4.077950725888202,-0.9697851484593119
9.056318059,3.840757293523027,-4.266344145939564,-1.0200789675458874
9.058318059,3.9148267407758848,-4.45306980010148,-1.0677104067209204
9.060318059,3.9857100527745324,-4.637118676769935,-1.1123812839243283
9.062318059,4.053481309783986,-4.817459307977254,-1.1538138417699593
9.064318059,4.1182127716519465,-4.99304453730806,-1.1917541606817086
9.066318059,4.179972907206295,-5.162818527274232,-1.2259753489596625
9.068318059,4.238824465372819,-5.325723954441248,-1.2562804698798264
9.070318025,4.294822608253437,-5.480709338900157,-1.2825051692950995
9.072317991,4.348013126558301,-5.626736453353755,-1.3045199710373023
9.074318391,4.39843075786761,-5.7627877561222824,-1.3222322117077383
9.076317691,4.4460976281546785,-5.887873791789289,-1.3355875911640915
9.078317657,4.491021836773887,-6.001040503026291,-1.3445713200965665
9.080317623,4.533196204650071,-6.101376397366527,-1.3492088514163527
9.082317589,4.5725972046529435,-6.188019513342659,-1.349566187615315
9.084317555,4.60918409206646,-6.260164131456895,-1.3457497616689915
9.086317555,4.642898251642063,-6.317067176907309,-1.3379058943314368
9.088317588,4.673662775941658,-6.358054262839166,-1.326219835702872
9.090317621,4.701382287537384,-6.382525325113469,-1.310914403643111
9.092317654,4.725943015170538,-6.389959802183498,-1.2922482358836909
9.094317687,4.747213131228009,-6.379921316653172,-1.2705136765275877
9.09631772,4.765043354933153,-6.352061818475049,-1.2460343210297045
9.098317753,4.779267822544256,-6.306125153538833,-1.2191622467582934
9.100317753,4.789705222681373,-6.241950025590177,-1.190274958864822
9.102317753,4.796160191713074,-6.159472323967706,-1.1597720834243965
9.104318486,4.7984249609515235,-6.05872679450021,-1.128071841633823
9.106318452,4.796281244232811,-5.939848036002798,-1.0956073402844657
9.108318418,4.789502351308481,-5.803070810089081,-1.0628227148122196
9.110318051,4.777855509371949,-5.648729657426446,-1.0301691620249531
9.112318017,4.7611043720410064,-5.477257819062915,-0.9981009001551678
9.114317983,4.739011692277642,-5.289185467004534,-0.967071094181777
9.116317983,4.7113421331043055,-5.085137253770582,-0.9375277843714784
9.118317983,4.677865187607812,-4.86582919614964,-0.9099098556519073
9.120318016,4.638358177634718,-4.63206491378406,-0.8846430847113343
9.122318049,4.592609298809794,-4.384731248488699,-0.8621363006301264
9.124318282,4.540420678103194,-4.124793295301905,-0.8427776934201174
9.126318315,4.481611409190205,-3.853288881079566,-0.8269313031145386
9.128318348,4.416020530339218,-3.571322530885275,-0.8149337200458207
9.130319114,4.343509909560208,-3.280058966444057,-0.8070910247037606
9.132319147,4.263967002262468,-2.9807161844843137,-0.8036759931121635
9.134318713,4.177307447709193,-2.674558165862946,-0.804925591027223
9.136319379,4.08347747211037,-2.3628872689104226,-0.8110387774800705
9.138319379,3.98245606824609,-2.047036362410139,-0.8221746353003442
9.140319379,3.8742569240276654,-1.728360755034637,-0.8384508433094048
9.142319379,3.7589300753398325,-1.4082299789255082,-0.859942501897038
9.144319379,3.6365632618159203,-1.0880194854551664,-0.8866813207211406
9.146319379,3.5072829678269852,-0.7691023110688122,-0.9186551743169543
9.148319345,3.3712551348488007,-0.45284077049658206,-0.9558080284916439
9.150319411,3.2286855354152597,-0.1405782335859453,-0.9980402375343561
9.152319377,3.0798198029599457,0.16636895942397972,-1.0452092095136714
9.154319343,2.924943115875267,0.46671939114585476,-1.0971304342784605
9.156319309,2.7643795379884866,0.7592342178698156,-1.1535788662254574
9.158319275,2.5984910213063097,1.0427245294391139,-1.21429065143325
9.160319241,2.4276760802857207,1.3160583723263894,-1.2789651863625533
9.162319207,2.252368150034984,1.5781673930063231,-1.347267492954305
9.16431844,2.0730336437087895,1.8280530619098445,-1.4188308925888624
9.166318473,1.890169726894259,2.064792441674209,-1.4932599589841569
9.168318506,1.704301828971992,2.287543467072499,-1.5701337277162706
9.170318872,1.515980913310782,2.4955497078825766,-1.6490091376768456
9.172318905,1.3257805297708607,2.688144589959291,-1.7294246774931534
9.174318938,1.1342936743754335,2.8647550538153945,-1.81090420780021
9.176318971,0.9421294821476607,3.0249046340343284,-1.8929609283466844
9.178319004,0.7499097799686987,3.1682159467924165,-1.9751014572939536
9.180319004,0.5582655268743493,3.2944125766248895,-2.056829988746473
9.18231897,0.36783316947217853,3.4033203573019657,-2.1376524935152066
9.184318736,0.17925094013588425,3.494868045276042,-2.217080927343913
9.186318702,-0.006844874657031425,3.5690873876216225,-2.2946374103173923
9.188318668,-0.1898236689833778,3.6261125897213327,-2.369858340935482
9.190317901,-0.3690642289133573,3.6661791911511408,-2.4422984084014345
9.192317867,-0.5439583952317896,3.6896223612716867,-2.511534467074824
9.194317867,-0.7139146526816045,3.6968746289228474,-2.5771692378239504
9.196317867,-0.8783616217113455,3.688463063336567,-2.638834802218462
9.198317867,-1.0367514294516211,3.6650059259372596,-2.6961958571356948
9.200317867,-1.1885629374030495,3.627208815114172,-2.7489526993911633
9.202317867,-1.3333048041164282,3.575860328351089,-2.7968439124179607
9.204317867,-1.4705183620232012,3.5118272682933904,-2.8396487297979647
9.206317867,-1.5997802885728518,3.436049421408201,-2.877189053577506
9.208317867,-1.7207050529840833,3.349533939831815,-2.9093311087450955
9.2103177,-1.8329471212310073,3.253349358790301,-2.9359867189358475
9.212317733,-1.9362029033711188,3.148619283621191,-2.957114192258564
9.214317766,-2.030212428998161,3.03651578190777,-2.9727188100204405
9.216317799,-2.114760738496897,2.9182525175443175,-2.9828529149725
9.218317832,-2.189678979896429,2.7950776646631845,-2.987615599454728
9.220317865,-2.2548452034410817,2.668266640269001,-2.987151997433033
9.222317898,-2.3101848484795675,2.5391146951481116,-2.98165218784298
9.224317931,-2.3556709198617574,2.408929403150165,-2.9713497198296865
9.226317931,-2.3913238536672465,2.279023089252536,-2.956519773329931
9.228317897,-2.4172110747034052,2.1507052368937756,-2.937476970928061
9.230317863,-2.433446250735707,2.025274914895682,-2.9145728590221682
9.232317829,-2.4401882507945425,1.9040132638991507,-2.8881930780899063
9.234317395,-2.4376398171065774,1.7881760816292955,-2.858754243286123
9.236317361,-2.4260459622192103,1.6789865454790618,-2.8267005577803275
9.238317327,-2.405692104747556,1.5776281098488145,-2.792500182201838
9.240317293,-2.3769019589216724,1.4852376143991186,-2.7566413843645914
9.242317293,-2.340035194803377,1.402898637870162,-2.7196284941476327
9.244317326,-2.295484887720395,1.3316351304040004,-2.681977689043995
9.246317359,-2.243674777142039,1.2724053553948067,-2.64421263646534
9.248317392,-2.185056356870391,1.2260961698193182,-2.6068600193930185
9.250317425,-2.1201058199967977,1.1935176697965615,-2.570444972391276
9.252317558,-2.0493208835209273,1.1753982258132916,-2.5354864553508265
9.254317591,-1.9732175187955037,1.1723799296430961,-2.5024925926309303
9.256317624,-1.8923266149991713,1.18501447250158,-2.4719560055467893
9.258317657,-1.8071906036240182,1.2137594714450017,-2.4443491664375836
9.260317657,-1.7183600724828882,1.2589752584667808,-2.420119802862101
9.262317657,-1.6263903979905494,1.3209221442102712,-2.3996863807925193
9.264317323,-1.531838424429084,1.3997581657385822,-2.383433695989018
9.266317323,-1.43525921852202,1.4955373254273365,-2.3717086030162116
9.268317323,-1.337202926865614,1.6082083258079818,-2.3648159115883542
9.270317389,-1.2382117625876738,1.7376138031028807,-2.363014480087101
9.272317355,-1.138817146051242,1.8834900602617728,-2.366513536165686
9.274317321,-1.0395370225306988,2.045467298535031,-2.3754692543112808
9.276317287,-0.9408733775889693,2.2230703450099023,-2.3899816200452637
9.278317253,-0.8433099683949518,2.4157198720966817,-2.4100916100574423
9.280317219,-0.7473102864673515,2.6227341036739564,-2.4357787169622336
9.282317185,-0.6533157643624327,2.84333100146271,-2.466958846510688
9.284317151,-0.5617442357014011,3.076630924173353,-2.5034826139686905
9.286317117,-0.4729886547231314,3.3216597510426293,-2.5451340649450316
9.288317117,-0.3874160783110457,3.5773524605418325,-2.5916298441902295
9.29031715,-0.305366910239238,3.8425571542841386,-2.6426188337743275
9.292317183,-0.22715440427340594,4.116039515467858,-2.6976822795981614
9.294317216,-0.15306441980347574,4.396487690535026,-2.756334422416273
9.296317249,-0.0833554209215858,4.682517582065028,-2.8180236464731014
9.298317282,-0.01825870732157103,4.972678540225814,-2.882134155508863
9.300317548,0.0420211368972078,5.2654594393452,-2.9479881823201013
9.302317348,0.0973055924783144,5.559295125324129,-3.0148487343084276
9.304317348,0.14744137004920504,5.852573218673523,-3.081922873561425
9.306316414,0.19229941022633576,6.14364125689064,-3.1483655260169514
9.30831638,0.23177373934069348,6.4308141586672605,-3.2132838101930212
9.310316346,0.26578020238241284,6.712381991002927,-3.2757418718391604
9.312316212,0.2942550955667242,6.986618018648193,-3.334766206694152
9.314316178,0.3171537214897784,7.251787013416272,-3.3893514493305936
9.316316144,0.3344488901650297,7.506153798799914,-3.438466601844713
9.31831611,0.34612938928974857,7.74799200305163,-3.481061671933249
9.32031611,0.35219844686457746,7.975592991462127,-3.5160746857180216
9.322316143,0.3526722087667017,8.187274946029738,-3.54243903657221
9.324316543,0.34757825306848583,8.381392058077143,-3.559091127217612
9.326316576,0.3369541618239276,8.55634379666634,-3.56497825855157
9.328316609,0.32084616975004304,8.71058421291514,-3.5590667150775763
9.330315875,0.2993079077453006,8.842631237555619,-3.540349993499189
9.332315908,0.272399257539629,8.951075926328656,-3.507857118024657
9.334315941,0.2401853319744643,9.034591605118575,-3.4606609832433053
9.336315974,0.20273559347472825,9.091942864145937,-3.397886663100697
9.338315974,0.16012312121090896,9.12199434810587,-3.3187196225512627
9.340315974,0.11242403528182959,9.123719286914524,-3.222413766938673
9.342315974,0.05971708400387416,9.096207709760932,-3.1082992630732176
9.344315974,0.0020833980892653336,9.038674283511389,-2.9757900653631886
9.346315974,-0.06039358686096037,8.95046571522703,-2.824391080236175
9.348315974,-0.1276280405403963,8.831067657668102,-2.6537049024806025
9.35031594,-0.19953148426773532,8.680111056198983,-2.463438058069457
9.352315906,-0.2760123794639765,8.497377875510757,-2.253406689514793
9.354315972,-0.35697556682542936,8.282806145083281,-2.0235416218596476
9.356315938,-0.44232156727405214,8.036494263354689,-1.7738927500538761
9.358315904,-0.5319457582413575,7.758704502184251,-1.504632691685531
9.360315637,-0.6257374412101633,7.4498656554165725,-1.216059652855587
9.362315837,-0.7235788186407011,7.110574778217211,-0.9085994594072413
9.364315803,-0.825343900381719,6.7415979673819715,-0.5828067107685111
9.366316703,-0.930897361355172,6.343870137041679,-0.23936501934534973
9.368316703,-1.040093373650318,5.918493749109242,0.12091369529040434
9.370316736,-1.1527744371229867,5.466736463474489,0.4970908812544286
9.372316769,-1.2687702331486244,4.9900276793698,0.8881040145894685
9.374316802,-1.3878965263421899,4.489953946501564,1.2927702532361212
9.376316835,-1.50995413887331,3.9682532324245177,1.7097910846432645
9.378317201,-1.6347280214973878,3.4268080411579422,2.1377579581190957
9.380317234,-1.7619864445942246,2.867637387131649,2.5751588839046775
9.382317234,-1.891480331349753,2.2928876381347747,3.0203859715841976
9.384317167,-2.022942753738232,1.7048222509436393,3.471743870913358
9.386317133,-2.1560886101774686,1.1058104336399617,3.9274590685589885
9.388317099,-2.290614501660365,0.4983147792155346,4.385689984719218
9.390317832,-2.426198820836658,-0.1151220741765239,4.844537804245933
9.392317798,-2.5625020659529607,-0.7318916900926586,5.302057967825211
9.394317764,-2.699167388781061,-1.3493349106689014,5.756272240102241
9.39631773,-2.835821382699122,-1.9647576755564307,6.205181263498222
9.39831773,-2.9720751139599924,-2.575447484378645,6.646777498996228
9.400317763,-3.107525395898576,-3.1786903938878175,7.079058448485009
9.402317796,-3.2417563024058857,-3.771788431179315,7.500040047441955
9.404317829,-3.3743409134553892,-4.352077295081492,7.907770111954837
9.406317862,-3.5048432818597073,-4.916944209337832,8.300341720533568
9.408317895,-3.6328206068343074,-5.463845783626748,8.675906409017966
9.410317928,-3.7578255964207146,-5.990325731989288,9.03268705620331
9.412317961,-3.8794089974394934,-6.494032292986841,9.368990338608382
9.414317394,-3.9971222684730314,-6.97273519207068,9.683218635232453
9.416317394,-4.110520368501998,-7.424341984472704,9.973881267414976
9.418317394,-4.219164631319202,-7.846913616654236,10.239604965175133
9.420317394,-4.322625693789891,-8.23867904608782,10.47914345961616
9.422317394,-4.420486444476797,-8.598048762926139,10.691386110913495
9.424317394,-4.51234495815272,-8.923627062979095,10.875365492778728
9.426317394,-4.597817381320415,-9.214222929464515,11.030263866783315
9.428317394,-4.676540734056028,-9.468859391288735,11.155418493187303
9.43031736,-4.748175594254772,-9.686781238118467,11.250325738596636
9.432317326,-4.81240863162564,-9.867460987089224,11.31464395456645
9.434317292,-4.868954960492836,-10.0106030124649,11.34819511495529
9.436317258,-4.917560282557469,-10.11614576768397,11.3509652132488
9.438316891,-4.958002793192905,-10.184262048729137,11.323103434046079
9.440316857,-4.990094827527296,-10.215357268358092,11.264920125241428
9.442316823,-5.013684225450524,-10.210065732155046,11.176883608916732
9.444316823,-5.028655397730486,-10.169244929309546,11.059615879374208
9.446316823,-5.034930078618073,-10.093967873167355,10.913887245922616
9.448316856,-5.032467753662722,-9.985513548581286,10.740609985892236
9.450316889,-5.021265754960667,-9.845355544606948,10.54083107989691
9.452316922,-5.001359019731755,-9.67514897187526,10.315724106665892
9.454316955,-4.972819512001391,-9.476715783769949,10.066580378929004
9.456316988,-4.935755311297852,-9.252028639066065,9.794799404926465
9.458317021,-4.890309376689547,-9.003193460694938,9.501878762220475
9.460317021,-4.836657999155675,-8.732430860604275,9.18940347176211
9.462316987,-4.775008960103455,-8.442056614089454,8.859034960788154
9.464316953,-4.705599418622471,-8.134461378198255,8.512499703202607
9.466316586,-4.628693554529978,-7.812089857519328,8.151577625665672
9.468316552,-4.544579998121608,-7.4774196266394,7.778090366656565
9.470316518,-4.453569080584719,-7.132939821800906,7.3938894742922106
9.472316484,-4.355989941167438,-6.781129914957058,7.000844626685032
9.47431735,-4.252187528444028,-6.424438781656888,6.60083195611766
9.47631735,-4.1425195334544025,-6.065264270100212,6.19572255529347
9.478317383,-4.027353292225309,-5.705933472369703,5.787371240392981
9.480317416,-3.907062694309041,-5.3486838903946055,5.377605641672344
9.482317449,-3.7820251325880516,-4.995645678776073,4.968215687962353
9.484317482,-3.6526185277448575,-4.648825134358171,4.560943546748973
9.486317515,-3.519218458532376,-4.310089588519772,4.157474076611055
9.488317548,-3.382195426367766,-3.9811538427648805,3.759425843716757
9.490317581,-3.24191227990572,-3.66356827147201,3.368342748876197
9.492317614,-3.0987218222235384,-3.358708697778626,2.9856863063294496
9.494317614,-2.9529646201542787,-3.0677681296750974,2.6128286100166487
9.496317614,-2.8049670321963704,-2.7917504236388355,2.251046017522716
9.498317614,-2.6550394683511063,-2.531465922758471,1.9015135762081252
9.500317614,-2.5034748922314796,-2.287529095509684,1.5653002102553328
9.502317614,-2.350547572887595,-2.0603581803875746,1.2433646815425612
9.504317614,-2.1965120910457596,-1.850176820695783,0.9365523314614331
9.506317614,-2.0416026018912548,-1.6570176531312266,0.6455926050478482
9.50831758,-1.8860323541495407,-1.4807277935706715,0.37109735311743625
9.510317546,-1.7299934630241203,-1.3209761438608665,0.11355990253020647
9.512317512,-1.5736569325011367,-1.1772624246407126,-0.12664512069848885
9.514317478,-1.4171729205935004,-1.048927821471603,-0.3492612359292151
9.516317444,-1.260671239228629,-0.935167114995858,-0.554148845504416
9.51831741,-1.1042620786360107,-0.8350421506478604,-0.7412832954400811
9.520317376,-0.9480369442174789,-0.7474964897606778,-0.9107522932837638
9.522317376,-0.7920697919514526,-0.6713710718846536,-1.0627527206311222
9.524317376,-0.6364183463820665,-0.6054207079067634,-1.1975868804258336
9.526317742,-0.4811255831928515,-0.5483312152844018,-1.3156582209421406
9.528317775,-0.32622135631388477,-0.49873700053706604,-1.4174665792287997
9.530317808,-0.17172414754556592,-0.4552388902033928,-1.503602986786374
9.532317841,-0.01764291490070477,-0.41642200987051176,-1.5747440794119838
9.534317874,0.13602098564106793,-0.3808735116880869,-1.6316461515871095
9.536317907,0.28927183143470214,-0.3471999540084231,-1.675138893686491
9.538317907,0.44211754475264553,-0.31404414240223333,-1.7061188478975868
9.540317173,0.5945677121828751,-0.2801012492038493,-1.7255426163265914
9.542317139,0.7466316392104088,-0.24413403884013885,-1.7344198525518009
9.544317105,0.8983164667153315,-0.20498703837191928,-1.7338060660224264
9.546317071,1.049625375043089,-0.16159950676176146,-1.724795267288246
9.548317037,1.2005558998239316,-0.11301707216567831,-1.7085124811331542
9.55031657,1.3510983818621478,-0.05840192377149146,-1.6861061542734412
9.552316536,1.5012345711586765,0.002958536909993059,-1.6587404843371771
9.554316536,1.6509364023924151,0.07164466112766713,-1.627587697333401
9.556316569,1.800164955867288,0.14809919026119414,-1.5938203017026513
9.558316602,1.948869614001428,0.2326236010516763,-1.5586033481972077
9.560316635,2.09698741900039,0.32537617369898647,-1.523086726089123
9.562316668,2.2444426326681044,0.4263717772643274,-1.4883975273874144
9.564316701,2.3911464946934613,0.5354833464741682,-1.4556325118114937
9.566316734,2.536997171535049,0.6524450041613646,-1.42585070629668
9.568316767,2.68187988447673,0.7768567644773123,-1.4000661739723606
9.5703168,2.82566720270214,0.9081907339392534,-1.3792409890574804
9.5723168,2.9682194853940795,1.0457987105987379,-1.364278456147289
9.574316366,3.109385455874041,1.1889210663829395,-1.3560166150344835
9.576316366,3.24900289053325,1.3366967842100201,-1.355222075491629
9.578316366,3.3868994055735078,1.4881745100002775,-1.3625842301448188
9.580316366,3.52289332517071,1.6423244702960653,-1.3787098973637775
9.582316366,3.656794615434815,1.7980510988982195,-1.4041184495817292
9.584316366,3.788405869351811,1.954206210727417,-1.4392374852267875
9.586316332,3.9175233286755597,2.109602557997337,-1.4843991041203697
9.588316298,4.043937929437955,2.2630276026817695,-1.5398368464569308
9.590316264,4.167436358341637,2.413257340098316,-1.6056833540573274
9.59231623,4.28780210780306,2.5590700111514306,-1.6819688092849745
9.594316196,4.404816517879876,2.6992595453314734,-1.768620201690146
9.596316162,4.518259793840251,2.832648582940815,-1.8654614650059849
9.598315828,4.627911988820332,2.9581009331995407,-1.972214517549304
9.600316528,4.733553941943676,3.0745333347898423,-2.088501227560411
9.602316528,4.8349681634637465,3.180926396864903,-2.213846311938141
9.604316561,4.931939659927104,3.2763346113893808,-2.3476811626639127
9.606316594,5.024256694015786,3.359895341728059,-2.489348580406211
9.608316627,5.1117114755630455,3.4308367074793056,-2.638108379753511
9.610317093,5.194100782172674,3.4884843014456566,-2.793143815604405
9.612317126,5.271226509832313,3.53226669111296,-2.953568765778182
9.614317159,5.342896155819084,3.561719673845239,-3.1184355912288546
9.616317159,5.408923237952312,3.5764892719674095,-3.2867435827468863
9.618317159,5.469127655733636,3.5763334707606975,-3.45744789218187
9.620317125,5.5233360000330975,3.5611227188770402,-3.6294688374879023
9.622317091,5.571381818702557,3.5308392265114446,-3.8017014646961393
9.624317057,5.613105845877278,3.485575111549918,-3.9730252465882683
9.626317023,5.648356202877581,3.4255294575057165,-4.142313797596975
9.628316989,5.676988578682126,3.351004359063813,-4.308444487319026
9.630316955,5.698866398017283,3.2624000412600043,-4.470307840768832
9.632316955,5.713860985227813,3.1602091466254283,-4.626816621701005
9.634317421,5.721851732233211,3.045010291020716,-4.776914505454649
9.636317454,5.7227262789761015,2.917460993431645,-4.9195842592200965
9.638317187,5.716380714787524,2.7782900878056482,-5.053855359797911
9.64031722,5.702719809001087,2.6282897261908342,-5.178810991310502
9.642317253,5.681657278921447,2.468307082128363,-5.293594377578235
9.644317286,5.65311610285921,2.2992358615951365,-5.39741441570673
9.646317319,5.617028885339574,2.122007725926703,-5.4895505886135005
9.648317352,5.57333828074257,1.9375837271629806,-5.569357144585385
9.650317352,5.521997480535911,1.7469458512452918,-5.636266541437561
9.652317352,5.462970767940654,1.5510887585707935,-5.689792161428634
9.654316952,5.396234142354208,1.3510118046937756,-5.729530310744009
9.656316952,5.321776014176132,1.1477114165380387,-5.755161524038241
9.658317252,5.239597968883608,0.9421738914316375,-5.766451200208431
9.660317252,5.149715597342339,0.735368677700423,-5.763249600304842
9.662317252,5.052159387471931,0.5282421865827236,-5.745491242358437
9.664317218,4.946975670560304,0.32171217597328094,-5.713193730992735
9.666317184,4.834227613775523,0.11666273708342889,-5.666456062036604
9.66831715,4.7139962487841975,-0.08606009436541594,-5.605456444000483
9.670317116,4.586381524876836,-0.28565209018725124,-5.53044967926516
9.672317082,4.451503373638892,-0.48135394196024467,-5.44176414821457
9.674317048,4.309502770999543,-0.6724537392010016,-5.339798439380976
9.676316348,4.160542781441001,-0.8582888275819949,-5.2250176680235585
9.678316314,4.004809568260607,-1.0382470690313994,-5.097949524495722
9.680316314,3.842513353041845,-1.2117675326126158,-4.959180092336533
9.682316347,3.6738893068936544,-1.3783406513791026,-4.809349474305548
9.68431638,3.4991983555388804,-1.5375078858687394,-4.649147262620715
9.686316413,3.3187278799641113,-1.6888609394828815,-4.479307887506855
9.688316446,3.1327922941041813,-1.8320405746546657,-4.300605875866284
9.690315812,2.941733480969173,-1.9667350814444693,-4.113851049490902
9.692315845,2.7459210687786375,-2.092678452025878,-3.9198836897925697
9.694315178,2.54575252907902,-2.2096483154692264,-3.719569693573219
9.696314278,2.341653079498249,-2.317463687314692,-3.513795741915179
9.698313644,2.1340753747445267,-2.4159825876753414,-3.3034645018733553
9.700312944,1.9234989707015253,-2.505099580053873,-3.089489878333153
9.70231291,1.7104295480243128,-2.5847432807388837,-2.872792331205062
9.704311976,1.49539788349469,-2.654873885618374,-2.6542942710914916
9.706311942,1.2789585595285584,-2.715480757567754,-2.4349155447019175
9.708311008,1.061688404621491,-2.7665801133083914,-2.2155690196247257
9.710310108,0.8441846601654978,-2.80821284387682,-1.997156276612783
9.712309474,0.6270628719642412,-2.8404424976842444,-1.7805634163348045
9.714309007,0.4109545078908446,-2.8633534496664392,-1.5666569866118263
9.71630814,0.19650430642606292,-2.877049274309424,-1.3562800355139704
9.718307506,-0.015632635764245343,-2.8816513344751704,-1.150248295345311
9.720306639,-0.22479402554032138,-2.8772975920392647,-0.9493465024960385
9.722306905,-0.43031376903571544,-2.8641416404864954,-0.7543248583863884
9.724306038,-0.631525582565899,-2.842351953888091,-0.5658956372507036
9.726305171,-0.827766796192697,-2.81211134120462,-0.38472994728787624
9.728304271,-1.01838232382638,-2.773616589730982,-0.21145465271358838
9.730303371,-1.2027287701641454,-2.7270782768634474,-0.046649465484318677
9.732302471,-1.380178641214744,-2.672720725398852,0.10915578306552846
9.734301571,-1.550124621681867,-2.610782074447932,0.25548367871719846
9.736301337,-1.7119838791833368,-2.541514435867933,0.3919115551025276
9.738300437,-1.8652023523375822,-2.465184104911571,0.5180736027028255
9.740299537,-2.0092589773150626,-2.3820717935027784,0.6336627379788585
9.742298603,-2.143669805649909,-2.2924728551032736,0.7384322123746399
9.744297669,-2.267991965046581,-2.1966974714286644,0.8321969389531431
9.746296735,-2.3818274147147647,-2.0950707732033935,0.9148345126984013
9.748295801,-2.4848264474891453,-1.987932869605171,0.9862858991750038
9.750296434,-2.576690892612173,-1.8756387639349443,1.0465557653732576
9.7522964,-2.6571769755112613,-1.75855813624535,1.0957124262910507
9.754296133,-2.726097794164443,-1.6370749770480877,1.1338873812838808
9.756296999,-2.783325375742524,-1.5115870596768515,1.1612744157118051
9.758297232,-2.8287922821348057,-1.382505242304736,1.1781282461962947
9.760297032,-2.862492738626676,-1.2502525939342204,1.1847626920534455
9.762297065,-2.8844832662587447,-1.115263341850559,1.1815483612537043
9.764297998,-2.894882805088951,-0.9779816410202881,1.1689098465247576
9.766298031,-2.8938723225112177,-0.8388601686929547,1.147322435804076
9.768298964,-2.881693907749686,-0.6983585500092185,1.1173083508578396
9.770299897,-2.858649360435251,-0.5569416227450269,1.0794325380506258
9.772300563,-2.82509828758274,-0.41507755146519293,1.0342980454085047
9.774301463,-2.781455729157122,-0.2732358033592926,0.9825410297199588
9.776302329,-2.7281893376345927,-0.13188499992130037,0.9248254460375924
9.778302962,-2.6658161414763177,0.008509339561986254,0.8618374792837163
9.780303828,-2.5948989262342375,0.14748714501337154,0.7942797835122919
9.782303161,-2.5160422701368352,0.28459621368606275,0.7228655985702174
9.784304027,-2.429888273528463,0.41939467843069744,0.6483128163144218
9.786304893,-2.3371120235392064,0.551453503642235,0.5713380691415597
9.788305793,-2.238416836912321,0.6803589850893378,0.49265091244384956
9.790305826,-2.1345293250571435,0.8057152287230444,0.4129481698987762
9.792306359,-2.02619432613603,0.9271465827300135,0.33290850648969905
9.794306392,-1.9141697493051268,1.0442999965821584,0.25318728909360544
9.796306425,-1.7992213760662066,1.1568472806835086,0.1744117885698494
9.798306458,-1.6821176630334815,1.2644872404539824,0.09717677073732596
9.800307391,-1.5636245893077236,1.3669476593162497,0.02204051665353983
9.802307657,-1.4445005901406422,1.4639871060557148,-0.05047869458598105
9.80430859,-1.3254916167190076,1.5553965434156167,-0.1199056145667311
9.80630949,-1.207326359740475,1.6410007165917895,-0.18581054704541392
9.80831039,-1.0907116720321917,1.7206593024970622,-0.24781135056315862
9.810310356,-0.9763282228244989,1.7942678032155697,-0.3055749174571272
9.812310356,-0.8648264134762267,1.8617581698771195,-0.35881813122523715
9.814310856,-0.7568225814887938,1.9230991461694116,-0.40730831055243266
9.816310856,-0.6528955165762982,1.9782963238016236,-0.45086315424545953
9.818311522,-0.5535833094109242,2.0273919053743343,-0.4893502067624701
9.820312388,-0.4593805504638984,2.0704641732423217,-0.5226858688975308
9.822312354,-0.3707358931289948,2.107626666034522,-0.5508339824386578
9.824311954,-0.2880499920604451,2.13902706749116,-0.5738040212247912
9.82631192,-0.21167382439362142,2.164845815176994,-0.5916489239622239
9.828311886,-0.1419073982636205,2.1852944394231866,-0.6044626064240106
9.830311852,-0.07899884981929582,2.2006136455296206,-0.6123771922645245
9.832311818,-0.023143926778485133,2.2110711548135438,-0.6155600026714028
9.834311784,0.025514146488778717,2.216959322505456,-0.614210345497311
9.836311784,0.06688443031071288,2.2185925527507067,-0.6085561444144422
9.838311817,0.10092766828381321,2.2163045330519586,-0.5988504480635531
9.84031185,0.12765533652742897,2.210445312360075,-0.5853678581779653
9.842312283,0.14712835958917442,2.201378248669106,-0.5684009143067091
9.844312316,0.1594555112539039,2.1894768533740643,-0.548256471092894
9.846312349,0.1647915205471928,2.1751215607822174,-0.5252521021310907
9.848312382,0.16333490499108788,2.158696452002427,-0.499712562277021
9.850313282,0.15532555465573272,2.140585962950714,-0.4719663379609025
9.852313682,0.14104209175680832,2.1211716063856443,-0.4423423126069087
9.854314548,0.12079903148078064,2.1008287377043047,-0.4111665717226431
9.856315414,0.09494377038283316,2.0799233936698207,-0.37875936962244866
9.85831628,0.06385342910398982,2.058809232306038,-0.34543227711101937
9.860316246,0.02793157630828093,2.0378246009221757,-0.3114855268104896
9.862316879,-0.012395139334136124,2.017289757685879,-0.2772055702106695
9.864317712,-0.05668042257879061,1.9975042704132577,-0.24286285801420648
9.866317712,-0.10446180439821863,1.9787446143345,-0.20870985298783268
9.868317712,-0.15526412874361958,1.9612619885458429,-0.1749792823459372
9.870318178,-0.20860302871989989,1.9452803686812776,-0.14188263467445547
9.872318211,-0.26398836859569713,1.9309948110373887,-0.10960890451097138
9.874318644,-0.3209276291745597,1.9185700209782912,-0.07832358588849035
9.876318677,-0.3789292152655652,1.9081391959586465,-0.048167914411884394
9.87831871,-0.437505665293534,1.8998031509540947,-0.019258355786393608
9.880318743,-0.4961767444605281,1.8936297314980077,0.008313662819065919
9.882318776,-0.5544724042909354,1.8896535169089435,0.034481783616446354
9.884319142,-0.6119355928499879,1.887875813677516,0.059204517640002195
9.886319142,-0.6681249014213849,1.8882649363939203,0.08246482048020523
9.888319142,-0.7226170349703628,1.8907567710726538,0.104269453292708
9.890319142,-0.7750090953049672,1.8952556133049439,0.12464813932721791
9.892319142,-0.8249206674767954,1.901635271374426,0.1436525274408835
9.894319142,-0.8719957016326281,1.9097404223347523,0.1613549752215472
9.896319142,-0.9159041842411062,1.9193882070910386,0.17784716543587928
9.898319108,-0.9563435943673426,1.930370048766834,0.19323857052348037
9.900318408,-0.9930401424369293,1.9424536770848109,0.20765478076502097
9.902318041,-1.0257497906984578,1.9553853401473764,0.22123571254407318
9.904318007,-1.0542590563380483,1.9688921838739022,0.23413371378630207
9.906317973,-1.0783855998968632,1.9826847784317172,0.24651158419184863
9.908317939,-1.097978603269023,1.996459770279011,0.25854052827953855
9.910317905,-1.112918943087449,2.0099026379007388,0.27039805953925755
9.912317871,-1.1231191667122853,2.022690528941054,0.28226587414394877
9.914317871,-1.1285232792970317,2.0344951562015168,0.294327712705978
9.916317904,-1.1291063515070228,2.0449857298781255,0.30676722847364746
9.918317937,-1.1248739583987826,2.0538319034545918,0.3197658801487896
9.920317537,-1.1158614607360244,2.060706710859319,0.33350086715512123
9.92231757,-1.1021331406174262,2.0652894728335087,0.3481431246815062
9.924316736,-1.0837812037237748,2.067268650947386,0.36385539514447734
9.926316769,-1.060924660763263,2.066344628333026,0.3807903918452309
9.928316802,-1.0337081008142852,2.0622323969632728,0.3990890695334885
9.930316402,-1.0023003692516186,2.0546641321864483,0.4188790153459375
9.932316368,-0.9668931628128845,2.043391636219632,0.4402729721894606
9.934316334,-0.9276995541269906,2.0281886333988783,0.46336750512847685
9.9363163,-0.8849524576808399,2.0088529011590945,0.48824181975338726
9.938316266,-0.8389030487403857,1.9852082219365779,0.5149567398940889
9.940316232,-0.7898191461770053,1.9571061424280523,0.5435538504351978
9.942316198,-0.7379835695027043,1.9244275278897873,0.5740548094184267
9.944316198,-0.6836924797071754,1.8870839004106075,0.6064608321092974
9.946316198,-0.627253712723339,1.8450185513300787,0.6407523482830267
9.948316198,-0.5689851135275875,1.7982074191864237,0.6768888326609596
9.950316198,-0.5092128780150595,1.746659725767138,0.7148088072040534
9.952316198,-0.4482699088976753,1.6904183640103738,0.7544300128359482
9.954315798,-0.38649419097809334,1.6295600326890514,0.7956497471187918
9.956315798,-0.3242271902812865,1.5641951140344297,0.838345363439831
9.958315798,-0.2618122807002077,1.4944672917597537,0.8823749263886268
9.960316464,-0.1995932010548311,1.420552908362618,0.9275780172134532
9.96231683,-0.13791254479587486,1.3426600621399072,0.9737766825359511
9.964316863,-0.07711028402379479,1.261027446050807,1.0207765188685014
9.966316896,-0.017522329051094243,1.1759229324106812,1.0683678849119633
9.968316929,0.04052087558577219,1.0876419093832579,1.116327233105116
9.970316962,0.09669571796228142,0.9965053773435472,1.164418551446116
9.972316995,0.15068674783606456,0.9028578153843176,1.2123949062085027
9.974317028,0.20218796731513802,0.8070648305056023,1.2600000758279692
9.976317028,0.25090408235581363,0.7095106043266546,1.306970265936203
9.978316994,0.2965517140875594,0.6105951544557656,1.3530358952560066
9.980317394,0.33886056863538516,0.5107314299076972,1.3979234418379003
9.98231736,0.3775745637006644,0.41034226213516833,1.441357338903475
9.984317326,0.41245290967617343,0.3098571953009018,1.4830619093583746
9.986317292,0.44327114252078864,0.20970922131956493,1.5227633278437622
9.988317258,0.469822105020774,0.11033144691485472,1.5601915990063928
9.990317291,0.4919168724406572,0.012153721452336633,1.5950825404819367
9.992317291,0.5093856179433377,-0.0844007443904375,1.6271797589055301
9.994317324,0.5220784125658565,-0.17891873800368832,1.6562366070939032
9.996317357,0.5298659540078117,-0.2710003504140268,1.6820181103937226
9.99831739,0.5326402180566842,-0.3602621957818733,1.7043028500693946
10.00031742,0.5303150261630449,-0.4463405125388105,1.7228847915173096
10.00231746,0.5228265225045838,-0.5288941142240963,1.7375750450498115
10.00431749,0.5101335538557821,-0.6076071588185324,1.748203547002554
10.00631752,0.4922179457270481,-0.6821917065321788,1.7546206490006686
10.00831756,0.46908466856637826,-0.7523900376074734,1.7566986033926584
10.01031756,0.4407618883304943,-0.8179767037572554,1.7543329331438355
10.01231756,0.40730089642559186,-0.878760289350348,1.7474436748861077
10.01431839,0.3687759148827486,-0.9345848613549604,1.7359764843576433
10.01631839,0.32528377365986205,-0.9853310903127966,1.7199035941421088
10.01831839,0.27694345813789195,-1.0309170281957742,1.6992246144353236
10.02031839,0.22389552618929942,-1.0712985328335045,1.6739671685203357
10.02231835,0.16630139562284066,-1.1064693326212418,1.644187355702296
10.02431832,0.10434250432813784,-1.1364607293450217,1.6099700356171038
10.02631829,0.038219347027885056,-1.1613409411173705,1.571428929056582
10.02831825,-0.031849605835884795,-1.1812140915375438,1.5287065317250899
10.03031822,-0.10562909993610554,-1.1962188552170998,1.4819738386391503
10.03231802,-0.1828683908907285,-1.2065267736917396,1.431429878185437
10.03431798,-0.2633026298733819,-1.2123402594231936,1.377301056144548
10.03631795,-0.3466543294405784,-1.213890309033889,1.3198403112496482
10.03831795,-0.4326348968421853,-1.2114339500738605,1.259326085067568
10.04031798,-0.5209462211094201,-1.205251448464143,1.1960611101624348
10.04231802,-0.611282299443983,-1.1956433062679621,1.1303710216335496
10.04431765,-0.7033308878689358,-1.182927081585613,1.0626027982182988
10.04631768,-0.7967751607575951,-1.1674340641284877,0.9931230402236285
10.04831772,-0.8912953637428738,-1.1495058413872636,0.9223160925973662
10.05031775,-0.9865704446343523,-1.129490791266598,0.8505820224715935
10.05231778,-1.082279647338524,-1.1077405376214795,0.7783344615010473
10.05431778,-1.1781040543874173,-1.0846064053062996,0.7059983242732676
10.05631775,-1.2737280645161717,-1.0604359111401143,0.6340074149727162
10.05831771,-1.3688407927621582,-1.0355693266061974,0.5628019353283261
10.06031768,-1.4631373817578728,-1.010336347155624,0.49282590765863843
10.06231764,-1.5563202142353518,-0.9850529016953223,0.42452452754921005
10.06431761,-1.6481000182303032,-0.9600181342336305,0.35834146134971545
10.06631758,-1.7381968580432634,-0.9355115877529288,0.29471610425926614
10.06831754,-1.8263410056556444,-0.9117906182045807,0.23408081527747426
10.07031754,-1.91227368898648,-0.8890880641081491,0.17685814573833955
10.07231758,-1.9957477150836136,-0.8676101946216391,0.12345807851582745
10.07431678,-2.076527968035557,-0.8475349561668026,0.07427529528759139
10.07631614,-2.154391783032146,-0.8290105347690815,0.02968648944675864
10.07831618,-2.22912919956827,-0.8121542482255247,-0.009952257666324993
10.08031621,-2.300543098260491,-0.7970517790677171,-0.044308019599169746
10.08231624,-2.368449227123835,-0.7837567560656049,-0.07307346927691757
10.08431627,-2.4326761244341166,-0.7722906887457346,-0.09596920806749583
10.08631631,-2.49306494648164,-0.762643256091949,-0.11274596279412645
10.08831631,-2.5494692096031804,-0.7547729472711456,-0.12318663463023133
10.09031631,-2.601754456853452,-0.7486080488913157,-0.12710818449255332
10.09231647,-2.649797860534901,-0.7440479699634508,-0.12436334036213
10.09431647,-2.693487772536314,-0.7409648924173783,-0.11484211291965206
10.09631647,-2.7327232350270716,-0.7392057317368883,-0.09847310697319829
10.09831647,-2.767413464504184,-0.7385943890601742,-0.07522461735487207
10.10031644,-2.7974773224801956,-0.7389342729676486,-0.0451054992322769
10.1023164,-2.82284278621429,-0.7400110661851433,-0.008165804088823052
10.10431637,-2.84344643280351,-0.7415957096153906,0.03550282604667937
10.10631634,-2.859232949635637,-0.7434475735415849,0.08576701220374323
10.1083163,-2.870154683625924,-0.7453177835957915,0.14245174464157712
10.1103158,-2.8761712407877447,-0.7469526672106883,0.20534074495495533
10.11231577,-2.8772491465065175,-0.7480972848147179,0.2741770860801237
10.11431574,-2.873361575398948,-0.7484990090107766,0.34866407071121963
10.11631574,-2.864488157868095,-0.7479111144062258,0.4284663671065914
10.11831574,-2.850614868451005,-0.7460963406377703,0.5132113996382087
10.12031577,-2.83173399885735,-0.7428303914554089,0.6024909897070851
10.1223158,-2.8078442162849084,-0.737905333485623,0.6958632408183991
10.12431583,-2.7789507052470417,-0.7311328594630969,0.7928546597020542
10.12631587,-2.7450653888339263,-0.7223473822661276,0.8929625034135201
10.1283159,-2.7062072231250145,-0.7114089279655024,0.9956573404034359
10.13031593,-2.66240255644109,-0.6982057982453044,1.1003858116534517
10.13231593,-2.6136855433318087,-0.6826569749196095,1.20657357619283
10.1343155,-2.5600986016993033,-0.6647142417929215,1.313628423696571
10.13631613,-2.501692900312551,-0.6443640017392144,1.42094353548367
10.1383161,-2.438528863196098,-0.6216287695628194,1.5279008741224238
10.14031606,-2.370676676970184,-0.5965683239325218,1.6338746810123723
10.14231603,-2.2982167871433714,-0.5692805044423054,1.7382350607333428
10.144316,-2.2212403695706864,-0.5399016426500406,1.8403516306125927
10.14631596,-2.139849763744945,-0.5086066187855193,1.939597213842189
10.14831596,-2.0541588552425183,-0.47560853871273306,2.035351554554335
10.150316,-1.9642933954604198,-0.4411580286915555,2.127005033495791
10.15231603,-1.8703912477331506,-0.4055421485209312,2.213962363292295
10.15431606,-1.7726025499896372,-0.36908292676022336,2.295646242721246
10.15631609,-1.6710897852934221,-0.33213552490864884,2.3715009498831194
10.15831613,-1.5660277528925552,-0.29508604065839145,2.4409958546530652
10.16031616,-1.4576034337729273,-0.25834896360156673,2.503628831286188
10.16231619,-1.3460157461392122,-0.22236430003294214,2.5589295525328697
10.16431663,-1.2314751877187937,-0.18759438671052375,2.6064626470889727
10.16631663,-1.1142033632723851,-0.15452041657241314,2.6458307026591013
10.16831663,-0.994432397177616,-0.1236387024179324,2.6766770973534246
10.17031703,-0.872404232414703,-0.0954567074041742,2.6986886425772667
10.17231703,-0.7483698187208357,-0.07048887384738861,2.7115980210149786
10.17431759,-0.622588194078752,-0.04925228420515497,2.7151860037594764
10.17631759,-0.4953254650369613,-0.032262190191036155,2.709283431096651
10.17831759,-0.36685369260029466,-0.020027447681198185,2.693772941919641
10.18031756,-0.23744969157873141,-0.013045896374153364,2.6685904372273286
10.18231752,-0.10739375235132563,-0.011799724037219442,2.633726263668264
10.18431749,0.023031705006160877,-0.0167508555910862,2.589226103643203
10.18631746,0.15354353337119428,-0.02833640721983459,2.535191559094102
10.18831742,0.2838593063117338,-0.04696424513873134,2.471780416805789
10.19031739,0.4136987984572243,-0.07300868762532305,2.399206583857712
10.19231735,0.5427854853552291,-0.10680638746005927,2.3177396828227352
10.19431815,0.6708480490626785,-0.14865243008147902,2.2277042974526733
10.19631815,0.7976218752436997,-0.1987966805970101,2.1294788609408704
10.19831735,0.9228505272193726,-0.25744041036634224,2.023494180417039
10.20031739,1.0462871822392263,-0.3247332312488729,1.9102315930979876
10.20231742,1.1676960152057836,-0.4007703628288614,1.7902207514769048
10.20431705,1.2868535151781968,-0.48559025503848224,1.6640370370868587
10.20631709,1.403549720229073,-0.5791725856186326,1.5322986047448062
10.20831712,1.5175893566599379,-0.6814366488198428,1.395663061803584
10.21031712,1.6287928692114233,-0.7922401486885166,1.2548237898458021
10.21231708,1.7369973297293138,-0.9113784072529963,1.1105059194842373
10.21431705,1.842057212752638,-1.038583994969268,0.9634619725240354
10.21631702,1.9438450276645132,-1.1735267879543894,0.8144671897034258
10.21831698,2.042251798388941,-1.3158144538629613,0.6643145665273453
10.22031695,2.137187383127434,-1.4649933657613305,0.5138096242553949
10.22231692,2.2285806283009215,-1.6205499410160327,0.36376494776373264
10.22431688,2.3163793526788075,-1.7819124000271795,0.2149945265952994
10.22631688,2.400550159607296,-1.9484529376066142,0.06830793986435521
10.22831691,2.481078077236045,-2.1194902979191084,-0.07549557035723047
10.23031695,2.5579660286114514,-2.2942927421379453,-0.215633089065408
10.23231698,2.6312341353923125,-2.472081396259739,-0.35134403070745157
10.23431648,2.700918860712147,-2.652033964823588,-0.48189610049455667
10.23631651,2.767071998346981,-2.8332887945364935,-0.6065911594629106
10.23831655,2.8297595168435574,-3.014949269971104,-0.724770937030658
10.24031658,2.8890602686205935,-3.1960885215356107,-0.8358225344407333
10.24231661,2.945064575277758,-3.375754423807338,-0.9391836628390824
10.24431661,2.997872701438641,-3.5529748600893756,-1.0343475607978956
10.24631661,3.047593230424611,-3.7267632267363258,-1.1208675378363449
10.24831661,3.094341355923543,-3.8961241484568916,-1.1983610929032555
10.25031661,3.1382371046087076,-4.060059373493989,-1.266513559858459
10.25231661,3.1794035054080045,-4.217573815355487,-1.325081235722325
10.25431661,3.2179647218350067,-4.3676817056549835,-1.3738939518582949
10.25631661,3.254044164452055,-4.5094128206403745,-1.412857053295306
10.25831741,3.287762601099521,-4.641818742152757,-1.4419527570428594
10.26031738,3.3192362829527515,-4.763979112105227,-1.46124086643924
10.26231734,3.34857510473814,-4.875007838167218,-1.470858825225688
10.26431771,3.375880817557999,-4.974059207267005,-1.4710211020512598
10.26631768,3.4012453127680806,-5.060333862853988,-1.4620179033416036
10.26831764,3.4247489952527284,-5.133084601636494,-1.4442132197439403
10.27031761,3.4464592642608882,-5.1916219457346715,-1.4180422185394732
10.27231761,3.4664291196818295,-5.2353194468343975,-1.3840080013800782
10.27431761,3.4846959112165887,-5.263618679969292,-1.342677753371205
10.27631764,3.501280247304918,-5.276033885987128,-1.2946783158107444
10.27831767,3.516185079870399,-5.2721562235734645,-1.2406912207418295
10.28031771,3.5293949799270523,-5.2516575938961,-1.1814472308415012
10.28231774,3.5408756178311815,-5.214294003475762,-1.1177204330060988
10.28431777,3.5505734604450088,-5.159908433756402,-1.050321938257113
10.28631781,3.558415695688565,-5.088433189016051,-0.9800932442220831
10.28831781,3.5643103928869073,-4.999891697695329,-0.9078993194035234
10.29031777,3.568146904978433,-4.89439974589224,-0.834621470722731
10.29231774,3.5697965160532537,-4.772166125644645,-0.7611500574238774
10.29431737,3.5691133348588053,-4.633492684658724,-0.6883771153646506
10.29631734,3.565935431875624,-4.47877376830163,-0.6171889560277903
10.2983173,3.560086214382195,-4.308495048920402,-0.5484588043027001
10.30031727,3.5513760306610775,-4.123231741848653,-0.48303953826388146
10.30231724,3.53960399121923,-3.923646211800802,-0.42175659287407447
10.30431724,3.5245599916747996,-3.710484977723196,-0.36540108781410613
10.30631784,3.5060269188744404,-3.4845751285731184,-0.31472323751902903
10.30831787,3.48378301892339,-3.2468201669306356,-0.2704260989959269
10.3103179,3.4576044032005493,-2.998195301802413,-0.2331597101220583
10.31231793,3.427267666147052,-2.73974221642039,-0.20351566788785785
10.31431797,3.3925525867139967,-2.4725633412207024,-0.18202219247796256
10.316318,3.3532448839025504,-2.1978156664368256,-0.16913971918829482
10.31831803,3.3091389959017827,-1.9167041327784051,-0.16525705596197107
10.32031807,3.26004085197255,-1.6304746424448369,-0.17068813979884365
10.32231807,3.205770606440308,-1.3404067362206038,-0.18566942047384885
10.32431767,3.146165304916249,-1.0478059855811896,-0.21035789491765222
10.32631767,3.081081454116878,-0.7539961515280523,-0.24482981030361942
10.32831767,3.010397468325866,-0.46031116419244533,-0.28908004839184154
10.33031767,2.934015967548137,-0.16808697906616357,-0.3430221980574937
10.33231767,2.8518659046552295,0.12134663297141511,-0.4064893172311697
10.33431767,2.7639045012376107,0.4066743038656379,-0.47923537974893915
10.33631763,2.6701189743985547,0.6866032366209959,-0.5609373968835388
10.3383176,2.5705280392861667,0.9598712656475616,-0.6511981976262166
10.34031756,2.465183174715449,1.225254752158144,-0.7495498461268124
10.34231686,2.354169641740211,1.4815762588945833,-0.8554576691021246
10.34431683,2.2376072474548803,1.7277119502387148,-0.9683248605309377
10.3463168,2.1156508485945635,1.962598665938265,-1.087497625622416
10.34831636,1.98849059161762,2.1852406192168203,-1.2122708209301682
10.35031636,1.8563518878709453,2.394715672904114,-1.3418940426448849
10.35231636,1.7194951241390986,2.590181150385401,-1.4755781105940649
10.35431633,1.5782151103647122,2.7708791416030776,-1.6125018913626548
10.35631636,1.4328402676311787,2.936141268031293,-1.7518194002616494
10.35831639,1.28373156068698,3.0853928744685124,-1.8926671186409636
10.36031643,1.1312811804434029,3.2181566196393496,-2.034171460299889
10.36231646,0.9759109830585672,3.3340554419474624,-2.1754563185275133
10.36431649,0.8180706934759094,3.432814881252715,-2.3156506236405163
10.36631593,0.6582358826470985,3.514264742237277,-2.4538958398199733
10.36831593,0.49690572915829706,3.578340089755233,-2.5893533296369293
10.37031589,0.3346005775930673,3.6250815714854947,-2.7212115149549883
10.37231586,0.17185930766793867,3.6546350681510664,-2.848692763976173
10.37431582,0.009236529891521383,3.6672506764315154,-2.9710599361565735
10.37631579,-0.15270037486889135,3.6632810343910567,-3.087622519662838
10.37831576,-0.3133743530468173,3.6431790037145815,-3.1977422999940197
10.38031572,-0.472201893080928,3.6074947272685165,-3.300838503275661
10.38231532,-0.6285963358185995,3.556872084487755,-3.3963923634105737
10.38431576,-0.7819712582419484,3.492044570841479,-3.4839510686201347
10.38631579,-0.9317439072377186,3.413830631146651,-3.563131049847799
10.38831582,-1.0773386593625491,3.323128479771199,-3.633620580969465
10.39031585,-1.2181904819267098,3.2209104437973965,-3.695181668708929
10.39231589,-1.353748370254594,3.1082168679983946,-3.747651218514677
10.39431592,-1.4834787357059795,2.986149623006773,-3.790941471316381
10.39631595,-1.6068687189669182,2.8558652603059773,-3.8250397149189532
10.39831599,-1.723429403227478,2.7185678596419693,-3.8500072826529323
10.40031599,-1.8326989021363194,2.575501616133775,-3.865977860607139
10.40231665,-1.9342452978581828,2.4279432157636065,-3.8731551331452696
10.40431665,-2.0276694051820616,2.277194049050908,-3.871809804280974
10.40631665,-2.112607338474357,2.1245723135510843,-3.862276039682705
10.40831705,-2.1887328593803153,1.971405056354225,-3.844947380423256
10.41031705,-2.255759484558632,1.819020207979707,-3.820272184923288
10.41231705,-2.313442334368605,1.6687386589521322,-3.7887486597392943
10.41431738,-2.361579705303611,1.5218664298590026,-3.7509195427903164
10.41631735,-2.400014351100457,1.3796869847638602,-3.7073665041793205
10.41831732,-2.4286344598840146,1.2434537364327034,-3.658704329899821
10.42031728,-2.447374317433745,1.1143827899301324,-3.6055749525321747
10.42231725,-2.456214649651014,0.993645968786989,-3.548641390744755
10.42431722,-2.4551826405186277,0.8823641651505515,-3.48858165625717
10.42631718,-2.444351625229572,0.7816010521022351,-3.4260826831070066
10.42831715,-2.4238404616627665,0.6923571926867245,-3.3618343297923188
10.43031715,-2.3938125869285427,0.6155645762010946,-3.2965235003364346
10.43231718,-2.354474769220205,0.5520816080231381,-3.230828425706731
10.43431721,-2.306075568613942,0.5026885747864478,-3.1654131424416914
10.43631725,-2.2489035236788384,0.46808360209412964,-3.1009222008951136
10.43831728,-2.1832850837220943,0.44887911726297003,-3.037975631264104
10.44031731,-2.1095823091539607,0.44559882487600044,-2.9771641915869487
10.44231774,-2.028190364779734,0.4586751982721899,-2.9190449182278813
10.44431775,-1.939534832781094,0.48844748560082757,-2.864136996038475
10.44631774,-1.8440688737094622,0.5351602248025519,-2.812917962397804
10.44831771,-1.7422702649683188,0.5989622579305716,-2.765820256660248
10.45031768,-1.6346383470098513,0.6799062316573978,-2.723228124153826
10.45231764,-1.521690907811783,0.7779485676708672,-2.685474881753108
10.45431734,-1.4039610361219097,0.8929498839886871,-2.6528405501782304
10.45631731,-1.2819939734487522,1.0246758460490026,-2.62554985651385
10.45831728,-1.1563439938374607,1.1727984247867016,-2.6037706089553887
10.46031728,-1.0275713391220507,1.3368975377737236,-2.5876124444250044
10.46231731,-0.8962392356221648,1.5164630488575477,-2.5771259484075197
10.46431734,-0.7629110161848514,1.7108971015598244,-2.572302145093262
10.46631737,-0.6281473690903225,1.9195167618038538,-2.573072354650238
10.46831741,-0.4925037327024655,2.1415569463107498,-2.579308413175126
10.47031744,-0.3565278519374567,2.376173614168956,-2.590823249603965
10.47231747,-0.2207575097387629,2.6224472005461723,-2.6073718126162344
10.47431751,-0.08571844385811384,2.8793862732160362,-2.6286523393510635
10.47631687,0.048077543594140744,3.1459313944892195,-2.6543079565785197
10.47831687,0.18013427910456967,3.4209591732323226,-2.6839286038375456
10.48031687,0.3099727110991769,3.703286493849783,-2.7170532669630196
10.48231687,0.4371322040015589,3.991674911298756,-2.75317250936744
10.48431614,0.5611716356065974,4.2848352033275505,-2.791731287411777
10.48631614,0.6816703024475331,4.581432073123728,-2.8321320352047943
10.48831614,0.7982286396996092,4.880088997386212,-2.873738003233424
10.49031577,0.9104687637983387,5.179393216447385,-2.915876834373827
10.49231574,1.0180348473482983,5.47790086441312,-2.9578443600816513
10.4943157,1.1205933370705914,5.774142238315243,-2.998908598912957
10.49631567,1.2178330265088806,6.066627205946063,-3.038313938966146
10.49831564,1.3094649960141267,6.353850752337856,-3.075285485331634
10.5003156,1.3952224331840897,6.634298664737472,-3.1090335531684663
10.50231557,1.4748603474683615,6.906453355394875,-3.138758286588567
10.50431553,1.5481551930758852,7.16879982054148,-3.1636543831194692
10.5063155,1.6149044146354607,7.419831732612164,-3.1829159031313474
10.5083158,1.6749259302429627,7.658057661111852,-3.1957411432447085
10.51031583,1.7280575665595834,7.882007415584596,-3.201337552372679
10.51231587,1.7741564604827063,8.090238501932731,-3.1989266686934164
10.51431666,1.8130984415800502,8.281342680874582,-3.1877490554931693
10.5163167,1.8447774089530318,8.453952614650744,-3.1670692134649654
10.51831673,1.8691047154813591,8.60674858522246,-3.1361804466862577
10.52031676,1.886008571508195,8.738465264173206,-3.094409659131217
10.52231676,1.8954334789636373,8.847898511346799,-3.04112205820714
10.52431676,1.8973397056969752,8.933912175966642,-2.9757257414507596
10.52631673,1.8917028083927243,8.995444870632449,-2.8976761421908663
10.5283167,1.8785132108872562,9.03151668524407,-2.8064803096945847
10.53031666,1.8577758430121243,9.041235804619356,-2.7017009990888
10.53231623,1.82950984332176,9.023804990414387,-2.582960546211443
10.53431619,1.7937483272760388,8.978527884972715,-2.4499445025197644
10.53631683,1.7505382206894162,8.904815091969969,-2.3024050052790788
10.53831683,1.6999401565666643,8.80218998621797,-2.140163858493891
10.54031683,1.6420284318618577,8.670294202784973,-1.9631153004461772
10.54231683,1.5768910192660728,8.508892753719303,-1.7712284342868791
10.54431756,1.5046296278838875,8.317878719188156,-1.5645492988885303
10.54631756,1.4253598056095218,8.097277458826444,-1.3432025581162483
10.54831756,1.3392110751506392,7.84725028859955,-1.1073927878342271
10.55031793,1.246327094958162,7.568097568581886,-0.8574053413661459
10.55231793,1.1468658357957844,7.260261147794378,-0.5936067757957685
10.55431793,1.0409997633141925,6.924326113673204,-0.3164448234400112
10.55631796,0.9289160167673194,6.561021795892599,-0.026447895044282292
10.55831799,0.8108165739070459,6.171221977161047,0.27577589627688986
10.56031802,0.6869183921125384,5.7559442672716985,0.5895401986053815
10.56231806,0.5574535159465317,5.316348601123262,0.9140823775516277
10.56431809,0.42266914156493635,4.853734826619583,1.2485659673538634
10.56631812,0.28282762870308037,4.36953935425665,1.5920836152398388
10.56831786,0.13820645128704528,3.865330846755082,1.943660513831014
10.57031786,-0.010901921944321274,3.3428049342428894,2.3022583124654266
10.57231782,-0.16419022506770908,2.8037779481933183,2.6667794942353833
10.57431819,-0.3213366787308514,2.2501796755224235,3.036072201303148
10.57631816,-0.48200536748195905,1.684045142879571,3.4089354867168815
10.57831812,-0.6458467176246558,1.10750545014621,3.784124966556378
10.58031809,-0.8124980819601901,0.522777681436556,4.16035884184372
10.58231805,-0.9815844370564748,-0.06784606857355607,4.53632425530012
10.58431802,-1.152719197792695,-0.6620105054315766,4.910683943768323
10.58631802,-1.3255051528400723,-1.257309725407822,5.282083143022062
10.58831805,-1.4995355234348147,-1.8513005184739457,5.64915669783108
10.59031808,-1.674395146270234,-2.441516306806536,6.010536326614757
10.59231852,-1.8496617795833914,-3.0254816323774687,6.364857986868968
10.59431855,-2.024907529548433,-3.600727098065138,6.710769284869116
10.59631858,-2.1997003919368225,-4.164804658081049,7.046936871030306
10.59831862,-2.3736059017006106,-4.715303145491139,7.372053760850868
10.60031865,-2.546188880724225,-5.24986391735904,7.684846520691202
10.60231868,-2.7170152715216203,-5.766196491673518,7.984082257836102
10.60431868,-2.8856540421874217,-6.26209404486568,8.268575355419541
10.60631868,-3.05167914552059,-6.73544863453059,8.537193894930496
10.60831868,-3.2146715130098595,-7.184266009119544,8.78886571223823
10.61031868,-3.37422106236119,-7.606679864980289,9.022584037367595
10.61231868,-3.5299286954946374,-8.000965411237395,9.23741267350326
10.61431828,-3.6814082624877535,-8.36555210469454,9.432490676754277
10.61631825,-3.828288465870564,-8.69903542034299,9.607036504925212
10.61831822,-3.970214679066302,-9.000187528285313,9.760351610752181
10.62031782,-4.106850652680222,-9.267966754922842,9.891823462569592
10.62231778,-4.237880082794313,-9.501525715024531,10.00092798299524
10.62431775,-4.363008016446973,-9.700218011712723,10.087231403858368
10.62631771,-4.481962071087274,-9.863603413412614,10.150391543228158
10.62831768,-4.594493447010771,-9.991451430351235,10.19015851802171
10.63031764,-4.700377714596177,-10.083743228147743,10.20637491318435
10.63231764,-4.799415361518179,-10.14067183226051,10.198975435610224
10.63431678,-4.891432088919334,-10.162640594373034,10.16798608750122
10.63631681,-4.97627884965575,-10.150259909995913,10.11352289946233
10.63831684,-5.05383162605123,-10.104342195381642,10.035790268082328
10.64031688,-5.12399094899835,-10.02589515102921,9.93507894588321
10.64231691,-5.186681164665464,-9.916113358344662,9.811763733210348
10.64431654,-5.241849459452509,-9.776368275167009,9.666300921797164
10.64631658,-5.289464658132913,-9.60819671458503,9.499225538360976
10.64831658,-5.329515814288763,-9.413287909452535,9.311148433731047
10.65031654,-5.362010616185164,-9.193469281950142,9.1027532588236
10.65231651,-5.386973635122799,-8.950691053138717,8.874793363488129
10.65431647,-5.404444446957528,-8.687009841363443,8.628088648092676
10.65631644,-5.414475660658534,-8.404571410213265,8.363522390895584
10.65831641,-5.4171308902091475,-8.10559273620928,8.0820380669733
10.66031637,-5.412482707629923,-7.792343573390405,7.78463616699146
10.66231634,-5.400610615349817,-7.467127696558066,7.472371016694573
10.66431677,-5.381599075572366,-7.132264007205922,7.146347590894025
10.6663168,-5.355535632707559,-6.790067686112774,6.807718309146166
10.66831684,-5.322509162444674,-6.442831574279925,6.457679794374685
10.67031687,-5.282608277783776,-6.0928079595239355,6.097469570518517
10.6723169,-5.235919918526194,-5.7421909398178625,5.72836267098641
10.67431734,-5.182528146535405,-5.393099526598599,5.351668126385819
10.6763167,-5.122513164668162,-5.047561641864628,4.9687252977859195
10.67831674,-5.055950572753064,-4.707499152108049,4.580900020781985
10.68031714,-4.98291086943437,-4.374714070111408,4.189580525929335
10.68231714,-4.9034592041436555,-4.050876042563465,3.796173102737151
10.68431714,-4.81765537894816,-3.7375112274713245,3.402097477321215
10.68631714,-4.725554095618797,-3.435992650624972,3.008781877915234
10.68831714,-4.627205439059006,-3.147532115064574,2.61765776760601
10.69031624,-4.5226555843413605,-2.873173721773513,2.2301542297704864
10.69231557,-4.411947711095434,-2.613789043817644,1.8476919986578864
10.69431553,-4.295123105926107,-2.370073979995863,1.4716771352822304
10.6963146,-4.172222430930986,-2.1425472978693563,1.1034943571395124
10.69831457,-4.0432871342290175,-1.931550859911975,0.744500039069725
10.70031387,-3.9083609767142535,-1.7372515105989115,0.3960149116624553
10.70231293,-3.767491648021291,-1.5596445866633688,0.05931649277305031
10.7043124,-3.6207324439423987,-1.3985589976399544,-0.2643687032200734
10.70631146,-3.4681439772632547,-1.253663809303371,-0.5738731250211719
10.70831053,-3.3097958941520025,-1.1244762488078877,-0.8680962511563027
10.7103102,-3.145768568794009,-1.010371037334457,-1.146012694254627
10.7123098,-2.9761547498552297,-0.9105909439549897,-1.406680265891863
10.71430983,-2.8010611335233433,-0.8242584433222897,-1.6492479181349462
10.7163092,-2.6206098392690116,-0.7503883497756361,-1.8729634716407106
10.71830856,-2.4349397660588763,-0.6879012915890932,-2.0771810345759234
10.72030769,-2.2442078085206867,-0.6356378814469203,-2.2613680118481208
10.72230683,-2.0485899144910538,-0.592373432875791,-2.4251116002885897
10.72430553,-1.8482819674373254,-0.5568330673846171,-2.568124662671447
10.72630463,-1.6435004794011028,-0.527707053579988,-2.690250871998664
10.72830369,-1.4344830823427879,-0.5036662176812932,-2.7914690175871377
10.73030276,-1.2214888080843487,-0.483377264787928,-2.8718963664460513
10.73230182,-1.0047981494713227,-0.46551785204684515,-2.931790977533539
10.73430089,-0.7847128979042677,-0.44879125856596747,-2.9715528730108822
10.73630062,-0.5615557549955569,-0.43194050247293786,-2.9917239797528103
10.73829969,-0.33566971874348744,-0.4137617628207603,-2.992986766180491
10.74029876,-0.10741724722227501,-0.39311697296375087,-2.9761615139346596
10.74229819,0.12282079470839992,-0.3689454624498466,-2.942202180929516
10.74429732,0.35464639782339696,-0.3402745362835856,-2.8921908317730867
10.74629646,0.5876458700352066,-0.3062288934797437,-2.8273306331137036
10.74829559,0.8213914848092132,-0.26603880099976984,-2.74893743471728
10.75029695,1.0554433021619345,-0.2190469542618328,-2.6584299813700216
10.75229765,1.2893511456613467,-0.1647139712327672,-2.5573188252143133
10.75429679,1.5226567165272904,-0.10262248343153228,-2.447194031862838
10.75629772,1.754895823641497,-0.03247980379734477,-2.3297117955882785
10.75829709,1.9856007061673637,0.04588083189223879,-2.2065800983031307
10.76029692,2.2143024237026645,0.1325004367339665,-2.0795435636039765
10.76229782,2.440533287580036,0.2272958279205571,-1.9503676708985704
10.76429805,2.663829306195201,0.3300625201427861,-1.8208225057772702
10.76629895,2.8837326171395894,0.4404788970135409,-1.6926662315853245
10.76829948,3.0997938794309428,0.5581115866608223,-1.5676284738397948
10.77029982,3.311574600181687,0.6824219552635741,-1.4473938139122078
10.77230022,3.5186493714807288,0.8127736213586898,-1.3335855913658472
10.77430018,3.7206079949525046,0.9484408842876068,-1.2277502154278088
10.77630082,3.917057473282421,1.0886179522072137,-1.1313421850171461
10.77830145,4.107623849861019,1.2324288486510055,-1.0457100130839811
10.78030165,4.291953879529101,1.3789378716247744,-0.9720832441290533
10.78230252,4.469716515191684,1.5271604755613932,-0.911560742932918
10.78430338,4.640604196873195,1.676074444078206,-0.8651004170423553
10.78630425,4.804333931726608,1.8246312203874797,-0.8335105151325513
10.78830515,4.960648155709469,1.971767262488885,-0.8174426182836444
10.79030518,5.109315370169351,2.1164152920583774,-0.8173864123646639
10.79230571,5.250130549407088,2.257515309390871,-0.8336662984549787
10.79430665,5.382915318280482,2.3940252519665703,-0.8664398661434207
10.79630758,5.507517901910205,2.524931181199893,-0.9156982231040064
10.79830811,5.6238128524116675,2.649256890563298,-0.9812681445739236
10.80030815,5.731700560213498,2.7660728383221906,-1.062815978736297
10.80230875,5.831106559907976,2.874504319329106,-1.1598532187343091
10.80430965,5.921980642728763,2.9737388025287013,-1.2717436293522884
10.80631018,6.004295789703527,3.063032373897595,-1.3977117966271997
10.80831064,6.0780469413102844,3.141715238347337,-1.5368529520474095
10.81031018,6.143249621070345,3.209196248455828,-1.6881439096264925
10.81231014,6.199938431898713,3.2649664425100555,-1.8504549440259304
10.81431101,6.248165445157981,3.3086015889528184,-2.0225624311386556
10.81631098,6.287998503197417,3.3397637486091027,-2.203162069297506
10.81831161,6.319519456712205,3.3582018796936106,-2.3908824996255973
10.82031244,6.342822358570113,3.363751523264875,-2.5842991478751807
10.82231248,6.358011635887977,3.356333618233695,-2.7819481170872553
10.82431318,6.365200262161555,3.335952505031859,-2.9823399701717306
10.82631321,6.364507951195824,3.3026931854185104,-3.1839732536952106
10.82831361,6.356059394441976,3.2567179125415167,-3.3853476283272284
10.83031364,6.339982563080261,3.19826219029152,-3.584976486921585
10.83231367,6.316407095742328,3.127630264295177,-3.7813989573807607
10.83431384,6.285462792106623,3.045190188742048,-3.9731912036114703
10.83631387,6.247278231712216,2.951368553788444,-4.158976953528587
10.83831387,6.201979536215772,2.8466449576862485,-4.337437197856422
10.84031454,6.149689291954121,2.7315463061754173,-4.5073190171988
10.8423143,6.090525648059463,2.606641019161855,-4.667443507426582
10.84431431,6.024601603496954,2.472533221366953,-4.816712784890922
10.84631424,5.952024494248505,2.3298569895461054,-4.954116063368796
10.84831424,5.872895689452237,2.1792707240757205,-5.078734804027949
10.8503151,5.787310502650348,2.021451707256136,-5.189746948106236
10.85231547,5.695358321458427,1.8570909046488564,-5.286430249492347
10.85431544,5.597122956017971,1.6868880592364572,-5.368164731016421
10.8563154,5.492683203594592,1.5115471212204303,-5.434434294035214
10.85831577,5.382113623696137,1.3317720489205236,-5.484827515856854
10.86031663,5.265485515168952,1.1482630086064363,-5.5190376737475555
10.8623166,5.142868083946265,0.9617129933041564,-5.536862037762459
10.86431657,5.014329787521029,0.772804872804388,-5.538200477503144
10.8663169,4.879939839835244,0.5822088793793491,-5.523053430168359
10.8683173,4.739769858142026,0.39058052619638006,-5.491519278961808
10.87031733,4.5938956315129635,0.19855894820676487,-5.443791192072777
10.87231736,4.442398989027416,0.006765648488235663,-5.380153473070992
10.8743174,4.285369744283215,-0.18419637326981103,-5.300977473676477
10.87631743,4.122907691697514,-0.37374313913024954,-5.206717119500808
10.8783168,3.955124629106168,-0.5613098920948465,-5.097904098534618
10.88031683,3.7821463804087334,-0.7463510142980309,-4.975142760909629
10.88231683,3.6041147914483407,-0.9283397057879362,-4.8391047768296875
10.8843168,3.4211896719773605,-1.106767468033997,-4.690523597586948
10.88631676,3.233550656450602,-1.2811434380147664,-4.5301887623014
10.88831673,3.041398956503779,-1.4509936196058681,-4.3589400904947615
10.89031669,2.8449589783149074,-1.615860059007777,-4.177661797895525
10.89231666,2.6444797786209753,-1.7753000101405862,-3.9872765700420154
10.89431649,2.4402363339760873,-1.9288851343192621,-3.788739625369921
10.89631646,2.232530598878071,-2.0762007761526067,-3.5830327965911737
10.89831646,2.021692329653013,-2.216845354533439,-3.3711586563387774
10.90031649,1.8080796524944864,-2.3504299038607352,-3.1541347103177517
10.90231676,1.5920793558403021,-2.4765777963155022,-2.9329876786133844
10.90431679,1.3741068893460844,-2.5949246711685516,-2.708747883398461
10.90631689,1.1546060540645624,-2.705118591809231,-2.4824437590740085
10.90831692,0.9340483710399383,-2.806820445538866,-2.255096498897624
10.91031696,0.7129321183697757,-2.899704595265112,-2.027714850429493
10.91231699,0.4917810298725136,-2.9834597861558314,-1.8012900706853685
10.91431702,0.27114265181755853,-3.0577903041538965,-1.5767910507431029
10.91631702,0.05158635769992386,-3.122417377113707,-1.3551596187131112
10.91831702,-0.16629897526606652,-3.177080803302136,-1.1373060294658448
10.92031702,-0.3819076204371124,-3.22154078622011,-0.9241046493287816
10.92231702,-0.594619975395637,-3.255579949249832,-0.7163898441343358
10.92431662,-0.8038058395455868,-3.279005498617336,-0.5149520795159148
10.92631662,-1.0088279761532795,-3.2916514986812575,-0.3205342431930782
10.92831689,-1.2090459352080445,-3.2933812197092727,-0.13382820012792662
10.93031686,-1.4038201093163412,-3.284089515156702,0.04452840716316445
10.93231682,-1.5925159906855946,-3.2637051830751873,0.21395509923613934
10.93431679,-1.77450859313789,-3.232193264721886,0.37393122558471464
10.93631635,-1.9491869990591515,-3.189557232820485,0.5239983381490637
10.93831699,-2.115958987293523,-3.135841022382383,0.6637622529617329
10.94031629,-2.2742556943319854,-3.0711308586141906,0.7928947786022211
10.94231535,-2.4235362578842055,-2.9955568391694154,0.9111350885210646
10.94431535,-2.563292389310173,-2.909294231687723,1.0182907130701906
10.94631535,-2.693052819701531,-2.812564452005333,1.1142381264544956
10.94831538,-2.8123875638456424,-2.705635693422979,1.1989229039836178
10.95031542,-2.920911946943914,-2.588823182814494,1.272359426050002
10.95231545,-3.018290340749239,-2.462489045008299,1.3346301072541908
10.95431548,-3.1042395586610314,-2.3270417626495785,1.385884132170041
10.95631642,-3.1785318631931356,-2.1829352245275553,1.4263356835746117
10.95831645,-3.240997544014812,-2.030667361010384,1.4562616546667166
10.96031645,-3.2915270303262396,-1.8707783706667658,1.4759988437993645
10.96231642,-3.3300725075114816,-1.7038485472861082,1.4859406383449945
10.96431638,-3.3566490146576284,-1.530495721274318,1.4865332032136107
10.96631635,-3.371335006483756,-1.3513723337547008,1.4782711989189066
10.96831631,-3.3742723703203508,-1.1671621656202402,1.461693063559103
10.97031628,-3.365665895843568,-0.9785767472698125,1.4373759022470864
10.97231625,-3.345782202139152,-0.7863514778427869,1.4059300360000557
10.97431621,-3.3149481332283357,-0.5912414854824897,1.3679932695542376
10.97631621,-3.273548639360856,-0.3940172625625555,1.3242249437763343
10.97831624,-3.222024167129358,-0.19546011196442098,1.2752998431581775
10.98031628,-3.1608675867602636,0.0036425575542048975,1.2219020321952727
10.98231631,-3.090620689770046,0.20250204710538558,1.1647186961521558
10.98431674,-3.011870294521225,0.4003332532170268,1.1044340617149027
10.98631678,-2.9252440010254457,0.5963595806447871,1.0417234712973158
10.98831654,-2.8314056395523965,0.7898178390639032,0.9772476813768576
10.99031658,-2.7310504601467587,0.979963079817028,0.9116474503802402
10.99231661,-2.6249001119866504,1.1660733288987903,0.8455384756036239
10.99431661,-2.5136974625958213,1.3474541728496228,0.7795067317524381
10.99631701,-2.3982013072088124,1.5234431552764607,0.7141042562023098
10.99831701,-2.279181018088198,1.6934139433590247,0.6498454182578005
11.00031768,-2.157411182386844,1.8567802259221258,0.5872037017292159
11.00231858,-2.0336662753692294,2.012999307399811,0.5266090222286783
11.00431858,-1.9087154135933622,2.1615753652205836,0.4684455928328758
11.00631858,-1.7833172301278886,2.3020623417389174,0.41305034427046805
11.00831854,-1.658214911132789,2.4340664457523595,0.3607118986483806
11.01031851,-1.53413143023862,2.5572482427869874,0.31167008900220433
11.01231847,-1.4117650141687867,2.6713243176143417,0.26611601070269647
11.01431844,-1.2917848699940695,2.7760684968018468,0.2241925850297554
11.0163175,-1.1748272013073726,2.871312623440353,0.1859956100887631
11.01831747,-1.0614915374683052,2.9569468804964703,0.15157526972747962
11.02031744,-0.9523373968933195,3.0329196634687103,0.12093806722105682
11.02231744,-0.8478813021551248,3.0992370071500925,0.09404914720711927
11.02431744,-0.7485941614055771,3.15596157527854,0.070834966642336
11.02631747,-0.6548990273654774,3.2032112256513123,0.05118627339353084
11.0283175,-0.5671692418702818,3.2411571668557055,0.034961349455134946
11.03031754,-0.4857269707731128,3.2700217261000515,0.021989474684393856
11.03231757,-0.4108421309333515,3.290075750702202,0.012074566339809818
11.0343176,-0.34273170809291603,3.3016356686001647,0.004998949562295852
11.03631764,-0.28155946167665474,3.3050602357881904,0.0005272142205236002
11.03831764,-0.22743600994850463,3.300747000849067,-0.0015898857710364934
11.0403176,-0.18041928650677955,3.2891285187461685,-0.0016115334779176094
11.04231757,-0.14051535680372865,3.270668347752078,0.00019700831430802398
11.0443175,-0.10767958121700243,3.245856864817625,0.0035681730716339757
11.04631747,-0.08181810917633749,3.215206935817566,0.00823574773792029
11.04831743,-0.0627896869603937,3.1792494779392526,0.013938376159843077
11.0503174,-0.05040776003940015,3.138528952005151,0.020422876299667173
11.05231736,-0.044442849263361534,3.093598822739215,0.027447341677839566
11.05431736,-0.04462517879165145,3.045017024899569,0.03478400051264642
11.05631726,-0.050647532431407294,2.993341472799616,0.04222180918588671
11.0583173,-0.062168314000641524,2.9391256500203404,0.04956875992637785
11.06031733,-0.07881478645854897,2.8829143150806553,0.05665388593425328
11.06231736,-0.1001864638522831,2.8252393574933143,0.06332895053657836
11.06431743,-0.12585862962018118,2.766615837008709,0.0694698103367158
11.06631746,-0.15538595446967246,2.707538236953155,0.07497744566628743
11.0683175,-0.18830618691425763,2.6484769604161396,0.07977865494567803
11.07031753,-0.22414388960428275,2.5898750956496697,0.08382641278965773
11.07231753,-0.26241419481572004,2.532145474433231,0.08709989484504103
11.07431753,-0.30262655286436485,2.475668044353064,0.08960417540285306
11.07631686,-0.3442884477811692,2.4207875729698936,0.09136960677157493
11.07831686,-0.3869090553056689,2.367811698730374,0.09245089221247675
11.08031686,-0.4300028191156625,2.3170093402385783,0.09292586690539038
11.08231686,-0.4730929221999205,2.2686094721736607,0.09289400392046003
11.08431686,-0.5157146313840577,2.2228002727558986,0.09247466451076763
11.08631683,-0.5574184942266776,2.179728644266521,0.09180511420688735
11.08831679,-0.5977733688063437,2.139500104755131,0.09103832818081803
11.09031676,-0.63636926831578,2.1021790457578864,0.0903406111438531
11.09231672,-0.6728200038655976,2.0677893476369316,0.08988905863623674
11.09431669,-0.7067656104766472,2.0363153410751726,0.08986888793516165
11.09631666,-0.7378745429101304,2.0077031003558297,0.09047066792955025
11.09831662,-0.7658456297445906,1.9818620513532685,0.09188747817090087
11.10031662,-0.7904097759470565,1.9586668746833116,0.0943120279076745
11.10231662,-0.8113314060875659,1.937959682223222,0.09793376625255433
11.10431669,-0.8284096422999015,1.919552443220676,0.10293601472441462
11.10631672,-0.8414792130838157,1.9032296344637238,0.10949315325459165
11.10831676,-0.8504110910574301,1.888751087467336,0.11776789035201324
11.11031679,-0.8551128597820604,1.8758550043315083,0.12790864748268482
11.11231682,-0.8555288117784604,1.8642611128317328,0.14004708683208208
11.11431685,-0.8516397818224642,1.853673930416249,0.15429581048090962
11.11631699,-0.8434627215393536,1.8437861061146836,0.17074625763601967
11.11831699,-0.8310500231963245,1.8342818089196056,0.18946682492294836
11.12031695,-0.8144886024052606,1.8248401309956233,0.2105012328683343
11.12231692,-0.7938987511799824,1.8151384741126744,0.23386715958007934
11.12431685,-0.7694327744329975,1.8048558880104797,0.2595551602661725
11.12631682,-0.7412734245356951,1.7936763300044474,0.2875278886092822
11.12831678,-0.7096321499882053,1.7812918160645685,0.3177196331203891
11.13031675,-0.6747471755342328,1.7674054348564334,0.35003617842455875
11.13231675,-0.636881432194444,1.7517341978343295,0.3843549979925479
11.13431642,-0.5963203566544806,1.7340117004153075,0.42052578114283456
11.13631712,-0.5533695801958713,1.7139905715214663,0.4583712932354746
11.13831715,-0.5083525278684866,1.691444691318708,0.49768856392300376
11.14031718,-0.46160794885815454,1.666171159748407,0.5382503941989335
11.14231722,-0.4134873990038931,1.637992001377539,0.579807168885684
11.14431725,-0.36435269616619265,1.6067555951159032,0.6220889572274567
11.14631728,-0.31457336863674257,1.5723378204061709,0.6648078804944587
11.14831731,-0.26452411601595144,1.5346429145370208,0.7076607220458783
11.15031731,-0.21458230099052097,1.4936040387311438,0.7503317522005327
11.15231731,-0.1651254892516343,1.4491835535984554,0.7924957375674947
11.15431731,-0.11652905343384246,1.4013730074001125,0.8338211022281813
11.15631731,-0.06916385544792342,1.350192843314738,0.8739732063675836
11.15831731,-0.02339401995171037,1.295691834506619,0.9126177066470489
11.16031731,0.02042519001539766,1.2379462582443153,0.9494239617968849
11.16231731,0.06194938597348283,1.1770588225935308,0.9840684465702421
11.16431728,0.10084694802635238,1.113157361302566,1.0162381373228635
11.16631725,0.13680079421051095,1.0463933144075355,1.0456338330520498
11.16831721,0.16951002107811153,0.9769400138052425,1.0719733767252608
11.17031718,0.19869141299724555,0.9049907945723322,1.094994743126421
11.17231714,0.22408081910619673,0.8307569541465022,1.1144589612105569
11.17431711,0.2454343981600175,0.754465582623585,1.1301528410490114
11.17631708,0.26252973262468976,0.6763572883585449,1.1418914778336178
11.17831704,0.27516681427770506,0.5966838437874199,1.149520508051566
11.18031704,0.2831689042498574,0.51570577691247,1.1529180957993812
11.18231708,0.2863832708906267,0.43368993421138435,1.151996630223061
11.18431711,0.2846818090591927,0.35090704082338764,1.1467041181972222
11.18631714,0.27796154443256627,0.26762928369437494,1.1370252595387826
11.18831677,0.2661450261907866,0.1841279429017475,1.122982195251704
11.19031681,0.2491806110187837,0.1006710956295965,1.1046349224930323
11.19231684,0.22704264080144784,0.017521416249768672,1.0820813731153445
11.19431704,0.19973151572706213,-0.06506590529901353,1.0554571557462316
11.19631704,0.16727366379494324,-0.14684510615191848,1.0249349643704073
11.19831701,0.12972140699006254,-0.2275816352479569,0.9907236592448051
11.20031697,0.08715272369090517,-0.3070537631856334,0.9530670286752002
11.20231694,0.03967090626737727,-0.38505400238834925,0.9122422427004834
11.2043169,-0.012595887652170802,-0.4613903250652846,0.8685580120578712
11.20631654,-0.06949519207387725,-0.5358871688969388,0.8223524679292583
11.2083165,-0.13085089962716762,-0.6083862229484831,0.7739907798895284
11.2103165,-0.19646404046612573,-0.6787469889965647,0.723862531194892
11.2123165,-0.26611367453623996,-0.746847116214558,0.6723788720747966
11.2143165,-0.33955789803755015,-0.8125825099605842,0.6199694730415597
11.2163165,-0.41653496403225254,-0.8758672182076158,0.5670793014300038
11.2183165,-0.4967645160136471,-0.9366331018937375,0.514165245452984
11.2203165,-0.5799489319075251,-0.9948292981012086,0.4616926110366193
11.2223165,-0.6657747744707977,-1.050421487449099,0.4101315176045142
11.2243165,-0.7539143424517336,-1.103390979361804,0.35995321982680195
11.2263165,-0.8440273152470381,-1.1537336309071187,0.3116263831410397
11.22831654,-0.9357624821881013,-1.2014586166373653,0.265613341584177
11.23031657,-1.0287595460541865,-1.2465870682889784,0.22236636713881844
11.2323166,-1.1226509889817213,-1.2891506043038023,0.18232398037693967
11.23431684,-1.2170639876643625,-1.3291897699590225,0.14590733265511346
11.23631687,-1.3116223636763047,-1.3667524094763819,0.11351669043845113
11.2383169,-1.4059485539455143,-1.4018919918686321,0.08552805244435437
11.24031693,-1.4996655858665622,-1.4346659124979477,0.06228993011474095
11.24231693,-1.5923990412657247,-1.465133792370904,0.044120321360037004
11.2443169,-1.6837789934044276,-1.4933557970706288,0.03130390653366
11.24631687,-1.7734419014259453,-1.5193909969221628,0.02408949422565066
11.24831723,-1.8610324471058672,-1.5432957894957404,0.0226877427659793
11.2503172,-1.946205299440233,-1.5651224048692098,0.027269181316700253
11.25231716,-2.028626793473097,-1.5849175131976494,0.03796255206061471
11.2543169,-2.1079765108117097,-1.6027209530940068,0.05485349218685949
11.25631686,-2.1839487504958544,-1.6185645981426167,0.07798357107381615
11.25831686,-2.2562538802695684,-1.6324713775804722,0.10734969427332872
11.2603169,-2.3246195598292765,-1.6444544658017475,0.14290388166892534
11.26231693,-2.388791829264823,-1.6545166538552158,0.18455342262427127
11.26431696,-2.448536057637117,-1.6626499144820759,0.232161406187869
11.26631733,-2.503637748409632,-1.6688351704560371,0.2855476196209314
11.26831736,-2.5539032002246143,-1.6730422740285145,0.34448980382663547
11.27031739,-2.5991600232389507,-1.6752302031630542,0.40872524983608494
11.27231743,-2.6392575128629914,-1.6753474779961,0.4779527164721241
11.27431746,-2.674066884241432,-1.6733327986222069,0.5518346457513512
11.27631679,-2.703481372151373,-1.6691159029026263,0.6299996495608359
11.27831679,-2.7274162021482673,-1.6626186405617942,0.7120452387038461
11.28031679,-2.7458084397510465,-1.6537562573842135,0.7975407635530603
11.28231679,-2.7586167252128084,-1.6424388808636634,0.8860305342424463
11.28431679,-2.7658209019619853,-1.6285731961919074,0.9770370875210226
11.28631679,-2.7674215471146097,-1.6120642990156728,1.0700645670407616
11.28831676,-2.7634394125621937,-1.5928177089630908,1.1646021839056067
11.29031672,-2.7539147850597807,-1.5707415255763926,1.2601277247016114
11.29231669,-2.738906773506251,-1.5457487060140052,1.3561110749019472
11.29431646,-2.7184925312488866,-1.5177594417201854,1.4520177264766552
11.29631642,-2.6927664207753805,-1.486703609217572,1.5473122397599195
11.29831639,-2.6618391275958797,-1.4525232682744125,1.6414616311785992
11.30031636,-2.6258367294852643,-1.4151751789589562,1.7339386603498546
11.30231662,-2.584899726579268,-1.374633307555298,1.8242249923089133
11.30431662,-2.539182037135001,-1.3308912900264718,1.9118142132057727
11.30631665,-2.4888499631235845,-1.2839648207268413,1.9962146806733858
11.30831669,-2.4340811292680833,-1.2338939334373902,2.0769521931608153
11.31031672,-2.3750633987156053,-1.180745141564394,2.1535724657570876
11.31231675,-2.3119937682722713,-1.1246134045365561,2.225643403300627
11.31431715,-2.245077246059955,-1.0656238880838316,2.292757164772399
11.31631719,-2.1745257145860846,-1.003933487195503,2.354532016023624
11.31831722,-2.1005567825429314,-0.939732082132992,2.410613970730994
11.32031722,-2.0233926291387987,-0.873243499904403,2.460678222067327
11.32231719,-1.9432588453599913,-0.8047261560832261,2.5044303699029027
11.32431715,-1.860383277207565,-0.7344733547614706,2.541607450393773
11.32631712,-1.7749948765810828,-0.6628132277473963,2.571978776539112
11.32831708,-1.6873225660291586,-0.5901082978153349,2.59534659966231
11.33031705,-1.597594123996064,-0.5167546548382932,2.611546602757962
11.33231702,-1.5060350974146444,-0.4431807379147853,2.620448237232187
11.33431698,-1.4128677484837635,-0.3698457210594414,2.6219549147414845
11.33631765,-1.318310042198774,-0.29723750457800435,2.616004065616318
11.33831768,-1.222574680694823,-0.2258703188114266,2.6025670747815566
11.34031771,-1.125868189777693,-0.15628195144232504,2.581649105228554
11.34231775,-1.02839006223376,-0.08903061395193528,2.553288818032579
11.34431778,-0.9303319616995508,-0.024691467041199462,2.5175579967130837
11.34631781,-0.8318769900879944,0.03614717117077103,2.4745610824581505
11.34831784,-0.7331990208553094,0.0928879066313653,2.4244346254246616
11.35031788,-0.6344620997787248,0.14492860955930081,2.3673466560231535
11.35231791,-0.5358199144171634,0.19166697930448923,2.3034959788376845
11.35431791,-0.4374153330481334,0.23250529703551245,2.2331113906462794
11.35631791,-0.3393800136061071,0.2668553270201987,2.1564508229135866
11.35831791,-0.24183408297517925,0.2941433252199512,2.073800408126849
11.36031791,-0.1448858868958631,0.31381511224071545,1.985473468433386
11.36231761,-0.04863181071827718,0.3253411663820336,1.8918094242069963
11.36431761,0.04684382874388145,0.3282216916107176,1.7931726194238984
11.36631758,0.14146881995087882,0.3219916147634029,1.6899510600791205
11.36831754,0.23518302159040244,0.30622546615753554,1.5825550613456558
11.37031751,0.32793825529717646,0.2805420980712748,1.4714157988023888
11.37231748,0.4196981256152781,0.2446091962481101,1.35698375886736
11.37431748,0.5104377666319964,0.1981475406970362,1.2397270836023842
11.37631744,0.6001435147424239,0.14093497359497284,1.120129805325517
11.37831741,0.6888125071660289,0.07281003404982091,0.9986899669873951
11.38031737,0.7764522061525317,-0.006324778164791712,0.8759176250327217
11.38231737,0.8630798492742651,-0.09650014506255052,0.7523327324707179
11.38431707,0.9487218267877436,-0.19767751116448526,0.6284629011095629
11.38631711,1.0334129877420193,-0.3097471311561232,0.504841043361804
11.38831714,1.1171958772877613,-0.43252660943394117,0.38200289569183776
11.39031717,1.2001199084550507,-0.5657599524912756,0.2604844276423149
11.39231721,1.2822404724755458,-0.7091171508455195,0.1408191424307718
11.39431724,1.3636179924975194,-0.8621943027701039,0.02353527733473211
11.39631727,1.4443169262682525,-1.0245142875373063,-0.09084708554149976
11.39831727,1.5244047240311018,-1.195527991269987,-0.20181898504266393
11.40031724,1.6039507484929862,-1.3746160838915467,-0.3088856076763394
11.4023172,1.6830251642455878,-1.5610913410854,-0.4115693571639873
11.40431717,1.7616978044551386,-1.7542015006579663,-0.5094129463589987
11.40631714,1.8400370229598653,-1.9531326382790422,-0.6019824889179745
11.4083171,1.918108540119748,-2.1570130432814194,-0.6888705662782256
11.41031707,1.9959742908395375,-2.3649175710494106,-0.7696992440198379
11.41231703,2.073691283130568,-2.5758724445151238,-0.8441230105892351
11.41431703,2.1513104754061585,-2.7888604734315967,-0.9118316106287354
11.41631707,2.2288756804560768,-3.002826656460667,-0.9725527447725095
11.4183171,2.3064225037564374,-3.2166841277843905,-1.0260546076963266
11.42031713,2.383977323458081,-3.429320406995482,-1.072148236407986
11.42231716,2.461556319053825,-3.6396039084908782,-1.1106896412207719
11.4243172,2.5391645553578033,-3.8463906645233554,-1.141581692579622
11.42631723,2.616795128064402,-4.048531214500616,-1.1647757379442307
11.42831726,2.694428376813826,-4.244877612064997,-1.180272924299826
11.4303173,2.7720311713785155,-4.434290500885926,-1.1881252035602254
11.4323173,2.8495562762948903,-4.615646209873633,-1.188436000124052
11.4343173,2.9269417990116535,-4.78784381862709,-1.181360522118854
11.4363173,3.004110726438186,-4.94981214434776,-1.1671057004003045
11.4383173,3.080970554667713,-5.1005166021733075,-1.1459297421443984
11.4403173,3.1574130165919057,-5.238965891890538,-1.1181412888563769
11.4423173,3.2333139120559675,-5.364218465254553,-1.0840981717998535
11.4443183,3.3085330450676302,-5.4753887296700405,-1.0442057612051914
11.44631826,3.382914272344564,-5.571652945797485,-0.9989149091287108
11.44831823,3.456285667176484,-5.652254778749551,-0.9487194894833524
11.4503182,3.528459802227414,-5.716510464936081,-0.8941535425280047
11.45231816,3.599234154545111,-5.7638135592642294,-0.8357880349692922
11.45431813,3.668391635691225,-5.793639230247354,-0.7742272507757325
11.45631809,3.7357012495386903,-5.8055480735657685,-0.7101048318044791
11.45831806,3.80091887986039,-5.799189417711978,-0.6440794913687828
11.46031806,3.863788209309535,-5.77430409852314,-0.5768304279061014
11.46231809,3.924041770731152,-5.730726682656979,-0.5090524699199102
11.46431812,3.9814021309218743,-5.668387123423202,-0.44145098733543847
11.46631816,4.0355832059573435,-5.587311835866467,-0.37473660829247385
11.46831819,4.08629170602507,-5.487624181631124,-0.3096197841400935
11.47031822,4.133228706336589,-5.36954435792954,-0.24680524891041836
11.47231826,4.176091339159053,-5.233388688871908,-0.18698642269745952
11.47431816,4.214574600323668,-5.079568321464215,-0.13083981097524694
11.47631749,4.248373261762769,-4.908587332695045,-0.07901945377332327
11.47831746,4.277183879734091,-4.721040258257754,-0.0321514796619004
11.48031742,4.3007068864576645,-4.517609057547366,0.009171180349990003
11.48231739,4.318648750973595,-4.2990595335963215,0.04439386460906532
11.48431735,4.330724193186678,-4.066237230531278,0.07300498545993159
11.48631732,4.336658433355063,-3.820062834895473,0.09454051626772435
11.48831732,4.336189457760364,-3.5615271107479995,0.10858811351497677
11.49031699,4.329070280018428,-3.291685401804654,0.11479083050917019
11.49231699,4.31507117650654,-3.011651737014188,0.11285038363731667
11.49431702,4.293981873747136,-2.722592578839473,0.10252993694860114
11.49631705,4.265613665346552,-2.425720256079838,0.08365637604376186
11.49831708,4.229801436270038,-2.122286125266611,0.05612204771735175
11.50031712,4.186405572848361,-1.8135735064435228,0.01988594744843232
11.50231715,4.1353137379454035,-1.5008904404806087,-0.025025657429569918
11.50431648,4.076442492147325,-1.1855623159541753,-0.07851917532360504
11.50631652,4.009738743628643,-0.8689244140732358,-0.14043420954976493
11.50831655,3.935181011465316,-0.5523144201871771,-0.21054464440407938
11.51031655,3.852780489550304,-0.23706495010739384,-0.2885602881808005
11.51231655,3.762581900864974,0.07550386117342114,-0.3741290581385409
11.51431655,3.6646641345914235,0.38409166178394355,-0.46683968764299816
11.51631655,3.559140661310236,0.6874250310775825,-0.5662249312466757
11.51831655,3.4461597241986337,0.9842644300138321,-0.6717652393154827
11.52031655,3.3259043066363594,1.2734109122912463,-0.7828928699721321
11.52231652,3.1985918788957917,1.5537125569449444,-0.8989964025779166
11.52431648,3.0644739286083054,1.8240705855745745,-1.019425613713049
11.52631645,2.9238352814217343,2.0834451300457877,-1.1434966736640546
11.52831641,2.7769932196689293,2.3308606194175465,-1.2704976188162178
11.53031638,2.6242964079715523,2.5654107579557786,-1.3996940530938173
11.53231635,2.466123635555042,2.786263069339822,-1.5303350296828901
11.53431625,2.3028823857008267,2.9926629854975677,-1.6616590626966743
11.53631688,2.135007243244671,3.183937461883268,-1.7929002171997748
11.53831688,1.962958151363873,3.3594981044106436,-1.9232942251071283
11.54031691,1.78721852909291,3.518843796638286,-2.052084573942051
11.54231695,1.608293261081481,3.661562819136287,-2.178528515299042
11.54431698,1.4267065710816689,3.787334456215737,-2.3019029401341373
11.54631701,1.2429997905517625,3.8959300883634738,-2.4215100687213233
11.54831701,1.0577290336301859,3.9872137717820006,-2.536682904296654
11.55031734,0.8714627896002495,4.06114230937004,-2.6467904011042385
11.55231738,0.6847794438624268,4.117764820270349,-2.751242299819612
11.55431738,0.49826473837612906,4.157221817737661,-2.84949358621932
11.55631734,0.3125091825469414,4.179743807521637,-2.9410485325335003
11.55831731,0.12810542562588711,4.185649421201866,-3.025464285172396
11.56031728,-0.05435439816358576,4.1753431009480835,-3.102353967432782
11.56231724,-0.23428134038267218,4.14931235401315,-3.1713892712861744
11.56431681,-0.4110923134628736,4.108124596913382,-3.232302518287916
11.56631677,-0.5842127584155411,4.052423610736783,-3.2848881758523625
11.56831674,-0.7530792933293384,3.9829256303820366,-3.329003821443145
11.57031654,-0.9171423306931704,3.9004150918074565,-3.3645705534844486
11.57231657,-1.0758686514361253,3.8057400625829034,-3.3915728539078396
11.5743166,-1.2287439233926816,3.6998073821924327,-3.4100579131532935
11.57631664,-1.3752751516843333,3.5835775396187723,-3.4201344341218536
11.57831667,-1.5149930482775484,3.4580593167325957,-3.4219709370237132
11.5803167,-1.6474543077581392,3.324304226892827,-3.4157935922568057
11.58231674,-1.7722437761855148,3.183400778934113,-3.401883613324293
11.58431677,-1.8889764997945377,3.0364685973813357,-3.380574246241365
11.5863168,-1.9972996403292975,2.8846524302980017,-3.3522473957376624
11.5883168,-2.096894243933394,2.729116076647804,-3.3173299316673104
11.5903168,-2.1874768507772653,2.5710362654190804,-3.276289721257435
11.5923168,-2.2688009329648753,2.4115965190140294,-3.229631434065049
11.5943166,-2.340658148735096,2.251981033514786,-3.1778921667353615
11.5963166,-2.402879401579415,2.0933686083776224,-3.121636933908267
11.5983166,-2.455335693667234,1.9369266578401276,-3.061454070029513
11.60031657,-2.4979387639313986,1.7838053358165782,-2.997950584545653
11.60231654,-2.5306415023387263,1.63513180527117,-2.9317475101421864
11.6043165,-2.553438133259847,1.492004681980405,-2.8634752804503023
11.60631647,-2.5663641624551325,1.3554886812255909,-2.7937691701251732
11.60831643,-2.569496083992256,1.2266094943023012,-2.723264826515795
11.6103164,-2.5629508453733023,1.1063489198042482,-2.65259391842281
11.61231636,-2.5468850712327087,0.9956402724490586,-2.5823799237799006
11.61431633,-2.5214940481344836,0.8953640897852561,-2.5132340745860926
11.61631633,-2.4870104752232574,0.8063441544747747,-2.4457514741407906
11.61831633,-2.443702987750126,0.7293438470041844,-2.3805073986541703
11.62031636,-2.3918744627845716,0.6650628406725635,-2.3180537926613076
11.6223164,-2.331860118723233,0.6141341475782705,-2.2589159653795785
11.62431683,-2.264025422496455,0.5771215211201893,-2.2035894932327915
11.62631686,-2.188763820624819,0.5545172172716907,-2.152537332234681
11.6283169,-2.10649431244939,0.5467401136150267,-2.1061871427655756
11.63031713,-2.017658885905487,0.5541341818967763,-2.064928828439307
11.63231713,-1.9227198380877766,0.5769673067509086,-2.0291122901681224
11.6343171,-1.822157004525497,0.6154304403094489,-1.9990453961127823
11.63631706,-1.71646492250596,0.6696370797619069,-1.9749921678874574
11.63831703,-1.6061499548917075,0.7396230526178803,-1.957171183133478
11.64031699,-1.4917274015945479,0.8253465925470256,-1.9457541943633674
11.64231696,-1.3737186261152137,0.9266886872692656,-1.940864963792824
11.64431692,-1.2526482242722454,1.0434536790780429,-1.9425783137014385
11.64631689,-1.1290412614300975,1.175370098219527,-1.9509193916672487
11.64831689,-1.0034206032591135,1.3220917095211524,-1.965863149790011
11.65031692,-0.8763043634063982,1.4831987533351212,-1.9873340367563046
11.65231696,-0.7482034894988097,1.6581993629862195,-2.015205901326178
11.65431766,-0.6196195066897354,1.8465311424357866,-2.049302105565965
11.65631769,-0.4910424355491803,2.0475628897476743,-2.089395845949121
11.65831772,-0.36294889853976714,2.2605964541181285,-2.1352106803275133
11.66031776,-0.23580042668503354,2.4848687166461874,-2.1864212587577043
11.66231779,-0.11004197538296517,2.719553687599281,-2.2426542562522194
11.66431782,0.013899344310568646,2.963764715605817,-2.303489505705454
11.66631782,0.13561531518804984,3.2165568069359796,-2.368461329501022
11.66831782,0.254717442973618,3.4769290557570454,-2.4370600686138935
11.67031782,0.37083756621927105,3.7438271888846195,-2.508733808340864
11.67231782,0.4836282505897944,4.01614623100631,-2.582890300094661
11.67431782,0.5927629733255894,4.292733298570772,-2.6588990789575626
11.67631722,0.6979361057556995,4.572390532485914,-2.736093776889099
11.67831722,0.7988627036852933,4.853878181432821,-2.81377463159372
11.68031636,0.8952781172963081,5.1359178489412605,-2.891211191052415
11.68231632,0.9869374338709191,5.4171959183482326,-2.9676452135880895
11.68431629,1.0736147681757107,5.696367170341471,-3.0422937630514792
11.68631585,1.1551024167343942,5.972058607958385,-3.114352498260225
11.68831582,1.23120989347014,6.242873503659827,-3.182999155171836
11.69031489,1.3017628653101851,6.507395682420737,-3.247397219401937
11.69231418,1.3666020073047778,6.764194053668398,-3.3066997856057156
11.69431329,1.4255817976031036,7.01182740335057,-3.3600535989252402
11.69631328,1.478569273225978,7.248849455432772,-3.406603272176393
11.69831265,1.5254427679520346,7.473814209715849,-3.445495670723969
11.70031178,1.566090653775871,7.685281560048053,-3.475884455100434
11.70231092,1.600410107305724,7.881823193803079,-3.4969347693927535
11.70431005,1.6283059221525569,8.062028769930265,-3.507828061270383
11.70630918,1.6496893878177037,8.224512368977742,-3.5077670172602096
11.70830855,1.6644772547941258,8.367919204268885,-3.495980594496577
11.71030838,1.6725908045392066,8.490932578910888,-3.4717291277100095
11.71230768,1.6739550416486917,8.592281068575936,-3.4343094877094447
11.71430672,1.6684980239644533,8.670745905074137,-3.3830602651056463
11.71630578,1.6561503444920729,8.725168530694988,-3.317366950552315
11.71830508,1.6368447769102463,8.754458288195513,-3.2366670803724427
11.72030415,1.610516094165085,8.757600206221406,-3.140455314122788
11.72230321,1.5771010672134778,8.733662834924507,-3.028288408468436
11.72430228,1.536538648462484,8.681806081647577,-2.899790049726687
11.72630138,1.488770341884763,8.601288991846918,-2.7546555056218547
11.72830051,1.4337407592013787,8.491477415976826,-2.592656055203362
11.73029981,1.3713983589387497,8.351851498933032,-2.413643154568509
11.73229894,1.301696362612577,8.18201292491574,-2.2175522950582818
11.73429808,1.2245938397914675,7.981691847298576,-2.004406510022616
11.73629781,1.140056951364218,7.750753430349258,-1.774319486144565
11.73829694,1.0480603379937639,7.489203927514724,-1.527498235730855
11.74029691,0.9485886385084595,7.197196219535198,-1.2642452873662147
11.74229604,0.8416381208817536,6.875034734965309,-0.9849603539214663
11.74429514,0.7272184065068605,6.5231796758243465,-0.6901414391192151
11.74629464,0.6053542667014079,6.14225047212793,-0.3803853467048785
11.74829374,0.4760874687922873,5.733028391017801,-0.05638755974345896
11.75029464,0.3394786477489453,5.296458229148084,0.28105853834749966
11.75229531,0.19560917817651904,4.83364902093789,0.6310631247344056
11.75429531,0.04458302057654178,4.3458737002746535,0.9926420985448818
11.75629531,-0.11347148483736376,3.834567659241444,1.3647199554409786
11.75829594,-0.2783999037884366,3.301326154422336,1.7461333820251497
11.76029591,-0.45002010003865156,2.747900519287356,2.1356355702576897
11.76229677,-0.6281207605486112,2.1761931500391123,2.531901245306084
11.76429764,-0.812460079567749,1.588251242055218,2.933532393233717
11.76629784,-1.0027646264573904,0.9862592645939026,3.339064667736532
11.76829777,-1.1987284206548328,0.3725301726606065,3.7469744478237206
11.77029791,-1.4000122354743383,-0.2505046331952737,4.155686510970435
11.77229857,-1.6062431504177455,-0.8803065759312411,4.5635822789154386
11.77430004,-1.817014369350084,-1.514242363766801,4.9690085860508635
11.77630097,-2.031885319312265,-2.149597595279114,5.37028691340694
11.77830167,-2.2503820419209544,-2.783591445126219,5.765723024704049
11.7803022,-2.471997886256773,-3.413392354341285,6.153616934910204
11.78230314,-2.696194508863503,-4.036134635922302,6.532273136266489
11.78430407,-2.922403182975715,-4.6489358934919585,6.900011001916225
11.78630434,-3.150026415384385,-5.2489151383087,7.255175283226594
11.78830524,-3.378439865482603,-5.8332114780732205,7.596146613762734
11.79030504,-3.606994557057186,-6.399003239979811,7.921351930775955
11.7923059,-3.8350193693694297,-6.943527380490554,8.22927472409543
11.79430637,-4.061823790084822,-7.464099025559725,8.518465022561436
11.79630633,-4.286700908765877,-7.958130977669385,8.787549029662696
11.7983072,-4.508930626018499,-8.423153020131958,9.035238322814475
11.80030807,-4.727783050041699,-8.856830844719077,9.26033853466239
11.80230893,-4.942522049329113,-9.25698442590931,9.461757439853866
11.80431087,-5.152408927681857,-9.621605664099507,9.638512376847027
11.8063118,-5.356706185615512,-9.94887512116461,9.789736941492446
11.80831273,-5.554681330779799,-10.237177674869104,9.914686897255645
11.81031186,-5.745610699210158,-10.485116923826633,10.012745255888097
11.81231183,-5.9287832490923185,-10.691528181913725,10.08342649184608
11.81431276,-6.10350428923861,-10.85548991024928,10.126379863504729
11.8163125,-6.269099105663831,-10.976333446099689,10.141391823949903
11.81831253,-6.42491645149644,-11.053650901362774,10.128387513642837
11.82031263,-6.570331867896588,-11.08730111849437,10.087431336394753
11.82231263,-6.704750806584319,-11.077413588655041,10.018726628755914
11.82431263,-6.827611527942364,-11.024390255257096,9.922614441018274
11.82631423,-6.9383877524056885,-10.928905145788335,9.799571455439384
11.82831493,-7.036591046932855,-10.79190179557032,9.650207073905682
11.83031493,-7.121772932691966,-10.61458844872564,9.475259712981515
11.83231493,-7.1935267045954,-10.398431043800207,9.275592349086892
11.83431413,-7.251488957915697,-10.14514401393201,9.052187360406913
11.8363141,-7.295340821873392,-9.856678953912274,8.80614071511797
11.83831406,-7.324808904777571,-9.535211228694742,8.538655557727774
11.84031443,-7.3396659599791,-9.183124619618726,8.251035246878349
11.84231439,-7.339731286486838,-8.80299412555604,7.944675898936659
11.84431496,-7.324870882442736,-8.397567056089358,7.621058492161563
11.84631559,-7.294997373488081,-7.969742572378053,7.281740586248139
11.84831556,-7.250069741058164,-7.5225498482411695,6.928347711659441
11.85031606,-7.190092877561522,-7.059125038877799,6.562564482393251
11.85231606,-7.115116996120046,-6.582687257337326,6.1861254847326625
11.85431649,-7.02523692206773,-6.09651376923574,5.800805993144495
11.85631742,-6.920591291809899,-5.603914624221873,5.408412562857158
11.85831746,-6.801361682112519,-5.108206948288339,5.0107735467808805
11.86031749,-6.667771689685952,-4.612689124251173,4.609729582344436
11.86231752,-6.520085977311681,-4.1206150887430075,4.207124091558875
11.86431652,-6.358609298929381,-3.635168973005604,3.8047938352248294
11.86631652,-6.183685512182388,-3.1594403116613727,3.4045595596995866
11.86831652,-5.995696583005881,-2.6964000385089846,3.008216772073682
11.87031739,-5.795061583017342,-2.2488774813147954,2.617526677066498
11.87231742,-5.58223567680955,-1.8195385586875934,2.2342073065575314
11.87431766,-5.357709092822565,-1.4108653715235777,1.8599248705304932
11.87631726,-5.12200606835477,-1.0251373692389947,1.4962853563922915
11.87831722,-4.875683756540242,-0.664414257119288,1.1448264021798518
11.88031802,-4.619331080844735,-0.3305207957118812,0.807009468107035
11.88231802,-4.353567520877856,-0.025033626435267485,0.48421233024338023
11.88431739,-4.079041812131913,0.25072976036472544,0.17772191986381558
11.88631649,-3.79643054166844,0.49571981767144147,-0.11127246783099215
11.88831652,-3.5064366217960936,0.7091614170381272,-0.38168557135496195
11.89031655,-3.209787624422296,0.8905579501694617,-0.6325421417199791
11.89231659,-2.9072339600155037,1.0396930214914464,-0.8629824758827715
11.89431662,-2.599546886978009,1.156629718075053,-1.0722674769106617
11.89631665,-2.287516339674188,1.241707465227106,-1.2597832113959158
11.89831669,-1.9719485663329597,1.2955364980212718,-1.425044933211299
11.90031668,-1.6536635714698251,1.3189900007842843,-1.5677005414773122
11.90231668,-1.3334923612529683,1.3131939878504129,-1.6875334397048012
11.90431565,-1.0122739942344805,1.2795150195235867,-1.7844647625801044
11.90631565,-0.6908524439256778,1.2195458669187822,-1.8585549368541638
11.90831565,-0.370073283690644,1.1350892579957084,-1.9100045433019397
11.91031605,-0.050780208307037826,1.02813985449582,-1.9391544476768703
11.91231605,0.26618858973212967,0.9008646255192669,-1.9464851699082912
11.91431602,0.5800041675930946,0.7555817979867783,-1.9326154624156506
11.91631598,0.889850678369765,0.5947385770652892,-1.8983000703331852
11.91831595,1.1949292886256764,0.42088784067360957,-1.844426648696373
11.92031592,1.4944621370983204,0.23666402136328848,-1.7720118143251915
11.92231588,1.787696302273825,0.044758396155454856,-1.6821963133722926
11.92431641,2.073907744668778,-0.1521059897426213,-1.5762392894389017
11.92631638,2.3524051881415056,-0.35119953609065696,-1.4555116419731393
11.92831635,2.6225339034582684,-0.5498112071477941,-1.321488470537638
11.93031635,2.8836793566993553,-0.7452733279809244,-1.175740607639227
11.93231638,3.1352706849176433,-0.9349858309686756,-1.0199252513073473
11.93431578,3.3767839617535826,-1.1164397310683183,-0.8557757185902197
11.93631648,3.6077452164496213,-1.2872396156389405,-0.6850903525944229
11.93831651,3.827733170874941,-1.4451249438362659,-0.5097206284801453
11.94031654,4.036381660765312,-1.587989961721875,-0.33155851771475847
11.94231658,4.233381709417777,-1.7139020521908306,-0.15252318461360995
11.94431718,4.4184832245687735,-1.8211183535600697,0.02545289556269105
11.94631651,4.591496292127146,-1.9081004971111486,0.20043829233865734
11.94831648,4.752292043822324,-1.9735273319455497,0.3705173300013203
11.95031644,4.900803079649421,-2.0163055250208575,0.5338050181924779
11.95231641,5.037023430228806,-2.0355779449540075,0.6884620569426245
11.95431638,5.161008048836627,-2.0307297598546694,0.8327097596804585
11.95631634,5.2728718278860836,-2.0013922018815626,0.9648447305394505
11.95831631,5.372788139972644,-1.947443974221232,1.0832531288418268
11.96031631,5.460986909098777,-1.8690102995913715,1.1864243542954045
11.96231634,5.537752223218178,-1.7664596329749012,1.2729639911214181
11.96431681,5.603419504696763,-1.640398084885752,1.34160585766979
11.96631684,5.658372260648578,-1.4916616248063013,1.3912230194821997
11.96831687,5.703038440353742,-1.3213061572340554,1.420837637524198
11.9703169,5.737886432051031,-1.1305955847350426,1.4296295387348972
11.97231694,5.763420736217551,-0.9209879932411381,1.4169434125799345
11.97431697,5.780177356868446,-0.6941201142734283,1.3822945545551788
11.976317,5.788718956292536,-0.4517902365401918,1.3253730953216158
11.978317,5.789629821853013,-0.19593975516705625,1.246046672174691
11.980317,5.7835106958974745,0.07136643957746941,1.144361517713553
11.982317,5.77097352131718,0.347960521001369,1.0205419587249762
11.98431644,5.752636155789334,0.6315930104668429,0.8749883362486924
11.98631644,5.729117107228901,0.919954559979467,0.708273375313919
11.98831644,5.701030341555731,1.210698001997547,0.5211370496578801
11.99031644,5.66898021168919,1.5014604350972132,0.3144800025577043
11.9923164,5.633556553874518,1.7898851164982061,0.08935559943563011
11.99431674,5.59532999416698,2.0736429376976604,-0.15303929908803388
11.9963167,5.55484750424906,2.3504532675070644,-0.4113747436053327
11.99831667,5.512628241785189,2.618103957471825,-0.6841991718254062
12.00031663,5.469159706283373,2.874470317725989,-0.9699518354772549
12.0023166,5.4248942370352475,3.117532886522041,-1.2669760523112215
12.00431677,5.380245875289856,3.3453938337627487,-1.5735331508329504
12.0063174,5.335587608530259,3.556291857716656,-1.88781696978196
12.0083174,5.291249010675602,3.7486154545684824,-2.2079687695836574
12.01031743,5.247514288272809,3.9209144622695806,-2.5320924091070416
12.01231746,5.204620739265726,4.071909802937247,-2.8582696381760497
12.0143175,5.162757627695268,4.20050137139069,-3.184575354671341
12.01631753,5.1220654746347485,4.305774040878126,-3.509092675130621
12.01831756,5.08263576274503,4.387001780210754,-3.8299276699635607
12.0203176,5.044511049019359,4.443649898957232,-4.145223619074832
12.0223176,5.007685477600052,4.475375458682477,-4.453174650959786
12.0243176,4.972105682048495,4.482025908083114,-4.752038638138202
12.02631756,4.9376720642034035,4.463636017954774,-5.040149233914378
12.02831753,4.904240434810476,4.420423207969849,-5.3159269495534875
12.0303175,4.871623999443506,4.352781371112377,-5.577889186569236
12.03231746,4.839595671818054,4.26127331328251,-5.824659155371403
12.03431743,4.807890695365684,4.146621935088435,-6.054973628473227
12.03631739,4.776209552837577,4.00970029028759,-6.267689493308515
12.03831739,4.744221142696825,3.8515206608620614,-6.461789086019086
12.04031739,4.711566200094494,3.673222792459176,-6.636384303001887
12.04231739,4.677860939256533,3.476061436027473,-6.790719501341135
12.04431723,4.642700893083569,3.2613933420440935,-6.924173212392624
12.04631723,4.605664924631203,3.0306638528510437,-7.036258704676359
12.04831723,4.566319383859503,2.7853932363662453,-7.126623442823389
12.05031723,4.524222381626383,2.527162900897119,-7.195047498602628
12.05231723,4.47892815140877,2.2576016260638543,-7.241440978056631
12.05431723,4.429991467751083,1.9783719390161705,-7.265840535536032
12.05631726,4.376972089051115,1.6911567582374551,-7.268405050947662
12.05831729,4.319439191095768,1.397646419312052,-7.249410550827512
12.06031733,4.25697575685396,1.0995261881709828,-7.2092444569562115
12.06231736,4.189182887507409,0.7984643576523185,-7.148399248217863
12.06431726,4.115683999613589,0.49610101284308494,-7.067465622333211
12.06631729,4.036128873690932,0.19403753973384782,-6.9671252440434355
12.06831732,3.9501975204159554,-0.10617305964975396,-6.848143165356071
12.07031732,3.857603832017276,-0.40303499411215066,-6.711360001673854
12.07231729,3.758098988301078,-0.6951176123566656,-6.557683945093508
12.07431686,3.651474588983873,-0.9810624061227908,-6.388082692955385
12.07631616,3.5375654865736155,-1.2595890706803987,-6.203575365906976
12.07831612,3.4162522968699767,-1.529500617015218,-6.005224485372274
12.08031609,3.287463567199198,-1.7896875405861883,-5.794128075453832
12.08231605,3.151177585710217,-2.039131061487009,-5.571411948994229
12.08431602,3.0074238183788053,-2.2769054601255228,-5.33822223185032
12.08631602,2.8562839637212885,-2.5021795410762038,-5.095718173453051
12.08831605,2.6978926185275665,-2.7142172654938848,-4.845065285506337
12.09031609,2.532437551117701,-2.9123775993369043,-4.587428844294276
12.09231612,2.3601595816621823,-3.096113630583918,-4.3239677856062455
12.09431615,2.181352071939232,-3.264971013603826,-4.055829014857064
12.09631619,1.9963600294880126,-3.418585802826567,-3.7841421486719673
12.09831578,1.8055788334444451,-3.5566817408507485,-3.5100146981022626
12.10031582,1.60945259146075,-3.679067068118893,-3.2345276978000435
12.10231585,1.4084721390678856,-3.785630922314324,-2.9587317799612065
12.10431602,1.203172694656641,-3.8763393957045786,-2.683643686684462
12.10631602,0.9941311849016233,-3.951231317786183,-2.41024320961726
12.10831602,0.7819632569155854,-4.010413828798525,-2.1394705413953123
12.11031562,0.5673199947257169,-4.054057807027718,-1.8722240194672741
12.11231562,0.35088435886164376,-4.082393209403556,-1.6093582394698174
12.11431562,0.13336736898098384,-4.095704380809561,-1.3516825124134377
12.11631558,-0.08449594944864001,-4.094325382890058,-1.09995963757869
12.11831555,-0.3019508323379522,-4.078635388062825,-0.8549049612240532
12.12031552,-0.5182272349371034,-4.049054179041848,-0.6171856899885896
12.12231548,-0.7325444564566778,-4.006037788551086,-0.3874204272537333
12.12431545,-0.944115906205705,-3.9500743081782184,-0.1661789007241844
12.12631541,-1.1521539850365736,-3.8816798895903597,0.04601814989367418
12.12831538,-1.3558750547592262,-3.8013949557183433,0.24869895499630051
12.13031535,-1.554504466972105,-3.709780634104266,0.44144059499366783
12.13231534,-1.7472816214303584,-3.607415419477576,0.6238688035856389
12.13431578,-1.9334650226216914,-3.494892067847806,0.7956577169118166
12.13631648,-2.112337301657393,-3.3728147200341922,0.95652958748245
12.13831651,-2.28321016894013,-3.2417962486387752,1.106254477711523
12.14031654,-2.445429261374621,-3.1024558190576323,1.2446499433573446
12.14231658,-2.5983788461698136,-2.9554166522891485,1.3715807122445272
12.14431598,-2.741486341591275,-2.8013039751360247,1.4869583582847044
12.14631601,-2.8742266134873438,-2.640743141957678,1.590740965106245
12.14831601,-2.996126005245086,-2.4743579113362597,1.6829327677853863
12.15031598,-3.1067660582639323,-2.302768860705052,1.7635837555874931
12.15231594,-3.2057868802621656,-2.126591922005498,1.8327892136195554
12.15431591,-3.292890119926996,-1.946437021721153,1.890689177185298
12.15631587,-3.3678415087294598,-1.7629068091674878,1.9374677697317448
12.15831627,-3.4304729342039377,-1.576595457693232,1.9733523938078732
12.16031624,-3.4806840135582147,-1.388087524471414,1.9986127444974664
12.16231621,-3.5184431419653843,-1.197956855819515,2.013559616294263
12.16431621,-3.5437879961008174,-1.0067655264597077,2.0185434772717956
12.16631624,-3.556825480229898,-0.8150628027581306,2.0139527885664354
12.16831627,-3.557731109222289,-0.6233841217068485,2.000212052504306
12.17031671,-3.5467478300550157,-0.4322500791912251,1.97777957894715
12.17231674,-3.524184290457805,-0.24216542289828033,1.9471449663195073
12.1743169,-3.49041257015824,-0.05361804706121708,1.9088263009868387
12.17631694,-3.4458653965545674,0.13292201189887387,1.8633670858673854
12.17831697,-3.3910328724880423,0.31700357788658495,1.811332916094999
12.180317,-3.3264587490583826,0.4981953329706291,1.7533079259543378
12.182317,-3.252736281109472,0.6760868058818027,1.6898910369651863
12.184317,-3.1705037071073647,0.8502893447682615,1.6216920417269647
12.186317,-3.080439398642577,1.0204370662090245,1.5493275618425968
12.188317,-2.9832567277175683,1.1861877710574416,1.4734169208944088
12.190317,-2.87969870233255,1.347223816436238,1.3945779750938403
12.192317,-2.7705324226481602,1.503252932138938,1.3134229449799426
12.19431697,-2.6565434111324664,1.6540089688307569,1.230554291512982
12.19631694,-2.5385298705167463,1.799252564832447,1.1465606791881222
12.1983169,-2.417296923048981,1.9387717179537536,1.0620130674703805
12.20031687,-2.2936508834770892,2.072382248823329,0.9774609700378775
12.20231683,-2.1683936164914597,2.1999281424248505,0.8934289191238467
12.20431867,-2.0423170270846613,2.3212817551028473,0.8104131697407012
12.20631863,-1.916197729510328,2.436343875181791,0.7288786757887581
12.2083186,-1.7907919373120502,2.545043626574686,0.6492563670216588
12.21031833,-1.666830613330845,2.6473382063360065,0.5719407525819757
12.21231836,-1.5450149147783625,2.7432124490091025,0.4972878733485708
12.2143184,-1.4260119644653892,2.8326782127944794,0.4256136216496421
12.21631843,-1.3104509751650646,2.9157735849786506,0.3571924429738747
12.21831846,-1.1989197499104087,2.99256190665264,0.29225643014553543
12.2203185,-1.0919615768022948,3.063130619436802,0.23099481605202785
12.22231853,-0.9900725326564332,3.1275899396310214,0.1735538665274678
12.22431856,-0.8936992055761739,3.1860713678523416,0.12003717055653447
12.22631856,-0.8032368423532468,3.238726044745058,0.0705063207203789
12.22831853,-0.7190279225364543,3.285722965698122,0.024981972861336674
12.23031849,-0.6413611571299462,3.3272470696311554,-0.016554729667757433
12.23231846,-0.5704709062312728,3.363497218768759,-0.054160385086885456
12.23431829,-0.5065370065180141,3.394684087880288,-0.0879272364979163
12.23631826,-0.44968499634968967,3.421027982702048,-0.11798077300324278
12.23831822,-0.3999867233744236,3.442756608180043,-0.14447705464348815
12.24031819,-0.3574613169272547,3.4601028077876643,-0.1675997893382025
12.24231819,-0.3220765051958322,3.4733022955080077,-0.1875571919396792
12.24431822,-0.2937502551311699,3.482591402147499,-0.20457865718316634
12.24631826,-0.2723527114145748,3.488204857479078,-0.21891127972757524
12.24831829,-0.2577084094610701,3.4903736293073955,-0.2308162556133739
12.25031832,-0.2495987364307932,3.4893228399181333,-0.2405652002948599
12.25231836,-0.24776461350835424,3.485269779536486,-0.2484364189086634
12.25431839,-0.25190937226948185,3.4784220353939417,-0.2547111646068715
12.25631842,-0.2617017977598937,3.468975753802752,-0.25966992061420685
12.25831846,-0.27677931094363134,3.4571140512768936,-0.26358874117750564
12.26031846,-0.29675126342550406,3.443005589230666,-0.26673568578326184
12.26231846,-0.32120231780897945,3.4268033251492427,-0.26936737995121945
12.26431722,-0.34969588770930776,3.408643451383993,-0.2717257345915189
12.26631722,-0.38177761228637963,3.388644530910465,-0.2740348543510222
12.26831722,-0.4169788411690648,3.3669068375316136,-0.27649816357439483
12.27031749,-0.4548201067866913,3.343511906141159,-0.27929577647383863
12.27231745,-0.49481456238308896,3.3185222967999435,-0.2825821358546281
12.27431742,-0.5364713653491837,3.291981574529144,-0.28648394230563623
12.27631672,-0.579298986956586,3.2639145048870524,-0.2910983931590112
12.27831668,-0.6228084310884059,3.2343274635654113,-0.29649174777150367
12.28031665,-0.6665163461232873,3.203209056411643,-0.3026982327992575
12.28231662,-0.7099480157116591,3.170530944451045,-0.30971929814602606
12.28431658,-0.7526402157651053,3.136248866648584,-0.3175232311828867
12.28631655,-0.7941439265338522,3.1003038513228,-0.32604513369298505
12.28831655,-0.8340268901476344,3.0626236053266385,-0.3351872628212665
12.29031658,-0.8718760054234895,3.0231240683739897,-0.3448197341404055
12.29231662,-0.9072995530936288,2.9817111182517846,-0.354781581808569
12.29431665,-0.9399292458760214,2.938282411144083,-0.36488216771732807
12.29631668,-0.9694220989950251,2.8927293399219063,-0.3749029285358671
12.29831671,-0.9954621178506943,2.8449390920267676,-0.38459944667775736
12.30031771,-1.0177618005269657,2.7947967875029867,-0.39370382846985436
12.30231775,-1.0360634537209519,2.742187676823846,-0.4019273702011793
12.30431775,-1.0501403214744152,2.6869993774194514,-0.40896349027799733
12.30631771,-1.059797526805258,2.6291241272549013,-0.414490903411853
12.30831768,-1.0648728269858438,2.568461033425768,-0.41817701062424467
12.31031765,-1.0652371838098944,2.504918293532744,-0.41968147687577595
12.31231761,-1.0607951507399525,2.4384153675687186,-0.41865996633610963
12.31431758,-1.0514850793390262,2.3688850781993054,-0.4147680037196534
12.31631754,-1.0372791478711965,2.296275617640831,-0.4076649287267266
12.31831751,-1.0181832154202715,2.220552439837627,-0.39701790944616744
12.32031751,-0.9942365053393333,2.141700017311695,-0.3825059795829758
12.32231754,-0.9655111223204792,2.0597234428962206,-0.363824063565733
12.32431758,-0.9321114078679851,1.974649857559874,-0.3406869529627086
12.32631761,-0.8941731394642662,1.886529686674588,-0.3128331972020069
12.32831764,-0.8518625792269281,1.7954376683773794,-0.28002887136805793
12.33031767,-0.8053753783620267,1.701473659136261,-0.24207118386062806
12.33231771,-0.7549353442253787,1.6047632032648818,-0.1987918869882064
12.33431774,-0.7007930773129933,1.5054578549521118,-0.15006045416780076
12.33631844,-0.643224486010914,1.403735243383264,-0.09578698836620621
12.33831844,-0.5825291874367249,1.2997988737180934,-0.03592482779148831
12.34031844,-0.5190288031907427,1.193877659039446,0.029527183335935188
12.34231844,-0.45306515929221847,1.0862251808767234,0.10052278881524991
12.34431844,-0.38499839998424595,0.9771186785175385,0.17696680641787463
12.34631844,-0.3152050254228773,0.8668577700194147,0.25871402964226164
12.34831844,-0.24407586349562246,0.7557629105881776,0.34556856548695475
12.35031841,-0.17201398612547564,0.6441735967688176,0.43728362444944996
12.35231837,-0.09943258039878416,0.532446327666716,0.5335617747176478
12.35431834,-0.026752784701173676,0.420952337148789,0.6340556681574967
12.3563183,0.045598500245653616,0.310075113628063,0.7383692413107195
12.35831827,0.11719081596663253,0.20020772657470098,0.8460593902746762
12.36031727,0.187592357454906,0.09174998129424511,0.9566381140861242
12.36231724,0.25637218259042605,-0.014894574247731131,1.0695751170870198
12.36431634,0.3231024118527822,-0.11932176471635385,1.1843008567181048
12.36631634,0.38736041093700807,-0.2211299971255883,1.3002100192739747
12.36831634,0.4487309493451152,-0.3199235356844232,1.416665402375468
12.37031637,0.5068083284250164,-0.41531581111462057,1.5330021792840933
12.3723164,0.5611984726450614,-0.5069327326874131,1.648532516710042
12.37431644,0.6115209781080262,-0.5944159703997963,1.762550514460415
12.37631647,0.6574111124026595,-0.6774261741656579,1.8743374321419761
12.3783165,0.6985217598459862,-0.7556460966462697,1.983167165169791
12.38031653,0.7345253059787001,-0.828783586403059,2.088311929535534
12.38231653,0.7651154548455974,-0.8965744184381306,2.189048112159889
12.3843165,0.7900089721357028,-0.9587849299147425,2.284662241205623
12.38631647,0.8089473466862285,-1.015214429948774,2.374457028481947
12.38831643,0.8216983621902484,-1.065697353854521,2.4577574340463726
12.3903164,0.8280575702200131,-1.110105134112539,2.5339167013226405
12.39231636,0.8278496549239645,-1.148347762592801,2.602322309519223
12.39431593,0.8209296790184245,-1.1803750212220445,2.662401788880542
12.3963159,0.8071842000252157,-1.2061773613585745,2.7136283433778527
12.3983159,0.7865322451630076,-1.2257864156452116,2.7555262249111108
12.40031593,0.7589261329418372,-1.2392751300260278,2.7876758030230806
12.40231596,0.7243521293893818,-1.2467575078772901,2.80971827461208
12.404316,0.6828309270047065,-1.2483879627464487,2.8213599592767338
12.40631603,0.6344179350438429,-1.2443602809353136,2.8223761278555237
12.40831606,0.5792033706385732,-1.234906200010251,2.8126143145459825
12.41031609,0.517312141560957,-1.2202936141590517,2.7919970667713945
12.41231613,0.4489035131729479,-1.200824422014423,2.7605240917226173
12.41431616,0.37417055422146106,-1.176832037010621,2.7182737642037886
12.41631616,0.2933393586049907,-1.1486785844455984,2.6654039669608283
12.41831616,0.20666804297286606,-1.1167518131329344,2.6021522419265533
12.42031616,0.11444552293457393,-1.0814617528154078,2.528835238603921
12.42231616,0.016990073661850454,-1.0432371513575496,2.4458474539472475
12.42431769,-0.08535231633995802,-1.0025217281270153,2.353659266399836
12.42631769,-0.19220978664272537,-0.9597702819080137,2.2528142750083457
12.42831769,-0.30318662719375805,-0.9154446931632194,2.1439259625740545
12.43031726,-0.41786546485268433,-0.8700098614822439,2.0276737094729254
12.43231722,-0.5358095954786493,-0.8239296196405318,1.904798191976759
12.43431719,-0.6565654411654116,-0.7776626658477451,1.7760962055467826
12.43631716,-0.7796651108597108,-0.7316585554745565,1.6424149595667892
12.43831712,-0.904629041607713,-0.6863537927944358,1.5046458953005377
12.44031709,-1.0309686970414944,-0.6421680620647776,1.3637180835274494
12.44231706,-1.1581892994029868,-0.5995006356155959,1.220591262376455
