"Time (s)","Acceleration x (m/s^2)","Acceleration y (m/s^2)","Acceleration z (m/s^2)"
1.913926000E-3,1.179661512E0,3.759124279E0,7.671389580E0
6.763144000E-3,1.194018483E0,3.840480328E0,7.226324558E0
1.161236300E-2,1.787438512E0,3.634697676E0,7.334001541E0
1.646220700E-2,2.155933142E0,3.629911900E0,7.015756130E0
2.131189400E-2,2.256431818E0,3.625126362E0,7.118647575E0
2.616158200E-2,2.383251429E0,3.515056372E0,7.417750359E0
3.101126900E-2,2.354537487E0,3.409772158E0,7.527820110E0
3.586095700E-2,2.435893536E0,3.290131092E0,7.652246952E0
4.071064400E-2,2.455035925E0,3.189632654E0,7.905886173E0
4.556033200E-2,2.404786825E0,3.151347399E0,8.224131584E0
5.041001900E-2,2.486142635E0,3.144168854E0,8.652446747E0
5.525975900E-2,2.069791555E0,3.113062143E0,9.087940216E0
6.010944600E-2,1.430907965E0,3.211168051E0,9.454042435E0
6.495913400E-2,1.000199914E0,3.256631613E0,9.714859962E0
6.980882100E-2,7.728816867E-1,3.218346357E0,9.856036186E0
7.465850900E-2,7.393822074E-1,3.115455151E0,9.836894035E0
7.950819600E-2,8.327022791E-1,3.007778168E0,9.839286804E0
8.435788400E-2,1.002592683E0,2.880958557E0,9.817750931E0
8.920757100E-2,1.210768223E0,2.720639229E0,9.762716293E0
9.405731100E-2,1.490728498E0,2.560320139E0,9.638289452E0
9.890699800E-2,1.435693622E0,2.349751949E0,9.549755096E0
1.037566860E-1,1.605584025E0,1.993221283E0,9.454042435E0
1.086063730E-1,2.084148407E0,1.560120344E0,9.008976936E0
1.134560610E-1,2.213361025E0,1.308874011E0,8.664410591E0
1.183057480E-1,2.543570518E0,1.325623751E0,8.255238533E0
1.231554360E-1,2.557927370E0,1.339980721E0,7.948956966E0
1.280051230E-1,2.395215511E0,1.378265858E0,7.692924976E0
1.328548630E-1,2.213361025E0,1.414158225E0,7.630711555E0
1.377045510E-1,1.959721804E0,1.292124271E0,7.580461979E0
1.425542380E-1,1.808973908E0,1.170090318E0,7.446464062E0
1.474039260E-1,1.852044702E0,1.227517962E0,7.685746193E0
1.522536130E-1,1.842473388E0,1.201196909E0,8.011170387E0
1.571033010E-1,1.684547186E0,1.366301775E0,8.298309326E0
1.619529880E-1,1.887937069E0,1.670190215E0,8.654839516E0
1.668026760E-1,2.110469580E0,1.730010748E0,8.898907661E0
1.716524150E-1,2.254039049E0,1.806581140E0,9.083154678E0
1.765021030E-1,2.313859463E0,1.914258122E0,9.269794464E0
1.813517900E-1,2.318645239E0,2.043470621E0,9.360722542E0
1.862014780E-1,2.411965132E0,2.191825628E0,9.454042435E0
1.910511650E-1,2.612962246E0,2.431107759E0,9.707681656E0
1.959008530E-1,2.799602509E0,2.689532757E0,1.001635551E1
2.007505400E-1,3.096312523E0,3.110669374E0,1.032263660E1
2.056002280E-1,2.924029350E0,3.383451223E0,1.044467068E1
2.104499150E-1,2.703889608E0,3.495913982E0,9.860821724E0
2.152996550E-1,2.400001049E0,3.393022537E0,8.920442581E0
2.201493420E-1,2.124826431E0,3.208775282E0,8.030312538E0
2.249990300E-1,1.694118381E0,2.682354212E0,6.829115868E0
2.298487170E-1,8.566305041E-1,7.872386575E-1,7.475177765E0
2.346984050E-1,8.829515576E-1,4.211367965E-1,7.929814339E0
2.395480920E-1,5.120640397E-1,4.761717021E-1,7.147361279E0
2.443977800E-1,4.594219327E-1,1.004985452E0,7.312466145E0
2.491558010E-1,7.034898400E-1,1.404586911E0,7.968099594E0
2.539104360E-1,9.236295223E-1,1.299302697E0,8.319844246E0
2.586651230E-1,7.058826685E-1,1.131805062E0,8.587840080E0
2.634197590E-1,6.699903607E-1,9.738788009E-1,8.544769287E0
2.681743940E-1,9.068797827E-1,9.547362328E-1,8.439485550E0
2.729290300E-1,9.786644578E-1,1.117448211E0,8.662017822E0
2.776836650E-1,7.800601721E-1,1.390229940E0,9.090332985E0
2.824383010E-1,4.331009090E-1,1.655833244E0,9.544969559E0
2.871929360E-1,2.344966233E-1,1.880758643E0,1.003789139E1
2.919475710E-1,2.488535494E-1,1.928615093E0,1.031785107E1
2.967022070E-1,3.110669553E-1,1.806581140E0,1.042552853E1
3.014568420E-1,4.618147612E-1,1.555334687E0,1.028195858E1
3.062115300E-1,6.077769399E-1,1.316052437E0,9.896714211E0
3.109661650E-1,7.058826685E-1,1.244267821E0,9.485149384E0
3.157208010E-1,6.843472719E-1,1.261017561E0,9.078369141E0
3.204754360E-1,6.699903607E-1,1.320838094E0,8.834300995E0
3.252300710E-1,6.819544435E-1,1.330409408E0,8.705088615E0
3.299847070E-1,6.771687865E-1,1.399801254E0,8.688339233E0
3.347393420E-1,7.728816867E-1,1.378265858E0,8.726624489E0
3.394939780E-1,9.834501147E-1,1.344766378E0,8.872586250E0
3.442486130E-1,7.728816867E-1,1.222732425E0,9.138189316E0
3.490033010E-1,6.101697683E-1,1.261017561E0,9.410971642E0
3.537579360E-1,6.675975323E-1,1.349551916E0,9.509077072E0
3.585125710E-1,4.881358147E-1,1.605584025E0,9.530612946E0
3.632672070E-1,4.474578202E-1,1.718046665E0,9.430113792E0
3.680218420E-1,6.723831892E-1,1.512263894E0,8.807980537E0
3.727764780E-1,1.091127157E0,1.208375454E0,7.948956966E0
3.775311130E-1,1.328016520E0,8.853443861E-1,8.006384850E0
3.822857480E-1,9.140582681E-1,8.709874153E-1,7.848458290E0
3.870403840E-1,4.474578202E-1,1.153340459E0,7.305287361E0
3.917950190E-1,-8.853443712E-2,1.775474429E0,7.013363361E0
3.965496550E-1,-3.828516304E-1,2.266003132E0,7.042077065E0
4.013042900E-1,-7.489534616E-1,2.352144718E0,7.238288403E0
4.060589260E-1,-7.417750359E-1,2.280359983E0,7.580461979E0
4.108136130E-1,-4.091726840E-1,2.242074728E0,7.968099594E0
4.155682480E-1,-8.614161611E-2,2.249253273E0,8.461020470E0
4.203228840E-1,2.081755698E-1,2.376072884E0,8.920442581E0
4.250775190E-1,4.211367965E-1,2.486142635E0,9.171689034E0
4.298321550E-1,6.675975323E-1,2.629712105E0,9.296115875E0
4.345867900E-1,9.403793216E-1,2.778067112E0,9.274580956E0
4.393414260E-1,1.313659668E0,2.993421078E0,9.090332985E0
4.440960610E-1,1.689332843E0,3.187239647E0,9.166903496E0
4.488506960E-1,1.909472466E0,3.404986620E0,9.525827408E0
4.536053320E-1,2.136790514E0,3.483949661E0,9.667003632E0
4.583600190E-1,2.361716032E0,3.570091486E0,9.769894600E0
4.631146550E-1,2.725425005E0,3.247060299E0,9.824930191E0
4.678692900E-1,2.979064226E0,2.976671457E0,9.985248566E0
4.726239260E-1,2.849851847E0,2.880958557E0,1.021735287E1
4.773785610E-1,2.385644197E0,2.928814888E0,1.043988514E1
4.821331960E-1,1.873580098E0,2.885744095E0,1.055713367E1
4.868878320E-1,1.619940877E0,2.763710260E0,1.055474091E1
4.916424670E-1,1.557727575E0,2.579462767E0,1.045424175E1
4.963971030E-1,1.615155339E0,2.397608280E0,1.027956581E1
5.011517380E-1,1.785045743E0,2.309073925E0,1.008574772E1
5.059063730E-1,2.029113531E0,2.385644197E0,9.803394318E0
5.106610090E-1,2.227717876E0,2.636890650E0,9.492327690E0
5.154156440E-1,2.433500528E0,2.950350285E0,9.233902931E0
5.201703320E-1,2.703889608E0,3.208775282E0,9.004191399E0
5.249249670E-1,2.947957516E0,3.385843992E0,8.736195564E0
5.296796030E-1,3.141776085E0,3.460021496E0,8.520841599E0
5.344342380E-1,3.220739365E0,3.527020693E0,8.319844246E0
5.391888730E-1,3.275774240E0,3.567698479E0,8.092526436E0
5.439435090E-1,3.335594654E0,3.457628727E0,7.819744587E0
5.486981440E-1,3.340380430E0,3.342773199E0,7.625925541E0
5.534527800E-1,3.163311481E0,3.275774240E0,7.456035137E0
5.582074150E-1,2.880958557E0,3.213560820E0,7.343572617E0
5.629620510E-1,2.610569477E0,3.184846878E0,7.467999458E0
5.677166860E-1,2.344966173E0,3.208775282E0,7.637889862E0
5.724713210E-1,2.179861546E0,3.129812002E0,7.829315662E0
5.772259570E-1,2.086541414E0,3.038884640E0,8.104490280E0
5.819805920E-1,2.132004976E0,2.854637384E0,8.427521706E0
5.867352800E-1,2.323430777E0,2.711068153E0,8.760123253E0
5.914899150E-1,2.605783939E0,2.579462767E0,8.889336586E0
5.962445510E-1,2.988635540E0,2.481357098E0,9.018548965E0
6.009991860E-1,3.302095175E0,2.409572363E0,9.135796547E0
6.057538210E-1,3.486342669E0,2.392822742E0,9.214759827E0
6.105084570E-1,3.680161238E0,2.402393818E0,9.257830620E0
6.152630920E-1,3.766302824E0,2.517249346E0,9.200403214E0
6.200177280E-1,3.850051641E0,2.636890650E0,8.992227554E0
6.247723630E-1,3.823730469E0,2.790031195E0,8.752944946E0
6.295269980E-1,3.940979004E0,2.916850805E0,8.456234932E0
6.342816340E-1,3.936193228E0,3.000599623E0,8.310273170E0
6.390362690E-1,3.924229145E0,3.053241730E0,8.128418922E0
6.437909050E-1,3.787838221E0,3.184846878E0,7.889136314E0
6.485455400E-1,3.699303865E0,3.292523861E0,7.597211838E0
6.533001760E-1,3.885943890E0,3.299702406E0,7.286144733E0
6.580548110E-1,4.106083870E0,3.239881754E0,7.109076023E0
6.628094460E-1,4.299902439E0,3.235096216E0,7.054041386E0
6.675640820E-1,4.426722050E0,3.359523058E0,7.070790768E0
6.723187690E-1,4.534399033E0,3.326023579E0,7.092326164E0
6.770734050E-1,4.689932346E0,3.208775282E0,7.058826923E0
6.818280400E-1,4.931607246E0,3.235096216E0,7.125825882E0
6.865826760E-1,5.170889854E0,3.333201885E0,7.144968510E0
6.913373110E-1,5.422136307E0,3.529413462E0,7.204789162E0
6.960919460E-1,5.735595703E0,3.768695593E0,7.293323517E0
7.008465820E-1,6.092126369E0,4.010370731E0,7.240681171E0
7.056012170E-1,6.510870457E0,4.175475597E0,7.195217609E0
7.103558530E-1,6.955935478E0,4.266402721E0,7.180860519E0
7.151104880E-1,7.257431030E0,4.302295208E0,7.135396957E0
7.198651230E-1,7.518248558E0,4.247260094E0,7.027719975E0
7.246197590E-1,7.728816986E0,4.180261135E0,7.046862602E0
7.293743940E-1,7.812565804E0,4.185046673E0,7.010970116E0
7.341290300E-1,7.745566845E0,4.311866283E0,7.156932354E0
7.388836650E-1,7.740781307E0,4.213760853E0,7.133004189E0
7.436383010E-1,7.678567886E0,4.249652863E0,7.233502865E0
7.483929360E-1,7.594819069E0,4.297509670E0,7.278966427E0
7.531475710E-1,7.453642368E0,4.393222332E0,7.274180889E0
7.579022070E-1,7.235895634E0,4.615755081E0,7.302894592E0
7.626568420E-1,7.128218651E0,4.613361835E0,7.144968510E0
7.674115300E-1,7.353144169E0,4.527220249E0,6.917650223E0
7.721661130E-1,7.587640762E0,4.457828522E0,6.685546398E0
7.769208010E-1,7.709674358E0,4.445864677E0,6.293123722E0
7.816754360E-1,7.747959614E0,4.589433670E0,6.046662807E0
7.864300710E-1,7.724031448E0,4.816751957E0,5.979663849E0
7.911847070E-1,7.752745152E0,4.967499733E0,6.209374905E0
7.959393420E-1,7.889136314E0,4.922036171E0,6.625725746E0
8.006939780E-1,8.051848412E0,4.764110088E0,7.121040344E0
8.054486130E-1,8.102097511E0,4.565505505E0,7.606783390E0
8.102032480E-1,8.056633949E0,4.395615101E0,8.047062874E0
8.149578840E-1,7.946564198E0,4.254438877E0,8.334200859E0
8.197125190E-1,7.800601959E0,4.137190342E0,8.482556343E0
8.244671550E-1,7.657032490E0,4.024727821E0,8.542376518E0
8.292217900E-1,7.551748276E0,3.960121393E0,8.559126854E0
8.339764260E-1,7.439285755E0,3.909872293E0,8.453842163E0
8.387310610E-1,7.357929707E0,3.842873096E0,8.283951759E0
8.434856960E-1,7.362715244E0,3.797409534E0,8.070990562E0
8.482403320E-1,7.446464062E0,3.787838221E0,7.814958572E0
8.529949670E-1,7.563712597E0,3.842873096E0,7.597211838E0
8.577496030E-1,7.858029366E0,3.835694790E0,7.384250641E0
8.625042380E-1,8.243273735E0,3.550948858E0,7.089933395E0
8.672588730E-1,8.216953278E0,3.747160196E0,6.867401123E0
8.720135090E-1,8.171489716E0,4.065405846E0,6.814758778E0
8.767681440E-1,8.319844246E0,4.342973232E0,6.867401123E0
8.815227800E-1,8.695517540E0,4.350151539E0,6.783652306E0
8.862774150E-1,9.018548965E0,4.259224415E0,6.786045074E0
8.910320510E-1,9.413364410E0,4.130012035E0,6.565905571E0
8.957866860E-1,9.561718941E0,4.019941807E0,6.381658077E0
9.005413210E-1,9.418149948E0,4.041477680E0,6.319444656E0
9.052959570E-1,9.296115875E0,3.960121393E0,6.262016773E0
9.100505920E-1,9.116654396E0,3.859622955E0,6.230910301E0
9.148052280E-1,8.953942299E0,3.646661758E0,6.027520180E0
9.195598630E-1,8.705088615E0,3.483949661E0,5.840879917E0
9.243145510E-1,8.554341316E0,3.369094372E0,5.639883041E0
9.290691340E-1,8.456234932E0,3.187239647E0,5.584847927E0
9.338238210E-1,8.279166222E0,3.065205812E0,5.577669621E0
9.385784570E-1,8.039883614E0,3.029313564E0,5.726024628E0
9.433330920E-1,7.896314621E0,2.876172781E0,5.766702652E0
9.480877280E-1,7.709674358E0,2.842673302E0,5.898307800E0
9.528423630E-1,7.597211838E0,2.916850805E0,6.111268997E0
9.575969980E-1,7.874779224E0,2.723032236E0,6.084948063E0
9.623516340E-1,8.164310455E0,2.684746981E0,5.984449387E0
9.671062690E-1,8.281558990E0,2.909672260E0,5.948556900E0
9.718609050E-1,8.463413239E0,2.967100143E0,5.876772404E0
9.766155400E-1,8.714659691E0,2.933600664E0,5.766702652E0
9.813701760E-1,8.772088051E0,3.017349243E0,5.769095421E0
9.861248110E-1,8.609375954E0,3.079562664E0,5.857629776E0
9.908794460E-1,8.913264275E0,2.696711063E0,5.467599869E0
9.956340820E-1,8.922835350E0,2.653640270E0,5.376672268E0
1.000388717E0,8.839086533E0,2.720639229E0,5.357530117E0
1.005143353E0,8.729017258E0,2.773281336E0,5.398207664E0
1.009897988E0,8.695517540E0,2.531606436E0,5.350351334E0
1.014652623E0,8.451449394E0,2.665604353E0,5.532206059E0
1.019407259E0,8.429914474E0,2.337787628E0,5.797809124E0
1.024161894E0,8.547162056E0,2.167897224E0,5.697310925E0
1.028916530E0,8.788837433E0,1.727617979E0,5.704489231E0
1.033671165E0,8.563912392E0,1.947757602E0,5.764309883E0
1.038425801E0,8.772088051E0,1.505085468E0,5.548955917E0
1.043180436E0,8.678768158E0,1.423729420E0,5.486742496E0
1.047935071E0,8.252845764E0,1.844866276E0,5.615954876E0
1.052689707E0,8.085348129E0,1.622333765E0,5.737988472E0
1.057444342E0,8.039883614E0,1.416550994E0,5.709274769E0
1.062198978E0,8.145168304E0,9.284151793E-1,5.225924492E0
1.066953613E0,7.807780266E0,8.327022791E-1,5.218746185E0
1.071708248E0,7.618747234E0,8.590233326E-1,4.929214478E0
1.076462884E0,7.515855789E0,5.144568682E-1,4.905286312E0
1.081217519E0,7.503891945E0,5.144568682E-1,4.792823792E0
1.085972155E0,7.511070251E0,3.278166950E-1,5.056034088E0
1.090726790E0,7.680960655E0,8.374879509E-2,4.828716278E0
1.095481426E0,7.448856831E0,2.225325108E-1,5.190032482E0
1.100236061E0,7.518248558E0,1.746760458E-1,4.809573650E0
1.104990696E0,7.451249599E0,9.810572863E-2,4.742574692E0
1.109745332E0,7.590033531E0,2.632104978E-2,4.354937077E0
1.114499967E0,7.769495010E0,7.178467698E-3,3.888336897E0
1.119254603E0,7.791030407E0,1.794617027E-1,3.476771355E0
1.124009238E0,7.793423176E0,1.722832322E-1,3.069991350E0
1.128763873E0,7.616354465E0,2.536391914E-1,2.813959360E0
1.133518509E0,7.432106972E0,5.000999570E-1,2.892922640E0
1.138273144E0,7.470392227E0,6.795616150E-1,3.141776085E0
1.143027780E0,7.633104324E0,7.609176040E-1,3.500699520E0
1.147782415E0,7.826922894E0,7.178468108E-1,3.943371773E0
1.152537051E0,7.810173035E0,6.795616150E-1,4.398007870E0
1.157291686E0,7.664210796E0,6.556333899E-1,4.756931305E0
1.162046321E0,7.496713161E0,6.556333899E-1,5.094319344E0
1.166800957E0,7.331608772E0,5.838487148E-1,5.469992638E0
1.171555592E0,7.195217609E0,5.359922647E-1,5.833701611E0
1.176310228E0,7.087540627E0,5.072783828E-1,6.125626087E0
1.181064863E0,7.013363361E0,5.144568682E-1,6.343372822E0
1.185819498E0,6.821937561E0,5.910272002E-1,6.486942291E0
1.190574134E0,6.699903488E0,6.556333899E-1,6.613761902E0
1.195328769E0,6.599404812E0,6.819544435E-1,6.728617191E0
1.200083405E0,6.477370739E0,7.489534616E-1,6.776473522E0
1.204838040E0,6.400800705E0,8.709874153E-1,6.733402729E0
1.209592676E0,6.541976929E0,9.786644578E-1,6.637690067E0
1.214347311E0,6.826723099E0,1.127019525E0,6.396014690E0
1.219101946E0,7.087540627E0,1.258624673E0,6.197410583E0
1.223856582E0,7.357929707E0,1.404586911E0,5.991627693E0
1.228611217E0,7.594819069E0,1.536192179E0,5.773880959E0
1.233365853E0,7.838887215E0,1.665404558E0,5.620740414E0
1.238120488E0,8.149953842E0,1.751546144E0,5.462814331E0
1.242875123E0,8.410771370E0,1.825723648E0,5.414957523E0
1.247629759E0,8.575876236E0,1.856830359E0,5.309673309E0
1.252384394E0,8.662017822E0,1.842473388E0,5.137390137E0
1.257139030E0,8.764909744E0,1.770688772E0,4.957928658E0
1.261893665E0,8.843872070E0,1.715653777E0,4.843072891E0
1.266648301E0,8.848658562E0,1.725225091E0,4.862215519E0
1.271402936E0,8.772088051E0,1.703689694E0,4.967499733E0
1.276157571E0,8.729017258E0,1.615155339E0,5.056034088E0
1.280912207E0,8.769695282E0,1.452443361E0,5.084748268E0
1.285666842E0,8.886942863E0,1.390229940E0,5.137390137E0
1.290421426E0,8.918049812E0,1.488335729E0,5.134997368E0
1.295176061E0,8.894122124E0,1.576870084E0,5.072783947E0
1.299930696E0,8.843872070E0,1.615155339E0,4.953142643E0
1.304685332E0,8.860622406E0,1.603191137E0,4.776073933E0
1.309439967E0,8.846264839E0,1.560120344E0,4.534399033E0
1.314194655E0,8.946763992E0,1.490728498E0,4.266402721E0
1.318949238E0,9.083154678E0,1.416550994E0,4.058227062E0
1.323703873E0,9.171689034E0,1.301695466E0,3.921836376E0
1.328458509E0,9.245866776E0,1.215553880E0,3.840480328E0
1.333213144E0,9.327222824E0,1.127019525E0,3.747160196E0
1.337967780E0,9.410971642E0,1.033699393E0,3.665804386E0
1.342722415E0,9.382257462E0,9.643075466E-1,3.527020693E0
1.347477051E0,8.944371223E0,1.287338614E0,3.787838221E0
1.352231686E0,9.248259544E0,7.250252366E-1,3.352344513E0
1.356986321E0,9.590433121E0,4.546362907E-2,3.017349243E0
1.361740957E0,9.477970123E0,-5.742774159E-2,2.744567633E0
1.366495592E0,9.193224907E0,2.871387303E-1,2.744567633E0
1.371250228E0,9.219545364E0,5.790630579E-1,2.931207657E0
1.376004863E0,9.511469841E0,7.034898400E-1,3.158525944E0
1.380759498E0,9.978070259E0,5.910272002E-1,3.483949661E0
1.385514134E0,1.042074299E1,5.503492355E-1,3.816552162E0
1.390268769E0,1.075334454E1,5.934200287E-1,4.153940201E0
1.395023405E0,1.095673466E1,6.747759581E-1,4.374079704E0
1.399778040E0,1.101894855E1,7.106683254E-1,4.393222332E0
1.404532676E0,1.096630573E1,6.652047038E-1,4.240081787E0
1.409287311E0,1.087059307E1,6.149554253E-1,3.974478483E0
1.414041946E0,1.069830990E1,6.029912829E-1,3.706482172E0
1.418796582E0,1.043988514E1,6.508477330E-1,3.495913982E0
1.423551217E0,1.023410225E1,6.125625968E-1,3.381058455E0
1.428305853E0,1.023888779E1,5.168496966E-1,3.333201885E0
1.433060488E0,1.030349445E1,4.642075896E-1,3.287738323E0
1.437815123E0,1.088973618E1,2.249253243E-1,2.060220242E0
1.442569759E0,1.135394382E1,5.264209956E-2,1.651047617E-1
1.447324394E0,1.451964760E1,5.694918036E-1,-1.083948612E0
1.452078978E0,1.536192131E1,1.533799291E0,-1.677368641E0
1.456833665E0,1.346441269E1,1.564906001E0,-1.284945726E0
1.461588301E0,1.192582798E1,1.069591761E0,-5.766702294E-1
1.466342884E0,1.128215885E1,5.503492355E-1,-8.853443712E-2
1.471097519E0,1.129172993E1,3.900300860E-1,1.698904037E-1
1.475852155E0,1.133240795E1,5.096712112E-1,6.963114142E-1
1.480606790E0,1.093280697E1,5.647061467E-1,1.667797327E0
1.485361426E0,1.039681435E1,3.756731451E-1,2.562713146E0
1.490116061E0,9.882357597E0,1.387837082E-1,3.225524902E0
1.494870696E0,9.427721024E0,-4.785645381E-2,3.503092289E0
1.499625332E0,8.982656479E0,-1.268195957E-1,3.785445452E0
1.504379967E0,8.621339798E0,-2.584248483E-1,4.144368649E0
1.509134603E0,8.312665939E0,-5.240281820E-1,4.548755646E0
1.513889238E0,7.948956966E0,-8.494520187E-1,4.895715237E0
1.518643873E0,7.618747234E0,-1.148554921E0,5.168497086E0
1.523398509E0,7.499105930E0,-1.361516118E0,5.465207100E0
1.528153144E0,7.695317745E0,-1.493121386E0,5.843272686E0
1.532907780E0,8.130811691E0,-1.473978758E0,6.295516491E0
1.537662415E0,8.867800713E0,-1.392622828E0,6.778866768E0
1.542417051E0,9.640682220E0,-1.280160069E0,7.027719975E0
1.547171686E0,1.016471100E1,-1.232303619E0,6.776473522E0
1.551926321E0,1.044467068E1,-1.246660590E0,5.931807518E0
1.556680957E0,1.035374355E1,-1.275374413E0,4.840680122E0
1.561435592E0,9.832108498E0,-1.308874011E0,3.739981890E0
1.566190228E0,9.317651749E0,-1.318445325E0,2.979064226E0
1.570944863E0,8.965906143E0,-1.299302697E0,2.514856577E0
1.575699446E0,8.800801277E0,-1.270588875E0,2.266003132E0
1.580454082E0,8.764909744E0,-1.263410330E0,2.091326952E0
1.585208717E0,8.815158844E0,-1.148554921E0,2.096112728E0
1.589963353E0,8.863015175E0,-9.499505758E-1,2.237289190E0
1.594717988E0,8.889336586E0,-7.130611539E-1,2.407179594E0
1.599472623E0,8.815158844E0,-4.977070987E-1,2.483749866E0
1.604227259E0,8.760123253E0,-3.302095234E-1,2.335394859E0
1.608981894E0,8.688339233E0,-1.603191197E-1,2.120040894E0
1.613736530E0,8.547162056E0,-1.674975827E-2,1.957328916E0
1.618491165E0,8.267202377E0,9.810572863E-2,2.146361828E0
1.623245801E0,7.972885132E0,2.727817893E-1,2.471785784E0
1.628000436E0,7.697710514E0,4.618147612E-1,2.947957516E0
1.632755071E0,7.374679565E0,4.331009090E-1,3.361915827E0
1.637509707E0,7.111468792E0,1.292124242E-1,3.287738323E0
1.642264342E0,6.659225464E0,-2.153540403E-1,3.292523861E0
1.647018978E0,6.592226505E0,-3.565305769E-1,3.292523861E0
1.651773613E0,7.010970116E0,-3.852444589E-1,3.397808075E0
1.656528248E0,7.401000500E0,-2.823530734E-1,3.538984776E0
1.661282884E0,7.980063438E0,-3.589234129E-2,3.553341627E0
1.666037519E0,8.805587769E0,2.273181528E-1,3.347558975E0
1.670792155E0,9.458827972E0,5.982056856E-1,3.184846878E0
1.675546738E0,9.657432556E0,8.805587292E-1,2.746960402E0
1.680301373E0,1.008574772E1,1.009771109E0,2.383251429E0
1.685056009E0,1.026760197E1,1.098305583E0,2.297109842E0
1.689810644E0,1.054516983E1,9.308080077E-1,1.840080619E0
1.694565280E0,1.060977554E1,8.398807645E-1,1.325623751E0
1.699319915E0,1.015274620E1,7.657032609E-1,2.751746178E-1
1.704074551E0,9.846465111E0,5.359922647E-1,-6.675975323E-1
1.708829186E0,9.521040916E0,3.565305769E-1,-1.153340459E0
1.713583821E0,9.566504478E0,-4.187439680E-1,-1.643869162E0
1.718338457E0,9.085547447E0,-6.652047038E-1,-1.411765337E0
1.723093092E0,8.348558426E0,-7.058826685E-1,-6.125625968E-1
1.727847728E0,7.714460373E0,-9.810572863E-1,1.004985496E-1
1.732602363E0,7.025327206E0,-1.378265858E0,8.446664214E-1
1.737356998E0,6.491727829E0,-1.741974831E0,1.514656782E0
1.742111634E0,6.355337143E0,-1.799402595E0,2.031506538E0
1.746866269E0,6.271588326E0,-2.053041935E0,2.292324066E0
1.751620905E0,6.077769279E0,-2.294716835E0,2.598605394E0
1.756375540E0,5.917450428E0,-2.227717876E0,2.622533560E0
1.761130123E0,6.072983742E0,-2.261217356E0,2.445464849E0
1.765884759E0,6.077769279E0,-2.519642353E0,2.127219439E0
1.770639394E0,5.761917114E0,-2.766103029E0,2.048256159E0
1.775394030E0,5.572884083E0,-2.974278450E0,1.995614052E0
1.780148665E0,6.120840549E0,-3.184846878E0,1.682154298E0
1.784903301E0,6.424728870E0,-3.491128206E0,1.213161111E0
1.789657936E0,5.704489231E0,-3.541377544E0,9.595218897E-1
1.794412571E0,4.991427898E0,-3.596412420E0,9.643075466E-1
1.799167207E0,4.835894585E0,-4.015156269E0,6.891329288E-1
1.803921842E0,5.046463013E0,-4.500899315E0,9.690931439E-1
1.808676478E0,6.195017815E0,-5.048855782E0,5.288137794E-1
1.813431113E0,6.606583118E0,-5.197210789E0,9.571290761E-2
1.818185748E0,7.269395351E0,-5.946164131E0,-4.139583111E-1
1.822940384E0,7.106683254E0,-5.783452511E0,-1.794617027E-1
1.827695019E0,6.888936520E0,-5.383851051E0,-2.392822644E-3
1.832449603E0,6.585047722E0,-5.103890896E0,2.321037948E-1
1.837204238E0,6.386443615E0,-5.132604599E0,4.785645306E-1
1.841958873E0,6.061019897E0,-5.393422127E0,8.159525394E-1
1.846713509E0,6.482156754E0,-6.185446739E0,7.130611539E-1
1.851468144E0,6.908079147E0,-7.020541668E0,7.513462901E-1
1.856222780E0,6.884150982E0,-7.661818027E0,9.595218897E-1
1.860977415E0,6.740581512E0,-7.877171993E0,1.134197950E0
1.865732051E0,6.326622963E0,-7.958528042E0,1.555334687E0
1.870486686E0,6.254838467E0,-7.862815380E0,1.447657704E0
1.875241321E0,6.376872540E0,-7.657032490E0,1.194018483E0
1.879995957E0,6.553941250E0,-7.570890903E0,1.012163997E0
1.884750592E0,6.707081795E0,-7.441678524E0,9.332008362E-1
1.889505228E0,6.374479294E0,-6.927221775E0,9.403793216E-1
1.894259811E0,6.594619274E0,-6.568298340E0,1.160519004E0
1.899014446E0,6.972685337E0,-6.278766632E0,1.167697430E0
1.903769082E0,7.511070251E0,-6.293123722E0,1.143769264E0
1.908523717E0,7.996813297E0,-6.305087566E0,1.150947690E0
1.913278353E0,8.427521706E0,-6.405586243E0,1.296909928E0
1.918032988E0,8.659625053E0,-6.427121639E0,1.409372568E0
1.922787623E0,8.717052460E0,-6.546762943E0,1.493121386E0
1.927542259E0,8.499305725E0,-6.642475605E0,1.536192179E0
1.932296894E0,8.066205025E0,-6.750152588E0,1.526620865E0
1.937051530E0,7.506284714E0,-6.721438885E0,1.507478237E0
1.941806165E0,6.941578388E0,-6.544369698E0,1.478764415E0
1.946560801E0,6.541976929E0,-6.393621922E0,1.517049551E0
1.951315436E0,5.895915031E0,-5.828916073E0,1.371087432E0
1.956070071E0,5.242674351E0,-5.302495003E0,1.203589797E0
1.960824707E0,4.393222332E0,-4.780859470E0,1.261017561E0
1.965579290E0,3.725624800E0,-4.594219685E0,2.189432621E0
1.970333926E0,3.053241730E0,-4.441078663E0,3.163311481E0
1.975088561E0,2.610569477E0,-4.412364960E0,3.565305710E0
1.979843196E0,2.143969059E0,-4.460221291E0,3.354737282E0
1.984597832E0,1.672582984E0,-4.328616142E0,2.574677229E0
1.989352467E0,1.239482164E0,-4.359723091E0,1.655833244E0
1.994107103E0,1.086341500E0,-4.677968502E0,9.834501147E-1
1.998861738E0,9.714859724E-1,-4.912465096E0,2.584248483E-1
2.003616373E0,7.609176040E-1,-5.056034088E0,-4.713860750E-1
2.008371009E0,9.523434043E-1,-5.249852657E0,-1.024128079E0
2.013125644E0,1.957328916E0,-5.589633465E0,-1.519442320E0
2.017880280E0,3.613162279E0,-6.374479294E0,-1.763510346E0
2.022634915E0,5.276174068E0,-7.992027760E0,-1.007378340E0
2.027389551E0,6.144768715E0,-1.038485050E1,9.571290761E-2
2.032144134E0,5.252245903E0,-1.169372463E1,-9.236295223E-1
2.036898769E0,5.601597786E0,-1.284945774E1,-2.062613010E0
2.041653405E0,6.314659119E0,-1.518963814E1,-2.557927370E0
2.046408040E0,7.274180889E0,-1.783609962E1,-2.641676188E0
2.051162676E0,7.965706348E0,-1.997528267E1,-2.952743053E0
2.055917311E0,8.085348129E0,-2.139422798E1,-3.060420275E0
2.060671946E0,8.106883049E0,-2.203789711E1,-3.117847919E0
2.065426582E0,8.008777618E0,-2.204028893E1,-2.400001049E0
2.070181217E0,8.250452042E0,-2.254517555E1,-2.072184324E0
2.074935853E0,7.860422611E0,-2.331087875E1,-1.866401672E0
2.079690488E0,7.357929707E0,-2.315773773E1,-1.696511269E0
2.084445123E0,6.553941250E0,-2.237767792E1,-1.500299811E0
2.089199707E0,5.359922886E0,-2.101137543E1,-1.404586911E0
2.093954342E0,4.302295208E0,-1.919283104E1,-1.342373490E0
2.098708978E0,3.598805189E0,-1.719003868E1,-9.140582681E-1
2.103463613E0,3.129812002E0,-1.518245983E1,-1.674975827E-2
2.108218248E0,2.689532757E0,-1.317009544E1,1.016949654E0
2.112972884E0,2.151147604E0,-1.120558834E1,1.952543259E0
2.117727519E0,1.555334687E0,-9.504291534E0,2.467000246E0
2.122482155E0,1.129412293E0,-8.193024635E0,2.720639229E0
2.127236790E0,8.733802438E-1,-7.240681171E0,2.809173822E0
2.131991426E0,7.633104324E-1,-6.601797581E0,2.723032236E0
2.136746061E0,8.135597110E-1,-6.340980053E0,2.699103832E0
2.141500696E0,8.805587292E-1,-6.273981094E0,2.763710260E0
2.146255280E0,9.738788009E-1,-6.187839508E0,2.792423964E0
2.151009915E0,1.069591761E0,-6.171089649E0,2.876172781E0
2.155764551E0,1.213161111E0,-6.204588890E0,2.988635540E0
2.160519186E0,1.399801254E0,-6.218945980E0,3.184846878E0
2.165273821E0,1.581655741E0,-6.228517532E0,3.393022537E0
2.170028457E0,1.801795483E0,-6.324230194E0,3.668197155E0
2.174783092E0,2.036292076E0,-6.434299946E0,3.926621914E0
2.179537728E0,2.244467735E0,-6.618547440E0,4.151547432E0
2.184292363E0,2.490928411E0,-6.886543751E0,4.256831646E0
2.189046998E0,2.682354212E0,-7.274180889E0,4.180261135E0
2.193801634E0,2.902493954E0,-7.757531166E0,3.979264021E0
2.198556269E0,3.050848961E0,-8.236095428E0,3.728017569E0
2.203310853E0,3.077169895E0,-8.623732567E0,3.393022537E0
2.208065488E0,3.347558975E0,-8.714659691E0,2.670390129E0
2.212820123E0,3.297309637E0,-9.032905579E0,2.354537487E0
2.217574759E0,3.170490026E0,-9.664610863E0,2.270788670E0
2.222329394E0,3.175275564E0,-1.018146038E1,2.148754835E0
2.227084030E0,3.122633457E0,-1.034895802E1,2.088934183E0
2.231838665E0,3.048455954E0,-1.037527943E1,2.158325911E0
2.236593301E0,2.919243574E0,-1.044467068E1,2.220539331E0
2.241347936E0,2.720639229E0,-1.053320503E1,2.323430777E0
2.246102571E0,2.505285263E0,-1.057627583E1,2.431107759E0
2.250857207E0,2.337787628E0,-1.056191921E1,2.557927370E0
2.255611842E0,2.129612207E0,-1.034656525E1,2.634497643E0
2.260366426E0,2.038684845E0,-1.019103146E1,2.596212626E0
2.265121061E0,2.057827473E0,-1.008335495E1,2.531606436E0
2.269875696E0,2.084148407E0,-1.010488987E1,2.483749866E0
2.274630332E0,1.986042738E0,-1.013360405E1,2.361716032E0
2.279384967E0,1.861616015E0,-1.003549862E1,2.242074728E0
2.284139603E0,1.914258122E0,-9.954142570E0,2.163111687E0
2.288894238E0,1.983649969E0,-9.879964828E0,2.098505497E0
2.293648873E0,2.112862349E0,-9.841679573E0,2.096112728E0
2.298403509E0,2.371287346E0,-9.918250084E0,1.988435626E0
2.303158144E0,2.574677229E0,-1.011924744E1,1.825723648E0
2.307912780E0,2.663211584E0,-1.019581699E1,1.765903115E0
2.312667363E0,2.823530674E0,-9.982855797E0,1.804188251E0
2.317421998E0,2.995813847E0,-9.741181374E0,1.892722726E0
2.322176634E0,3.172882795E0,-9.659825325E0,1.990828395E0
2.326931269E0,3.402593851E0,-9.626325607E0,2.081755638E0
2.331685905E0,3.615555048E0,-9.556933403E0,2.108076811E0
2.336440540E0,3.866801500E0,-9.523433685E0,2.136790514E0
2.341195176E0,4.091726780E0,-9.449256897E0,2.127219439E0
2.345949811E0,4.307080746E0,-9.363115311E0,2.093719721E0
2.350704446E0,4.496113777E0,-9.274580956E0,2.091326952E0
2.355459082E0,4.673182487E0,-9.188439369E0,2.069791555E0
2.360213665E0,4.807180882E0,-9.154939651E0,2.072184324E0
2.364968301E0,4.986642361E0,-9.142974854E0,2.069791555E0
2.369722936E0,5.094319344E0,-9.119047165E0,2.019542217E0
2.374477571E0,5.237888813E0,-9.111868858E0,1.940579176E0
2.379232207E0,5.343173027E0,-9.150154114E0,1.828116536E0
2.383986842E0,5.379065514E0,-9.221938133E0,1.684547186E0
2.388741478E0,5.462814331E0,-9.241081238E0,1.524227977E0
2.393496113E0,5.513063431E0,-9.298508644E0,1.318445325E0
2.398250748E0,5.534598827E0,-9.432506561E0,7.920243144E-1
2.403005384E0,5.532206059E0,-9.726823807E0,-1.392622828E0
2.407760019E0,5.426921844E0,-1.015274620E1,-4.754538536E0
2.412514655E0,5.044070244E0,-1.038963604E1,-6.654439926E0
2.417269290E0,4.632504463E0,-1.025563812E1,-5.044070244E0
2.422023873E0,4.546362877E0,-1.004506969E1,-2.529213428E0
2.426778509E0,4.596612453E0,-9.889535904E0,-6.508477330E-1
2.431533144E0,4.634897232E0,-9.777072906E0,5.766702294E-1
2.436287780E0,4.539184570E0,-9.681360245E0,1.141376376E0
2.441042415E0,4.249652863E0,-9.638289452E0,1.241874933E0
2.445797051E0,3.814159393E0,-9.623932838E0,8.566305041E-1
2.450551686E0,3.141776085E0,-9.640682220E0,-4.043870270E-1
2.455306321E0,2.210968018E0,-9.719645500E0,-2.017149448E0
2.460060957E0,1.715653777E0,-9.829715729E0,-2.404786825E0
2.464815540E0,1.727617979E0,-9.884750366E0,-1.385444283E0
2.469570228E0,2.012363911E0,-9.891928673E0,3.589234054E-1
2.474324811E0,2.182254314E0,-9.860821724E0,1.773081541E0
2.479079446E0,2.203789711E0,-9.796216011E0,2.715853691E0
2.483834082E0,1.907079697E0,-9.690931320E0,3.460021496E0
2.488588717E0,1.497906923E0,-9.631111145E0,4.053441525E0
2.493343353E0,1.170090318E0,-9.652647018E0,4.426722050E0
2.498097988E0,1.002592683E0,-9.750752449E0,4.541577339E0
2.502852623E0,9.284151793E-1,-9.923035622E0,4.486542225E0
2.507607259E0,1.007378340E0,-1.013838959E1,4.185046673E0
2.512361894E0,1.256231904E0,-1.044467068E1,3.476771355E0
2.517116530E0,1.751546144E0,-1.076530933E1,2.404786825E0
2.521871113E0,2.593819857E0,-1.108355427E1,1.328016520E0
2.526625748E0,3.572484255E0,-1.138026428E1,8.350951076E-1
2.531380384E0,4.443471432E0,-1.146401310E1,1.062413216E0
2.536135019E0,5.089533806E0,-1.138983536E1,1.706082582E0
2.540889655E0,5.668596745E0,-1.115055370E1,2.285145521E0
2.545644290E0,6.156732559E0,-1.081555843E1,2.600998163E0
2.550398926E0,6.642475605E0,-1.039920712E1,2.634497643E0
2.555153561E0,7.106683254E0,-9.961320877E0,2.462214470E0
2.559908196E0,7.436892986E0,-9.537791252E0,2.282752752E0
2.564662832E0,7.688138962E0,-9.126225471E0,2.132004976E0
2.569417467E0,7.817351341E0,-8.815158844E0,1.986042738E0
2.574172103E0,7.980063438E0,-8.621339798E0,1.856830359E0
2.578926686E0,8.224131584E0,-8.597412109E0,1.689332843E0
2.583681321E0,8.520841599E0,-8.659625053E0,1.371087432E0
2.588435957E0,8.870193481E0,-8.848658562E0,1.033699393E0
2.593190592E0,9.138189316E0,-9.104690552E0,7.226324677E-1
2.597945228E0,9.300901413E0,-9.315258980E0,6.652047038E-1
2.602699863E0,9.305686951E0,-9.449256897E0,8.662018180E-1
2.607454498E0,9.200403214E0,-9.504291534E0,1.237089276E0
2.612209134E0,9.195617676E0,-9.523433685E0,1.758724689E0
2.616963769E0,9.293723106E0,-9.552147865E0,2.280359983E0
2.621718405E0,9.444471359E0,-9.451649666E0,2.723032236E0
2.626472988E0,9.485149384E0,-9.248259544E0,2.888136864E0
2.631227623E0,9.487542152E0,-8.961120605E0,2.708675146E0
2.635982259E0,9.499505997E0,-8.609375954E0,2.093719721E0
2.640736894E0,9.497113228E0,-8.255238533E0,1.071984529E0
2.645491530E0,9.631111145E0,-7.915457249E0,-2.416750938E-1
2.650246165E0,9.863214493E0,-7.652246952E0,-1.679761529E0
2.655000801E0,1.015753174E1,-7.429714203E0,-3.098705292E0
2.659755436E0,1.039442158E1,-7.319644451E0,-4.366901398E0
2.664510071E0,1.060499001E1,-7.312466145E0,-5.312066078E0
2.669264707E0,1.070309544E1,-7.439285755E0,-5.575276852E0
2.674019342E0,1.064088249E1,-7.657032490E0,-4.704289436E0
2.678773978E0,1.050209904E1,-8.023134232E0,-3.132204771E0
2.683528561E0,1.034895802E1,-8.595019341E0,-1.208375454E0
2.688283196E0,1.000917721E1,-9.286544800E0,6.556333899E-1
2.693037832E0,9.420542717E0,-1.006181908E1,1.694118381E0
2.697792467E0,8.520841599E0,-1.087298584E1,2.036292076E0
2.702547103E0,7.482356548E0,-1.174397373E1,1.954936147E0
2.707301738E0,6.396014690E0,-1.267717457E1,1.380658627E0
2.712056373E0,5.402993679E0,-1.367498112E1,9.451649189E-1
2.716811009E0,4.680361271E0,-1.464646721E1,6.460621357E-1
2.721565644E0,3.984049797E0,-1.558445358E1,2.153540403E-1
2.726320280E0,3.352344513E0,-1.652004814E1,-2.703889608E-1
2.731074915E0,2.713460922E0,-1.741735649E1,-6.388836503E-1
2.735829551E0,2.215753794E0,-1.810409546E1,-8.111668825E-1
2.740584186E0,1.648654819E0,-1.864008904E1,-7.752745152E-1
2.745338769E0,1.244267821E0,-1.892962074E1,-5.718846321E-1
2.750093405E0,9.523434043E-1,-1.897747612E1,-4.809573591E-1
2.754848040E0,7.585247755E-1,-1.880997849E1,-5.168496966E-1
2.759602676E0,6.747759581E-1,-1.839841270E1,-5.144568682E-1
2.764357311E0,6.029912829E-1,-1.791506386E1,-5.312066078E-1
2.769111946E0,5.551348329E-1,-1.741974831E1,-6.293123364E-1
2.773866582E0,6.101697683E-1,-1.690289879E1,-5.503492355E-1
2.778621217E0,7.441678643E-1,-1.645065498E1,-3.517449200E-1
2.783375853E0,7.848458290E-1,-1.610608864E1,4.785645381E-2
2.788130488E0,8.518448472E-1,-1.578066540E1,5.551348329E-1
2.792885071E0,8.231309652E-1,-1.546720600E1,9.523434043E-1
2.797639707E0,7.417750359E-1,-1.508913994E1,1.225125194E0
2.802394342E0,4.689932466E-1,-1.479721546E1,1.442872047E0
2.807148978E0,1.794617027E-1,-1.446700573E1,1.674975872E0
2.811903613E0,-2.009970993E-1,-1.408176136E1,1.830509305E0
2.816658248E0,-4.187439680E-1,-1.374198055E1,1.737189293E0
2.821412884E0,-6.675975323E-1,-1.338305664E1,1.770688772E0
2.826167519E0,-7.657032609E-1,-1.299063396E1,1.840080619E0
2.830922155E0,-9.451649189E-1,-1.254556942E1,2.050648928E0
2.835676790E0,-8.638089895E-1,-1.205504036E1,2.234896421E0
2.840431426E0,-7.178468108E-1,-1.144965649E1,2.433500528E0
2.845186061E0,-4.187439680E-1,-1.093759251E1,2.756531715E0
2.849940644E0,1.196411345E-2,-1.029392338E1,2.957528830E0
2.854695332E0,3.900300860E-1,-9.647860527E0,2.720639229E0
2.859449915E0,8.494520187E-1,-8.963513374E0,2.096112728E0
2.864204551E0,1.150947690E0,-8.236095428E0,1.450050473E0
2.868959186E0,1.318445325E0,-7.482356548E0,7.417750359E-1
2.873713821E0,1.497906923E0,-6.807580471E0,1.363908947E-1
2.878468457E0,1.610369682E0,-6.250052929E0,-1.459621787E-1
2.883223092E0,1.782652855E0,-5.871986866E0,-2.584248483E-1
2.887977728E0,2.060220242E0,-5.508277893E0,-3.684946895E-1
2.892732363E0,2.440679073E0,-5.230710506E0,-2.703889608E-1
2.897486998E0,2.813959360E0,-5.036891460E0,-7.896314561E-2
2.902241634E0,3.230310678E0,-4.867001057E0,1.292124242E-1
2.906996269E0,3.558127165E0,-4.711467743E0,2.703889608E-1
2.911750853E0,3.778266907E0,-4.642076015E0,3.613162339E-1
2.916505488E0,3.833301783E0,-4.594219685E0,3.421736360E-1
2.921260123E0,3.840480328E0,-4.522434711E0,3.613162339E-1
2.926014759E0,3.787838221E0,-4.508078098E0,3.828516304E-1
2.930769394E0,3.646661758E0,-4.460221291E0,4.307080805E-1
2.935524030E0,3.376272678E0,-4.414757729E0,4.426721931E-1
2.940278665E0,3.041277647E0,-4.421936035E0,3.972085714E-1
2.945033301E0,2.624926329E0,-4.450650215E0,3.876372576E-1
2.949787936E0,2.132004976E0,-4.532006264E0,3.086741269E-1
2.954542571E0,1.639083505E0,-4.704289436E0,2.081755698E-1
2.959297207E0,1.093519926E0,-4.857429981E0,1.555334777E-1
2.964051842E0,5.670989752E-1,-5.029713154E0,1.651047617E-1
2.968806478E0,3.828516230E-2,-5.158925533E0,2.416750938E-1
2.973561113E0,-3.804588020E-1,-5.245067120E0,3.014956415E-1
2.978315696E0,-7.920243144E-1,-5.288137913E0,3.732803464E-1
2.983070332E0,-1.110269666E0,-5.273781300E0,4.594219327E-1
2.987824967E0,-1.469193101E0,-5.213960648E0,4.570291340E-1
2.992579603E0,-1.847259045E0,-5.058426857E0,4.953143001E-1
2.997334238E0,-2.249253273E0,-4.862215519E0,5.383850932E-1
3.002088873E0,-2.543570518E0,-4.632504463E0,5.838487148E-1
3.006843509E0,-2.720639229E0,-4.412364960E0,6.628118753E-1
3.011598144E0,-2.931207657E0,-4.101297855E0,6.412764788E-1
3.016352780E0,-3.079562664E0,-3.768695593E0,6.795616150E-1
3.021107415E0,-3.153740168E0,-3.481556892E0,7.274180651E-1
3.025862051E0,-3.101098061E0,-3.208775282E0,7.728816867E-1
3.030616686E0,-3.115455151E0,-2.976671457E0,7.393822074E-1
3.035371321E0,-3.046063185E0,-2.854637384E0,6.580262184E-1
3.040125905E0,-2.950350285E0,-2.756531715E0,5.024927258E-1
3.044880592E0,-2.758924484E0,-2.711068153E0,4.498506486E-1
3.049635176E0,-2.467000246E0,-2.746960402E0,3.469592929E-1
3.054389811E0,-2.124826431E0,-2.837887764E0,1.292124242E-1
3.059144446E0,-1.416550994E0,-3.060420275E0,-2.608176768E-1
3.063899082E0,-3.110669553E-1,-3.347558975E0,-7.609176040E-1
3.068653717E0,9.332008362E-1,-3.696911097E0,-1.356730461E0
3.073408353E0,2.062613010E0,-4.046263218E0,-1.890329838E0
3.078162988E0,3.218346357E0,-4.378865242E0,-2.127219439E0
3.082917623E0,4.331008911E0,-4.773681164E0,-2.074577332E0
3.087672259E0,5.649454117E0,-5.249852657E0,-1.718046665E0
3.092426894E0,7.039684296E0,-5.800201893E0,-9.930213690E-1
3.097181530E0,8.654839516E0,-6.439085960E0,1.914258152E-1
3.101936165E0,1.014556789E1,-7.353144169E0,1.629512191E0
3.106690801E0,1.155733299E1,-8.319844246E0,3.275774240E0
3.111445436E0,1.287817192E1,-9.336793900E0,4.845465660E0
3.116200071E0,1.421815205E1,-1.031785107E1,5.668596745E0
3.120954655E0,1.594816303E1,-1.120798111E1,5.943771362E0
3.125709290E0,1.787199211E1,-1.202632618E1,5.242674351E0
3.130463926E0,1.997767639E1,-1.283510113E1,4.220939159E0
3.135218561E0,2.182254219E1,-1.346919823E1,3.129812002E0
3.139973196E0,2.331087875E1,-1.376830196E1,2.435893536E0
3.144727832E0,2.411008072E1,-1.385683632E1,2.404786825E0
3.149482467E0,2.429432869E1,-1.358405399E1,2.725425005E0
3.154237103E0,2.476332092E1,-1.288295746E1,3.127419233E0
3.158991738E0,2.553859520E1,-1.184207916E1,3.560520172E0
3.163746373E0,2.600519562E1,-1.079162979E1,3.608376503E0
3.168501009E0,2.547877502E1,-9.659825325E0,3.354737282E0
3.173255644E0,2.411247444E1,-8.563912392E0,2.703889608E0
3.178010280E0,2.196850395E1,-7.436892986E0,1.945364833E0
3.182764915E0,1.875255013E1,-6.384050846E0,1.205982566E0
3.187519551E0,1.485225010E1,-5.558526993E0,7.202396393E-1
3.192274186E0,1.114816093E1,-5.012963295E0,9.403793216E-1
3.197028821E0,8.015955925E0,-4.795216560E0,1.785045743E0
3.201783457E0,5.393422127E0,-4.776073933E0,2.763710260E0
3.206538040E0,3.089133978E0,-5.017749310E0,3.448057413E0
3.211292676E0,1.026520967E0,-5.414957523E0,3.419343472E0
3.216047311E0,-6.245267391E-1,-5.986842155E0,2.653640270E0
3.220801946E0,-1.727617979E0,-6.922435760E0,1.390229940E0
3.225556582E0,-2.471785784E0,-8.305487633E0,-4.235295951E-1
3.230311217E0,-3.637090445E0,-1.000439167E1,-4.323830605E0
3.235065853E0,-5.429314613E0,-1.212443256E1,-1.088255692E1
3.239820488E0,-5.929414749E0,-1.420140266E1,-1.434018612E1
3.244575123E0,-5.113461971E0,-1.594337749E1,-1.369412422E1
3.249329759E0,-3.352344513E0,-1.734796333E1,-1.006899738E1
3.254084394E0,-1.060020447E0,-1.831705666E1,-4.565505505E0
3.258839030E0,1.220339537E0,-1.886501312E1,2.490928411E0
3.263593665E0,2.682354212E0,-1.922154427E1,7.877171993E0
3.268348301E0,3.366701365E0,-1.967378807E1,9.353543282E0
3.273102936E0,3.534198999E0,-2.016670990E1,8.791230202E0
3.277857571E0,3.072384357E0,-2.027917099E1,7.295716286E0
3.282612207E0,1.832902193E0,-1.926940155E1,5.505885124E0
3.287366842E0,5.192425251E-1,-1.749153328E1,4.007977962E0
3.292121478E0,-3.589234054E-1,-1.557009697E1,2.677568436E0
3.296876061E0,-5.694918036E-1,-1.366541004E1,1.509871125E0
3.301630748E0,-2.967100143E-1,-1.183490086E1,4.259224236E-1
3.306385384E0,7.178467698E-3,-1.006899738E1,-1.153340459E0
3.311139967E0,-1.938186288E-1,-8.537590981E0,-2.481357098E0
3.315894603E0,-8.303094506E-1,-7.487142086E0,-2.617748022E0
3.320649238E0,-9.954141974E-1,-6.932007313E0,-1.785045743E0
3.325403873E0,-1.024128079E0,-6.484549522E0,-8.709874153E-1
3.330158509E0,-4.785645306E-1,-6.257231236E0,-6.460621208E-2
3.334913144E0,-2.392822653E-1,-5.931807518E0,2.273181528E-1
3.339667780E0,-2.536391914E-1,-5.704489231E0,1.316052526E-1
3.344422415E0,-1.507478207E-1,-5.505885124E0,-4.546362907E-2
3.349177051E0,3.349951655E-2,-5.340780258E0,-1.316052526E-1
3.353931686E0,1.531406492E-1,-5.192425251E0,-1.938186288E-1
3.358686321E0,2.249253243E-1,-5.003392220E0,-1.938186288E-1
3.363440957E0,2.943171859E-1,-4.881358147E0,-1.483550072E-1
3.368195592E0,3.469592929E-1,-4.819144726E0,-1.339980662E-1
3.372950228E0,3.661018610E-1,-4.802394867E0,-1.076770201E-1
3.377704863E0,3.780659735E-1,-4.910071850E0,-8.614161611E-2
3.382459498E0,3.924229145E-1,-5.137390137E0,-2.392822690E-2
3.387214134E0,4.498506486E-1,-5.536991596E0,4.785645381E-2
3.391968769E0,5.096712112E-1,-6.075376511E0,1.339980662E-1
3.396723405E0,6.580262184E-1,-6.719046116E0,2.297109663E-1
3.401478040E0,8.039883971E-1,-7.463213921E0,3.517449200E-1
3.406232676E0,9.954141974E-1,-8.212167740E0,5.383850932E-1
3.410987311E0,1.208375454E0,-8.997013092E0,7.417750359E-1
3.415741946E0,1.399801254E0,-9.743574142E0,9.236295223E-1
3.420496582E0,1.586441398E0,-1.038485050E1,1.143769264E0
3.425251217E0,1.804188251E0,-1.101655579E1,1.344766378E0
3.430005853E0,2.093719721E0,-1.157647610E1,1.598405480E0
3.434760488E0,2.476571321E0,-1.198325539E1,1.947757602E0
3.439515123E0,2.938386202E0,-1.224885941E1,2.440679073E0
3.444269759E0,3.481556892E0,-1.238285732E1,3.024527788E0
3.449024394E0,4.007977962E0,-1.237567902E1,3.644268990E0
3.453778978E0,4.407579422E0,-1.213878918E1,4.182653904E0
3.458533665E0,4.704289436E0,-1.180618668E1,4.582255363E0
3.463288248E0,4.950749874E0,-1.136351490E1,4.783252239E0
3.468042884E0,5.087141037E0,-1.079641533E1,4.845465660E0
3.472797519E0,5.158925533E0,-1.018624592E1,4.833501816E0
3.477552155E0,5.120640278E0,-9.552147865E0,4.713860512E0
3.482306790E0,4.996213913E0,-8.939585686E0,4.503292084E0
3.487061426E0,4.713860512E0,-8.401200294E0,4.201796532E0
3.491816061E0,4.390829563E0,-7.936992645E0,3.952943087E0
3.496570696E0,4.067798615E0,-7.494320393E0,3.814159393E0
3.501325332E0,3.553341627E0,-7.180860519E0,3.797409534E0
3.506079967E0,2.900100946E0,-6.879364967E0,3.962514400E0
3.510834603E0,2.256431818E0,-6.573083878E0,4.342973232E0
3.515589238E0,2.132004976E0,-6.357729912E0,4.689932346E0
3.520343873E0,2.335394859E0,-6.494120598E0,4.429114819E0
3.525098509E0,2.574677229E0,-6.587440968E0,3.806980848E0
3.529853144E0,2.713460922E0,-6.616154671E0,3.450450182E0
3.534607780E0,3.117847919E0,-6.687939167E0,2.964707375E0
3.539362415E0,3.878765583E0,-6.874579430E0,3.077169895E0
3.544117051E0,3.964907169E0,-7.185646534E0,3.201596737E0
3.548871686E0,3.967299938E0,-7.367500782E0,3.113062143E0
3.553626321E0,3.936193228E0,-7.427321434E0,2.629712105E0
3.558380957E0,4.063013077E0,-7.420143127E0,2.306680918E0
3.563135592E0,4.323830605E0,-7.446464062E0,2.187039852E0
3.567890228E0,4.493721008E0,-7.695317745E0,2.031506538E0
3.572644863E0,4.675575256E0,-8.013563156E0,1.806581140E0
3.577399498E0,4.907679081E0,-8.336593628E0,1.648654819E0
3.582154134E0,5.130211830E0,-8.712266922E0,1.579262972E0
3.586908769E0,5.343173027E0,-9.116654396E0,1.538584948E0
3.591663405E0,5.534598827E0,-9.475577354E0,1.562513232E0
3.596418040E0,5.702096462E0,-9.827322960E0,1.617548108E0
3.601172676E0,5.824130535E0,-1.009292603E1,1.529013634E0
3.605927311E0,5.903093338E0,-1.037527943E1,1.320838094E0
3.610681946E0,5.946164131E0,-1.057627583E1,1.088734269E0
3.615436582E0,5.893522263E0,-1.071506023E1,8.949156404E-1
3.620191217E0,5.721239090E0,-1.077966595E1,6.939185858E-1
3.624945853E0,5.501099110E0,-1.087298584E1,5.264210105E-1
3.629700488E0,5.216353416E0,-1.086102200E1,3.972085714E-1
3.634455123E0,4.862215519E0,-1.076291656E1,3.708875179E-1
3.639209759E0,4.496113777E0,-1.068873882E1,2.799602449E-1
3.643964394E0,4.139583111E0,-1.057149029E1,1.962114573E-1
3.648719030E0,3.759124279E0,-1.046142101E1,4.067798331E-2
3.653473665E0,3.553341627E0,-1.032024384E1,-1.268195957E-1
3.658228301E0,3.371487141E0,-1.021256733E1,-3.804588020E-1
3.662982936E0,3.292523861E0,-1.004985523E1,-5.862415433E-1
3.667737571E0,3.211168051E0,-9.781859398E0,-8.494520187E-1
3.672492207E0,3.235096216E0,-9.466006279E0,-1.115055323E0
3.677246842E0,3.321237803E0,-9.162117958E0,-1.368694544E0
3.682001478E0,3.361915827E0,-8.863015175E0,-1.758724689E0
3.686756113E0,3.393022537E0,-8.475378036E0,-2.299502611E0
3.691510748E0,3.388236761E0,-8.176275253E0,-3.847658873E0
3.696265384E0,3.589233875E0,-7.987242222E0,-7.271788120E0
3.701020019E0,4.208974838E0,-7.994420528E0,-7.484749317E0
3.705774655E0,4.953142643E0,-8.032705307E0,-4.876572609E0
3.710529290E0,5.240281582E0,-8.051848412E0,-1.837687731E0
3.715283926E0,5.240281582E0,-8.137989998E0,1.746760458E-1
3.720038561E0,5.431707382E0,-8.264809608E0,1.323230863E0
3.724793196E0,5.728417397E0,-8.472985268E0,2.120040894E0
3.729547832E0,6.096911907E0,-8.834300995E0,2.878565550E0
3.734302467E0,6.561119556E0,-9.365508080E0,3.517449379E0
3.739057103E0,7.137789726E0,-9.980463028E0,4.060619831E0
3.743811738E0,7.800601959E0,-1.056909752E1,4.357329845E0
3.748566373E0,8.532805443E0,-1.111226845E1,4.299902439E0
3.753321009E0,9.367900848E0,-1.150947666E1,3.797409534E0
3.758075644E0,1.016231823E1,-1.176072311E1,2.830709219E0
3.762830280E0,1.105723381E1,-1.189711380E1,6.604190469E-1
3.767584915E0,1.208375454E1,-1.194736385E1,-3.067598581E0
3.772339551E0,1.280638695E1,-1.191625690E1,-6.068198204E0
3.777094186E0,1.289731407E1,-1.180140114E1,-6.396014690E0
3.781848821E0,1.239960670E1,-1.164108181E1,-4.742574692E0
3.786603457E0,1.168893814E1,-1.150708389E1,-2.624926329E0
3.791358092E0,1.122712421E1,-1.125105190E1,-7.010970116E-1
3.796112728E0,1.109791183E1,-1.087059307E1,4.689932466E-1
3.800867363E0,1.118166065E1,-1.026042366E1,6.077769399E-1
3.805621998E0,1.124865913E1,-9.485149384E0,-1.459621787E-1
3.810376634E0,1.110987568E1,-8.528019905E0,-8.159525394E-1
3.815131269E0,1.075573826E1,-7.590033531E0,-6.628118753E-1
3.819885905E0,1.017667484E1,-6.759724140E0,-1.890329868E-1
3.824640540E0,9.640682220E0,-6.116054535E0,3.421736360E-1
3.829395228E0,9.238688469E0,-5.745167255E0,8.781659007E-1
3.834149863E0,8.867800713E0,-5.596812248E0,1.337587833E0
3.838904498E0,8.685946465E0,-5.922235966E0,1.631905079E0
3.843659134E0,8.614161491E0,-6.570691109E0,1.737189293E0
3.848413769E0,8.654839516E0,-7.558926582E0,1.830509305E0
3.853168405E0,8.673981667E0,-8.855836868E0,1.842473388E0
3.857923040E0,8.599804878E0,-1.033460140E1,1.734796405E0
3.862677676E0,8.327022552E0,-1.201914787E1,1.430907965E0
3.867432311E0,7.944170952E0,-1.386162186E1,9.355936646E-1
3.872186946E0,7.515855789E0,-1.560359669E1,5.766702294E-1
3.876941582E0,7.109076023E0,-1.734078598E1,2.991028428E-1
3.881696217E0,6.565905571E0,-1.917368698E1,1.316052526E-1
3.886450853E0,6.020341873E0,-2.092284203E1,2.153540403E-2
3.891205488E0,5.402993679E0,-2.260499573E1,-6.221338734E-2
3.895960123E0,4.859822750E0,-2.399044037E1,1.435693651E-1
3.900714759E0,4.055834293E0,-2.533281326E1,3.421736360E-1
3.905469394E0,3.335594654E0,-2.636651230E1,4.259224236E-1
3.910224030E0,2.648854733E0,-2.713939476E1,6.556333899E-1
3.914978665E0,1.835294962E0,-2.751745987E1,8.327022791E-1
3.919733301E0,8.039883971E-1,-2.765863609E1,8.111668825E-1
3.924487936E0,-8.877372146E-1,-2.737389183E1,1.938186288E-1
3.929242571E0,-3.134597778E0,-2.637608337E1,-2.232503414E0
3.933997207E0,-5.314459324E0,-2.476332092E1,-5.821737289E0
3.938751842E0,-6.386443615E0,-2.223410797E1,-7.814958572E0
3.943506478E0,-6.202196121E0,-1.950150490E1,-5.714060307E0
3.948261113E0,-5.426921844E0,-1.708714676E1,-1.481157184E0
3.953015748E0,-4.733003139E0,-1.538584995E1,2.581855536E0
3.957770384E0,-4.453042984E0,-1.446461296E1,4.898108006E0
3.962525019E0,-4.345366001E0,-1.377548027E1,5.297709465E0
3.967279655E0,-3.996013880E0,-1.304088306E1,4.414757729E0
3.972034290E0,-3.402593851E0,-1.224407387E1,3.132204771E0
3.976788978E0,-2.847458839E0,-1.130369377E1,2.122433662E0
3.981543613E0,-2.459821701E0,-1.034895802E1,1.237089276E0
3.986298248E0,-2.256431818E0,-9.554540634E0,4.977070987E-1
3.991052884E0,-2.127219439E0,-8.812766075E0,-6.699903309E-2
3.995807519E0,-1.756331801E0,-8.008777618E0,-8.590233326E-1
4.000562155E0,-1.339980721E0,-7.121040344E0,-1.404586911E0
4.005316790E0,-1.014556766E0,-6.242874146E0,-1.765903115E0
4.010071426E0,-5.814558864E-1,-5.429314613E0,-1.852044702E0
4.014826061E0,-6.221338734E-2,-4.733003139E0,-1.694118381E0
4.019580696E0,4.833501875E-1,-4.158725739E0,-1.351944804E0
4.024335332E0,1.040877819E0,-3.668197155E0,-9.978070259E-1
4.029089967E0,1.648654819E0,-3.311666489E0,-6.915257573E-1
4.033844603E0,2.184647083E0,-3.012563705E0,-3.397808075E-1
4.038599238E0,2.624926329E0,-2.746960402E0,3.349951655E-2
4.043353873E0,2.885744095E0,-2.548356056E0,3.373879790E-1
4.048108509E0,3.043670416E0,-2.313859463E0,4.546363056E-1
4.052863144E0,3.103491068E0,-2.184647083E0,5.407779217E-1
4.057617780E0,3.091526747E0,-2.057827473E0,6.125625968E-1
4.062372415E0,3.050848961E0,-1.919043779E0,6.628118753E-1
4.067127051E0,2.861815929E0,-1.816152334E0,7.250252366E-1
4.071881686E0,2.474178553E0,-1.768295884E0,7.537391186E-1
4.076636321E0,1.919043779E0,-1.804188251E0,8.518448472E-1
4.081391009E0,1.172483087E0,-1.990828395E0,1.024128079E0
4.086145644E0,3.565305769E-1,-2.333002090E0,1.167697430E0
4.090900280E0,-3.900300860E-1,-2.778067112E0,1.272981644E0
4.095654915E0,-1.036092162E0,-3.316452265E0,1.344766378E0
4.100409551E0,-1.682154298E0,-3.833301783E0,1.361516118E0
4.105164186E0,-2.249253273E0,-4.230510235E0,1.225125194E0
4.109918821E0,-2.732603550E0,-4.508078098E0,1.014556766E0
4.114673457E0,-3.081955671E0,-4.644468784E0,7.465606928E-1
4.119428092E0,-3.450450182E0,-4.603790760E0,3.996013701E-1
4.124182728E0,-3.775874138E0,-4.512863636E0,8.614161611E-2
4.128937363E0,-4.010370731E0,-4.364508629E0,-1.148554832E-1
4.133691998E0,-4.283152580E0,-4.211368084E0,-3.397808075E-1
4.138446634E0,-4.465006828E0,-4.024727821E0,-4.378865361E-1
4.143201269E0,-4.436293125E0,-3.897907972E0,-5.670989752E-1
4.147955905E0,-4.292723656E0,-3.859622955E0,-6.197410822E-1
4.152710540E0,-4.187439442E0,-3.809373617E0,-6.939185858E-1
4.157465176E0,-4.144368649E0,-3.797409534E0,-8.350951076E-1
4.162219863E0,-4.015156269E0,-3.828516245E0,-1.009771109E0
4.166974498E0,-3.962514400E0,-3.936193228E0,-1.289731383E0
4.171729134E0,-3.816552162E0,-4.110869408E0,-1.540977836E0
4.176483769E0,-3.412165165E0,-4.338187218E0,-1.887937069E0
4.181238405E0,-2.562713146E0,-4.656432629E0,-2.407179594E0
4.185993040E0,-1.433300734E0,-4.972285271E0,-3.419343472E0
4.190747676E0,-3.684946895E-1,-5.383851051E0,-5.395814896E0
4.195502311E0,5.024927258E-1,-5.938985825E0,-7.982456207E0
4.200256946E0,1.308874011E0,-6.642475605E0,-9.530612946E0
4.205011582E0,2.251646042E0,-7.456035137E0,-9.578469276E0
4.209766217E0,3.455235958E0,-8.341380119E0,-8.556734085E0
4.214520853E0,5.484349728E0,-9.296115875E0,-6.223731518E0
4.219275488E0,7.587640762E0,-1.005703354E1,-2.218146563E0
4.224030123E0,1.007378292E1,-1.033938694E1,3.524627686E0
4.228784759E0,1.228714466E1,-1.000678444E1,1.005464077E1
4.233539446E0,1.384247875E1,-9.853643417E0,1.555334759E1
4.238294082E0,1.577348709E1,-1.050688457E1,1.772124481E1
4.243048717E0,1.855633926E1,-1.206700420E1,1.657268906E1
4.247803353E0,2.159283066E1,-1.391187096E1,1.220339584E1
4.252557988E0,2.420340157E1,-1.550788403E1,6.903293133E0
4.257312623E0,2.531367111E1,-1.633340645E1,2.823530674E0
4.262067259E0,2.488774872E1,-1.642194176E1,-2.153540403E-2
4.266821894E0,2.375354958E1,-1.581895065E1,-1.519442320E0
4.271576530E0,2.243271255E1,-1.490489197E1,-2.179861546E0
4.276331165E0,2.150429726E1,-1.349073410E1,-2.373680115E0
4.281085801E0,2.082712746E1,-1.179422283E1,-1.782652855E0
4.285840488E0,1.972164345E1,-1.029870892E1,-8.398807645E-1
4.290595123E0,1.803231239E1,-9.104690552E0,3.948157430E-1
4.295349759E0,1.602712631E1,-7.982456207E0,1.495514154E0
4.300104394E0,1.455554008E1,-7.080362320E0,2.256431818E0
4.304859030E0,1.298824120E1,-6.336194515E0,2.615355253E0
4.309613665E0,1.154058361E1,-5.632704735E0,2.854637384E0
4.314368301E0,1.003310490E1,-5.058426857E0,3.273381472E0
4.319122936E0,8.334200859E0,-4.632504463E0,3.577269793E0
4.323877571E0,6.474977970E0,-4.493721008E0,3.610769272E0
4.328632207E0,4.811966419E0,-4.773681164E0,3.215953588E0
4.333386842E0,3.409772158E0,-5.414957523E0,2.306680918E0
4.338141478E0,2.388036966E0,-6.613761902E0,8.231309652E-1
4.342896165E0,1.454836130E0,-8.489734650E0,-1.897508383E0
4.347650801E0,2.943171859E-1,-1.106441212E1,-6.987041950E0
4.352405436E0,1.316052526E-1,-1.389512062E1,-9.688538551E0
4.357160071E0,1.186840057E0,-1.631665802E1,-7.657032490E0
4.361914707E0,2.203789711E0,-1.798445511E1,-3.211168051E0
4.366669342E0,3.022135019E0,-1.906601143E1,1.366301775E0
4.371423978E0,3.713660717E0,-2.037727737E1,2.316252232E0
4.376178613E0,4.632504463E0,-2.180100632E1,7.298108935E-1
4.380933248E0,5.333601475E0,-2.204028893E1,1.048056364E0
4.385687884E0,4.682754040E0,-2.052084732E1,2.249253273E0
4.390442571E0,3.404986620E0,-1.832184219E1,3.464807272E0
4.395197207E0,2.557927370E0,-1.615155220E1,4.340580463E0
4.399951842E0,2.280359983E0,-1.421815205E1,4.084548473E0
4.404706478E0,2.490928411E0,-1.256231880E1,1.880758643E0
4.409461113E0,3.395415306E0,-1.121515942E1,-2.036292076E0
4.414215748E0,4.376472473E0,-1.017428207E1,-5.623133183E0
4.418970384E0,4.663611412E0,-9.475577354E0,-7.424928665E0
4.423725019E0,3.646661758E0,-8.980263710E0,-6.259624004E0
4.428479655E0,2.277967215E0,-8.769695282E0,-3.239881754E0
4.433234290E0,1.708475351E0,-8.484949112E0,-1.332802176E0
4.437988926E0,1.325623751E0,-7.987242222E0,-6.125625968E-1
4.442743613E0,9.571290612E-1,-7.503891945E0,-1.698904037E-1
4.447498248E0,5.958128572E-1,-7.097112179E0,1.698904037E-1
4.452252884E0,2.584248483E-1,-6.716653347E0,2.440679073E-1
4.457007519E0,-2.009970993E-1,-6.415157318E0,3.637090325E-1
4.461762155E0,-7.465606928E-1,-6.116054535E0,5.072783828E-1
4.466516790E0,-1.167697430E0,-5.864808083E0,6.029912829E-1
4.471271426E0,-1.545763373E0,-5.721239090E0,6.987041831E-1
4.476026061E0,-1.873580098E0,-5.625525951E0,7.489534616E-1
4.480780696E0,-2.165504456E0,-5.603990555E0,7.776673436E-1
4.485535384E0,-2.359323025E0,-5.709274769E0,9.355936646E-1
4.490290019E0,-2.292324066E0,-5.931807518E0,1.129412293E0
4.495044655E0,-2.134397745E0,-6.302694798E0,1.296909928E0
4.499799290E0,-2.005185366E0,-6.675975323E0,1.258624673E0
4.504553926E0,-1.782652855E0,-7.058826923E0,1.086341500E0
4.509308561E0,-1.526620865E0,-7.537391186E0,1.014556766E0
4.514063196E0,-1.287338614E0,-8.035098076E0,1.012163997E0
4.518817832E0,-1.067198873E0,-8.532805443E0,1.083948612E0
4.523572467E0,-8.614161611E-1,-8.987442017E0,1.110269666E0
4.528327155E0,-7.082754970E-1,-9.470791817E0,1.110269666E0
4.533081790E0,-6.340979934E-1,-9.856036186E0,1.055234790E0
4.537836426E0,-6.149554253E-1,-1.016471100E1,1.055234790E0
4.542591061E0,-5.479564071E-1,-1.046142101E1,1.119840980E0
4.547345696E0,-3.565305769E-1,-1.074616623E1,1.371087432E0
4.552100332E0,-7.417750359E-2,-1.091605663E1,1.854437590E0
4.556854967E0,2.512463629E-1,-1.089691448E1,2.577069998E0
4.561609603E0,5.359922647E-1,-1.080359459E1,3.433700562E0
4.566364290E0,8.374879360E-1,-1.068634605E1,4.256831646E0
4.571118926E0,1.179661512E0,-1.051884842E1,4.902893543E0
4.575873561E0,1.457229018E0,-1.030827999E1,5.357530117E0
4.580628196E0,1.722832322E0,-1.005464077E1,5.752345562E0
4.585382832E0,1.952543259E0,-9.755537987E0,5.938985825E0
4.590137467E0,2.120040894E0,-9.468399048E0,5.922235966E0
4.594892103E0,2.170290232E0,-9.202795982E0,5.752345562E0
4.599646738E0,2.129612207E0,-8.958727837E0,5.527420521E0
4.604401426E0,1.928615093E0,-8.755337715E0,5.429314613E0
4.609156061E0,1.610369682E0,-8.516056061E0,5.455635548E0
4.613910696E0,1.263410330E0,-8.183453560E0,5.513063431E0
4.618665332E0,9.667003751E-1,-7.884350777E0,5.649454117E0
4.623419967E0,8.231309652E-1,-7.726424217E0,5.776273727E0
4.628174603E0,7.992027402E-1,-7.724031448E0,5.852844238E0
4.632929238E0,8.111668825E-1,-7.822137356E0,5.692524910E0
4.637683926E0,8.350951076E-1,-7.989634991E0,5.300102234E0
4.642438561E0,7.800601721E-1,-8.209774017E0,4.728217602E0
4.647193196E0,8.638089895E-1,-8.415556908E0,4.170690060E0
4.651947832E0,9.882357717E-1,-8.585447311E0,3.582055569E0
4.656702467E0,1.148554921E0,-8.760123253E0,3.022135019E0
4.661457103E0,1.301695466E0,-8.970691681E0,2.493321180E0
4.666211738E0,1.488335729E0,-9.150154114E0,2.203789711E0
4.670966373E0,1.610369682E0,-9.262616158E0,1.945364833E0
4.675721061E0,1.880758643E0,-9.274580956E0,1.739582062E0
4.680475696E0,2.079362869E0,-9.300901413E0,1.627119422E0
4.685230332E0,2.227717876E0,-9.439684868E0,1.572084427E0
4.689984967E0,2.459821701E0,-9.561718941E0,1.490728498E0
4.694739603E0,2.835494757E0,-9.760323524E0,1.552941918E0
4.699494238E0,3.208775282E0,-9.930213928E0,1.517049551E0
4.704248926E0,3.677768469E0,-1.012164021E1,1.421336651E0
4.709003561E0,4.134797573E0,-1.029870892E1,1.354337573E0
4.713758196E0,4.563112736E0,-1.047338486E1,1.277767301E0
4.718512832E0,4.847858906E0,-1.067916775E1,1.246660590E0
4.723267467E0,5.084748268E0,-1.089930725E1,1.198804140E0
4.728022103E0,5.216353416E0,-1.116969585E1,1.079162955E0
4.732776738E0,5.283352375E0,-1.138504982E1,1.057627559E0
4.737531426E0,5.374279499E0,-1.152383423E1,1.016949654E0
4.742286061E0,5.422136307E0,-1.152622700E1,9.619147182E-1
4.747040696E0,5.319244862E0,-1.158604717E1,8.111668825E-1
4.751795332E0,5.345565796E0,-1.155254745E1,6.484549642E-1
4.756549967E0,5.324030399E0,-1.143290615E1,5.048855543E-1
4.761304603E0,5.125426292E0,-1.120080280E1,1.435693651E-1
4.766059238E0,4.955535889E0,-1.092323494E1,-6.819544435E-1
4.770813926E0,4.649254322E0,-1.050927734E1,-1.268195987E0
4.775568561E0,4.218546391E0,-1.001635551E1,-2.038684845E0
4.780323196E0,4.584648132E0,-9.573683739E0,-7.233502865E0
4.785077832E0,5.670989513E0,-9.377471924E0,-1.254078388E1
4.789832467E0,6.360122681E0,-9.085547447E0,-1.098305607E1
4.794587103E0,6.209374905E0,-8.841479301E0,-7.467999458E0
4.799341790E0,6.051448345E0,-8.697910309E0,-5.704489231E0
4.804096426E0,5.986842155E0,-8.554341316E0,-4.615755081E0
4.808851061E0,5.816951752E0,-8.327022552E0,-3.081955671E0
4.813605696E0,5.345565796E0,-8.044670105E0,-1.062413216E0
4.818360332E0,4.878965378E0,-7.747959614E0,8.709874153E-1
4.823114967E0,4.670789719E0,-7.511070251E0,2.170290232E0
4.827869603E0,4.697110653E0,-7.233502865E0,2.806781054E0
4.832624290E0,4.797609329E0,-7.030112743E0,3.237488985E0
4.837378926E0,4.922036171E0,-6.910471916E0,3.455235958E0
4.842133561E0,5.058426857E0,-6.979863644E0,3.601198196E0
4.846888196E0,5.254638672E0,-7.257431030E0,3.670589924E0
4.851642832E0,5.558526993E0,-7.630711555E0,3.663411379E0
4.856397519E0,5.915057659E0,-8.137989998E0,3.536591768E0
4.861152155E0,6.324230194E0,-8.695517540E0,3.359523058E0
4.865906790E0,6.742974281E0,-9.288937569E0,3.136990547E0
4.870661426E0,7.156932354E0,-9.882357597E0,2.988635540E0
4.875416061E0,7.575676441E0,-1.042792130E1,2.775674343E0
4.880170696E0,7.936992645E0,-1.099501991E1,2.620140791E0
4.884925332E0,8.319844246E0,-1.151426220E1,2.670390129E0
4.889680019E0,8.776873589E0,-1.196411324E1,2.691925526E0
4.894434655E0,9.138189316E0,-1.234696484E1,2.512463808E0
4.899189290E0,9.475577354E0,-1.273699474E1,2.268395901E0
4.903943926E0,9.839286804E0,-1.300738430E1,1.792224169E0
4.908698561E0,1.043270683E1,-1.315334606E1,9.643075466E-1
4.913453248E0,1.133958626E1,-1.311506081E1,-1.368694544E0
4.918207884E0,1.250967693E1,-1.282552910E1,-4.773681164E0
4.922962519E0,1.295234871E1,-1.206221867E1,-6.262016773E0
4.927717155E0,1.239721394E1,-1.090409279E1,-4.905286312E0
4.932471790E0,1.117448139E1,-9.729216576E0,-2.127219439E0
4.937226426E0,1.014317513E1,-8.719446182E0,-1.268195957E-1
4.941981113E0,9.528220177E0,-7.932207108E0,8.685946465E-1
4.946735748E0,9.087940216E0,-7.338787079E0,1.378265858E0
4.951490384E0,8.803194046E0,-7.034898758E0,1.359123230E0
4.956245019E0,8.458627701E0,-7.013363361E0,1.040877819E0
4.960999655E0,8.176275253E0,-7.456035137E0,4.642075896E-1
4.965754342E0,7.609176159E0,-8.286344528E0,-2.392822690E-2
4.970508978E0,6.853044033E0,-9.516255379E0,-2.273181528E-1
4.975263613E0,6.092126369E0,-1.096869946E1,-2.560320199E-1
4.980018248E0,5.613562107E0,-1.250967693E1,-3.254238665E-1
4.984772884E0,5.446064472E0,-1.402911949E1,-3.756731451E-1
4.989527519E0,5.328815937E0,-1.557248974E1,-4.043870270E-1
4.994282207E0,5.206781864E0,-1.702971840E1,-5.599204898E-1
4.999036842E0,5.005784988E0,-1.853241158E1,-5.527420044E-1
5.003791478E0,4.711467743E0,-2.013799477E1,-5.000999570E-1
5.008546113E0,4.110869408E0,-2.178425789E1,-3.948157430E-1
5.013300801E0,3.239881754E0,-2.325823593E1,-2.632105052E-1
5.018055436E0,2.646461725E0,-2.455753899E1,-5.742774159E-2
5.022810071E0,2.165504456E0,-2.556013107E1,2.632105052E-1
5.027564707E0,1.773081541E0,-2.627797890E1,6.771687865E-1
5.032319342E0,1.311266780E0,-2.671107864E1,1.074377418E0
5.037073978E0,5.455635786E-1,-2.689532661E1,1.308874011E0
5.041828665E0,-2.871387303E-1,-2.662733078E1,1.677368641E0
5.046583301E0,-1.335195065E0,-2.586162758E1,2.251646042E0
5.051337936E0,-2.840280533E0,-2.455035973E1,2.761317253E0
5.056092571E0,-4.120440483E0,-2.286342049E1,3.407379389E0
5.060847207E0,-5.029713154E0,-2.094916153E1,3.854837179E0
5.065601894E0,-5.797809124E0,-1.903251076E1,3.522234917E0
5.070356530E0,-7.051648140E0,-1.620898056E1,-7.987242222E0
5.075111165E0,-7.412964344E0,-1.323230934E1,-1.169372463E1
5.079865801E0,-6.503692150E0,-1.166501045E1,-7.360322475E0
5.084620488E0,-5.649454117E0,-1.146162033E1,-1.454836130E0
5.089375123E0,-5.225924492E0,-1.166501045E1,2.467000246E0
5.094129759E0,-5.027320385E0,-1.161954689E1,4.266402721E0
5.098884394E0,-4.682754040E0,-1.131805134E1,4.630111694E0
5.103639030E0,-4.153940201E0,-1.092084217E1,4.089334011E0
5.108393717E0,-3.481556892E0,-1.038963604E1,3.074777126E0
5.113148353E0,-2.813959360E0,-9.734002113E0,1.636690736E0
5.117902988E0,-2.199003935E0,-9.008976936E0,-1.411765367E-1
5.122657623E0,-1.569691658E0,-8.245666504E0,-1.741974831E0
5.127412259E0,-1.117448211E0,-7.477570534E0,-2.682354212E0
5.132166946E0,-7.513462901E-1,-6.635297298E0,-2.971885681E0
5.136921582E0,-2.392822653E-1,-5.867201328E0,-2.627319336E0
5.141676217E0,2.153540403E-1,-5.266602516E0,-1.964507341E0
5.146430853E0,6.340979934E-1,-4.783252239E0,-1.275374413E0
5.151185488E0,1.129412293E0,-4.374079704E0,-7.274180651E-1
5.155940176E0,1.584048629E0,-4.022335052E0,-3.206382394E-1
5.160694811E0,2.084148407E0,-3.744767427E0,-5.503492057E-2
5.165449446E0,2.411965132E0,-3.503092289E0,1.986042857E-1
5.170204082E0,2.739781857E0,-3.292523861E0,5.120640397E-1
5.174958769E0,3.026920557E0,-3.091526747E0,8.685946465E-1
5.179713405E0,3.170490026E0,-2.845066071E0,1.155733347E0
5.184468040E0,3.247060299E0,-2.663211584E0,1.287338614E0
5.189222676E0,3.237488985E0,-2.438286304E0,1.280160069E0
5.193977311E0,3.098705292E0,-2.220539331E0,1.124626637E0
5.198731998E0,2.873780012E0,-2.062613010E0,1.050449133E0
5.203486634E0,2.517249346E0,-1.914258122E0,1.019342422E0
5.208241269E0,2.041077614E0,-1.885544300E0,9.427721500E-1
5.212995905E0,1.201196909E0,-2.096112728E0,7.202396393E-1
5.217750592E0,2.416750938E-1,-2.565105915E0,5.120640397E-1
5.222505228E0,-5.838487148E-1,-3.196810961E0,4.067798555E-1
5.227259863E0,-1.263410330E0,-3.795016766E0,3.780659735E-1
5.232014498E0,-1.907079697E0,-4.220939159E0,4.187439680E-1
5.236769134E0,-2.419143677E0,-4.498506546E0,5.000999570E-1
5.241523821E0,-2.890529871E0,-4.654039860E0,4.761717021E-1
5.246278457E0,-3.261417150E0,-4.699503899E0,3.780659735E-1
5.251033092E0,-3.567698479E0,-4.749752998E0,2.129612118E-1
5.255787728E0,-3.780659676E0,-4.802394867E0,-7.178467698E-3
5.260542415E0,-3.876372576E0,-4.816751957E0,-1.962114573E-1
5.265297051E0,-3.888336897E0,-4.843072891E0,-3.062812984E-1
5.270051686E0,-3.862015724E0,-4.835894585E0,-3.828516304E-1
5.274806321E0,-3.787838221E0,-4.816751957E0,-3.684946895E-1
5.279560957E0,-3.802195072E0,-4.857429981E0,-4.570291340E-1
5.284315644E0,-3.814159393E0,-4.907679081E0,-5.862415433E-1
5.289070280E0,-3.742374659E0,-4.989035130E0,-6.819544435E-1
5.293824915E0,-3.759124279E0,-5.094319344E0,-8.566305041E-1
5.298579551E0,-3.885943890E0,-5.261816978E0,-1.100698471E0
5.303334238E0,-4.024727821E0,-5.525027275E0,-1.409372568E0
5.308088873E0,-3.960121393E0,-5.895915031E0,-1.923829436E0
5.312843509E0,-3.625126362E0,-6.472585201E0,-3.026920557E0
5.317598144E0,-2.670390129E0,-7.219145775E0,-5.063212872E0
5.322352832E0,-1.361516118E0,-8.037490845E0,-7.743174076E0
5.327107467E0,3.349951655E-2,-8.894122124E0,-9.731609344E0
5.331862103E0,1.514656782E0,-9.757930756E0,-1.067916775E1
5.336616738E0,3.086741209E0,-1.037288570E1,-1.043509960E1
5.341371426E0,4.685146809E0,-1.061216831E1,-8.532805443E0
5.346126061E0,6.393621922E0,-1.030827999E1,-3.888336897E0
5.350880696E0,7.697710514E0,-9.556933403E0,4.015156269E0
5.355635332E0,8.980263710E0,-9.044869423E0,1.227278709E1
5.360390019E0,1.061695385E1,-9.171689034E0,1.750828362E1
5.365144655E0,1.291884899E1,-1.031306553E1,1.897269058E1
5.369899290E0,1.545763397E1,-1.234457207E1,1.781695747E1
5.374653926E0,1.746760559E1,-1.443589878E1,1.525185108E1
5.379408613E0,1.893201256E1,-1.649611855E1,1.036570740E1
5.384163248E0,1.982214355E1,-1.794856262E1,4.835894585E0
5.388917884E0,1.925982857E1,-1.844148445E1,1.105484009E0
5.393672519E0,1.858744621E1,-1.834098625E1,-1.031306505E0
5.398427207E0,1.903490448E1,-1.763988876E1,-1.395015597E0
5.403181842E0,1.979342842E1,-1.634297943E1,-1.074377418E0
5.407936478E0,2.005663872E1,-1.480917931E1,-5.814558864E-1
5.412691113E0,1.941296959E1,-1.316291714E1,-3.804588020E-1
5.417445801E0,1.799163437E1,-1.166022491E1,-4.163511395E-1
5.422200436E0,1.636929893E1,-1.037288570E1,-5.192425251E-1
5.426955071E0,1.462253952E1,-9.154939651E0,-4.833501875E-1
5.431709707E0,1.291167068E1,-7.960920811E0,-2.775674164E-1
5.436464394E0,1.133480072E1,-7.001399040E0,9.810572863E-2
5.441219030E0,9.934999466E0,-6.065805435E0,4.498506486E-1
5.445973665E0,8.676374435E0,-5.393422127E0,8.231309652E-1
5.450728353E0,7.520641804E0,-5.067998409E0,1.103091240E0
5.455482988E0,6.860222340E0,-5.467599869E0,1.127019525E0
5.460237623E0,6.714260101E0,-6.709474564E0,8.063812256E-1
5.464992259E0,6.683153629E0,-8.417949677E0,1.507478207E-1
5.469746946E0,6.642475605E0,-1.026042366E1,-7.202396393E-1
5.474501582E0,6.276373863E0,-1.206939697E1,-1.720439434E0
5.479256217E0,6.089733601E0,-1.374437332E1,-1.978864312E0
5.484010853E0,6.180660725E0,-1.522313786E1,-1.150947690E0
5.488765540E0,6.187839508E0,-1.667797470E1,1.459621787E-1
5.493520176E0,5.850451469E0,-1.818784523E1,1.552941918E0
5.498274811E0,5.379065514E0,-1.970010948E1,2.610569477E0
5.503029446E0,4.668396950E0,-2.112623024E1,1.935793519E0
5.507784134E0,4.290330887E0,-2.173400879E1,-8.422736168E0
5.512538769E0,3.538984776E0,-1.993221283E1,-1.309831142E1
5.517293405E0,1.885544300E0,-1.697707748E1,-5.644668579E0
5.522048040E0,5.886343718E-1,-1.439043522E1,-2.179861546E0
5.526802728E0,-7.417750359E-2,-1.274656582E1,-1.100698411E-1
5.531557363E0,7.896314561E-2,-1.174158096E1,1.122233868E0
5.536311998E0,5.670989752E-1,-1.105723381E1,1.844866276E0
5.541066686E0,9.308080077E-1,-1.038485050E1,1.820937991E0
5.545821321E0,1.036092162E0,-9.724431038E0,1.182054400E0
5.550575957E0,8.566305041E-1,-9.159725189E0,5.455635786E-1
5.555330592E0,6.508477330E-1,-8.602197647E0,1.268195957E-1
5.560085280E0,3.517449200E-1,-8.066205025E0,-8.614161611E-2
5.564839915E0,-1.052841991E-1,-7.506284714E0,-2.919243574E-1
5.569594551E0,-7.561319470E-1,-7.025327206E0,-5.958128572E-1
5.574349186E0,-1.653440475E0,-6.556334019E0,-7.872386575E-1
5.579103873E0,-2.301895380E0,-6.202196121E0,-6.723831892E-1
5.583858509E0,-2.608176708E0,-6.092126369E0,-3.517449200E-1
5.588613144E0,-2.708675146E0,-5.953342915E0,3.349951655E-2
5.593367832E0,-2.854637384E0,-5.814558983E0,1.770688742E-1
5.598122467E0,-2.952743053E0,-5.766702652E0,2.297109663E-1
5.602877103E0,-3.017349243E0,-5.781059742E0,3.038884699E-1
5.607631790E0,-2.933600664E0,-5.886343479E0,4.666004181E-1
5.612386426E0,-2.924029350E0,-5.977271080E0,6.795616150E-1
5.617141061E0,-2.868994236E0,-6.161518097E0,8.039883971E-1
5.621895696E0,-2.701496840E0,-6.470192432E0,9.044869542E-1
5.626650384E0,-2.438286304E0,-6.884150982E0,9.212366939E-1
5.631405019E0,-2.108076811E0,-7.424928665E0,8.638089895E-1
5.636159655E0,-1.852044702E0,-8.003992081E0,8.638089895E-1
5.640914290E0,-1.689332843E0,-8.590232849E0,9.619147182E-1
5.645668978E0,-1.629512191E0,-9.193224907E0,1.112662554E0
5.650423613E0,-1.598405480E0,-9.820143700E0,1.335195065E0
5.655178248E0,-1.569691658E0,-1.045424175E1,1.734796405E0
5.659932936E0,-1.416550994E0,-1.111466122E1,2.462214470E0
5.664687571E0,-1.311266780E0,-1.173440266E1,3.335594654E0
5.669442207E0,-1.033699393E0,-1.224168110E1,4.204189301E0
5.674196894E0,-6.795616150E-1,-1.255035496E1,5.142175674E0
5.678951530E0,-4.546363056E-1,-1.267717457E1,6.128018856E0
5.683706165E0,-1.627119333E-1,-1.267238903E1,7.013363361E0
5.688460853E0,8.614161611E-2,-1.249532032E1,7.647460938E0
5.693215488E0,2.584248483E-1,-1.225364494E1,7.898707390E0
5.697970123E0,2.488535494E-1,-1.184686470E1,7.884350777E0
5.702724759E0,1.196411327E-1,-1.135872936E1,7.783852100E0
5.707479446E0,4.546362907E-2,-1.085623646E1,7.819744587E0
5.712234082E0,1.555334777E-1,-1.032263660E1,7.834101200E0
5.716988717E0,3.661018610E-1,-9.868000984E0,7.477570534E0
5.721743405E0,6.987041831E-1,-9.482755661E0,6.817151546E0
5.726498040E0,9.140582681E-1,-9.114261627E0,6.111268997E0
5.731252676E0,9.810572863E-1,-8.774480820E0,5.407779217E0
5.736007311E0,9.882357717E-1,-8.566305161E0,4.646861553E0
5.740761998E0,9.978070259E-1,-8.305487633E0,3.883551121E0
5.745516634E0,9.571290612E-1,-8.130811691E0,3.218346357E0
5.750271269E0,8.662018180E-1,-8.075776100E0,2.629712105E0
5.755025957E0,7.561319470E-1,-8.013563156E0,2.134397745E0
5.759780592E0,6.269195080E-1,-8.023134232E0,1.670190215E0
5.764535228E0,5.120640397E-1,-8.049455643E0,1.280160069E0
5.769289915E0,4.642075896E-1,-8.142775536E0,9.475577474E-1
5.774044551E0,4.378865361E-1,-8.353343964E0,7.082754970E-1
5.778799186E0,5.288137794E-1,-8.602197647E0,5.240281820E-1
5.783553873E0,7.298108935E-1,-8.915657043E0,4.881358147E-1
5.788308509E0,1.024128079E0,-9.176474571E0,5.144568682E-1
5.793063144E0,1.339980721E0,-9.439684868E0,6.269195080E-1
5.797817780E0,1.631905079E0,-9.655039787E0,7.896314859E-1
5.802572467E0,1.878365755E0,-9.805787086E0,9.906286001E-1
5.807327103E0,2.210968018E0,-9.896714211E0,1.127019525E0
5.812081738E0,2.572284460E0,-9.978070259E0,1.244267821E0
5.816836426E0,2.897708178E0,-1.000678444E1,1.311266780E0
5.821591061E0,3.125026464E0,-1.011206818E1,1.270588875E0
5.826345696E0,3.340380430E0,-1.010728264E1,1.203589797E0
5.831100384E0,3.464807272E0,-1.017188931E1,1.088734269E0
5.835855019E0,3.524627686E0,-1.027956581E1,9.619147182E-1
5.840609655E0,3.546163082E0,-1.040877819E1,7.561319470E-1
5.845364342E0,3.617947817E0,-1.054756260E1,5.694918036E-1
5.850118978E0,3.622733593E0,-1.069591713E1,4.163511395E-1
5.854873613E0,3.668197155E0,-1.086341476E1,2.464607358E-1
5.859628301E0,3.675375462E0,-1.102851963E1,8.614161611E-2
5.864382936E0,3.799802303E0,-1.126301575E1,-3.613162339E-1
5.869137571E0,4.058227062E0,-1.150229836E1,-1.442872047E0
5.873892207E0,4.364508629E0,-1.151665497E1,-2.622533560E0
5.878646894E0,4.577469826E0,-1.155733299E1,-4.345366001E0
5.883401530E0,5.376672268E0,-1.161715412E1,-9.410971642E0
5.888156217E0,6.367300987E0,-1.146879864E1,-1.237328625E1
5.892910853E0,5.982056618E0,-1.091127110E1,-8.425128937E0
5.897665488E0,5.245067120E0,-1.049491978E1,-4.036691666E0
5.902420123E0,4.847858906E0,-1.018385315E1,-1.737189293E0
5.907174811E0,4.644468784E0,-9.834501266E0,-8.374879360E-1
5.911929446E0,4.579862595E0,-9.470791817E0,-3.972085714E-1
5.916684082E0,4.512863636E0,-9.126225471E0,2.392822690E-2
5.921438769E0,4.524827480E0,-8.745766640E0,4.331009090E-1
5.926193405E0,4.601397991E0,-8.377271652E0,8.446664214E-1
5.930948040E0,4.735395908E0,-7.996813297E0,1.227517962E0
5.935702728E0,4.881358147E0,-7.635497093E0,1.531406522E0
5.940457363E0,4.991427898E0,-7.310073376E0,1.684547186E0
5.945211998E0,5.096712112E0,-7.068397999E0,1.710868239E0
5.949966686E0,5.168497086E0,-6.888936520E0,1.598405480E0
5.954721321E0,5.197210789E0,-6.809973240E0,1.438086390E0
5.959475957E0,5.247459888E0,-6.843472958E0,1.229910851E0
5.964230644E0,5.225924492E0,-7.015756130E0,1.038485050E0
5.968985280E0,5.178068161E0,-7.278966427E0,9.164510965E-1
5.973739915E0,5.161318302E0,-7.633104324E0,8.685946465E-1
5.978494603E0,5.192425251E0,-8.027919769E0,9.020941257E-1
5.983249238E0,5.271388054E0,-8.499305725E0,1.050449133E0
5.988003926E0,5.484349728E0,-9.090332985E0,1.284945726E0
5.992758561E0,5.778666496E0,-9.724431038E0,1.703689694E0
5.997513196E0,6.159125328E0,-1.036810017E1,2.383251429E0
6.002267832E0,6.620940208E0,-1.102373409E1,3.261417150E0
6.007022519E0,6.886543751E0,-1.165065384E1,4.156332970E0
6.011777155E0,6.955935478E0,-1.218664551E1,4.850251675E0
6.016531790E0,6.975078106E0,-1.255274773E1,5.290530682E0
6.021286478E0,6.924828529E0,-1.281117249E1,5.472385406E0
6.026041113E0,6.967899323E0,-1.300977707E1,5.376672268E0
6.030795748E0,7.097112179E0,-1.303849030E1,4.979464054E0
6.035550436E0,7.267002583E0,-1.295952702E1,4.431507587E0
6.040305071E0,7.369893551E0,-1.280160141E1,3.924229145E0
6.045059759E0,7.271788120E0,-1.257667542E1,3.529413462E0
6.049814394E0,6.896114826E0,-1.220578861E1,3.220739365E0
6.054569030E0,6.388836384E0,-1.184686470E1,2.940778971E0
6.059323665E0,5.955735683E0,-1.152622700E1,2.507678032E0
6.064078353E0,5.754738331E0,-1.132044411E1,1.940579176E0
6.068832988E0,5.716453075E0,-1.118644619E1,1.275374413E0
6.073587623E0,5.742774487E0,-1.105723381E1,3.756731451E-1
6.078342311E0,5.771488190E0,-1.098544884E1,-2.462214470E0
6.083096946E0,7.080362320E0,-1.127258778E1,-1.316530991E1
6.087851634E0,8.453842163E0,-1.120319557E1,-1.548634815E1
6.092606269E0,8.508877754E0,-1.046859932E1,-8.678768158E0
6.097360905E0,7.728816986E0,-9.714859962E0,-2.964707375E0
6.102115592E0,7.183253765E0,-9.066405296E0,-3.493520916E-1
6.106870228E0,7.063612461E0,-8.544769287E0,7.585247755E-1
6.111624863E0,7.183253765E0,-8.164310455E0,1.213161111E0
6.116379551E0,7.456035137E0,-7.939385414E0,1.000199914E0
6.121134186E0,7.853243828E0,-7.843672752E0,3.517449200E-1
6.125888821E0,8.195417404E0,-7.869993687E0,-3.421736360E-1
6.130643509E0,8.413164139E0,-8.114061356E0,-6.819544435E-1
6.135398144E0,8.322237015E0,-8.630910873E0,-4.594219327E-1
6.140152780E0,7.657032490E0,-9.461220741E0,1.196411345E-2
6.144907467E0,6.611369133E0,-1.049970531E1,4.905286431E-1
6.149662103E0,5.740381718E0,-1.168415260E1,6.675975323E-1
6.154416790E0,5.125426292E0,-1.293559933E1,5.407779217E-1
6.159171426E0,4.768895626E0,-1.422772312E1,1.842473447E-1
6.163926061E0,4.591826439E0,-1.547916985E1,-1.411765367E-1
6.168680748E0,4.398007870E0,-1.671865273E1,-3.541377485E-1
6.173435384E0,4.216153622E0,-1.805145454E1,-3.349951804E-1
6.178190019E0,3.991228104E0,-1.936989975E1,-3.086741269E-1
6.182944707E0,3.998406649E0,-2.051127625E1,-2.392822653E-1
6.187699342E0,3.560520172E0,-2.165265274E1,-2.823530734E-1
6.192453978E0,3.010170937E0,-2.250449753E1,-2.368894368E-1
6.197208665E0,2.600998163E0,-2.319841576E1,-6.460621208E-2
6.201963301E0,2.014756680E0,-2.367937279E1,3.134597540E-1
6.206717988E0,1.282552958E0,-2.389472771E1,7.393822074E-1
6.211472623E0,1.962114573E-1,-2.378226471E1,1.244267821E0
6.216227259E0,-1.158126116E0,-2.322952271E1,1.902294040E0
6.220981946E0,-2.730210543E0,-2.227239227E1,2.612962246E0
6.225736582E0,-4.228117466E0,-2.116690826E1,3.182454109E0
6.230491217E0,-5.534598827E0,-1.984846306E1,3.651447296E0
6.235245905E0,-6.324230194E0,-1.839362717E1,4.125226021E0
6.240000540E0,-6.637690067E0,-1.683829308E1,3.881158352E0
6.244755176E0,-7.503891945E0,-1.471107388E1,-7.267002583E0
6.249509863E0,-7.353144169E0,-1.230389404E1,-1.145444202E1
6.254264498E0,-5.850451469E0,-1.109791183E1,-7.599604607E0
6.259019134E0,-4.809573650E0,-1.082752228E1,-1.969292998E0
6.263773821E0,-4.610969067E0,-1.090648556E1,2.309073925E0
6.268528457E0,-4.615755081E0,-1.089212894E1,4.747360229E0
6.273283144E0,-4.340580463E0,-1.072463131E1,5.501099110E0
6.278037780E0,-3.751945972E0,-1.035135078E1,4.656432629E0
6.282792415E0,-2.864208698E0,-9.863214493E0,2.658426046E0
6.287547103E0,-1.957328916E0,-9.221938133E0,1.770688742E-1
6.292301738E0,-1.129412293E0,-8.384450912E0,-2.129612207E0
6.297056373E0,-2.991028428E-1,-7.487142086E0,-3.452843189E0
6.301811061E0,4.163511395E-1,-6.620940208E0,-3.620340586E0
6.306565696E0,9.116654396E-1,-5.857629776E0,-2.866601467E0
6.311320384E0,1.342373490E0,-5.273781300E0,-1.864008784E0
6.316075019E0,1.751546144E0,-4.847858906E0,-9.906286001E-1
6.320829655E0,2.093719721E0,-4.455435753E0,-3.421736360E-1
6.325584342E0,2.318645239E0,-4.173082829E0,2.297109663E-1
6.330338978E0,2.577069998E0,-3.926621914E0,5.096712112E-1
6.335093613E0,2.756531715E0,-3.668197155E0,6.771687865E-1
6.339848301E0,2.811566591E0,-3.500699520E0,7.082754970E-1
6.344602936E0,2.706282377E0,-3.318845034E0,6.867401004E-1
6.349357623E0,2.550748825E0,-3.227917671E0,6.747759581E-1
6.354112259E0,2.450250387E0,-3.081955671E0,8.350951076E-1
6.358866894E0,2.258824587E0,-2.955136061E0,9.738788009E-1
6.363621582E0,2.000399828E0,-2.873780012E0,9.332008362E-1
6.368376217E0,1.615155339E0,-2.888136864E0,9.116654396E-1
6.373130905E0,1.100698471E0,-2.988635540E0,8.303094506E-1
6.377885540E0,5.192425251E-1,-3.170490026E0,7.489534616E-1
6.382640176E0,-8.853443712E-2,-3.390629768E0,7.178468108E-1
6.387394863E0,-6.556333899E-1,-3.658625841E0,7.417750359E-1
6.392149498E0,-1.031306505E0,-4.039084435E0,8.542376757E-1
6.396904134E0,-1.363908887E0,-4.369294167E0,9.738788009E-1
6.401658821E0,-1.639083505E0,-4.625326157E0,1.071984529E0
6.406413457E0,-1.911865234E0,-4.840680122E0,1.093519926E0
6.411168092E0,-2.163111687E0,-4.989035130E0,1.060020447E0
6.415922780E0,-2.450250387E0,-5.087141037E0,9.762716293E-1
6.420677415E0,-2.749353170E0,-5.139782906E0,8.733802438E-1
6.425432103E0,-2.962314367E0,-5.190032482E0,6.843472719E-1
6.430186738E0,-3.199203968E0,-5.268995285E0,5.359922647E-1
6.434941373E0,-3.285345554E0,-5.333601475E0,3.014956415E-1
6.439696061E0,-3.330809116E0,-5.422136307E0,9.092725813E-2
6.444450696E0,-3.388236761E0,-5.467599869E0,-7.896314561E-2
6.449205384E0,-3.376272678E0,-5.498706341E0,-2.775674164E-1
6.453960019E0,-3.304488182E0,-5.572884083E0,-5.144568682E-1
6.458714655E0,-3.416950703E0,-5.637490273E0,-9.212366939E-1
6.463469342E0,-3.404986620E0,-5.702096462E0,-1.404586911E0
6.468223978E0,-3.512663603E0,-5.840879917E0,-2.151147604E0
6.472978665E0,-3.393022537E0,-6.156732559E0,-3.280559778E0
6.477733301E0,-2.483749866E0,-6.608976364E0,-4.737788677E0
6.482487936E0,-1.107876897E0,-7.099504948E0,-6.362515450E0
6.487242623E0,2.679961324E-1,-7.630711555E0,-7.724031448E0
6.491997259E0,1.634297848E0,-8.197810173E0,-8.338987350E0
6.496751946E0,3.098705292E0,-8.834300995E0,-8.149953842E0
6.501506582E0,4.725824833E0,-9.375079155E0,-6.965506554E0
6.506261217E0,6.441478729E0,-9.710074425E0,-4.627718925E0
6.511015905E0,7.951349735E0,-9.700503349E0,-5.072783828E-1
6.515770540E0,9.013762474E0,-9.348757744E0,5.570491314E0
6.520525228E0,9.724431038E0,-8.999405861E0,1.216511059E1
6.525279863E0,1.083948612E1,-9.255437851E0,1.636212158E1
6.530034498E0,1.258146191E1,-1.045424175E1,1.745803452E1
6.534789186E0,1.450768375E1,-1.226082325E1,1.620658684E1
6.539543821E0,1.648894119E1,-1.409372520E1,1.320359516E1
6.544298509E0,1.807777596E1,-1.583091450E1,8.181060791E0
6.549053144E0,1.835534286E1,-1.673061562E1,4.036691666E0
6.553807780E0,1.815913010E1,-1.721157265E1,1.430907965E0
6.558562467E0,1.868794441E1,-1.702732658E1,4.498506486E-1
6.563317103E0,1.995614052E1,-1.636690712E1,5.503492355E-1
6.568071790E0,2.048974037E1,-1.536909962E1,4.378865361E-1
6.572826426E0,2.009253120E1,-1.431625748E1,1.004985496E-1
6.577581061E0,1.929332924E1,-1.308395386E1,-2.656033039E-1
6.582335748E0,1.786242104E1,-1.177747345E1,-6.699903607E-1
6.587090384E0,1.622812271E1,-1.052602673E1,-9.499505758E-1
6.591845071E0,1.456989670E1,-9.406186104E0,-1.071984529E0
6.596599707E0,1.297149181E1,-8.243273735E0,-1.026520967E0
6.601354342E0,1.146879864E1,-7.159325123E0,-8.685946465E-1
6.606109030E0,9.999606133E0,-6.192625046E0,-6.843472719E-1
6.610863665E0,8.626125336E0,-5.412564754E0,-5.024927258E-1
6.615618353E0,7.515855789E0,-5.005784988E0,-3.589234054E-1
6.620372988E0,6.783652306E0,-5.407779217E0,-4.426721931E-1
6.625127676E0,6.501298904E0,-6.747759819E0,-1.052842021E0
6.629882311E0,6.228517532E0,-8.623732567E0,-2.672782898E0
6.634636946E0,5.012963295E0,-1.077966595E1,-5.678168297E0
6.639391634E0,4.256831646E0,-1.273220921E1,-7.671389580E0
6.644146269E0,4.972285271E0,-1.417508125E1,-6.541976929E0
6.648900905E0,5.965306759E0,-1.514178181E1,-3.943371773E0
6.653655592E0,6.618547440E0,-1.613241005E1,-7.130611539E-1
6.658410228E0,6.632904530E0,-1.740778542E1,2.005185366E0
6.663164915E0,5.936593056E0,-1.880519295E1,2.289931297E0
6.667919551E0,4.467400074E0,-2.010449600E1,-5.905486107E0
6.672674238E0,2.773281336E0,-1.978146553E1,-1.534277916E1
6.677428873E0,1.119840980E0,-1.776910019E1,-1.109312534E1
6.682183561E0,-3.852444589E-1,-1.535952854E1,-6.821937561E0
6.686938196E0,-1.100698471E0,-1.324427319E1,-2.234896421E0
6.691692832E0,-1.009771109E0,-1.182054424E1,1.507478237E0
6.696447519E0,-5.431707501E-1,-1.095194912E1,3.512663603E0
6.701202155E0,-1.914258115E-2,-1.036810017E1,3.835694790E0
6.705956842E0,1.651047617E-1,-9.798608780E0,3.153740168E0
6.710711478E0,3.134597540E-1,-9.391828537E0,2.179861546E0
6.715466113E0,1.028913707E-1,-8.937192917E0,1.158126116E0
6.720220801E0,-2.392822653E-1,-8.516056061E0,2.799602449E-1
6.724975436E0,-5.264210105E-1,-8.200202942E0,-2.440679073E-1
6.729730123E0,-6.963114142E-1,-8.023134232E0,-3.637090325E-1
6.734484759E0,-9.020941257E-1,-7.896314621E0,-4.091726840E-1
6.739239446E0,-1.222732425E0,-7.917850018E0,-2.727817893E-1
6.743994082E0,-1.476371527E0,-8.035098076E0,-2.416750938E-1
6.748748717E0,-1.512263894E0,-8.104490280E0,-1.603191197E-1
6.753503405E0,-1.450050473E0,-8.157132149E0,-7.896314561E-2
6.758258040E0,-1.301695466E0,-8.169096947E0,5.264209956E-2
6.763012728E0,-1.344766378E0,-8.135597229E0,1.459621787E-1
6.767767363E0,-1.459621787E0,-8.092526436E0,2.392822653E-1
6.772522051E0,-1.529013634E0,-7.989634991E0,3.972085714E-1
6.777276686E0,-1.636690736E0,-7.925028801E0,6.269195080E-1
6.782031321E0,-1.816152334E0,-7.865208149E0,9.714859724E-1
6.786786009E0,-1.981257200E0,-7.819744587E0,1.399801254E0
6.791540644E0,-2.120040894E0,-7.850851059E0,1.730010748E0
6.796295332E0,-2.160718918E0,-8.047062874E0,1.864008784E0
6.801049967E0,-2.167897224E0,-8.286344528E0,1.995614052E0
6.805804655E0,-2.100898266E0,-8.556734085E0,2.502892494E0
6.810559290E0,-1.701296926E0,-8.997013092E0,3.223132133E0
6.815313926E0,-1.100698471E0,-9.425328255E0,3.684946775E0
6.820068613E0,-4.067798555E-1,-9.786644936E0,3.912265062E0
6.824823248E0,2.823530734E-1,-1.007617569E1,4.134797573E0
6.829577936E0,9.212366939E-1,-1.027956581E1,4.376472473E0
6.834332571E0,1.459621787E0,-1.041117096E1,4.713860512E0
6.839087259E0,1.902294040E0,-1.045424175E1,5.158925533E0
6.843841894E0,2.244467735E0,-1.046381378E1,5.587240696E0
6.848596530E0,2.526820660E0,-1.045184898E1,5.989234924E0
6.853351217E0,2.641676188E0,-1.043509960E1,6.355337143E0
6.858105853E0,2.632104874E0,-1.035613632E1,6.654439926E0
6.862860540E0,2.397608280E0,-1.010010433E1,6.867401123E0
6.867615176E0,2.160718918E0,-9.796216011E0,6.795616150E0
6.872369863E0,1.909472466E0,-9.509077072E0,6.618547440E0
6.877124498E0,1.751546144E0,-9.265008926E0,6.510870457E0
6.881879186E0,1.706082582E0,-9.071190834E0,6.384050846E0
6.886633821E0,1.706082582E0,-8.932407379E0,6.135197163E0
6.891388457E0,1.720439434E0,-8.872586250E0,5.845665932E0
6.896143144E0,1.706082582E0,-8.834300995E0,5.501099110E0
6.900897780E0,1.730010748E0,-8.800801277E0,5.036891460E0
6.905652467E0,1.887937069E0,-8.807980537E0,4.548755646E0
6.910407103E0,1.942971945E0,-8.889336586E0,4.034298897E0
6.915161790E0,1.926222205E0,-9.013762474E0,3.469592810E0
6.919916426E0,1.933400750E0,-9.128618240E0,2.835494757E0
6.924671061E0,1.919043779E0,-9.293723106E0,2.268395901E0
6.929425748E0,1.880758643E0,-9.446864128E0,1.727617979E0
6.934180384E0,1.885544300E0,-9.580862045E0,1.337587833E0
6.938935071E0,1.885544300E0,-9.633503914E0,1.136590719E0
6.943689707E0,1.945364833E0,-9.650253296E0,9.786644578E-1
6.948444394E0,2.074577332E0,-9.719645500E0,8.877372146E-1
6.953199030E0,2.227717876E0,-9.722038269E0,8.207381964E-1
6.957953717E0,2.325823545E0,-9.643074989E0,7.968099117E-1
6.962708353E0,2.440679073E0,-9.516255379E0,8.350951076E-1
6.967463040E0,2.495713949E0,-9.377471924E0,9.284151793E-1
6.972217676E0,2.555534601E0,-9.214759827E0,1.026520967E0
6.976972311E0,2.600998163E0,-9.109476089E0,1.091127157E0
6.981726998E0,2.627319336E0,-8.975478172E0,1.148554921E0
6.986481634E0,2.641676188E0,-8.851051331E0,1.150947690E0
6.991236321E0,2.646461725E0,-8.748159409E0,1.182054400E0
6.995990957E0,2.684746981E0,-8.683553696E0,1.196411371E0
7.000745644E0,2.646461725E0,-8.630910873E0,1.182054400E0
7.005500280E0,2.591426849E0,-8.678768158E0,1.117448211E0
7.010254915E0,2.545963287E0,-8.784051895E0,1.021735311E0
7.015009603E0,2.538784742E0,-8.985049248E0,9.212366939E-1
7.019764238E0,2.493321180E0,-9.214759827E0,7.704889178E-1
7.024518926E0,2.557927370E0,-9.544969559E0,5.790630579E-1
7.029273561E0,2.620140791E0,-9.877572060E0,3.804588020E-1
7.034028248E0,2.739781857E0,-1.022692394E1,1.962114573E-1
7.038782884E0,2.998206854E0,-1.050688457E1,5.503492057E-2
7.043537571E0,3.201596737E0,-1.082034397E1,-2.392822690E-2
7.048292207E0,3.436093330E0,-1.112901783E1,-1.507478207E-1
7.053046894E0,3.716053486E0,-1.142333508E1,-5.431707501E-1
7.057801530E0,4.000799656E0,-1.166740322E1,-1.308874011E0
7.062556217E0,4.252045631E0,-1.182054424E1,-2.378465652E0
7.067310853E0,4.601397991E0,-1.193779182E1,-6.953542709E0
7.072065488E0,6.039484501E0,-1.207418346E1,-1.932443619E1
7.076820176E0,6.393621922E0,-1.168654537E1,-1.812802505E1
7.081574811E0,5.458028316E0,-1.092562866E1,-1.136351490E1
7.086329498E0,4.457828522E0,-1.021256733E1,-4.888536453E0
7.091084134E0,3.830909014E0,-9.690931320E0,-1.079162955E0
7.095838821E0,3.548556089E0,-9.238688469E0,9.092726111E-1
7.100593457E0,3.546163082E0,-8.836693764E0,1.899901152E0
7.105348144E0,3.670589924E0,-8.568697929E0,2.258824587E0
7.110102780E0,3.759124279E0,-8.374878883E0,2.244467735E0
7.114857467E0,3.747160196E0,-8.281558990E0,1.931007862E0
7.119612103E0,3.627519131E0,-8.209774017E0,1.466800332E0
7.124366790E0,3.531806231E0,-8.140382767E0,1.021735311E0
7.129121426E0,3.373879910E0,-8.051848412E0,6.508477330E-1
7.133876061E0,3.177668571E0,-7.913064480E0,4.378865361E-1
7.138630748E0,3.005385160E0,-7.776673794E0,3.852444589E-1
7.143385384E0,2.845066071E0,-7.604390144E0,4.618147612E-1
7.148140071E0,2.730210543E0,-7.465606689E0,6.747759581E-1
7.152894707E0,2.617748022E0,-7.341179848E0,9.690931439E-1
7.157649394E0,2.459821701E0,-7.286144733E0,1.265803218E0
7.162404030E0,2.294716835E0,-7.283751965E0,1.567298889E0
7.167158717E0,2.258824587E0,-7.353144169E0,2.076970100E0
7.171913353E0,2.311466694E0,-7.470392227E0,2.799602509E0
7.176668040E0,2.435893536E0,-7.757531166E0,3.567698479E0
7.181422676E0,2.610569477E0,-8.193024635E0,4.321437836E0
7.186177311E0,2.962314367E0,-8.752944946E0,4.823930264E0
7.190931998E0,3.443271875E0,-9.454042435E0,5.288137913E0
7.195686634E0,4.063013077E0,-1.018863869E1,5.647061348E0
7.200441321E0,4.826323509E0,-1.096869946E1,5.886343479E0
7.205195957E0,5.560919762E0,-1.165065384E1,5.960521221E0
7.209950644E0,6.269195557E0,-1.224885941E1,5.950950146E0
7.214705280E0,6.879364967E0,-1.274895859E1,5.867201328E0
7.219459967E0,7.341179848E0,-1.314616776E1,5.802595139E0
7.224214603E0,7.609176159E0,-1.335195065E1,5.690132141E0
7.228969290E0,7.532605648E0,-1.337587833E1,5.460421085E0
7.233723926E0,7.020541668E0,-1.317009544E1,5.044070244E0
7.238478613E0,6.355337143E0,-1.283270741E1,4.591826439E0
7.243233248E0,5.678168297E0,-1.237807178E1,4.091726780E0
7.247987936E0,5.163711071E0,-1.195214939E1,3.495913982E0
7.252742571E0,4.814359188E0,-1.154058361E1,2.892922640E0
7.257497207E0,4.622933388E0,-1.120080280E1,2.364108801E0
7.262251894E0,4.510470867E0,-1.092084217E1,1.933400750E0
7.267006530E0,4.508078098E0,-1.076291656E1,1.521835208E0
7.271761217E0,4.510470867E0,-1.068873882E1,9.906286001E-1
7.276515853E0,4.508078098E0,-1.071506023E1,6.699903309E-2
7.281270540E0,4.551148891E0,-1.078445148E1,-2.517249346E0
7.286025176E0,5.446064472E0,-1.148076344E1,-2.270070839E1
7.290779863E0,6.652047157E0,-1.187318611E1,-2.383490562E1
7.295534498E0,7.250252724E0,-1.156929779E1,-1.524706554E1
7.300289186E0,7.101897717E0,-1.111226845E1,-6.233303070E0
7.305043821E0,6.716653347E0,-1.055474091E1,-1.464407444E0
7.309798509E0,6.417550564E0,-9.992427826E0,4.307080805E-1
7.314553144E0,6.506084919E0,-9.427721024E0,7.322037220E-1
7.319307832E0,7.058826923E0,-8.937192917E0,-3.302095234E-1
7.324062467E0,7.800601959E0,-8.554341316E0,-2.184647083E0
7.328817155E0,8.312665939E0,-8.202595711E0,-3.323630571E0
7.333571790E0,8.348558426E0,-7.881958008E0,-2.830709219E0
7.338326478E0,7.970492363E0,-7.774280548E0,-1.698904037E0
7.343081113E0,7.446464062E0,-7.879564762E0,-5.742774606E-1
7.347835801E0,6.939185619E0,-8.157132149E0,1.172483116E-1
7.352590436E0,6.443871498E0,-8.709874153E0,3.493520916E-1
7.357345123E0,5.848058701E0,-9.463613510E0,3.349951804E-1
7.362099759E0,5.197210789E0,-1.054995537E1,1.124626622E-1
7.366854394E0,4.527220249E0,-1.177508068E1,-1.531406492E-1
7.371609082E0,3.969692707E0,-1.309591866E1,-3.828516304E-1
7.376363717E0,3.615555048E0,-1.442872047E1,-5.359922647E-1
7.381118405E0,3.256631613E0,-1.572084522E1,-4.857429862E-1
7.385873040E0,2.967100143E0,-1.688136292E1,-3.876372576E-1
7.390627728E0,2.608176708E0,-1.796052742E1,-3.421736360E-1
7.395382363E0,2.299502611E0,-1.889133453E1,-3.565305769E-1
7.400137051E0,2.079362869E0,-1.970250130E1,-2.584248483E-1
7.404891686E0,1.600798368E0,-2.051127625E1,-6.939185411E-2
7.409646373E0,1.134197950E0,-2.112144470E1,1.196411345E-2
7.414401009E0,5.383850932E-1,-2.146840477E1,2.153540403E-1
7.419155696E0,-2.392822644E-3,-2.145883369E1,7.034898400E-1
7.423910332E0,-6.987041831E-1,-2.110469627E1,1.471585870E0
7.428665019E0,-1.691725612E0,-2.033420753E1,2.170290232E0
7.433419655E0,-2.586641312E0,-1.923350906E1,2.701496840E0
7.438174342E0,-3.591626883E0,-1.795095634E1,2.517249346E0
7.442928978E0,-5.513063431E0,-1.618265915E1,-2.598605394E0
7.447683665E0,-6.716653347E0,-1.417029572E1,-5.618347645E0
7.452438301E0,-5.857629776E0,-1.275135231E1,-4.402793884E0
7.457192988E0,-4.639683247E0,-1.192104244E1,-1.713261008E0
7.461947623E0,-4.074976921E0,-1.159801102E1,9.738788009E-1
7.466702311E0,-3.888336897E0,-1.155733299E1,3.125026464E0
7.471456946E0,-3.558127165E0,-1.152383423E1,4.362115860E0
7.476211634E0,-2.868994236E0,-1.141615677E1,4.725824833E0
7.480966269E0,-2.041077614E0,-1.105005455E1,4.599005222E0
7.485720957E0,-1.179661512E0,-1.044467068E1,3.850051641E0
7.490475592E0,-4.618147612E-1,-9.724431038E0,2.584248543E0
7.495230228E0,1.890329868E-1,-8.970691681E0,6.628118753E-1
7.499984915E0,9.140582681E-1,-8.197810173E0,-1.201196909E0
7.504739603E0,1.780260086E0,-7.365108013E0,-2.526820660E0
7.509494238E0,2.512463808E0,-6.678368092E0,-2.663211584E0
7.514248873E0,2.976671457E0,-6.082555294E0,-2.029113531E0
7.519003561E0,3.404986620E0,-5.522634506E0,-1.241874933E0
7.523758196E0,3.739981890E0,-5.178068161E0,-4.713860750E-1
7.528512884E0,3.957728624E0,-4.893322468E0,7.657032460E-2
7.533267519E0,4.101297855E0,-4.675575256E0,3.900300860E-1
7.538022207E0,4.177868366E0,-4.572684288E0,5.766702294E-1
7.542776842E0,4.120440483E0,-4.474578381E0,6.101697683E-1
7.547531530E0,4.024727821E0,-4.398007870E0,6.317051649E-1
7.552286165E0,3.838087559E0,-4.362115860E0,4.642075896E-1
7.557040853E0,3.601198196E0,-4.407579422E0,3.972085714E-1
7.561795488E0,3.318845034E0,-4.484149456E0,3.924229145E-1
7.566550176E0,2.902493954E0,-4.596612453E0,5.359922647E-1
7.571304811E0,2.388036966E0,-4.694717884E0,6.508477330E-1
7.576059498E0,1.813759565E0,-4.869394302E0,7.034898400E-1
7.580814134E0,1.205982566E0,-5.034498692E0,7.369893789E-1
7.585568821E0,6.101697683E-1,-5.233103275E0,8.303094506E-1
7.590323457E0,1.411765367E-1,-5.398207664E0,9.930213690E-1
7.595078144E0,-2.009970993E-1,-5.584847927E0,1.205982566E0
7.599832780E0,-4.331009090E-1,-5.687739372E0,1.359123230E0
7.604587467E0,-6.173482537E-1,-5.752345562E0,1.505085468E0
7.609342103E0,-8.015955687E-1,-5.745167255E0,1.538584948E0
7.614096790E0,-1.138983607E0,-5.620740414E0,1.428515077E0
7.618851426E0,-1.356730461E0,-5.582455158E0,1.344766378E0
7.623606113E0,-1.505085468E0,-5.534598827E0,1.174875975E0
7.628360748E0,-1.584048629E0,-5.563312531E0,1.000199914E0
7.633115436E0,-1.533799291E0,-5.623133183E0,7.513462901E-1
7.637870071E0,-1.540977836E0,-5.714060307E0,4.139583111E-1
7.642624759E0,-1.588834286E0,-5.848058701E0,1.052841991E-1
7.647379394E0,-1.698904037E0,-5.950950146E0,-1.172483116E-1
7.652134082E0,-1.801795483E0,-6.075376511E0,-3.445664644E-1
7.656888717E0,-1.899901152E0,-6.180660725E0,-6.388836503E-1
7.661643405E0,-1.940579176E0,-6.269195557E0,-9.308080077E-1
7.666398040E0,-1.990828395E0,-6.302694798E0,-1.179661512E0
7.671152728E0,-1.952543259E0,-6.340980053E0,-1.380658627E0
7.675907363E0,-1.914258122E0,-6.309873104E0,-1.543370605E0
7.680662051E0,-1.919043779E0,-6.257231236E0,-1.722832322E0
7.685416686E0,-1.720439434E0,-6.240481377E0,-1.844866276E0
7.690171373E0,-1.323230863E0,-6.214160442E0,-1.959721804E0
7.694926009E0,-5.910272002E-1,-6.269195557E0,-2.115255117E0
7.699680644E0,2.799602449E-1,-6.338587284E0,-2.356930256E0
7.704435332E0,1.069591761E0,-6.446264267E0,-2.770888567E0
7.709190019E0,1.744367719E0,-6.608976364E0,-3.278167009E0
7.713944655E0,2.423929453E0,-6.886543751E0,-3.795016766E0
7.718699342E0,3.196810961E0,-7.245467186E0,-4.067798615E0
7.723453978E0,4.082155228E0,-7.704888821E0,-3.912265062E0
7.728208665E0,5.123033047E0,-8.260024071E0,-3.261417150E0
7.732963301E0,6.340980053E0,-8.855836868E0,-2.158325911E0
7.737717988E0,7.625925541E0,-9.430113792E0,-6.388836503E-1
7.742472623E0,8.839086533E0,-9.870393753E0,1.205982566E0
7.747227311E0,9.879964828E0,-1.018146038E1,3.414557934E0
7.751981946E0,1.064566803E1,-1.044706345E1,5.776273727E0
7.756736582E0,1.133480072E1,-1.066481018E1,7.999206066E0
7.761491269E0,1.189950657E1,-1.109073257E1,9.183652878E0
7.766245957E0,1.285424328E1,-1.163151073E1,9.425328255E0
7.771000592E0,1.393819237E1,-1.227278709E1,8.250452042E0
7.775755280E0,1.521835232E1,-1.273938751E1,5.678168297E0
7.780509915E0,1.627598000E1,-1.291645622E1,3.170490026E0
7.785264603E0,1.647219086E1,-1.272503090E1,1.191625714E0
7.790019238E0,1.657029724E1,-1.224885941E1,2.608176768E-1
7.794773873E0,1.682632828E1,-1.150947666E1,-6.460621208E-2
7.799528561E0,1.705603981E1,-1.075334454E1,1.316052526E-1
7.804283248E0,1.737189293E1,-1.006421185E1,4.977070987E-1
7.809037884E0,1.739342690E1,-9.406186104E0,9.547362328E-1
7.813792519E0,1.713500214E1,-8.831908226E0,1.318445325E0
7.818547207E0,1.670668793E1,-8.248059273E0,1.725225091E0
7.823301894E0,1.592662716E1,-7.724031448E0,1.935793519E0
7.828056530E0,1.516810226E1,-7.185646534E0,2.043470621E0
7.832811165E0,1.417508125E1,-6.568298340E0,1.954936147E0
7.837565853E0,1.296909904E1,-5.895915031E0,1.710868239E0
7.842320488E0,1.150708389E1,-5.297709465E0,1.411765337E0
7.847075176E0,9.753145218E0,-4.855037212E0,1.091127157E0
7.851829863E0,7.936992645E0,-4.608576298E0,9.954141974E-1
7.856584498E0,6.407979012E0,-4.587040901E0,1.160519004E0
7.861339134E0,5.290530682E0,-4.835894585E0,1.430907965E0
7.866093821E0,4.453042984E0,-5.352744102E0,1.600798368E0
7.870848457E0,4.012763500E0,-6.300302029E0,1.615155339E0
7.875603144E0,3.902693748E0,-7.750352383E0,1.483550072E0
7.880357832E0,4.177868366E0,-9.686145782E0,1.162911773E0
7.885112467E0,4.579862595E0,-1.179183006E1,3.613162339E-1
7.889867103E0,4.311866283E0,-1.384726429E1,-2.522035122E0
7.894621790E0,2.507678032E0,-1.599362659E1,-8.300702095E0
7.899376478E0,2.086541414E0,-1.756092453E1,-8.707481384E0
7.904131113E0,2.313859463E0,-1.881476402E1,-5.974878311E0
7.908885801E0,2.589034081E0,-1.991546249E1,-2.411965132E0
7.913640436E0,2.809173822E0,-2.093241310E1,9.906286001E-1
7.918395123E0,3.065205812E0,-2.169572258E1,3.682554007E0
7.923149759E0,2.988635540E0,-2.209053802E1,5.304887772E0
7.927904446E0,2.438286304E0,-2.136551285E1,6.266802311E0
7.932659082E0,1.804188251E0,-1.918804550E1,6.386443615E0
7.937413769E0,1.825723648E0,-1.661097527E1,5.812166214E0
7.942168405E0,1.952543259E0,-1.426840115E1,4.335794449E0
7.946923092E0,1.962114573E0,-1.203111267E1,8.685946465E-1
7.951677728E0,1.725225091E0,-9.841679573E0,-5.836094379E0
7.956432415E0,1.880758643E0,-7.348358154E0,-1.268913841E1
7.961187051E0,1.103091240E0,-5.678168297E0,-8.992227554E0
7.965941738E0,-9.810572863E-2,-5.056034088E0,-5.570491314E0
7.970696373E0,-2.895315289E-1,-5.453242779E0,-1.584048629E0
7.975451061E0,7.896314561E-2,-6.022734642E0,7.130611539E-1
7.980205696E0,7.345965505E-1,-6.431907177E0,9.978070259E-1
7.984960384E0,1.043270707E0,-6.484549522E0,6.532405615E-1
7.989715019E0,9.667003751E-1,-6.338587284E0,3.637090325E-1
7.994469707E0,7.704889178E-1,-6.061019897E0,3.278166950E-1
7.999224342E0,5.192425251E-1,-5.745167255E0,3.708875179E-1
8.003979030E0,1.100698411E-1,-5.522634506E0,3.158525825E-1
8.008733665E0,-2.153540403E-1,-5.479563713E0,2.392822653E-1
8.013488353E0,-7.034898400E-1,-5.606383324E0,1.914258152E-1
8.018242988E0,-1.179661512E0,-5.826523304E0,1.651047617E-1
8.022997676E0,-1.607976794E0,-6.106483459E0,1.555334777E-1
8.027752311E0,-1.899901152E0,-6.489335060E0,1.938186288E-1
8.032506998E0,-2.244467735E0,-6.999006271E0,3.565305769E-1
8.037261634E0,-2.507678032E0,-7.704888821E0,5.814558864E-1
8.042016321E0,-2.656033039E0,-8.441878319E0,7.441678643E-1
8.046770957E0,-2.670390129E0,-9.262616158E0,8.470591903E-1
8.051525644E0,-2.600998163E0,-1.005464077E1,7.872386575E-1
8.056280280E0,-2.423929453E0,-1.075095177E1,7.226324677E-1
8.061034967E0,-2.086541414E0,-1.137787151E1,7.728816867E-1
8.065789603E0,-1.612762451E0,-1.192343521E1,9.475577474E-1
8.070544290E0,-9.930213690E-1,-1.227039433E1,1.194018483E0
8.075298926E0,-2.249253243E-1,-1.246660614E1,1.397408366E0
8.080053613E0,6.604190469E-1,-1.238046455E1,1.505085468E0
8.084808248E0,1.430907965E0,-1.219382381E1,1.466800332E0
8.089562936E0,1.926222205E0,-1.195214939E1,1.428515077E0
8.094317571E0,2.239681959E0,-1.163629627E1,1.481157184E0
8.099072259E0,2.313859463E0,-1.122951698E1,1.557727575E0
8.103826894E0,2.206182480E0,-1.078923702E1,1.722832322E0
8.108581582E0,2.050648928E0,-1.031785107E1,1.978864312E0
8.113336217E0,1.988435626E0,-9.884750366E0,2.359323025E0
8.118090905E0,2.100898266E0,-9.564111710E0,2.801995277E0
8.122845540E0,2.287538528E0,-9.363115311E0,3.108276606E0
8.127600228E0,2.522035122E0,-9.214759827E0,3.230310678E0
8.132354863E0,2.751745939E0,-9.071190834E0,3.316452265E0
8.137109551E0,2.924029350E0,-8.937192917E0,3.421736479E0
8.141864186E0,3.007778168E0,-8.822337151E0,3.527020693E0
8.146618873E0,3.086741209E0,-8.697910309E0,3.543770313E0
8.151373509E0,3.103491068E0,-8.602197647E0,3.407379389E0
8.156128196E0,3.012563705E0,-8.571090698E0,3.165704250E0
8.160882832E0,2.880958557E0,-8.559126854E0,2.995813847E0
8.165637519E0,2.763710260E0,-8.590232849E0,2.823530674E0
8.170392155E0,2.622533560E0,-8.611768723E0,2.679961443E0
8.175146842E0,2.440679073E0,-8.693124771E0,2.512463808E0
8.179901478E0,2.321038008E0,-8.810373306E0,2.352144718E0
8.184656165E0,2.242074728E0,-8.956335068E0,2.297109842E0
8.189410801E0,2.160718918E0,-9.133403778E0,2.301895380E0
8.194165488E0,2.146361828E0,-9.336793900E0,2.316252232E0
8.198920123E0,2.208575249E0,-9.561718941E0,2.378465652E0
8.203674811E0,2.234896421E0,-9.743574142E0,2.517249346E0
8.208429446E0,2.222932339E0,-9.815358162E0,2.742174864E0
8.213184134E0,2.258824587E0,-9.798608780E0,2.938386202E0
8.217938821E0,2.273181438E0,-9.753145218E0,2.969492912E0
8.222693457E0,2.426322222E0,-9.700503349E0,2.591426849E0
8.227448144E0,2.768495798E0,-9.604789734E0,2.096112728E0
8.232202780E0,3.345165968E0,-9.408578873E0,1.940579176E0
8.236957467E0,4.031906128E0,-9.147761345E0,2.502892494E0
8.241712103E0,4.120440483E0,-8.891729355E0,2.701496840E0
8.246466790E0,4.106083870E0,-8.669196129E0,2.409572363E0
8.251221426E0,4.036691666E0,-8.451449394E0,2.170290232E0
8.255976061E0,4.029513359E0,-8.274380684E0,2.036292076E0
8.260730748E0,4.012763500E0,-8.066205025E0,1.895115495E0
8.265485436E0,3.952943087E0,-7.903493404E0,1.696511269E0
8.270240071E0,3.979264021E0,-7.740781307E0,1.545763373E0
8.274994759E0,4.046263218E0,-7.573283672E0,1.452443361E0
8.279749394E0,4.084548473E0,-7.527820110E0,1.414158225E0
8.284504082E0,4.118047714E0,-7.511070251E0,1.371087432E0
8.289258717E0,4.158725739E0,-7.587640762E0,1.359123230E0
8.294013405E0,4.168296814E0,-7.692924976E0,1.337587833E0
8.298768040E0,4.158725739E0,-7.889136314E0,1.316052437E0
8.303522728E0,4.204189301E0,-8.152346611E0,1.241874933E0
8.308277363E0,4.240081787E0,-8.434700012E0,1.167697430E0
8.313032051E0,4.285545349E0,-8.764909744E0,1.095912814E0
8.317786686E0,4.333401680E0,-9.109476089E0,9.810572863E-1
8.322541373E0,4.369294167E0,-9.420542717E0,8.925228715E-1
8.327296009E0,4.366901398E0,-9.712467194E0,8.135597110E-1
8.332050696E0,4.359723091E0,-9.958928108E0,7.489534616E-1
8.336805332E0,4.302295208E0,-1.016231823E1,6.532405615E-1
8.341560019E0,4.259224415E0,-1.032024384E1,5.551348329E-1
8.346314655E0,4.192225456E0,-1.044227791E1,4.761717021E-1
8.351069342E0,4.094119549E0,-1.044706345E1,4.163511395E-1
8.355823978E0,4.012763500E0,-1.041356373E1,3.517449200E-1
8.360578665E0,3.931407690E0,-1.031067276E1,2.895315289E-1
8.365333301E0,3.814159393E0,-1.014078236E1,1.938186288E-1
8.370087988E0,3.737588882E0,-9.961320877E0,1.100698411E-1
8.374842623E0,3.658625841E0,-9.796216011E0,1.435693540E-2
8.379597311E0,3.558127165E0,-9.657432556E0,-9.810572863E-2
8.384351946E0,3.412165165E0,-9.530612946E0,-3.493520916E-1
8.389106634E0,3.170490026E0,-9.501898766E0,-9.164510965E-1
8.393861321E0,3.002992392E0,-9.458827972E0,-1.576870084E0
8.398615957E0,2.866601467E0,-9.346364975E0,-2.220539331E0
8.403370644E0,2.634497643E0,-9.296115875E0,-2.967100143E0
8.408125280E0,2.163111687E0,-9.255437851E0,-4.149154663E0
8.412879967E0,1.598405480E0,-9.255437851E0,-5.472385406E0
8.417634603E0,1.170090318E0,-9.226723671E0,-6.063412666E0
8.422389290E0,1.395015597E0,-9.229117393E0,-5.288137913E0
8.427143926E0,2.007578135E0,-9.171689034E0,-3.591626883E0
8.431898613E0,2.428714991E0,-8.994620323E0,-2.220539331E0
8.436653248E0,2.591426849E0,-8.829515457E0,-1.373480201E0
8.441407936E0,2.684746981E0,-8.666803360E0,-8.398807645E-1
8.446162571E0,2.632104874E0,-8.451449394E0,-3.780659735E-1
8.450917259E0,2.476571321E0,-8.312665939E0,-8.374879509E-2
8.455671894E0,2.251646042E0,-8.193024635E0,1.076770201E-1
8.460426582E0,2.031506538E0,-8.193024635E0,2.416750938E-1
8.465181217E0,1.902294040E0,-8.233702660E0,4.019941986E-1
8.469935905E0,1.811366796E0,-8.394021988E0,5.814558864E-1
8.474690540E0,1.808973908E0,-8.654839516E0,8.566305041E-1
8.479445228E0,1.981257200E0,-8.999405861E0,1.210768223E0
8.484199863E0,2.230110645E0,-9.437292099E0,1.646261930E0
8.488954551E0,2.519642353E0,-9.934999466E0,2.299502611E0
8.493709186E0,2.718246460E0,-1.047099209E1,2.976671457E0
8.498463873E0,2.974278450E0,-1.099023438E1,3.601198196E0
8.503218509E0,3.235096216E0,-1.145922756E1,4.163511276E0
8.507973196E0,3.337987661E0,-1.184207916E1,4.340580463E0
8.512727832E0,3.546163082E0,-1.209093285E1,4.376472473E0
8.517482519E0,3.706482172E0,-1.230389404E1,4.505684853E0
8.522237155E0,3.759124279E0,-1.244028473E1,4.409972191E0
8.526991842E0,3.888336897E0,-1.248096275E1,4.130012035E0
8.531746478E0,3.979264021E0,-1.250489140E1,3.747160196E0
8.536501165E0,4.089334011E0,-1.249771309E1,3.304488182E0
8.541255801E0,4.228117466E0,-1.242592812E1,2.811566591E0
8.546010488E0,4.359723091E0,-1.228475189E1,2.356930256E0
8.550765176E0,4.555934429E0,-1.207179070E1,1.935793519E0
8.555519811E0,4.766502857E0,-1.176072311E1,1.631905079E0
8.560274498E0,5.058426857E0,-1.141137123E1,1.414158225E0
8.565029134E0,5.369493961E0,-1.110030460E1,1.227517962E0
8.569783821E0,5.747560024E0,-1.083230782E1,8.997012973E-1
8.574538457E0,6.297909260E0,-1.064566803E1,-7.178468257E-2
8.579293144E0,6.809973240E0,-1.043988514E1,-1.832902193E0
8.584047780E0,9.327222824E0,-1.067916775E1,-1.496710587E1
8.588802467E0,1.236610699E1,-1.088495064E1,-2.360519600E1
8.593557103E0,1.046859932E1,-1.009771156E1,-1.291406345E1
8.598311790E0,7.807780266E0,-9.458827972E0,-2.801995277E0
8.603066426E0,6.759724140E0,-9.018548965E0,1.363908887E0
8.607821113E0,6.635297298E0,-8.678768158E0,2.737389088E0
8.612575748E0,6.910471916E0,-8.508877754E0,3.347558975E0
8.617330436E0,7.463213921E0,-8.453842163E0,3.675375462E0
8.622085071E0,7.960920811E0,-8.496912956E0,3.651447296E0
8.626839759E0,8.523234367E0,-8.719446182E0,3.381058455E0
8.631594394E0,9.052047729E0,-9.178867340E0,2.804388046E0
8.636349082E0,9.611968994E0,-9.868000984E0,1.806581140E0
8.641103717E0,1.012403297E1,-1.088973618E1,1.746760458E-1
8.645858405E0,1.008814049E1,-1.225843048E1,-2.184647083E0
8.650613040E0,8.791230202E0,-1.376351547E1,-3.522234917E0
8.655367728E0,7.144968510E0,-1.515374565E1,-3.488735437E0
8.660122363E0,5.893522263E0,-1.633101463E1,-2.612962246E0
8.664877051E0,5.194818020E0,-1.721635818E1,-1.454836130E0
8.669631686E0,4.627718925E0,-1.801316833E1,-6.077769399E-1
8.674386373E0,4.228117466E0,-1.867119598E1,-2.871387079E-2
8.679141009E0,3.653840065E0,-1.919522285E1,3.732803464E-1
8.683895696E0,2.904886723E0,-1.951586151E1,8.709874153E-1
8.688650332E0,2.072184324E0,-1.958286095E1,1.146162033E0
8.693405019E0,1.091127157E0,-1.951825523E1,1.440479279E0
8.698159655E0,1.316052526E-1,-1.922872353E1,1.797009826E0
8.702914342E0,-8.590233326E-1,-1.873580170E1,2.163111687E0
8.707669030E0,-1.899901152E0,-1.809452438E1,2.335394859E0
8.712423665E0,-3.043670416E0,-1.733360672E1,1.974078655E0
8.717178301E0,-5.175675392E0,-1.639083481E1,-1.782652855E0
8.721932988E0,-7.130611420E0,-1.521595955E1,-5.484349728E0
8.726687676E0,-7.611568928E0,-1.405543995E1,-6.628118515E0
8.731442311E0,-6.632904530E0,-1.319641685E1,-4.498506546E0
8.736196998E0,-5.182853699E0,-1.268913841E1,-1.385444283E0
8.740951634E0,-4.024727821E0,-1.251206970E1,1.131805062E0
8.745706321E0,-3.407379389E0,-1.243071365E1,2.799602509E0
8.750460957E0,-2.895315409E0,-1.235892868E1,3.701696634E0
8.755215644E0,-2.328216314E0,-1.220818138E1,4.058227062E0
8.759970280E0,-1.744367719E0,-1.185643578E1,3.917050600E0
8.764724967E0,-1.251446247E0,-1.134915733E1,3.292523861E0
8.769479603E0,-8.111668825E-1,-1.064566803E1,2.311466694E0
8.774234290E0,-2.751746178E-1,-9.942177773E0,9.882357717E-1
8.778988926E0,2.536391914E-1,-9.193224907E0,-7.202396393E-1
8.783743613E0,7.513462901E-1,-8.413164139E0,-2.206182480E0
8.788498248E0,1.074377418E0,-7.594819069E0,-2.548356056E0
8.793252936E0,1.344766378E0,-6.970292568E0,-1.957328916E0
8.798007571E0,1.598405480E0,-6.474977970E0,-1.134197950E0
8.802762259E0,1.938186288E0,-6.008377552E0,-4.546363056E-1
8.807516894E0,2.222932339E0,-5.654240131E0,-1.196411345E-2
8.812271582E0,2.421536446E0,-5.333601475E0,1.411765367E-1
8.817026217E0,2.579462767E0,-5.149354458E0,2.536391914E-1
8.821780905E0,2.620140791E0,-4.986642361E0,2.823530734E-1
8.826535540E0,2.648854733E0,-4.816751957E0,2.775674164E-1
8.831290228E0,2.584248543E0,-4.709074974E0,3.445664644E-1
8.836044863E0,2.423929453E0,-4.594219685E0,4.737788737E-1
8.840799551E0,2.215753794E0,-4.508078098E0,6.364908218E-1
8.845554238E0,1.959721804E0,-4.529613495E0,8.590233326E-1
8.850308873E0,1.665404558E0,-4.515256405E0,1.016949654E0
8.855063561E0,1.277767301E0,-4.577469826E0,1.107876897E0
8.859818196E0,8.494520187E-1,-4.656432629E0,1.186840057E0
8.864572884E0,4.235295951E-1,-4.754538536E0,1.294517040E0
8.869327519E0,-4.785645287E-3,-4.828716278E0,1.287338614E0
8.874082207E0,-3.158525825E-1,-4.950749874E0,1.203589797E0
8.878836842E0,-5.694918036E-1,-5.060820103E0,1.095912814E0
8.883591530E0,-7.920243144E-1,-5.132604599E0,8.925228715E-1
8.888346165E0,-8.997012973E-1,-5.285745144E0,6.436693072E-1
8.893100853E0,-1.026520967E0,-5.391029358E0,4.235295951E-1
8.897855488E0,-1.124626637E0,-5.513063431E0,2.368894368E-1
8.902610176E0,-1.275374413E0,-5.630311489E0,7.417750359E-2
8.907364811E0,-1.509871125E0,-5.745167255E0,-8.374879509E-2
8.912119498E0,-1.655833244E0,-5.869594097E0,-2.273181528E-1
8.916874134E0,-1.667797327E0,-6.025127411E0,-3.661018610E-1
8.921628821E0,-1.641476393E0,-6.185446739E0,-5.647061467E-1
8.926383457E0,-1.576870084E0,-6.364908218E0,-6.939185858E-1
8.931138144E0,-1.593619823E0,-6.506084919E0,-7.633104324E-1
8.935892780E0,-1.696511269E0,-6.582654953E0,-8.111668825E-1
8.940647467E0,-1.820937991E0,-6.611369133E0,-8.805587292E-1
8.945402103E0,-1.842473388E0,-6.661618233E0,-1.009771109E0
8.950156790E0,-1.849651933E0,-6.685546398E0,-1.091127157E0
8.954911426E0,-1.775474429E0,-6.675975323E0,-1.182054400E0
8.959666113E0,-1.612762451E0,-6.678368092E0,-1.208375454E0
8.964420748E0,-1.414158225E0,-6.654439926E0,-1.239482164E0
8.969175436E0,-1.079162955E0,-6.678368092E0,-1.313659668E0
8.973930123E0,-3.852444589E-1,-6.757331371E0,-1.371087432E0
8.978684759E0,4.474578202E-1,-6.833901405E0,-1.433300734E0
8.983439394E0,1.189232826E0,-6.972685337E0,-1.557727575E0
8.988194082E0,1.808973908E0,-7.130611420E0,-1.708475351E0
8.992948717E0,2.359323025E0,-7.391428947E0,-1.832902193E0
8.997703405E0,2.971885681E0,-7.747959614E0,-1.801795483E0
9.002458092E0,3.680161238E0,-8.171489716E0,-1.588834286E0
9.007212728E0,4.500899315E0,-8.693124771E0,-1.150947690E0
9.011967415E0,5.438885689E0,-9.188439369E0,-3.349951804E-1
9.016722051E0,6.405586243E0,-9.619147301E0,7.992027402E-1
9.021476738E0,7.379465103E0,-9.944570541E0,2.335394859E0
9.026231373E0,8.291130066E0,-1.016710377E1,4.108476639E0
9.030986061E0,9.068798065E0,-1.035613632E1,5.919843197E0
9.035740696E0,9.786644936E0,-1.066241741E1,7.338787079E0
9.040495384E0,1.059063339E1,-1.110509014E1,8.154739380E0
9.045250019E0,1.149512005E1,-1.169372463E1,8.039883614E0
9.050004707E0,1.257906818E1,-1.231107235E1,7.109076023E0
9.054759342E0,1.369412422E1,-1.277528000E1,5.577669621E0
9.059514030E0,1.474217987E1,-1.305284786E1,4.151547432E0
9.064268665E0,1.545524120E1,-1.312702465E1,3.053241730E0
9.069023353E0,1.616112328E1,-1.287338543E1,2.213361025E0
9.073777988E0,1.710868263E1,-1.245464230E1,1.713261008E0
9.078532676E0,1.807777596E1,-1.192822075E1,1.672582984E0
9.083287311E0,1.873580170E1,-1.130369377E1,1.737189293E0
9.088041998E0,1.908515358E1,-1.072702408E1,1.911865234E0
9.092796634E0,1.906840324E1,-1.014078236E1,2.009970903E0
9.097551321E0,1.876690865E1,-9.607182503E0,2.100898266E0
9.102305957E0,1.835055733E1,-9.095118523E0,2.177468538E0
9.107060644E0,1.774756622E1,-8.595019341E0,2.299502611E0
9.111815280E0,1.710150337E1,-8.030312538E0,2.474178553E0
9.116569967E0,1.623769379E1,-7.377072334E0,2.677568436E0
9.121324603E0,1.512981796E1,-6.726224422E0,2.907279491E0
9.126079290E0,1.359601784E1,-6.082555294E0,3.101098061E0
9.130833926E0,1.159322548E1,-5.520241737E0,3.141776085E0
9.135588613E0,9.463613510E0,-5.166104317E0,3.103491068E0
9.140343301E0,7.570890903E0,-5.032105923E0,3.055634499E0
9.145097936E0,5.986842155E0,-5.044070244E0,2.955136061E0
9.149852571E0,4.828716278E0,-5.316852093E0,2.825923443E0
9.154607259E0,3.964907169E0,-5.800201893E0,2.629712105E0
9.159361894E0,3.280559778E0,-6.510870457E0,2.328216314E0
9.164116582E0,2.801995277E0,-7.546962738E0,1.983649969E0
9.168871217E0,2.785245657E0,-8.944371223E0,1.509871125E0
9.173625905E0,3.034099102E0,-1.052602673E1,7.992027402E-1
9.178380540E0,2.909672260E0,-1.207657623E1,-5.072783828E-1
9.183135228E0,1.411765337E0,-1.384965706E1,-6.063412666E0
9.187889915E0,-9.020941257E-1,-1.577587986E1,-1.186840057E1
9.192644551E0,-1.040877819E0,-1.725942993E1,-1.068634605E1
9.197399238E0,-9.308080077E-1,-1.844866180E1,-7.226324558E0
9.202153873E0,-9.906286001E-1,-1.951825523E1,-3.649054527E0
9.206908561E0,-1.055234790E0,-2.032942200E1,2.273181528E-1
9.211663196E0,-1.172483087E0,-2.070270157E1,3.838087559E0
9.216417884E0,-1.619940877E0,-2.073859406E1,5.565705299E0
9.221172519E0,-2.222932339E0,-2.005663872E1,6.051448345E0
9.225927207E0,-2.586641312E0,-1.830509377E1,6.068198204E0
9.230681842E0,-2.091326952E0,-1.602712631E1,5.651846886E0
9.235436530E0,-1.363908887E0,-1.379462242E1,4.926821709E0
9.240191165E0,-8.805587292E-1,-1.182293701E1,4.060619831E0
9.244945853E0,-6.125625968E-1,-1.008335495E1,3.117847919E0
9.249700488E0,-4.307080805E-1,-8.439485550E0,1.653440475E0
9.254455176E0,-1.339980662E-1,-6.750152588E0,-2.050648928E0
9.259209811E0,-6.221338734E-2,-5.438885689E0,-4.331008911E0
9.263964498E0,-1.674975902E-1,-5.058426857E0,-4.134797573E0
9.268719134E0,6.221338734E-2,-5.331208706E0,-2.916850805E0
9.273473821E0,5.766702294E-1,-5.761917114E0,-1.667797327E0
9.278228457E0,1.040877819E0,-5.936593056E0,-9.379864931E-1
9.282983144E0,1.483550072E0,-5.970092297E0,-5.264210105E-1
9.287737780E0,1.493121386E0,-5.924628735E0,-3.756731451E-1
9.292492467E0,1.275374413E0,-5.831308842E0,-2.656033039E-1
9.297247103E0,1.186840057E0,-5.840879917E0,9.571290575E-3
9.302001790E0,1.009771109E0,-5.836094379E0,1.172483116E-1
9.306756426E0,7.776673436E-1,-5.840879917E0,4.067798331E-2
9.311511113E0,4.666004181E-1,-5.843272686E0,-5.503492057E-2
9.316265748E0,1.100698411E-1,-5.871986866E0,-9.810572863E-2
9.321020436E0,-2.129612118E-1,-5.838487148E0,-9.571290761E-2
9.325775071E0,-5.886343718E-1,-5.819344521E0,-3.828516230E-2
9.330529759E0,-1.033699393E0,-5.864808083E0,-4.785645287E-3
9.335284394E0,-1.442872047E0,-5.986842155E0,7.178468257E-2
9.340039082E0,-1.677368641E0,-6.269195557E0,1.244267747E-1
9.344793717E0,-1.797009826E0,-6.692724705E0,1.698904037E-1
9.349548405E0,-1.753939033E0,-7.345965385E0,2.799602449E-1
9.354303040E0,-1.462014675E0,-8.128418922E0,4.689932466E-1
9.359057728E0,-1.033699393E0,-8.989834785E0,6.364908218E-1
9.363812363E0,-5.048855543E-1,-9.915857315E0,8.039883971E-1
9.368567051E0,6.460621208E-2,-1.079162979E1,1.050449133E0
9.373321686E0,6.364908218E-1,-1.154776192E1,1.344766378E0
9.378076373E0,1.146162033E0,-1.225603771E1,1.706082582E0
9.382831009E0,1.713261008E0,-1.284467220E1,2.132004976E0
9.387585696E0,2.263610125E0,-1.336152172E1,2.620140791E0
9.392340332E0,2.823530674E0,-1.374676609E1,3.038884640E0
9.397095019E0,3.373879910E0,-1.402911949E1,3.436093330E0
9.401849707E0,4.005585194E0,-1.423729515E1,3.917050600E0
9.406604342E0,4.532006264E0,-1.414158154E1,4.448257446E0
9.411359030E0,5.017749310E0,-1.388076401E1,4.929214478E0
9.416113665E0,5.388636589E0,-1.334237862E1,5.106283665E0
9.420868353E0,5.407779217E0,-1.255514050E1,4.816751957E0
9.425622988E0,5.132604599E0,-1.167936707E1,4.386044025E0
9.430377676E0,4.809573650E0,-1.080598736E1,3.799802303E0
9.435132311E0,4.438685894E0,-9.987641335E0,3.201596737E0
9.439886998E0,4.005585194E0,-9.298508644E0,2.677568436E0
9.444641634E0,3.672982693E0,-8.664410591E0,2.251646042E0
9.449396321E0,3.404986620E0,-8.157132149E0,1.868794441E0
9.454150957E0,3.156133175E0,-7.709674358E0,1.552941918E0
9.458905644E0,2.976671457E0,-7.336394310E0,1.232303619E0
9.463660280E0,2.837887764E0,-7.049255371E0,9.571290612E-1
9.468414967E0,2.739781857E0,-6.805187702E0,7.154539824E-1
9.473169603E0,2.651247501E0,-6.675975323E0,5.192425251E-1
9.477924290E0,2.541177750E0,-6.546762943E0,3.924229145E-1
9.482678926E0,2.407179594E0,-6.489335060E0,3.278166950E-1
9.487433613E0,2.266003132E0,-6.479763508E0,3.086741269E-1
9.492188248E0,2.215753794E0,-6.534798622E0,3.948157430E-1
9.496942936E0,2.208575249E0,-6.685546398E0,5.192425251E-1
9.501697571E0,2.215753794E0,-6.922435760E0,6.652047038E-1
9.506452259E0,2.225325108E0,-7.216753006E0,5.718846321E-1
9.511206894E0,2.287538528E0,-7.453642368E0,2.751746178E-1
9.515961582E0,2.402393818E0,-7.685746193E0,3.589234129E-2
9.520716217E0,2.517249346E0,-7.860422611E0,2.392822644E-3
9.525470905E0,2.746960402E0,-8.018348694E0,1.124626622E-1
9.530225540E0,2.974278450E0,-8.224131584E0,1.722832322E-1
9.534980228E0,3.148954630E0,-8.475378036E0,2.679961324E-1
9.539734863E0,3.218346357E0,-8.721838951E0,5.383850932E-1
9.544489551E0,3.297309637E0,-8.953942299E0,8.901300430E-1
9.549244186E0,3.404986620E0,-9.126225471E0,1.256231904E0
9.553998873E0,3.512663603E0,-9.279366493E0,1.576870084E0
9.558753509E0,3.598805189E0,-9.408578873E0,1.751546144E0
9.563508196E0,3.723232031E0,-9.556933403E0,1.746760488E0
9.568262832E0,3.842873096E0,-9.633503914E0,1.718046665E0
9.573017519E0,3.948157310E0,-9.714859962E0,1.686939955E0
9.577772155E0,3.972085476E0,-9.745966911E0,1.639083505E0
9.582526842E0,3.955335855E0,-9.757930756E0,1.627119422E0
9.587281478E0,3.790230989E0,-9.745966911E0,1.615155339E0
9.592036165E0,3.668197155E0,-9.717252731E0,1.615155339E0
9.596790801E0,3.541377544E0,-9.664610863E0,1.605584025E0
9.601545488E0,3.390629768E0,-9.626325607E0,1.612762451E0
9.606300123E0,3.266202927E0,-9.585647583E0,1.636690736E0
9.611054811E0,3.189632654E0,-9.504291534E0,1.612762451E0
9.615809446E0,3.122633457E0,-9.475577354E0,1.600798368E0
9.620564134E0,3.069991350E0,-9.413364410E0,1.576870084E0
9.625318769E0,3.029313564E0,-9.351150513E0,1.536192179E0
9.630073457E0,2.957528830E0,-9.296115875E0,1.476371527E0
9.634828092E0,2.912065268E0,-9.241081238E0,1.397408366E0
9.639582780E0,2.830709219E0,-9.174081802E0,1.308874011E0
9.644337415E0,2.715853691E0,-9.083154678E0,1.237089276E0
9.649092103E0,2.586641312E0,-8.934800148E0,1.172483087E0
9.653846738E0,2.426322222E0,-8.824729919E0,1.103091240E0
9.658601426E0,2.273181438E0,-8.717052460E0,1.060020447E0
9.663356061E0,2.124826431E0,-8.635697365E0,9.643075466E-1
9.668110748E0,1.974078655E0,-8.549555779E0,8.733802438E-1
9.672865384E0,1.816152334E0,-8.537590981E0,7.609176040E-1
9.677620071E0,1.651047587E0,-8.530412674E0,6.125625968E-1
9.682374707E0,1.605584025E0,-8.606983185E0,4.378865361E-1
9.687129394E0,1.552941918E0,-8.714659691E0,2.775674164E-1
9.691884030E0,1.526620865E0,-8.788837433E0,8.374879509E-2
9.696638717E0,1.572084427E0,-8.898907661E0,-1.196411327E-1
9.701393353E0,1.567298889E0,-9.013762474E0,-2.464607358E-1
9.706148040E0,1.615155339E0,-9.128618240E0,-3.852444589E-1
9.710902676E0,1.658226132E0,-9.248259544E0,-5.264210105E-1
9.715657363E0,1.698904037E0,-9.343972206E0,-6.364908218E-1
9.720411998E0,1.758724689E0,-9.470791817E0,-6.891329288E-1
9.725166686E0,1.751546144E0,-9.556933403E0,-8.303094506E-1
9.729921321E0,1.658226132E0,-9.712467194E0,-9.164510965E-1
9.734676009E0,1.459621787E0,-9.846465111E0,-9.308080077E-1
9.739430644E0,1.203589797E0,-9.932606697E0,-9.068797827E-1
9.744185332E0,9.236295223E-1,-1.002114105E1,-8.494520187E-1
9.748939967E0,6.436693072E-1,-1.016710377E1,-6.939185858E-1
9.753694655E0,5.288137794E-1,-1.029153061E1,-4.522434771E-1
9.758449290E0,4.905286431E-1,-1.043988514E1,-1.148554832E-1
9.763203978E0,5.383850932E-1,-1.056431198E1,2.057827413E-1
9.767958613E0,6.915257573E-1,-1.076530933E1,5.431707501E-1
9.772713301E0,9.762716293E-1,-1.096869946E1,8.949156404E-1
9.777467936E0,1.306481123E0,-1.115773201E1,1.241874933E0
9.782222623E0,1.588834286E0,-1.133719349E1,1.572084427E0
9.786977259E0,1.871187329E0,-1.145444202E1,1.909472466E0
9.791731946E0,2.098505497E0,-1.149512005E1,2.335394859E0
9.796486582E0,2.251646042E0,-1.146401310E1,2.732603550E0
9.801241269E0,2.359323025E0,-1.137547874E1,3.053241730E0
9.805995905E0,2.478964329E0,-1.121515942E1,3.361915827E0
9.810750592E0,2.675175667E0,-1.107159042E1,3.603590965E0
9.815505228E0,2.895315409E0,-1.099501991E1,3.773481369E0
9.820259915E0,3.160918713E0,-1.102612686E1,3.921836376E0
9.825014551E0,3.457628727E0,-1.111466122E1,3.943371773E0
9.829769238E0,3.878765583E0,-1.133719349E1,3.876372576E0
9.834523873E0,4.362115860E0,-1.160519028E1,3.713660717E0
9.839278561E0,4.850251675E0,-1.182293701E1,3.507878065E0
9.844033196E0,5.357530117E0,-1.202393341E1,3.249453068E0
9.848787884E0,5.869594097E0,-1.216271782E1,2.892922640E0
9.853542519E0,6.412764549E0,-1.224646664E1,2.517249346E0
