Time (s),Acceleration x (m/s^2),Acceleration y (m/s^2),Acceleration z (m/s^2)
6.004040641,-0.7644883340430219,-2.405903791182463,-0.26050691685015015
6.009040607,-0.2504029440752918,-2.55944954067134,0.07171877271706122
6.014040573,0.2626858003061062,-2.7117238422650756,0.40012935548819206
6.019040573,0.770298774391551,-2.860269036524092,0.7213976817768001
6.024040573,1.2680444529182002,-3.0025353935791688,1.0322956148187483
6.029040606,1.7516706553703028,-3.135910702918946,1.329733902208167
6.034040639,2.2171139362131647,-3.2577515123794845,1.6108000895329615
6.039040672,2.6605459071873203,-3.3654156438834817,1.8727939548780466
6.044040005,3.0784158352591846,-3.4562955926355934,2.113259967892778
6.049040005,3.4674889288105724,-3.527852399733007,2.330016306648335
6.054039971,3.8248798044207653,-3.5776495760222806,2.5211800012364236
6.059039971,4.14808071503684,-3.603386648407775,2.6851878181956406
6.064039971,4.434984214958747,-3.602931899627446,2.8208125573777627
6.069040004,4.683900035153856,-3.5743538793295286,2.927174503863667
6.074040004,4.893566041465787,-3.5159512780807147,3.0037478611412927
6.079040004,5.063153246543897,-3.4262807760745613,3.0503620856736706
6.08403997,5.192264942894244,-3.3041825036470924,3.067198143231623
6.089039936,5.280930118916538,-3.1488027797481455,3.0547798080189255
6.094039902,5.3295914114746274,-2.9596138255690514,3.0139602200118563
6.099039902,5.339087935816447,-2.736430181935643,2.945903999180008
6.104039935,5.310633413804856,-2.479421589627309,2.852065286163203
6.109039968,5.245790091368139,-2.189122121167615,2.7341621393833853
6.114040001,5.146438993236333,-1.8664353816649417,2.594147770668809
6.119040001,5.014747105677221,-1.5126356267050913,2.4341791462326166
6.124040001,4.8531321054466074,-1.129364679212806,2.2565835173232465
6.129039967,4.664225266174413,-0.7186245662952522,2.0638234740612087
6.134039933,4.450833173423332,-0.28276584197464144,1.8584611341234711
6.139039933,4.215898867791736,0.17552838814556773,1.6431220815575311
6.144039966,3.9624630115898603,0.6532626700162055,1.4204596583827724
6.149039999,3.6936256382597104,1.1471535046943517,1.193120183399617
6.154039999,3.4125089956215633,1.653657566107388,0.9637096304077774
6.159039999,3.1222219372097944,2.16900358779762,0.7347622437769438
6.164039999,2.825826254601645,2.689227616003663,0.5087115056663714
6.169039999,2.5263052813332183,3.210211272633309,0.2878637995975753
6.174039999,2.2265350378368263,3.727722623278467,0.07437504315765049
6.179039965,1.9292581277018996,4.237459203354651,-0.12976950870280024
6.184039965,1.637060538813168,4.735092719533308,-0.32277215710722357
6.189039965,1.3523514490950825,5.216314913190747,-0.5030362818127762
6.194040665,1.0773460867734834,5.676884047327685,-0.6691764855843209
6.199040665,0.814051650519568,6.112671458697142,-0.8200254078745746
6.204040665,0.5642562563221667,6.519707603487103,-0.9546373043802858
6.209040631,0.32952084545520854,6.894227018706632,-1.072288532570704
6.214040631,0.11117396106894398,7.232711623262779,-1.1724751213428193
6.219040631,-0.08969072076862482,7.531931793284452,-1.2549076353984026
6.224040664,-0.27221423695995883,7.788984665877056,-1.3195035716633523
6.229040664,-0.4357697051531694,8.00132915398803,-1.3663775462557317
6.234040664,-0.5799573692859699,8.166817191772802,-1.395829546505001
6.239040664,-0.7045974879234445,8.283720773871027,-1.4083315336592144
6.244040664,-0.8097212384264079,8.35075440241685,-1.4045126883976264
6.249040664,-0.8955598172633131,8.367092611593536,-1.3851435931894938
6.25404063,-0.962531923462188,8.332382300339608,-1.3511196429903876
6.259040596,-1.0112298182379416,8.246749668650972,-1.3034439689478439
6.264040596,-1.0424041590790498,8.110801621052099,-1.2432101490547782
6.269040629,-1.0569478108620425,7.925621571547594,-1.171584965483443
6.274040662,-1.0558788397188699,7.692759656996769,-1.0897914511305984
6.279040662,-1.040322897348725,7.4142174394169285,-0.9990924482493738
6.284040662,-1.0114952043499745,7.09242725091598,-0.9007748805968276
6.289040628,-0.970682341087668,6.730226406294177,-0.7961349180144223
6.294040594,-0.9192240534536962,6.330826576476868,-0.6864641893743157
6.29904056,-0.8584952779931005,5.897778679907986,-0.573037176582466
6.30404056,-0.7898885853881112,5.43493370847198,-0.45709989850836
6.309040593,-0.7147972326177969,4.946399959523897,-0.33985996846764255
6.314040626,-0.6345990023973113,4.436497196499008,-0.22247808113564854
6.319040659,-0.5506409947180388,3.909708307485792,-0.10606095379797464
6.324040659,-0.4642255207717464,3.3706290737200173,0.008344287050194394
6.329040659,-0.3765972350242703,2.823916697087691,0.11975431810330812
6.334040625,-0.2889316262815646,2.2742377654295653,0.22725250983530104
6.339040625,-0.20232497190686524,1.7262163539428919,0.32999060721510504
6.344040625,-0.11778583982254615,1.1843829671493142,0.42718934225237015
6.349040658,-0.03622820091499112,0.6531250161526875,0.5181381459933629
6.354040658,0.041533808268075144,0.13663949931052013,0.6021941474763464
6.359040658,0.11478945416795948,-0.3611114876274354,0.6787806570171506
6.364040624,0.1829333076230545,-0.8364418400321318,0.7473853265706379
6.36904059,0.24546549858168343,-1.2859786217246096,0.8075581590172198
6.374040556,0.3019903649376227,-1.7066948873467098,0.8589095046952212
6.379040556,0.3522135588118219,-2.0959377734748834,0.9011081459700487
6.384040556,0.3959376983199629,-2.4514515500783816,0.9338795387200515
6.389040589,0.43305667898572103,-2.7713953924946235,0.957004259230653
6.394040622,0.4635487853515278,-3.0543557039787346,0.970316696062853
6.399040655,0.48746876875069994,-3.299352890341849,0.973704024118781
6.404040655,0.5049390803342274,-3.505842560866674,0.9671054958685754
6.409040655,0.516140468008761,-3.6737112028553383,0.950512077452632
6.414040621,0.521302160773608,-3.803266450075439,0.9239664430264715
6.419040621,0.5206918731393017,-3.895222137356041,0.88756332026745
6.424040621,0.5146058653418609,-3.950678403958391,0.8414501566029008
6.429040654,0.5033592917434118,-3.971097176334521,0.7858280532681438
6.434040654,0.4872770601200698,-3.9582734256176533,0.7209528956909764
6.439040654,0.46668540856309626,-3.9143026555861526,0.6471365951863836
6.444040654,0.4419043846686058,-3.8415451315032705,0.5647483482578127
6.449040654,0.4132413839779831,-3.742587407451462,0.47421581495479653
6.454040654,0.38098587191157857,-3.6202017477846598,0.37602611605962416
6.45904062,0.3454053766145729,-3.4773040656540513,0.27072655052636224
6.46404062,0.30674280035621926,-3.316911017388889,0.15892494013402625
6.46904062,0.2652150557810105,-3.142096895719026,0.04128951776005799
6.474040653,0.22101299199000723,-2.9559509578734575,-0.08145171207780713
6.479040653,0.17430253583605476,-2.7615358072670584,-0.20851219871837054
6.484040653,0.12522693763715553,-2.561847420617693,-0.33904870339498894
6.489040619,0.07390997923097326,-2.3597773765248067,-0.4721638270300148
6.494040585,0.020459976958033244,-2.15807779713494,-0.6069092384157725
6.499040551,-0.03502560671598758,-1.9593294618075516,-0.7422896287716092
6.504040551,-0.0924551414805793,-1.7659134911733232,-0.8772674146854724
6.509040551,-0.15173760139196832,-1.5799869324874387,-1.0107682068702462
6.514040584,-0.21277733354289458,-1.4034625039052235,-1.1416870562620636
6.519040617,-0.27546901709874605,-1.2379926777501677,-1.2688954816864575
6.52404065,-0.3396929910930649,-1.0849582028128535,-1.391249274891539
6.52904065,-0.4053111076585088,-0.945461085245182,-1.5075970694261092
6.53404065,-0.47216324057895553,-0.8203219688146125,-1.6167896496480563
6.539040616,-0.5400645485977185,-0.7100817802511047,-1.7176899649122197
6.544040582,-0.6088035603100534,-0.6150074361329748,-1.8091838013787718
6.549040548,-0.6781411141646914,-0.5351013459596731,-1.8901910494741399
6.554040548,-0.7478101545135475,-0.47011439317321174,-1.9596774884182864
6.559040581,-0.8175163542219585,-0.4195620330238059,-2.0166669901983854
6.564040614,-0.88693950755003,-0.38274311412418405,-2.0602540240651823
6.569040614,-0.9557356151728736,-0.3587610096869934,-2.0896163195921047
6.57404058,-1.0235395672645657,-0.34654663463262453,-2.1040275224874336
6.579040546,-1.0899683209321123,-0.34488292524256925,-2.1028696540200227
6.584040546,-1.1546244649576682,-0.3524303675449601,-2.0856451638345703
6.589040579,-1.2171000676153165,-0.36775317751290487,-2.051988348920944
6.594040612,-1.2769807119061363,-0.3893457586808977,-2.0016758999965747
6.599040645,-1.333849636187683,-0.4156590893602261,-1.9346363313107962
6.604040645,-1.3872919157514525,-0.44512672094693356,-1.8509580511269148
6.609040645,-1.4368986408881534,-0.4761900996827743,-1.7508958379773663
6.614040611,-1.4822710672752417,-0.5073229554545834,-1.6348755022878145
6.619040577,-1.5230247325196282,-0.5370545316251338,-1.5034965339772715
6.624040543,-1.5587935458002073,-0.5639914585077818,-1.3575325635561468
6.629040543,-1.589233863883937,-0.5868380993353212,-1.1979294960107285
6.634040543,-1.6140285655532285,-0.6044152212407216,-1.0258012122044384
6.639040576,-1.6328911280522358,-0.6156768649366956,-0.8424227707153559
6.644040609,-1.645569694787569,-0.6197253056048527,-0.649221083423323
6.649040642,-1.6518511049584144,-0.6158240141197333,-0.4477630804618407
6.654040642,-1.6515648350513525,-0.6034085422682492,-0.23974142407952148
6.659040642,-1.6445867813422381,-0.5820952682532542,-0.026957876117955713
6.664040608,-1.6308427937221697,-0.5516879497300484,0.1886955303279171
6.669040608,-1.6103118559508383,-0.512182041253511,0.4052573186312259
6.674040608,-1.5830287969504477,-0.46376674182363714,0.6207191542769133
6.679040641,-1.5490864125677086,-0.4068247468918396,0.8330499038733543
6.684040641,-1.5086368775092427,-0.3419296884156831,1.0402208432258604
6.689040641,-1.4618923328195257,-0.2698412568908035,1.2402316554233939
6.694040641,-1.409124545186538,-0.19149801123865942,1.4311368316185729
6.699040641,-1.3506635503730389,-0.1080078964650783,1.6110720661489335
6.704040641,-1.2868952138632674,-0.020636505574735745,1.778280223886298
6.709040607,-1.2182576667768652,0.06920685826851648,1.931136450918375
6.714040607,-1.1452366033915782,0.15998524062624525,2.0681719997250054
6.719040607,-1.0683594573434392,0.2500521110835008,2.188096347152167
6.72404064,-0.9881885059362967,0.33767132161281155,2.2898171982014746
6.72904064,-0.9053129852923915,0.4210387838679441,2.3724579913326136
6.73404064,-0.8203403326374327,0.4983056692780894,2.435372551602997
6.739040606,-0.7338867050809855,0.5676029035744795,2.4781565760547246
6.744040606,-0.6465669559216889,0.6270666960174037,2.500655680527365
6.749041006,-0.5589842787283787,0.674864814421928,2.5029697877150263
6.754041039,-0.471719755058668,0.7092232915286203,2.4854536921382744
6.759041072,-0.3853220624180052,0.7284532276620335,2.448713698328551
6.764041072,-0.3002976136370673,0.7309773399909297,2.393600293601408
6.769041072,-0.21710140602916264,0.7153559006385188,2.321196885827583
6.774041072,-0.136128857455842,0.6803117045411834,2.232804708631566
6.779041072,-0.05770889601183206,0.624753713137861,2.129924069943674
6.784041072,0.01790145008179741,0.5477990312882117,2.0142321929354003
6.789041038,0.09052074590406102,0.44879289171955294,1.8875579691446385
6.794041038,0.16004495016858775,0.32732634311753467,1.7518540102545666
6.799041038,0.22644719539900213,0.18325136393404934,1.6091664459448625
6.804041071,0.2897754780057184,0.016693153328158444,1.4616029690298065
6.809041071,0.3501482510561923,-0.17194061723644083,1.3112996742063612
6.814041071,0.4077479785530579,-0.38195377376516176,1.1603872714581678
6.819041037,0.4628127773487939,-0.6123589763620276,1.0109572778203664
6.824041003,0.5156263396817905,-0.8618785296289179,0.8650288004731284
6.829040969,0.5665063937202314,-1.1289487330418677,0.7245165191759944
6.834040969,0.6157920187079957,-1.4117277944975648,0.5912004565997273
6.839041002,0.6638301818389096,-1.708107284913983,0.46669809164344084
6.844041035,0.7109619022765443,-2.015727064633801,0.35243932499053904
6.849041068,0.7575084709093018,-2.3319935644593746,0.24964475062823574
6.854041068,0.8037581604883766,-2.654101256937552,0.15930762441551147
6.859041068,0.8499538485882001,-2.979057108733144,0.0821798524090596
6.864041034,0.8962819455904353,-3.303707764238755,0.018762247808565426
6.869041034,0.9428629737826092,-3.6247691750811475,-0.030700773816208712
6.874041034,0.9897440850875843,-3.9388583600758262,-0.06622197523634633
6.879041067,1.0368937371544027,-4.242526954931136,-0.08806755576635417
6.8840411,1.0841986731426612,-4.53229619015839,-0.0967489777634508
6.8890411,1.1314632722101885,-4.804692919277703,-0.09301054161856777
6.894041066,1.1784112590690772,-5.056286307878615,-0.0778129766821228
6.899040632,1.224689686367064,-5.2837247875707725,-0.05231339773923199
6.904040598,1.2698750371725922,-5.483772877141936,-0.017842050431134755
6.909040564,1.3134812392652364,-5.6533474759009845,0.02412366865811511
6.914040564,1.3549693392807105,-5.78955324075537,0.07198738273509246
6.919040597,1.3937585526056622,-5.8897166686069005,0.12406352722268643
6.92404063,1.4292383830981716,-5.951418518795354,0.1786081740564638
6.929040663,1.4607814939715211,-5.972524226555031,0.23385029105280403
6.934040663,1.4877570065080439,-5.95121197822344,0.2880228464800752
6.939040663,1.5095439059538018,-5.8859981429151835,0.3393931898360265
6.944040629,1.525544243527289,-5.775759783861106,0.38629217403032623
6.949040629,1.5351958397209566,-5.61975400507436,0.4271415305972778
6.954040629,1.5379842169009212,-5.4176339239135265,0.46047906690347806
6.959040662,1.533453518492111,-5.169461095319163,0.4849813206435628
6.964040662,1.5212162073162263,-4.875714246956945,0.4994833790439462
6.969040662,1.5009613759288478,-4.537294214926498,0.5029956436432879
6.974040662,1.4724615455231316,-4.155524996802206,0.49471739151314764
6.979040662,1.4355778751231187,-3.7321508629769697,0.47404704701290806
6.984040662,1.3902637470855341,-3.2693294892227915,0.4405891344767158
6.989040628,1.33656673624586,-2.7696210938520074,0.39415793447408176
6.994040628,1.2746290072185276,-2.2359735832437733,0.33477791764973636
6.999040628,1.204686217457881,-1.6717037319928723,0.2626810809538933
7.004040661,1.1270650330550964,-1.0804744509083188,0.17830135829373014
7.009040694,1.0421793891507718,-0.46626822893042436,0.0822663173513075
7.014040694,0.9505256452637736,0.16664312648957055,-0.024613615676885657
7.01904066,0.8526767957580572,0.8137322834432289,-0.14135814141680544
7.024040626,0.7492758965429488,1.470253502290639,-0.26683200931516576
7.029040626,0.6410288622138354,2.1312828182859276,-0.39976159915639814
7.034040626,0.5286967755018032,2.7917609892236173,-0.5387528876000557
7.039040659,0.4130878353064303,3.4465388647267603,-0.6823105329024267
7.044039992,0.2950490522534024,4.090424793064748,-0.8288578223312747
7.049039992,0.17545778280629498,4.718233642283521,-0.9767572402254717
7.054039992,0.05521317582342003,5.324836974913996,-1.1243314283904997
7.059039992,-0.06477240937081691,5.905213879945501,-1.2698843231693213
7.064039992,-0.18358196562444665,6.454501932923574,-1.4117222645784269
7.069039958,-0.30030234075574913,6.968047726158846,-1.5481748824319452
7.074039958,-0.4140326430942847,7.441456387563096,-1.6776155724011221
7.079039958,-0.5238925116374421,7.870639490071097,-1.7984813811534897
7.084039991,-0.6290302086014284,8.251860745334167,-1.909292123791057
7.089039991,-0.7286304853958078,8.581778876437907,-2.0086685589417708
7.094039991,-0.8219221646084162,8.857487075511289,-2.095349447785819
7.099039957,-0.9081853715985274,9.076548473749238,-2.1682073240226685
7.104039957,-0.986758341034782,9.237027083906073,-2.226262803294245
7.109039957,-1.0570437174829155,9.337513718746337,-2.2686972637890497
7.11403999,-1.1185142660530494,9.37714644267371,-2.2948637355713024
7.11903999,-1.1707179097917646,9.355625176504349,-2.30429584547263
7.12403999,-1.213282014995879,9.273220145329232,-2.2967146778129024
7.12903999,-1.245916853500386,9.130773934794247,-2.2720334291138053
7.13403999,-1.2684181815684965,8.929697000457708,-2.2303597572828138
7.13903999,-1.2806688875992644,8.671956557247853,-2.1719957520507798
7.144039956,-1.2826396749660585,8.360058860916661,-2.097435483029617
7.149039922,-1.2743887616249245,7.997024980310242,-2.0073601137367136
7.154039922,-1.2560605945033856,7.586360247606424,-1.9026306033328602
7.159039922,-1.2278835938595447,7.132017662549574,-1.7842780516584553
7.164039955,-1.1901669603880356,6.638355615135457,-1.6534917767028352
7.169039955,-1.1432965952338054,6.110090378053915,-1.5116052467337304
7.174039955,-1.0877301994864832,5.5522439042883756,-1.3600800222725182
7.179039921,-1.0239916344724809,4.970087545334501,-1.2004878962251808
7.184039887,-0.9526646370352659,4.369082380188827,-1.0344914534927365
7.189039853,-0.8743859955578352,3.754816913107851,-0.863823303304495
7.194040519,-0.7898383037139267,3.132942957517588,-0.6902642669138599
7.199040552,-0.6997424202331949,2.5091105724734164,-0.5156208286150631
7.204040585,-0.6048497733151728,1.8889029545116793,-0.3417021778537878
7.209040618,-0.5059346555960204,1.2777722091900454,-0.17029718368205476
7.214040618,-0.4037866577178009,0.6809769308912592,-0.0031516504110744915
7.219040618,-0.2992033843762283,0.10352250507814251,0.15805379311295925
7.224040584,-0.1929835856280778,-0.4498949862608938,0.3117248168811654
7.229040584,-0.08592081806440743,-0.9749404268673558,0.4563731736918337
7.234040584,0.021202273797464855,-1.467686134901915,0.5906348007059576
7.239040617,0.1276189932980331,-1.924652458472988,0.7132859181506446
7.244040617,0.23258291016808763,-2.3428419119436104,0.8232568446691333
7.249040617,0.33537145414527386,-2.719766371047342,0.9196433044982992
7.254040583,0.43528880127318753,-3.053466958383751,1.0017150665564156
7.259040549,0.5316680949965796,-3.342526372284886,1.0689218215616874
7.264040515,0.6238730682347942,-3.5860735390976775,1.1208962643249223
7.269040515,0.711299155435707,-3.78378059890731,1.1574544019586208
7.274040515,0.7933742034893017,-3.935852364813883,1.1785931559920557
7.279040548,0.8695589053885288,-4.043008523317415,1.1844853700714317
7.284040581,0.9393470890936145,-4.1064589654606705,1.1754723775097835
7.289040614,1.002265995227542,-4.127872752438504,1.1520543253185622
7.294040614,1.057876670694867,-4.109341322809318,1.1148784926636102
7.299040614,1.1057745913953332,-4.0533366388291086,1.0647258798415615
7.30404058,1.1455906068303396,-3.9626650446375327,1.002496376330304
7.30904058,1.176992273991206,-3.840417667365041,0.9291928413433092
7.31404058,1.199685619102518,-3.6899182327149855,0.8459044470659142
7.319040613,1.2134173351517499,-3.5146691891239414,0.7537896436374583
7.324040613,1.2179773921446735,-3.3182970399227587,0.6540591057410133
7.329040613,1.2132020071365262,-3.104497772083055,0.5479590121194703
7.334040613,1.1989768936921459,-2.876983244175419,0.4367549900017523
7.339040613,1.175240686706547,-2.6394293559353916,0.3217170257742579
7.344040613,1.1419884194248888,-2.395426768064743,0.20410560205871636
7.349040579,1.0992749158959134,-2.1484348743760044,0.08515927146742419
7.354040579,1.0472179547696132,-1.9017396501473731,-0.0339161789157109
7.359040579,0.9860010598512731,-1.6584159119994744,-0.1519568782236627
7.364040612,0.9158757792035923,-1.421294427545101,-0.26784830462107634
7.369040612,0.8371633273162901,-1.192934209670141,-0.3805310269295998
7.374040612,0.7502554829431602,-0.9756002230585259,-0.48900483789338095
7.379040578,0.6556146574400584,-0.7712466221868228,-0.5923314124517467
7.384040544,0.5537730736436558,-0.581505533323911,-0.6896356676014361
7.389040544,0.44533102238656996,-0.40768129093430205,-0.7801060350371828
7.394040577,0.33095419147088107,-0.25074994403892104,-0.8629938828807033
7.39904061,0.21137008902199603,-0.1113637629776585,-0.9376123378248303
7.40404061,0.08736360831902394,0.0101395964076517,-1.0033347634514065
7.40904061,-0.04022819667577591,0.11372367457785429,-1.0595931440278992
7.41404061,-0.17052203769586632,0.1996359862673077,-1.1058766058168856
7.41904061,-0.3025949196505493,0.268387477898781,-1.141730280581824
7.42404061,-0.43549116047069625,0.3207291677744776,-1.1667546802404738
7.429040576,-0.568229792643553,0.3576264805646713,-1.180605710168961
7.434040576,-0.6998122398205819,0.38023178543511915,-1.1829954046280229
7.439040576,-0.829230171364429,0.389855636167156,-1.1736934239316072
7.444040609,-0.9554734515910341,0.38793719335376603,-1.1525293110361883
7.449040609,-1.0775381175447134,0.37601428466000736,-1.1193954658747325
7.454040609,-1.194434338040739,0.35569353055419534,-1.0742507591875836
7.459040575,-1.3051943257276906,0.32862093102493006,-1.0171246741027202
7.464040541,-1.4088801909772954,0.29645327467880805,-0.9481218338172939
7.469040507,-1.5045917392868613,0.26083069632269684,-0.8674267480265649
7.474040507,-1.5914742207205146,0.22335067367415734,-0.7753085897309221
7.47904054,-1.6687260396669894,0.18554371900973995,-0.6721257980859944
7.484040573,-1.735606425880054,0.14885098777035294,-0.5583302923472506
7.489040239,-1.7914430544798987,0.11460399339619158,-0.4344710770356979
7.494040239,-1.8356395850088534,0.08400658573647737,-0.3011970195234546
7.499040239,-1.867683069360683,0.058119319086996656,-0.1592585883938393
7.504040205,-1.88715115671557,0.037846305208549195,-0.009508353994227389
7.509040171,-1.8937190017208252,0.023924616611265503,0.1470999286832461
7.514040171,-1.8871657614457877,0.016916276036287443,0.30951381053030935
7.519040204,-1.8673805484984216,0.017202839612826492,0.47658633886234925
7.524040237,-1.8343676931531427,0.024982553949231122,0.6470820411724021
7.529040237,-1.788251156923362,0.040270041819632965,0.819684758690919
7.534040237,-1.7292779339009905,0.0628984473644097,0.9930073476909789
7.539040203,-1.6578202746112192,0.0925239497690017,1.1656032268052192
7.544040169,-1.5743765706605426,0.12863253391658772,1.335979708508315
7.549040135,-1.4795707479025886,0.1705488871285043,1.502613012499405
7.554040135,-1.3741500318955897,0.21744727246349646,1.6639648180228226
7.559040168,-1.2589809722981902,0.26836421100213764,1.8185001714444533
7.564040201,-1.1350436422153298,0.3222127882790757,1.9647065251154125
7.569040234,-1.003423963621432,0.377798383992752,2.10111364424508
7.574040234,-0.8653041499014731,0.43383560989122705,2.2263140808425748
7.579040234,-0.7219513002053451,0.48896622896415987,2.3389838787578467
7.5840402,-0.5747042265578223,0.5417778205688313,2.4379031429308746
7.5890402,-0.42495864223232627,0.5908229517635819,2.5219760810927765
7.5940402,-0.27415088731474185,0.634638615612285,2.5902501094810937
7.599040233,-0.12374041293008936,0.6717657027913844,2.6419336073815307
7.604040233,0.024808712609556267,0.7007682831689633,2.6764119094223155
7.609040233,0.1700469762303814,0.7202524884332399,2.6932611395544854
7.614040233,0.31055894227504555,0.7288848044514716,2.6922595159087517
7.619040233,0.4449827741525056,0.72540960194825,2.6733957903149626
7.624040233,0.5720293921061326,0.7086657554631406,2.6368745294080274
7.629040199,0.6905008993826397,0.6776022225902454,2.5831179953869867
7.634040165,0.7993079136975142,0.6312924774409193,2.51276444315423
7.639040531,0.8974854547564242,0.5689477132886497,2.4266627158871366
7.644040564,0.9842070618694568,0.48992874852257684,2.3258630915783907
7.649040597,1.0587968482756909,0.3937565862881525,2.211604406728098
7.654040597,1.120739240223561,0.28012159043923873,2.085297558317068
7.659040597,1.1696861983061708,0.1488912477810765,1.9485055603682808
7.664040563,1.2054617748063947,0.00011648862459237209,1.802920406723929
7.669040529,1.2280639222002407,-0.1659634653593207,1.650337067480203
7.674040495,1.237663532380288,-0.34891776410303027,1.4926250226073647
7.679040495,1.2346007511412207,-0.5481221505566027,1.3316978109794912
7.684040095,1.2193786755646006,-0.7627587980594526,1.1694811430823027
7.689040128,1.192654601034271,-0.991817829324039,1.0078801867854466
7.694040161,1.1552290379886834,-1.2341005873031328,0.8487466834681023
7.699040161,1.108032764677994,-1.4882247277952634,0.6938465828871515
7.704040161,1.0521122197106685,-1.7526311967905168,0.5448288966400466
7.709040127,0.988613565689216,-2.025593140920883,0.4031964597158637
7.714040127,0.9187657715239513,-2.3052267761398624,0.2702792564699493
7.719040127,0.8438630648324577,-2.5895042084097892,0.14721091257215774
7.72404016,0.7652470958703356,-2.8762681628546454,0.03490888156086211
7.72904016,0.6842891302770427,-3.1632485377173962,-0.06594123172561543
7.73404016,0.6023725516967171,-3.4480806597295497,-0.15489686419301152
7.739040126,0.5208759119895285,-3.728325080769944,-0.23176495959856866
7.744040092,0.44115672175958226,-4.001488723998201,-0.29660356858348924
7.749040058,0.36453613065065754,-4.2650471625021344,-0.34971855692965875
7.754040058,0.2922846062015542,-4.51646779571526,-0.3916555058523856
7.759040058,0.22560868210095927,-4.753233678312635,-0.42318699469053944
7.764040091,0.16563881206561715,-4.972867751755829,-0.44529555483621897
7.769040124,0.11341833539850234,-5.172957228085615,-0.45915267080629674
7.774040157,0.06989353552242779,-5.3511778768350124,-0.46609427805737497
7.779040157,0.035904754024673566,-5.505317967580733,-0.46759326729817147
7.784040157,0.012178510561099615,-5.6333016220153835,-0.46522955290857126
7.789040123,-0.0006794258682933647,-5.733211330392189,-0.46065830032421234
7.794040123,-0.0021900657375601377,-5.803309388001106,-0.4555769348407105
7.799040123,0.007993630862398437,-5.842058008813299,-0.4516915717022786
7.804040156,0.030082416892998363,-5.848137877279806,-0.450683512617369
7.809040156,0.06414724566233466,-5.820464907529316,-0.4541764443256436
7.814040156,0.11011659181405048,-5.758204993029948,-0.46370494806893564
7.819040156,0.1677746297285605,-5.660786548733791,-0.48068488365781864
7.824040156,0.2367603038957066,-5.527910670424458,-0.5063861497677099
7.829040156,0.31656733314777347,-5.359558761209383,-0.5419082476943411
7.834040556,0.40654519612628753,-5.155997502229548,-0.5881589952266907
7.839040556,0.5059011510192312,-4.91778107343282,-0.6458366562867567
7.844040556,0.6137033496983406,-4.645750560359372,-0.7154156749595464
7.849040589,0.7288851149445809,-4.341030513773864,-0.7971361328017519
7.854040589,0.8502504583632495,-4.0050226598454355,-0.8909969880006455
7.859040589,0.9764809236851764,-3.639396788513416,-0.9967531042637858
7.864040555,1.1061438427129797,-3.2460788761248316,-1.1139160340691754
7.869040521,1.2377020872115179,-2.827236525689635,-1.241758481365261
7.874040487,1.3695253890329635,-2.3852618353094033,-1.3793223295561097
7.879040487,1.4999032828531476,-1.922751833744562,-1.5254300799727702
7.884040487,1.627059700781322,-1.442486652164707,-1.6786995043867745
7.88904052,1.7491692151734153,-0.9474056322330819,-1.8375612741500167
7.894040553,1.8643748853052224,-0.44058160149052317,-2.000279290155606
7.899040586,1.9708076166363095,0.07480642374687638,-2.164973403448437
7.904040586,2.066606891076784,0.5955018209281755,-2.3296441869835154
7.909040586,2.149942676431803,1.118199918233257,-2.492199395775239
7.914040552,2.21903827599078,1.6395781940216245,-2.650481736783319
7.919040552,2.2721938367527574,2.1563267689603216,-2.8022975622278663
7.924040552,2.307810197784603,2.665178826494714,-2.9454461000484566
7.929040585,2.324412729350482,3.1629405869452456,-3.077748840790395
7.934040585,2.320674789827495,3.646520455548971,-3.1970787089292045
7.939040585,2.2954404123843593,4.112956966473672,-3.3013886573150044
7.944040551,2.247745827965362,4.559445154145943,-3.3887393362294516
7.949040517,2.176839435569298,4.983361000679993,-3.4573255042886197
7.954040483,2.0821998446810746,5.382283633833435,-3.5055008676087347
7.959040483,1.9635516370047759,5.754014983279583,-3.531801056291642
7.964040516,1.8208785240183674,6.096596643141105,-3.5349644731454877
7.969040549,1.6544336117953478,6.408323734478519,-3.513950778340934
7.974040582,1.464746523517513,6.687755611485712,-3.4679568050629537
7.979040582,1.2526271719013895,6.9337233082673055,-3.3964297347111962
7.984040582,1.0191660175634667,7.145333678098376,-3.2990773952838235
7.989040548,0.7657306947475159,7.321970232841861,-3.175875582560973
7.994040548,0.4939589326764959,7.463290745419706,-3.0270723397536377
7.999040548,0.2057477489809762,7.5692217313834815,-2.8531891665574687
8.004040581,-0.09676105892878627,7.639949975101529,-2.6550191623640034
8.009040614,-0.41119904814726177,7.675911310421037,-2.4336221402916953
8.014040614,-0.7349927621594669,7.677776903817147,-2.190316778432299
8.019040614,-1.0653886793947476,7.646437319443072,-1.9266699020138638
8.024040614,-1.3994812433823585,7.582984670013684,-1.6444830148207803
8.029040614,-1.734243684265739,7.488693175279039,-1.3457762201344707
8.034040614,-2.0665612857392617,7.364998461385101,-1.0327696909742248
8.03904058,-2.393266696170899,7.21347594020507,-0.7078628672491558
8.044039913,-2.7111768291731866,7.035818608326523,-0.3736115746931972
8.049039913,-3.017130849118208,6.833814601426478,-0.03270327842016103
8.054039946,-3.308028693334715,6.609324831971117,0.31206929648517295
8.059039946,-3.5808695473020187,6.364261027192152,0.6578359236889039
8.064039546,-3.8327896642613517,6.100564470408028,1.0016777380425508
8.069039512,-4.061098908272528,5.820185731727617,1.3406569051308088
8.074038578,-4.263315401427409,5.525065653402011,1.6718467831887964
8.079038544,-4.437197672681554,5.217117830067455,1.9923622489492872
8.084038544,-4.580773737987707,4.8982127947520295,2.2993898506573296
8.089038577,-4.69236658911251,4.570164088118083,2.5902174488561927
8.09403861,-4.770615631395903,4.2347163514357105,2.8622630086550025
8.099038643,-4.814493687987225,3.893535543476411,3.1131022160654434
8.104038643,-4.823319278085674,3.5482013377354003,3.3404946056675375
8.109038643,-4.7967639766911585,3.2002017087128944,3.5424079072771706
8.114038609,-4.734854769934035,2.8509296641293633,3.717040345189864
8.119038609,-4.637971429713853,2.501682024397494,3.862840654288161
8.124038609,-4.506839040749759,2.1536600931921734,3.9785256114745016
8.129038642,-4.342515918730851,1.8079720066422358,4.063094916521754
8.134038675,-4.1463772563421895,1.4656364973507816,4.11584329125499
8.139038675,-3.920094920808257,1.1275877669910912,4.136369698068044
8.144038641,-3.665613898775903,0.7946811311457883,4.124583606928983
8.149038607,-3.385125938817448,0.4676990854341103,4.080708263513708
8.154038573,-3.0810409761691497,0.1473574452063548,4.005280929010024
8.159038539,-2.7559569371172663,-0.16568876640099306,3.8991500729680277
8.164038539,-2.412628511586609,-0.47083996520936394,3.763469502699081
8.169038572,-2.0539354531112917,-0.7675474101468299,3.5996894053640767
8.174038605,-1.6828509174845734,-1.0553095107338855,3.409544263305941
8.179038638,-1.3024102874821049,-1.3336690947960128,3.1950375839916325
8.184038638,-0.9156808541649141,-1.602211596803263,2.958423372517575
8.189038638,-0.525732640150571,-1.8605640293826613,2.7021842821136057
8.194039271,-0.13561056562671642,-2.1083945093183134,2.4290064257099573
8.199039271,0.25169191213671716,-2.345412035914648,2.1417509342200787
8.204039271,0.6332575944910928,-2.5713661783624002,1.8434224998414461
8.209039304,1.0062686829360543,-2.786046333997617,1.5371353129616754
8.214039704,1.3680281537548074,-2.989280278411463,1.2260769432716025
8.219039704,1.715979231158166,-3.1809318352254663,0.913470796654372
8.224040604,2.0477228244281274,-3.3608976278448677,0.6025377949801111
8.229040604,2.361032818367405,-3.529103010220055,0.2964578953780777
8.234040604,2.6538691449168414,-3.685497384594082,-0.001667982855724403
8.23904057,2.924388610176178,-3.8300491882630885,-0.28885509759791766
8.24404057,3.1709535017420394,-3.9627408664771453,-0.5622705861778263
8.24904057,3.392138051445642,-4.0835641494366755,-0.8192672317925287
8.254040603,3.586732871489203,-4.192515924993045,-1.0574147940311538
8.259040636,3.7537475117939065,-4.289594952251751,-1.2745284140306001
8.264040636,3.8924113001983667,-4.374799601042938,-1.468693640753916
8.269040602,4.002172625710291,-4.448126733573373,-1.6382876905143315
8.274040568,4.082696812162345,-4.509571772335922,-1.7819966418074504
8.279040568,4.133862710669669,-4.559129926681713,-1.8988283698679609
8.284040568,4.155758119161499,-4.596798482638381,-1.9881211258101266
8.289040601,4.148674119605116,-4.622579999295907,-2.049547751939545
8.294040601,4.113098410736997,-4.636486203169309,-2.083115593092221
8.299040601,4.049707707519313,-4.638542332475491,-2.089162216891013
8.304040601,3.9593592784592753,-4.628791659093816,-2.0683471010841807
8.309040601,3.8430816974315993,-4.607299908955343,-2.0216394900774493
8.314040601,3.7020648955889848,-4.5741593120807895,-1.9503026674344408
8.319040567,3.5376496085145916,-4.529492040423301,-1.8558749339846277
8.324040567,3.351316321308077,-4.473452833024613,-1.7401476175118045
8.329040567,3.1446738178917544,-4.406230660914078,-1.6051404659298112
8.3340406,2.919447439350539,-4.328049344894838,-1.4530747903005716
8.3390406,2.6774671491035695,-4.239167103207936,-1.2863447288235
8.3440406,2.420655490385512,-4.139875068081812,-1.107487001532468
8.349040566,2.151015504872888,-4.030494865970057,-0.9191495214098553
8.354040566,1.8706186617104361,-3.9113754026950143,-0.7240592232265602
8.359040566,1.5815928249859055,-3.782889030056553,-0.5249894672368629
8.364040599,1.2861102659405406,-3.6454272943625767,-0.3247273702318467
8.369040599,0.9863757049032444,-3.499396480330867,-0.1260414101642959
8.374040599,0.6846143482742763,-3.345213166825184,0.06835035851464577
8.379040599,0.38305986921309626,-3.183300004844974,0.25581115407885585
8.384040599,0.08394226840522424,-3.0140819139463937,0.43381507222003735
8.389040599,-0.2105244553187166,-2.837982871747346,0.5999751554273512
8.394040565,-0.49815489464091706,-2.655423443417379,0.7520696565960099
8.399040531,-0.7768051463969543,-2.4668191652997686,0.8880662481935684
8.404040531,-1.0443860950030246,-2.2725798604463052,1.0061439511079169
8.409040531,-1.2988770924863782,-2.0731099253603342,1.10471258068385
8.414040564,-1.5383400328750847,-1.8688095881485458,1.1824295310269073
8.419040564,-1.7609337861072347,-1.6600771000031453,1.2382137421640993
8.424040564,-1.9649289212171517,-1.4473117857340048,1.271256718233875
8.42904053,-2.1487226119824636,-1.2309178459851375,1.2810304891837665
8.434040496,-2.310853581984478,-1.0113087746204141,1.2672924344778842
8.439040462,-2.4500169116014896,-0.7889122301823351,1.2300869159781482
8.444040462,-2.5650784981943113,-0.5641751807876316,1.1697436989619798
8.449040495,-2.655088933898353,-0.3375691276788739,1.0868731751576257
8.454040528,-2.7192965441363093,-0.10959520421281808,0.9823584392388706
8.459040561,-2.757159315252777,0.11921105536684559,0.8573443095496012
8.464040561,-2.7683554324648747,0.3482754792390685,0.7132234237389607
8.469040561,-2.752792150326892,0.5769817452464605,0.5516195791483699
8.474040527,-2.710612727517062,0.804668767901863,0.37436852495819606
8.479040527,-2.642201175961311,1.0306291394456397,0.18349644733121703
8.484040527,-2.5481846006547513,1.254108752837041,-0.01880358048042979
8.48904056,-2.4294329401623815,1.4743077042356685,-0.23019688417481785
8.49404056,-2.287055957472999,1.6903825394406273,-0.4482338888721834
8.49904056,-2.12239737521395,1.90144987415387,-0.670377894105957
8.504039626,-1.937026096859303,2.1065913829377636,-0.8940335708011208
8.509039592,-1.7327245056192568,2.3048601172996617,-1.1165758220153137
8.514039558,-1.5114738848387823,2.4952880804273807,-1.3353786516450417
8.519039558,-1.2754370575425118,2.676894955813146,-1.547843696067462
8.524039558,-1.0269383970747226,2.8486978604036377,-1.7514280917008407
8.529039591,-0.7684414136597949,3.009721970664715,-1.943671374816776
8.534039624,-0.5025241711092631,3.1590118519903925,-2.122221136751367
8.539039657,-0.23185283236726445,3.29564330750063,-2.284857186654536
8.544039657,0.040846328608510986,3.4187355506032167,-2.429514004517359
8.549039657,0.31281607833670444,3.527463496283997,-2.5543012992795506
8.554039623,0.5812981420122955,3.621069959066508,-2.657522520011953
8.559039589,0.8435634724291707,3.6988775414948853,-2.7376912016150183
8.564039555,1.096942441924681,3.760299996503411,-2.793545058997377
8.569039555,1.3388545258781253,3.804852850654434,-2.824057774195848
8.574039588,1.5668370506220042,3.8321630831707303,-2.8284484483748504
8.579039621,1.7785725911709083,3.841977667842243,-2.806188714214515
8.584039654,1.9719146249989017,3.8341708008395368,-2.7570075233506883
8.589039654,2.144911076985703,3.8087496566016488,-2.680893638322934
8.594039654,2.2958254270175478,3.765858535591817,-2.578095869338313
8.59903962,2.423155094701268,3.705781291221696,-2.449121103398047
8.60403962,2.525646864120831,3.628941948235755,-2.2947301769863055
8.60903962,2.602309164101598,3.5359034511400584,-2.1159316437543905
8.614039653,2.6524210743064867,3.427364508789274,-1.9139734865939135
8.619039653,2.6755379828711257,3.3041545299945736,-1.6903328215548876
8.624039653,2.671493875654023,3.167226674974085,-1.4467036420235022
8.629039619,2.640400289467373,3.017649078552285,-1.184982657380507
8.634039585,2.5826420113914086,2.8565943329574734,-0.9072532913603143
8.639039551,2.498869653495533,2.6853273503736923,-0.615767920417423
8.644039551,2.3899892770972153,2.5051917573767066,-0.31292844980540835
8.649039551,2.2571492827247384,2.317595004146773,-0.0012653431341349754
8.654040484,2.1017248202329015,2.1239923999042585,0.31658476123127466
8.659040517,1.9253000067584705,1.9258703113612459,0.6379026970169837
8.66404055,1.7296482671966538,1.7247287822568997,0.9599115149235108
8.66904055,1.5167111317013493,1.5220638485141043,1.279802146199604
8.67404055,1.2885758366339697,1.3193498345100958,1.5947597921561083
8.679040516,1.0474520788394968,1.1180219206208433,1.901990833474104
8.684040516,0.7956482678269972,0.9194592698018208,2.1987500390204144
8.689040516,0.5355476065411494,0.7249689909579703,2.482367838549141
8.694040549,0.26958430958426977,0.535771199192702,2.7502774072033063
8.699040549,0.00022023900344929906,0.3529854083239809,3.0000412926539974
8.704040549,-0.27007779668150395,0.17761846051221672,3.2293772987748177
8.709040549,-0.5388598733188282,0.010554163021372345,3.4361833237626134
8.714040549,-0.8037137465854781,-0.1474552352968329,3.6185608364808126
8.719040549,-1.062284489637019,-0.2957956336401734,3.7748366636092063
8.724040515,-1.3122928926278252,-0.4339956787937417,3.9035827533060283
8.729040515,-1.5515525831668973,-0.5617293543697374,4.003633580286917
8.734040515,-1.7779858614225947,-0.6788165724102838,4.074100864788085
8.739040548,-1.9896382717257144,-0.7852218087675521,4.114385296588809
8.744040548,-2.1846919528664968,-0.8810508477868849,4.124184987861143
8.749040548,-2.3614778212411456,-0.9665457211357461,4.103500426700733
8.754040514,-2.518486644653823,-1.042077940290822,4.052635766085105
8.75904048,-2.6543790606487607,-1.1081401327514027,3.972196357174823
8.76404048,-2.767994583230017,-1.165336199678118,3.8630825154676502
8.769040513,-2.85835962788098,-1.2143701191873535,3.726479586707889
8.774040546,-2.9246945691112556,-1.2560335267864662,3.5638444510497718
8.779040546,-2.9664198288373615,-1.2911922134107259,3.3768886652923027
8.784040546,-2.9831609783654733,-1.3207716921186456,3.1675584926735403
8.789040546,-2.974752821708349,-1.3457419959662085,2.938012107887766
8.794040546,-2.941242413612204,-1.3671018811829356,2.6905942927487363
8.799040546,-2.8828909525389905,-1.3858626211323484,2.4278089568682906
8.804040512,-2.8001744777426008,-1.4030315874878379,2.1522898296561603
8.809040512,-2.6937832911306425,-1.4195958253494525,1.8667696766104984
8.814040512,-2.564620018895768,-1.4365058381868943,1.5740483958322393
8.819040545,-2.4137962243838698,-1.4546598058007276,1.2769603514295345
8.824040545,-2.2426274815118226,-1.4748884631060304,0.9783413003801043
8.829040545,-2.0526268166686936,-1.497940868671147,0.680995269729384
8.834040511,-1.845496426458691,-1.524471288988024,0.3876617426271847
8.839040511,-1.6231175795627613,-1.5550274169987741,0.10098351501068985
8.844040511,-1.3875386145537723,-1.590040131140325,-0.17652441062134755
8.849040544,-1.140960953044683,-1.6298149838488718,-0.44250452297902876
8.854040544,-0.8857230604758318,-1.674525586034016,-0.6947847161722082
8.859040544,-0.6242823064662746,-1.7242090267604124,-0.9314040440016882
8.864040544,-0.35919470397312464,-1.778763435796264,-1.1506359406025302
8.869040544,-0.09309254199987269,-1.8379477613473012,-1.3510085412978037
8.874040544,0.1713400299060548,-1.9013837965414888,-1.5313217518750701
8.87904051,0.4313933564425488,-1.968560446262181,-1.690660737760967
8.884040476,0.6843604051959779,-2.0388401810829015,-1.828405538835552
8.889040476,0.9275664431244705,-2.1114675781589907,-1.9442365622611595
8.894040509,1.1583999722463487,-2.1855798014687338,-2.038135764880268
8.899040542,1.3743445736179878,-2.260218827822979,-2.1103834072895014
8.904040542,1.573011249667762,-2.3343451828858623,-2.1615503412469335
8.909040542,1.752170802510761,-2.4068529153025304,-2.1924858775144114
8.914040508,1.9097857430220588,-2.4765855088496243,-2.2043013693604054
8.919040474,2.0440411943167933,-2.5423524137868023,-2.1983497349359014
8.92404044,2.1533742351717757,-2.6029458701352377,-2.1762012274031517
8.92904044,2.2365011247653466,-2.657157697574997,-2.1396158434076287
8.934040473,2.292441860593174,-2.7037957385699807,-2.0905128367842813
8.939040506,2.320541546479318,-2.741699662362939,-2.030937873455266
8.944040539,2.320488085893873,-2.7697558666865856,-1.9630284225952601
8.949040539,2.292325764647309,-2.786911250457262,-1.8889780245951857
8.954040539,2.2364643431127234,-2.7921856732350934,-1.811000103939074
8.959040505,2.153683338436839,-2.784682964299607,-1.7312920012523028
8.964040505,2.0451312400237835,-2.7636003938046665,-1.6519998818009627
8.969040505,1.9123194667679788,-2.7282365685232217,-1.5751851383568871
8.974040538,1.7571109431107206,-2.6779977633369274,-1.502792847278909
8.979040538,1.5817032445142767,-2.6124027454265653,-1.43662276180932
8.984040538,1.3886063425874626,-2.531086189750613,-1.3783032408072966
8.989040504,1.1806150660537074,-2.433800820338377,-1.3292684202122074
8.99404047,0.9607764850172966,-2.320418440495956,-1.290738844635042
8.999040436,0.7323525206818579,-2.190930034736845,-1.2637056931912198
9.004040436,0.4987781784995556,-2.045445135057055,-1.2489186610299203
9.009040436,0.2636158971193666,-1.8841906436026656,-1.2468774979251493
9.014040469,0.03050659565830418,-1.7075092930979632,-1.2578271575504432
9.019040502,-0.1968819152365771,-1.5158579067062619,-1.2817564737182499
9.024040535,-0.41490842026760294,-1.3098055918811307,-1.318400250190422
9.029040535,-0.6200128859243278,-1.0900319698255863,-1.3672446260917632
9.034040535,-0.8087713024888311,-0.8573255047747605,-1.4275355576355309
9.039040501,-0.9779499075103045,-0.6125819567964054,-1.4982902377565277
9.044039801,-1.124557902445492,-0.3568029398044516,-1.578311257954046
9.049039101,-1.2458977761131842,-0.09109452502969104,-1.6662033012246578
9.054039101,-1.3396123670527302,0.18333420852787977,-1.760392141657455
9.059039134,-1.4037278318942934,0.4651728091856117,-1.85914571516825
9.064039167,-1.436691737726273,0.7530114336955586,-1.9605970166158682
9.0690392,-1.4374055616812373,1.045343355929118,-2.062768570426908
9.074038533,-1.405250958981029,1.3405681982302455,-2.163598214170744
9.079038533,-1.3401092503029592,1.6369960861365902,-2.260965927127022
9.084038499,-1.2423736794076041,1.9328529243995631,-2.3527214291905025
9.089038499,-1.112954100887304,2.2262869810168224,-2.436712270006166
9.094038499,-0.9532738736406047,2.5153769466758233,-2.5108121242052768
9.099038532,-0.7652588562801559,2.798141610242713,-2.5729490057430726
9.104038532,-0.5513185244044555,3.0725512574726985,-2.62113311223805
9.109038532,-0.31431935483820483,3.3365408607690163,-2.6534840088459695
9.114038498,-0.057550746727607974,3.588025083448324,-2.668256860981082
9.119038464,0.21531612831185584,3.824915073559136,-2.6638674267002456
9.12403843,0.5002760371127806,4.0451369709801925,-2.6389155232374373
9.12903843,0.7930433360295904,4.246651998604011,-2.5922066882988513
9.13403843,1.0891108387365822,4.427477955346957,-2.5227717655788906
9.139038463,1.383813085015372,4.585711877088281,-2.4298841559121716
9.144038496,1.6723931143331983,4.71955358300395,-2.313074490961876
9.149038529,1.9500717808452623,4.827329780587703,-2.172142505675921
9.154038529,2.2121185937978294,4.907518364238228,-2.0071659090014324
9.159038529,2.453923030092143,4.958772510805368,-1.818506079429716
9.164038495,2.671065244606874,4.9799441519642444,-1.6068104427337724
9.169038495,2.8593850990791987,4.970106388527416,-1.3730114237218691
9.174038495,3.0150484419653916,4.928574406281401,-1.1183219018785897
9.179038528,3.134609599602977,4.8549244567581065,-0.8442271421082831
9.184038528,3.2150690829247095,4.749010479318154,-0.5524732160006105
9.189038528,3.2539255736164616,4.610977962557864,-0.2450519757025866
9.194039194,3.2492213285153677,4.441274672714693,0.07581730880596438
9.19903986,3.1995802303969647,4.240657913822004,0.4077094881791637
9.20403986,3.104237815784164,4.010198028412266,0.748018036799158
9.209039826,2.9630627243560808,3.751277898269568,1.093982260321689
9.214039826,2.7765691381873285,3.4655882616954297,1.4427169010270455
9.219039826,2.5459199106736112,3.155118726359648,1.791243791710247
9.224040526,2.272920222770382,2.8221444241988474,2.1365251711691546
9.229040526,1.96000174601972,2.469208325958537,2.4754982424587273
9.234040526,1.610197435460967,2.0990993066824046,2.8051105294526866
9.239040492,1.2271072185683425,1.7148261284130106,3.122355567988691
9.244040458,0.8148549866543378,1.3195875810712192,3.4243084547843776
9.249040424,0.3780374307178141,0.9167390953401937,3.708160770151248
9.254040424,-0.07833460745781604,0.509756210942369,3.971254389297437
9.259040424,-0.548901478012212,0.10219534877211428,4.211113702158073
9.264040457,-1.0280258590207205,-0.3023476050279443,4.425475774071105
9.26904049,-1.5098686879963445,-0.7002803415987437,4.612318000070379
9.274040523,-1.988468807329888,-1.0880581907222988,4.769882834446359
9.279040523,-2.457825173007,-1.4622285546994414,4.89669921415103
9.284040523,-2.9119804223307435,-1.8194750385985157,4.991600338720506
9.289040489,-3.3451045590993056,-2.15666058054973,5.0537375198202055
9.294040489,-3.751577494646227,-2.4708688763441753,5.08258987000818
9.299040489,-4.126069181469413,-2.7594433950318793,5.077969663386457
9.304040522,-4.46361609428321,-3.020023297481868,5.040023271422217
9.309040522,-4.759692852792226,-3.2505755988624903,4.969227655482793
9.314040522,-5.010277842554322,-3.449422959603976,4.8663824812599366
9.319040488,-5.211911775361229,-3.615266548393525,4.73259800444994
9.324040454,-5.36174823781144,-3.7472034954745648,4.569278956430171
9.32904042,-5.457595404214639,-3.8447385446051636,4.378104729472299
9.33404042,-5.497948234886725,-3.907789616316,4.161006221473693
9.339040453,-5.48201064009116,-3.936687111593381,3.920139749438239
9.344040486,-5.409707259844269,-3.9321669107650234,3.6578584784285164
9.349040519,-5.2816846865218325,-3.8953571530545723,3.3766818382276482
9.354040519,-5.099302136121862,-3.8277590129912844,3.0792634138626065
9.359040519,-4.864611750358927,-3.7312218151806578,2.7683577994526436
9.364040485,-4.580328881076563,-3.6079129436426336,2.446786899169783
9.369040485,-4.24979286722918,-3.4602831017856293,2.117406146656294
9.374040485,-3.8769189604353302,-3.2910275614874105,1.7830710977249165
9.379040518,-3.4661421865680326,-3.1030441037599275,1.4466048332273211
9.384040551,-3.022354047813938,-2.899388399332911,1.1107665914233582
9.389040551,-2.5508330721120926,-2.6832276059583666,0.7782220322485944
9.394040551,-2.057170304072344,-2.4577929711912234,0.45151551811109797
9.399040551,-1.547190901539271,-2.226332225782962,0.13304477481842716
9.404040551,-1.0268730527160488,-1.9920625347351153,-0.1749617304562895
9.409040551,-0.5022654584691243,-1.7581247418289774,-0.47046439132106715
9.414040517,0.020595367608509933,-1.5275396006014137,-0.7516287839566014
9.419040517,0.535766742052144,-1.3031666318655117,-1.0168384993996278
9.424040517,1.0374791908521745,-1.0876661865113864,-1.2647043383520282
9.42904055,1.5202124093011362,-0.8834652238457231,-1.494069793076109
9.43404055,1.9787667128112683,-0.6927272413495781,-1.7040128257074243
9.43904055,2.408328970422434,-0.5173267127154091,-1.8938440475447178
9.444040516,2.804532108429716,-0.3588283090623601,-2.0631015038094125
9.449040482,3.1635073815306765,-0.2184710955424204,-2.2115423645200254
9.454039782,3.4819287326224018,-0.09715781448945969,-2.3391319061615854
9.459039782,3.757048698458335,0.0045507111382301815,-2.4460302345386014
9.464039815,3.9867254640615983,0.08643609250235425,-2.5325772422114334
9.469039848,4.169440819676668,0.1486179125106306,-2.5992763098992175
9.474039881,4.304308924158876,0.19154445114744562,-2.6467772451869487
9.479039881,4.391075922152661,0.21597881797083493,-2.675858901521704
9.484039881,4.430110596278869,0.22298076135752165,-2.687411842309693
9.489039847,4.422386361151607,0.21388447075718542,-2.6824213254579043
9.494039847,4.369455026296374,0.19027273243263434,-2.661950802200985
9.499039847,4.273412870429182,0.15394784157258057,-2.627126063063892
9.50403988,4.1368596769258295,0.10689971430366292,-2.5791201255511744
9.509039913,3.9628514752089607,0.051271681094042336,-2.519138937267327
9.514039913,3.754847812429358,-0.010675523512968741,-2.448407956801228
9.519039479,3.5166544439948355,-0.07660103324073021,-2.3681596664510516
9.524038779,3.2523623812208893,-0.14412182495636874,-2.2796220622712786
9.529038745,2.9662842701976078,-0.21085082832613533,-2.184008157024371
9.534038711,2.6628890974102672,-0.27443460408494863,-2.0825065208201536
9.539038711,2.3467362237659164,-0.33259003572146056,-1.976272873428892
9.544038744,2.0224097389141162,-0.38313949927374175,-1.8664227324793734
9.549038777,1.694454102449966,-0.42404400448090407,-1.75402511401896
9.55403881,1.3673119988514597,-0.45343383740708515,-1.6400972770130269
9.55903881,1.0452652801242015,-0.46963627911185724,-1.525600501385154
9.56403881,0.7323798050648993,-0.4712000257162695,-1.4114368888796118
9.569038776,0.4324549072558755,-0.456915990652863,-1.2984471740832897
9.574038776,0.14897813545249508,-0.42583422836612195,-1.1874095239675606
9.579038776,-0.11491418989277323,-0.37727677912210245,-1.0790392825164583
9.584038809,-0.35647017066659703,-0.3108462964566934,-0.9739895802289678
9.589038809,-0.5733489611929945,-0.22643038217869554,-0.8728526814985356
9.594038809,-0.7636406438167906,-0.12420161885848684,-0.7761618975274075
9.599038809,-0.9258792845621426,-0.0046133562531584255,-0.6843938612156352
9.604039475,-1.0590492258008204,0.13160862440632684,-0.59797095123524
9.609039475,-1.1625847884967553,0.283478377101945,-0.5172636656412458
9.614039441,-1.2363636620854952,0.4497657324949339,-0.4425927755886744
9.619039441,-1.2806943524833245,0.6290155977041839,-0.37423112967940514
9.624039441,-1.2962981356455738,0.8195702449898585,-0.31240502242021834
9.629039474,-1.2842860237793057,1.0195941763875906,-0.2572950812197495
9.634039507,-1.2461312932931097,1.2271011184805647,-0.20903666219297667
9.639039507,-1.1836381488570724,1.4399826798901916,-0.16771977433058693
9.644039473,-1.0989071087602065,1.6560381935970914,-0.13338857414594263
9.649039439,-0.9942976959873097,1.8730052661109555,-0.10604048956653832
9.654039439,-0.8723890102185285,2.088590564537812,-0.08562504417731805
9.659039439,-0.735938741229034,2.3005003893593936,-0.07204246274997166
9.664039472,-0.5878411663758164,2.506470604055029,-0.06514214759741124
9.669039872,-0.43108465574753574,2.704295521635908,-0.06472112308457258
9.674040538,-0.268709189048143,2.8918553818691226,-0.07052255235136268
9.679040538,-0.10376436851542169,3.067142090451104,-0.08223443550592088
9.684040538,0.06073160823988033,3.2282829314888,-0.09948860185483029
9.689040538,0.22183157315178484,3.373562006206868,-0.12186010988641063
9.694040504,0.3766971911839759,3.5014391928491815,-0.1488671674449674
9.699040504,0.5226345482231317,3.6105664645088877,-0.1799716805395868
9.704040504,0.6571271563589202,3.699801442444413,-0.21458053235754246
9.709040537,0.777866038816969,3.7682181018005907,-0.25204768430744834
9.71403967,0.8827765882909854,3.815114584235378,-0.29167717831697254
9.719038803,0.9700419266502803,3.840018107494148,-0.33272710402481387
9.724037903,1.0381225325463543,3.842686995061267,-0.37441457560889035
9.729037036,1.085771948288799,3.823109879179552,-0.41592174038619395
9.734037036,1.112048429136383,3.7815021575988057,-0.45640281503624064
9.739037069,1.1163224551288942,3.7182998086802637,-0.4949921163058368
9.744037069,1.0982800847384833,3.634150691412419,-0.5308130232245699
9.749037069,1.0579221882391352,3.529903476876887,-0.562987779571174
9.754037069,0.9955596549905783,3.406594376083728,-0.5906480208022198
9.759037069,0.9118047218070386,3.2654318462311793,-0.6129458899300351
9.764037069,0.8075586187735138,3.107779473545901,-0.6290655910920557
9.769037035,0.6839957739933575,2.9351372458319847,-0.6382352158651247
9.774037001,0.542544859388531,2.749121441471738,-0.639738664496594
9.779037001,0.3848669953848177,2.5514433738568623,-0.632927472560783
9.784037001,0.212831462800133,2.3438872413319016,-0.6172323445598108
9.789037034,0.028489295195679595,2.128287342930838,-0.5921741909300191
9.794037034,-0.16595485630873252,1.9065049293793725,-0.5573744642452387
9.799036167,-0.3681721822777894,1.6804049664742204,-0.5125645940125133
9.804036133,-0.5757400917843873,1.4518330931641965,-0.45759432709080666
9.809036133,-0.7861731064980138,1.222593058598013,-0.39243879221072
9.814036133,-0.9969538863754815,0.9944249206370966,-0.31720412208888327
9.819036166,-1.2055640223059279,0.7689842828315347,-0.2321314849088768
9.824036166,-1.40951425577347,0.5478228375781891,-0.13759939808283297
9.829036166,-1.606373811792348,0.33237046977928475,-0.0341242206752855
9.834036166,-1.7937985575108244,0.12391915730649386,0.0776412539282151
9.839035266,-1.9695577238974713,-0.07639111844288701,0.19691115698907427
9.844035266,-2.13155895102546,-0.2675842667984056,0.3227718790778484
9.849035232,-2.277871438263377,-0.4488576348683312,0.45418937522606745
9.854035232,-2.4067469994212334,-0.6195890924497952,0.5900184046828135
9.859035232,-2.5166388405056233,-0.7793415794322658,0.729013637761091
9.864036132,-2.6062178954664668,-0.9278650807987223,0.869842530602098
9.869036998,-2.674386574395043,-1.065096034156827,1.011099838174061
9.874037864,-2.720289799999978,-1.1911542124672236,1.151323607563473
9.879038697,-2.743323232334944,-1.3063371590207626,1.2890124683398967
9.884038663,-2.743138608666234,-1.4111122819470208,1.4226440146682018
9.889038629,-2.7196461546342627,-1.5061067414030194,1.550694054593486
9.894038629,-2.673014053830389,-1.5920952843880831,1.6716564849168773
9.899038629,-2.6036649948281574,-1.6699862004446575,1.7840635346528926
9.904038662,-2.5122698467977878,-1.740805586977889,1.8865061057687245
9.909038695,-2.3997385463256222,-1.805680126044065,1.9776539267087005
9.914038728,-2.2672083082317624,-1.8658185854231277,2.0562752224967644
9.919038728,-2.1160293014154106,-1.922492265541055,2.121255595762002
9.924038728,-1.947747956621269,-1.977014620167532,2.1716158069122398
9.929038694,-1.7640880962496612,-2.0307202827292055,2.206528140113648
9.934038694,-1.566930096794804,-2.084943731819952,2.2253310459576072
9.939038694,-1.35828831219228,-2.140997829677279,2.2275417628380056
9.944038727,-1.1402870015028967,-2.2001524668225714,2.2128666380228883
9.949039593,-0.9151350173998481,-2.263613545453557,2.1812088967200722
9.954039593,-0.6850995233854964,-2.332502533967228,2.1326736431750066
9.959039559,-0.4524790179859613,-2.4078368251692237,2.067569921522481
9.964039525,-0.21957595377338604,-2.490511130740306,1.9864097146342006
9.969039491,0.011330751453398617,-2.5812801433644026,1.8899038148628724
9.974039491,0.238013003881832,-2.6807426943360206,1.7789545593715608
9.979039524,0.45832030465543705,-2.7893276272719003,1.6546454827318875
9.984039357,0.6702056722497678,-2.9072815967883274,1.5182279991205734
9.98904029,0.8717503754202781,-3.0346589840404463,1.3711052846621656
9.99404029,1.061187129080642,-3.1713140987673416,1.2148135866696637
9.99904029,1.2369214045924035,-3.316895810642191,1.0510012405261557
10.00404026,1.3975505125061283,-3.4708447226388706,0.8814057265193662
10.00904022,1.5418801306901624,-3.6323929670116115,0.7078291471114464
10.01404022,1.6689379748417625,-3.8005666704064183,0.5321125475183274
10.01904026,1.7779843423828317,-3.9741910973923655,0.3561095355893126
10.02404029,1.8685193045140207,-4.151898440289699,0.18165967758131146
10.02904029,1.9402863727793405,-4.332138178535779,0.010562153088099843
10.03404029,1.9932725228843464,-4.513189886462224,-0.15544985386662769
10.03904029,2.027704517466264,-4.693178329111749,-0.31473356705330413
10.04403962,2.0440415306415933,-4.870090655777816,-0.4657593972764218
10.04903895,2.0429641416220186,-5.041795482298576,-0.6071316834199367
10.05403892,2.025359833938604,-5.206063645464246,-0.7376070287759423
10.05903892,1.9923052109221127,-5.360590414270543,-0.8561099134298786
10.06403892,1.9450452145402415,-5.503018950134407,-0.9617453193732424
10.06903895,1.8849697085385047,-5.6309648178241885,-1.0538081680114806
10.07403895,1.8135878522773472,-5.742041357011618,-1.131789437362162
10.07903829,1.7325007441378415,-5.833885728253904,-1.1953788961648175
10.08403825,1.643372850969324,-5.904185445573663,-1.2444644628958066
10.08903825,1.5479027635390568,-5.950705200700912,-1.2791282685551935
10.09403825,1.4477938293172263,-5.971313772383146,-1.2996395723565113
10.09903828,1.3447252146505124,-5.964010799109232,-1.3064447479665804
10.10403829,1.240323938687997,-5.926953176195234,-1.3001546229962995
10.10903828,1.1361384009875568,-5.858480819510023,-1.2815295134778044
10.11403829,1.0336138935871177,-5.757141519599815,-1.251462344308721
10.11903828,0.9340705471056489,-5.621714593539798,-1.21096028144508
10.12403829,0.8386841096312576,-5.451233029626591,-1.161125318092278
10.12903825,0.7484698963990717,-5.24500381386991,-1.1031342542810114
10.13403842,0.6642701770145417,-5.0026261284388776,-1.0382184896142892
10.13903842,0.5867451862376256,-4.724007121431308,-0.9676440172839901
10.14403845,0.5163678575750777,-4.409374964518684,-0.8926919680355005
10.14903848,0.4534222913062485,-4.059288939382005,-0.8146400084645062
10.15403848,0.3980058855178954,-3.674646324025019,-0.7347448505853174
10.15903848,0.3500349846039385,-3.2566858844839945,-0.6542260805257905
10.16403845,0.3092538367144767,-2.8069878147767433,-0.5742514652940168
10.16903842,0.2752465995728826,-2.3274700070609127,-0.4959238497013765
10.17403838,0.24745209110732447,-1.820380574078467,-0.42026971203531144
10.17903838,0.22518094545055303,-1.2882865865826136,-0.3482294076339224
10.18403841,0.2076348046710133,-0.7340590296373172,-0.28064909476378685
10.18903845,0.19392715154126955,-0.16085402398429144,-0.2182743080776733
10.19403915,0.18310536886600554,0.42790959731493056,-0.16174512218341655
10.19903981,0.1741735970532828,1.028576220827991,-0.11159283136233161
10.20403981,0.1661159547097042,1.6372827096414262,-0.06823806010594868
10.20903978,0.1579196881026334,2.249990753149671,-0.03199021140517588
10.21403978,0.14859782503055252,2.86252202934282,-0.0030481546855680446
10.21903978,0.13721092690841327,3.4705958517822313,0.018497947083146154
10.22403981,0.1228875588856825,4.06986892779009,0.03266377082514786
10.22904048,0.10484313037782304,4.655976811125897,0.03956702310895304
10.23404048,0.0823967963225275,5.224576592265278,0.03942277553244804
10.23904044,0.05498615164911054,5.771390333378088,0.03253802748901053
10.24404041,0.022179496744145155,6.292248724870544,0.01930557072238753
10.24904038,-0.01631450090487936,6.78313441794528,0.00019722383396081556
10.25404038,-0.0606398749578265,7.240224474851267,-0.024243500004208857
10.25904038,-0.11078923503396325,7.65993137639258,-0.05340923254658067
10.26404041,-0.16660247567583036,8.038942035023366,-0.08663704003781984
10.26904044,-0.22776829941171783,8.374254281063756,-0.1232171066568041
10.27404081,-0.29382848853715254,8.66321031865587,-0.16240175482517297
10.27904081,-0.3641848176682781,8.903526686585604,-0.2034147427091907
10.28404081,-0.43810845954524125,9.093320306578127,-0.24546077505316385
10.28904077,-0.514751700233005,9.231130257312582,-0.2877351582650609
10.29404077,-0.5931617470561218,9.315934974732665,-0.3294335250311284
10.29904077,-0.6722963835661471,9.347164646295854,-0.36976154814813195
10.30404081,-0.7510412008294465,9.324708636541752,-0.4079445578684562
10.30904081,-0.8282281135876883,9.248917851861341,-0.4432369717073794
10.31404081,-0.9026548535732664,9.120602021878716,-0.4749314402728426
10.31904081,-0.9731051206050058,8.941021941826211,-0.5023676074888321
10.32404081,-1.0383690652223514,8.711876783355633,-0.5249403791368841
10.32904081,-1.0972637747171454,8.435286639473443,-0.5421075905621435
10.33404077,-1.148653437521554,8.11377052239935,-0.5533969632676317
10.33904077,-1.1914688688002555,7.750220081385998,-0.5584122415562434
10.34404077,-1.2247260924403716,7.347869351531672,-0.5568384050620327
10.34904081,-1.2475436911725781,6.910260885066171,-0.5484458616219191
10.35404081,-1.2591586571278557,6.441208654021991,-0.5330935379462152
10.35904081,-1.2589404994669966,5.944758147911192,-0.5107308030626827
10.36404077,-1.2464033932435064,5.425144122120665,-0.4813981812539371
10.36904077,-1.221216183549639,4.886746482194845,-0.445226836518351
10.37404077,-1.1832100904430407,4.334044815837772,-0.40243683843974914
10.3790408,-1.1323839926788521,3.7715721079784252,-0.35333424845117095
10.38404084,-1.0689072019293437,3.2038681939479265,-0.29830709428253105
10.38904084,-0.9931196745889193,2.635433520607306,-0.23782032695686078
10.39404084,-0.9055296464725076,2.0706837934494704,-0.1724098765536864
10.39904084,-0.8068087176204102,1.5139060870668462,-0.10267593740444408
10.40404084,-0.6977844599554185,0.9692169845622338,-0.02927561856604308
10.40904084,-0.5794306681399342,0.44052328659187046,0.04708490850985598
10.4140408,-0.4528554209714507,-0.06851420797339916,0.12565864332094798
10.4190408,-0.319287164286057,-0.5545133994681094,0.20566625994373022
10.42404047,-0.18005906463181284,-1.014399674938464,0.2863047767813779
10.4290405,-0.036591914582370856,-1.4454304672461658,0.3667562878956392
10.4340405,0.10962410603668124,-1.8452153403062608,0.4461966466451832
10.4390405,0.25704849549612474,-2.211731428522267,0.523803989719043
10.44404047,0.4041100029762768,-2.543334130778457,0.5987669957387394
10.44904044,0.5492263997092989,-2.8387630299468096,0.670292789880403
10.4540404,0.6908241591197275,-3.0971430779424693,0.7376144310036924
10.4590404,0.8273577834948627,-3.317981153922681,0.7999979433606035
10.46404043,0.9573285454052458,-3.5011581685845097,0.8567488745303838
10.46904047,1.0793024432749176,-3.6469169493665827,0.9072183720082299
10.4740405,1.191927199171109,-3.7558461982189453,0.9508087739346348
10.4790405,1.2939481508944153,-3.8288608641870034,0.9869787079866716
10.4840405,1.3842229088505444,-3.867179316370703,1.0152476899839518
10.48904047,1.4617346612312878,-3.8722977381625134,1.0352002126579207
10.49404047,1.525604019794829,-3.845962190568401,1.0464893157112254
10.49904047,1.575099304268822,-3.790138810588737,1.0488396297542082
10.5040405,1.6096451672146594,-3.706982620013416,1.0420498879432105
10.50904053,1.6288294642256815,-3.598805420825378,1.0259948999864459
10.51404053,1.6324082779958948,-3.468043246309901,1.00062698397377
10.5190405,1.6203090106664289,-3.3172238227604645,0.9659768524881865
10.52404046,1.5926314683107798,-3.148934476271507,0.9221539506980261
10.52904043,1.5496468753689305,-2.96579089343064,0.8693462455004413
10.5340404,1.4917947757276657,-2.7704071146144424,0.8078194660182509
10.5390404,1.4196778010262292,-2.5653671047701336,0.7379157964198936
10.54404043,1.3340543153174644,-2.353198209600933,0.6600520218543189
10.54904046,1.2358289776991438,-2.136346765413275,0.574717127549232
10.5540405,1.1260412998398963,-1.9171560888905848,0.482469350802224
10.5590405,1.0058523121390945,-1.6978470290668533,0.38393268702372774
10.5640405,0.8765294893326674,-1.4805012181784662,0.2797928550521313
10.56904046,0.7394301227479042,-1.2670471113705262,0.170792733468556
10.57404046,0.5959833614674852,-1.0592488579730395,0.057727287378206336
10.57904046,0.4476711777679804,-0.8586979997717477,-0.05856198750908211
10.58404049,0.2960085425080227,-0.6668079448937111,-0.1771930709920386
10.58904049,0.14252312253274893,-0.4848111202129409,-0.29724983884756817
10.59404049,-0.01126516660716729,-0.3137586613648765,-0.41778886072778765
10.59904049,-0.16386440444275668,-0.15452245859298105,-0.5378465389393559
10.60404049,-0.31383035028611267,-0.007799339980304417,-0.6564465522679446
10.60904049,-0.45978521429509606,0.12588285751829134,-0.7726075689027684
10.61404046,-0.600435170545773,0.24615760311352333,-0.8853511908696262
10.61904046,-0.7345862872791808,0.3528106634317757,-0.9937100890682993
10.62404046,-0.8611585781346482,0.4457700675110427,-1.0967362833243335
10.62904049,-0.9791979155250274,0.5250953410898845,-1.1935095162164393
10.63404053,-1.0878855927760787,0.5909662942965087,-1.2831456632238591
10.63904053,-1.18654537442768,0.6436716263778811,-1.3648051153442111
10.64404049,-1.274647933007507,0.6835975826584026,-1.4377010640882575
10.64904046,-1.3518126340312318,0.7112168640927332,-1.501107612765252
10.65404046,-1.4178066968530614,0.7270779505165847,-1.5543676320665605
10.65904046,-1.472541824693458,0.7317949570447864,-1.5969002719943424
10.66404049,-1.5160684598207514,0.7260381010149006,-1.6282080364942249
10.66904049,-1.5485678766173037,0.7105248162640045,-1.6478833226003509
10.67404049,-1.5703423735903639,0.6860115139508913,-1.655614323374829
10.67904049,-1.5818038632458862,0.6532859558946611,-1.651190193776693
10.68404049,-1.583461184735102,0.6131601784550856,-1.6345053806246121
10.68904049,-1.5759064777269143,0.5664638829692286,-1.605563021670797
10.69404006,-1.559800957351116,0.5140381930657044,-1.5644773243494354
10.69904006,-1.5358604203579065,0.45672966998185593,-1.5114748421348418
10.70404006,-1.5048407933826837,0.39538447431897406,-1.4468945758686182
10.70904009,-1.467524007135105,0.3308425663662732,-1.371186839102138
10.71404009,-1.4247044472968295,0.26393184696383426,-1.2849108406657226
10.71904009,-1.3771761957922233,0.1954621564772965,-1.1887309544561764
10.72404006,-1.3257212366169868,0.12621907034390922,-1.0834116655546078
10.72904006,-1.2710987599594206,0.05695745529330521,-0.9698112022798322
10.73404006,-1.214035657989749,-0.011605219927395343,-0.8488738842530609
10.73904009,-1.1552182664349238,-0.07879579277468413,-0.7216212359708051
10.74404009,-1.0952853691983746,-0.14399247356326614,-0.5891419337990705
10.74904009,-1.0348224504188206,-0.20663197715415935,-0.4525806727493599
10.75404009,-0.9743571509069217,-0.2662165968092803,-0.313126059036742
10.75904009,-0.9143558645978513,-0.32232107307421454,-0.17199765561820607
10.76404009,-0.855221395550656,-0.37459909252879636,-0.030432329956501716
10.76904006,-0.7972915867728806,-0.42278924006296054,0.11032992530223724
10.77404002,-0.7408388283015187,-0.46672022439313277,0.24906050888938802
10.77904002,-0.6860703530023301,-0.5063152000653791,0.3845568594703823
10.78404002,-0.6331292337754048,-0.5415950201215242,0.5156570203839468
10.78904005,-0.5820960044092923,-0.5726802714898376,0.6412538996454286
10.79404005,-0.5329908372758341,-0.5997919692456642,0.7603090049118384
10.79903969,-0.48577622361722883,-0.6232508150799839,0.8718654392215782
10.80382061,-0.4403601158050614,-0.6434749580151434,0.9750599540822831
10.80882057,-0.39659950506941294,-0.66097622939542,1.069133870436707
10.81382054,-0.3543044216949819,-0.6763548569105954,1.1534426934991586
10.81882054,-0.3132423558847066,-0.6902926917278908,1.2274642630909696
10.82382057,-0.2731431048121378,-0.7035450075721028,1.2908052964937256
10.82882061,-0.23370405397046287,-0.7169309507349234,1.3432061966251372
10.83382064,-0.19459589867424204,-0.7313227360783194,1.3845440158342208
10.83882064,-0.1554688047385961,-0.7476336968689289,1.4148334861328964
10.84382104,-0.11595899633813973,-0.7668053064825894,1.4342260510866631
10.84882101,-0.07569574436885128,-0.7897932984591656,1.4430068631597974
10.853821,-0.03430871104674545,-0.8175530190514766,1.4415897428694322
10.85882101,0.008564413062269717,-0.8510241543943613,1.4305101320917468
10.86382104,0.053270063766261706,-0.8911149836825206,1.4104161123548768
10.86882104,0.10013085395526616,-0.9386863208633788,1.3820575986672972
10.87382104,0.14943764305786042,-0.9945353204020124,1.3462738588799426
10.878821,0.20144176390881904,-1.0593793372537144,1.303979546368668
10.88382097,0.2563475579789279,-1.133840046459078,1.2561494689734216
10.88882094,0.3143053778305952,-1.2184280426095826,1.203802349203749
10.89382094,0.3754052185649778,-1.3135281524784939,1.1479838595720393
10.89882094,0.4396711373292484,-1.419385703972217,1.0897492421299355
10.90382097,0.5070566112356077,-1.5360939999168242,1.0301458415842981
10.908821,0.577440969413222,-1.6635832449579206,0.970195894532473
10.91382104,0.6506270153304208,-1.801611167211942,0.9108799209276986
10.91882104,0.7263399326818932,-1.9497555627400338,0.8531210561824982
10.92382104,0.8042275437726991,-2.1074089701342382,0.7977706427912207
10.928821,0.8838619644821638,-2.273775654486228,0.745595369270561
10.933821,0.9647426748017689,-2.447871045195586,0.6972662024825425
10.938821,1.0463009986641505,-2.6285237315823364,0.6533493087337998
10.94382103,1.1279059616877996,-2.814380075822613,0.6142991019622529
10.9488214,1.2088714710584747,-3.00391145636226,0.5804534967646692
10.9538214,1.2884647380620458,-3.195424108703157,0.5520313829324638
10.9588214,1.3659158399832045,-3.3870714861262767,0.5291322794239826
10.9638214,1.440428292938943,-3.5768690220797588,0.5117380722400415
10.9688214,1.511190479723666,-3.7627111398814446,0.49971669545818953
10.97382137,1.5773877468453714,-3.9423903250257437,0.49282758044251396
10.97882137,1.6382149538689064,-4.113618051460693,0.49072867687366295
10.98382137,1.6928892284559292,-4.274047335995419,0.49298484093426886
10.9888214,1.740662655634938,-4.4212966838585475,0.4990773885082829
10.9938214,1.7808346138288476,-4.552975181542486,0.5084146201707317
10.9988214,1.8127634662931684,-4.666708488056051,0.5203431348079133
11.00382136,1.8358773264115829,-4.760165470643395,0.5341597557017574
11.00882133,1.8496836384939885,-4.831085225079398,0.5491238949436775
11.01382133,1.853777350951413,-4.877304214098647,0.5644701797655478
11.01882136,1.8478475040234255,-4.896783251441511,0.5794211602791217
11.0238214,1.8316821071156248,-4.887634054845516,0.5931999154074998
11.0288214,1.805171238104697,-4.8481450902313314,0.6050423753009051
11.0338214,1.7683083547694232,-4.7768064316029974,0.6142091858095243
11.03882106,1.7211898623984,-4.672333366126557,0.6199969535207964
11.0438204,1.664013027571548,-4.533688480489193,0.6217487271354237
11.0488204,1.5970723636383017,-4.360101972437795,0.6188635910434012
11.05382036,1.52075463850653,-4.151089940410389,0.610805268644529
11.05882036,1.435532672471066,-3.9064704145780293,0.5971096547799554
11.06382036,1.3419581064211041,-3.626376904197152,0.5773912165053635
11.0688204,1.2406533309656538,-3.3112692483888275,0.5513482175422022
11.07381983,1.1323027744782468,-2.96194157000376,0.5187667340181022
11.07881943,1.017643751374714,-2.5795271455783437,0.47952343926139657
11.08381939,0.8974570702053155,-2.165500019874844,0.43358714564933803
11.08881939,0.7725575941067588,-1.721673212907972,0.3810191034407432
11.09381939,0.6437849337993744,-1.2501933922690214,0.32197207090223146
11.09881943,0.5119944358059066,-0.7535319147567463,0.2566881868327539
11.10381943,0.37804860624002745,-0.2344721785344915,0.18549569515516412
11.10881943,0.24280908400702342,0.3039067308871089,0.1088045904038545
11.11381943,0.10712924812800459,0.8582500720212601,0.02710127108534161
11.11881943,-0.028152485408153058,1.424951079520299,-0.05905769658691377
11.12381943,-0.1622186491180993,2.0001780711439445,-0.14905259018419603
11.12881939,-0.29427798785958037,2.5799048534547686,-0.242208195366058
11.13381936,-0.42357001819633144,3.1599441994667736,-0.33780199630510155
11.13881936,-0.5493689187697531,3.7359841211881126,-0.4350727647187029
11.14381939,-0.670986802424082,4.303626611226093,-0.5332294221512014
11.14881943,-0.7877764322466221,4.85842848176876,-0.63146005460791
11.15381942,-0.8991334502762443,5.395943887738565,-0.7289409646873664
11.15881942,-1.0044981889117872,5.911768084941741,-0.8248456534377541
11.16381939,-1.1033571312607875,6.401581944454095,-0.9183536318545753
11.16881936,-1.195244078555591,6.861196721698516,-1.0086589698321342
11.17381932,-1.2797410713062347,7.2865985627924035,-1.0949784981761126
11.17881932,-1.3564790972281793,7.673992221805861,-1.1765595870068182
11.18381936,-1.425138604586699,8.019843460624779,-1.2526874319302819
11.18881972,-1.485449826035657,8.32091960820917,-1.3226917881923923
11.19382042,-1.537192906893343,8.574327768200597,-1.3859531028032124
11.19882042,-1.580197824338352,8.777550183028014,-1.441908005022012
11.20382042,-1.6143440807390244,8.928476288697789,-1.4900541260917488
11.20882039,-1.6395601549554277,9.0254310268205,-1.5299542292712363
11.21382039,-1.6558226992252585,9.06719901820117,-1.5612396409136253
11.21882039,-1.6631554753985927,9.0530442442743,-1.5836129827059207
11.22382099,-1.6616280321463104,8.982724927521286,-1.5968502142967806
11.22882139,-1.6513541336405642,8.856503348696716,-1.6008020041603375
11.23382139,-1.632489959385895,8.675150386589301,-1.5953944540377203
11.23882135,-1.6052321037630835,8.439944615098797,-1.5806292078132442
11.24382132,-1.56981541194558,8.152665843039474,-1.5565829785502585
11.24882129,-1.5265106956348775,7.815583034951581,-1.5234065275434594
11.25382129,-1.4756223768480061,7.431436607059525,-1.4813231272024512
11.25882129,-1.4174861100011429,7.003415152048431,-1.4306265362594008
11.26382132,-1.3524664311142014,6.535126710022722,-1.3716785119485466
11.26882135,-1.280954477760169,6.030564771000954,-1.3049058797529962
11.27382139,-1.2033658144646662,5.4940692663159165,-1.2307971769749901
11.27882138,-1.1201383861873417,4.930282881626506,-1.1498988816329236
11.28382139,-1.031730608392259,4.344103101796833,-1.0628112332336443
11.28882135,-0.9386195876709853,3.7406304761710345,-0.9701836474773952
11.29382135,-0.8412994538838302,3.1251136699477184,-0.8727097238194853
11.29882135,-0.7402797751848127,2.5028919413287274,-0.771121843847472
11.30382138,-0.6360840223051254,1.8793357525999952,-0.666185360253413
11.30882138,-0.5292480482882789,1.2597862840572072,-0.5586923812999979
11.31382138,-0.4203185536434157,0.6494946707052179,-0.4494551645264498
11.31882138,-0.3098515130642629,0.05356182111638164,-0.33929914622080704
11.32382138,-0.19841054680984793,-0.5231202960795299,-0.22905564979257956
11.32882138,-0.08656522624347777,-1.0759250016447022,-0.11955433627023916
11.33382135,0.025110692032774197,-1.6005440002091968,-0.011615483084311307
11.33882135,0.13604110607353753,-2.0930363514567203,0.09395779831765054
11.34382135,0.24564948442492093,-2.5498724894643794,0.19638727237311115
11.34882138,0.35336086124592275,-2.967972518699861,0.29492706532299107
11.35382138,0.45860391725357885,-3.344738090094375,0.3888707670309256
11.35882138,0.560813157174698,-3.6780772543201357,0.4775579913549346
11.36382135,0.659431198514946,-3.9664218028621843,0.5603802510964966
11.36882135,0.7539111898518114,-4.20873674103851,0.6367860243726587
11.37382135,0.8437193792336839,-4.404521689810095,0.7062849138190128
11.37882138,0.9283378544294889,-4.553804182150117,0.7684508260220464
11.38382142,1.0072674762312401,-4.657124999888176,0.8229241258845087
11.38882142,1.0800310229813526,-4.715515881290602,0.8694127505034441
11.39382142,1.1461765581645105,-4.73047010974003,0.9076923004545817
11.39882142,1.2052810226443664,-4.703906660918163,0.937605162274025
11.40382142,1.2569540387128766,-4.63812873189193,0.9590587516587051
11.40882142,1.3008418950535687,-4.535777594212414,0.9720229985588951
11.41382138,1.3366316614126592,-4.399782800405884,0.976527218944375
11.41882138,1.364055361240829,-4.23330982697166,0.9726565307681059
11.42382138,1.3828941117072018,-4.039706257054838,0.9605479729291048
11.42882141,1.3929821245013558,-3.822447593951952,0.9403864778904851
11.43382141,1.3942104482967628,-3.58508375544668,0.9124008348378461
11.43882141,1.3865303250764003,-3.331187232251901,0.8768597645390339
11.44382138,1.369956028400416,-3.0643038054810674,0.8340682112707091
11.44882135,1.344567053014487,-2.787906612279361,0.7843639409572494
11.45382131,1.3105095326880152,-2.505354229842279,0.7281145163045979
11.45882131,1.2679967770884608,-2.219853320208789,0.6657146976900548
11.46382135,1.217308838500814,-1.9344262452211043,0.5975842928922324
11.46882138,1.1587910443961797,-1.6518839263004155,0.5241664511863584
11.47382141,1.0928514609775641,-1.374804090425841,0.4459263705794357
11.47882141,1.0199572845377476,-1.1055149151413834,0.36335036348328315
11.48382141,0.9406301905485622,-0.8460839647673639,0.27694520750311014
11.48882138,0.8554407038050476,-0.598312200297634,0.18723769483423242
11.49382138,0.7650016856317373,-0.3637327493031455,0.09477428572353666
11.49882138,0.6699610650236062,-0.1436140414043535,0.00012076770641329666
11.50382141,0.5709939684705884,0.061033149401349816,-0.09613817812219055
11.50882144,0.46879442683433753,0.24944526164381578,-0.1933996004082999
11.51382144,0.3640668556780704,0.4210926391268214,-0.291043182489518
11.51882141,0.25751751668889505,0.5756639102784078,-0.38843251393910483
11.52382138,0.1498461714702006,0.7130486035952983,-0.48491680363724154
11.52882134,0.041738134772347224,0.8333185334242983,-0.5798330964582403
11.53382131,-0.06614307759715388,0.936708462907743,-0.6725090403827125
11.53882131,-0.17316232988567562,1.0235965133418758,-0.7622662336739682
11.54382134,-0.27871852561967,1.0944847435619676,-0.8484241631990556
11.54882137,-0.3822492249864423,1.1499802713719132,-0.9303047254925788
11.55382141,-0.4832341357933182,1.190777253385305,-1.0072373022958214
11.55882141,-0.5811974318181993,1.2176399815550336,-1.0785643427267315
11.56382141,-0.6757088922500524,1.2313872955490763,-1.1436473857007636
11.56882137,-0.7663838957793255,1.2328784513375342,-1.2018734394409973
11.57382137,-0.8528823413263504,1.2230005292622295,-1.2526616204586902
11.57882137,-0.9349066031078594,1.2026574108412589,-1.295469942663748
11.5838214,-1.012198659583762,1.1727603039676098,-1.3298021385923489
11.58882141,-1.0845365627681451,1.13421975224782,-1.355214389408714
11.5938214,-1.1517304355011306,1.0879390269974574,-1.3713218386298016
11.5988214,-1.2136181986731807,1.0348087704820146,-1.3778047665604702
11.60382141,-1.2700612371693947,0.9757027366087339,-1.3744143079049
11.6088214,-1.3209402116348594,0.9114744604280828,-1.3609776030453937
11.61382137,-1.3661512125999242,0.8429546803043225,-1.337402282838287
11.61882137,-1.4056024342704398,0.7709493360538476,-1.30368019649535
11.62382137,-1.4392115183439418,0.6962379720409112,-1.2598903018407188
11.6288214,-1.4669036850358017,0.6195723852619333,-1.2062006470894322
11.63382144,-1.4886107307916336,0.541675373878542,-1.1428693834906518
11.63882144,-1.5042709317077105,0.4632394605229758,-1.0702447588108426
11.6438214,-1.5138298503422045,0.38492548602116555,-0.9887640528616514
11.64882137,-1.5172420032758465,0.3073609919588115,-0.8989514284774044
11.65382137,-1.514473309275486,0.23113833383784887,-0.8014146849069881
11.65882137,-1.5055042047968983,0.15681248973767212,-0.6968409156063836
11.6638214,-1.490333286023484,0.0848985519472308,-0.5859910886211301
11.6688214,-1.4689813153607343,0.015868910579099255,-0.4696935845452286
11.6738214,-1.4414954155030248,-0.0498498418368324,-0.348836743635523
11.6788214,-1.4079532658205718,-0.11188023814150959,-0.22436048917694437
11.6838214,-1.3684671138446556,-0.16989743563419207,-0.09724710792877501
11.6888214,-1.3231874190620858,-0.2236328146856413,0.031488719862132156
11.69382137,-1.2723059568954702,-0.2728775981013964,0.16081053864095002
11.69882137,-1.216058227101892,-0.31748640846727455,0.28967127336515697
11.70382137,-1.1547250319380535,-0.35738067874680046,0.4170248051315059
11.7088214,-1.0886331140640653,-0.3925518304681109,0.5418378423436786
11.7138214,-1.0181547708626901,-0.42306413304097473,0.6631019575082946
11.7188214,-0.9437063893520417,-0.44905715645591815,0.779845654662637
11.72382137,-0.8657458734079612,-0.4707477276999793,0.8911463273596694
11.72882137,-0.7847689624760198,-0.4884312990638841,0.9961419612318712
11.73382137,-0.7013044686091368,-0.502482634772998,1.094042427603517
11.7388214,-0.6159084866996668,-0.513355721647028,1.1841402051061025
11.7438214,-0.5291576609649989,-0.5215828101311002,1.2658203554497058
11.7488214,-0.44164161842476174,-0.527772494168846,1.3385695691758874
11.7538214,-0.35395470627890196,-0.53260674206492,1.4019840898106506
11.7588214,-0.2666871936148408,-0.5368367958934148,1.455776322817104
11.7638214,-0.18041611769724994,-0.5412778645838212,1.4997799409315007
11.76882137,-0.09569597053949425,-0.5468025462003239,1.5339533105868997
11.77382133,-0.013049432275858858,-0.5543329287564931,1.5583810848980924
11.77882133,0.0670416358766809,-0.5648313365413411,1.5732738361828382
11.78382133,0.14414472437473264,-0.5792897103367544,1.578965634028329
11.78882136,0.21788452147160903,-0.5987176346942967,1.5759095121863689
11.79382137,0.28794986693235236,-0.6241290531024432,1.5646708078563452
11.79882136,0.3540996184213709,-0.6565277420583275,1.5459183991426773
11.80382133,0.4161672508283085,-0.6968916476799047,1.5204139098468101
11.80882133,0.4740640283595037,-0.7461562236113736,1.4889989946413207
11.81382133,0.5277806131699524,-0.805196946496772,1.4525808615982907
11.81882136,0.5773870025576195,-0.8748112247218327,1.4121162328275143
11.82382136,0.6230307190994342,-0.9556999563551116,1.3685939877879336
11.82882136,0.6649332143037979,-1.0484490314719157,1.3230167778058568
11.83382136,0.7033844860310411,-1.153511109934656,1.2763819439355912
11.83882136,0.7387359526731662,-1.2711880355886103,1.2296621118388318
11.84382136,0.7713916724616883,-1.4016142692379754,1.1837858738228142
11.84882133,0.8017980438291277,-1.5447417336237026,1.139618995483963
11.85382133,0.8304321717844255,-1.700326462367196,1.0979465982998886
11.85882133,0.8577891344509192,-1.8679174306255275,1.0594567669115942
11.86382136,0.8843684309485315,-2.0468479180985586,1.024726009687302
11.86882136,0.9106599333283345,-2.2362297158595226,0.994206964190434
11.87382136,0.9371296973720449,-2.4349504384451484,0.9682186871776586
11.87882133,0.9642060063077834,-2.6416741433229407,0.9469398043510426
11.8838213,0.992266026043141,-2.8548453935714138,0.9304047216820905
11.88882126,1.0216234405752984,-3.07269682942735,0.918503021090149
11.89382126,1.0525174133525204,-3.2932602435910723,0.9109820809299337
11.89882126,1.0851031864151215,-3.5143810868972394,0.907452877664204
11.90382129,1.1194445857996653,-3.7337362676460333,0.9073988412981261
11.90882133,1.1555086503580205,-3.948855051266756,0.9101875567077463
11.91382136,1.1931625432947643,-4.157142817916907,0.9150850292288897
11.91882136,1.2321728433151253,-4.355907394142798,0.9212721682899156
11.92382136,1.272207247751341,-4.542387640100361,0.9278630888141183
11.92882133,1.312838655824076,-4.713783944742211,0.9339247870791194
11.93382133,1.3535515383294197,-4.867290256539307,0.9384977158882053
11.93882133,1.393750442344409,-5.00012725623445,0.9406167637327796
11.94382136,1.432770427751931,-5.1095762614201,0.9393321352574614
11.94882136,1.4698891877217557,-5.193013441715758,0.933729637546536
11.95382136,1.5043405679844588,-5.247943919370529,0.922949900186514
11.95882132,1.5353291692396318,-5.272035334129044,0.9062060974521
11.96382129,1.5620456929006166,-5.263150463266417,0.8827997977071006
11.96882126,1.5836826733123661,-5.2193785069013625,0.852134636008949
11.97382126,1.5994502319279105,-5.139064673023272,0.8137275867162629
11.97882129,1.6085914939381236,-5.020837723408937,0.7672176971299822
11.98382132,1.6103973277666568,-4.86363516826967,0.712372223034469
11.98882136,1.6042201020569704,-4.666725822484697,0.6490901758288373
11.99382136,1.5894861997172312,-4.429729458840425,0.5774033461030376
11.99882136,1.5657070794012298,-4.152633313381847,0.497474911711465
12.00382132,1.5324887272825412,-3.835805214952012,0.4095957731390489
12.00882129,1.4895393934127716,-3.480003126488687,0.31417878802273197
12.01382129,1.4366755555385105,-3.0863809018403456,0.21175110192302335
12.01882132,1.3738260971384626,-2.656490081167662,0.102944795706073
12.02382135,1.3010347241600049,-2.192277572530761,-0.011513907038054725
12.02882135,1.218460676462161,-1.696079098536699,-0.1308166060001525
12.03382135,1.126377816159549,-1.1706083254964208,-0.2540855762271348
12.03882135,1.0251721958550637,-0.6189416378962662,-0.380387204984654
12.04382102,0.915338223793281,-0.04449857174108858,-0.5087457100321098
12.04882102,0.797473549123273,0.5489820254233083,-0.6381568486228157
12.05382099,0.6722727894470198,1.157469984265241,-0.7676013533736789
12.05882099,0.5405202173981977,1.7766757742346126,-0.8960578680612564
12.06382099,0.40308151653079755,2.402086202275473,-1.0225151975969078
12.06882102,0.26089471153874383,3.02900356580509,-1.14598372667863
12.07382035,0.11496037427470115,3.652587927251339,-1.265505897810006
12.07882035,-0.03366879506213968,4.267902130318833,-1.3801656705662784
12.08382032,-0.1838989126248831,4.869959132306889,-1.489096910437041
12.08882032,-0.33460628064252834,5.453771182506463,-1.5914906780763618
12.09382032,-0.4846490768130005,6.014400334850179,-1.6866014094446586
12.09882035,-0.6328792514972693,6.54700974487316,-1.7737519952154215
12.10382035,-0.7781545131689825,7.046915168241036,-1.8523377845234426
12.10882035,-0.9193502744683119,7.509636052364439,-1.9218295536068
12.11382035,-1.0553714234396592,7.930945595702597,-1.9817754938327945
12.11882035,-1.1851637780963276,8.306919142730912,-2.031802285734729
12.12382035,-1.307725078366202,8.633980287014895,-2.0716153357945704
12.12882032,-1.4221153683993868,8.908944070387163,-2.1009982605389497
12.13382028,-1.52746662440825,9.129056692253155,-2.119811707893599
12.13882028,-1.6229914887199188,9.292031178642832,-2.127991608634778
12.14382032,-1.7079909796641424,9.396078504653111,-2.1255469512927676
12.14882035,-1.7818610595462958,9.43993371493212,-2.1125571722170564
12.15382035,-1.8440979595908185,9.422876643037647,-2.089169248971041
12.15882035,-1.8943021815890384,9.344746889980717,-2.0555945799354784
12.16382032,-1.9321811208529285,9.205952783515665,-2.0121057258110824
12.16882028,-1.957550283209303,9.007474101895896,-1.9590330791753126
12.17382025,-1.9703330989525185,8.750858408744103,-1.896761515893329
12.17882025,-1.970559367425851,8.438210909872115,-1.825727066866064
12.18382028,-1.9583623955480847,8.07217780927872,-1.7464136307832583
12.18882031,-1.933974920325498,7.655923211375178,-1.6593497294240067
12.19382068,-1.8977239274579183,7.193099690926848,-1.5651052884423278
12.19882068,-1.8500244942475876,6.687812732024278,-1.4642884106535903
12.20382068,-1.7913727945220344,6.144579322643455,-1.3575420976182175
12.20882065,-1.7223384064595562,5.568281081190242,-1.2455408702196682
12.21382064,-1.6435560623841383,4.9641123841929895,-1.12898724051626
12.21882065,-1.5557169749999942,4.337524057678246,-1.008607995096281
12.22382135,-1.4595598697526002,3.694163285894644,-0.8851502633746207
12.22882134,-1.355861850322112,3.039810476728386,-0.7593773607849658
12.23382134,-1.2454292251240175,2.3803138999063314,-0.6320644136290489
12.23882064,-1.1290884274145851,1.7215229783468322,-0.5039937856660488
12.24382061,-1.0076771693089424,1.0692211615937546,-0.3759503334973084
12.24882058,-0.8820359788294001,0.42905934092678355,-0.24871651875912204
12.25382058,-0.7530002762694286,-0.19350922244428687,-0.12306740408809398
12.25882058,-0.6213931483745502,-0.7932914913814861,0.00023443809246576032
12.26382061,-0.4880189729111753,-1.3654138281280266,0.12044406701890674
12.26882064,-0.35365803000765633,-1.905376849231262,0.23683931592367352
12.27382068,-0.21906220979855384,-2.4091051116841458,0.3487258730537707
12.27882068,-0.08495188954992934,-2.872990849192906,0.4554422301550743
12.28382068,0.0479859901840879,-3.293931059682974,0.5563644247677008
12.28882064,0.17909866885052866,-3.6693573434251623,0.6509105069128455
12.29382061,0.3077671963287658,-3.997258006162605,0.7385446690369228
12.29882057,0.43340506549051805,-4.276192072986585,0.8187809861491335
12.30382057,0.5554560045615491,-4.505295004774573,0.8911867174760012
12.30882061,0.6733911228471566,-4.684276066638307,0.9553851214463054
12.31382064,0.7867056306123986,-4.813407462566523,1.0110577357493793
12.31882067,0.8949153709044306,-4.893505516935769,1.0579460781899774
12.32382067,0.9975534067560521,-4.9259043459888545,1.0958527351298615
12.32882067,1.0941669010302992,-4.912422614591326,1.1246418225860213
12.33382064,1.1843145083626956,-4.855324109346872,1.1442388281315798
12.33882064,1.2675644702670703,-4.757272972940055,1.1546298657476928
12.34382064,1.3434935675182407,-4.621284532376491,1.1558603966465122
12.34882067,1.4116870412291687,-4.450672713557585,1.1480334839322466
12.35382067,1.471739548566679,-4.248995066146044,1.1313076570225071
12.35882067,1.523257173251154,-4.019996427190903,1.105894464313695
12.36382064,1.5658604665915448,-3.7675522317719983,1.0720557919228204
12.3688206,1.599188453082011,-3.4956124369146884,1.0301010244110895
12.37382057,1.6229034967115716,-3.2081469643868488,0.9803841210106539
12.37882057,1.636696891353355,-2.9090934918840534,0.9233006777086976
12.38382057,1.6402950120090742,-2.6023083335837285,0.8592850405984161
12.38882127,1.6334658439596903,-2.291521053002614,0.7888075281919817
12.3938213,1.6160256941611884,-1.9802933462490218,0.7123718094722422
12.39882134,1.5878458832711861,-1.6719826246672616,0.6305124706349493
12.40382134,1.5488592170214899,-1.3697106149148215,0.5437927875280272
12.40882134,1.4990660417098225,-1.0763371839578426,0.45280270364265696
12.4138213,1.4385396998441804,-0.7944394884598498,0.3581569960407148
12.4188213,1.3674312179848107,-0.5262964445883278,0.2604935947243122
12.4238213,1.2859730792052442,-0.27387841730016604,0.16047200558846186
12.42882134,1.1944819569338554,-0.03884193955323525,0.05877177400412956
12.43382134,1.0933603146685882,0.1774708066660563,-0.04390908431951593
12.43882134,0.9830968062755618,0.37402808274341953,-0.14685576609803538
12.44382134,0.8642654430207175,0.5501006493229273,-0.24933856235347437
12.44882134,0.737523524681293,0.7052502178086147,-0.3506150262602937
12.45382134,0.6036083616736486,0.8393147589393216,-0.44993251152274616
12.4588213,0.46333284206288455,0.952391146834805,-0.5465311596497138
12.4638213,0.31757992086211084,1.044815622134321,-0.6396474043886207
12.4688213,0.16729612864841584,1.1171425522645095,-0.7285180479155762
12.47382133,0.013484211755871677,1.170121951540565,-0.8123849465942506
12.47882133,-0.14280497321261493,1.2046761999078073,-0.8905003245054984
12.48382133,-0.30048118221911113,1.221876368008596,-0.9621327106639685
12.4888213,-0.45842399472632334,1.2229185193872087,-1.0265734711619976
12.4938213,-0.6154923867507242,1.2091003195494765,-1.083143881176985
12.4988213,-0.7705345467706857,1.1817982377902183,-1.131202655228023
12.50382133,-0.9223978246584938,1.1424455826966609,-1.170153829077295
12.50882137,-1.0699387151975428,1.0925115675211554,-1.199454864985149
12.51382137,-1.2120327902579058,1.0334815585918988,-1.2186248348004096
12.51882137,-1.347584506275364,0.9668386198149262,-1.2272525229629725
12.52382137,-1.4755368251089682,0.8940464301132166,-1.2250042837067179
12.52882137,-1.594880595555191,0.8165336191061786,-1.2116314831634496
12.53382137,-1.7046636490143257,0.73567953988902,-1.1869773572869498
12.53882133,-1.8039995656405496,0.6528014764547502,-1.1509831202227094
12.54382133,-1.8920760666584537,0.5691432667968122,-1.1036931646602852
12.54882133,-1.968162984565777,0.48586531057346827,-1.045259205489333
12.55382137,-2.0316197561814615,0.4040359219311682,-0.9759432303739711
12.55882136,-2.0819023748437244,0.32462398316955166,-0.8961191354377831
12.56382136,-2.118569728699872,0.2484928527595878,-0.8062729411829612
12.56882133,-2.141289243242768,0.17639548103155578,-0.7070015034106456
12.5738213,-2.149841739255537,0.108970687864556,-0.599009656745972
12.57882126,-2.144125413095736,0.04674055836475495,-0.48310575473174644
12.58382126,-2.124158845322484,-0.009891085517095964,-0.3601956002369892
12.5888213,-2.0900829461402752,-0.060639177440231326,-0.23127479242696933
12.59382133,-2.042161751870637,-0.10533690133754452,-0.09741955047402646
12.59882136,-1.9807819955102173,-0.14393422491441923,0.04022389212572594
12.60382136,-1.906451386161957,-0.1764955075448834,0.18045119713066038
12.60882136,-1.819795546265528,-0.2031962175205274,0.3220129816418826
12.61382133,-1.7215535713597931,-0.2243187935376123,0.4636288525884637
12.61882133,-1.6125721937842552,-0.24024768600496052,0.6040022228023195
12.62382133,-1.493798548843511,-0.2514636155112315,0.7418357052311386
12.62882136,-1.366271559795648,-0.2585370887590271,0.8758468763168074
12.63382139,-1.2311119774046924,-0.26212121631625535,1.0047841976761207
12.63882139,-1.0895111315311174,-0.26294388120049117,1.12744288541605
12.64382136,-0.9427184766656136,-0.2617993119341278,1.2426805173877666
12.64882133,-0.7920280402064592,-0.25953911756834386,1.349432169487402
12.65382129,-0.6387639109434249,-0.25706284466212614,1.4467248722571195
12.65882126,-0.48426493464939563,-0.2553081169276298,1.533691178447744
12.66382126,-0.3298688127659999,-0.25524041709002454,1.6095816311106703
12.66882129,-0.17689582771965845,-0.25784256759954993,1.6737759208586158
12.67382132,-0.026632443170579313,-0.26410396255244967,1.7257925215243803
12.67882136,0.1196849518788649,-0.275009598100492,1.7652965975736647
12.68382136,0.26088587113694717,-0.2915289434825381,1.792105986463199
12.68882136,0.39588083907729704,-0.31460469039539124,1.8061950762639378
12.69382132,0.523675486407693,-0.3451414155039231,1.8076964238170028
12.69882132,0.6433833479787773,-0.38399419010942587,1.7968999909554342
12.70382132,0.7542370936567564,-0.4319571727676048,1.7742499147466195
12.70882136,0.8555979457699951,-0.4897522251631973,1.7403387708632456
12.71382136,0.9469630671787309,-0.5580175989141682,1.6958993356580443
12.71882136,1.0279707415753543,-0.6372967514006573,1.6417939010412923
12.72382136,1.0984032117810218,-0.7280273624722856,1.579001245805468
12.72882136,1.1581870914834191,-0.8305306410969369,1.5086014168645936
12.73382136,1.207391319385365,-0.9450010314097955,1.4317585236077837
12.73882132,1.2462226800284661,-1.071496450462699,1.3497017981312136
12.74382132,1.2750189704046087,-1.209929213968105,1.263705223345756
12.74882132,1.2942399438169851,-1.3600578296083758,1.175066079097691
12.75382136,1.3044562107606406,-1.5214798577670057,1.0850828017634746
12.75882139,1.3063363200490448,-1.6936260545219919,0.9950325925538481
12.76382139,1.300632281790187,-1.8757560194034761,0.9061492405663513
12.76882135,1.2881638270073685,-2.0669555691789383,0.8196016448872304
12.77382132,1.2698017263067045,-2.2661360476816252,0.7364735225513427
12.77882132,1.2464505112576505,-2.4720357598189215,0.6577447734568086
12.78382132,1.2190309561592458,-2.6832236853073472,0.5842749381982378
12.78882135,1.1884626837032874,-2.8981055851069972,0.5167891312180006
12.79382135,1.1556472548168528,-3.1149325628898805,0.4558667635324514
12.79882135,1.1214520897942806,-3.331812088245197,0.4019332922897942
12.80382135,1.0866955441777302,-3.546721431239343,0.355255153640349
12.80882135,1.0521334291645366,-3.757523402623009,0.31593795359582855
12.81382135,1.0184472244314207,-3.9619842429422443,0.28392790971390824
12.81882132,0.9862341838976454,-4.157793459021887,0.25901645548765084
12.82382132,0.955999484726729,-4.342585369402057,0.24084784116318247
12.82882132,0.928150518671239,-4.51396209264127,0.22892949236970866
12.83382135,0.9029933737422743,-4.669517694377421,0.22264482503477398
12.83882135,0.8807315033433967,-4.806863199586784,0.22126816488174086
12.84382135,0.8614665290600327,-4.923652173261796,0.2239813843945242
12.84882132,0.8452010722270307,-5.017606573332911,0.22989184973875268
12.85382132,0.831843459785613,-5.086542582807838,0.23805126343375893
12.85882132,0.8212141051399384,-5.128396133848158,0.24747499329249195
12.86382135,0.8130533286132079,-5.141247845513574,0.25716149165559743
12.86882135,0.8070303573653561,-5.123347109625348,0.2661114288561876
12.87382135,0.8027532316979913,-5.073135075558581,0.2733461895987056
12.87882135,0.7997793418183133,-4.989266304317849,0.27792541010495647
12.88382135,0.797626323756708,-4.870628884284478,0.2789632679404153
12.88882135,0.7957830535387986,-4.716362824472885,0.2756432757684903
12.89382132,0.7937204951393781,-4.525876564465021,0.26723137398159375
12.89882128,0.7909021816398247,-4.29886146173998,0.25308716244544055
12.90382128,0.7867941410944941,-4.035304135480231,0.23267315475116054
12.90882128,0.7808741174450057,-3.73549655989206,0.20556197732349626
12.91382132,0.7726399790827795,-3.4000438084791087,0.17144147226204542
12.91882132,0.7616172496821481,-3.0298693533029275,0.13011770130837977
12.92382132,0.7473657350045018,-2.6262178217966436,0.08151589168621871
12.92882128,0.7294852539284439,-2.190655111648953,0.025679411336470136
12.93382128,0.7076205109558271,-1.7250657651916683,-0.037233093315554244
12.93882128,0.6814651700121125,-1.2316475107884917,-0.1069522244229312
12.94382132,0.6507652048134074,-0.7129028906483268,-0.18310382203068892
12.94882132,0.6153216088697481,-0.17162791213936632,-0.26521619426795895
12.95382132,0.5749925479239938,0.3891023175572351,-0.3527283597602868
12.95882132,0.5296950293432117,0.9659509868214321,-0.4449990774765603
12.96382132,0.47940614771564116,1.555339988820836,-0.5413164530649468
12.96882132,0.42416394585983275,2.1534732970445654,-0.6409079321741719
12.97382128,0.36406790856661153,2.756363226666921,-0.742950516857773
12.97882128,0.29927908550923255,3.359859466623391,-0.8465810669602947
12.98382128,0.23001982193372836,3.959680730805149,-0.9509065707498103
12.98882131,0.1565730620959019,4.551448838595964,-1.0550142856383693
12.99382131,0.07928118128514507,5.130724995488345,-1.1579816602817543
12.99882131,-0.0014557023826026808,5.693048004272364,-1.258885955316225
13.00382128,-0.08518198536808545,6.233974096866639,-1.356813484190784
13.00882125,-0.17138944966842726,6.749118036881223,-1.450868400624425
13.01382121,-0.2595207823552511,7.234195104325546,-1.5401809669916722
13.01882121,-0.3489737653375569,7.68506353778414,-1.6239152492072029
13.02382121,-0.4391061408046567,8.097766977557104,-1.701276198188566
13.02882125,-0.5292411400942441,8.468576427429703,-1.7715160946013264
13.03382128,-0.6186736455680493,8.794031234198831,-1.8339403506717178
13.03882131,-0.7066769372447469,9.070978573478756,-1.8879126785934415
13.04382064,-0.7925099590174001,9.29661092775104,-1.9328596479301088
13.04882064,-0.8754250237279423,9.468501048044065,-1.9682746634698822
13.05382061,-0.9546758625183858,9.5846339039725,-1.9937213999524843
13.05882061,-1.029525911949281,9.643435148069107,-2.0088367312716975
13.06382061,-1.0992567225865237,9.643795649231649,-2.0133331898753197
13.06881998,-1.163176365417933,9.585091686424144,-2.007000988102305
13.07381998,-1.2206277079504029,9.467200437168911,-1.9897096281213267
13.07881998,-1.2709964305317258,9.290510445270483,-1.9614091217358867
13.08381994,-1.313718655676547,9.055926807609294,-1.9221308359219327
13.08881991,-1.3482880692068506,8.764870879301194,-1.8719879744588728
13.09381987,-1.3742624219350472,8.419274358549893,-1.8111757000473439
13.09881987,-1.391269314330761,8.02156767597271,-1.7399708945006984
13.10381991,-1.3990111837886128,7.574662677422216,-1.6587315467848407
13.10881994,-1.3972694339216536,7.081929654217041,-1.5678957500212736
13.11381997,-1.3859076661958014,6.547168840424639,-1.4679802794702241
13.11881997,-1.3648739941370707,5.9745765637124775,-1.3595787144535898
13.12381997,-1.3342024372474057,5.368706304578643,-1.2433590585506014
13.12881994,-1.294013404167147,4.734424988643392,-1.120060804476656
13.13381991,-1.2445132820146423,4.076864907968431,-0.9904913831642796
13.1388199,-1.1859931519021103,3.4013717393332987,-0.8555219312816434
13.14381994,-1.1188266510069955,2.713449198631781,-0.7160823085813228
13.14881997,-1.0434670012395462,2.0187009391697597,-0.5731552970312568
13.15381997,-0.9604432252742185,1.3227703656558938,-0.4277699187411847
13.15881997,-0.870355574013555,0.6312790933378476,-0.28099382075864004
13.16381997,-0.7738701967758342,-0.05023516824107477,-0.13392469389298822
13.16881997,-0.6717130976086243,-0.7163804858139444,0.012319278282902281
13.17381997,-0.5646634381008128,-1.3619714735388253,0.15660990488119492
13.17881994,-0.4535462674289283,-1.9820880875503477,0.2978203250122661
13.18381994,-0.3392247813900567,-2.5721315535319014,0.4348370635596884
13.18881994,-0.22259223053762375,-3.1278765357695333,0.5665726226145321
13.19382064,-0.10456361032834421,-3.6455186697026982,0.6919783821887829
13.19882064,0.01393272836437735,-4.121716611259987,0.8100575498315693
13.20382064,0.1319634124265852,-4.553627808046515,0.9198778779874106
13.2088206,0.24859819743612221,-4.938937271956837,1.0205838633106747
13.2138206,0.3629178274864954,-5.275878731644424,1.1114081542034282
13.21882127,0.47402151836764256,-5.563247667370208,1.1916819185987635
13.2238213,0.5810340068509453,-5.800405879732509,1.2608439579896578
13.2288213,0.6831121401596323,-5.987277415513157,1.3184483900942165
13.2338213,0.7794510117395441,-6.124335864059635,1.3641707569470716
13.2388213,0.8692896793648043,-6.212583239649037,1.3978124455375893
13.2438213,0.9519165260190022,-6.25352087049043,1.4193033350054902
13.2488213,1.0266743392559616,-6.249112913498209,1.4287026106691123
13.25382127,1.0929651880418922,-6.201743295590768,1.4261977141565523
13.25882123,1.1502551664149663,-6.114167037779322,1.4121014326477717
13.26382123,1.1980790517420394,-5.989457040308801,1.386847168475254
13.26882127,1.2360448946200857,-5.83094749095877,1.3509824708401221
13.2738213,1.2638385213349188,-5.642175102897118,1.3051609508035007
13.2788213,1.281227892416075,-5.426819394588343,1.2501327354797902
13.2838213,1.2880672259209403,-5.188643195357125,1.1867336448007486
13.28882127,1.2843007642176234,-4.931434500428626,1.1158732932538158
13.29382123,1.2699660395951728,-4.658950713351019,1.038522330340103
13.2988212,1.2451964776841389,-4.374866206814381,0.9556990391123333
13.3038212,1.2102231689735026,-4.082724010324869,0.8684555141889042
13.30882123,1.1653756383670208,-3.785892300098486,0.7778636404268724
13.31382126,1.1110814513967862,-3.4875262275532273,0.6850010910990828
13.3188213,1.0478645135587723,-3.1905354819093583,0.5909375591952496
13.3238213,0.9763419455602397,-2.8975578430268034,0.49672142639713623
13.3288213,0.8972194506280445,-2.610938845631978,0.4033670608765503
13.33382126,0.8112851286652389,-2.332717548189645,0.3118429176229427
13.33882126,0.7194017342739829,-2.064618281365128,0.22306059441917964
13.34382126,0.6224974199636159,-1.8080481445212058,0.13786497387210347
13.3488213,0.5215550508051461,-1.5640999257586492,0.057025557888325785
13.3538213,0.41760022097987043,-1.3335600428313739,-0.018770923675852518
13.3588213,0.31168814474140005,-1.1169210394743567,-0.0889265730843963
13.36382126,0.20488963298999577,-0.9143981243425683,-0.15293702027001796
13.36882123,0.09827640076114226,-0.7259492073623859,-0.21039474314191148
13.37382119,-0.007094020677534647,-0.5512978697913631,-0.2609910228014707
13.37882119,-0.1101934718567774,-0.38995869821209794,-0.3045165629676243
13.38382119,-0.21003814428557607,-0.24126441737938023,-0.34086082039867727
13.38882123,-0.3057030367616137,-0.10439427056073547,-0.3700101088956997
13.39382126,-0.3963355788162447,0.021596882938807967,-0.39204455336370164
13.39882129,-0.48116812417645316,0.13774925658794168,-0.4071339819554418
13.40382129,-0.5595290381204598,0.2451690841995984,-0.41553285302205833
13.40882129,-0.6308521307478516,0.3450002644391253,-0.41757431911986687
13.41382126,-0.6946842225332513,0.4383971038170843,-0.41366353273183404
13.41882126,-0.7506906681357465,0.5264985210819031,-0.4042702980999961
13.42382126,-0.7986587082136275,0.6104040355074153,-0.38992117130425985
13.42882129,-0.8384985657535281,0.6911518196303634,-0.3711911071982706
13.43382129,-0.8702422520118751,0.7696990539950758,-0.34869474770049713
13.43882129,-0.8940400965376512,0.8469047780182075,-0.3230774417618172
13.44382129,-0.9101550648927538,0.9235153877342664,-0.29500608344220197
13.44882129,-0.9189549755878478,1.0001528881985373,-0.2651598511985778
13.45382129,-0.9209027734059512,1.077305965762706,-0.23422092899456143
13.45882126,-0.916545058779566,1.1553239033180223,-0.20286528846520246
13.46382126,-0.9064991113809399,1.2344133200133105,-0.1717536112314311
13.46882126,-0.8914386796836128,1.3146376760521017,-0.14152243133828887
13.47382129,-0.8720788358980682,1.3959194431544961,-0.11277557904527147
13.47882129,-0.8491602163151423,1.4780448024925046,-0.08607600801561477
13.48382129,-0.8234329801106987,1.56067069504787,-0.061938087859327806
13.48882126,-0.7956408253073242,1.6433340153988167,-0.04082044315936593
13.49382122,-0.7665053997075038,1.725462710045226,-0.023119419203666013
13.49882119,-0.7367114379669254,1.8063885166159788,-0.009163254321252373
13.50382119,-0.7068929436916355,1.8853610617118288,0.0007929606880050597
13.50882119,-0.6776207171553539,1.9615630236805277,0.006571454211954423
13.51382122,-0.6493915045657822,2.0341260628857394,0.00807499371311239
13.51882126,-0.6226190134809749,2.1021472259128804,0.0052890724611133495
13.52382129,-0.5976270005832152,2.164705540745177,-0.001717011226099436
13.52882129,-0.574644592153574,2.220878535638177,-0.012790241608957233
13.53382129,-0.5538039445329891,2.269758433257652,-0.027695176535295636
13.53882125,-0.5351402930690518,2.310467791832187,-0.046116450169893956
13.54382125,-0.5185943759393417,2.342174385404667,-0.06766246600204186
13.54882125,-0.5040171566921402,2.364105135191424,-0.09187023047191333
13.55382129,-0.4911767095341718,2.3755589235057957,-0.11821125296238598
13.55882129,-0.47976707748450365,2.37591814090656,-0.1460984181571867
13.56382129,-0.46941886791351267,2.364658836493678,-0.1748937225411768
13.56882125,-0.4597113138639525,2.3413593607557366,-0.20391675840545734
13.57382122,-0.4501855029840522,2.3057074101555357,-0.23245382623605407
13.57882118,-0.4403584582532336,2.257505403054652,-0.2597675594925939
13.58382119,-0.42973774487984767,2.1966741383594277,-0.2851069528419923
13.58882122,-0.41783627456301997,2.1232547121326464,-0.3077176925766003
13.59382125,-0.40418698061750846,2.037408693369321,-0.32685269277509676
13.59882128,-0.38835704443816793,1.9394165872846996,-0.34178274124968294
13.60382128,-0.36996136498338794,1.829674641458339,-0.35180715628515913
13.60882128,-0.34867497832943073,1.70869007583064,-0.3562643504889193
13.61382125,-0.324244154127746,1.5770748411336646,-0.35454219337815696
13.61882125,-0.2964959203215913,1.4355380315904693,-0.3460880606106944
13.62382125,-0.26534579695912863,1.2848770967036036,-0.33041845540846077
13.62882128,-0.23080355420936463,1.1259680139210124,-0.30712808667040753
13.63382132,-0.19297684798609682,0.9597545991184092,-0.2758982881976963
13.63882132,-0.1520726276683808,0.7872371450234381,-0.2365046640163128
13.64382132,-0.10839625302770546,0.6094605882288453,-0.18882384584895204
13.64882132,-0.062348300878364356,0.4275024121711884,-0.1328392505188991
13.65382132,-0.014419085994660673,0.2424604952395767,-0.06864572785686066
13.65882132,0.034819034400386195,0.05544110926849333,0.003547005973125853
13.66382128,0.08472145781954449,-0.13245273609337457,0.08341224841698204
13.66882128,0.13458307496590136,-0.3201324228174082,0.17050559354968367
13.67382128,0.1836517442256656,-0.5065341671199017,0.26426569626612934
13.67882132,0.2311432544018844,-0.690628637827869,0.3640165810256492
13.68382132,0.27625748923953286,-0.87142963851165,0.4689715408906684
13.68882132,0.31819547415555083,-1.0480017680669684,0.5782386523792983
13.69382128,0.3561769593310502,-1.219467001193748,0.6908279094134815
13.69882128,0.38945817496873375,-1.3850101561119095,0.8056599560666898
13.70382128,0.41734938467214516,-1.5438832410057997,0.9215763736253962
13.70882131,0.4392318617294575,-1.6954086923825507,1.0373514534371397
13.71382131,0.4545739203807883,-1.8389815373134515,1.1517053638345045
13.71882131,0.46294564947163935,-1.9740705273309112,1.263318597492165
13.72382131,0.4640320186228862,-2.1002183048890646,1.370847564671234
13.72882131,0.4576440563559851,-2.2170406742716597,1.4729411771243641
13.73382131,0.4437278344704106,-2.324225058054515,1.5682582461218806
13.73882128,0.42237103218549127,-2.421528227809188,1.6554854959498848
13.74382128,0.39380689586758383,-2.5087734035211136,1.7333559721756016
13.74882128,0.35841545445920453,-2.5858468200157994,1.8006676033539357
13.75382131,0.3167218963684667,-2.6526938605510604,1.856301656633438
13.75882135,0.2693920604530604,-2.7093148578573385,1.899240811987742
13.76382135,0.21722504193121253,-2.755760661561588,1.9285865661701216
13.76882131,0.161142963489729,-2.7921280682589487,1.9435756659224257
13.77382128,0.10217801222960442,-2.8185552064477974,1.9435952611461975
13.77882124,0.04145689406811299,-2.8352169629428996,1.9281964639379703
13.78382121,-0.019817091358292495,-2.842320530100201,1.897106000180244
13.78882121,-0.0803841004551015,-2.840101144273873,1.850235648409886
13.79382124,-0.13894961347928025,-2.8288180756279377,1.7876891774631547
13.79882128,-0.19420776302265916,-2.8087509181421257,1.70976652105545
13.80382131,-0.24486571768024967,-2.780196216886009,1.6169649645668365
13.80882131,-0.2896686719321757,-2.7434644579283973,1.5099771668328088
13.81382131,-0.32742495667399857,-2.698877435118152,1.3896858970781676
13.81882128,-0.3570307576876721,-2.6467659978574356,1.2571554331424482
13.82382128,-0.37749391430268336,-2.587468175188706,1.1136196401774516
13.82882128,-0.3879562697209797,-2.5213276641218076,0.9604668269682017
13.83382131,-0.38771405911122125,-2.448692663985158,0.7992215576077227
13.83882131,-0.37623585151195127,-2.3699150333548205,0.6315236770519569
13.84382131,-0.3531776056212433,-2.285349741392032,0.4591048876646169
13.84882127,-0.3183944558903164,-2.1953545808624746,0.2837632876308198
13.85382124,-0.2719489121322709,-2.1002901055090475,0.10733634818641662
13.85882121,-0.21411523140251287,-2.000519749727208,-0.06832713820196035
13.86382121,-0.1453798033755286,-1.8964100836893985,-0.24139556570923923
13.86882124,-0.06643747755586579,-1.788331152315636,-0.4100828830208543
13.87382127,0.021816150222605857,-1.676656841947314,-0.5726762225574679
13.8788213,0.11829638599788367,-1.5617652143597627,-0.7275622110331978
13.88382134,0.22174482871851062,-1.444038743978478,-0.873251419475027
13.88882134,0.3307482309830918,-1.3238643912514856,-1.0084004649846305
13.8938213,0.44376048172974114,-1.2016334439442038,-1.1318313423634914
13.89882127,0.5591272977283386,-1.0777410598342003,-1.2425476373117144
13.90382127,0.6751131572428352,-0.9525854499885825,-1.3397473515030105
13.90882127,0.7899299697263065,-0.8265666522904036,-1.422832151690069
13.9138213,0.9017669507230872,-0.700084860478325,-1.491412938467622
13.9188213,1.0088211608034625,-0.5735382942392293,-1.5453117134165433
13.9238213,1.1093281699095832,-0.44732061931900224,-1.5845598040598643
13.9288213,1.2015923218948297,-0.32181795082155745,-1.609392582738289
13.9338213,1.2840160958640308,-0.197405495435894,-1.6202408867727838
13.9388213,1.3551280887231318,-0.07444390749237129,-1.6177194117151554
13.94382127,1.4136091750961115,0.046724551505296724,-1.6026124056196929
13.94882127,1.4583164350907218,0.1657799503895266,-1.5758570387209263
13.95382127,1.4883044765656313,0.2824286186343792,-1.5385248584992914
13.9588213,1.502843816336743,0.3964069652662298,-1.4918017638161543
13.9638213,1.5014360242379978,0.5074850861826661,-1.4369669425717255
13.9688213,1.4838253754629154,0.6154700662005425,-1.3753712142770278
13.97382127,1.4500068008857043,0.7202088897630431,-1.308415201718261
13.97882127,1.4002299732531804,0.8215908820288749,-1.2375277253749197
13.98382127,1.3349994204881208,0.919549609744776,-1.1641447726971366
13.9888213,1.255070616439293,1.0140641789347136,-1.0896893451754124
13.9938213,1.1614420635610307,1.1051598743230862,-1.0155524332937496
13.9988213,1.0553434492226965,1.1929080940129586,-0.9430753167204254
14.0038213,0.9382200249539886,1.277425542723539,-0.8735333375054556
14.0088213,0.8117134232600933,1.3588726580783401,-0.8081212495593171
14.0138213,0.6776391875243332,1.4374512569242144,-0.7479402090446635
14.01882127,0.5379613454668033,1.5134014021012405,-0.6939864375565713
14.02382123,0.3947644047584276,1.5869975040031672,-0.647141563118589
14.02882123,0.2502231902397281,1.658543685095487,-0.6081646233106852
14.03382123,0.10657097558868593,1.7283684485949458,-0.577685700248143
14.03882127,-0.033933611804664726,1.796818704088453,-0.5562011478900879
14.0438206,-0.1690404156407847,1.8642532126060989,-0.5440703667678921
14.0488206,-0.29654179757892957,1.9310355215675608,-0.5415140777813493
14.05382056,-0.41430639652873374,1.9975264663294312,-0.5486140433759042
14.05882057,-0.5203120977508133,2.0640763200969467,-0.5653141798187645
14.06382056,-0.6126777251921782,2.1310166781337645,-0.5914229977373603
14.0688206,-0.6896929944765644,2.1986521660722613,-0.6266172996226861
14.07381993,-0.7498462942642647,2.267252066450228,-0.6704470534998646
14.07881993,-0.791849898837372,2.3370419631563584,-0.7223413529925605
14.08381993,-0.8146622539144942,2.4081955107003092,-0.7816153673202146
14.08881993,-0.8175070204285025,2.480826444005368,-0.8474781816198568
14.09381993,-0.7998886068523834,2.554980954155905,-0.9190414286243652
14.0988199,-0.7616039689481591,2.6306305654219178,-0.9953286164552603
14.1038199,-0.7027505058285197,2.707665658095903,-1.075285062994705
14.1088199,-0.6237299323751768,2.78588978935192,-1.1577883540015017
14.11381993,-0.5252480597216722,2.8650149695725924,-1.241659249029869
14.11881993,-0.4083104668392447,2.9446580535063838,-1.3256729654894173
14.12381993,-0.2742140964061126,3.0243384034474246,-1.4085707760537396
14.1288199,-0.12453485653883228,3.1034769747699675,-1.4890718575504573
14.13381986,0.03888864358951995,3.181396962173605,-1.565885330295639
14.13881983,0.2139750517538946,3.257326127690726,-1.637722425708801
14.14381983,0.3984237092765497,3.330400908909716,-1.7033087173276946
14.14881983,0.5897413104648199,3.3996723782403,-1.761396346642265
14.15381986,0.7852714900963199,3.4641140918312856,-1.8107761712339003
14.15881989,0.9822270068246634,3.5226318305347553,-1.8502897591773106
14.16381993,1.1777241549173065,3.574075195837482,-1.8788411508470988
14.16881993,1.3688190034699372,3.6172509818661633,-1.895408307132721
14.17381993,1.552545031622454,3.6509382015195206,-1.8990541613779217
14.17881989,1.725951700960335,3.6739046017461767,-1.8889371908868793
14.18381989,1.8861434830975679,3.684924461327358,-1.86432142242851
14.18881989,2.0303188425084153,3.6827974256249485,-1.8245857847824412
14.19382059,2.155808663124008,3.6663680979448565,-1.7692327200659712
14.19882059,2.260113602868757,3.6345460775729386,-1.6978959644764082
14.20382059,2.340939863624587,3.586326111003478,-1.610347408281091
14.20882056,2.39623287527017,3.5208080059660105,-1.5065029444699327
14.21382053,2.4242084115263776,3.4372159479561795,-1.3864272155937623
14.21882049,2.4233806822884665,3.334916856363949,-1.250337169251566
14.22382116,2.392586981623972,3.213437422096071,-1.0986043349615993
14.22882119,2.3310085120378905,3.0724794807304954,-0.931755739358839
14.23382122,2.2381870531069628,2.9119333944317183,-0.7504733833368397
14.23882126,2.1140371952425316,2.731889141684674,-0.5555922142224945
14.24382126,1.9588539162361756,2.532644845912747,-0.34809653844495764
14.24882126,1.773315338441586,2.3147125117392138,-0.1291148353864962
14.25382122,1.5584805670247421,2.078820780454475,0.10008704895714943
14.25882119,1.3157825738584343,1.8259145634567429,0.3381143294048498
14.26382119,1.047016156735619,1.5571514631892585,0.5834533081704193
14.26882122,0.7543210691855166,1.2738949444405319,0.8344829536752214
14.27382125,0.44016048186994816,0.9777042738191051,1.0894879579366126
14.27882125,0.10729500175394659,0.6703213008449568,1.346673171088568
14.28382125,-0.2412474607794353,0.3536542096149275,1.6041792836684248
14.28882125,-0.6022056249155294,0.029758424704595925,1.8600996001501524
14.29382125,-0.9721221620219058,-0.29918509175435515,2.112497721586912
14.29882125,-1.347383943281789,-0.6308938636429772,2.3594259318197146
14.30382122,-1.7242646990677755,-0.9630099084144502,2.5989440611963457
14.30882122,-2.09896953450819,-1.2931273472299067,2.829138584862559
14.31382122,-2.4676807105610625,-1.618821196431802,3.048141700237802
14.31882125,-2.8266040723822172,-1.9376768856241102,3.2541501211189154
14.32382125,-3.1720154871183106,-2.2473200219252627,3.4454433247937075
14.32882125,-3.500306641745254,-2.5454459034075536,3.6204009942680795
14.33382122,-3.8080295488373914,-2.8298482784563337,3.7775194105665033
14.33882122,-4.091939115295558,-3.0984468525708477,3.9154265699023485
14.34382122,-4.349033147361864,-3.3493130605078654,4.0328958266149035
14.34882125,-4.576589195762806,-3.5806936499671798,4.128857894041352
14.35382125,-4.772197688138743,-3.791031663317752,4.202411070724386
14.35882125,-4.933790851997728,-3.978984455844092,4.252829597167299
14.36382125,-5.059666999558147,-4.143438451795497,4.279570086910164
14.36882125,-5.148509824733593,-4.283520411629218,4.28227601280155
14.37382125,-5.19940245036106,-4.398605062967057,4.260780262840015
14.37882122,-5.211836058095271,-4.488319030904128,4.215105808178578
14.38382118,-5.185713030891082,-4.552541086834009,4.145464547831356
14.38882118,-5.121344634814961,-4.591398815086006,4.052254410221509
14.39382122,-5.019443359338052,-4.605261869976353,3.936054801863551
14.39882125,-4.881110120388803,-4.594732059935453,3.7976204996855634
14.40382125,-4.707816606517903,-4.560630548974742,3.6378740873040023
14.40882125,-4.501383114730274,-4.503982508538577,3.457897038205414
14.41382122,-4.263952278738085,-4.425999584792818,3.2589195512349076
14.41882118,-3.9979591389886777,-4.328060567911454,3.042309246841938
14.42382115,-3.7060980415883007,-4.211690661442098,2.8095588367799977
14.42882115,-3.3912868830157143,-4.078539751973859,2.562272885662192
14.43382118,-3.056629239914887,-3.9303600725963936,2.3021537898110074
14.43882121,-2.7053749385577337,-3.7689836383669904,2.0309871066569394
14.44382125,-2.340879626804197,-3.5962998085997477,1.7506263755514593
14.44882125,-1.9665639124191523,-3.4142332999780307,1.4629775769549036
14.45382125,-1.5858726251991897,-3.2247229373528072,1.1699833802491966
14.45882121,-1.2022347463640597,-3.029701386979699,0.8736073301384445
14.46382121,-0.8190245272832152,-2.8310760713763785,0.5758181178110943
14.46882121,-0.4395242915543697,-2.630711417493026,0.27857407651185306
14.47382125,-0.06688938079584475,-2.4304125419525913,-0.016191967121305103
14.47882125,0.29588433373110307,-2.2319104301327592,-0.30658736381900753
14.48382125,0.6459899938584239,-2.0368486212817007,-0.5907737218139656
14.48882121,0.9808360183272864,-1.8467713713227987,-0.8669802925774593
14.49382118,1.2980688059533492,-1.663113230337517,-1.1335165666224096
14.49882114,1.5955916539662962,-1.4871899448099,-1.3887839916760638
14.50382114,1.8715797313786071,-1.320190577263207,-1.631286733868834
14.50882114,2.124491016906517,-1.1631707290851747,-1.8596414126944931
14.51382118,2.3530731839625725,-1.0170467565888752,-2.0725857537824246
14.51882121,2.5563664885449144,-0.8825908855815275,-2.268986121167382
14.52382124,2.733702786736104,-0.7604271554812426,-2.4478439130495455
14.52882124,2.884700874739904,-0.6510281596934133,-2.6083008306774733
14.53382124,3.009258403336999,-0.5547125933962043,-2.749643055440498
14.53882121,3.1075406666319196,-0.47164367034435534,-2.871304389105283
14.54382121,3.179966597909781,-0.40182852100880695,-2.97286842103199
14.54882121,3.2271923213138933,-0.345118726838168,-3.0540697820269926
14.55382124,3.250092609080604,-0.3012121714963682,-3.1147945299639654
14.55882124,3.2497405859169133,-0.26965639509425343,-3.155079693302178
