Time (s),Acceleration x (m/s^2),Acceleration y (m/s^2),Acceleration z (m/s^2)
4.001689249,-0.22535627261791283,1.2337617134194179,4.507848660596095
4.006466072,-0.2243240879566316,1.226783153785307,4.489432112765455
4.011242895,-0.2232946296742425,1.2198073115763497,4.470992608531148
4.01601977,-0.2222683064900859,1.2128346339674252,4.452531045946572
4.020796593,-0.22124552563878827,1.20586556825366,4.434048319725409
4.025573416,-0.22022669245926704,1.198900561611181,4.4155453209479
4.030350291,-0.2192122099829985,1.1919400608550497,4.3970229367711795
4.035127114,-0.218202478522214,1.1849845121945812,4.378482050144003
4.039903989,-0.2171978952587032,1.178034360986254,4.3599235395262586
4.044680812,-0.2161988538339168,1.1710900514844143,4.341348278613636
4.049457635,-0.21520574394106812,1.1641520265899783,4.322757136067831
4.05423451,-0.21421895091993148,1.1572207275973414,4.304150975252665
4.059011333,-0.21323885535502846,1.1502965939397072,4.28553065397646
4.063788156,-0.21226583267788066,1.1433800629330741,4.266897024241017
4.068565031,-0.21130025277398942,1.1364715695191303,4.248250931997524
4.073341853,-0.21034247959517685,1.1295715460073237,4.229593216909647
4.078118676,-0.209392870777891,1.1226804218163888,4.210924712124054
4.082895551,-0.20845177726803968,1.115798623215637,4.192246244048548
4.087672374,-0.20751954295287442,1.1089265730663336,4.173558632137929
4.092449197,-0.20659650430039964,1.1020646905634932,4.1548626886877145
4.097226072,-0.2056829900067357,1.0952133909784352,4.136159218635822
4.102002895,-0.20477932065182095,1.0883730854024536,4.117449019372308
4.10677977,-0.20388580836379672,1.0815441804919668,4.098732880557265
4.111556593,-0.20300275649238544,1.074727078215527,4.080011583946987
4.116333416,-0.20213045929154033,1.0679221756030834,4.061285903228501
4.121110291,-0.20126920161161813,1.0611298644979097,4.042556603862575
4.125887114,-0.2004192586013083,1.054350531311615,4.023824442935218
4.130663937,-0.1995808954195398,1.047584556782688,4.005090169017682
4.135440812,-0.19875436695757548,1.0408323157390276,3.9863545220350147
4.140217635,-0.19793991757149806,1.034094176864938,3.9676182331431815
4.144994458,-0.19713778082528702,1.027370502473077,3.9488820246147514
4.149771333,-0.19634817924468104,1.020661648281835,3.930146609733094
4.154548156,-0.19557132408202138,1.0139679631986303,3.9114126926950186
4.159325031,-0.1948074150922706,1.0072897891096122,3.892680968521753
4.164101853,-0.19405664032040268,1.0006274606762489,3.8739521229781637
4.168878676,-0.19331917590036476,0.9939813051392657,3.855226832500086
4.173655551,-0.19259518586581623,0.9873516421303918,3.836505764129586
4.178432374,-0.19188482197285725,0.9807387834923487,3.817789575457981
4.183209197,-0.1911882235349663,0.9741430331074895,3.799078914576412
4.187986072,-0.1905055172703739,0.9675646867354633,3.7803744200338083
4.192762895,-0.1898368171621081,0.9610040318602608,3.761676720802081
4.197539718,-0.18918222433095383,0.9544613475469683,3.7429864362484184
4.202316593,-0.1885418269215751,0.9479369043085122,3.7243041761145093
4.207093416,-0.18791570000205612,0.9414309639826477,3.7056305405025163
4.211870291,-0.18730390547712444,0.9349437796194058,3.686966119867596
4.216647114,-0.18670649201531841,0.928475595379181,3.668311495016755
4.221423937,-0.18612349499035424,0.9220266464415983,3.6496672371138357
4.226200812,-0.18555493643692922,0.915597158925247,3.6310339076904117
4.230977635,-0.18500082502117499,0.90918734981832,3.612412058662374
4.235754458,-0.18446115602594731,0.9027974269201409,3.593802232351978
4.240531333,-0.18393591135110637,0.8964275887935071,3.5752049615151344
4.245308156,-0.18342505952890711,0.8900780247277367,3.556620769373718
4.250084978,-0.1829285557545801,0.8837489147122622,3.538050169652682
4.254861853,-0.18244634193214218,0.8774404294205839,3.5194936666217957
4.259638676,-0.18197834673543067,0.8711527302043509,3.500951755141809
4.264415499,-0.18152448568430654,0.8648859690973129,3.482424920714815
4.269192374,-0.1810846612359164,0.8586402888288491,3.463913639538633
4.273969197,-0.18065876289084765,0.8524158228467679,3.4454183785650034
4.278746072,-0.18024666731395617,0.8462126953490436,3.4269395955613997
4.283522895,-0.17984823846959325,0.8400310213241517,3.4084777391762437
4.288299718,-0.17946332777090868,0.8338709065996455,3.3900332490073284
4.293076593,-0.17909177424286404,0.8277324478986284,3.3716065556732593
4.297853416,-0.1787334046985534,0.821615732903782,3.353198080887747
4.302630239,-0.17838803392839891,0.81552084032862,3.3348082375365933
4.307407114,-0.17805546490176585,0.8094478399956596,3.31643742975722
4.312183937,-0.1777354889805245,0.8033967929212177,3.2980860530206115
4.31696076,-0.17742788614407726,0.797367751406573,3.2797544942155383
4.321737635,-0.17713242522536585,0.7913607591352557,3.2614431317349286
4.326514458,-0.17684886415737638,0.7853758512762583,3.2431523355642806
4.331291281,-0.17657695022966835,0.7794130545929907,3.224882467372035
4.336068156,-0.17631642035446166,0.773472387557841,3.2066338806018297
4.340844978,-0.17606700134182515,0.7675538604722313,3.1884069205665613
4.345621801,-0.17582841018351808,0.7616574755920841,3.1702019245441906
4.350398676,-0.1756003543450431,0.7557832272586473,3.1520192218752605
4.355175499,-0.17538253206547483,0.7499311020346583,3.1338591340620705
4.359952374,-0.17517463266463157,0.7441010788458441,3.1157219748694622
4.364729197,-0.17497633685715844,0.7382931291277638,3.0976080504271706
4.36950602,-0.17478731707309028,0.7325072169779987,3.0795176593337
4.374282895,-0.17460723778445916,0.7267432993136963,3.0614510927616996
4.379059718,-0.1744357558375083,0.7210013260344721,3.0434086345647926
4.383836541,-0.17427252079007258,0.7152812401906611,3.025390561385812
4.388613416,-0.17411717525368503,0.7095829781568924,3.007397142766392
4.393390239,-0.17396935523997137,0.7039064698109441,2.989428641257861
4.398167114,-0.1738286905108991,0.6982516387178056,2.9714853125333485
4.402943937,-0.1736948049324555,0.6926184023188486,2.953567405501044
4.40772076,-0.17356731683133675,0.6870066721259774,2.935675162418498
4.412497635,-0.17344583935423594,0.6814163539205994,2.917808819007842
4.417274458,-0.1733299808293214,0.6758473479572137,2.8999686045717596
4.422051281,-0.17321934512949896,0.6702995491713756,2.882154742110045
4.426828156,-0.17311353203705385,0.664772847391762,2.864367448436545
4.431604978,-0.17301213760926756,0.6592671275560281,2.846606934296237
4.436381801,-0.17291475454460276,0.6537822699301028,2.828873404482169
4.441158676,-0.1728209725490468,0.6483181503305283,2.8111670579519714
4.445935499,-0.17273037870220317,0.6428746403494227,2.793488087943631
4.450712322,-0.1726425578227177,0.637451607581618,2.775836682090203
4.455489197,-0.17255709283262421,0.6320489158535109,2.7582130225331536
4.46026602,-0.17247356512019404,0.6266664254531484,2.7406172860340408
4.465042895,-0.1723915549008751,0.6213039933610641,2.7230496440842553
4.469819718,-0.17231064157590947,0.6159614734813793,2.7055102630125694
4.474596541,-0.1722304040882208,0.6106387168726974,2.6879993040902788
4.479373364,-0.17215042127516794,0.6053355719783272,2.6705169236337643
4.484150239,-0.17207027221776747,0.6000518848553817,2.6530632731043347
4.488927062,-0.17198953658599397,0.5947874994023128,2.6356384992052564
4.493703937,-0.1719077949797751,0.5895422575844487,2.6182427439759337
4.49848076,-0.17182462926530598,0.5843159996571353,2.6008761448832445
4.503257583,-0.17173962290631878,0.5791085643861154,2.583538834910087
4.508034458,-0.17165236128995626,0.5739197892648262,2.5662309426412375
4.512811281,-0.17156243204691865,0.5687495107283368,2.5489525923466094
4.517588103,-0.17146942536557908,0.5635975643636844,2.5317039040620815
4.522364978,-0.17137293429979747,0.5584637851164119,2.514484993668105
4.527141801,-0.17127255507020114,0.5533480074931406,2.4972959729663806
4.531918624,-0.17116788735874086,0.5482500657600571,2.4801369497549315
4.536695499,-0.17105853459637066,0.5431697941372319,2.4630080279018975
4.541472322,-0.1709441042437386,0.5381070269887123,2.445909307418377
4.546249197,-0.17082420806481416,0.5330615990083666,2.428840884530668
4.55102602,-0.17069846239341074,0.5280333454014887,2.4118028517522543
4.555802843,-0.17056648839258856,0.5230221020621953,2.3947952979558833
4.560579718,-0.17042791230694113,0.5180277057466677,2.3778183084460895
4.565356541,-0.17028236570777813,0.5130499942423027,2.3608719650324623
4.570133364,-0.17012948573122108,0.508088806532845,2.343956346103936
4.574910239,-0.16996891530922845,0.5031439829595737,2.3270715267043767
4.579687062,-0.1698003033935666,0.4982153653786163,2.3102175786096963
4.584463885,-0.16962330517274338,0.493302797314457,2.293394570406699
4.58924076,-0.1694375822819247,0.48840612410969747,2.276602567573822
4.594017583,-0.16924280300586023,0.48352519307112773,2.259841632563915
4.598794406,-0.16903864247484876,0.4786598536121582,2.2431118248891218
4.603571281,-0.16882478285378125,0.4738099573916597,2.2264132012079103
4.608348103,-0.16860091352430534,0.4689753584492484,2.209745815414249
4.613124978,-0.1683667312601603,0.4641559133370395,2.193109718728889
4.617901801,-0.1681219403957369,0.45935148124788383,2.1765049597926587
4.622678624,-0.16786625298792202,0.45456192414008845,2.159931584761655
4.627455499,-0.1675993889712883,0.44978710685860185,2.1433896374042036
4.632232322,-0.16732107630668733,0.4450268972526243,2.126879159199444
4.637009145,-0.16703105112329614,0.4402811662895802,2.110400189437368
4.64178602,-0.1667290578541539,0.4355497881653667,2.0939527653201266
4.646562843,-0.1664148493652092,0.4308326404107716,2.077536922064425
4.651339666,-0.16608818707787898,0.42612960399393107,2.0611526930048396
4.656116541,-0.16574884108509974,0.4214405634186831,2.0448001096979
4.660893364,-0.16539659026083212,0.4167654068186539,2.0284792020267775
4.665670187,-0.16503122236296303,0.41210402604690083,2.0121899983064266
4.670447062,-0.16465253412953695,0.407456316760918,1.9959325253890516
4.675223885,-0.1642603313682378,0.4028221785028089,1.979706808769752
4.680000708,-0.16385442903903455,0.398201514774417,1.963512872692223
4.684777583,-0.1634346513298953,0.3935942331072049,1.9473507402544077
4.689554406,-0.16300083172547056,0.38900024512667475,1.931220433514013
4.694331281,-0.1625528130686444,0.3844194666111248,1.9151219735937952
4.699108103,-0.16209044761485725,0.37985181754454594,1.8990553807865367
4.703884926,-0.16161359707911366,0.3752972221634732,1.88302067465966
4.708661801,-0.16112213267560038,0.37075560899762666,1.8670178741594325
4.713438624,-0.16061593514985692,0.3662269109041941,1.8510469977147286
4.718215447,-0.160094894803459,0.3617110650956335,1.8351080633403216
4.722992322,-0.1595589115111926,0.3572080131608943,1.8192010887396852
4.727769145,-0.159007894730712,0.3527177010799837,1.8033260914072777
4.732545968,-0.15844176350469236,0.3482400792318317,1.7874830887302842
4.737322843,-0.15786044645550448,0.34377510239543574,1.7716720980897727
4.742099666,-0.15726388177245706,0.3393227297442898,1.7558931369612039
4.746876489,-0.1566520171916692,0.3348829248341328,1.7401462230142266
4.751653364,-0.15602480996865653,0.33045565558407963,1.7244313742116726
4.756430187,-0.15538222684373668,0.32604089425123123,1.7087486089076218
4.761207062,-0.15472424400038423,0.32163861739889354,1.6930979459443802
4.765983885,-0.15405084701668592,0.31724880585856385,1.6774794047481825
4.770760708,-0.15336203081006727,0.3128714446858669,1.6618930054234144
4.775537583,-0.1526577995754813,0.3085065231106535,1.6463387688451327
4.780314406,-0.15193816671726362,0.3041540344814988,1.6308167167496348
4.785091228,-0.15120315477486912,0.29981397620485983,1.6153268718228233
4.789868103,-0.15045279534271672,0.2954863496791732,1.5998692577861184
4.794644926,-0.14968712898437628,0.2911711602241895,1.584443899479671
4.799421801,-0.14890620514134092,0.286868417005857,1.5690508229426599
4.804198624,-0.1481100820366348,0.2825781329570788,1.5536900554904844
4.808975447,-0.14729882657351406,0.2783003246946737,1.5383616257886856
4.813752322,-0.14647251422952598,0.27403501243288303,1.5230655639234685
4.818529145,-0.1456312289461977,0.2697822198937625,1.5078019014687134
4.823305968,-0.14477506301463003,0.26554197421479864,1.4925706715493785
4.828082843,-0.14390411695727262,0.26131430585408605,1.4773719089012243
4.832859666,-0.14301849940615702,0.2570992484933966,1.462205649926812
4.837636489,-0.14211832697785787,0.2528968389394641,1.4470719327477637
4.842413364,-0.14120372414544308,0.24870711702379084,1.4319707972532874
4.847190187,-0.1402748231076629,0.2445301255012636,1.4169022851449733
4.85196701,-0.139331763655614,0.24036590994784063,1.4018664399778895
4.856743885,-0.1383746930370979,0.23621451865754284,1.3868633071980134
4.861520708,-0.13740376581887515,0.23207600253895125,1.371892934176049
4.866297531,-0.13641914374699604,0.22795041501137916,1.356955370237696
4.871074406,-0.13542099560536733,0.22383781190085286,1.3420506666904284
4.875851228,-0.1344094970726923,0.2197382513359994,1.3271788768468524
4.880628051,-0.1333848305778995,0.2156517936439106,1.3123400560447127
4.885404926,-0.1323471851541527,0.21157850124602698,1.2975342616636003
4.890181749,-0.13129675629151344,0.20751843855406538,1.2827615531383962
4.894958624,-0.13023374578830255,0.20347167186599974,1.2680219919694797
4.899735447,-0.12915836160118624,0.19943826926209132,1.2533156417297282
4.90451227,-0.1280708176939884,0.19541830050095407,1.2386425680683182
4.909289145,-0.12697133388520873,0.191411836915632,1.2240028387113426
4.914065968,-0.12586013569420762,0.18741895130965683,1.2093965234592472
4.918842791,-0.1247374541860023,0.18343971785305058,1.1948236941810944
4.923619666,-0.1236035258146083,0.17947421197823735,1.1802844248056663
4.928396489,-0.12245859226485283,0.17552251027583227,1.1657787913094095
4.933173312,-0.1213029002925847,0.17158469039027813,1.151306871701223
4.937950187,-0.12013670156320805,0.16766083091530418,1.1368687460040883
4.94272701,-0.11896025248847468,0.16375101128918518,1.1224644962335335
4.947503885,-0.11777381406148445,0.1598553116897859,1.1080942063729236
4.952280708,-0.11657765168986223,0.15597381292938434,1.093757962345579
4.957057531,-0.11537203502710375,0.15210659634927567,1.0794558519837183
4.961834406,-0.11415723780210715,0.1482537437141721,1.065187964994204
4.966611228,-0.11293353764693502,0.14441533710643178,1.0509543929210772
4.971388051,-0.11170121592288115,0.14059145882016927,1.0367552291048636
4.976164926,-0.11046055754494802,0.1367821912553168,1.0225905686386683
4.980941749,-0.1092118508048695,0.13298761681172008,1.008460508321107
4.985718572,-0.10795538719283893,0.1292078177833667,0.9943651466061542
4.990495447,-0.10669146121812173,0.12544287625285988,0.9803045835500207
4.99527227,-0.1054203702287443,0.12169287398626465,0.9662789207552194
5.000049093,-0.10414241423045646,0.11795789232847032,0.9522882613120185
5.004825968,-0.10285789570516539,0.1142380120992284,0.9383327097375145
5.009602791,-0.10156711942903515,0.11053331349003871,0.9244123719125754
5.014379614,-0.10027039229043988,0.10684387596206718,0.9105273550169223
5.019156489,-0.09896802310795204,0.1031697781452853,0.8966777674626399
5.023933312,-0.09766032244853974,0.09951109773902045,0.882863718826418
5.028710187,-0.09634760244614035,0.0958679114141009,0.8690853197808179
5.03348701,-0.09503017662077073,0.09224029471677099,0.8553426820248462
5.038263833,-0.09370835969832728,0.0886283219745417,0.8416359182140812
5.043040708,-0.09238246743121917,0.08503206620413377,0.8279651418905755
5.047817531,-0.09105281641996726,0.0814515990216633,0.8143304674127201
5.052594353,-0.08971972393588741,0.07788699055521457,0.8007320098852277
5.057371228,-0.08838350774496498,0.07433830935994007,0.7871698850893499
5.062148051,-0.08704448593301517,0.0708056223358211,0.7736442094134153
5.066924874,-0.0857029767322115,0.06728899464821492,0.7601550997837473
5.071701749,-0.08435929834905505,0.06378848965130324,0.7467026735959967
5.076478572,-0.0830137687938508,0.06030416881454807,0.7332870486469029
5.081255395,-0.08166670571175623,0.05683609165225238,0.7199083430664831
5.08603227,-0.08031842621547232,0.05338431565631748,0.7065666752506277
5.090809093,-0.07896924671965501,0.049948896232285774,0.693262163794072
5.095585916,-0.07761948277713616,0.046529886638755416,0.6799949274237173
5.100362791,-0.07626944891705624,0.04312733793025169,0.6667650849322647
5.105139614,-0.07491945848502365,0.03974129890363658,0.6535727551121335
5.109916489,-0.07356982348542976,0.036371816048133526,0.640418056689637
5.114693312,-0.07222085442605974,0.033018933499038054,0.6273011082594128
5.119470135,-0.07087286016514815,0.02968269299517786,0.6142220282191116
5.12424701,-0.06952614776103244,0.026363133840178007,0.6011809347043686
5.129023833,-0.06818102232456019,0.02306029286757893,0.5881779455240902
5.133800656,-0.0668377868744038,0.019774204409847434,0.5752131780961054
5.138577531,-0.06549674219543102,0.016504900271314692,0.5622867493832395
5.143354353,-0.0641581867002737,0.01325240970507049,0.5493987758298821
5.148131176,-0.06282241629423012,0.010016759393840358,0.5365493732991379
5.152908051,-0.06148972424362917,0.006797973434869637,0.5237386570106678
5.157684874,-0.060160401047777146,0.0035960733288356904,0.5109667414793487
5.162461697,-0.05883473431460072,0.0004110779728060136,0.49823374045489754
5.167238572,-0.05751300864009382,-0.0027569963427435725,0.48553976686261996
5.172015395,-0.05619550549167029,-0.0059081359328401195,0.4728849327454553
5.176792218,-0.054882503095515275,-0.009042329712847652,0.46026934920748797
5.181569093,-0.053574276328018394,-0.012159569189223035,0.4476931263591008
5.186345916,-0.05227109661135859,-0.015259848446199856,0.43515637326394263
5.191122739,-0.050973231813296105,-0.018343164128416585,0.42265919788788225
5.195899614,-0.04968094615121056,-0.021409515419517678,0.41020170705012193
5.200676437,-0.04839450010040823,-0.024458904016770762,0.3977840063766431
5.205453312,-0.047114150306706744,-0.027491334101759354,0.3854062002561547
5.210230135,-0.0458401495032941,-0.030506812307228143,0.37306839179871276
5.215006958,-0.04457274643185058,-0.033505347680175615,0.3607706827971704
5.219783833,-0.04331218576791724,-0.03648695164130484,0.34851317369160695
5.224560656,-0.04205870805049143,-0.039451637940956755,0.3362959635368666
5.229337478,-0.040812549615828295,-0.04239942261166244,0.3241191499733134
5.234114353,-0.03957394253542569,-0.045330323917462605,0.311982829200884
5.238891176,-0.03834311455816675,-0.048244362300155136,0.2998870959564912
5.243667999,-0.03712028905659009,-0.05114156032264423,0.28783204349480884
5.248444874,-0.035905684977253736,-0.054021942609576434,0.27581776357243787
5.253221697,-0.03469951679515397,-0.05688553578545953,0.26384434643543553
5.25799852,-0.03350199447215304,-0.059732368410469826,0.25191188081016597
5.262775395,-0.03231332341936259,-0.06256247091416149,0.24002045389741883
5.267552218,-0.031133704463421275,-0.06537587552729812,0.22817015136972937
5.272329041,-0.02996333381659679,-0.06817261621202908,0.21636105737182681
5.277105916,-0.02880240305063559,-0.07095272859063252,0.20459325452413005
5.281882739,-0.02765109907427852,-0.07371624987304452,0.19286682392920965
5.286659614,-0.026509604114356756,-0.07646321878339,0.18118184518113792
5.291436437,-0.025378095700378814,-0.07919367548572613,0.16953839637765705
5.29621326,-0.024256746652514635,-0.08190766150920335,0.15793655413510196
5.300990135,-0.023145725072876735,-0.08460521967284167,0.1463763936060234
5.305766958,-0.02204519433999118,-0.08728639401010953,0.1348579884994648
5.310543781,-0.02095531310634299,-0.08995122969348013,0.12338141110385246
5.315320656,-0.019876235298872398,-0.09259977295912579,0.11194673231246242
5.320097478,-0.018808110122291232,-0.09523207103189817,0.10055402165142759
5.324874301,-0.017751082065081965,-0.09784817205072943,0.08920334731024832
5.329651176,-0.016705290908035998,-0.10044812499457881,0.07789477617476963
5.334427999,-0.01567087173518214,-0.10303197960903765,0.06662837386258588
5.339204822,-0.01464795494695038,-0.10559978633369498,0.055404204760829454
5.343981697,-0.013636666275410488,-0.10815159623035382,0.044222332066292634
5.34875852,-0.012637126801419313,-0.11068746091217757,0.033082817827822714
5.353535343,-0.011649452973505581,-0.1132074324738341,0.021985722990918968
5.358312218,-0.010673756628317124,-0.11571156342269304,0.010931107444449265
5.363089041,-0.009710145012453507,-0.11819990661111848,-8.096993060681817e-05
5.367865916,-0.008758720805508033,-0.1206725151698876,-0.011050451210492564
5.372642739,-0.007819582144147982,-0.12312944244275414,-0.021977279376201354
5.377419562,-0.006892822647071005,-0.1255707419221654,-0.032861398259322654
5.382196437,-0.005978531440688854,-0.12799646718612973,-0.04370275248634333
5.38697326,-0.005076793185407192,-0.13040667183622184,-0.054501287421549686
5.391750083,-0.004187688102391372,-0.13280140943670402,-0.06525694910868148
5.396526958,-0.0033112920007309725,-0.1351807334547354,-0.0759696842114927
5.401303781,-0.002447676304938025,-0.13754469720164134,-0.086639439953375
5.406080603,-0.0015969080827337875,-0.13989335377521567,-0.09726616405619988
5.410857478,-0.0007590500730962627,-0.1422267560030342,-0.10784980467853643
5.415634301,6.58392854444442e-05,-0.14454495638676215,-0.11839031035340217
5.420411124,0.0008777058262634233,-0.14684800704744516,-0.12888762992570443
5.425187999,0.0016764996258416933,-0.1491359596717799,-0.1393417124895312
5.429964822,0.0024621749746940058,-0.1514088654593705,-0.14975250732545306
5.434741697,0.003234690348001974,-0.15366677507098692,-0.16011996383800248
5.43951852,0.003994008375926515,-0.15590973857785237,-0.17044403149350063
5.444295343,0.00474009581357049,-0.15813780541199635,-0.18072465975840799
5.449072166,0.005472923510560966,-0.16035102431771994,-0.19096179803837754
5.453849041,0.006192466380220897,-0.16254944330422616,-0.20115539561819207
5.458625864,0.006898703368302476,-0.16473310959947327,-0.2113054016027662
5.463402739,0.007591617421259327,-0.16690206960531442,-0.22141176485939043
5.468179562,0.008271195454042748,-0.16905636885398906,-0.23147443396138792
5.472956385,0.008937428317417983,-0.17119605196603335,-0.24149335713334727
5.47773326,0.00959031076480862,-0.17332116260967825,-0.2514684821980844
5.482510083,0.01022984141868934,-0.17543174346180732,-0.26139975652547764
5.487286906,0.010856022736558566,-0.17752783617054976,-0.2712871269833125
5.492063781,0.01146886097653269,-0.17960948131959079,-0.2811305398902657
5.496840603,0.01206836616261217,-0.18167671839428776,-0.2909299409711523
5.501617426,0.012654552049676167,-0.18372958574968817,-0.3006852753145486
5.506394301,0.01322743608826626,-0.18576812058055267,-0.3103964873328957
5.511171124,0.013787039389220886,-0.18779235889349194,-0.32006352072517424
5.515947947,0.014333386688220448,-0.18980233548133024,-0.3296863184422296
5.520724822,0.01486650631029834,-0.1917980838998083,-0.33926482265481744
5.525501645,0.015386430134365728,-0.19377963644673607,-0.3487989747244265
5.53027852,0.015893193557788475,-0.19574702414370074,-0.358288715176932
5.535055343,0.016386835461043827,-0.1977002767204289,-0.3677339836791304
5.539832166,0.01686739817247278,-0.19963942260189357,-0.3771347190182037
5.544609041,0.0173349274331319,-0.20156448889824283,-0.3864908590841609
5.549385864,0.017789472361735892,-0.20347550139761134,-0.3958023408553045
5.554162687,0.018231085419669838,-0.20537248456185936,-0.4050691003867739
5.558939562,0.018659822376037923,-0.207255461525265,-0.41429107280221883
5.563716385,0.019075742272705018,-0.20912445409617575,-0.4234681922886507
5.568493208,0.019478907389278446,-0.2109794827616059,-0.43260039209452056
5.573270083,0.019869383207969833,-0.2128205666947481,-0.44168760453107014
5.578046906,0.02024723837827086,-0.21464772376534863,-0.45072976097699885
5.582823728,0.02061254468137223,-0.21646097055287788,-0.4597267918864891
5.587600603,0.020965376994251845,-0.21826032236241025,-0.4686786268006305
5.592377426,0.02130581325335534,-0.2200457932431125,-0.47758519436228375
5.597154249,0.021633934417790306,-0.22181739600922376,-0.4864464223344215
5.601931124,0.021949824431954888,-0.2235751422633964,-0.4952622376219756
5.606707947,0.02225357018752247,-0.22531904242225673,-0.5040325662972093
5.61148477,0.022545261484706345,-0.22704910574403683,-0.5127573336286146
5.616261645,0.022824990992730738,-0.22876534035812313,-0.5214364641133269
5.621038468,0.0230928542094364,-0.23046775329636837,-0.5300698815130206
5.625815343,0.023348949419950308,-0.23215635052601757,-0.5386575088932307
5.630592166,0.023593377654350368,-0.2338311369841029,-0.5471992686660211
5.635368989,0.023826242644258575,-0.23549211661316655,-0.5556950826359022
5.640145864,0.024047650778299793,-0.23713929239817505,-0.5641448720488856
5.644922687,0.0242577110563692,-0.23877266640449452,-0.5725485576445515
5.64969951,0.024456535042659266,-0.24039223981680286,-0.580906059710993
5.654476385,0.02464423681740709,-0.24199801297882514,-0.5892172981424971
5.659253208,0.024820932927334356,-0.2435899854337912,-0.5974821924998129
5.664030031,0.024986742334763636,-0.24516815596552988,-0.6057006620728514
5.668806906,0.02514178636540438,-0.24673252264013157,-0.6138726259456591
5.673583728,0.025286188654810256,-0.24828308284813,-0.6219980030635051
5.678360551,0.02542007509351853,-0.249819833347171,-0.6300767123019148
5.683137426,0.02554357377089253,-0.25134277030515145,-0.638108672537481
5.687914249,0.025656814917700787,-0.2528518893438244,-0.6460938027202929
5.692691072,0.025759930847479903,-0.25434718558288044,-0.6540320219478261
5.697467947,0.025853055896741577,-0.2558286536845264,-0.6619232495401536
5.70224477,0.025936326364097102,-0.2572962878985977,-0.6697674051163457
5.707021593,0.026009880448384433,-0.25875008210825423,-0.6775644086719399
5.711798468,0.02607385818589323,-0.2601900298763253,-0.6853141806573614
5.716575291,0.026128401386791563,-0.2616161244923851,-0.6930166420571788
5.721352166,0.026173653570863962,-0.2630283590206497,-0.7006717144700921
5.726128989,0.026209759902674917,-0.2644267263487927,-0.7082793201895617
5.730905812,0.026236867126275536,-0.2658112192377769,-0.7158393822850133
5.735682687,0.026255123499575143,-0.26718183037279525,-0.7233518246835602
5.74045951,0.02626467872850424,-0.26853855241540897,-0.730816572252203
5.745236333,0.026265683901100727,-0.26988137805695894,-0.7382335508804753
5.750013208,0.02625829142165775,-0.2712103000733184,-0.7456026875635137
5.754790031,0.02624265494507725,-0.2725253113810468,-0.7529239104855332
5.759566853,0.026218929311577127,-0.2738264050949902,-0.7601971491036894
5.764343728,0.026187270481901146,-0.2751135745873551,-0.7674223342323133
5.769120551,0.026147835473179292,-0.27638681354825406,-0.7745993981275074
5.773897374,0.026100782295582135,-0.27764611604769185,-0.781728274572083
5.778674249,0.02604626988990593,-0.27889147659892694,-0.7888088989608194
5.783451072,0.025984458066216347,-0.2801228902231093,-0.7958412083860223
5.788227895,0.025915507443667243,-0.28134035251506095,-0.8028251417233568
5.79300477,0.025839579391597593,-0.28254385971003526,-0.8097606397179234
5.797781593,0.025756835971993578,-0.2837334087512651,-0.8166476450705377
5.802558416,0.025667439883384324,-0.28490899735808184,-0.8234861025241649
5.807335291,0.025571554406219495,-0.28607062409436695,-0.8302759589504504
5.812112114,0.025469343349756007,-0.2872182884370809,-0.8370171634362717
5.816888989,0.025360971000461106,-0.28835199084459734,-0.8437096673702262
5.821665812,0.025246602071920834,-0.2894717328245578,-0.850353424528959
5.826442635,0.025126401656225723,-0.29057751700095436,-0.8569483911632365
5.83121951,0.025000535176789362,-0.29166934718014065,-0.8634945260836648
5.835996333,0.02486916834254001,-0.2927472284154698,-0.8699917907459566
5.840773156,0.024732467103410746,-0.293811167070264,-0.876440149335653
5.845550031,0.024590597607040608,-0.29486117087882796,-0.8828395688522103
5.850326853,0.02444372615658818,-0.2958972490052342,-0.8891900191923539
5.855103676,0.02429201916955003,-0.2969194120996265,-0.8954914732325991
5.859880551,0.024135643137469617,-0.2979276723518116,-0.901743906910839
5.864657374,0.023974764586417775,-0.2989220435419319,-0.907947299306894
5.869434197,0.02380955003812356,-0.2999025410880389,-0.9141016327219236
5.874211072,0.023640165971633736,-0.30086918209041674,-0.9202068927566007
5.878987895,0.02346677878538038,-0.3018219853725365,-0.9262630683879598
5.883764718,0.023289554759539685,-0.3027609715185436,-0.9322701520448347
5.888541593,0.02310866001857163,-0.30368616290721395,-0.938228139681805
5.893318416,0.022924260493839815,-0.30459758374234575,-0.9441370308515715
5.898095239,0.022736521886223333,-0.30549526007958183,-0.9499968287756853
5.902872114,0.022545609628646473,-0.3063792198496954,-0.9558075404135543
5.907648937,0.02235168884846744,-0.30724949287840336,-0.9615691765296664
5.912425812,0.022154924329683873,-0.30810611090280654,-0.967281751758961
5.917202635,0.02195548047492986,-0.30894910758458816,-0.9729452846702852
5.921979458,0.021753521267255865,-0.3097785185201286,-0.9785597978278643
5.926756333,0.021549210231698993,-0.3105943812477158,-0.984125317850722
5.931533156,0.02134271039666578,-0.3113967352520512,-0.9896418754699894
5.936309978,0.021134184255162548,-0.31218562196627014,-0.995109505584053
5.941086801,0.020923793725919387,-0.31296108477170864,-1.0005282473114925
5.945863676,0.02071170011446415,-0.3137231689956565,-1.005898144041778
5.950640499,0.02049806407421194,-0.3144719219073438,-1.0112192434837048
5.955417374,0.020283045567643362,-0.31520739271240666,-1.0164915977115385
5.960194197,0.020066803827649516,-0.31592963254607853,-1.0217152632088387
5.96497102,0.019849497319122632,-0.31663869446534465,-1.0268903009099237
5.969747895,0.019631283700868675,-0.31733463344028673,-1.0320167762389312
5.974524718,0.019412319787911275,-0.31801750634482756,-1.037094759146414
5.979301541,0.01919276151424638,-0.31868737194706864,-1.0421243241434115
5.984078416,0.01897276389609481,-0.31934429089938926,-1.0471055503329365
5.988855239,0.01875248099568608,-0.3199883257284499,-1.0520385214388082
5.993632062,0.018532065885592162,-0.32061954082521577,-1.0569233258317572
5.998408937,0.01831167061361402,-0.32123800243509004,-1.0617600565527237
6.00318576,0.018091446168207,-0.32184377864821445,-1.0665488113332608
6.007962583,0.017871542444413774,-0.3224369393899685,-1.0712896926129596
6.012739458,0.017652108210257096,-0.32301755641166946,-1.0759828075538078
6.017516281,0.017433291073530272,-0.3235857032814539,-1.080628268051398
6.022293103,0.017215237448910632,-0.3241414553752938,-1.0852261907428897
6.027069978,0.01699809252531118,-0.32468488986807953,-1.0897766970116396
6.031846801,0.016782000233377017,-0.32521608572468186,-1.0942799129883987
6.036623624,0.01656710321302614,-0.3257351236908866,-1.0987359695489731
6.041400499,0.01635354278092908,-0.32624208628407886,-1.103145002308251
6.046177322,0.01614145889781893,-0.3267370577835505,-1.1075071516104902
6.050954197,0.015930990135522877,-0.3272201242203009,-1.1118225625157812
6.05573102,0.015722273643608252,-0.3276913733661995,-1.1160913847826
6.060507843,0.015515445115540502,-0.3281508947223787,-1.1203137728463761
6.065284718,0.015310638754257214,-0.3285987795067298,-1.1244898857940049
6.070061541,0.01510798723707202,-0.32903512064038315,-1.1286198873342506
6.074838364,0.014907621679835743,-0.3294600127330585,-1.132703945763995
6.079615239,0.014709671600299564,-0.3298735520671847,-1.1367422339303075
6.084392062,0.014514264880645679,-0.33027583658070125,-1.1407349291883295
6.089168885,0.014321527729173202,-0.33066696584847227,-1.1446822133549757
6.09394576,0.01413158464114924,-0.33104704106226146,-1.14858427265846
6.098722583,0.013944558358855465,-0.3314161650092379,-1.152441297683664
6.103499406,0.013760569830878918,-0.33177444204900447,-1.1562534833133644
6.108276281,0.013579738170711975,-0.33212197808915916,-1.1600210286653434
6.113053103,0.013402180614739379,-0.3324588805594215,-1.163744137025413
6.117829926,0.013228012479699333,-0.3327852583843798,-1.167423015776399
6.122606801,0.013057347119711484,-0.3331012219549368,-1.1710578763231292
6.127383624,0.012890295882968054,-0.33340688309855043,-1.1746489340134867
6.132160499,0.012726968068186172,-0.3337023550483804,-1.1781964080555969
6.136937322,0.012567470880920613,-0.33398775241146433,-1.1817005214312315
6.141714145,0.012411909389838549,-0.33426319113604946,-1.185161500805536
6.14649102,0.012260386483062711,-0.33452878847821105,-1.1885795764331872
6.151267843,0.012113002824697107,-0.3347846629678866,-1.1919549820610917
6.156044666,0.011969856811658878,-0.3350309343744542,-1.195287954827736
6.160821541,0.011831044530949733,-0.33526772367197744,-1.1985787351592883
6.165598364,0.011696659717508546,-0.33549515300423,-1.2018275666625506
6.170375187,0.011566793712791481,-0.33571334564959543,-1.2050346960148546
6.17515201,0.011441535424226488,-0.3359224259859194,-1.2082003728509803
6.179928885,0.011320971285685868,-0.3361225194553687,-1.211324849647182
6.184705708,0.011205185219114133,-0.3363137525293219,-1.21440838160239
6.189482583,0.011094258597438797,-0.3364962526732897,-1.2174512265166422
6.194259406,0.010988270208878895,-0.33667014831183384,-1.2204536446667833
6.199036228,0.010887296222749697,-0.3368355687934335,-1.2234158986794628
6.203813103,0.010791410156842443,-0.33699264435522835,-1.2263382534014642
6.208589926,0.0107006828464362,-0.33714150608754745,-1.2292209757674095
6.213366749,0.010615182414977298,-0.3372822858981168,-1.2320643346648865
6.218143624,0.010534974246441944,-0.33741511647582323,-1.2348686007970384
6.222920447,0.010460120959380889,-0.3375401312538993,-1.237634046542676
6.22769727,0.01039068238263223,-0.3376574643723823,-1.2403609458139777
6.232474145,0.010326715532679295,-0.33776725063969043,-1.2430495739118568
6.237250968,0.01026827459262396,-0.337869625493158,-1.2457002073790946
6.242027791,0.010215410892740265,-0.33796472495837593,-1.2483131238513403
6.246804666,0.010168172892567764,-0.3380526856071967,-1.2508886019060794
6.251581489,0.010126606164498455,-0.33813364451427785,-1.2534269209096702
6.256358312,0.010090753378806576,-0.3382077392120511,-1.2559283608625595
6.261135187,0.010060654290068399,-0.33827510764401436,-1.2583932022428097
6.26591201,0.010036345724920669,-0.33833588811625226,-1.2608217258480892
6.270688833,0.010017861571112138,-0.3383902192470928,-1.2632142126363046
6.275465708,0.010005232767811865,-0.33843823991480787,-1.265570943565066
6.280242531,0.009998487297149356,-0.3384800892032748,-1.2678921994301886
6.285019406,0.009997650176973039,-0.3385159063455309,-1.2701782607034506
6.289796228,0.01000274345482288,-0.3385458306651674,-1.2724294073698075
6.294573051,0.01001378620311903,-0.33857000151552324,-1.2746459187642623
6.299349926,0.010030794515570544,-0.33858855821665185,-1.2768280734085886
6.304126749,0.01005378150480764,-0.3386016399900493,-1.2789761488481075
6.308903572,0.010082757301240098,-0.3386093858911484,-1.2810904214887044
6.313680447,0.010117729053145025,-0.33861193473959594,-1.2831711664342802
6.31845727,0.010158700927989789,-0.3386094250473374,-1.285218657324827
6.323234093,0.01020567411499999,-0.33860199494454063,-1.2872331661753103
6.328010968,0.010258646828986882,-0.33858978210339763,-1.289214963215521
6.332787791,0.01031761431545268,-0.3385729236598452,-1.2911643167310587
6.337564614,0.01038256885699494,-0.3385515561332508,-1.293081492905609
6.342341489,0.01045349978103212,-0.33852581534411785,-1.294966755664678
6.347118312,0.010530393468871422,-0.33849583632987873,-1.2968203665209335
6.351895135,0.010613233366137518,-0.33846175325885036,-1.2986425844212914
6.35667201,0.010701999994578337,-0.3384236993424416,-1.3004336655958948
6.361448833,0.010796670965262213,-0.3383818067457055,-1.3021938634091252
6.366225656,0.010897220993179052,-0.3383362064963382,-1.303923428212777
6.371002531,0.011003621913256012,-0.3382870283922278,-1.3056226072015165
6.375779353,0.011115842697795164,-0.33823440090766105,-1.3072916442707574
6.380556176,0.011233849475335895,-0.3381784510982981,-1.308930779877082
6.385333051,0.011357605550938045,-0.3381193045050257,-1.3105402509013455
6.390109874,0.011487071427872928,-0.3380570850567998,-1.312120290514602
6.394886749,0.011622204830699728,-0.3379919149725889,-1.3136711280469864
6.399663572,0.011762960729696247,-0.3379239146625371,-1.3151929888596847
6.404440395,0.011909291366606864,-0.3378532026284669,-1.3166860942201444
6.409217218,0.012061146281666957,-0.3377798953638401,-1.3181506611806737
6.413994093,0.012218472341861412,-0.3377041072532976,-1.3195869024606028
6.418770916,0.012381213770374011,-0.33762595047189947,-1.3209950263321775
6.423547791,0.012549312177184536,-0.337545534884184,-1.3223752365103636
6.428324614,0.012722706590771763,-0.3374629679431635,-1.3237277320467489
6.433101437,0.012901333490883493,-0.3373783545893794,-1.325052707227722
6.43787826,0.013085126842338876,-0.3372917971501447,-1.3263503514771127
6.442655135,0.013274018129833073,-0.33720339523910964,-1.327620849263479
6.447431958,0.013467936393719264,-0.33711324565629835,-1.3288643800122197
6.452208833,0.013666808266748234,-0.3370214422887682,-1.3300811180226728
6.456985656,0.01387055801175063,-0.33692807601204705,-1.331271232390348
6.461762478,0.014079107560250976,-0.3368332345925062,-1.3324348869344467
6.466539353,0.014292376552005145,-0.33673700259082595,-1.3335722401307968
6.471316176,0.01451028237545426,-0.33663946126671535,-1.3346834450503229
6.476092999,0.014732740209088054,-0.33654068848504554,-1.335768649303151
6.480869874,0.01495966306371046,-0.3364407586235567,-1.3368279949884425
6.485646697,0.015190961825600582,-0.3363397424822994,-1.337861618650029
6.49042352,0.01542654530056398,-0.336237707194972,-1.3388696512378997
6.495200395,0.015666320258872952,-0.33613471614231344,-1.3398522180755585
6.499977218,0.015910191481099113,-0.3360308288677082,-1.3408094388332492
6.504754041,0.016158061804846902,-0.3359261009951583,-1.3417414275070347
6.509530916,0.016409832172402373,-0.33582058414977534,-1.342648292403697
6.514307739,0.01666540167931739,-0.33571432588093975,-1.343530136131398
6.519084562,0.01692466762395414,-0.33560736958827475,-1.3443870555960267
6.523861437,0.01718752555801787,-0.33549975445057734,-1.3452191420031527
6.52863826,0.017453869338106394,-0.3353915153578448,-1.3460264808655273
6.533415083,0.0177235911783031,-0.3352826828465287,-1.3468091520160708
6.538191958,0.017996581703837222,-0.3351732830381436,-1.3475672296262962
6.542968781,0.01827273000583178,-0.3350633375813533,-1.3483007822301243
6.547745603,0.01855192369715706,-0.3349528635976526,-1.3490098727530677
6.552522478,0.018834048969406998,-0.33484187363075407,-1.3496945585467808
6.557299301,0.019118990651017,-0.33473037559978236,-1.3503548914289818
6.562076124,0.019406632266544432,-0.3346183727563677,-1.3509909177287662
6.566852999,0.019696856097136554,-0.33450586364572055,-1.351602678337352
6.571629822,0.01998954324221409,-0.33439284207175984,-1.352190208764309
6.576406645,0.020284573682401788,-0.33427929706635495,-1.3527535391993217
6.58118352,0.02058182634373874,-0.3341652128627429,-1.3532926945795372
6.585960343,0.020881179163200786,-0.3340505688731823,-1.3538076946625235
6.590737218,0.021182509155564494,-0.3339353396709118,-1.35429855410484
6.595514041,0.021485692481638407,-0.3338194949764887,-1.3547652825462035
6.600290864,0.02179060451788221,-0.3337029996485864,-1.355207884699207
6.605067739,0.022097119927428643,-0.33358581367933454,-1.3556263604445469
6.609844562,0.022405112732516393,-0.3334678921942844,-1.3560207049317012
6.614621385,0.022714456388335073,-0.33334918545708536,-1.3563909086849675
6.61939826,0.023025023858276275,-0.3332296388789558,-1.356736957714735
6.624175083,0.02333668769057784,-0.3331091930330386,-1.3570588336338674
6.628951906,0.02364932009634186,-0.33298778367373744,-1.3573565137790427
6.633728781,0.02396279302890074,-0.3328653417611342,-1.3576299713368867
6.638505603,0.02427697826449998,-0.33274179349059535,-1.357879175474718
6.643282426,0.02459174748426202,-0.33261706032767885,-1.3581040914757097
6.648059301,0.024906972357393146,-0.3324910590484544,-1.358304680878272
6.652836124,0.02522252462559609,-0.3323637017853475,-1.3584809016194326
6.657612947,0.025538276188654407,-0.3322348960786117,-1.3586327081819816
6.662389822,0.025854099191161047,-0.332104544933527,-1.3587600517451341
6.667166645,0.0261698661103716,-0.3319725468834247,-1.3588628803384648
6.671943468,0.026485449845171486,-0.331838796058632,-1.3589411389988741
6.676720343,0.02680072380615426,-0.3317031822614246,-1.3589947699303442
6.681497166,0.027115562006813254,-0.3315655910470651,-1.3590237126662361
6.686273989,0.027429839155850552,-0.3314259038109953,-1.359027904233886
6.691050864,0.027743430750605494,-0.33128399788223967,-1.3590072793212677
6.695827687,0.028056213171599977,-0.3311397466230655,-1.3589617704454953
6.70060451,0.028368063778190462,-0.33099301953492255,-1.358891308122947
6.705381385,0.028678861005307005,-0.33084368237066597,-1.3587958210407873
6.710158208,0.028988484461247476,-0.3306915972530405,-1.3586752362296555
6.714935083,0.029296815026480627,-0.3305366227993791,-1.3585294792372935
6.719711906,0.029603734953395446,-0.3303786142524478,-1.3583584743028936
6.724488728,0.029909127966916443,-0.33021742361734086,-1.358162144531958
6.729265551,0.03021287936588611,-0.3300528998043035,-1.3579404120714635
6.734042426,0.030514876125096912,-0.3298848887773324,-1.3576931982851026
6.738819249,0.030815006997837763,-0.32971323370837496,-1.3574204239283714
6.743596124,0.03111316261880507,-0.3295377751369289,-1.3571220093232805
6.748372947,0.03140923560721694,-0.3293583511348225,-1.356797874532452
6.75314977,0.03170312066996117,-0.32917479747594036,-1.356447939532384
6.757926645,0.03199471470460131,-0.32898694781064786,-1.3560721243856815
6.762703468,0.03228391690205905,-0.3287946338446635,-1.3556703494120623
6.767480291,0.03257062884878515,-0.32859768552212465,-1.355242535357961
6.772257166,0.03285475462822341,-0.3283959312125948,-1.3547886035645524
6.777033989,0.03313620092136337,-0.3281891979017646,-1.3543084761340243
6.781810812,0.03341487710616701,-0.3279773113856065,-1.3538020760939242
6.786587687,0.033690695355643424,-0.3277600964677556,-1.353269327559444
6.79136451,0.03396357073433303,-0.32753737715989767,-1.3527101558934842
6.796141333,0.034233421292948,-0.32730897688495186,-1.3521244878643421
6.800918208,0.03450016816089818,-0.3270747186828411,-1.3515122518008753
6.805695031,0.034763735636411795,-0.3268344254186425,-1.3508733777449822
6.810471853,0.03502405127393856,-0.3265879199929131,-1.350207797601251
6.815248728,0.035281045968499444,-0.3263350255539851,-1.3495154452836247
6.820025551,0.03553465403662339,-0.32607556571202617,-1.3487962568589285
6.824802374,0.03578481329348949,-0.3258093647546573,-1.348050170687104
6.829579249,0.03603146512587494,-0.32553624786392404,-1.3472771275579836
6.834356072,0.03627455456049699,-0.3252560413344184,-1.3464770708244427
6.839132895,0.03651403032733229,-0.32496857279235236,-1.3456499465317777
6.84390977,0.03674984491750261,-0.32467367141539,-1.3447957035431644
6.848686593,0.03698195463533259,-0.3243711681530474,-1.343914293661076
6.853463416,0.0372103196442148,-0.32406089594747683,-1.3430056717445689
6.858240291,0.03743490400595874,-0.32374268995445155,-1.342069795822342
6.863017114,0.03765567571335158,-0.32341638776436954,-1.3411066272014978
6.867793937,0.03787260671571622,-0.32308182962309395,-1.3401161305719462
6.872570812,0.0380856729373127,-0.32273885865245244,-1.339098274106412
6.877347635,0.038294854288488084,-0.3223873210702196,-1.3380530295560282
6.882124458,0.03850013466953305,-0.32202706640940537,-1.336980372341513
6.886901333,0.038701501967249065,-0.32165794773667067,-1.335880281639907
6.891678156,0.038898948044266114,-0.32127982186969084,-1.3347527404668644
6.896454978,0.03909246872117876,-0.32089254959328056,-1.3335977357544908
6.901231853,0.039282063751587035,-0.32049599587408245,-1.3324152584247084
6.906008676,0.039467736790140526,-0.3200900300736042,-1.3312053034581437
6.910785551,0.0396494953536906,-0.31967452615937236,-1.3299678699585369
6.915562374,0.039827350775658445,-0.31924936291394873,-1.3287029612127044
6.920339197,0.04000131815372845,-0.3188144241415336,-1.3274105847461088
6.925116072,0.04017141629097788,-0.31836959887186644,-1.3260907523741172
6.929892895,0.04033766763055657,-0.3179147815611189,-1.3247434802490672
6.934669718,0.04050009818403372,-0.3174498722894654,-1.3233687889032986
6.939446593,0.04065873745353559,-0.3169747769550096,-1.3219667032883302
6.944223416,0.0408136183478069,-0.31648940746373605,-1.3205372528103796
6.949000239,0.040964777092339776,-0.3159936819151501,-1.319080471362459
6.953777062,0.04111225313372967,-0.3154875247832682,-1.317596397353293
6.958553937,0.04125608903843613,-0.31497086709261796,-1.3160850737332899
6.96333076,0.04139633038614824,-0.3144436465889015,-1.314546548017807
6.968107583,0.041533025657977625,-0.31390580790396944,-1.3129808723078984
6.972884458,0.04166622611972589,-0.3133573027147503,-1.31138810330871
6.977661281,0.04179598570049544,-0.3127980898957772,-1.3097683023456292
6.982438156,0.04192236086693582,-0.3122281356649552,-1.3081215353782556
6.987214978,0.04204541049344038,-0.31164741372222665,-1.306447873012222
6.991991801,0.04216519572863125,-0.31105590538079975,-1.3047473905088698
6.996768676,0.04228177985849329,-0.3104535996906229,-1.3030201677927473
7.001545499,0.042395228166537825,-0.3098404935537966,-1.3012662894568787
7.006322322,0.04250560779139496,-0.3092165918316293,-1.2994858447657192
7.011099197,0.042612987582248435,-0.30858190744305813,-1.2976789276557117
7.01587602,0.042717437952540495,-0.3079364614541681,-1.295845636733353
7.020652843,0.04281903073238511,-0.3072802831585572,-1.293986075270674
7.025429718,0.042917839020136954,-0.30661341014830923,-1.2921003511980433
7.030206541,0.04301393703356833,-0.30593588837534874,-1.2901885770941914
7.034983364,0.04310739996110809,-0.30524777220297156,-1.2882508701733335
7.039760239,0.043198303813594525,-0.3045491244473575,-1.2862873522692646
7.044537062,0.043286725276989256,-0.30384001640889147,-1.284298149816292
7.049313885,0.04337274156649014,-0.3031205278931412,-1.282283393826866
7.05409076,0.04345643028247024,-0.30239074722135734,-1.280243219865775
7.058867583,0.04353786926865591,-0.3016507712303802,-1.2781777680207693
7.063644406,0.04361713647294122,-0.3009007052618535,-1.2760871828695022
7.068421281,0.043694309811217316,-0.3001406631406627,-1.2739716134426768
7.073198103,0.043769467034572275,-0.2993707671425308,-1.2718312131833132
7.077974926,0.04384268560019001,-0.29859114795071945,-1.2696661399020475
7.082751801,0.04391404254624591,-0.2978019446017964,-1.267476555728407
7.087528624,0.0439836143710652,-0.2970033044204403,-1.2652626270580192
7.092305447,0.04405147691677878,-0.29619538294326037,-1.263024524495747
7.097082322,0.04411770525768168,-0.2953783438316126,-1.2607624227947478
7.101859145,0.044182373593471415,-0.294552358773398,-1.2584765007914887
7.106635968,0.044245555147518024,-0.29371760737382485,-1.2561669413367702
7.111412843,0.044307322070294204,-0.29287427703511626,-1.2538339312228337
7.116189666,0.04436774534807269,-0.29202256282514355,-1.2514776611066212
7.120966489,0.04442689471697823,-0.2911626673349672,-1.2490983254292705
7.125743364,0.04448483858246154,-0.29029480052527046,-1.2466961223319484
7.130520187,0.04454164394424281,-0.2894191795616773,-1.2442712535681304
7.13529701,0.04459737632675307,-0.2885360286389531,-1.241823924412455
7.140073885,0.044652099715084645,-0.28764557879409547,-1.2393543435662868
7.144850708,0.044705876496446154,-0.28674806770833156,-1.2368627230601152
7.149627531,0.04475876740710531,-0.2858437394980482,-1.2343492781528875
7.154404406,0.04481083148479306,-0.2849328444946881,-1.23181422722837
7.159181228,0.044862126026537566,-0.28401563901365545,-1.229257791688599
7.163958051,0.04491270655189577,-0.28309238511228907,-1.226680195844439
7.168734926,0.04496262677155371,-0.28216335033697754,-1.2240816668032248
7.173511749,0.045011938561273904,-0.2812288074595215,-1.2214624343533997
7.178288572,0.04506069194117791,-0.2802890342028768,-1.2188227308460404
7.183065447,0.04510893506036256,-0.2793443129564501,-1.2161627910731152
7.18784227,0.04515671418685878,-0.278394930481164,-1.2134828521423096
7.192619093,0.04520407370295107,-0.27744117760456194,-1.2107831533482594
7.197395968,0.04525105610588285,-0.2764833489062768,-1.208063936040049
7.202172791,0.045297702013979445,-0.2755217423942379,-1.2053254434848364
7.206949614,0.04534405017822493,-0.27455665917204847,-1.202567920727484
7.211726489,0.04539013749933307,-0.27358840309801946,-1.1997916144460943
7.216503312,0.045435999050358326,-0.2726172804364012,-1.1969967728033997
7.221280187,0.04548166810489958,-0.2716435995014104,-1.1941836452939827
7.226057218,0.04552717617095705,-0.2706676702946959,-1.1913524825873416
7.230833781,0.04557255303050971,-0.26968980413693056,-1.1885035363668541
7.235610708,0.04561782678488466,-0.2687103132942577,-1.1856370591647287
7.240387531,0.045663023905990474,-0.2677295106003525,-1.1827533041930558
7.245164353,0.0457081692934819,-0.2667477090748803,-1.1798525251710947
7.249941228,0.04575328633791434,-0.26576522153914495,-1.176934976148941
7.254718051,0.0457983969899327,-0.26478236022971735,-1.1740009113277239
7.259494874,0.04584352183552044,-0.2637994364108252,-1.1710505848764956
7.264271749,0.04588868017731109,-0.2628167599862638,-1.1680842507459572
7.269048572,0.04593389012193456,-0.2618346391115663,-1.1651021624791524
7.273825395,0.045979168673334424,-0.26085337980714063,-1.1621045730192352
7.27860227,0.046024531831950204,-0.2598732855730505,-1.1590917345144047
7.283379093,0.04606999469961158,-0.258894657006088,-1.1560638981200744
7.288155916,0.046115571589940105,-0.25791779141975196,-1.1530213137983243
7.292932791,0.0461612761439977,-0.2569429824677126,-1.1499642301146542
7.297709614,0.046207121450861255,-0.25597051977130714,-1.1468928940320449
7.302486437,0.046253120172738076,-0.25500068855158187,-1.1438075507023497
7.307263312,0.04629928467417069,-0.2540337692663695,-1.1407084432550736
7.312040135,0.0463456271548138,-0.2530700372528804,-1.1375958125836378
7.316816958,0.04639215978520322,-0.2521097623762757,-1.1344698971293088
7.321593833,0.046438894844880355,-0.25115320868468904,-1.1313309326630538
7.326370656,0.04648584486219061,-0.25020063407116566,-1.1281791520657036
7.331147478,0.04653302275504296,-0.24925228994299603,-1.1250147851069163
7.335924353,0.0465804419719057,-0.24830842089894356,-1.1218380582235925
7.340701176,0.04662811663231981,-0.24736926441489002,-1.1186491942985264
7.345477999,0.0466760616662342,-0.24643505053845027,-1.1154484124402142
7.350254874,0.046724292951501614,-0.24550600159313538,-1.1122359277648803
7.355031697,0.046772827448915616,-0.2445823318926671,-1.1090119511819176
7.35980852,0.046821683334214416,-0.2436642474660601,-1.1057766891840568
7.364585395,0.04687088012652328,-0.2427519457940933,-1.1025303436436693
7.369362218,0.04692043881274837,-0.24184561555778913,-1.0992731116166639
7.374139041,0.04697038196747041,-0.24094543639951435,-1.0960051851554538
7.378915916,0.047020733867914034,-0.24005157869730123,-1.0927267511324437
7.383692739,0.04707152060358775,-0.239164203352972,-1.0894379910754362
7.388469562,0.04712277018020099,-0.23828346159462743,-1.086139081016278
7.393246437,0.0471745126174722,-0.23740949479403575,-1.0828301913539595
7.39802326,0.047226780040450986,-0.236542434299431,-1.0795114867332483
7.402800083,0.04727960676399628,-0.23568240128419612,-1.076183125939791
7.407576958,0.04733302937008674,-0.23482950661186536,-1.072845261812427
7.412353781,0.047387086777691705,-0.23398385071783515,-1.069498041173285
7.417130603,0.0474418203050002,-0.23314552350811374,-1.066141604776041
7.421907478,0.04749727372388629,-0.23231460427537634,-1.0627760872725145
7.426684301,0.047553493306574816,-0.2314911616325199,-1.0594016171975964
7.431461124,0.04761052786455396,-0.230675253463832,-1.056018316972325
7.436237999,0.047668428779854756,-0.22986692689380206,-1.052626302924749
7.441014822,0.047727250028877684,-0.22906621827351423,-1.0492256853280677
7.445791645,0.04778704819899045,-0.2282731531844697,-1.045816568455384
7.45056852,0.047847882498144326,-0.22748774645959804,-1.042399050650247
7.455345343,0.047909814757755166,-0.22671000222113755,-1.0389732244120198
7.460122166,0.047972909429064424,-0.22593991393499582,-1.0355391764949748
7.464899041,0.048037233573135676,-0.2251774644811458,-1.0320969880199125
7.469675864,0.048102856844557354,-0.22442262623956982,-1.028646734597011
7.474452687,0.04816985146882288,-0.22367536119123144,-1.0251884864585665
7.479229562,0.04823829221325792,-0.2229356210335281,-1.0217223086002625
7.484006385,0.048308256351272984,-0.22220334730965768,-1.0182482609296428
7.488783208,0.04837982361964957,-0.22147847155131375,-1.0147663984205335
7.493560083,0.0484530761685268,-0.2207609154341112,-1.0112767712722606
7.498336906,0.048528098503747695,-0.2200505909451314,-1.0077794250726306
7.503113728,0.04860497742124825,-0.21934740056196872,-1.0042744009637543
7.507890603,0.04868380193322363,-0.21865123744265988,-1.0007617358099226
7.512667426,0.048764663185874677,-0.21796198562588398,-0.9972414623668704
7.517444249,0.04884765436861501,-0.2172795202408279,-0.9937136094518695
7.522221124,0.048932870614695236,-0.21660370772612084,-0.9901782021141732
7.526997947,0.049020408893270306,-0.2159344060572553,-0.9866352618054223
7.53177477,0.04911036789299478,-0.21527146498192698,-0.9830848065496681
7.536551645,0.04920284789727665,-0.21461472626273967,-0.9795268511127109
7.541328468,0.04929795065135519,-0.21396402392673317,-0.9759614071704803
7.546105291,0.04939577922139246,-0.21331918452120247,-0.9723884834762028
7.550882166,0.04949643784578635,-0.21268002737528396,-0.9688080860261122
7.555658989,0.049600031778927085,-0.21204636486679337,-0.9652202182234929
7.560435812,0.04970666712763242,-0.2114180026938136,-0.9616248810408512
7.565212687,0.04981645068051279,-0.21079474015054367,-0.9580220731800183
7.56998951,0.049929489730538575,-0.21017637040693854,-0.9544117912299706
7.574766333,0.05004589189110996,-0.2095626807916888,-0.9507940298221315
7.579543208,0.050165764905966054,-0.2089534530781089,-0.9471687817828766
7.584320031,0.050289216453312684,-0.20834846377252514,-0.9435360382829366
7.589096853,0.050416353944592616,-0.20774748440477592,-0.9398957889833466
7.593873728,0.050547284318363715,-0.20715028182045717,-0.9362480221775473
7.598650551,0.05068211382978407,-0.2065566184745644,-0.9325927249292204
7.603427374,0.050820947836227204,-0.20596625272619556,-0.9289298832054098
7.608204249,0.050963890579564956,-0.20537893913399213,-0.9252594820044844
7.612981072,0.051111044965661656,-0.2047944287520115,-0.9215815054785018
7.617757895,0.05126251234162154,-0.2042124694257403,-0.9178959370495522
7.62253477,0.051418392271320675,-0.20363280608797885,-0.9142027595196823
7.627311593,0.05157878230973498,-0.20305518105434694,-0.9105019551740494
7.632088468,0.05174377777654847,-0.2024793343181825,-0.9067935058770239
7.636865291,0.051913471529494166,-0.20190500384462667,-0.903077393161046
7.641642114,0.05208795373784811,-0.20133192586371043,-0.8993535983081342
7.646418937,0.05226731165646885,-0.20075983516227533,-0.8956221024240519
7.651195812,0.05245162940075346,-0.20018846537458096,-0.8918828865052533
7.655972635,0.052640987722867745,-0.19961754927147005,-0.8881359314988475
7.66074951,0.052835463789604034,-0.19904681904797647,-0.8843812183559325
7.665526333,0.053035130962223176,-0.1984760066092748,-0.8806187280787587
7.670303156,0.05324005857864633,-0.197904843854878,-0.8768484417622764
7.675079978,0.053450311738372475,-0.19733306296099687,-0.8730703406306942
7.679856853,0.053665951090506425,-0.19676039666097803,-0.869284406069733
7.684633676,0.05388703262528577,-0.1961865785237328,-0.8654906196552722
7.689410551,0.054113607469490795,-0.19561134323006202,-0.8616889631790845
7.694187374,0.05434572168610778,-0.19503442684676825,-0.8578794186723363
7.698964197,0.05458341607859246,-0.194455567098432,-0.8540619684274966
7.703741072,0.05482672600005078,-0.19387450363671346,-0.8502365950192512
7.708517895,0.055075681167620134,-0.19329097830702632,-0.8464032813249575
7.713294718,0.0553303054823002,-0.19270473541240907,-0.8425620105451078
7.718071593,0.05559061685445085,-0.19211552197439838,-0.838712766224211
7.722848416,0.055856627035148786,-0.19152308799068699,-0.8348555322724387
7.727625239,0.05612834145357595,-0.19092718668932676,-0.8309902929883208
7.732402114,0.05640575906060215,-0.19032757477921805,-0.8271170330826998
7.737178937,0.05668887217872033,-0.1897240126966067,-0.8232357377040747
7.74195576,0.056977666358494154,-0.18911626484729374,-0.8193463924653924
7.746732583,0.057272120241681296,-0.18850409984424843,-0.8154489834722684
7.751509458,0.05757220543120119,-0.1878872907403008,-0.8115434973525544
7.756286281,0.057877886368120045,-0.18726561525558325,-0.8076299212871232
7.761063156,0.0581891202158288,-0.1866388559993892,-0.8037082430416927
7.765839978,0.0585058567515923,-0.18600680068612624,-0.7997784509994816
7.770616801,0.058828038265651535,-0.18536924234505722,-0.7958405341944625
7.775393676,0.05915559946806561,-0.184725979523546,-0.7918944823449839
7.780170499,0.0594884674034851,-0.18407681648355131,-0.7879402858875414
7.784947322,0.05982656137405156,-0.1834215633911426,-0.7839779360105013
7.789724197,0.060169792870614656,-0.18276003649884284,-0.7800074246876085
7.79450102,0.060518065512448496,-0.18209205832063455,-0.7760287447111446
7.799277843,0.060871274995632565,-0.18141745779949692,-0.7720418897246204
7.804054718,0.061229309050245456,-0.18073607046737583,-0.7680468542549242
7.808831541,0.061592047406503585,-0.1800477385975202,-0.7640436337438687
7.813608364,0.06195936176996667,-0.1793523113491479,-0.7600322245790995
7.818385239,0.06233111580592683,-0.1786496449044302,-0.7560126241243448
7.823162062,0.06270716513309588,-0.17793960259781,-0.7519848307489819
7.827938885,0.06308735732670445,-0.17722205503768898,-0.7479488438569005
7.83271576,0.06347153193112576,-0.17649688022053656,-0.7439046639146484
7.837492583,0.06385952048213492,-0.17576396363748212,-0.7398522924788575
7.842269406,0.06425114653891084,-0.17502319837345687,-0.7357917322229521
7.847046281,0.06464622572588381,-0.17427448519895086,-0.731722986963149
7.851823103,0.06504456578452816,-0.17351773265445466,-0.7276460616837828
7.856599926,0.06544596663519468,-0.17275285712765456,-0.7235609625620079
7.861376801,0.06585022044907055,-0.17197978292345037,-0.7194676969919436
7.866153624,0.0662571117303434,-0.1711984423268605,-0.7153662736083396
7.870930447,0.06666641740863005,-0.17040877565887655,-0.711256702309847
7.875707322,0.06707790694170804,-0.1696107313253235,-0.7071389942819815
7.880484145,0.06749134242856332,-0.16880426585877087,-0.7030131620198693
7.885260968,0.06790647873273968,-0.1679893439535315,-0.6988792193508698
7.890037843,0.06832306361594997,-0.1671659384937763,-0.6947371814571605
7.894814666,0.06874083788188626,-0.16633403057478477,-0.6905870648983636
7.899591489,0.06915953553014309,-0.16549360951734163,-0.6864288876342889
7.904368364,0.06957888392014291,-0.16464467287528323,-0.6822626690478587
7.909145187,0.06999860394492123,-0.16378722643618987,-0.6780884299682672
7.91392201,0.07041841021459193,-0.16292128421521662,-0.6739061926944123
7.918698885,0.07083801124927137,-0.16204686844205013,-0.6697159810186363
7.923475708,0.07125710968119843,-0.16116400954097418,-0.6655178202508047
7.928252531,0.07167540246575062,-0.1602727461040238,-0.6613117372427363
7.933029406,0.07209258110102804,-0.15937312485720248,-0.6570977604129782
7.937806228,0.07250833185565783,-0.1584652006197275,-0.6528759197719037
7.942583051,0.07292233600446255,-0.15754903625625993,-0.6486462469470798
7.947359926,0.07333427007163575,-0.15662470262206415,-0.644408775208821
7.952136749,0.07374380608107402,-0.15569227850103382,-0.6401635394958115
7.956913572,0.07415061181352399,-0.1547518505365163,-0.6359105764406469
7.961690447,0.07455435107021331,-0.15380351315486598,-0.6316499243951311
7.96646727,0.07495468394264103,-0.15284736848166006,-0.6273816234551516
7.971244093,0.07535126708820426,-0.15188352625051718,-0.6231057154849496
7.976020968,0.07574375401133317,-0.15091210370447344,-0.6188222441406155
7.980797791,0.07613179534979717,-0.14993322548988888,-0.6145312548926561
7.985574614,0.0765150391658329,-0.1489470235428834,-0.6102327950475139
7.990351437,0.07689313124172902,-0.14795363696833302,-0.6059269137679532
7.995128312,0.0772657153794868,-0.1469532119114961,-0.6016136620922706
7.999905135,0.07763243370415783,-0.14594590142237665,-0.5972930929523342
8.00468201,0.07799292697044148,-0.14493186531297525,-0.5929652611904974
8.009458833,0.07834683487210693,-0.1439112700076192,-0.5886302235754783
8.014235656,0.0786937963537889,-0.1428842883866006,-0.5842880388173264
8.019012531,0.07903344992469259,-0.1418510996233824,-0.5799387675816262
8.023789353,0.07936543397373184,-0.14081188901565742,-0.5755824725031102
8.028566176,0.07968938708561192,-0.13976684781056775,-0.5712192181988569
8.033343051,0.08000494835735607,-0.1387161730244063,-0.5668490712812424
8.038119874,0.08031175771476205,-0.13766006725713045,-0.562472100370801
8.042896697,0.0806094562282625,-0.13659873850201937,-0.5580883761091319
8.047673572,0.0808976864276508,-0.1355323999508021,-0.553697971171966
8.052450395,0.08117609261512385,-0.13446126979457365,-0.5493009602824805
8.057227218,0.08144432117608381,-0.13338557102080173,-0.5448974202249236
8.062004093,0.08170202088713471,-0.13230553120671032,-0.5404874298585747
8.066780916,0.0819488432207059,-0.13122138230931046,-0.5360710701320323
8.071557739,0.08218444264573607,-0.13013336045233131,-0.5316484240977895
8.076334562,0.0824084769238595,-0.12904170571028734,-0.5272195769270301
8.081111437,0.0826206074005544,-0.1279466618898964,-0.5227846159245679
8.08588826,0.08282049929074066,-0.12684847630904242,-0.5183436305438399
8.090665135,0.08300782195834902,-0.125747399573453,-0.5138967124018663
8.095441958,0.08318224918942438,-0.12464368535123735,-0.5094439552940999
8.100218781,0.0833434594583694,-0.12353759014540455,-0.5049854552091119
8.104995656,0.0834911361869765,-0.12242937306445878,-0.5005213103430798
8.109772478,0.08362496799593426,-0.12131929559115447,-0.4960516211140654
8.114549301,0.08374464894852982,-0.12020762134948311,-0.4915764901760893
8.119326176,0.08384987878629896,-0.11909461586995823,-0.48709602243303074
8.124102999,0.08394036315640593,-0.11798054635326347,-0.4826103250523925
8.128879822,0.084015813830566,-0.11686568143232944,-0.4781195074789829
8.133656697,0.0840759489153577,-0.11575029093290773,-0.4736236814485736
8.13843352,0.08412049305380914,-0.1146346456327142,-0.4691229610016007
8.143210343,0.08414917761818015,-0.11351901701922078,-0.4646174624969825
8.147987166,0.08416174089390271,-0.11240367704618694,-0.46010730462612615
8.152764041,0.08415792825468489,-0.11128889788904064,-0.45559260842719906
8.157540864,0.08413749232882935,-0.11017495169924567,-0.4510734972997356
8.162317739,0.08410019315686255,-0.10906211035782526,-0.44655009701964954
8.167094562,0.08404579834061547,-0.10795064522824792,-0.44202253575471384
8.171871385,0.08397408318393605,-0.10684082690891458,-0.43749094408055506
8.17664826,0.08388483082524588,-0.10573292498551379,-0.43295545499718624
8.181425083,0.08377783236218,-0.10462720778353271,-0.4284162039460801
8.186201906,0.08365288696856912,-0.1035239421212289,-0.423873328827761
8.190978781,0.08350980200403713,-0.10242339306338318,-0.4193269700198814
8.195755603,0.08334839311649345,-0.10132582367616877,-0.41477727039573903
8.200532426,0.0831684843377969,-0.1002314947834872,-0.4102243753432051
8.205309301,0.08296990817285732,-0.09914066472513645,-0.4056684327840505
8.210086124,0.08275250568242458,-0.09805358911718987,-0.4011095931936908
8.214862947,0.08251612655979274,-0.0969705206149736,-0.39654800962140596
8.219639822,0.08226062920162103,-0.09589170867903664,-0.391983837711121
8.224416645,0.0819858807730459,-0.09481739934450875,-0.3874172357228578
8.229193468,0.08169175726722813,-0.0937478349942398,-0.38284836455497273
8.233970343,0.08137814355944543,-0.09268325413610654,-0.3782773877672881
8.238747166,0.081044933455802,-0.0916238911848617,-0.37370447160520487
8.243523989,0.08069202973658643,-0.09056997624888338,-0.3691297850248449
8.248300864,0.08031934419426938,-0.0895217349221592,-0.3645534997192239
8.253077687,0.07992679766609712,-0.08847938808181086,-0.3599757901454029
8.25785451,0.07951432006120823,-0.08744315169143409,-0.3553968335525101
8.262631333,0.0790818503821807,-0.0864132366104959,-0.350816810010472
8.267408208,0.07862933674090634,-0.08538984841000019,-0.34623590243923763
8.272185031,0.07815673636868926,-0.08437318719460317,-0.34165429663823765
8.276961853,0.077664015620473,-0.08336344743133298,-0.3370721813157823
8.281738728,0.07715114997311583,-0.08236081778504506,-0.33248974811807885
8.286515551,0.0766181240176538,-0.08136548096072237,-0.3279071916575292
8.291292374,0.07606493144551442,-0.08037761355271107,-0.3233247095399675
8.296069249,0.07549157502866921,-0.07939738590096578,-0.3187425023905044
8.300846072,0.07489806659374,-0.07842496195436749,-0.3141607738776583
8.305622895,0.07428442699009974,-0.07746049914117133,-0.3095797307354848
8.31039977,0.07365068605203351,-0.07650414824663831,-0.3049995827834554
8.315176593,0.07299688255504719,-0.0755560532979063,-0.3004205429438934
8.319953416,0.07232306416642847,-0.07461635145615467,-0.295842827256841
8.324730291,0.07162928739017678,-0.07368517291611577,-0.29126665489230025
8.329507114,0.07091561750642576,-0.07276264081298132,-0.28669224815985905
8.334283937,0.07018212850548616,-0.07184887113674872,-0.2821198325157814
8.339060812,0.06942890301663962,-0.07094397265404828,-0.27754963656770343
8.343837635,0.06865603223182011,-0.07004804683749137,-0.27298189207713414
8.348614458,0.06786361582432972,-0.06916118780257904,-0.2684168339600042
8.353391333,0.06705176186275089,-0.0682834822522118,-0.26385470028554764
8.358168156,0.0662205867202368,-0.06741500942884078,-0.25929573227382346
8.362944978,0.06537021497938363,-0.06655584107429945,-0.254740174292204
8.367721853,0.06450077933291196,-0.06570604139735092,-0.25018827385115894
8.372498676,0.06361242048041008,-0.06486566704897857,-0.24564028159965706
8.377275499,0.06270528702141605,-0.06403476710543568,-0.24109645132049795
8.382052374,0.0617795353451363,-0.06321338305905408,-0.23655703992586136
8.386829197,0.0608353295171141,-0.062401548816792614,-0.2320223074533351
8.39160602,0.059872841163170945,-0.061599290706487175,-0.22749251706264595
8.396382895,0.058892249350944934,-0.060806627490745974,-0.22296793503327908
8.401159718,0.05789374046934459,-0.06002357038841891,-0.21844883076313676
8.405936541,0.05687750810622488,-0.0592501231035578,-0.21393547676835434
8.410713416,0.05584375292457693,-0.05848628186177571,-0.20942814868436832
8.415490239,0.05479268253750572,-0.05773203545390835,-0.2049271252683138
8.420267062,0.053724511382251934,-0.05698736528687626,-0.2004326884028205
8.425043937,0.05263946059349596,-0.05625224544164464,-0.19594512310127413
8.42982076,0.051537757876164644,-0.055526642738177964,-0.19146471751460975
8.434597583,0.05041963737794576,-0.054810516807289655,-0.1869917629397002
8.439374458,0.0492853395617019,-0.054103820169293874,-0.18252655382939073
8.444151281,0.04813511107796441,-0.053406498319375446,-0.17806938780420556
8.448928103,0.04696920463767966,-0.05271848981960533,-0.1736205656657139
8.453704978,0.04578787888537354,-0.05203972639754097,-0.1691803914114861
8.458481801,0.04459139827289642,-0.05137013305136146,-0.1647491722515002
8.463258624,0.043380032933909615,-0.0507096281614958,-0.16032721862577554
8.468035499,0.04215405855927648,-0.05005812360870465,-0.15591484422291904
8.472812322,0.04091375627352591,-0.04941552489857256,-0.15151236599918103
8.477589145,0.039659412512562664,-0.04878173129235641,-0.14712010419753754
8.48236602,0.03839131890280462,-0.0481566359441192,-0.14273838236625214
8.487142843,0.03710977214193228,-0.047540126044058134,-0.13836752737632405
8.491919666,0.035815073881437724,-0.046932082967914505,-0.13400786943720247
8.496696541,0.03450753061115992,-0.04633238243233199,-0.1296597421101404
8.501473364,0.033187453545988545,-0.045740894656009924,-0.12532348231856977
8.506250187,0.031855158514911976,-0.04515748452647791,-0.12099943035490275
8.511027062,0.030510965852577145,-0.044582011772296905,-0.11668792988319411
8.515803885,0.029155200293519704,-0.04401433114047102,-0.11238932793713459
8.520580708,0.02778819086921237,-0.04345429257883211,-0.10810397491287665
8.525357583,0.026410270808065732,-0.04290174142313559,-0.10383222455622372
8.530134406,0.025021777438498777,-0.04235651858857974,-0.0995744339437423
8.534911228,0.02362305209517694,-0.041818460765434724,-0.09533096345738211
8.539688103,0.02221444002849353,-0.04128740061844108,-0.09110217675221016
8.544464926,0.020796290317346273,-0.040763166989613936,-0.08688844071688141
8.549241749,0.01936895578523424,-0.04024558510406935,-0.08269012542648115
8.554018572,0.017932792919671106,-0.039734476778474935,-0.07850760408738323
8.558795447,0.016488161794878983,-0.03922966063171812,-0.07434125297377828
8.56357227,0.015035425997692522,-0.03873095229738217,-0.07019145135553716
8.568349093,0.013574952556566797,-0.03823816463761962,-0.0660585814170941
8.573125968,0.01210711187354453,-0.03775110795801681,-0.06194302816706039
8.577902791,0.010632277659000051,-0.03726959022304955,-0.05784517933831766
8.582679666,0.009150826868940608,-0.03679341727174167,-0.05376542527838547
8.587456489,0.007663139644612612,-0.03632239303315343,-0.04970415882991354
8.592233312,0.006169599254132396,-0.03585631974134535,-0.04566177520121019
8.597010135,0.004670592035838548,-0.03539499814948337,-0.04163867182678306
8.60178701,0.0031665073430450314,-0.034938227742773366,-0.03763524821793304
8.606563833,0.001657737489861107,-0.03448580694993596,-0.03365190580350588
8.611340656,0.00014467769773557793,-0.0340375333529544,-0.02968904776096589
8.616117531,-0.0013722739576209789,-0.03359320389484907,-0.02574707883801058
8.620894353,-0.0028927165992825342,-0.03315261508525075,-0.021826405164992336
8.625671176,-0.004416246602465784,-0.03271556320356125,-0.01792743405845285
8.630448051,-0.00594245764853633,-0.03228184449950552,-0.014050573816107066
8.635224874,-0.007470940779987266,-0.031851255390892654,-0.010196233503636356
8.640001697,-0.009001284456698337,-0.031423592658416974,-0.00636482273366615
8.644778572,-0.010533074613764286,-0.030998653637342652,-0.002556751437311708
8.649555395,-0.012065894721159862,-0.03057623640592697,0.0012275703713221344
8.654332218,-0.013599325845487094,-0.030156139970449466,0.0049877328373036205
8.659109093,-0.015132946714027474,-0.029738164446727177,0.008723326513320022
8.663885916,-0.01666633378129694,-0.02932211123800973,0.01243394261403196
8.668662739,-0.018199061298275497,-0.02890778320916188,0.01611917327596345
8.673439614,-0.01973070138445758,-0.02849498485705526,0.019778611822554287
8.678216437,-0.02126082410284531,-0.02808352247710554,0.02341185303399728
8.68299326,-0.022788997537986078,-0.02767320432590656,0.027018493421475165
8.687770135,-0.02431478787713954,-0.027263840779928716,0.030598131505400982
8.692546958,-0.02583775949464675,-0.026855244490265218,0.03415036809725206
8.697323781,-0.02735747503956508,-0.026447230533427027,0.03767480658457267
8.702100656,-0.02887349552662558,-0.026039616558204207,0.04117105321870499
8.706877478,-0.030385380430563012,-0.025632222928627622,0.04463871740479337
8.711654301,-0.031892687783862166,-0.02522487286307963,0.04807741199359403
8.716431176,-0.033394974277956756,-0.02481739256961554,0.05148675357461148
8.721207999,-0.03489179536791022,-0.024409611377567444,0.05486636277007419
8.725984822,-0.036382705380600885,-0.02400136186550815,0.05821586452925713
8.730761697,-0.037867257626427835,-0.02359247998565439,0.061534888422658154
8.73553852,-0.039345004514547983,-0.023182805184787478,0.06482306893553895
8.740315343,-0.040815497671650096,-0.022772180521767986,0.06808004576035111
8.745092218,-0.04227828806426785,-0.022360452781720375,0.07130546408758279
8.749869041,-0.0437329261246296,-0.02194747258696334,0.07449897489458149
8.754645864,-0.045178961880036936,-0.02153309450476064,0.07766023523193111
8.759422739,-0.0466159450857574,-0.021117177151963346,0.08078890850698547
8.764199562,-0.04804342536141038,-0.020699583296606816,0.08388466476418475
8.768976385,-0.049460952330820505,-0.02028017995651424,0.08694718096180458
8.77375326,-0.050868075765309405,-0.0198588384949455,0.08997614124480777
8.778530083,-0.052264345730396324,-0.01943543471331579,0.09297123721348623
8.783306906,-0.05364931273587923,-0.019009848940993935,0.09593216818759646
8.788083728,-0.05502252788927027,-0.01858196612217576,0.09885864146570612
8.792860603,-0.056383543052561734,-0.018151675899813736,0.10175037257948377
8.797637426,-0.05773191100230102,-0.017718872696570107,0.10460708554267663
8.802414301,-0.0590671855929541,-0.017283455792746514,0.10742851309452953
8.807191124,-0.060388921923536586,-0.016845329401129087,0.11021439693740204
8.811967947,-0.06169667650748872,-0.016404402738674672,0.11296448796833862
8.81674477,-0.06299000744576498,-0.01596059009495194,0.11567854650434145
8.821521645,-0.06426847460309941,-0.015513810897241655,0.11835634250108795
8.826298468,-0.06553163978739433,-0.015063989772193922,0.120997655764826
8.831075291,-0.06677906693216373,-0.01461105660393738,0.12360227615716898
8.835852166,-0.06801032228194412,-0.014154946588536584,0.12617000379250168
8.840628989,-0.06922497458056684,-0.013695600284698203,0.12870064922769708
8.845405812,-0.07042259526216661,-0.013232963660632516,0.1311940336438349
8.850182687,-0.07160275864478315,-0.012766988136982372,0.13364998901960617
8.85495951,-0.07276504212639671,-0.012297630625736702,0.13606835829608674
8.859736333,-0.0739090263832247,-0.011824853565049163,0.1384489955325621
8.864513208,-0.07503429557009442,-0.011348624949884646,0.1407917660530921
8.869290031,-0.07614043752269838,-0.010868918358417794,0.14309654658351295
8.874066853,-0.07722704396153215,-0.010385712974108913,0.14536322537859322
8.878843728,-0.07829371069731192,-0.009898993603384715,0.14759170233908617
8.883620551,-0.07934003783767161,-0.009408750688854208,0.14978188911845297
8.888397374,-0.0803656299949466,-0.008914980317994044,0.15193370921907232
8.893174249,-0.08137009649486225,-0.008417684227242499,0.15404709807779954
8.897951072,-0.08235305158596046,-0.007916869801446737,0.15612200314079144
8.902727895,-0.08331411464961212,-0.007412550068613466,0.15815838392757126
8.90750477,-0.08425291041047721,-0.006904743689917505,0.1601562120843666
8.912281593,-0.08516906914728514,-0.006393474944924411,0.16211547142680655
8.917058416,-0.08606222690381778,-0.005878773711981218,0.16403615797211463
8.921835291,-0.08693202569998394,-0.00536067544372339,0.16591827996097802
8.926612114,-0.08777811374287726,-0.004839221137637371,0.16776185786930756
8.931388937,-0.08860014563770507,-0.004314457301608523,0.16956692441012836
8.936165812,-0.08939778259846827,-0.0037864359143762274,0.17133352452585981
8.940942635,-0.09017069265825983,-0.0032552143808135805,0.17306171537125192
8.945719458,-0.0909185508790361,-0.0027208554819498545,0.17475156628724448
8.950496333,-0.09164103956070163,-0.0021834273196601377,0.1764031587660042
8.955273156,-0.09233784844933532,-0.0016430032559576462,0.17801658640737827
8.960049978,-0.09300867494437501,-0.0010996618468389137,0.17959195486697904
8.964826853,-0.09365322430456939,-0.0005534867706488899,0.1811293817960896
8.969603676,-0.09427120985249686,-4.566750950676448e-06,0.1826289967735502
8.974380499,-0.09486235317744238,0.0005470045260977023,0.18409094122975939
8.979157322,-0.0954263843364131,0.0011011284998396283,0.1855153683628967
8.983934197,-0.09596304205306123,0.001657701828651547,0.18690244304745435
8.98871102,-0.09647207391427186,0.002216616488852952,0.1882523417351474
8.993487843,-0.09695323656416409,0.002777759878917054,0.1895652523482655
8.998264718,-0.09740629589524817,0.0033410149288831906,0.19084137416553137
9.003041541,-0.09783102723648014,0.003906260214851093,0.19208091770053998
9.007818364,-0.09822721553795884,0.004473370078417824,0.19328410457286266
9.012595239,-0.09859465555201374,0.005042214750901735,0.19445116737191995
9.017372062,-0.09893315201043602,0.005612660482184793,0.1955823495137471
9.022148885,-0.09924251979760909,0.006184569673995405,0.1966779050908027
9.02692576,-0.09952258411929742,0.006757801017447902,0.19773809871500028
9.031702583,-0.099773180666855,0.007332209634651194,0.19876320535417638
9.036479406,-0.09999415577661705,0.007907647224195964,0.19975351016224788
9.041256281,-0.10018536658424382,0.008483962210326882,0.20070930830335088
9.046033103,-0.10034668117379288,0.009060999895604306,0.2016309047702936
9.050809926,-0.10047797872130525,0.009638602616860283,0.20251861419769124
9.055586801,-0.100579149632701,0.010216609904256522,0.20337276067017784
9.060363624,-0.10065009567579122,0.010794858643257079,0.20419367752610898
9.065140447,-0.10069073010622563,0.011373183239334684,0.20498170715717753
9.069917322,-0.10070097778720591,0.011951415785236225,0.2057372008043656
9.074694145,-0.10068077530280735,0.012529386230639162,0.2064605183506495
9.079470968,-0.10063007106476325,0.013106922554035984,0.20715202811086444
9.084247843,-0.10054882541258132,0.013683850936687584,0.2078121066191245
9.089024666,-0.10043701070687848,0.014259995938488047,0.20844113841417797
9.093801489,-0.10029461141584115,0.014835180675582536,0.2090395158230636
9.098578364,-0.10012162419474008,0.015409226999577877,0.2096076387434133
9.103355187,-0.0999180579584494,0.01598195567818316,0.21014591442472894
9.10813201,-0.09968393394693714,0.01655318657711638,0.21065475724894273
9.112908885,-0.09941928578370868,0.01712273884311246,0.21113458851054853
9.117685708,-0.09912415952719521,0.01769043108786809,0.21158583619657023
9.122462531,-0.09879861371508711,0.018256081572759413,0.21200893476660973
9.127239406,-0.09844271940161578,0.018819508394170063,0.21240432493319572
9.132016228,-0.09805656018778786,0.019380529669268554,0.21277245344263393
9.136793051,-0.09764023224457154,0.019938963722074824,0.21311377285653937
9.141569874,-0.09719384432902801,0.020494629269654462,0.21342874133421336
9.146346749,-0.0967175177933722,0.021047345608275685,0.21371782241600865
9.151123572,-0.0962113865869385,0.021596932799358336,0.21398148480780876
9.155900395,-0.0956755972510158,0.022143211855036808,0.2142202021667277
9.16067727,-0.09511030890650615,0.02268600492314997,0.21443445288811663
9.165454093,-0.09451569323435202,0.023225135471461603,0.2146247198939477
9.170230916,-0.09389193444867053,0.023760428470904996,0.2147914904226315
9.175007791,-0.0932392292625269,0.02429171057763429,0.21493525582030928
9.179784614,-0.09255778684627726,0.024818810313653423,0.21505651133364945
9.184561437,-0.09184782877841137,0.025341558245780063,0.2151557559041673
9.189338312,-0.09110958898883023,0.025859787162688733,0.21523349196408068
9.194115135,-0.0903433136945007,0.02637333224976523,0.21529022523370672
9.198891958,-0.08954926132743804,0.02688203126149429,0.21532646452040205
9.203668833,-0.08872770245497669,0.027385724691095504,0.2153427215190437
9.208445656,-0.08787891969229793,0.027884255937119327,0.21533951061404252
9.213222478,-0.08700320760718946,0.028377471466716868,0.21531734868287672
9.217999353,-0.08610087261701695,0.02886522097530442,0.2152767549011307
9.222776176,-0.08517223287789014,0.029347357542356282,0.21521825054901877
9.227552999,-0.08421761816600884,0.029823737783076266,0.21514235881937027
9.232329874,-0.08323736975117456,0.03029422199571783,0.21504960462704742
9.237106697,-0.08223184026245339,0.030758674304342575,0.21494051441976286
9.24188352,-0.08120139354597873,0.03121696279682674,0.21481561599026397
9.246660395,-0.08014640451488884,0.03166895965794499,0.2146754382898512
9.251437218,-0.07906725899140461,0.0321145412973803,0.21452051124319543
9.256214041,-0.07796435354106875,0.032553588472528906,0.21435136556441745
9.260990916,-0.07683809529918698,0.03298598640599027,0.21416853257439022
9.265767739,-0.07568890178953429,0.03341162489765429,0.2139725440192174
9.270544562,-0.07451720073541497,0.03383039843132094,0.21376393188983175
9.275321437,-0.07332342986319455,0.034242206275810184,0.21354322824264632
9.28009826,-0.07210803669845513,0.03464695258054182,0.21331096502117722
9.284875083,-0.07087147835496058,0.03504454646558407,0.21306767387854764
9.289651958,-0.06961422131665437,0.03543490210618516,0.2128138860007696
9.294428781,-0.06833674121294964,0.03581793881181393,0.2125501319306902
9.299205603,-0.06703952258760626,0.03619358109974392,0.21227694139248174
9.303982426,-0.06572305866152153,0.03656175876322209,0.2119948431165463
9.308759301,-0.064387851089788,0.036922406934269514,0.2117043646647028
9.313536124,-0.06303440971339445,0.03727546614116743,0.21140603225551774
9.318312947,-0.06166325230596158,0.03762088236068672,0.21110037058963527
9.323089822,-0.06027490431591507,0.03795860706512139,0.21078790267495953
9.327866645,-0.05886989860450594,0.038288597264186965,0.21046914965153904
9.332643468,-0.0574487751800906,0.038610815541841315,0.2101446306160037
9.337420343,-0.056012080929079715,0.03892523008807943,0.20981486244540945
9.342197166,-0.054560369343959414,0.03923181472574399,0.20948035962035133
9.346973989,-0.053094200248780976,0.039530548932383454,0.20914163404721156
9.351750864,-0.05161413952250863,0.039821417857179846,0.20879919487941678
9.356527687,-0.05012075882061001,0.04010441233295969,0.20845354833758561
9.36130451,-0.04861463529526892,0.040379528883293936,0.2081051975284571
9.366081385,-0.04709635131459327,0.040646769724686144,0.20775464226250054
9.370858208,-0.04556649418118153,0.040906142763840726,0.2074023788701184
9.375635031,-0.04402565585039664,0.041157661589994496,0.20704890001636106
9.380411906,-0.04247443264867871,0.041401345462284,0.20669469451407843
9.385188728,-0.040913424992207466,0.0416372192921096,0.20634024713543644
9.389965551,-0.03934323710620373,0.041865313620444766,0.20598603842172758
9.394742426,-0.03776447674513583,0.04208566459002704,0.20563254449140536
9.399519249,-0.036177754914071665,0.042298313912355015,0.20528023684627525
9.404296072,-0.03458368559138995,0.04250330882940471,0.20492958217577664
9.409072947,-0.03298288545303805,0.042700702069968774,0.20458104215929282
9.41384977,-0.03137597359849802,0.04289055180051432,0.20423507326642742
9.418626593,-0.029763571278599358,0.04307292157044936,0.20389212655518804
9.423403468,-0.028146301625296164,0.04324788025168469,0.20355264746801952
9.428180291,-0.026524789383508825,0.04341550197237599,0.2032170756256313
9.432957114,-0.024899660645114886,0.04357586604472938,0.20288584461856154
9.437733989,-0.023271542585161505,0.04372905688675305,0.20255938179642136
9.442510812,-0.021641063200361587,0.043875163937840626,0.20223810805476153
9.447287635,-0.020008851049927723,0.04401428156807799,0.20192243761950604
9.452064458,-0.01837553499879215,0.044146508981176266,0.20161277782890058
9.456841333,-0.01674174396325603,0.04427195011095023,0.20130952891293208
9.461618156,-0.015108106659107418,0.04439071351128316,0.20101308377018529
9.466394978,-0.0134752513522431,0.044502912239544196,0.20072382774211733
9.471171853,-0.011843805611824826,0.04460866373345149,0.20044213838474823
9.475948676,-0.01021439606599425,0.04470808968140085,0.2001683852377851
9.480725499,-0.00858764816016302,0.044801315886304996,0.19990292959122505
9.485502374,-0.0069641859178845005,0.0448884721230118,0.19964612424950953
9.490279197,-0.0053446317043025215,0.04496969198939266,0.1993983132933384
9.49505602,-0.003729605992160838,0.045045112751214485,0.19915983183928793
9.499832895,-0.0021197271303452065,0.04511487518093231,0.19893100579741413
9.504609718,-0.0005156111149177113,0.045179123390562875,0.19871215162705871
9.509386541,0.0010821286374093758,0.045238004658823314,0.19850357609110625
9.514163416,0.002672881513425046,0.04529166925274277,0.1983055760089733
9.518940239,0.004256039925272511,0.045340270243978256,0.19811843800864173
9.523717062,0.005830999530090393,0.04538396332008919,0.19794243827807786
9.528493937,0.0073971594475388735,0.0454229065910464,0.1977778423164069
9.53327076,0.008953922475316956,0.045457260391270946,0.19762490468523608
9.538047583,0.010500695302785705,0.04548718707751565,0.1974838687605392
9.542824458,0.012036888722819793,0.045512850822916145,0.19735496648552894
9.547601281,0.013561917842015722,0.04553441740754886,0.1972384181249505
9.552378103,0.015075202289389467,0.045552054005841246,0.19713443202123498
9.557154978,0.016576166423698836,0.045565928971184506,0.1970432043529537
9.561931801,0.018064239539526888,0.0455762116181041,0.19696491889601173
9.566708624,0.019538856072262932,0.045583072002347035,0.1968997467880159
9.571485447,0.02099945580211857,0.04558668069924968,0.19684784629624455
9.576262322,0.022445484057318086,0.04558720858075305,0.1968093625896415
9.581039145,0.02387639191660636,0.0455848265914337,0.19678442751524705
9.585815968,0.025291636411222593,0.04557970552391677,0.1967731593794741
9.590592843,0.026690680726494737,0.045572015794033055,0.19677566273463304
9.595369666,0.028072994403216787,0.04556192721607515,0.19679202817111222
9.600146489,0.029438053538977767,0.04554960877849691,0.19682233211562655
9.604923364,0.03078534098961622,0.04553522842038933,0.19686663663595516
9.609700187,0.03211434657097521,0.04551895280905512,0.19692498925259525
9.61447701,0.033424567261128066,0.04550094711899455,0.1969974227577659
9.619253885,0.034715507403234,0.04548137481260749,0.1970839550421984
9.624030708,0.03598667890916612,0.045460397422911566,0.19718458893015203
9.628807531,0.03723760146403366,0.04543817433857358,0.19729931202309725
9.633584406,0.03846780273169541,0.04541486259155101,0.1974280965525087
9.638361228,0.03967681856133224,0.04539061664764199,0.1975708992422151
9.643138051,0.04086419319511434,0.045365588200246505,0.19772766118075744
9.647914926,0.04202947947696179,0.045339925967648353,0.19789830770421432
9.652691749,0.04317223906235972,0.045313775494136475,0.19808274828996117
9.657468572,0.04429204262915112,0.04528727895529446,0.19828087646183643
9.662245447,0.045388470089194256,0.04526057496779681,0.19849256970719462
9.66702227,0.046461110800737324,0.045233798404057744,0.19871768940633325
9.671799093,0.047509563781330526,0.0452070802120799,0.19895608077478744
9.676575916,0.04853343792106702,0.04518054724084717,0.19920757281899074
9.681352791,0.04953235219591949,0.045154322071597475,0.19947197830580432
9.686129614,0.0505059358809192,0.04512852285529971,0.1997490937464196
9.690906437,0.05145382876290924,0.04510326315664578,0.20003869939513877
9.695683312,0.05237568135259459,0.04507865180485343,0.20034055926353336
9.700460135,0.05327115509560816,0.04505479275155919,0.2006544211504737
9.705236958,0.05413992258231475,0.04503178493606283,0.2009800166885056
9.710013833,0.054981667756080786,0.04500972215816489,0.20131706140702946
9.714790656,0.055796086119746624,0.04498869295881716,0.2016652548127062
9.719567478,0.05658288494004791,0.04496878050878305,0.20202428048748325
9.724344353,0.057341783449741855,0.04495006250548126,0.20239380620459335
9.729121176,0.058072513047204184,0.044932611078163105,0.2027734840628372
9.733897999,0.058774817493272256,0.044916492701552145,0.20316295063941825
9.738674874,0.05944845310511941,0.04490176811805396,0.20356182716155535
9.743451697,0.060093188946953535,0.04488849226862373,0.20396971969705913
9.74822852,0.06070880701733796,0.04487671423235946,0.20438621936401738
9.753005395,0.06129510243293459,0.044866477174869315,0.20481090255969386
9.757782218,0.06185188360846863,0.044857818305442956,0.2052433312087025
9.762559041,0.06237897243271149,0.044850768843041726,0.20568305303047488
9.767335916,0.06287620444027449,0.04484535399111002,0.20612960182599377
9.772112739,0.06334342897900143,0.044841592921199935,0.2065824977837191
9.776889562,0.06378050937274155,0.04483949876539057,0.20704124780457991
9.781666385,0.06418732307927608,0.04483907861747253,0.20750534584585378
9.78644326,0.06456376184316144,0.04484033354285817,0.20797427328370083
9.791220083,0.06490973184323938,0.04484325859716833,0.20844749929406484
9.795996906,0.06522515383455009,0.04484784285343798,0.20892448125159654
9.800773781,0.06550996328437006,0.044854069437875996,0.20940466514619616
9.805550603,0.0657641105020816,0.04486191557410938,0.20988748601671445
9.810327426,0.06598756076256979,0.04487135263583834,0.2103723684013008
9.815104301,0.06618029442283589,0.04488234620782625,0.21085872680384013
9.819881124,0.06634230703151554,0.044894856155143395,0.21134596617587928
9.824657947,0.06647360943099517,0.044908836700573544,0.21183348241340916
9.829434822,0.06657422785182983,0.044924236510077147,0.212320662867839
9.834211645,0.06664420399917625,0.0449409987861829,0.21280688687047247
9.838988468,0.06668359513096792,0.04495906136915389,0.2132915262697731
9.843765343,0.06669247412757313,0.044978356845746595,0.21377394598068325
9.848542166,0.0666709295526942,0.04499881266535474,0.21425350454523934
9.853318989,0.06661906570528321,0.045020351263309,0.21472955470370605
9.858095812,0.06653700266226971,0.045042890191089244,0.21520144397543625
9.862872687,0.06642487631191184,0.04506634225319721,0.21566851524864777
9.86764951,0.06628283837759343,0.045090615650431334,0.2161301073782973
9.872426333,0.06611105643189485,0.04511561412930081,0.21658555579122157
9.877203208,0.06590971390076686,0.04514123713731135,0.21703419309771088
9.881980031,0.06567901005763359,0.04516737998384974,0.21747534970867968
9.886756853,0.06541916000724543,0.04519393400638969,0.2179083544575998
9.891533728,0.06513039465909258,0.04522078674173823,0.21833253522636764
9.896310551,0.06481296069017907,0.045247822102041424,0.21874721957428545
9.901087374,0.06446712049694624,0.04527492055526927,0.21915173536935165
9.905864249,0.06409315213612693,0.045301959309900906,0.21954541142107745
9.910641072,0.06369134925430557,0.045328812503532524,0.21992757811407307
9.915417895,0.063262021005955,0.04535535139513109,0.22029756804167905
9.92019477,0.06280549195971769,0.045381444560656764,0.2206547166389561
9.924971593,0.06232210199269908,0.04540695809177663,0.22099836281438867
9.929748416,0.061812206172544175,0.04543175579739172,0.22132784957970136
9.934525239,0.0612761746270757,0.04545569940769714,0.22164252467723466
9.939302114,0.06071439240128169,0.04547864878049072,0.22194174120436938
9.944078937,0.06012725930145152,0.04550046210943944,0.22222485823452448
9.94885576,0.05951518972627349,0.04552099613400692,0.22249124143427484
9.953632635,0.05887861248472309,0.04554010635073908,0.22274026367614355
9.958409458,0.05821797060058714,0.04555764722559995,0.22297130564661832
9.963186281,0.05753372110348357,0.04557347240704238,0.2231837564489266
9.967963156,0.05682633480624881,0.045587434939490995,0.22337701420007716
9.972739978,0.0560962960685747,0.04559938747690493,0.22355048662164378
9.977516801,0.055344102546785595,0.045609182496079176,0.22370359162372788
9.982293676,0.054570264929655776,0.04561667250933635,0.22383575788149557
9.987070499,0.05377530666017847,0.0456217102762573,0.22394642540364104
9.991847322,0.05295976364321238,0.04562414901409832,0.22403504609208497
9.996624197,0.052124183938950096,0.04562384260654572,0.22410108429217854
10.00140102,0.051269127442175995,0.04562064581046392,0.22414401733265008
10.00617784,0.05039516554730924,0.04561441446030145,0.22416333605450456
10.01095472,0.04950288079926001,0.04560500566982912,0.22415854532806673
10.01573154,0.04859286653016512,0.04559227803089581,0.2241291645573477
10.02050836,0.04766572648211114,0.04557609180889934,0.22407472817091378
10.02528524,0.0467220744159977,0.045556309134684385,0.2239947860984467
10.03006206,0.0457625337067394,0.04553279419259609,0.22388890423220364
10.03483889,0.04478773692505095,0.04550541340443883,0.22375666487261658
10.03961576,0.04379832540610502,0.04547403560911238,0.22359766715730603
10.04439258,0.04279494880539582,0.04543853223772243,0.223411527472826
10.04916941,0.041778264642183094,0.045398777483985006,0.22319787984850023
10.05394623,0.040748937830931295,0.04535464846976498,0.22295637633176021
10.0587231,0.03970764020119535,0.045306025405606326,0.22268668734444938
10.06349993,0.038655050006437576,0.045252791746126876,0.2223885020196143
10.06827675,0.03759185142229025,0.045194834340162145,0.22206152851836036
10.07305362,0.036518734034804066,0.04513204357555111,0.221705494326403
10.07783045,0.03543639231924569,0.0450643135184632,0.22132014652999754
10.08260727,0.03434552511002825,0.044991542047170985,0.22090525207098266
10.08738415,0.03324683506237854,0.04491363098017797,0.2204605979807185
10.09216097,0.032141028106363115,0.04483048619861617,0.2199859915927448
10.09693779,0.031028812893913602,0.044742017762834874,0.2194812607340256
10.10171467,0.029910900239509625,0.044648140023109295,0.2189462538946861
10.10649149,0.02878800255519609,0.04454877172440607,0.21838084037618516
10.11126831,0.027660833280629713,0.04444383610515172,0.2177849104179014
10.11604519,0.026530106308867672,0.04433326098995931,0.2171583753021432
10.12082201,0.025396535408631373,0.044216978876277145,0.21650116743762463
10.12559883,0.024260833643800456,0.044094927014930556,0.2158132404214789
10.13037566,0.023123712790915987,0.043967047484532264,0.2150945690799075
10.13515253,0.021985882755494946,0.04383328725973863,0.21434514948759043
10.13992935,0.02084805098797711,0.04369359827332927,0.21356499896600403
10.14470618,0.01971092190013755,0.04354793747208852,0.21275415606081716
10.14948305,0.018575196282803248,0.0433962668664711,0.2119126804985542
10.15425987,0.01744157072571175,0.04323855357404098,0.21104065312273312
10.1590367,0.01631073704034439,0.043074769856682134,0.21013817580970467
10.16381357,0.015183381686556585,0.0429048931515912,0.20920537136443723
10.1685904,0.014060185203813894,0.04272890609607477,0.20824238339651427
10.17336722,0.012941821647824293,0.04254679654618611,0.20724937617663192
10.17814409,0.011828958033334093,0.0423585575892468,0.20622653447390693
10.18292092,0.010722253783827415,0.042164187550309325,0.2051740633743303
10.18769774,0.009622360188838927,0.04196368999262578,0.20409218808072963
10.19247456,0.008529919869558644,0.041757073712197765,0.20298115369463057
10.19725144,0.00744556625337853,0.04154435272649313,0.2018412249804377
10.20202826,0.0063699230580042,0.04132554625742695,0.20067268611238193
10.20680514,0.005303603785731551,0.04110067870871627,0.19947584040470753
10.21158196,0.004247211228466708,0.040869779637728434,0.19825101002559561
10.21635878,0.0032013369840478913,0.040632883721951306,0.19699853569534853
10.2211356,0.0021665609844094516,0.040390030720218136,0.19571877636938143
10.22591248,0.0011434510361114096,0.04014126542882338,0.19441210890658756
10.2306893,0.00013256237374159225,0.03988663763266772,0.19307892772365903
10.23546612,-0.0008655627733185842,0.039626202051573585,0.19171964443595446
10.240243,-0.0018503956002902514,0.03936001828191625,0.19033468748550986
10.24501982,-0.002821421132098214,0.03908815073371907,0.18892450175678493
10.24979664,-0.0037781386137386414,0.03881066856336323,0.18748954818072577
10.25457352,-0.004720061885494645,0.03852764560206145,0.1860303033277119
10.25935034,-0.005646719742602738,0.038239160280239826,0.18454725898993407
10.26412717,-0.006557656278997374,0.037945295547963796,0.18304092175372288
10.26890404,-0.007452431214787089,0.03764613879153171,0.18151181256231877
10.27368086,-0.008330620207142618,0.03734178174634587,0.17996046626954337
10.27845769,-0.009191815144302824,0.03703232040615675,0.17838743118480205
10.28323456,-0.01003562442242682,0.0367178549287634,0.17679326860981806
10.28801138,-0.010861673205039373,0.036398489538243164,0.17517855236747085
10.29278821,-0.01166960366483148,0.03607433242377708,0.1735438683230878
10.29756503,-0.01245907520758878,0.03574549563513534,0.17188981389852426
10.30234191,-0.013229764678027167,0.0354120949748876,0.1702169975793582
10.30711873,-0.013981366547318396,0.035074249887404194,0.1685260384155245
10.31189555,-0.014713593082090375,0.034732083344715975,0.16681756551571886
10.31667243,-0.015426174494689093,0.03438572172929954,0.16509221753591177
10.32144925,-0.016118859074493196,0.03403529471385315,0.16335064216232745
10.32622607,-0.01679141330007957,0.03368093513812753,0.1615934955892603
10.33100295,-0.01744362193204994,0.03332277888287575,0.15982144199212073
10.33577977,-0.018075288086346317,0.032960964740988224,0.15803515299612156
10.34055659,-0.018686233287908475,0.032595634285882163,0.15623530714103853
10.34533347,-0.01927629750455954,0.03222693173721904,0.15442258934249828
10.35011029,-0.019845339161046097,0.03185500382402839,0.15259769035026866
10.35488711,-0.020393235133204724,0.0314799996453221,0.15076130620404377
10.35966399,-0.020919880722275016,0.031102070528290317,0.1489141376872302
10.36444081,-0.021425189609427252,0.03072136988417662,0.14705688977925283
10.36921764,-0.0219090937906198,0.030338053061936085,0.1451902711069054
10.37399446,-0.022371543491945808,0.029952277199783564,0.14331499339527326
10.37877133,-0.022812507065671037,0.02956420107474362,0.14143177091875217
10.38354816,-0.02323197086720469,0.029173984950319188,0.1395413199526791
10.38832498,-0.02362993911328266,0.028781790422405366,0.1376443582260774
10.39310185,-0.024006433721678648,0.028387780263588045,0.13574160437600347
10.39787868,-0.024361494132793732,0.02799211826598406,0.1338337774039678
10.4026555,-0.024695177113510047,0.027594969082799847,0.13192159613489243
10.40743237,-0.02500755654372901,0.02719649806880912,0.1300057786790617
10.4122092,-0.025298723186049043,0.026796871119975654,0.12808704189752448
10.41698602,-0.02556878443907067,0.02639625451247274,0.12616610087141464
10.4217629,-0.02581786407484844,0.02599481474137434,0.12424366837566807
10.42653972,-0.026046101961039073,0.0255927183593121,0.12232045435762795
10.43131654,-0.02625365376832418,0.025190131815405824,0.12039716542104448
10.43609342,-0.02644069066371378,0.024787221294782842,0.11847450431598333
10.44087024,-0.026607398990364153,0.024384152559003915,0.11655316943516067
10.44564706,-0.026753979934568933,0.0239810907877105,0.11463385431722019
10.45042389,-0.026880649180606085,0.023578200421801435,0.11271724715745862
10.45520076,-0.026987636554144268,0.023175645008436958,0.1108040303264899
10.45997758,-0.02707518565493017,0.022773587048154718,0.10889487989731772
10.46475441,-0.02714355347949208,0.022372187844366682,0.10699046518126307
10.46953128,-0.027193010034603733,0.021971607355487904,0.10509144827317007
10.4743081,-0.02722383794225411,0.021572004049928404,0.10319848360628943
10.47908493,-0.027236332036861658,0.021173534764158456,0.10131221751721348
10.4838618,-0.02723079895545525,0.020776354564035735,0.09943328782121068
10.48863862,-0.027207556721518374,0.02038061660956071,0.09756232339827935
10.49341545,-0.027166934323160245,0.01998647202320502,0.0956999437902104
10.49819232,-0.027109271286238214,0.019594069761937328,0.09384675880891982
10.50296914,-0.027034917243011616,0.01920355649305353,0.0920033681562837
10.50774597,-0.026944231496860344,0.018815076473903604,0.09017036105568461
10.51252284,-0.02683758258355327,0.018428771435596566,0.08834831589545943
10.51729967,-0.026715347829504896,0.01804478047075653,0.0865377998844252
10.52207649,-0.026577912907414535,0.01766323992539572,0.08473936871965075
10.52685331,-0.026425671389640786,0.01728428329496377,0.08295356626663415
10.53163668,-0.026259024299623762,0.01690804112462647,0.08118092425204153
10.5364135,-0.026078379661626752,0.01653464091382061,0.07942196196915786
10.54119032,-0.02588415204902745,0.016164207025126498,0.07767718599619566
10.5459672,-0.02567676213134789,0.01579686059749692,0.07594708992760237
10.55074402,-0.025456636220174373,0.015432719463881226,0.07423215411850227
10.55552084,-0.025224205814086173,0.015071898073285283,0.07253284544240307
10.56029766,-0.02497990714268688,0.014714507417310719,0.07084961706229014
10.56507454,-0.02472418070981624,0.014360654961219988,0.0691829082152241
10.56985136,-0.02445747083601331,0.014010444579575992,0.06753314401054893
10.57462818,-0.02418022520030251,0.013663976496505777,0.06590073524181002
10.57940506,-0.02389289438138161,0.01332134723063715,0.06428607821247757
10.58418188,-0.023595931398303543,0.01298264954475577,0.06268955457556699
10.58895871,-0.023289791250761496,0.012647972400228946,0.06111153118724527
10.59373558,-0.022974930459108693,0.012317400916240968,0.0595523599745081
10.5985124,-0.022651806604271345,0.011991016333883045,0.05801237781700634
10.60328923,-0.022320877867745812,0.01166889598513822,0.0564919064430915
10.6080661,-0.02198260257190878,0.011351113266796222,0.054991252340137575
10.61284292,-0.021637438720911235,0.011037737619323775,0.05351070667918131
10.6176209,-0.02128584354247057,0.010728834510702466,0.05205054525390521
10.62239778,-0.020928273030919653,0.010424465425231098,0.05061102843396815
10.6271746,-0.020565181491915694,0.010124687857274476,0.04919240113266637
10.63195142,-0.020197021089254464,0.009829555309926541,0.0477948927888819
10.63672825,-0.01982424139427582,0.009539117298542302,0.04641871736324344
10.64150512,-0.019447288938384166,0.009253419359079246,0.04506407334838747
10.64628194,-0.01906660676924316,0.008972503061174501,0.043731143793163126
10.65105877,-0.018682634011237247,0.008696406025867692,0.04242009634057451
10.65583564,-0.018295805430822765,0.00842516194786093,0.04113108327920181
10.66061246,-0.017906551007416675,0.00815880062218702,0.0398642416077907
10.66538929,-0.017515295510489876,0.007897347975136821,0.03861969311265125
10.67016616,-0.01712245808354335,0.007640826099278427,0.03739754445746656
10.67494299,-0.016728451835648483,0.007389253292384772,0.03619788728507842
10.67971981,-0.016333683441228153,0.0071426441000729006,0.035020798330794224
10.68449668,-0.015938552748743184,0.006901009361947902,0.03386633954674424
10.68927351,-0.015543452398931068,0.00666435626103841,0.03273455823680969
10.69405033,-0.015148767453221633,0.0064326883763092145,0.03162548720163957
10.6988272,-0.014754875032929248,0.006206005738039142,0.03053914489327582
10.70360403,-0.014362143969794069,0.005984304885857635,0.02947553557891304
10.70838085,-0.013970934468416307,0.0057675789292401785,0.028434649513332532
10.71315767,-0.013581597781098844,0.005555817610270195,0.027416463119569693
10.71793455,-0.013194475895585688,0.005349007368482909,0.026420939177399756
10.72271137,-0.0128099012361586,0.0051471314076148205,0.025448027019257448
10.72748819,-0.012428196378532362,0.004950169764090721,0.02449766273323945
10.73226507,-0.012049673778969943,0.004758099377088797,0.02356976937287233
10.73704189,-0.011674635518020258,0.004570894160033721,0.022664257173360885
10.74181872,-0.01130337305926193,0.004388525073378709,0.021781023774062252
10.74659559,-0.010936167023416356,0.004210960198550981,0.020919954446959217
10.75137241,-0.01057328697817308,0.004038164812950776,0.020080922330932813
10.75614924,-0.010214991244050444,0.00387010146591048,0.019263788671658653
10.76092606,-0.009861526716594434,0.0037067300555356734,0.018468403066972547
10.76570293,-0.009513128705198406,0.0035480079063628586,0.017694603717569146
10.77047976,-0.009170020788805472,0.003393889847779489,0.01694221768291231
10.77525658,-0.00883241468873401,0.0032443282931617174,0.016211061142248205
10.78003346,-0.008500510158845355,0.003099273319695339,0.01550093966062106
10.78481028,-0.008174494893251021,0.0029586727488565066,0.014811648459796769
10.7895871,-0.007854544451734736,0.002822472227540679,0.014142972694001287
10.79436398,-0.007540822203042503,0.0026906153098395337,0.01349468773037895
10.7991408,-0.0072334792861725675,0.0025630435394750316,0.012866559434071183
10.80391762,-0.006932654589777013,0.002439696532906609,0.01225834445781011
10.8086945,-0.006638474749767859,0.002320512063131077,0.011669790535915747
10.81347132,-0.00635105416520238,0.002205426144194773,0.011100636782581873
10.81824814,-0.006070495032504103,0.0020943731164341293,0.010550613994335174
10.82302502,-0.005796887398056389,0.001987285732455278,0.010019444956555401
10.82780184,-0.0055303092291836544,0.0018840952438569898,0.009506844753951159
10.83257866,-0.005270826503511533,0.001784731488694865,0.009012521084896261
10.83735554,-0.005018493316671976,0.001689122979678011,0.008536174579544704
10.84213236,-0.004773352008292987,0.00159719699308225,0.00807749912165649
10.84690918,-0.004535433306185406,0.001508879658355923,0.0076361821740807394
10.85168601,-0.004304756488611397,0.001424096048385461,0.00721190510785532
10.85646288,-0.0040813295644918455,0.00134277027037831,0.006804343534892746
10.86123971,-0.003865149471383243,0.0012648255573109606,0.006413167644229839
10.86601653,-0.003656202291028202,0.0011901843598801781,0.0060380425418233566
10.8707934,-0.003454463482255699,0.0011187684388862776,0.005678628593875343
10.87557023,-0.003259898130974496,0.0010504989579683864,0.005334581773670647
10.88034705,-0.0030724612169638565,0.0009852965766029452,0.005005554011904946
10.88512392,-0.002892097897119289,0.0009230815432682088,0.0046911935504749674
10.88990075,-0.0027187438047584275,0.0008637737886694943,0.004391145299693907
10.89467757,-0.002552325364533559,0.0008072930189123481,0.004105051198885095
10.89945439,-0.002392760122432336,0.0007535588085026111,0.003832550580296985
10.90423127,-0.002239957090276625,0.0007024906930417807,0.0035732805362731733
10.90900809,-0.002093817104051817,0.0006540082614719618,0.00332687628960229
10.91378491,-0.001954233195316583,0.0006080312477072966,0.003092971566963463
10.91856179,-0.0018210909748585806,0.0005644796214691785,0.0028711989753734536
10.92333861,-0.001694269027678185,0.0005232736781218333,0.0026611903815314713
10.92811543,-0.0015736393183030542,0.00048433412728389035,0.002462577293946846
10.93289231,-0.0014590676053639628,0.00044758217997163094,0.0022749912477219446
10.93766913,-0.001350413864299944,0.0004129396340123843,0.0020980641918459395
10.94244596,-0.001247532717011685,0.0003803289574534131,0.0019314288788317847
10.94722283,-0.0011502738672489292,0.00034967336968326246,0.001774719256496171
10.95199965,-0.001058482540501613,0.0003208969199794772,0.0016275708616378375
10.95677648,-0.0009719999271657074,0.0002939245632000763,0.001489621215312043
10.9615533,-0.0008906636277728673,0.00026868223234848205,0.0013605102193288015
10.96633017,-0.0008143080991076142,0.0002450969077654511,0.0012398805535216244
10.971107,-0.0007427651000864303,0.00022309668273878434,0.0011273780732443668
10.97588382,-0.000675864136338421,0.00020261082537194542,0.0010226522064586928
10.98066069,-0.000613432902503326,0.00018356983661361402,0.0009253563496759835
10.98543752,-0.0005552977213429324,0.00016590550441730246,0.0008351482619177944
10.99021434,-0.0005012839788381649,0.00014955095406833557,0.0007516904557616061
10.99499122,-0.00045121655450977756,0.0001344406947799838,0.0006746505844478682
10.99976804,-0.00040492024625293224,0.00012051066271816401,0.0006037018239445163
11.00454486,-0.0003622201890153697,0.00010769826066343883,0.0005385232487995409
11.00932174,-0.00032294226667604653,9.594239455939091e-05,0.00047880020056274494
11.01409856,-0.00028691351649531594,8.51835072267703e-05,0.0004242246475258038
11.01887538,-0.0002539625255074631,7.536360954136579e-05,0.00037449553451588926
11.02365226,-0.00022391981821064894,6.642630937857784e-05,0.0003293191214821213
11.02842908,-0.0001966182348781696,5.83168386184281e-05,0.0002884093096339875
11.0332059,-0.0001718932997696684,5.098207848186142e-05,0.0002514879539232238
11.03798273,-0.00014958357846383766,4.4370583434228044e-05,0.00021828516070105498
11.0427596,-0.00012953102346818806,3.843260384679568e-05,0.000188539569425518
11.04753642,-0.00011158130718990177,3.3120107554618005e-05,0.00016199861733240376
11.05231325,-9.558414127806654e-05,2.8386800392052904e-05,0.00013841878601234542
11.05709012,-8.139358127512355e-05,2.4188145728177544e-05,0.00011756582885211818
11.06186694,-6.886831544707327e-05,2.0481382964913588e-05,9.921497829946584e-05
