Time (s),Acceleration x (m/s^2),Acceleration y (m/s^2),Acceleration z (m/s^2)
9.001285156,-1.2899716271204758,1.4601893709188754,1.7605376380021156
9.00604,-1.2013756571843583,1.389317665756434,1.979216793951814
9.010794844,-1.1128382036296225,1.3150533084286933,2.193710844585243
9.015549687,-1.0248839466582544,1.237812961485304,2.402934331702166
9.020304479,-0.9380284815646486,1.1580191120606154,2.605820212542208
9.025059323,-0.8527737889408825,1.0760961032640435,2.8013276190556695
9.029814167,-0.7696038188146306,0.9924663786264938,2.9884494987646257
9.03456901,-0.6889802338609164,0.9075470019599555,3.166220069407724
9.039323802,-0.611338354398584,0.821746507116275,3.3337220206880374
9.044078646,-0.5370833447687682,0.7354621228050565,3.490093398359246
9.048833489,-0.46658667698590117,0.6490774071162896,3.6345341085798752
9.053588333,-0.4001829033918746,0.5629603150070456,3.766311983887878
9.058343177,-0.338166765623212,0.4774617101104451,3.884768356224383
9.063097969,-0.28079066274103626,0.3929143202199085,3.9893230870877012
9.067852812,-0.2282624970517333,0.3096321241643952,4.079479010061245
9.072607656,-0.1807439120134361,0.2279101470143743,4.154825746583371
9.0773625,-0.1383489325867303,0.14802463107186334,4.215042861854792
9.082117344,-0.10114301429364703,0.07023354218558217,4.259902334097281
9.086872135,-0.06914250301516724,-0.005222635279493451,4.289270316813011
9.091626979,-0.042314503246608966,-0.07811986598620645,4.303108180072191
9.096381823,-0.020577148307714926,-0.1482493476780927,4.3014728230682415
9.101136667,-0.003800262042305478,-0.21541616697118324,4.2845162562050465
9.10589151,0.008193602037719518,-0.2794378818646036,4.252484456863563
9.110646302,0.01562776133830948,-0.3401430843410336,4.205715508795081
9.115401146,0.01876966432084313,-0.39736999359732733,4.1446370408402196
9.120155989,0.017928832180888442,-0.4509651265426291,4.069762986366596
9.124910833,0.013454505764736726,-0.5007820873974338,3.9816896904055215
9.129665677,0.005733022669647443,-0.54668051271609,3.881091396879666
9.134420521,-0.004815049769499929,-0.5885252021489831,3.768715153475323
9.139175312,-0.017737999693849094,-0.6261854589798002,3.645375176547396
9.143930156,-0.03255624857511031,-0.6595346581317235,3.511946722865513
9.148685,-0.04876579700844744,-0.6884500531284583,3.369359518926272
9.153439844,-0.06584181495977452,-0.7128128275980291,3.2185908019087752
9.158194635,-0.08324235437529155,-0.7325083914794402,3.0606580291268495
9.162949479,-0.10041216342186611,-0.7474269172632171,2.8966113150425614
9.167704323,-0.116786582765498,-0.7574641074460187,2.727525656529145
9.172459167,-0.1317955050639222,-0.7625221809397353,2.5544930080338006
9.17721401,-0.1448673791655567,-0.762511063444931,2.3786142685188203
9.181968802,-0.15543324035931896,-0.7573497647382569,2.2009912415502
9.186723646,-0.16293074747126002,-0.7469679243449439,2.0227186287495
9.191478489,-0.16680820678778777,-0.7313075060336144,1.8448761151884885
9.196233333,-0.16652856187773932,-0.7103246208181856,1.6685206033635371
9.200988177,-0.1615733275532663,-0.6839914575216689,1.4946786502802865
9.205743021,-0.15144644556091155,-0.652298299320119,1.324339159992295
9.210497812,-0.1356780391677497,-0.6152556039558308,1.1584463817017876
9.215252656,-0.1138280435970006,-0.5728961244430794,0.9978932612567994
9.2200075,-0.08548968926202333,-0.5252770460755156,0.8435151915866227
9.224762344,-0.05029281495741586,-0.47248211439225496,0.6960842053412463
9.229517187,-0.00790698862334156,-0.4146237274946361,0.5563036507689582
9.234271979,0.04195558596047772,-0.3518449647620783,0.42480338967563247
9.239026823,0.09953739715245546,-0.28432152263741123,0.30213555411678805
9.243781667,0.1650332073601207,-0.21226352679739938,0.1887708962140284
9.24853651,0.23858790653139852,-0.1359171887696992,0.08509576309675096
9.253291354,0.3202946530156721,-0.05556627400062047,-0.008590273599745913
9.258046198,0.41019331551739463,0.028466652364641874,-0.09207610702832959
9.262800989,0.5082692276230832,0.1158192360257989,-0.1652400795754964
9.267555833,0.6144522640035903,0.20608863415318407,-0.22805024207223343
9.272310677,0.7286162449246891,0.29883113888396884,-0.28056387088796825
9.277065521,0.8505786731950826,0.39356215474074724,-0.3229262297821245
9.281820364,0.9801008051967428,0.48975655848921,-0.3553685674122138
9.286575208,1.1168880552218812,0.5868494666321803,-0.37820534571143577
9.29133,1.260590730008484,0.6842374316911168,-0.3918306989661745
9.296084844,1.4108050881287235,0.781280083749132,-0.3967141283479276
9.300839687,1.567074716767828,0.8773022285373602,-0.3933954420250739
9.305594531,1.7288922166266876,0.9715964077346565,-0.3824789576459889
9.310349375,1.8957011847498795,1.0634259211563308,-0.36462699415466054
9.315104167,2.066898485802486,1.15202830416211,-0.34055269620922635
9.31985901,2.241836804904904,1.236619247120623,-0.3110122569084053
9.324613854,2.4198274785130676,1.3163969376174014,-0.276796628593222
9.329368698,2.6001436021170923,1.3905468008701076,-0.23872283093224964
9.334123542,2.7820234134109434,1.4582466098237132,-0.19762497691316933
9.338878333,2.9646739471238877,1.5186719335060077,-0.1543451415158485
9.343633177,3.1472749538929414,1.571001890040214,-0.1097241974321261
9.348388021,3.3289830713995214,1.6144251688596907,-0.06459273950854051
9.353142864,3.508936232048602,1.648146284910734,-0.01976221580093095
9.357897708,3.686258287898224,1.6713920258566606,0.02398362136258412
9.362652552,3.860063830320372,1.6834180514934691,0.06589683610333365
9.367407344,4.029463178885849,1.6835156027855254,0.10527289933002841
9.372162187,4.193567511090128,1.671018276164857,0.14145765361271126
9.376917031,4.351494101674154,1.6453088170192849,0.17385356582805092
9.381671875,4.5023716374143135,1.6058258845943179,0.2019251904506798
9.386426719,4.6453455704156585,1.552070738795493,0.2252037773238562
9.391181562,4.77958347026475,1.4836137975426988,0.2432909699415047
9.395936354,4.904280333040608,1.40010101135949,0.2558615536071992
9.400691198,5.018663803307492,1.3012599997817775,0.26266522720337815
9.405446042,5.121999263966401,1.1869058919964943,0.2635273876074122
9.410200885,5.213594748337776,1.0569468119885002,0.258348931895745
9.414955729,5.292805629174892,0.9113889465659372,0.24710509915494216
9.419710573,5.359039040525265,0.7503411331918399,0.22984339060041278
9.424465364,5.411757990454033,0.5740189038475508,0.20668062328018297
9.429220208,5.450485125481612,0.3827479214509539,0.17779918832085512
9.433975052,5.474806110906408,0.17696674682790028,0.1434425988862546
9.438729896,5.4843725946794875,-0.04277112307103987,0.10391042532628395
9.443484739,5.478904725938251,-0.27579600121047726,0.059552725142585354
9.448239583,5.458193202586092,-0.5213215915577151,0.010764083309316637
9.452994375,5.422100825443527,-0.7784454506324832,-0.04202261591264707
9.457749219,5.370563539608058,-1.0461503691307263,-0.09834256191420288
9.462504062,5.303590946964865,-1.3233067072723421,-0.15770541420351739
9.467258906,5.221266277624115,-1.6086757117100823,-0.2196016119592725
9.47201375,5.123745812756727,-1.9009138363748936,-0.28350850611604367
9.476768594,5.0112577569339765,-2.198578084353606,-0.3488962481128546
9.481523437,4.884100564322921,-2.5001323821873096,-0.4152333915877358
9.486278229,4.742640729397079,-2.8039549910663246,-0.4819921779840963
9.491033073,4.587310058754802,-3.1083469507151333,-0.5486534843361173
9.495787917,4.41860244610607,-3.4115415411188463,-0.6147114145298406
9.50054276,4.237070177715937,-3.7117147347589827,-0.6796775172564492
9.505297604,4.043319800882121,-4.006996597980667,-0.7430846166197915
9.510052448,3.838007593468813,-4.295483584840811,-0.8044902455737101
9.514807292,3.621834677847596,-4.575251650636035,-0.8634796776204358
9.519562083,3.3955418272822917,-4.844370095659958,-0.9196685574647546
9.524316927,3.1599040163764647,-5.100916033043741,-0.9727051356180432
9.529071771,2.915724769560801,-5.342989358327867,-1.0222721148566507
9.533826614,2.6638303629475573,-5.5687280832846495,-1.068088118107271
9.538581458,2.405063935538204,-5.776323883036963,-1.1099087882061958
9.543336302,2.140279565966273,-5.964037694204239,-1.1475275305444557
9.548091146,1.8703363708159424,-6.130215193036525,-1.180775910238279
9.552845937,1.596092680172388,-6.273301976518284,-1.2095237163445731
9.557600781,1.3184003455243036,-6.391858266371327,-1.2336787067823929
9.562355625,1.0380992345230091,-6.4845729558433405,-1.2531860489143225
9.567110469,0.7560119664441731,-6.550276822212029,-1.2680274720533042
9.571865312,0.472938941515857,-6.587954734137686,-1.278220149405668
9.576620156,0.18965371658880192,-6.596756692392584,-1.2838153281259477
9.581374948,-0.09310122105905509,-6.576007555061424,-1.284896727273441
9.586129792,-0.37461823073265177,-6.525215313983567,-1.281578724546284
9.590884635,-0.6542277960856514,-6.444077807898731,-1.2740043537086316
9.595639479,-0.931301255123229,-6.3324877792523315,-1.2623431355769905
9.600394323,-1.2052529362777196,-6.190536205493474,-1.2467887662565986
9.605149167,-1.4755416577252067,-6.0185138613105815,-1.2275566869906347
9.60990401,-1.7416715515691337,-5.816911094785956,-1.2048815604417786
9.614658802,-2.0031921803750383,-5.586415827005377,-1.1790146783220508
9.619413646,-2.259697921169558,-5.327909810296883,-1.1502213247873019
9.624168489,-2.5108266016731307,-5.042463204112228,-1.1187781186655255
9.628923333,-2.756257385198403,-4.731327548849195,-1.0849703553629697
9.633678177,-2.995707914079861,-4.395927236033296,-1.0490893667678947
9.638433021,-3.2289307364142896,-4.037849587770685,-1.011429915946081
9.643187864,-3.455709056914142,-3.658833669004799,-0.9722876441725347
9.647942656,-3.675851869126729,-3.2607579629816263,-0.9319565909146194
9.6526975,-3.889188542105283,-2.8456270440369895,-0.890726811227386
9.657452344,-4.0955629487712875,-2.415557383286187,-0.8488821175388074
9.662207187,-4.294827235069257,-1.972762422983618,-0.8066979726812187
9.666962031,-4.486835338546801,-1.5195370549494325,-0.7644395582452116
9.671716875,-4.671436372460102,-1.0582416378964314,-0.7223600377633695
9.676471719,-4.848467997147042,-0.5912856877841276,-0.6806990289592829
9.68122651,-5.017749904299427,-0.12111137433836895,-0.6396812941573571
9.685981354,-5.179077541847133,0.34982304459823965,-0.5995156534017957
9.690736198,-5.332216207355579,0.8190597213575402,-0.5603941210450066
9.695491042,-5.476895636093728,1.284157522777124,-0.5224912634849581
9.700245885,-5.612805206279866,1.7427080177563985,-0.48596377313488587
9.705000729,-5.739589878528374,2.1923510299101063,-0.45095025132835903
9.709755573,-5.856846979287355,2.630789642816626,-0.4175711905715014
9.714510417,-5.96412392914442,3.0558045519565415,-0.38592914446667076
9.719265208,-6.060917006319375,3.465267665035667,-0.356109072042649
9.724020052,-6.146671223449049,3.8571548609747297,-0.3281788424462133
9.728774896,-6.220781381868685,4.229557827346664,-0.30218988612251035
9.733529739,-6.282594351978289,4.580694906296743,-0.27817797960025203
9.738284583,-6.331412610955123,4.908920889777038,-0.2561641524202951
9.743039427,-6.366499050098775,5.212735716028807,-0.2361557061360782
9.747794271,-6.387083043624116,5.490792030432336,-0.21814733628961175
9.752549062,-6.3923677490138004,5.741901584929262,-0.2021223486134055
9.757303906,-6.3815385864958305,5.965040461069947,-0.1880539603789964
9.76205875,-6.353772822340306,6.159353112251255,-0.17590667688456182
9.766813594,-6.3082501581140615,6.3241552308049105,-0.1656377317124486
9.771568437,-6.244164206553736,6.45893545515131,-0.1571985778158974
9.776323281,-6.160734715145987,6.563355941046418,-0.15053641495347458
9.781078125,-6.057220381593297,6.637251828767725,-0.14559573766203138
9.785832917,-5.932932091602217,6.6806296447140365,-0.14231988689554617
9.79058776,-5.787246399041617,6.693664681297895,-0.1406525875763088
9.795342604,-5.619619061403934,6.676697403319754,-0.1405394534681831
9.800097448,-5.429598439445113,6.630228932442922,-0.1419294398828408
9.804852292,-5.216838568628564,6.554915664139896,-0.1447762237403493
9.809607135,-4.98111171133804,6.451563073699183,-0.14903948947509918
9.814361979,-4.722320202590256,6.321118769654861,-0.1546860983148453
9.819116771,-4.440507408038889,6.1646648543811065,-0.1616911177017215
9.823871614,-4.135867621289377,5.983409652613994,-0.17003868719802312
9.828626458,-3.808754737802258,5.7786788693463516,-0.1797226972168988
9.833381302,-3.459689554806639,5.551906238906167,-0.19074725738850032
9.838136146,-3.0893655605200396,5.304623727094892,-0.20312693233663873
9.842890989,-2.698653091416574,5.038451348053214,-0.21688672409868207
9.847645833,-2.28860175314864,4.755086657065689,-0.2320617823520903
9.852400677,-1.8604410188644018,4.456293979843586,-0.2486968259822372
9.857155469,-1.4155789379352939,4.143893437976456,-0.26684526230337086
9.861910312,-0.9555989083835832,3.8197498292663745,-0.28656799340329464
9.866665156,-0.4822544874729039,3.4857614206111074,-0.3079319026246988
9.87142,0.0025377630801101704,3.1438487100433194,-0.3310080181622986
9.876174844,0.4967073780551877,2.7959432135188256,-0.3558693552245062
9.880929687,0.998040993160002,2.4439763311244893,-0.38258844330097413
9.885684531,1.5041951861812586,2.08986834656972,-0.41123455097331457
9.890439375,2.012711063516534,1.7355176131132408,-0.44187062769523056
9.895194219,2.5210304760046194,1.3827899783720783,-0.4745499904864788
9.89994901,3.026513723743742,1.0335084996185195,-0.5093127940388685
9.904703854,3.526458586865025,0.6894435000364109,-0.5461823356357076
9.909458698,4.0181204989885,0.3523030148702434,-0.5851612613141691
9.914213542,4.498733662958776,0.023723674442986318,-0.6262277559269248
9.918968385,4.965532894626538,-0.2947379312397292,-0.6693318157469025
9.923723229,5.415775969762184,-0.601613363857815,-0.7143917164194153
9.928478073,5.8467662412864,-0.8955298835457031,-0.7612907998164417
9.933232864,6.255875288343328,-1.1752173915021227,-0.8098747089491891
9.93798776,6.640565354720676,-1.4395147287550993,-0.8599491985659703
9.942742552,6.998411331328206,-1.687375290239559,-0.9112786386644597
9.947497396,7.327122036080797,-1.917871911746728,-0.9635853083362268
9.952252239,7.624560545612885,-2.1302009862021776,-1.0165495494208274
9.957007083,7.888763338241451,-2.3236857660727916,-1.0698108162468618
9.961761927,8.117958017615747,-2.497778811148956,-1.1229696229317558
9.966516771,8.310579401781997,-2.652063545749338,-1.1755903569326174
9.971271614,8.465283782408509,-2.7862548964401075,-1.227204899678632
9.976026458,8.580961182816948,-2.9001989902586653,-1.2773169736780763
9.98078125,8.656745470496242,-2.993871903627429,-1.3254071204014142
9.985536094,8.692022209368076,-3.0673774630494846,-1.370938203371533
9.990290937,8.686434168652166,-3.120944109782583,-1.4133613250066026
9.995045781,8.639884437909213,-3.1549208515742504,-1.452122043125905
9.999800625,8.552537130623223,-3.1697723348721225,-1.4866667733811574
10.00455547,8.424815690504195,-3.1660730804813952,-1.5164492670454104
10.00931031,8.257398844977361,-3.1445009344084545,-1.5409370592264533
10.01406516,8.051214279003972,-3.1058297937907553,-1.5596177901147736
10.01881995,7.807430129556956,-3.0509216755876167,-1.5720053106645662
10.02357479,7.5274444266251965,-2.9807182031407664,-1.5776454934523287
10.02832964,7.212872630036045,-2.896231592631279,-1.5761216787162842
10.03308448,6.865533432009674,-2.79853522759575,-1.567059694275722
10.03783932,6.487433012690395,-2.6887539148015778,-1.5501323960301872
10.04259417,6.080747949610306,-2.5680539187685887,-1.5250636833739293
10.04734901,5.647806991772059,-2.4376328749399576,-1.4916319518904333
10.05210385,5.191071914421946,-2.2987096828607347,-1.4496729550560319
10.0568587,4.71311767157126,-2.1525144806898107,-1.3990820580346417
10.06161349,4.216612060398743,-2.0002788009514907,-1.339815879860547
10.06636833,3.7042951056844684,-1.8432260045896056,-1.2718933342969692
10.07112318,3.178958364303537,-1.6825620860626216,-1.1953960926693192
10.07587802,2.6434243403907054,-1.5194669364331788,-1.110468502177559
10.08063286,2.1005261917787488,-1.3550861443164144,-1.0173169993620632
10.08538771,1.553087898094637,-1.1905234063929688,-0.9162090603459535
10.09014255,1.003905050391593,-1.026833610166789,-0.8074717279919076
10.0948974,0.4557264110245089,-0.8650166418673036,-0.6914897524239375
10.09965224,-0.08876361970668965,-0.7060119619226116,-0.5687033766182131
10.10440703,-0.6269615069310707,-0.5506939793626949,-0.43960579379402476
10.10916188,-1.156359945711621,-0.39986824502674817,-0.3047402986542994
10.11391672,-1.6745619929033926,-0.25426847176954204,-0.16469715039856542
10.11867156,-2.1792938881897737,-0.11455437819375147,-0.020110161955904513
10.12342641,-2.6684165019467407,0.01868965905259274,0.1283469729118586
10.12818125,-3.1399353634160185,0.14495517050845277,0.27996460507362314
10.13293609,-3.5920092383158506,0.26380941331690744,0.4340012998068306
10.13769094,-4.022957240255735,0.3748944912145296,0.589688243077459
10.14244578,-4.431264474881195,0.477925830152705,0.7462338759816312
10.14720057,-4.815586229326607,0.5726900720427506,0.9028287474514455
10.15195542,-5.174750732179014,0.6590424551711512,1.0586505727674143
10.15671026,-5.507760520725488,0.7369037543892724,1.2128694819763444
10.1614651,-5.813792462745176,0.8062568571398324,1.3646534381512596
10.16621995,-6.092196489446633,0.8671430526687075,1.513173800695582
10.17097479,-6.342493104293444,0.9196581113632768,1.6576110037115805
10.17572964,-6.564369739474852,0.9639482290853285,1.7971603139823622
10.18048448,-6.757676037869209,1.0002059076952639,1.9310376276028993
10.18523932,-6.922418143782839,1.0286658377973381,2.0584852590567677
10.18999411,-7.058752090723546,1.0496008432079265,2.178777671894692
10.19474896,-7.1669763789904035,1.0633179389249545,2.291227096404605
10.1995038,-7.247523839678007,1.070154545662278,2.3951889769994072
10.20425865,-7.300952884377648,1.0704748945877693,2.4900671906812506
10.20901349,-7.327938241030344,1.0646666461414127,2.575318978001398
10.21376833,-7.329261275931094,1.0531377371396156,2.6504595294495465
10.21852318,-7.30579999999964,1.0363134612066445,2.715066173092403
10.22327802,-7.258518854521378,1.0146337792519464,2.7687821133787094
10.22803286,-7.188458368057844,0.9885508494751908,2.811319676139989
10.23278766,-7.096724772464925,0.9585267603708372,2.8424630207304222
10.2375425,-6.984479662099147,0.925031445470625,2.862070286742807
10.24229734,-6.852929776310323,0.8885407550874658,2.870075149572199
10.24705219,-6.7033169810575135,0.8495346580510333,2.8664877660166437
10.25180703,-6.5369085207933475,0.8084955452789793,2.8513950978529543
10.25656188,-6.354987606605971,0.7659066069239115,2.8249606077215392
10.26131672,-6.158844401073815,0.7222502556770498,2.7874233276452585
10.26607156,-5.949767454475208,0.6780065704674044,2.739096306173764
10.27082641,-5.729035640929451,0.6336517371059952,2.6803644456269495
10.27558125,-5.497910636698865,0.5896564652080752,2.611681746310397
10.28033604,-5.257629976246967,0.5464843638247326,2.5335679799035242
10.28509088,-5.009400714800553,0.5045902615130208,2.446604819414461
10.28984573,-4.754393719240987,0.46441845999233367,2.3514314580530398
10.29460057,-4.493738602288877,0.42640091401875135,2.248739753972898
10.29935542,-4.228519308234418,0.3909553336125937,2.13926894194304
10.30411026,-3.9597703519523235,0.3584832082479094,2.02379995650683
10.3088651,-3.688473706668745,0.32936775599933116,1.9031494139883973
10.31361995,-3.41555632996532,0.30397180388901096,1.7781633027846127
10.31837479,-3.1418883118634904,0.2826356087489598,1.649710432771168
10.32312964,-2.868281623598479,0.26567463079310566,1.5186756954510754
10.32788443,-2.595489440962408,0.25337727476543215,1.3859531868200252
10.33263927,-2.3242060119774846,0.24600261598170933,1.2524392449601143
10.33739411,-2.055067035241709,0.24377813079697586,1.119025454221955
10.34214896,-1.788650512615113,0.24689745299185042,0.9865916675811903
10.3469038,-1.5254780379695687,0.25551817926077475,0.8559990983582122
10.35165865,-1.2660164824350975,0.269759748389657,0.7280835319328112
10.35641349,-1.0106800358163672,0.28970141981600556,0.6036487073527672
10.36116833,-0.7598325634762053,0.3153803780601889,0.48345991785907116
10.36592318,-0.5137902378548623,0.3467899900000502,0.36823787838878264
10.37067802,-0.27282440383640866,0.38387824215007776,0.2586529071220761
10.37543281,-0.03716463738636539,0.4265463850344834,0.15531946714629863
10.38018766,0.1929980426665415,0.47464781144204304,0.0587911133240907
10.3849425,0.4175078490577871,0.5279871948255428,-0.030444111554959973
10.38969734,0.6362408249189584,0.5863199133351966,-0.11196778834928561
10.39445219,0.8491014036631217,0.6493517839141887,-0.18543469910816537
10.39920703,1.0560189646773244,0.7167391295027271,-0.2505758302352213
10.40396188,1.2569444173935673,0.7880892006731608,-0.30720076255663986
10.40871672,1.4518468439037422,0.8629609709364657,-0.35519941150073825
10.41347156,1.6407102276979366,0.9408663225060684,-0.3945430829120095
10.41822641,1.823530293348736,1.0212716364687844,-0.42528481282987524
10.4229812,2.000311479019141,1.1035997980867673,-0.4475589629125516
10.42773604,2.171064060512299,1.1872326243270217,-0.46158004707735995
10.43249088,2.3358014421930204,1.2715137166649677,-0.46764076932174364
10.43724573,2.494537626513916,1.3557517377043635,-0.46610925754154
10.44200057,2.6472848701620038,1.4392241051604266,-0.4574254835147012
10.44675542,2.794051531245792,1.5211810912216743,-0.4420968654928955
10.45151026,2.934840109006695,1.6008503091868744,-0.42069305831875714
10.4562651,3.0696454761368464,1.677441562567966,-0.39383994870211175
10.46101995,3.198453304762227,1.7501520247456732,-0.3622128916865169
10.46577479,3.3212386906250444,1.8181717102017798,-0.326529247566054
10.47052964,3.4379649849754124,1.8806891918944255,-0.28754030327358326
10.47528443,3.5485828484337274,1.9368975139565472,-0.2460226844717593
10.48003927,3.653029544034741,1.9860002448285847,-0.20276938124188565
10.48479411,3.751228487074586,2.02721761322369,-0.15858052029549868
10.48954896,3.843089067468761,2.059792667870987,-0.11425402059612694
10.4943038,3.9285067568839676,2.08299740163769,-0.07057626860115737
10.49905865,4.007363508785157,2.0961387812502563,-0.028312945516992562
10.50381349,4.079528455332055,2.098564625319826,0.011799866850155579
10.50856833,4.144858901027835,2.089669275682055,0.04906418214813938
10.51332318,4.203201609189499,2.0688990101796487,0.08282809588754834
10.51807802,4.254394373584081,2.035757148960208,0.11249315925667015
10.52283281,4.298267863848622,1.9898088111387888,0.13752104653271024
10.52758766,4.334647729511285,1.9306852842519984,0.15743943190857135
10.5323425,4.363356943532352,1.8580879752120008,0.17184700169844777
10.53709734,4.384218362315272,1.7717919182870392,0.18041753864508056
10.54185219,4.397057475167443,1.6716488227639137,0.18290302658803068
10.54660703,4.401705312297439,1.557589650113752,0.17913573622776277
10.55136188,4.398001476686949,1.429626717366962,0.1690292662214821
10.55611672,4.3857972616553145,1.2878553296526396,0.15257852834880586
10.56087156,4.364958812805079,1.1324549501193433,0.12985868086498467
10.56562641,4.335370290562407,0.9636899194375149,0.10102303021329685
10.5703812,4.296936988002932,0.7819097396155834,0.06629993772441278
10.57513604,4.249588358300389,0.5875489379051781,0.025988784475724596
10.57989089,4.193280907020375,0.38112652620607124,-0.019544936196869686
10.58464573,4.128000906516974,0.1632450697678363,-0.06987531324895412
10.58940057,4.053766892676387,-0.06541062367078322,-0.12452239928982692
10.59415542,3.970631907932003,-0.3040751866233635,-0.18295916470212953
10.59891026,3.8786854585725794,-0.5519047427853486,-0.24461889818134497
10.6036651,3.778055158582704,-0.8079793266591535,-0.3089029171177028
10.60841995,3.668908036219149,-1.0713056764655413,-0.37518844435991683
10.61317479,3.55145148271543,-1.3408204086648772,-0.44283650746524417
10.61792964,3.4259338243628568,-1.6153935857582231,-0.5111997266485625
10.62268448,3.2926444995795476,-1.893832692073329,-0.579629879337926
10.62743927,3.1519138220445644,-2.1748870348814524,-0.6474851570487293
10.63219411,3.004112310638996,-2.4572525900486397,-0.7141370549466196
10.63694896,2.8496495677262725,-2.739577311974157,-0.7789768498140229
10.6417038,2.6889726896220645,-3.02046692642102,-0.8414216283895074
10.64645865,2.522564197006546,-3.2984912218513616,-0.90091982938858
10.65121349,2.350939478530565,-3.5721908500825146,-0.9569562634259449
10.65596833,2.1746437480032554,-3.8400846406368236,-1.0090565786892383
10.66072318,1.994248524251195,-4.100677425295319,-1.0567911479169152
10.66547802,1.8103476526557274,-4.352468360314635,-1.09977836325204
10.67023286,1.6235528978543337,-4.593959723708561,-1.1376873373742509
10.67498766,1.4344891473764039,-4.8236661540544645,-1.1702400191877707
10.6797425,1.2437892754787192,-5.040124285589829,-1.1972127388305742
10.68449734,1.0520887248590998,-5.241902722131728,-1.2184372001607715
10.68925219,0.8600198711918389,-5.4276122799199005,-1.2338009403917027
10.69400703,0.6682062415108385,-5.595916417277964,-1.2432472773603778
10.69876188,0.47725666223732277,-5.745541757454682,-1.24677476569396
10.70351672,0.2877594159312837,-5.875288600561625,-1.244436184090808
10.70827156,0.10027648755265536,-5.984041311514685,-1.236337077013883
10.71302641,-0.08466201875547619,-6.070778463593593,-1.2226338751862593
10.71778125,-0.2665632123449128,-6.134582611884713,-1.2035316202667197
10.72253609,-0.44497642006921256,-6.174649567685843,-1.17928131990133
10.72729088,-0.6194977859505582,-6.19029704415822,-1.1501769600040717
10.73204573,-0.789774393661857,-6.180972545338045,-1.1165522016891003
10.73680057,-0.9555078420585074,-6.146260375251411,-1.0787767908382906
10.74155542,-1.1164572073278953,-6.085887651420682,-1.0372527088812395
10.74631026,-1.2724413289945182,-5.999729217519475,-0.9924100940058126
10.7510651,-1.4233403611684987,-5.887811363224784,-0.9447029627407469
10.75581995,-1.569096535260311,-5.750314275207524,-0.8946047627314305
10.76057479,-1.7097140861941147,-5.5875731613854285,-0.8426037886478059
10.76532964,-1.8452583013191426,-5.400078010652261,-0.789198494578587
10.77008448,-1.9758536601869534,-5.188471971811627,-0.7348927380433377
10.77483932,-2.101681044579165,-4.953548357732256,-0.680190993028034
10.77959411,-2.22297401196223,-4.696246302937749,-0.6255935724012066
10.78434896,-2.3400141418413516,-4.417645123905069,-0.5715919037242496
10.7891038,-2.453125482537817,-4.118957450232841,-0.5186639064458833
10.79385865,-2.5626681444156554,-3.801521210777101,-0.46726952191286675
10.79861349,-2.669031103234318,-3.466790571525711,-0.4178464494892196
10.80336833,-2.772624293343558,-3.116325931567702,-0.37080614155202574
10.80812318,-2.8738700847051706,-2.751783090526887,-0.3265301069702955
10.81287802,-2.9731942503485373,-2.3749017058960025,-0.28536656718464093
10.81763286,-3.071016541925515,-1.9874931623483747,-0.24762750185577542
10.82238771,-3.1677410004435824,-1.5914279776241553,-0.21358611300142546
10.8271425,-3.2637461368462084,-1.1886228710883282,-0.1834747282533967
10.83189734,-3.3593751227305253,-0.7810276215028951,-0.15748315578748365
10.83665219,-3.45492613510722,-0.3706118398477753,-0.13575749583811683
10.84140703,-3.5506430007765637,0.04064821893953626,-0.11839940659099421
10.84616188,-3.6467062857173875,0.45078268473561284,-0.10546581567874942
10.85091672,-3.7432249729366305,0.8578408256375855,-0.09696906253230311
10.85567156,-3.840228868511984,1.2599034162628318,-0.0928774516009259
10.86042641,-3.9376618700262735,1.6550946187955184,-0.09311619222381537
10.86518125,-4.035376224180239,2.0415932836282393,-0.09756869806804869
10.86993609,-4.133127891055756,2.417643586663419,-0.10607821779960236
10.87469094,-4.230573121299753,2.7815649315035933,-0.118449769026292
10.87944573,-4.32726633946277,3.131761056552902,-0.1344523492374591
10.88420057,-4.422659411942526,3.466728299146012,-0.15382139992820826
10.88895542,-4.516102361554275,3.785062980895273,-0.17626150273205338
10.89371026,-4.60684557277169,4.085467890208078,-0.20144928869626907
10.8984651,-4.694043512256347,4.366757849128568,-0.22903654352187916
10.90321995,-4.776759968576784,4.6278643621206665,-0.258653492552054
10.90797479,-4.853974793274146,4.867839354015358,-0.2899122495556871
10.91272964,-4.924592103068026,5.085858013017214,-0.3224104130074332
10.91748448,-4.987449880562071,5.281220762347392,-0.3557347927167658
10.92223932,-5.041330888948856,5.4533543907516755,-0.3894652484028812
10.92699417,-5.084974795587997,5.601812377697706,-0.42317862023478403
10.93174896,-5.117091380512867,5.726274453616678,-0.45645272953119514
10.9365038,-5.136374689300086,5.826545439025034,-0.48887042579925644
10.94125865,-5.141517975495191,5.902553408841136,-0.5200236541228239
10.94601349,-5.131229265955216,5.954347229781558,-0.549517514632799
10.95076833,-5.104247372987274,5.982093519497157,-0.5769742834778561
10.95552318,-5.059358169937843,5.986073076201265,-0.602037362480968
10.96027802,-4.995410941826804,5.966676827038226,-0.6243751226592554
10.96503286,-4.911334619656513,5.924401342402743,-0.6436846051414119
10.96978771,-4.806153706122091,5.859843961899779,-0.6596950418396257
10.97454255,-4.679003701580818,5.773697575686073,-0.6721711575616505
10.9792974,-4.529145842287895,5.666745102630138,-0.6809162150636613
10.98405219,-4.355980968060941,5.539853704160628,-0.6857747647954439
10.98880703,-4.159062343684297,5.3939687699461665,-0.6866350617360399
10.99356188,-3.9381072674760778,5.230107708764769,-0.6834311127540109
10.99831672,-3.6930073114493034,5.049353575176822,-0.6761443193712317
11.00307156,-3.4238370502898188,4.852848560010307,-0.6648046826779377
11.00782641,-3.1308611507870667,4.641787370294686,-0.6494915394343511
11.01258125,-2.814539709199769,4.417410522219442,-0.6303338010894817
11.01733609,-2.4755317411356534,4.180997569000509,-0.6075096705634971
11.02209094,-2.1146967467228066,3.9338602842477512,-0.5812458152254502
11.02684578,-1.7330942930299724,3.6773358205625457,-0.5518159786189188
11.03160063,-1.3319815757481643,3.4127798626725054,-0.5195390181938853
11.03635542,-0.9128089429780449,3.1415597944414633,-0.4847763616133064
11.04111026,-0.47721338548989845,2.8650478995817483,-0.4479288801235524
11.0458651,-0.027010019961168575,2.584614616829465,-0.40943318403452017
11.05061995,0.4358183856160181,2.301621871670008,-0.36975735262003484
11.05537479,0.909133772008484,2.0174165083090423,-0.32939611885597697
11.06012964,1.3906569384888212,1.7333238472900911,-0.2888655385557917
11.06488448,1.8779833630596992,1.4506413957128528,-0.24869718386258385
11.06963932,2.36860055129627,1.1706327381256496,-0.2094319128683645
11.07439417,2.8599067508265392,0.8945216366115474,-0.17161328026526093
11.07914901,3.349230849603057,0.6234863682538863,-0.13578066788653745
11.0839038,3.8338532598806707,0.35865432716895,-0.10246222783556475
11.08865865,4.311027576223102,0.10109691700377933,-0.07216774348898898
11.09341349,4.778002784750242,-0.14817524125493395,-0.0453815239739402
11.09816833,5.2320457920648415,-0.38821676166405866,-0.022555455038211148
11.10292318,5.670464035841457,-0.6181515808330641,-0.00410233305596929
11.10767802,6.090627934999954,-0.8371766540688909,0.009610391266138085
11.11243286,6.489992935848323,-1.0445652316670793,0.01826633771799178
11.11718771,6.866120911761681,-1.2396696847302664,0.021605278220412454
11.12194255,7.216700678206133,-1.4219238482331638,0.01942747911822699
11.1266974,7.539567392757502,-1.5908448485506042,0.011597228773804417
11.13145219,7.832720621876318,-1.746034383975725,-0.0019545002458594973
11.13620703,8.094340873088862,-1.8871794303200398,-0.02122827897505228
11.14096188,8.322804412804349,-2.01405234961498,-0.04615533972672017
11.14571672,8.516696215393235,-2.1265103880054603,-0.07659756261330623
11.15047156,8.674820917005118,-2.2244945586870433,-0.11234829395585398
11.15522641,8.796211676702217,-2.3080279166081867,-0.15313394860580987
11.15998125,8.880136877127953,-2.3772132430070876,-0.198616341242446
11.16473609,8.92610462678869,-2.4322301690608974,-0.2483956877578238
11.16949094,8.93386505574871,-2.4733317784273505,-0.3020142160154294
11.17424578,8.903410425560821,-2.500840737745333,-0.3589603249155324
11.17900062,8.834973101902005,-2.5151450117710827,-0.41867323131672707
11.18375547,8.729021464030541,-2.516693225370872,-0.4805480455347441
11.18851026,8.586253848326402,-2.5059897378042484,-0.5439412175387502
11.1932651,8.407590643429627,-2.483589495514907,-0.6081762973495015
11.19801995,8.194164671550903,-2.450092728062407,-0.6725499543388873
11.20277479,7.947310004180016,-2.4061395480830305,-0.7363382010327658
11.20752964,7.668549370562424,-2.35240451060591,-0.7988027676355212
11.21228448,7.359580324007009,-2.2895911801540336,-0.8591975739929623
11.21703932,7.02226033454811,-2.2184267464312177,-0.9167752464133423
11.22179417,6.65859097708538,-2.139656721714198,-0.9707936280482736
11.22654901,6.270701382418172,-2.054039746021298,-1.0205222336290107
11.23130385,5.860831115341599,-1.9623425203077103,-1.06524860217146
11.2360587,5.43131264005356,-1.865334883715566,-1.1042845043814686
11.24081349,4.984553529222702,-1.7637850483631998,-1.1369719643565956
11.24556833,4.523018569389619,-1.6584550040999149,-1.1626890573867126
11.25032318,4.049211911609479,-1.5500961057297005,-1.1808554470750166
11.25507802,3.5656594118403073,-1.4394448560544169,-1.1909376257066644
11.25983286,3.074891300066508,-1.3272188994259437,-1.1924538219576153
11.26458771,2.5794253102945714,-1.214113242149254,-1.184978540048808
11.26934255,2.081750395334381,-1.1007967178868499,-1.1681466952007067
11.2740974,1.5843111407085726,-0.9879087179385125,-1.1416573129995187
11.27885224,1.0894929811421512,-0.8760562075574648,-1.1052767657116014
11.28360708,0.5996083110031893,-0.7658110499480976,-1.0588415257496444
11.28836188,0.11688356712054151,-0.6577076590240369,-1.002260423330484
11.29311672,-0.3565526509283297,-0.552241000310459,-0.9355164002521072
11.29787156,-0.818680371207742,-0.449864956588204,-0.8586677544381941
11.30262641,-1.2675979113907858,-0.35099107108298566,-0.7718488711637782
11.30738125,-1.7015303851409822,-0.255987676324015,-0.6752704374266502
11.31213609,-2.118837036635418,-0.16517941143342685,-0.569219136157891
11.31689094,-2.518017396673151,-0.07884712484890077,-0.4540568170233513
11.32164578,-2.897716262412704,0.002771846349828458,-0.33021914058112706
11.32640063,-3.256727510490884,0.07948303495257965,-0.19821369274304412
11.33115547,-3.5939967603882232,0.151133859577302,-0.05861756713238143
11.33591031,-3.908622911661959,0.21761232225139057,0.08792558568175185
11.34066516,-4.199858585171721,0.2788454156822796,0.24070904075739447
11.34541995,-4.467109504650275,0.3347972714935814,0.3989670084663932
11.35017479,-4.709932860810732,0.38546708327111506,0.5618791622056887
11.35492964,-4.928034705496976,0.4308868402396993,0.7285756697633585
11.35968448,-5.121266428074528,0.47111890881525864,0.8981427080011338
11.36443932,-5.289620370299284,0.5062535001680003,1.0696284340746112
11.36919417,-5.433224639349244,0.5364060622962251,1.242049379703948
11.37394901,-5.552337181669263,0.5617146349449254,1.414397228211551
11.37870385,-5.647339182889839,0.5823372050117273,1.5856459273238468
11.3834587,-5.718727861490072,0.5984490988791261,1.75475908427753
11.38821354,-5.7671087262743725,0.6102404464102679,1.9206975838136826
11.39296839,-5.793187370312447,0.6179137491310903,2.0824273644560907
11.39772318,-5.797760876814014,0.6216815823256888,2.2389272843020676
11.40247802,-5.781708915276233,0.6217644572764232,2.3891970045736795
11.40723286,-5.745984608690605,0.6183888655735226,2.5322648174283398
11.41198771,-5.691605254049943,0.6117855222839392,2.667195343942623
11.41674255,-5.619642978366316,0.6021878189477711,2.7930970286689756
11.4214974,-5.531215410644509,0.5898304911526924,2.9091293586838254
11.42625224,-5.427476446782711,0.5749484991928526,3.014509737599241
11.43100708,-5.309607179465521,0.5577761144247905,3.1085199485628143
11.43576193,-5.1788070592019695,0.5385461987169551,3.1905121447091673
11.44051677,-5.036285346240707,0.51748966009658,3.2599143106895787
11.44527156,-4.883252906646508,0.4948350644691377,3.316235144625862
11.45002641,-4.7209143997027265,0.4708083811536558,3.359068315962375
11.45478125,-4.550460898153614,0.44563283888220295,3.3880960611022735
11.45953609,-4.37306297753442,0.4195288687358979,3.403092085300913
11.46429094,-4.189864305732632,0.39271411108702253,3.4039237459352947
11.46904578,-4.00197575873492,0.365403464825705,3.3905534988452475
11.47380062,-3.810470083071149,0.3378091587969896,3.363039595826064
11.47855547,-3.6163771197360246,0.3101408272928092,3.3215360274663013
11.48331031,-3.4206795984610925,0.2826055734987645,3.2662917113727747
11.48806516,-3.224309505310976,0.25540800689168525,3.1976489314879735
11.49282,-3.028145020842373,0.22875024264628493,3.11604103979893
11.49757479,-2.8330080205594363,0.20283185307261026,3.0219894373667904
11.50232964,-2.639662124141122,0.17784976291866406,2.9160998573309866
11.50708448,-2.448811274954945,0.15399808200105777,2.7990579783419345
11.51183932,-2.2610988268402483,0.13146787005250093,2.671624402651745
11.51659417,-2.0771071112313093,0.11044682989231895,2.534629038691358
11.52134901,-1.8973574545650984,0.09111892604155637,2.3889649332239666
11.52610385,-1.7223106136595607,0.07366392673400576,2.2355816029571645
11.5308587,-1.5523675953143634,0.058256867940412724,2.0754779197316076
11.53561354,-1.3878708256257781,0.04506743855285944,1.9096946070226222
11.54036838,-1.2291056342134288,0.03425928631109571,1.7393064084433827
11.54512318,-1.0763020185437828,0.025989244454943057,1.565413991180579
11.54987802,-0.9296366537034179,0.02040647953982515,1.3891356487972872
11.55463286,-0.7892351133235209,0.017651561443925004,1.211598868600197
11.55938771,-0.6551742679483786,0.01785545739675928,1.0339318288273869
11.56414255,-0.5274848280452302,0.02113845291375549,0.8572548903577882
11.5688974,-0.4061540001104734,0.027609003850170642,0.6826721466017579
11.57365224,-0.29112822593940646,0.03736252539673727,0.5112630938381308
11.57840708,-0.18231597707109037,0.0504801257232794,0.34407448263881174
11.58316193,-0.07959057866427909,0.0670272941101365,0.18211240927442146
11.58791677,0.01720696044210889,0.08705255573382703,0.026334704206674622
11.59267156,0.10826513205711646,0.11058610770205353,-0.1223563270117683
11.59742641,0.19379914518199234,0.1376384533538808,-0.2631207568861885
11.60218125,0.274048189876974,0.16819905414381436,-0.39518743141549945
11.60693609,0.34927276091986054,0.20223502050869366,-0.5178598578579473
11.61169094,0.4197520511922966,0.23968986486884966,-0.6305215367292341
11.61644578,0.4857814222956209,0.28048234123673554,-0.7326406919004923
11.62120062,0.547669957548096,0.32450539670764594,-0.8237743548007772
11.62595547,0.605738100234698,0.3716252603244396,-0.9035717611023677
11.63071031,0.6603153777669964,0.42168069440905276,-0.9717770209270383
11.63546516,0.7117382102804322,0.47448243243362936,-1.0282310265931585
11.64022,0.760347800181259,0.5298128258766879,-1.0728725652536952
11.64497479,0.8064880972929365,0.5874257202970199,-1.105738607472281
11.64972964,0.8505038325781008,0.6470465780883882,-1.1269637468557296
11.65448448,0.8927386119643448,0.7083728620886298,-1.1367787703102539
11.65923932,0.9335330606282141,0.7710746904539619,-1.1355083433704944
11.66399417,0.9732230072853852,0.8347957690207407,-1.1235678007163292
11.66874901,1.01213769781837,0.8991546027943511,-1.1014590395839572
11.67350385,1.050598028356646,0.9637459832551072,-1.0697655252755238
11.6782587,1.0889147901108798,1.0281427429628325,-1.0291464347239683
11.68301354,1.1273869217878996,1.0918977637654188,-0.9803299847012542
11.68776838,1.166299769529709,1.1545462201890264,-0.924106011837555
11.69252318,1.2059233580496573,1.2156080356360135,-0.8613178885444357
11.69727802,1.2465106794470813,1.2745905259316535,-0.7928538711882483
11.70203286,1.2882960081343886,1.3309912024602106,-0.7196379854149675
11.70678771,1.3314932517009075,1.3843007055108445,-0.6426205595216735
11.71154255,1.3762943485457777,1.4340058374624869,-0.5627685206250018
11.7162974,1.4228677237831837,1.47959266506559,-0.4810555700437423
11.72105224,1.4713568152958127,1.5205496603294069,-0.39845235376172566
11.72580708,1.5218786819793104,1.556370850385386,-0.3159167412799907
11.73056193,1.5745227062941316,1.5865589481372344,-0.23438432200702014
11.73531677,1.6293494032978448,1.6106284374737687,-0.1547592230207443
11.74007161,1.6863893483910202,1.6281085892500349,-0.07790534594671132
11.74482641,1.7456422360575028,1.638546387077351,-0.004638114103834002
11.74958125,1.8070760818925533,1.6415093451601293,0.06428318585697994
11.75433609,1.8706265801730009,1.636588203947676,0.12816239075554936
11.75909094,1.9361966291132635,1.6233994932055218,0.18637270640630213
11.76384578,2.003656035737318,1.6015879562060353,0.23836214968261574
11.76860063,2.0728414119335357,1.5708288330063107,0.28365813275223795
11.77335547,2.1435562727013404,1.5308300050939854,0.32187114334720474
11.77811031,2.2155713468108003,1.4813340078776411,0.35269748377376015
11.78286516,2.2886251090425316,1.4221199213960771,0.37592104097457935
11.78761995,2.362424541806369,1.3530051530225673,0.3914140703744568
11.79237479,2.4366461322158552,1.2738471286341218,0.3991369873837344
11.79712964,2.510937108649626,1.1845449104819457,0.39913717211443944
11.80188448,2.5849169185837724,1.0850407606321484,0.39154680484921384
11.80663932,2.658178947232259,0.975321668189382,0.37657976184383257
11.81139417,2.7302924745055765,0.855420856495782,0.3545276129022814
11.81614901,2.8008048661522915,0.7254192831319144,0.3257547736503024
11.82090385,2.869243993724009,0.5854471409393256,0.29069287643903646
11.8256587,2.93512087711126,0.435685362603652,0.24983443429527563
11.83041354,2.997932542654978,0.27636712478720743,0.20372588228511695
11.83516839,3.0571650890261104,0.10777934059605938,0.15296009003170785
11.83992318,3.1122969519686463,-0.06973587847329843,0.0981684478211552
11.84467802,3.162802357438291,-0.2557798178070522,0.04001263657166863
11.84943286,3.2081549505138933,-0.4498958466480608,-0.02082380129462224
11.85418771,3.247831584639929,-0.6515682386517421,-0.08364396762576572
11.85894255,3.281316252234199,-0.8602211745669555,-0.14774606493766176
11.8636974,3.3081041333992283,-1.0752179811811353,-0.2124316768833346
11.86845224,3.32770573430274,-1.295860664989713,-0.2770137510316183
11.87320708,3.3396510807576387,-1.5213898020350556,-0.34082417456535696
11.87796193,3.3434939260435708,-1.7509848469959317,-0.40322085307016037
11.88271677,3.3388159258803034,-1.9837649247655287,-0.46359422500427855
11.88747156,3.3252307284830747,-2.218790166158274,-0.5213731639980309
11.89222641,3.3023879241492318,-2.4550636457658865,-0.5760302346920274
11.89698125,3.269976796737652,-2.691533974251107,-0.6270862759813323
11.90173609,3.2277298184925627,-2.927098589638039,-0.6741142907204843
11.90649094,3.175425829941298,-3.1606077826764762,-0.7167426254757059
11.91124578,3.1128928483737686,-3.3908694804255957,-0.754657429403929
11.91600062,3.0400104520902094,-3.616654800128298,-0.7876043887204732
11.92075547,2.956711693324034,-3.8367043725083745,-0.8153897425550442
11.92551031,2.862984500193215,-4.049735420039787,-0.8378805963879942
11.93026516,2.7588725365663693,-4.254449561679805,-0.8550045592331361
11.93501995,2.6444754977334908,-4.44954130117623,-0.8667487390096869
11.93977479,2.519948828930655,-4.6337071415327555,-0.8731581365767624
11.94452964,2.3855028630784574,-4.805655253787994,-0.874333482860001
11.94928448,2.2414013836799453,-4.9641156142428375,-0.8704285659191452
11.95403932,2.0879596287492226,-5.107850511016066,-0.8616470962719216
11.95879417,1.9255417618031403,-5.2356653086947,-0.8482391597698158
11.96354901,1.7545578460364515,-5.346419349229642,-0.8304973081105778
11.96830385,1.5754603673330463,-5.439036858410615,-0.8087523378098745
11.9730587,1.3887403602260924,-5.512517720472014,-0.7833688091756389
11.97781354,1.1949231979542068,-5.565947978817697,-0.754740357502949
11.98256833,0.9945641132836415,-5.598509918677697,-0.7232848492469748
11.98732318,0.7882435209053718,-5.609491587896136,-0.6894394362035714
11.99207802,0.5765622151771004,-5.598295615162166,-0.653655560591212
11.99683286,0.36013651893824183,-5.564447190963362,-0.6163939632728028
12.00158771,0.13959346016722154,-5.5076010854282975,-0.5781197461115603
12.00634255,-0.08443394663687122,-5.427547589002302,-0.5392975376097732
12.0110974,-0.3113112383559178,-5.32421727641645,-0.5003868086110065
12.01585224,-0.54040678641022,-5.197684511394505,-0.4618373821158084
12.02060708,-0.7710957542145054,-5.04816962862844,-0.4240851783279263
12.02536193,-1.0027636621573253,-4.876039750286655,-0.3875482329615848
12.03011672,-1.234809498662398,-4.681808216153036,-0.35262302349773955
12.03487156,-1.4666483224781057,-4.466132628787953,-0.3196811342861056
12.03962641,-1.6977133093234122,-4.229811537146511,-0.28906628696908787
12.04438125,-1.927457205512177,-3.973779803165925,-0.26109175753313046
12.04913609,-2.155353162200752,-3.6991027152738343,-0.236038195303748
12.05389094,-2.3808949363162304,-3.40696893000359,-0.21415185235890766
12.05864578,-2.603596457719237,-3.098682337498989,-0.19564322414367877
12.06340062,-2.8229907762960296,-2.7756529583761633,-0.180686093602808
12.06815547,-3.0386284169379443,-2.439386988059159,-0.1694169622396416
12.07291026,-3.2500751842059157,-2.091476110287116,-0.16193484316974632
12.0776651,-3.4569094713814983,-1.733586204011709,-0.1583013853799115
12.08241995,-3.6587191401650214,-1.3674455674621355,-0.1585412969873391
12.08717479,-3.855098047277579,-0.9948327801302322,-0.16264303859645887
12.09192964,-4.0456423026739525,-0.6175643185890611,-0.1705597637913046
12.09668448,-4.229946351182408,-0.2374820363841519,-0.1822104893614831
12.10143932,-4.407598975409036,0.14355938743061944,-0.19748148102684848
12.10619417,-4.578179322807416,0.5237049317199195,-0.2162278408378854
12.11094901,-4.7412530637910315,0.9011115538302844,-0.2382752808338198
12.1157038,-4.896368790291393,1.2739602565270787,-0.26342206506722665
12.12045865,-5.043054764807693,1.6404678143401972,-0.2914410997933507
12.12521349,-5.180816128436235,1.9988980761788937,-0.3220821502039768
12.12996833,-5.3091326724673165,2.347572765216748,-0.3550741619196313
12.13472318,-5.427457271881501,2.684881701728847,-0.3901276665741312
12.13947802,-5.5352150705321534,3.0092923799151214,-0.4269372530158902
12.14423286,-5.631803497107123,3.319358835808256,-0.4651840885248815
12.14898771,-5.7165931783205215,3.613729750120375,-0.5045384775549311
12.15374255,-5.788929801394639,3.8911557372669003,-0.5446624484767543
12.15849734,-5.8481369619109635,4.150495779725035,-0.5852123613733358
12.16325224,-5.89352001570479,4.390722775222889,-0.6258415319837636
12.16800703,-5.92437093489378,4.610928172885792,-0.6662028682860985
12.17276188,-5.939974148698394,4.810325683257492,-0.7059515168344058
12.17751672,-5.939613329817567,4.988254055936614,-0.7447475157467356
12.18227156,-5.922579067185442,5.144178927299472,-0.7822584502094964
12.18702641,-5.888177346414928,5.2776937492950005,-0.8181621046570574
12.19178125,-5.835738740651531,5.388519818447869,-0.8521491036132217
12.19653609,-5.764628197492001,5.476505431788116,-0.8839255307807599
12.20129088,-5.674255292635098,5.541624203197587,-0.913215513548884
12.20604573,-5.564084808484163,5.583972579432841,-0.9397637577840934
12.21080057,-5.433647486284365,5.603766599803465,-0.9633380155979139
12.21555542,-5.2825507936368625,5.601337947257605,-0.9837314667063142
12.22031026,-5.110489545330485,5.577129341630526,-1.0007649919855095
12.2250651,-4.917256214214573,5.531689328219463,-1.0142893159163662
12.22981995,-4.702750770095076,5.465666516788842,-1.0241869928670544
12.23457479,-4.466989888154058,5.379803327665662,-1.0303742106790343
12.23932964,-4.210115373983126,5.274929302795501,-1.0328023838762708
12.24408448,-3.9324016598265836,5.1519540405064435,-1.031459508070863
12.24883927,-3.6342622359035652,5.011859813267512,-1.0263712468139603
12.25359411,-3.3162548915726298,4.8556939279179785,-1.0176017222210083
12.25834896,-2.979085653477816,4.684560887668839,-1.00525398113626
12.2631038,-2.6236113215484207,4.49961441462866,-0.9894701093432624
12.26785865,-2.2508405186962466,4.302049390689872,-0.9704309673546079
12.27261349,-1.8619331861294788,4.093093773354759,-0.9483555226449168
12.27736833,-1.4581984732327242,3.8740005415251493,-0.923499754881399
12.28212318,-1.0410909888038218,3.6460397244769283,-0.8961551128379227
12.28687802,-0.6122053989678509,3.4104905652434057,-0.8666465043492588
12.29163281,-0.1732693762183894,3.1686338674937766,-0.8353298039910897
12.29638766,0.2738650762751463,2.9217445727570297,-0.8025888673250731
12.3011425,0.727231880689025,2.6710846125127983,-0.7688320457728581
12.30589734,1.1847626555987871,2.4178960771838454,-0.7344882028154721
12.31065219,1.6442999152778173,2.1633947412630463,-0.7000022406584648
12.31540703,2.1036115886438775,1.9087639804565237,-0.6658301571552607
12.32016188,2.5604067277929117,1.6551491125889177,-0.6324336658948589
12.32491672,3.01235225589869,1.4036521889813314,-0.6002744278665275
12.32967156,3.457090586297079,1.1553272571800905,-0.5698079604788161
12.33442635,3.892257929327111,0.9111761096268362,-0.5414773079450955
12.3391812,4.315503091070723,0.6721445266141596,-0.515706574936999
12.34393604,4.724506558450224,0.43911901615688476,-0.4928944417914606
12.34869088,5.116999658171721,0.21292404859890138,-0.4734077933828466
12.35344573,5.4907835727120196,-0.005680219856715663,-0.45757560382782564
12.35820057,5.843747994739409,-0.21599974273083983,-0.4456832238613761
12.36295542,6.173889201641178,-0.41740790670737316,-0.43796721516535664
12.36771026,6.47932733387094,-0.6093463910405118,-0.4346108647305841
12.3724651,6.758322664773893,-0.7913255696239682,-0.43574049224586375
12.3772199,7.0092906562533654,-0.9629244609926643,-0.4414226358215021
12.38197474,7.230815605436255,-1.1237902308736742,-0.4516621687151661
12.38672958,7.421662703525865,-1.2736372526050834,-0.4664013656253966
12.39148443,7.58078834962294,-1.4122457331392901,-0.4855199051891449
12.39623927,7.707348588806579,-1.5394599165347225,-0.5088357684681898
12.40099411,7.800705573987101,-1.6551858826813175,-0.536106972877437
12.40574896,7.8604319837314796,-1.7593889661919806,-0.5670340671366514
12.4105038,7.886313362386378,-1.8520908285164543,-0.6012633044996403
12.41525865,7.878348383454873,-1.9333662249128432,-0.6383904076637104
12.42001344,7.836747071309092,-2.003339516363936,-0.6779648384625923
12.42476828,7.761927048826947,-2.0621809841616603,-0.7194944878633781
12.42952313,7.654507908339107,-2.110103010955274,-0.7624507060754064
12.43427797,7.51530382943137,-2.147356195854274,-0.80627359789672
12.43903281,7.34531458894618,-2.17422547213674,-0.850377514049937
12.44378766,7.145715125474877,-2.191026293947979,-0.8941566746821676
12.4485425,6.917843832510725,-2.1981009531218363,-0.9369908661529753
12.45329734,6.663189761316429,-2.195815079253649,-0.9782511566848613
12.45805214,6.383378916745967,-2.1845543659271707,-1.0173055806078652
12.46280698,6.080159827128984,-2.1647215541620892,-1.0535247451801661
12.46756182,5.75538856328586,-2.1367336913634465,-1.08628731875334
12.47231667,5.4110133723940566,-2.1010196710351035,-1.114985364631814
12.47707151,5.0490590808289575,-2.058018046027232,-1.1390294911263472
12.48182635,4.671611407777384,-2.008175096839665,-1.1578537942330664
12.4865812,4.280801319878302,-1.9519431270508982,-1.1709205740974866
12.49133604,3.878789547230307,-1.8897789506228353,-1.1777248093611288
12.49609089,3.4677513727872036,-1.8221425308216845,-1.1777983747389709
12.50084568,3.049861799880769,-1.7494957279104915,-1.17071398729596
12.50560052,2.62728119575589,-1.6723011127089087,-1.1560888664760307
12.51035536,2.20214150214549,-1.5910208056446011,-1.1335880924353543
12.51511021,1.7765330967665187,-1.5061153059876855,-1.1029276470310594
12.51986505,1.3524923819532173,-1.418042283286973,-1.0638771223515637
12.5246199,0.931990168234847,-1.327255312021067,-1.0162620833040081
12.52937474,0.5169209113393112,-1.2342025402648655,-0.9599660734919501
12.53412958,0.10909285089076273,-1.1393252927953936,-0.8949322569246185
12.53888443,-0.28978091166502334,-1.043056617732232,-0.8211646912352736
12.54363922,-0.6780903689767697,-0.9458197930586894,-0.7387292303964247
12.54839406,-1.0543355803911558,-0.8480268150373842,-0.6477540560723386
12.55314891,-1.417132652549337,-0.7500768946483924,-0.5484298367419462
12.55790375,-1.7652187262455192,-0.6523549908491811,-0.44100951280735806
12.56265859,-2.0974559733870004,-0.5552304108044737,-0.3258077044865164
12.56741344,-2.412834612377318,-0.4590555073678127,-0.20319973784676915
12.57216828,-2.710474954052349,-0.364164503103588,-0.07362028330773322
12.57692312,-2.98962849386584,-0.27087246810003635,0.0624383993383767
12.58167792,-3.249678069711888,-0.1794744758311813,0.2044286146809106
12.58643276,-3.490137108834637,-0.09024495748336729,0.3517497878830295
12.5911876,-3.7106479918324684,-0.003437270576609418,0.5037514244989936
12.59594245,-3.9109795668275384,0.0807165075114421,0.6597364719805981
12.60069729,-4.0910238523529445,0.16200555624669974,0.8189650773610997
12.60545214,-4.25079197323998,0.240240060080635,0.9806587317014114
12.61020698,-4.390409379556977,0.3152507354903948,1.1440047877046575
12.61496177,-4.510110404243627,0.38688815055188924,1.3081613324618653
12.61971661,-4.610232220298504,0.45502185658308053,1.4722623925869818
12.62447146,-4.691208263038213,0.5195393568377987,1.6354234440573994
12.6292263,-4.75356118690912,0.580344942057585,1.7967471939575461
12.63398115,-4.7978954294666805,0.6373584267558454,1.9553295961226171
12.63873599,-4.824889457317266,0.6905138232673136,2.1102660575095853
12.64349083,-4.835287769941878,0.739757992694629,2.260657787103659
12.64824568,-4.829892737353268,0.785049312784945,2.405618234430616
12.65300047,-4.8095563465254765,0.8263564023748038,2.544279560429048
12.65775531,-4.775171929594044,0.8636569403067212,2.675799079692529
12.66251016,-4.727665944103637,0.896936613657505,2.799365610113975
12.667265,-4.667989872220356,0.9261882258031281,2.914205664058175
12.67201984,-4.597112301928101,0.9514109894404416,3.019589414780703
12.67677469,-4.516011248818578,0.9726100234401457,3.1148363732849482
12.68152953,-4.425666772134418,0.9897960656094925,3.199320714246257
12.68628438,-4.327053933230254,1.0029854063780788,3.2724761947375725
12.69103917,-4.221136138675981,1.0122000413392822,3.3338006157786686
12.69579401,-4.10885890404853,1.0174680337258133,3.3828597837591654
12.70054885,-3.9911440682877726,1.018824071514648,3.4192909362303436
12.7053037,-3.8688844825096775,1.016310198180602,3.442805604158014
12.71005854,-3.742939191433478,1.0099766913473192,3.453191890225416
12.71481339,-3.6141291200431533,0.9998830598429895,3.4503161499572537
12.71956823,-3.4832332726973876,0.9860991269904477,3.434124069175284
12.72432307,-3.3509854466094264,0.9687061663144322,3.404641137548076
12.72907786,-3.218071456488908,0.9477980551595389,3.3619725237611404
12.73383271,-3.085126862254026,0.9234824118794661,3.3063023631151816
12.73858755,-2.9527351871667356,0.8958816831601084,3.2378924731622627
12.7433424,-2.821426609593642,0.8651341495481917,3.1570805173068086
12.74809724,-2.691677107927119,0.8313948192502169,3.0642776401175897
12.75285208,-2.5639080350870525,0.7948361826301155,2.9599656014045177
12.75760693,-2.4384860965255686,0.7556488024737267,2.8446934389083705
12.76236172,-2.3157237038228353,0.7140417179384342,2.7190736917509577
12.76711656,-2.1958796748083755,0.6702426431284293,2.5837782186349365
12.77187141,-2.079160250631782,0.6244979444036277,2.439533646210367
12.77662625,-1.9657204002471316,0.5770723838126196,2.2871164840703644
12.78138109,-1.8556653832577152,0.5282486193927265,2.127347943506359
12.78613594,-1.7490525429109058,0.4783264564466214,1.9610884974333773
12.79089078,-1.6458933021965025,0.42762184722892577,1.7892322187861935
12.79564562,-1.5461553374640586,0.3764656397164114,1.6127009342230525
12.80040042,-1.449764905712196,0.32520207926834205,1.4324382292449818
12.80515526,-1.3566093036843858,0.2741870699918509,1.2494033399972861
12.8099101,-1.266539439077126,0.22378620548581463,1.06456496625329
12.81466495,-1.1793724964286494,0.17437258130786423,0.8788950395565309
12.81941979,-1.0948946824756938,0.12632440394969957,0.69336248031831
12.82417464,-1.0128640378274227,0.08002241327945925,0.508926977861377
12.82892948,-0.9330133036538163,0.03584713730313293,0.3265328279390176
12.83368427,-0.8550528337114749,-0.005824000272321174,0.14710286307391107
12.83843911,-0.7786735434277486,-0.04461969778801118,-0.028467487936573558
12.84319396,-0.7035498889144696,-0.0801778956033021,-0.1993159739039466
12.8479488,-0.6293428696673103,-0.11214897417519212,-0.36461908996245207
12.85270365,-0.5557030493313995,-0.1401990052841411,-0.5235974014890221
12.85745849,-0.4822735893059896,-0.16401303074079734,-0.6755205826398533
12.86221333,-0.40869329015689965,-0.18329834232671785,-0.8197121280981453
12.86696813,-0.33459963584718355,-0.19778773624055612,-0.9555536960181289
12.87172297,-0.2596318357376888,-0.2072427149258622,-1.0824890398196854
12.87647781,-0.18343385920969427,-0.21145660884128423,-1.2000274865169394
12.88123266,-0.10565745766883472,-0.21025759049806658,-1.307746919726859
12.8859875,-0.025965168622876234,-0.20351155293741519,-1.4052962264509223
12.89074234,0.05596670351936821,-0.1911248247591712,-1.4923971681817076
12.89549719,0.14044513532010391,-0.17304669385702362,-1.568845638871857
12.90025198,0.22775746629968244,-0.1492717121908273,-1.6345122748338965
12.90500682,0.31816852058607453,-0.11984175427974623,-1.6893423848159803
12.90976167,0.41191777403715674,-0.08484780270423947,-1.7333551727958179
12.91451651,0.5092165733254518,-0.04443143486576285,-1.7666422327548756
12.91927135,0.6102454150143484,0.001214013323734535,-1.7893653058839762
12.9240262,0.7151512955345686,0.05184262925346195,-1.801753307853344
12.92878104,0.8240451473173093,0.10715547114495808,-1.8040986563088266
12.93353589,0.9369993816301261,0.16680049925033436,-1.7967529535078401
12.93829068,1.0540455638870887,0.2303729065228145,-1.7801221017843456
12.94304552,1.1751722514043859,0.29741586258541386,-1.7546609468632348
12.94780036,1.3003230262226315,0.36742168294993505,-1.7208675542305816
12.95255521,1.4293947566894791,0.4398334336022271,-1.679277226948989
12.95731005,1.5622361213245133,0.5140469792086053,-1.6304563708646809
12.9620649,1.698646427564585,0.5894134812409151,-1.5749963068624462
12.96681974,1.838374756737667,0.6652423501758699,-1.5135071212609268
12.97157453,1.981119465249594,0.7408046534961611,-1.4466116357714134
12.97632938,2.126528070479124,0.8153369784040676,-1.3749395684565777
12.98108422,2.274197548098406,0.8880457448768503,-1.2991219473056188
12.98583906,2.4236750652338457,0.9581119609233607,-1.2197858286301182
12.99059391,2.5744591708247273,1.024696407678002,-1.1375493635347045
12.99534875,2.7260014605566223,1.086945237369922,-1.0530172471693566
13.00010354,2.8777087287790417,1.1439959623268865,-0.9667765772449534
13.00485838,3.028945613908521,1.194983808102224,-0.8793931403651504
13.00961323,3.1790377371173024,1.2390483986242982,-0.7914081371561447
13.01436807,3.3272753268434663,1.2753407360351667,-0.703335350097313
13.01912292,3.472917314113719,1.3030304326935147,-0.6156587515749219
13.02387776,3.6151958761544756,1.3213131477583837,-0.528830544288305
13.0286326,3.7533213985972824,1.3294181759247348,-0.44326962208555726
13.03338745,3.886487820056456,1.3266161313027842,-0.35936043684842905
13.03814224,4.013878317190786,1.3122266651499581,-0.2774522560849263
13.04289708,4.134671283649851,1.2856261522069703,-0.19785879585262978
13.04765193,4.248046552502482,1.2462552768171347,-0.1208582136806381
13.05240677,4.353191808710821,1.1936264469190871,-0.046693445561506335
13.05716161,4.449309135793025,1.1273309615117177,0.02442713045040908
13.06191646,4.535621638894668,1.0470458553854969,0.09232872382054717
13.06667125,4.611380084983489,0.9525403438386574,0.15686887679388906
13.07142609,4.675869499710691,0.8436817897590188,0.21793595053552486
13.07618094,4.728415659534402,0.7204411158603459,0.275447379823903
13.08093578,4.7683914168670904,0.5828975860385741,0.3293477261777835
13.08569063,4.795222795236558,0.43124288178328424,0.37960656135201776
13.09044547,4.808394790798861,0.2657844023469751,0.4262162151572926
13.09520031,4.8074568161924125,0.08694772090934438,0.46918942359034727
13.0999551,4.79202772293764,-0.10472186677281985,0.5085569152186812
13.10470995,4.76180033963578,-0.3085587598054201,0.5443649753914528
13.10946479,4.716545465325126,-0.5237774886504583,0.5766730286998462
13.11421964,4.656115260666963,-0.7494742173089352,0.6055512796229877
13.11897448,4.5804459842311696,-0.984629350693107,0.631078449026657
13.12372932,4.489560026988657,-1.2281112785853947,0.6533396401126168
13.12848417,4.3835672050041055,-1.4786812782907621,0.672424362061285
13.13323896,4.2626652779733245,-1.7349995873811772,0.6884247337775271
13.1379938,4.12713966941229,-1.9956326456493008,0.7014338845012514
13.14274865,3.977362372868694,-2.2590614915101153,0.7115445627720675
13.14750349,3.813790037535851,-2.52369128272515,0.7188479600628231
13.15225833,3.636961236196496,-2.7878618946874605,0.7234327499301718
13.15701318,3.4474929284919877,-3.0498595318819706,0.7253843377469001
13.16176797,3.246076142882778,-3.3079292698750313,0.7247843105256271
13.16652281,3.033470910995408,-3.560288426707183,0.7217100718575516
13.17127766,2.8105004980408532,-3.80514064435175,0.716234644199496
13.1760325,2.578044982490933,-4.04069054351199,0.7084266197450252
13.18078734,2.3370342471820424,-4.2651587990629745,0.6983502415350556
13.18554219,2.088440452453859,-4.476797469515104,0.686065597709349
13.19029703,1.8332700697273188,-4.673905402557398,0.6716289133071129
13.19505182,1.572555560898853,-4.854843530523016,0.6550929253943809
13.19980667,1.3073467948519422,-5.0180498649071374,0.636507328346872
13.20456151,1.038702297071832,-5.162053998164592,0.615919276855831
13.20931635,0.7676804317107151,-5.28549092411093,0.5933739347661526
13.2140712,0.4953306175340405,-5.387113995384475,0.5689150583448315
13.21882604,0.22268468011579198,-5.465806847486792,0.5425856031231027
13.22358083,-0.04925155742425762,-5.520594133698359,0.5144283440923372
13.22833568,-0.31950634388006965,-5.550650933417232,0.48448649972362673
13.23309052,-0.5871496303931355,-5.555310717883192,0.4528043509620938
13.23784536,-0.8513001657840523,-5.534071781384151,0.4194278469951558
13.24260021,-1.1111319650260136,-5.486602072260248,0.3844051902590116
13.24735505,-1.3658800646130345,-5.4127423855081815,0.34778739395879066
13.2521099,-1.6148454852861758,-5.312507906601178,0.3096288065241277
13.25686469,-1.8573993305594292,-5.186088123271162,0.2699875991039859
13.26161953,-2.092985958836101,-5.033845147445195,0.2289262145752036
13.26637438,-2.3211251776822173,-4.856310512382231,0.18651177966109397
13.27112922,-2.541413420953756,-4.654180529606119,0.1428164855117743
13.27588406,-2.7535238827800423,-4.428310305993408,0.09791794590721296
13.28063885,-2.9572055967006685,-4.179706533070951,0.051899544778632664
13.2853937,-3.152281463368737,-3.9095191681476273,0.004850784341799355
13.29014854,-3.338645245904624,-3.6190321306251803,-0.043132358900444284
13.29490339,-3.516257567766898,-3.309653137423298,-0.09194706953292466
13.29965823,-3.685140963367295,-2.9829027999431434,-0.1414833258972662
13.30441307,-3.845374046166904,-2.6404031023875354,-0.1916235409782363
13.30916792,-3.9970848724215453,-2.2838653782471967,-0.24224222524356626
13.31392271,-4.140443590984509,-1.9150778986604189,-0.293205686261157
13.31867755,-4.275654480502056,-1.5358931831943217,-0.34437178005844343
13.3234324,-4.402947484782627,-1.148215140292088,-0.39558972902918454
13.32818724,-4.522569364930651,-0.7539861410720204,-0.4467000211104415
13.33294208,-4.634774592939755,-0.35517412625965245,-0.4975344050853707
13.33769693,-4.739816115871284,0.046240158279896026,-0.5479159971770283
13.34245172,-4.837936122617283,0.44827570670071837,-0.5976595144067849
13.34720656,-4.929356946710543,0.8489634935278568,-0.6465716502133221
13.35196141,-5.014272238816427,1.2463583293473302,-0.694451607233279
13.35671625,-5.092838541461509,1.6385502580202047,-0.741091800651246
13.36147109,-5.165167396187918,2.023675428001537,-0.7862787430023589
13.36622594,-5.2313181096163195,2.399926377054827,-0.8297941178066807
13.37098073,-5.291291299832166,2.7655616766371436,-0.8714160451127534
13.37573557,-5.345023338074006,3.11891488944048,-0.9109205371576353
13.38049042,-5.392381792853244,3.458402800945808,-0.948083137153045
13.38524526,-5.4331619742606145,3.782532893293878,-0.9826807289508843
13.3900001,-5.4670846651852045,4.089910037206016,-1.0144935003516133
13.39475495,-5.493795113400005,4.379242385009402,-1.043307038475655
13.39950974,-5.512863343933509,4.649346454965462,-1.0689145322968767
13.40426458,-5.5237858348957385,4.899151404021683,-1.0911190553880055
13.40901943,-5.52598858208634,5.127702492779605,-1.109735901147811
13.41377427,-5.518831558515458,5.334163752877181,-1.1245949429780457
13.41852911,-5.501614554760073,5.517819873105017,-1.1355429925708214
13.42328396,-5.473584365282114,5.678077326393908,-1.1424461301517672
13.42803875,-5.433943264897213,5.8144647653029695,-1.1451919808381397
13.43279359,-5.381858698936338,5.926632718768605,-1.1436919110636603
13.43754844,-5.316474090704223,6.014352627575853,-1.1378831183342863
13.44230328,-5.236920651040715,6.077515260159205,-1.1277305865730785
13.44705813,-5.142330057594262,6.116128553748679,-1.1132288781929298
13.45181297,-5.031847856252321,6.130314928359658,-1.0944037329860647
13.45656776,-4.9046474243344145,6.120308122557406,-1.0713134430678528
13.4613226,-4.759944324729057,6.0864496002889545,-1.044049972559411
13.46607745,-4.59701087208088,6.029184577434283,-1.0127397905719056
13.47083229,-4.415190726308828,5.949057715199352,-0.9775443865802805
13.47558714,-4.213913325116178,5.846708525180069,-0.9386604387370809
13.48034198,-3.9927079657698,5.722866527982769,-0.8963196083750501
13.48509677,-3.7512173473536987,5.578346203792664,-0.8507879380598279
13.48985161,-3.4892103880113328,5.414041769332672,-0.8023648360400294
13.49460646,-3.2065941374026594,5.230921811363998,-0.7513816365302145
13.4993613,-2.9034246126411403,5.030023802393688,-0.6981997325308715
13.50411615,-2.5799163961588367,4.812448519756248,-0.6432082853650379
13.50887094,-2.2364508460202392,4.579354384929953,-0.5868215223515477
13.51362578,-1.8735827829220284,4.331951736032145,-0.5294756406974315
13.51838062,-1.492045533302318,4.071497043078093,-0.47162534158055014
13.52313547,-1.0927542245454311,3.7992870729039914,-0.4137400234681438
13.52789031,-0.6768072461524902,3.516653008710564,-0.3562996680594624
13.53264516,-0.24548580987942678,3.2249545279908634,-0.2997904559993874
13.53739995,0.19974843791037283,2.9255738421281317,-0.24470015285974805
13.54215479,0.6572577772630287,2.619909701113815,-0.1915133090083273
13.54690964,1.1252347527444522,2.309371367541557,-0.1407063200536089
13.55166448,1.601710470074946,1.995372565172077,-0.09274239770480015
13.55641932,2.08456481028448,1.679325408848507,-0.04806650422458084
13.56117417,2.571538498115669,1.3626343243237549,-0.007100307263985726
13.56592896,3.060246939577664,1.0466899686244744,0.02976278416447717
13.5706838,3.548195722394572,0.7328631639199031,0.06216243747769681
13.57543865,4.032797652768904,0.4224988605033828,0.08977599841605069
13.58019349,4.511391182553936,0.11691014746975371,0.11232280301708916
13.58494833,4.981260062747558,-0.1826276669539332,0.12956812216950725
13.58970318,5.43965404229587,-0.47488287962771286,0.14132665952080617
13.59445797,5.883810415599415,-0.7586730911389955,0.1474655244359765
13.59921281,6.310976207926567,-1.0328707439844018,0.1479066060603841
13.60396766,6.718430775330109,-1.2964084604969732,0.1426282827851619
13.6087225,7.10350858501872,-1.5482841361024766,0.13166641350177788
13.61347734,7.463621934143871,-1.787565739783844,0.11511457236292195
13.61823214,7.796283360578918,-2.0133957714665,0.09312350631114334
13.62298698,8.099127499425867,-2.224995325844222,0.06589981320607487
13.62774182,8.369932144156618,-2.4216677140644536,0.0337038569157031
13.63249667,8.606638281244175,-2.602801598515384,-0.003153046552449336
13.63725151,8.80736888114095,-2.767873601405124,-0.04431212151587754
13.64200635,8.970446245721464,-2.916450354603952,-0.08937123899253538
13.64676115,9.094407732161446,-3.048189966066081,-0.13788956044484915
13.65151599,9.17801969508094,-3.1628428867473564,-0.1893926332800818
13.65627083,9.22028951203009,-3.2602521708849235,-0.24337784629458728
13.66102568,9.220475581415851,-3.3403531313095813,-0.2993201498065904
13.66578052,9.178095206132843,-3.403172399589958,-0.35667794431377325
13.67053531,9.09293029990888,-3.4488264077790887,-0.41489904283448364
13.67529016,8.965030876287237,-3.4775193140101703,-0.47342661526031377
13.680045,8.794716302038909,-3.4895403980302793,-0.5317050276394066
13.68479984,8.582574317645024,-3.485260955048606,-0.5891854949393177
13.68955469,8.329457847515393,-3.4651307173145005,-0.6453314722150016
13.69430948,8.036479642138216,-3.429673833141158,-0.6996237160471651
13.69906432,7.705004813704485,-3.379484433279286,-0.7515649555290566
13.70381917,7.3366413460443205,-3.315221815210973,-0.8006841199406747
13.70857401,6.933228678768543,-3.237605277494921,-0.8465400785431944
13.71332885,6.4968244838921825,-3.1474086389308225,-0.8887248565855167
13.7180837,6.029689770396401,-3.045454480937085,-0.9268663004969406
13.72283849,5.534272467619377,-2.93260815578881,-0.9606301742143526
13.72759333,5.013189651519591,-2.8097716076899037,-0.9897216777709597
13.73234818,4.4692085883043005,-2.677877057543438,-1.013886389235194
13.73710302,3.9052267775312126,-2.5378806054644505,-1.0329106427260277
13.74185786,3.32425118174914,-2.3907558074723587,-1.046621369034202
13.74661266,2.7293768323203897,-2.2374872843196703,-1.054885440601567
13.7513675,2.1237650014697618,-2.0790644208574443,-1.0576085771447856
13.75612234,1.510621129017692,-1.9164752134783287,-1.054733879471446
13.76087719,0.8931726889719444,-1.750700320905559,-1.0462400652179187
13.76563203,0.27464717656183363,-1.5827073699670378,-1.0321394809627926
13.77038688,-0.3417496092718729,-1.4134455631704932,-1.012475961260271
13.77514167,-0.9528548193324252,-1.2438406290639121,-0.9873225979706383
13.77989651,-1.5555691822652464,-1.0747901496951004,-0.9567794742423489
13.78465135,-2.146876854264297,-0.9071592921605447,-0.9209714077799196
13.7894062,-2.723864346603817,-0.7417769635006838,-0.8800457384424407
13.79416104,-3.2837383973510135,-0.5794324003441965,-0.8341701863165734
13.79891583,-3.823842664525983,-0.42087219698858297,-0.7835307985987293
13.80367068,-4.3416731296167566,-0.26679776820319673,-0.7283299971981518
13.80842552,-4.834892112718843,-0.11786323604600436,-0.6687847340734078
13.81318036,-5.301340813552232,0.025326276547288706,-0.6051247578894178
13.81793521,-5.739050306018058,0.16221596864731083,-0.5375909934318898
13.82269005,-6.146250927632148,0.2923023293112264,-0.4664340340465264
13.82744484,-6.521380019126649,0.4151337838924243,-0.3919127468317681
13.83219969,-6.863087983947181,0.5303110555604189,-0.31429299005574296
13.83695453,-7.17024265256266,0.6374872813368917,-0.23384644201180474
13.84170938,-7.441931952556601,0.7363679228664745,-0.1508495401227847
13.84646422,-7.677464902126795,0.8267105112926858,-0.06558252854739005
13.85121901,-7.876370961285159,0.9083242628696069,0.02167138806625723
13.85597385,-8.038397791019532,0.9810695973360007,0.11062678757815278
13.8607287,-8.163507485403594,1.0448575848024442,0.20099667343816802
13.86548354,-8.251871354830884,1.0996493393013809,0.2924930215835941
13.87023838,-8.303863350137533,1.145455368714252,0.3848272354119316
13.87499318,-8.320052227385421,1.1823348821094968,0.47771051393558067
13.87974802,-8.301192561470508,1.2103950472036997,0.5708541395188678
13.88450286,-8.248214723375185,1.2297901832143259,0.6639696933725555
13.88925771,-8.162213940659944,1.2407208682035975,0.7567692092203002
13.89401255,-8.044438563656849,1.2434329354123363,0.8489652782042191
13.89876734,-7.896277660924498,1.2382163302366804,0.9402711210112209
13.90352219,-7.719248067115167,1.225403798450252,1.030400646084252
13.90827703,-7.514981004770506,1.205369376900558,1.1190685152651372
13.91303188,-7.285208398926322,1.1785266599797848,1.2059902399652451
13.91778672,-7.0317489999343294,1.1453268184212935,1.2908823317411489
13.92254156,-6.756494425732417,1.1062563511694148,1.3734625308432893
13.92729635,-6.461395230022411,1.0618345560369906,1.4534501348995845
13.9320512,-6.148447097511404,1.0126107104777131,1.5305664474907295
13.93680604,-5.819677261562581,0.9591609599471016,1.6045353631446908
13.94156089,-5.4771312332976425,0.9020849178766736,1.675084101431148
13.94631568,-5.122859924439237,0.8420019880822791,1.741944098563753
13.95107052,-4.758907239060196,0.7795474272873276,1.8048520603712899
13.95582536,-4.38729820201125,0.7153681721634088,1.86355117579266
13.96058021,-4.010027684206143,0.6501184616651838,1.9177924852761883
13.96533505,-3.629049777197292,0.5844552912657829,1.9673363937044717
13.97008984,-3.2462678615984704,0.5190337408163346,2.0119543128091806
13.97484469,-2.8635254059283466,0.4545022220306836,2.0514304135803387
13.97959953,-2.482597524411989,0.3914976949438223,2.0855634650147685
13.98435438,-2.1051833142759406,0.33064090505476273,2.1141687318091003
13.98910922,-1.7328989852287033,0.2725316942157181,2.137079900427969
13.99386406,-1.367271786274545,0.21774443866000423,2.15415100051551
13.99861885,-1.0097347279055746,0.16682366685990785,2.1652582869773043
14.0033737,-0.6616220911763973,0.12027990815582379,2.1703020472860617
14.00812854,-0.3241657092786398,0.07858582029305604,2.169208298657306
14.01288338,0.0015079979406288032,0.042172640170482306,2.1619303406883907
14.01763818,0.31438026050258056,0.011426997319250606,2.148450130840247
14.02239302,0.6135414935350607,-0.013311875990419863,2.1287794527363695
14.02714786,0.8981921618651703,-0.03175451041165824,2.1029608506014994
14.03190271,1.1676430068936237,-0.043663120139607436,2.0710683071764087
14.03665755,1.4213146703484636,-0.048853064773814715,2.0332076470067344
14.04141234,1.6587367506445392,-0.04719384594507792,1.9895166519608802
14.04616719,1.879546328244391,-0.03860963941332508,1.940164880991159
14.05092203,2.083485996698746,-0.023079370288541894,1.8853531912807882
14.05567688,2.270401436001155,-0.0006363455327188057,1.8253129627845892
14.06043172,2.440238564573023,0.028632536213248343,1.7603050326081873
14.06518656,2.593040305648597,0.06458797231331781,1.6906183496183196
14.06994135,2.7289430030912323,0.10703981192617644,1.6165683631509058
14.0746962,2.8481725207586757,0.15574894722260912,1.5384951627154273
14.07945104,2.9510400584327448,0.21042950508544064,1.4567613881961163
14.08420589,3.037937715999352,0.2707513030756405,1.3717499322183517
14.08896068,3.1093338359662206,0.33634253311288104,1.2838614580788457
14.09371552,3.165768152522898,0.4067926368286821,1.1935117579394605
14.09847036,3.207846773215186,0.48165533778807673,1.1011289768814765
14.10322521,3.2362370170079218,0.560451797604506,1.0071507289453188
14.10798005,3.2516621301615554,0.6426738652430503,0.9120211314804031
14.11273484,3.254895899073763,0.727787391359616,0.8161877840505573
14.11748969,3.2467571771538455,0.815235582190159,0.7200987178502297
14.12224453,3.2281043410052757,0.9044423701180033,0.6241993411648548
14.12699938,3.1998296897741976,0.9948157804626733,0.5289294059227053
14.13175422,3.1628538005471647,1.0857512761433012,0.4347200198695303
14.13650901,3.118119852193564,1.176635063617601,0.3419907283474074
14.14126385,3.066587930046112,1.2668473448786972,0.2511466890444772
14.1460187,3.0092293242423387,1.3557655013429408,0.1625759623653437
14.15077354,2.9470208353238974,1.442767196249506,0.07664693923357592
14.15552838,2.8809391017067516,1.5272333828136515,-0.006294072801467315
14.16028318,2.811954964762801,1.6085512059575946,-0.08592508524497196
14.16503802,2.7410278883203554,1.6861167861359325,-0.16195046708310407
14.16979286,2.6691004502202476,1.759337874723684,-0.2341027675818589
14.17454771,2.5970929240404153,1.8276363717546562,-0.30214430554792343
14.17930255,2.525897969212502,1.8904506985273553,-0.3658685075284214
14.18405734,2.4563754475867206,1.9472380196890897,-0.42510097794540164
14.18881219,2.3893473841997084,1.9974763117467689,-0.47970028500627104
14.19356703,2.325593089710387,2.0406662773896604,-0.5295584475220663
14.19832188,2.265844461806882,2.076333107421391,-0.5746011095414755
14.20307667,2.2107814829380295,2.1040280944034246,-0.6147873919744047
14.20783151,2.1610279320560943,2.123330104262233,-0.6501094132127561
14.21258635,2.117147328748094,2.1338469140738603,-0.6805914745285461
14.2173412,2.079639129259397,2.1352164259697237,-0.706288911567806
14.22209604,2.0489351954988906,2.1271077685535587,-0.7272866214790369
14.22685083,2.0253965600387764,2.1092222983690316,-0.743697286102894
14.23160568,2.009310512092091,2.08129451489825,-0.755659323547689
14.23636052,2.000888031116572,2.0430929034705207,-0.763334610768006
14.24111536,2.000261595822268,1.9944207214544631,-0.766906026472411
14.24587021,2.007483396934544,1.9351167442020198,-0.766574866368654
14.250625,2.0225239822248198,1.865055988276701,-0.7625581821208591
14.25537984,2.0452713622202405,1.7841504303044988,-0.7550860924727817
14.26013469,2.075530604685057,1.692349740074987,-0.7443991106668862
14.26488953,2.113023945346413,1.589642046062523,-0.7307455272273837
14.26964438,2.157391441242315,1.4760547501908814,-0.7143788818925788
14.27439917,2.2081921912802307,1.3516554063982085,-0.695555553412198
14.27915401,2.2649061458905715,1.2165526744338142,-0.674532491448107
14.28390885,2.326936523893357,1.070897356445761,-0.6515651112005327
14.2886637,2.3936128498791764,0.9148835194258522,-0.6269053686609517
14.29341849,2.464194619734137,0.7487497015887223,-0.6008000322747789
14.29817333,2.5378755957237145,0.5727801953751847,-0.5734891647147945
14.30292818,2.613788726074302,0.3873063940495865,-0.5452048258010274
14.30768302,2.691011677393199,0.19270818282845453,-0.5161700039646036
14.31243786,2.768572961535828,-0.010584650860278442,-0.48659777904319723
14.31719266,2.845458631568948,-0.2220910200003536,-0.4566907139731893
14.3219475,2.920619514182668,-0.44127719230325313,-0.42664046766964925
14.32670234,2.9929789381847427,-0.6675555418453383,-0.3966276166583274
14.33145719,3.0614409105190643,-0.9002834502388923,-0.36682166935116634
14.33621203,3.124898682598938,-1.1387624155692615,-0.33738125454402146
14.34096682,3.182243640754257,-1.3822374323892002,-0.30845446474616234
14.34572167,3.232374445557637,-1.6298967097290673,-0.2801793348950188
14.35047651,3.274206336219436,-1.8808717959316315,-0.25268443709648053
14.35523135,3.306680508723475,-2.134238178797575,-0.22608957149133765
14.35998615,3.328773470423517,-2.389016426831959,-0.20050653185145184
14.36474099,3.3395062697623588,-2.6441739323306415,-0.17603992236242375
14.36949583,3.337953497824894,-2.8986273098701845,-0.152788000033297
14.37425068,3.3232519588078615,-3.1512454948336712,-0.13084351620452295
14.37900552,3.294608909399536,-3.400853576320043,-0.11029453143271573
14.38376031,3.251309772580966,-3.6462373874943017,-0.09122518085668954
14.38851516,3.1927252392166032,-3.8861488643830757,-0.07371637153044844
14.39327,3.1183176803718577,-4.11931217144144,-0.05784639807272811
14.39802484,3.0276468038532367,-4.344430579000228,-0.04369146713466851
14.40277969,2.9203744995244936,-4.560194064067927,-0.03132612387148817
14.40753448,2.7962688293868583,-4.765287592106602,-0.020823574738260648
14.41228932,2.65520713030967,-4.958400023592522,-0.012255900947641821
14.41704417,2.4971782096767314,-5.138233575689678,-0.005694156464510543
14.42179901,2.322283626817259,-5.303513756462761,-0.0012083440539912647
14.42655385,2.1307380653660353,-5.452999676959508,0.0011327369514326664
14.43130865,1.922868812962604,-5.585494635415872,0.0012617766443050592
14.43606349,1.6991143744038322,-5.699856858003987,-0.0008866218363104735
14.44081833,1.460022252289905,-5.79501027217824,-0.005375379509134861
14.44557318,1.2062459354877604,-5.869955181993874,-0.012264240978727152
14.45032797,0.9385411407354557,-5.923778709970223,-0.021608940882813416
14.45508281,0.6577613568344093,-5.955664867322598,-0.03346024578759916
14.45983766,0.3648527444874616,-5.96490411385927,-0.0478628836035482
14.4645925,0.06084844824495385,-5.950902270695776,-0.06485437606398496
14.46934729,-0.2531376195386896,-5.913188653321064,-0.08446379297045462
14.47410214,-0.5759174592347678,-5.851423299552023,-0.10671044966080641
14.47885698,-0.9062360617573417,-5.765403176562952,-0.13160257141494922
14.48361182,-1.242778812934758,-5.655067263437003,-0.15913595021238836
14.48836667,-1.5841791506970428,-5.520500420434814,-0.18929262035953962
14.49312146,-1.9290263992287973,-5.361935973160991,-0.22203958003070634
14.4978763,-2.275873703335252,-5.179756958631698,-0.25732758578741965
14.50263115,-2.6232459868295397,-4.974496000373599,-0.2950900467438913
14.50738599,-2.9696478609284735,-4.746833800489033,-0.3352420442623258
14.51214083,-3.313571412479469,-4.497596257447217,-0.3776795018237988
14.51689562,-3.6535038073073633,-4.2277502385996115,-0.42227852788017006
14.52165047,-3.98793465103984,-3.938398055562649,-0.4688949518614477
14.52640531,-4.315363058351821,-3.6307707082405876,-0.517364069904001
14.53116016,-4.63430439138467,-3.3062199790002795,-0.5675006121275256
14.53591495,-4.943296638664643,-2.966209472026558,-0.6190989373875506
14.54066979,-5.240906416594461,-2.6123047038935012,-0.671933454796346
14.54542464,-5.525734586020128,-2.2461623596134714,-0.7257592653742645
14.55017948,-5.796421486148212,-1.869518833659191,-0.7803130141108132
14.55493432,-6.051651796978723,-1.48417817773139,-0.8353139436105474
14.55968911,-6.290159049197204,-1.0919995768659556,-0.8904651440670054
14.56444396,-6.510729806975722,-0.694884473755411,-0.9454549977166065
14.5691988,-6.7122075544232125,-0.2947634588829812,-0.999958817060023
14.57395365,-6.8934963207147675,0.1064169580941354,-1.0536406746750537
14.57870844,-7.053564082330838,0.5067075821146351,-1.1061554192721974
14.58346328,-7.191445983219904,0.9041696597256957,-1.1571508689282952
14.58821813,-7.306247414781152,1.2968877893322943,-1.2062701691122124
14.59297297,-7.397146997105025,1.6829825072152995,-1.2531543007454837
14.59772776,-7.4633995008331055,2.060622445385987,-1.297444722264594
14.6024826,-7.504338745419024,2.428035962118565,-1.3387861292430454
14.60723745,-7.519380504732392,2.783522152101904,-1.3768293151296067
14.61199229,-7.508025445118709,3.1254611505345786,-1.4112341165746771
14.61674714,-7.4698621144232895,3.452323654029898,-1.4416724263087033
14.62150193,-7.4045699932304245,3.762679590730224,-1.4678312554805388
14.62625677,-7.31192261171393,4.055205882357174,-1.4894158258060175
14.63101161,-7.191790727062883,4.328693251844877,-1.506152669942365
14.63576646,-7.044145547453659,4.582052041523903,-1.5177927163289036
14.64052125,-6.869061979020218,4.814317018356167,-1.5241143324453532
14.64527609,-6.6667218623030085,5.024651154276683,-1.5249262981415517
14.65003094,-6.437417154365578,5.212348381086355,-1.5200706784549585
14.65478578,-6.181553002351561,5.376835330376305,-1.5094255631880433
14.65954057,-5.899650643962612,5.517672079472052,-1.4929076384977826
14.66429542,-5.592350060486085,5.634551934189665,-1.4704745539206177
14.66905026,-5.260412299016864,5.727300288107869,-1.442127046732832
14.6738051,-4.904721372964859,5.795872605879766,-1.407910784475751
14.67855995,-4.526285644443378,5.8403515846599445,-1.3679178860031251
14.68331474,-4.12623858921142,5.860943552913162,-1.3222880816377474
14.68806958,-3.705838844769214,5.857974169717349,-1.2712094739947704
14.69282443,-3.2664694450080485,5.831883490288014,-1.214918862725354
14.69757927,-2.809636150363631,5.783220464997572,-1.1537015988190054
14.70233406,-2.3369647905253186,5.7126369398191255,-1.0878909371551346
14.70708891,-1.8501975472130485,5.6208812260477155,-1.0178668597384959
14.71184375,-1.351188117168875,5.508791306458147,-0.9440543465566323
14.71659859,-0.8418957101528884,5.377287743817404,-0.8669210763267632
14.72135338,-0.3243778532020138,5.227366355929687,-0.7869745455693686
14.72610823,0.19921800951430832,5.060090719205709,-0.7047586014110676
14.73086307,0.726664112475099,4.876584560175372,-0.6208493912290731
14.73561792,1.255663130933359,4.678024091455292,-0.5358507407353634
14.74037271,1.7838600587847293,4.465630345458523,-0.4503889815654133
14.74512755,2.3088551299615525,4.2406615555712355,-0.36510726030703045
14.7498824,2.828217689970019,4.004405630576302,-0.2806593737302784
14.75463724,3.3395009044313086,3.7581727637487385,-0.19770319013109736
14.75939203,3.8402571739997833,3.503288213296282,-0.11689373394876718
14.76414688,4.328054110335001,3.241085285730658,-0.0388760290942628
14.76890172,4.800490916062338,2.9728985484752593,0.03572218599200602
14.77365656,5.25521500275817,2.7000572928581352,0.10629774357458051
14.77841141,5.6899386745928595,2.4238792641361404,0.17227919358601912
14.7831662,6.102455700811641,2.1456646719638015,0.23313366902095145
14.78792104,6.490657597164205,1.866690493182971,0.28837332875662697
14.79267589,6.852549434440001,1.5882050789440216,0.33756124678337196
14.79743073,7.186264991727009,1.3114230794457096,0.38031663431077106
14.80218557,7.490081073784941,1.0375207011289307,0.4163193049415988
14.80694036,7.762430817226503,0.7676313120670101,0.44531332092254505
14.81169521,8.001915820062402,0.5028414108673969,0.4671097876663769
14.81645005,8.207316943950419,0.24418697228383235,0.4815887914116753
14.8212049,8.377603657704022,-0.0073498210729208546,0.48870049852389885
14.82595969,8.511941813091944,-0.25084345676697956,0.488465452931764
14.83071453,8.609699768281068,-0.4854275823394566,0.4809741201217699
14.83546938,8.670452799251061,-0.7102971155261191,0.466385732649253
14.84022422,8.693985764443939,-0.9247099901028736,0.4449264945743376
14.84497901,8.680294012532205,-1.1279885587049974,0.4168872020083457
14.84973385,8.62958254735161,-1.3195206793586807,0.38262033519551847
14.8544887,8.542263487459909,-1.4987605168007598,0.3425366750024885
14.85924354,8.418951879924897,-1.6652290925641562,0.29710149379873785
14.86399833,8.26045994813613,-1.8185146188547525,0.24683036779201137
14.86875318,8.067789871021404,-1.9582726500864647,0.1922846551702223
14.87350802,7.842125205556444,-2.084226082381468,0.13406668207662412
14.87826286,7.584821075641058,-2.1961650253814056,0.07281467663139518
14.88301766,7.2973932582153935,-2.293946562531445,0.009197489979813999
14.8877725,6.981506301976019,-2.3774944059512353,-0.056090857295880814
14.89252734,6.638960815479965,-2.446798440696213,-0.12233676519177913
14.89728219,6.271680060356954,-2.5019141415741464,-0.18881274232068748
14.90203698,5.881695982617598,-2.542961834969425,-0.25478315341361146
14.90679182,5.471134811440273,-2.570125769654579,-0.3195099881615797
14.91154667,5.042202350762473,-2.5836529552723917,-0.3822586148460509
14.91630151,4.5971690845829,-2.5838517253164985,-0.4423034849528574
14.92105635,4.1383552121513905,-2.5710899827152582,-0.49893375817368124
14.92581115,3.668115724293449,-2.5457930900833934,-0.5514588198626444
14.93056599,3.1888256270023585,-2.50844137313351,-0.5992136645631256
14.93532083,2.702865413020664,-2.459567214652742,-0.6415641196800709
14.94007568,2.212606876306907,-2.3997517277968927,-0.6779118829571859
14.94483047,1.7203993579881447,-2.3296210108422812,-0.7076993461796234
14.94958531,1.2285565056013554,-2.249842000160553,-0.730414175440415
14.95434016,0.7393436201290017,-2.161117952918763,-0.7455936156059708
14.959095,0.2549656576774545,-2.0641836046046262,-0.7528284839275667
14.96384979,-0.2224440550580825,-1.9598000578342958,-0.75176681596613
14.96860464,-0.6908343398500983,-1.8487494673122633,-0.7421171269818483
14.97335948,-1.14824587597429,-1.7318295910482122,-0.7236512542328817
14.97811432,-1.5928200617808892,-1.609848280162389,-0.6962067501954013
14.98286911,-2.022806998711896,-1.4836179792721835,-0.6596888028103564
14.98762396,-2.4365725752972516,-1.3539503071167698,-0.6140716652751864
14.9923788,-2.832604636174805,-1.221650783274576,-0.5593995835388182
14.99713365,-3.209518228057279,-1.0875137619392201,-0.4957872139885791
15.00188849,-3.5660599205426498,-0.9523176279591197,-0.423419526914809
15.00664328,-3.9011112048934895,-0.8168203038297225,-0.34255119365716824
15.01139813,-4.213690978846057,-0.6817551091497984,-0.25350545739388863
15.01615297,-4.502957130594037,-0.5478270063443371,-0.15667248970255582
15.02090776,-4.768207240547088,-0.4157092583946237,-0.052507237483030614
15.0256626,-5.00887842525453,-0.28604051610057557,0.05847323234307206
15.03041745,-5.224546353785793,-0.15942234421705248,0.17569287973642508
15.03517229,-5.414923472563254,-0.03641718781165711,0.29852031584184857
15.03992708,-5.579856479867178,0.08245322748225693,0.42627288654341755
15.04468193,-5.719323095807505,0.19670907488383071,0.558221192903347
15.04943677,-5.833428177439537,0.30591320582087117,0.6935940217162195
15.05419161,-5.922399231910898,0.4096715555370147,0.831583654976895
15.05894646,-5.986581383077839,0.5076332065204746,0.9713515227296486
15.06370125,-6.026431848880132,0.5994901456335738,1.112034159640941
15.06845609,-6.042513987823732,0.6849767540160883,1.2527494217689843
15.07321094,-6.035490973093928,0.7638690707828296,1.3926029163961022
15.07796578,-6.006119152075327,0.8359838721748448,1.5306945944496648
15.08272057,-5.955241147452394,0.9011776071721033,1.6661254520120046
15.08747542,-5.883778753763803,0.9593452287210898,1.7980042848098419
15.09223026,-5.792725680510328,1.0104189568077844,1.9254544375115779
15.0969851,-5.68314018990768,1.054367005766249,2.047620488284454
15.1017399,-5.5561376743150594,1.091192303597556,2.163674808499231
15.10649474,-5.412883215339757,1.1209312258115591,2.2728239378225092
15.11124958,-5.2545841636143855,1.1436523605341267,2.3743147162851073
15.11600438,-5.082482775248829,1.159455315539542,2.467440117305231
15.12075922,-4.897848938009504,1.1684695717557616,2.551544729075253
15.12551406,-4.701973017446957,1.1708533819994784,2.6260298361116976
15.13026891,-4.496158850497072,1.1667927085616205,2.6903580579270328
15.13502375,-4.281716911437168,1.1565001890114597,2.7440575073957354
15.13977854,-4.059957672364188,1.140214116318176,2.7867254370909227
15.14453338,-3.8321851775181734,1.1181974171049638,2.8180313473744296
15.14928823,-3.5996908478381338,1.0907366105085041,2.8377195352224
15.15404307,-3.3637475292073473,1.0581407296615386,2.845611067720078
15.15879786,-3.125603795027859,1.0207401881989981,2.841605169001254
15.16355271,-2.886478511144079,0.9788855753615955,2.8256800142620238
15.16830755,-2.6475556687750137,0.9329463651748228,2.7978929294060677
15.1730624,-2.4099794890719486,0.8833095277220046,2.758379999861658
15.17781719,-2.174849801262854,0.8303780335668507,2.7073550970467863
15.18257203,-1.943217695151724,0.7745692457360164,2.6451083356888097
15.18732688,-1.7160814480686104,0.7163131971563768,2.5720039795722793
15.19208172,-1.4943827262351592,0.6560507548756516,2.4884778171881634
15.19683651,-1.2790030609005063,0.5942316756188051,2.3950340321429247
15.20159135,-1.0707606004567038,0.531312560113309,2.2922415960545526
15.2063462,-0.8704071409738611,0.4677547160551308,2.1807302140551332
15.21110104,-0.6786254390902083,0.4040219415252587,2.0611858550218023
15.21585583,-0.49602681282511324,0.3405782420878298,1.9343459003775014
15.22061068,-0.3231490375322259,0.2778854957274648,1.8009939468205194
15.22536552,-0.1604545457800269,0.21640108025781715,1.6619542996764949
15.23012036,-0.008328941383350254,0.15657547790064108,1.5180861946839403
15.23487516,0.13292016090251027,0.09884987143803571,1.3702777868807288
15.23963,0.2630639573617345,0.0436537457338802,1.2194399458482623
15.24438484,0.3819529252814898,-0.008597492416241291,1.066499896938571
15.24913964,0.48951692633498733,-0.05750486410990933,0.9123947483355245
15.25389448,0.5857649282006054,-0.10268812682116793,0.758064943966096
15.25864932,0.6707843290288265,-0.14378803143394012,0.6044476824511538
15.26340417,0.7447398697438129,-0.18046851849185302,0.452470342517551
15.26815901,0.8078721202347539,-0.21241884493940136,0.3030439556036931
15.2729138,0.8604955272917871,-0.23935563305845806,0.15705676676361968
15.27766865,0.9029960146435153,-0.2610248335449212,0.01536792536780147
15.28242349,0.9358281285840854,-0.2772035947125886,-0.12119865254459426
15.28717833,0.95951172633993,-0.28770202965094344,-0.2518602081526263
15.29193313,0.9746282084119376,-0.29236487281416274,-0.37588080778679156
15.29668797,0.9818163005258341,-0.2910730170170867,-0.49257671286587473
15.30144281,0.9817673954181634,-0.2837449212163135,-0.6013214102206984
15.30619766,0.9752204693703078,-0.2703378788290926,-0.7015502619011572
15.31095245,0.9629565930947807,-0.25084913575955575,-0.7927647345505173
15.31570729,0.9457930612321699,-0.22531684682415368,-0.8745361696755223
15.32046214,0.9245771693269326,-0.19382085894949283,-0.9465090576352725
15.32521698,0.9001796717257208,-0.15648330940438057,-1.0084037799172942
15.32997177,0.873487958390922,-0.11346902746835177,-1.0600187862647383
15.33472661,0.8453989931481273,-0.06498572836751385,-1.1012321754617356
15.33948146,0.8168120603884589,-0.011283989048214503,-1.1320026510819123
15.34423625,0.7886213717052813,0.04734300358364573,-1.152369826279836
15.34899109,0.7617085883038613,0.11055993996842357,-1.1624538547853907
15.35374594,0.7369353191892161,0.1779901171272818,-1.1624543686826638
15.35850078,0.7151356589841673,0.24921641438464578,-1.1526487074116247
15.36325562,0.6971088325622959,0.3237825182175893,-1.1333894270355855
15.36801042,0.6836120161705002,0.40119439698131565,-1.1051010849396374
15.37276526,0.6753534058914474,0.48092202452089666,-1.0682763039523884
15.3775201,0.6729856037200985,0.5624013501618917,-1.0234711322904002
15.3822749,0.6770993891054338,0.6450365112643469,-0.9712997312310248
15.38702974,0.6882179399315953,0.7282022833406677,-0.9124284390095753
15.39178458,0.7067915622522225,0.8112467615773897,-0.8475692746915457
15.39653943,0.7331929832071921,0.8934942664212421,-0.7774729582063582
15.40129422,0.7677132566677272,0.9742484647417206,-0.7029215321221085
15.40604906,0.8105583262225741,1.0527956970805883,-0.6247206775235786
15.41080391,0.8618462849855592,1.1284085007553621,-0.5436918209647122
15.41555875,0.9216053662528588,1.2003493181567664,-0.46066413212023777
15.42031354,0.9897726932135721,1.2678743794649991,-0.3764665125534273
15.42506839,1.0661938097204096,1.3302377491551067,-0.29191967506614946
15.42982323,1.150623007575796,1.386695525979778,-0.20782841060711763
15.43457802,1.242724458887013,1.4365101864879721,-0.12497413593679502
15.43933286,1.3420741547877404,1.4789550624174608,-0.04410781040551947
15.44408771,1.4481626442240938,1.513318942346014,0.03405669556511529
15.44884255,1.5603985586151274,1.5389107876812897,0.10884870434704677
15.4535974,1.6781129001395256,1.555064552326623,0.17964623889155865
15.45835219,1.8005640633614906,1.5611440941073929,0.24588087446780726
15.46310703,1.9269435521227736,1.5565481642071324,0.3070418838104676
15.46786188,2.0563823463134794,1.5407154583734544,0.36267963551082283
15.47261667,2.1879578664434938,1.513129710466814,0.41240821673381506
15.47737151,2.3207014779427775,1.473324805043888,0.45590726332428255
15.48212635,2.4536064718482127,1.4208898811529065,0.4929229929012135
15.4868812,2.585636453995316,1.3554743944957266,0.5232684494095698
15.49163599,2.715734071011153,1.2767930997837775,0.5468229805376535
15.49639083,2.842829998240744,1.1846309097662169,0.5635309821087833
15.50114568,2.9658521121262904,1.078847582372264,0.5733999556906708
15.50590052,3.0837347673772575,0.9593821830111439,0.5764979368610004
15.51065531,3.1954280974269307,0.8262572655754286,0.5729503613145656
15.51541016,3.2999072551110453,0.6795827132624368,0.5629364435507359
15.520165,3.396181509194237,0.5195591790163056,0.5466851473376219
15.52491984,3.4833031113019697,0.3464810651472953,0.524470827858517
15.52967464,3.560375847036428,0.16073898238327022,0.49660862254811344
15.53442948,3.6265631847119475,-0.037178369881831104,0.4634496622407635
15.53918432,3.681095935498621,-0.2466829581546009,0.42537616801164563
15.54393917,3.723279340139256,-0.4670868573530167,0.38279649331918686
15.54869396,3.752499500119512,-0.697602430876633,0.3361401662410116
15.5534488,3.7682290754538785,-0.9373432937298705,0.2858529824591371
15.55820365,3.770032177207791,-1.1853260994827592,0.23239219562015717
15.56295844,3.7575683904828727,-1.440473186554337,0.1762218473772583
15.56771328,3.7305958727032293,-1.7016161133758692,0.11780827482233443
15.57246812,3.6889734824312517,-1.967500105352378,0.05761582844497221
15.57722297,3.6326619053735825,-2.236789429079659,-0.0038971705340932012
15.58197776,3.5617237565206166,-2.508073700874767,-0.06628220870915631
15.5867326,3.4763226503560443,-2.779875127250587,-0.129104074507319
15.59148745,3.376721244619158,-3.0506566644589417,-0.19194405226015726
15.59624229,3.2632782769220694,-3.3188310726249015,-0.25440280655509145
15.60099708,3.136444627162185,-3.5827708273046253,-0.31610295280071077
15.60575193,2.996758451588904,-3.8408188375690675,-0.37669131478700413
15.61050677,2.8448394461609974,-4.091299905085868,-0.43584087327492865
15.61526161,2.681382307306506,-4.332532843418012,-0.49325241117198804
15.62001641,2.50714946744257,-4.562843161305674,-0.5486558610787483
15.62477125,2.322963190792933,-4.780576198594734,-0.6018113606067326
15.62952609,2.12969712227117,-4.984110589332448,-0.6525100204465107
15.63428094,1.9282673884623882,-5.1718719139592695,-0.7005744100070327
15.63903573,1.7196233548926196,-5.342346391979443,-0.7458587656077892
15.64379057,1.5047381476472632,-5.494094458337306,-0.7882489266157545
15.64854542,1.2845990499028102,-5.625764061161827,-0.8276620054944313
15.65330021,1.0601978851378036,-5.736103515677678,-0.8640457984201949
15.65805505,0.8325214988739387,-5.823973749009643,-0.8973779439166228
15.6628099,0.6025424499780512,-5.8883597734490625,-0.9276648379016004
15.66756474,0.37121002099891093,-5.928381231641804,-0.9549403146926213
15.67231953,0.1394416548221243,-5.94330186619266,-0.979264104900661
15.67707438,-0.09188507786120496,-5.932537778368898,-1.000720082728756
15.68182922,-0.32193987920626466,-5.895664355830191,-1.0194143168836562
15.68658406,-0.54994639613508,-5.832421767419479,-1.0354729409826857
15.69133885,-0.7751880718765406,-5.742718943723611,-1.04903986089073
15.6960937,-0.9970130918637282,-5.626635984937791,-1.0602743178188925
15.70084854,-1.2148383464638106,-5.484424961998422,-1.0693483272768998
15.70560339,-1.4281523422921722,-5.316509102308729,-1.0764440151141998
15.71035818,-1.6365170049542894,-5.123480376861084,-1.0817508729345322
15.71511302,-1.8395683293359393,-4.906095530235088,-1.0854629563081717
15.71986786,-2.037015849403858,-4.665270617853761,-1.0877760509237957
15.72462266,-2.2286409180646403,-4.402074135115386,-1.0888848347332278
15.7293775,-2.4142938086258976,-4.1177188398844935,-1.0889800684240944
15.73413234,-2.593889671776345,-3.8135523829395446,-1.0882458514945443
15.73888719,-2.76740340425176,-3.4910468703769517,-1.0868569853847931
15.74364198,-2.9348635061042816,-3.1517874881331234,-1.084976487117706
15.74839682,-3.096345021951268,-2.797460322468424,-1.0827532959089405
15.75315167,-3.2519616775483233,-2.4298395122501733,-1.080320211251213
15.75790646,-3.401857336600513,-2.050773869762547,-1.0777920947399895
15.7626613,-3.546196914005584,-1.6621731068467576,-1.0752643603639624
15.76741615,-3.685156890754849,-1.265993802478192,-1.072811770044345
15.77217099,-3.8189155825070658,-0.8642252463315727,-1.0704875435252141
15.77692578,-3.9476433184091646,-0.45887529034183216,-1.0683227846833818
15.78168063,-4.0714926890907694,-0.051956336611607666,-1.0663262201729968
15.78643547,-4.190589022944852,0.35452841484956754,-1.0644842412148208
15.79119026,-4.305021247883562,0.7585983411928532,-1.062761235401
15.7959451,-4.414833291824315,1.1583082846242778,-1.0611001926419905
15.80069995,-4.520016169357019,1.551760851741945,-1.0594235677468415
15.80545479,-4.620500894518975,1.9371180326538062,-1.0576343814228442
15.81020958,-4.716152350462192,2.3126120589027317,-1.0556175414805906
15.81496443,-4.806764236046401,2.6765554306590347,-1.0532413664986824
15.81971927,-4.892055196942529,3.0273500555549444,-1.05035929490814
15.82447411,-4.971666234561311,3.3634954536702044,-1.0468117631973344
15.82922891,-5.045159469955356,3.6835959953038295,-1.0424282375671112
15.83398375,-5.1120183218127195,3.9863671500895004,-1.0370293838001015
15.83873859,-5.171649137914696,4.270640737559428,-1.030429360298696
15.84349344,-5.223384298222636,4.535369180278341,-1.0224382191357935
15.84824823,-5.266486785430499,4.779628771021243,-1.012864399483622
15.85300307,-5.300156195792694,5.002621975047707,-1.001517296899004
15.85775792,-5.323536139815274,5.2036787972379,-0.9882098906761555
15.86251271,-5.335722959595221,5.38225725159491,-0.9727614099366777
15.86726755,-5.33577566791471,5.537942977252449,-0.9550000174744842
15.8720224,-5.322726994341517,5.670448050524029,-0.9347654887832536
15.87677724,-5.2955954060869255,5.77960904660978,-0.9119118622872872
15.88153203,-5.253397956514516,5.865384407355989,-0.886310035614334
15.88628688,-5.1951638020443935,5.927851173047544,-0.8578502817719319
15.89104172,-5.11994821868686,5.967201136760224,-0.8264446582857563
15.89579651,-5.026846942423712,5.983736479471128,-0.7920292817216934
15.90055135,-4.915010652959968,5.977864943075152,-0.7545664395674755
15.9053062,-4.783659417821654,5.950094596824299,-0.714046511245548
15.91006104,-4.632096913236622,5.901028250620816,-0.6704896701391116
15.91481583,-4.459724239619841,5.831357566162629,-0.6239473390287026
15.91957068,-4.266053152764457,5.741856914248439,-0.5745033723492788
15.92432552,-4.050718537024305,5.633377023668659,-0.5222749402520579
15.92908031,-3.8134899538733738,5.506838464094205,-0.4674130916065176
15.93383516,-3.5542821082277114,5.363225002282826,-0.410102975770006
15.93859,-3.273164085758465,5.203576867810721,-0.35056370610734205
15.94334484,-2.9703672270046115,5.028983961467106,-0.28904785175129605
15.94809964,-2.646291518251211,4.840579036487882,-0.22584054783091356
15.95285448,-2.3015103946743496,4.639530880026292,-0.16125821823806735
15.95760932,-1.9367738679535922,4.427037519744294,-0.09564690886196829
15.96236411,-1.5530099082190634,4.204319478237147,-0.029380233049389692
15.96711896,-1.151324028672653,3.9726130962446113,0.037143065151257745
15.9718738,-0.7329970403743787,3.7331639443053386,0.10350192058288714
15.97662865,-0.2994809643999283,3.48722034170234,0.1692561161190723
15.98138344,0.14760689126399737,3.236027001225565,0.23394979398564356
15.98613828,0.6064916622474648,2.9808188184105897,0.2971152875889348
15.99089313,1.075250417328691,2.722814824433508,0.35827724753066836
15.99564792,1.5518233381995088,2.4632123226553695,0.4169570304051937
16.00040276,2.0340265010265317,2.2031812298073685,0.4726773133624988
16.0051576,2.5195661528152096,1.9438586438869643,0.5249668912429851
16.00991245,3.006054358431305,1.6863436618973855,0.573365606390224
16.01466724,3.4910258784958295,1.4316924715110253,0.6174293541966946
16.01942208,3.9719561242306787,1.1809137414821536,0.6567351003971704
16.02417693,4.446280022601648,0.9349643361334945,0.6908858396650324
16.02893172,4.9114116136463535,0.6947453795448386,0.7195154198816001
16.03368656,5.364764191556455,0.4610986953186357,0.7422931532019649
16.03844141,5.803770791872187,0.23480364812119017,0.7589281342450935
16.04319625,6.225904819178833,0.016574413598765395,0.7691731877207861
16.04795104,6.628700603270043,-0.19294229645043648,0.7728283727573722
16.05270588,7.0097736672596564,-0.3931690269551772,0.7697439791813252
16.05746073,7.366840489037962,-0.5835988648769322,0.7598229619255285
16.06221552,7.697737538304843,-0.7637961936622654,0.7430227732179352
16.06697036,8.000439375748881,-0.9333968974904246,0.7193565674342822
16.07172521,8.273075609281722,-1.0921080016400018,0.688893769309419
16.07648005,8.513946514791973,-1.2397067426822725,0.651760011244362
16.08123484,8.721537145408348,-1.3760390710689372,0.6081364585453911
16.08598969,8.894529773114062,-1.5010175986494805,0.5582585518801525
16.09074453,9.031814528958058,-1.6146190142880708,0.5024142039082564
16.09549932,9.13249813243587,-1.7168810015862228,0.44094149230860624
16.10025417,9.195910626457353,-1.8078987032993143,0.37422589491529334
16.10500901,9.221610061332285,-1.8878207869390469,0.3026971150042717
16.10976385,9.209385098870982,-1.9568451748835891,0.2268255463256441
16.11451865,9.159255535272221,-2.015214509689591,0.1471184283542766
16.11927349,9.071470768154784,-2.0632114308735403,0.06411574239575789
16.12402833,8.946506258253175,-2.1011537429614444,-0.02161410136709426
16.12878312,8.78505805956781,-2.1293895559733604,-0.10947873696711402
16.13353797,8.588035512925936,-2.148292478669209,-0.1988664285856541
16.13829281,8.356552216804463,-2.1582569418187316,-0.28915072396052177
16.14304766,8.091915405724489,-2.159693723476293,-0.3796951320510688
16.14780245,7.795613880415089,-2.1530257407929168,-0.46985778402742207
16.15255729,7.46930464519003,-2.1386841634109017,-0.5589960390038524
16.15731214,7.114798416595929,-2.1171048921902615,-0.6464709982775942
16.16206693,6.734044173493854,-2.0887254343019714,-0.7316518940782021
16.16682177,6.329112922594299,-2.0539821922121626,-0.8139203209257911
16.17157661,5.902180855465028,-2.0133081705947844,-0.8926742796872882
16.17633146,5.4555120735320966,-1.9671310925741408,-0.9673320065002503
16.18108625,4.991441056736887,-1.9158719055188589,-1.037335561197818
16.18584109,4.512355049169028,-1.8599436471965887,-1.1021541529909091
16.19059594,4.020676530939147,-1.7997506355592048,-1.1612871850675417
16.19535073,3.5188459396991556,-1.7356879397847769,-1.2142670043574209
16.20010557,3.0093047976883187,-1.6681410864800832,-1.2606613477427266
16.20486042,2.4944793911373027,-1.5974859532135373,-1.3000754813073618
16.20961526,1.976765138226133,-1.5240888019093626,-1.3321540348902141
16.21437005,1.4585117692362173,-1.448306407160988,-1.3565825404652085
16.2191249,0.9420094277890005,-1.370486239109267,-1.3730886896519434
16.22387974,0.4294757852960656,-1.290966666768578,-1.381443332227112
16.22863453,-0.07695575733904612,-1.2100771548655298,-1.381461242530316
16.23338938,-0.5752467251732202,-1.1281384345500003,-1.3730016828733635
16.23814422,-1.0634630441809418,-1.0454626349995595,-1.3559687919765935
16.24289901,-1.5397833148694695,-0.9623533684392769,-1.3303118225199644
16.24765385,-2.002505878910253,-0.8791057651903387,-1.2960252461146884
16.2524087,-2.4500546864469572,-0.7960064580747431,-1.2531487374253918
16.25716354,-2.8809839829955552,-0.7133335170947789,-1.2017670426169147
16.26191833,-3.2939818440872957,-0.6313563361384317,-1.1420097312699744
16.26667318,-3.687872593210101,-0.55033547388957,-1.0740508256570593
16.27142802,-4.0616181444982775,-0.47052245142663063,-0.9981082969141637
16.27618281,-4.414318316392439,-0.39215950936843175,-0.914443414293533
16.28093766,-4.745210166510705,-0.3154793279622515,-0.8233599314574286
16.2856925,-5.053666401522358,-0.24070471419031544,-0.7252030927384477
16.29044734,-5.339192919073138,-0.1680482607009303,-0.6203584423981694
16.29520214,-5.601425541850676,-0.09771198203868556,-0.5092504210092419
16.29995698,-5.840126006675991,-0.02988693417620468,-0.39234073497753347
16.30471182,-6.055177273972438,0.03524717630470503,-0.27012648775057746
16.30946661,-6.246578225005186,0.09752238690326218,-0.1431380643100122
16.31422146,-6.414437815865058,0.15678287139876393,-0.011936764014996187
16.3189763,-6.558968758304607,0.2128853235913867,0.12288781937112389
16.32373109,-6.680480798226129,0.2656993273048051,0.26072066770347646
16.32848594,-6.779373662816972,0.31510770833331125,0.40092445174794705
16.33324078,-6.856129746941684,0.3610068652064139,0.5428428769226129
16.33799562,-6.911306608386708,0.4033070769920278,0.6858042466285481
16.34275042,-6.945529339924798,0.441932787778773,0.8291252243077075
16.34750526,-6.959482883962475,0.4768228688592675,0.9721147714449361
16.3522601,-6.953904352800137,0.5079308608487936,1.114078234943315
16.3570149,-6.929575414336229,0.5352251988836864,1.2543215537041177
16.36176974,-6.887314799485133,0.5586894245339643,1.392155550902552
16.36652458,-6.827970983795901,0.5783223880427425,1.5269002754513465
16.37127943,-6.752415091933154,0.5941384439106578,1.657889353581314
16.37603422,-6.661534069992324,0.6061676416630984,1.7844743094383977
16.38078906,-6.556224167202585,0.6144559119192371,1.9060288121939235
16.38554391,-6.437384765480287,0.6190652457399158,2.0219528064914987
16.3902987,-6.305912592506033,0.6200738628414738,2.131676483245257
16.39505354,-6.162696351369459,0.6175763618367999,2.234664049016868
16.39980838,-6.008611797059879,0.6116838434144886,2.3304172545267736
16.40456318,-5.844517286747176,0.6025239954638595,2.41847864621137
16.40931802,-5.6712498264842734,0.590241127709389,2.49843450882059
16.41407286,-5.4896216314763,0.5749961424845047,2.5699174714579938
16.41882771,-5.300417210516693,0.5569664278587898,2.6326087538806022
16.4235825,-5.1043909779567205,0.5363456594192547,2.686240034173538
16.42833734,-4.902265389144229,0.513343497572808,2.7305949231338205
16.43309219,-4.6947295881047175,0.48818516824974933,2.7655100349305637
16.43784698,-4.482438549673616,0.46111091629090556,2.790875647906467
16.44260182,-4.2660126924977675,0.4323753225131268,2.8066359537284153
16.44735667,-4.046037934367865,0.40224647737519814,2.812788897412088
16.45211146,-3.823066157218197,0.37100500622215615,2.8093856149436967
16.4568663,-3.5976160457980217,0.33894294321148843,2.796529479215087
16.46162115,-3.370174261426195,0.30636245318929517,2.774374768726493
16.46637599,-3.141196910329532,0.27357440296207086,2.7431249769928137
16.47113078,-2.911111264785003,0.24089678555184282,2.703030783837503
16.47588562,-2.680317694586126,0.20865300305648463,2.6543877127753617
16.48064047,-2.4491917661608005,0.17717001558758363,2.597533501422257
16.48539526,-2.2180864668796434,0.14677636536832708,2.532845214233398
16.4901501,-1.987334512625187,0.11780008641347359,2.4607361287705407
16.49490495,-1.7572506975222137,0.0905665112758875,2.381652428083218
16.49965979,-1.5281342458993998,0.06539598714116393,2.2960697326594386
16.50441458,-1.300271128115956,0.042601514116920064,2.2044895057816394
16.50916943,-1.073936303866808,0.022486318955982885,2.1074353660381853
16.51392422,-0.8493958589645312,0.005341377753556489,2.0054493402067632
16.51867906,-0.6269090043606487,-0.008557098543894385,1.899088088762553
16.52343391,-0.4067299092836896,-0.018950201600148136,1.788919134902276
16.52818875,-0.18910934379190297,-0.0255988713652523,1.675517126267551
16.53294354,0.025703890307819943,-0.028286434456787232,1.559460156575496
16.53769839,0.23746175743092365,-0.02682111873516945,1.4413261722163178
16.54245323,0.44591602849739387,-0.021038526307931352,1.3216894866461746
16.54720802,0.6508175731512398,-0.010804045720781138,1.2011174231528945
16.55196286,0.8519159098511161,0.003984817546571614,1.080167104339239
16.55671771,1.048959016223664,0.023396214876899014,0.9593824044769579
16.5614725,1.2416933987081604,0.047461856887787854,0.8392910787604106
16.56622734,1.4298644173433248,0.07617507021346646,0.7204020814620739
16.57098219,1.6132168585319453,0.10948903584322812,0.6032030830877775
16.57573703,1.7914957457200908,0.14731523715669856,0.4881581948486057
16.58049182,1.9644473750913716,0.18952214640434056,0.3757059070902069
16.58524667,2.1318205605626277,0.23593417855119797,0.26625724672879836
16.59000151,2.2933680695647247,0.28633094107810436,0.1601941572334026
16.5947563,2.4488482283203004,0.340446807453099,0.05786810328491707
16.59951115,2.598026672626167,0.3979708404722983,-0.04040109902811124
16.60426599,2.740678217555562,0.4585470894471546,-0.13432622670265307
16.60902078,2.8765888170654903,0.5217752822189488,-0.22365337008835778
16.61377563,3.00555758228309,0.5872119291733314,-0.30816243063070436
16.61853047,3.1273988253028224,0.6543718518061131,-0.38766739817877716
16.62328531,3.2419440936867887,0.7227301430012497,-0.462016410118014
16.6280401,3.3490441595377436,0.791724560133278,-0.5310915945248796
16.63279495,3.4485709260190416,0.86075834559392,-0.5948086991802106
16.63754979,3.540419213564301,0.9292034626411777,-0.6531165075717921
16.64230458,3.624508387836801,0.9964042278924133,-0.7059960420032353
16.64705943,3.7007837918878606,1.061681315615834,-0.7534595527602813
16.65181427,3.7692179460463775,1.124336103418144,-0.7955492912007939
16.65656906,3.8298114809302866,1.1836553240809022,-0.8323360638898823
16.66132391,3.882593771659735,1.2389159841896593,-0.8639175648483793
16.66607875,3.9276232450082,1.2893905068146736,-0.8904164844275568
16.67083354,3.9649873362042585,1.3343520528267852,-0.9119783978635599
16.67558838,3.994802078815831,1.3730799735122443,-0.9287694458123366
16.68034323,4.017211319523102,1.4048653461445417,-0.940973832726308
16.68509802,4.0323855585948065,1.4290165443156038,-0.9487911835092215
16.68985286,4.040520425048465,1.4448647962889642,-0.9524338103049841
16.69460771,4.0418348018717,1.4517696873835628,-0.9521239473454448
16.69936255,4.0365686213604075,1.4491245662149421,-0.9480910128466693
16.70411734,4.024980354215378,1.4363618192052068,-0.9405689544351399
16.70887219,4.007344219188994,1.412957982788714,-0.9297937297508481
16.71362703,3.983947143274258,1.3784386678391607,-0.9160009674994287
16.71838182,3.9550855060136167,1.3323832756725977,-0.8994238468143949
16.72313667,3.9210617056593122,1.274429489196013,-0.8802912247259832
16.72789151,3.8821805896208916,1.204277526066902,-0.8588260331429406
16.7326463,3.838745796623851,1.1216941428866445,-0.8352439583333574
16.73740115,3.7910560628060295,1.0265163803798847,-0.8097524077323759
16.74215599,3.739401548039082,0.9186550392536517,-0.7825497613332203
16.74691078,3.6840602415670283,0.7980978751066217,-0.7538248982859529
16.75166562,3.625294507215097,0.6649124985177195,-0.7237569839308914
16.75642047,3.563347827738622,0.5192489634246376,-0.692515498438529
16.76117526,3.4984418053871345,0.36134202324869535,-0.6602604853514643
16.7659301,3.430773471707231,0.1915130301068016,-0.6271429962401671
16.77068495,3.36051295435396,0.010171448107187961,-0.5933057059728327
16.77543979,3.287801542520023,-0.18218405255581596,-0.5588836715240222
16.78019458,3.2127501856724794,-0.3849649578985442,-0.5240052058627986
16.78494943,3.1354384526233168,-0.5974927692744847,-0.488792837561461
16.78970427,3.055913969521222,-0.8189994021401145,-0.4533643267131232
16.79445906,2.97419234617962,-1.0486281686102534,-0.4178337087438914
16.79921391,2.8902575904913514,-1.2854353881409344,-0.38231233957701727
16.80396875,2.80406300099288,-1.528392669591662,-0.3469099177564539
16.80872354,2.7155325184879624,-1.7763899054339927,-0.3117354608507204
16.81347838,2.6245625094549476,-2.028239014888034,-0.27689821439161894
16.81823323,2.531023946984342,-2.282678467236219,-0.24250847206445486
16.82298802,2.4347649493838377,-2.538378609507201,-0.20867828666626348
16.82774286,2.335613632515572,-2.7939478142293113,-0.17552205335257492
16.83249771,2.2333812295129847,-3.0479394531547697,-0.1431569503401361
16.8372525,2.1278654307069003,-3.298859691896279,-0.11170322722554656
16.84200734,2.0188538970921694,-3.545176088423077,-0.08128433645719003
16.84676219,1.9061279020519806,-3.785326965448569,-0.052026908118734935
16.85151698,1.7894660579010824,-4.017731513053706,-0.02406057130208831
16.85627182,1.6686480858596564,-4.240800563663932,0.0024823731233257914
16.86102667,1.5434585902871165,-4.452947967075511,0.02746742318305786
16.86578151,1.4136908004557094,-4.652602479029325,0.050758484963468256
16.8705363,1.2791502458493855,-4.838220063291125,0.07221861555756393
16.87529115,1.1396583338310753,-5.008296494706068,0.09171089495885307
16.88004599,0.9950558013291484,-5.1613801395693555,0.10909942140738482
16.88480078,0.8452060147583511,-5.296084780146033,0.12425042343667578
16.88955562,0.6899980946451031,-5.4111023424915246,0.13703348007752614
16.89431047,0.5293498434711981,-5.505215381059595,0.14732283847044564
16.89906526,0.36321045729119805,-5.5773091701154165,0.15499881569391644
16.9038201,0.19156300393722933,-5.626383250866868,0.15994926911298218
16.90857495,0.014426653270618588,-5.651562284635041,0.16207111714591668
16.91332974,-0.16814135192222165,-5.652106066413383,0.161271890139003
16.91808458,-0.3560439921225764,-5.627418559864743,0.1574712890847103
16.92283943,-0.5491430379330161,-5.5770558241735495,0.1506027282481159
16.92759427,-0.7472578866543182,-5.5007327151712495,0.14061483642437564
16.93234906,-0.9501646630373818,-5.398328257720164,0.12747289060602948
16.93710391,-1.157595574273109,-5.2698896033321505,0.11116015535691431
16.9418587,-1.3692385054540823,-5.115634506133088,0.09167910118289903
16.94661354,-1.58473683875304,-4.935952271115001,0.06905247562028771
16.95136839,-1.8036894776037387,-4.731403150548608,0.043324201593047555
16.95612323,-2.025651056353418,-4.502716186763178,0.014560078841127793
16.96087802,-2.2501323162479063,-4.250785521518184,-0.017151734013598555
16.96563286,-2.4766006302148664,-3.9766652132443743,-0.051700476796109764
16.97038771,-2.7044806616360506,-3.681562623003954,-0.08895280138882067
16.9751425,-2.9331551459688394,-3.3668304477269535,-0.12875305453083838
16.97989734,-3.1619657884839882,-3.03395749484686,-0.17092383778406395
16.98465219,-3.3902142763094947,-2.6845583056894053,-0.2152668466359571
16.98940698,-3.6171634081451183,-2.320361745745235,-0.2615639835587959
16.99416182,-3.8420383501483037,-1.943198688246278,-0.3095787316470231
16.99891667,-4.064028031349098,-1.5549889233297356,-0.3590577664839605
17.00367146,-4.282286696377399,-1.1577274286545158,-0.4097327747294196
17.0084263,-4.495935637197228,-0.753470138786928,-0.4613224398421397
17.01318115,-4.704065128886614,-0.3443193500843168,-0.5135345505117024
17.01793594,-4.905736597214302,0.06759110476847079,-0.566068187888733
17.02269078,-5.099985047738215,0.48011078276209285,-0.6186159538250645
17.02744563,-5.285821787263756,0.8910875328899446,-0.6708662117409078
17.03220042,-5.462237468717972,1.2983822566913625,-0.7225053210119265
17.03695526,-5.628205489949096,1.6998834148961144,-0.7732198525335209
17.0417101,-5.782685775874845,2.0935211736237287,-0.8226987767859654
17.0464649,-5.9246289718991765,2.47728108874589,-0.8706356169512516
17.05121974,-6.052981074473074,2.8492172319864237,-0.9167305595300953
17.05597458,-6.1666885217645415,3.2074646674225473,-0.9606925145224959
17.06072943,-6.264703763251639,3.550251192561725,-1.002241117288936
17.06548422,-6.34599132137138,3.875908264330962,-1.0411086649869317
17.07023906,-6.40953435101414,4.182881037270386,-1.077041981850249
17.07499391,-6.454341693686172,4.469737449018487,-1.1098042091590343
17.0797487,-6.479455412745169,4.735176296772597,-1.1391765171191046
17.08450354,-6.483958784490443,4.978034257695692,-1.1649597367523672
17.08925838,-6.466984707329482,5.197291816073237,-1.1869759102220754
17.09401318,-6.427724478026077,5.392078070249066,-1.2050697578498555
17.09876802,-6.365436870458053,5.5616744028370855,-1.2191100595554483
17.10352286,-6.2794574386996365,5.70551700825669,-1.2289909476733487
17.10827766,-6.16920795296842,5.82319828209123,-1.2346331071284042
17.1130325,-6.034205864498827,5.914467086901417,-1.2359848777976505
17.11778734,-5.874073684282205,5.979227918681386,-1.2330232525518434
17.12254214,-5.688548151437981,6.017539006863776,-1.225754762977371
17.12729698,-5.477489060218222,6.029609388475347,-1.2142162431606003
17.13205182,-5.240887610520469,6.015795003667987,-1.1984754602033776
17.13680661,-4.978874145271252,5.9765938654860955,-1.1786315983624431
17.14156146,-4.691725138988291,5.912640361532845,-1.1548155819156942
17.1463163,-4.37986930503983,5.824698749312074,-1.127190220125303
17.15107109,-4.043892694413643,5.7136559105509175,-1.0959501560801186
17.15582594,-3.6845426660291376,5.5805134328039525,-1.0613215998627623
17.16058078,-3.3027306176450506,5.426379089122679,-1.023561825518702
