"Time (s)","Gyroscope x (rad/s)","Gyroscope y (rad/s)","Gyroscope z (rad/s)"
1.843835600E-2,-8.376483619E-2,-1.476765573E-1,3.259727061E-1
2.319304400E-2,-9.842558950E-2,-1.550069451E-1,2.923751473E-1
2.794773100E-2,-1.088102907E-1,-1.556178033E-1,2.502254844E-1
3.270236700E-2,-1.143080741E-1,-1.366809905E-1,2.019671649E-1
3.745705400E-2,-1.185841262E-1,-1.134681329E-1,1.598175019E-1
4.221174200E-2,-1.179732606E-1,-6.276635826E-2,1.262199283E-1
4.696637700E-2,-1.045342386E-1,2.825249545E-2,9.262236953E-2
5.172106500E-2,-7.765618712E-2,1.443168074E-1,5.902481079E-2
5.647575200E-2,-4.589121789E-2,2.725984156E-1,2.664897591E-2
6.123038800E-2,-1.107192412E-2,3.843866587E-1,-3.894262947E-3
6.598507500E-2,2.435823344E-2,4.637990892E-1,-3.321577236E-2
7.073976300E-2,5.245801434E-2,5.138899684E-1,-5.337430909E-2
7.549439800E-2,6.895136088E-2,5.322159529E-1,-6.803506613E-2
8.024908600E-2,7.628174126E-2,5.383245945E-1,-7.475458086E-2
8.500372100E-2,8.116865903E-2,5.529853702E-1,-6.192641705E-2
8.975840800E-2,8.361211419E-2,5.774199367E-1,-3.016144782E-2
9.451309600E-2,8.177952468E-2,6.018545032E-1,1.504254527E-2
9.926773100E-2,7.506000996E-2,6.195695996E-1,6.879864633E-2
1.040224190E-1,6.223184988E-2,6.262891293E-1,1.243873388E-1
1.087771060E-1,4.451677203E-2,6.214022040E-1,1.732565165E-1
1.135317420E-1,2.252563834E-2,6.018545032E-1,2.105192691E-1
1.182864290E-1,1.756236190E-3,5.878046155E-1,2.355647236E-1
1.230411170E-1,-1.534797717E-2,5.878046155E-1,2.471711636E-1
1.277957520E-1,-2.878700197E-2,6.012436748E-1,2.471711636E-1
1.325504400E-1,-3.672824427E-2,6.214022040E-1,2.373973280E-1
1.373051270E-1,-3.428478539E-2,6.360629797E-1,2.239582986E-1
1.420598150E-1,-2.084576152E-2,6.409498453E-1,2.068540901E-1
1.468144500E-1,4.810560029E-3,6.330085993E-1,1.873064190E-1
1.515691380E-1,3.046688065E-2,6.091849208E-1,1.622609496E-1
1.563238250E-1,2.985601686E-2,5.658134818E-1,1.219438836E-1
1.610784610E-1,-2.451094985E-2,4.888445437E-1,6.879864633E-2
1.658331480E-1,-6.788235158E-2,3.868301213E-1,3.947713599E-2
1.705878360E-1,-9.781472385E-2,2.780961990E-1,4.069886729E-2
1.753424710E-1,-1.081994250E-1,2.102901936E-1,6.879864633E-2
1.800971580E-1,-9.598212689E-2,2.072358727E-1,1.127809063E-1
1.848518460E-1,-8.743002266E-2,2.719875574E-1,1.610392332E-1
1.896064810E-1,-8.804088831E-2,3.843866587E-1,2.086866796E-1
1.943611690E-1,-1.130863428E-1,5.059487820E-1,2.465602905E-1
1.991158560E-1,-1.503490955E-1,6.079631448E-1,2.771035433E-1
2.038704920E-1,-2.022725940E-1,6.794343591E-1,3.039815724E-1
2.086251790E-1,-2.584721744E-1,7.228057384E-1,3.308596313E-1
2.133798670E-1,-3.146717250E-1,7.441860437E-1,3.589594066E-1
2.181345540E-1,-3.488801420E-1,7.557924390E-1,3.895026445E-1
2.228891900E-1,-3.555996716E-1,7.759509683E-1,4.194350243E-1
2.276438770E-1,-3.348302543E-1,8.083268404E-1,4.481456876E-1
2.323985650E-1,-2.994000912E-1,8.669698238E-1,4.707476795E-1
2.371532000E-1,-2.639699280E-1,9.512691498E-1,5.006800294E-1
2.419078880E-1,-2.358701676E-1,9.414953589E-1,5.599339008E-1
2.466625750E-1,-2.230419964E-1,8.852958083E-1,6.491202116E-1
2.514172110E-1,-2.273180634E-1,8.883501291E-1,7.572432756E-1
2.561718980E-1,-2.511417866E-1,8.932369947E-1,8.647554517E-1
2.609265860E-1,-2.847393453E-1,8.865175247E-1,9.447787404E-1
2.656812730E-1,-3.299433291E-1,9.170607328E-1,9.814306498E-1
2.704359080E-1,-3.995819092E-1,8.944587708E-1,9.814306498E-1
2.751905960E-1,-4.851029813E-1,7.594576478E-1,9.533308744E-1
2.799452830E-1,-5.675697327E-1,5.768090487E-1,9.001855850E-1
2.846999190E-1,-6.335431337E-1,4.045451880E-1,8.317687511E-1
2.894546060E-1,-6.775254011E-1,2.420551628E-1,7.560214996E-1
2.942092940E-1,-7.062360644E-1,1.058323234E-1,6.869937778E-1
2.989639810E-1,-7.251728773E-1,2.458730713E-2,6.265181899E-1
3.037186170E-1,-7.227293849E-1,-7.788525894E-3,5.764272809E-1
3.084733040E-1,-6.732493639E-1,-1.695149764E-2,5.483275056E-1
3.132279920E-1,-5.437459946E-1,-7.177661173E-3,5.446622968E-1
3.179826790E-1,-3.971384764E-1,6.612611562E-2,5.367210507E-1
3.227373150E-1,-2.486983240E-1,1.809686869E-1,5.116755962E-1
3.274920020E-1,-1.057559624E-1,3.202458620E-1,4.615846872E-1
3.322466900E-1,1.397353224E-2,4.460839927E-1,3.833940029E-1
3.370013250E-1,1.007163301E-1,5.297724605E-1,2.880991101E-1
3.417560130E-1,1.520289779E-1,5.548179150E-1,1.928042024E-1
3.465107000E-1,1.789070219E-1,5.212203860E-1,1.048396677E-1
3.512653880E-1,1.880699992E-1,4.540252388E-1,3.214675933E-2
3.560200230E-1,1.837939471E-1,3.837758005E-1,-2.466366626E-2
3.607747110E-1,1.770744324E-1,3.312414289E-1,-9.246965498E-2
3.655293980E-1,1.715766490E-1,3.000873327E-1,-1.505018175E-1
3.702840330E-1,1.673005968E-1,2.756527364E-1,-1.840993762E-1
3.750387210E-1,1.654679924E-1,2.451094985E-1,-1.957058012E-1
3.797934080E-1,1.691331863E-1,1.992946416E-1,-1.902080178E-1
3.845480960E-1,1.868482679E-1,1.430950761E-1,-1.706603467E-1
3.893027830E-1,2.216675580E-1,9.178243577E-2,-1.480583549E-1
3.940574190E-1,2.729802132E-1,7.162389904E-2,-1.260672212E-1
3.988121060E-1,3.340666890E-1,7.956513762E-2,-1.022434905E-1
4.035667940E-1,4.165334105E-1,5.696314201E-2,-8.086322248E-2
4.083214810E-1,5.270999670E-1,4.428769462E-3,-5.887209252E-2
4.130761170E-1,6.584358811E-1,-5.543597788E-2,-2.832885459E-2
4.178308040E-1,8.013782501E-1,-1.110246703E-1,1.015562657E-2
4.225854920E-1,9.455423355E-1,-1.531743407E-1,5.291616172E-2
4.273401790E-1,1.081154346E0,-1.739437431E-1,9.078978002E-2
4.320948150E-1,1.197829485E0,-1.800523996E-1,1.140026376E-1
4.368495020E-1,1.290070057E0,-1.879936308E-1,1.188895553E-1
4.416041900E-1,1.360319495E0,-2.118173689E-1,1.005636156E-1
4.463588770E-1,1.413464785E0,-2.539670467E-1,6.574432552E-2
4.511135130E-1,1.452560067E0,-2.997818887E-1,1.992946304E-2
4.558682000E-1,1.477605581E0,-3.248273432E-1,-2.466366626E-2
4.606228880E-1,1.488601089E0,-3.278816640E-1,-6.131555140E-2
4.653775750E-1,1.482492447E0,-3.174969554E-1,-8.330668509E-2
4.701322630E-1,1.461112142E0,-2.955058515E-1,-9.124792367E-2
4.748868980E-1,1.423849463E0,-2.796233594E-1,-8.758273721E-2
4.796415860E-1,1.370093346E0,-2.759581506E-1,-7.292198390E-2
4.843962730E-1,1.301676512E0,-2.942841053E-1,-5.703949928E-2
4.891509610E-1,1.225318432E0,-3.248273432E-1,-4.360047355E-2
4.939055960E-1,1.150182009E0,-3.639226854E-1,-4.054614902E-2
4.986602830E-1,1.084819436E0,-3.846921027E-1,-4.970912263E-2
5.034149710E-1,1.042058945E0,-3.627009690E-1,-9.613484144E-2
5.081696580E-1,1.033506870E0,-2.955058515E-1,-1.914297491E-1
5.129242940E-1,1.037782907E0,-2.191477418E-1,-2.861137986E-1
5.176789810E-1,1.046945930E0,-1.562286615E-1,-3.624718785E-1
5.224336690E-1,1.055498004E0,-1.330158114E-1,-4.278344214E-1
5.271883560E-1,1.044502378E0,-1.831067204E-1,-5.048033595E-1
5.319429920E-1,1.016402602E0,-3.058905303E-1,-5.811614990E-1
5.366976790E-1,9.577596188E-1,-3.028362095E-1,-6.410261989E-1
5.414523670E-1,8.166498542E-1,3.069595434E-2,-6.776781082E-1
5.462070540E-1,6.553815603E-1,2.976438701E-1,-6.886736751E-1
5.509617420E-1,5.570323467E-1,2.554942071E-1,-6.520217657E-1
5.557164290E-1,4.977784455E-1,1.388190240E-1,-5.744419694E-1
5.604710650E-1,4.385245442E-1,1.198822111E-1,-4.815905094E-1
5.652257520E-1,3.694968224E-1,2.035706937E-1,-3.991237879E-1
5.699804400E-1,3.077994883E-1,2.695440948E-1,-3.258199990E-1
5.747351270E-1,2.546542585E-1,2.829830945E-1,-2.567922771E-1
5.794898150E-1,2.002872825E-1,2.909243405E-1,-1.963166744E-1
5.842444500E-1,1.404225379E-1,3.184132576E-1,-1.517235339E-1
5.889991380E-1,7.750347257E-2,3.550651670E-1,-1.205694377E-1
5.937538250E-1,5.421424750E-3,3.996582925E-1,-1.040760875E-1
5.985085130E-1,-7.338013500E-2,4.277580678E-1,-1.340084672E-1
6.032632000E-1,-1.558468789E-1,4.369210303E-1,-2.030361742E-1
6.080178360E-1,-2.407570779E-1,4.130973220E-1,-2.818377316E-1
6.127725230E-1,-3.311650753E-1,3.642281294E-1,-3.691914082E-1
6.175272110E-1,-4.325686097E-1,2.677114904E-1,-4.272235632E-1
6.222818980E-1,-5.522981286E-1,3.313941509E-2,-3.551415205E-1
6.270365860E-1,-6.885209680E-1,-2.722929716E-1,-2.348011434E-1
6.317912730E-1,-8.400154114E-1,-5.154171586E-1,-1.181259751E-1
6.365459080E-1,-9.902881384E-1,-7.279980779E-1,-3.283398226E-3
6.413005960E-1,-1.113072038E0,-9.656245112E-1,1.109483168E-1
6.460552830E-1,-1.216308117E0,-1.134834051E0,2.111301422E-1
6.508099710E-1,-1.307327032E0,-1.236237645E0,2.868773639E-1
6.555646580E-1,-1.374522090E0,-1.329699874E0,3.467421234E-1
6.603193460E-1,-1.421558738E0,-1.395062447E0,3.998873532E-1
6.650739810E-1,-1.438662887E0,-1.412777543E0,4.536434710E-1
6.698286690E-1,-1.417893529E0,-1.386510372E0,5.080104470E-1
6.745833560E-1,-1.349476695E0,-1.302211046E0,5.495492220E-1
6.793380440E-1,-1.240131855E0,-1.151327372E0,5.684860349E-1
6.840927310E-1,-1.095967770E0,-9.717331529E-1,5.562687516E-1
6.888474190E-1,-9.346994758E-1,-8.037453294E-1,5.110647678E-1
6.936020540E-1,-7.630464435E-1,-6.449204683E-1,4.316523373E-1
6.983567420E-1,-5.883391500E-1,-4.854847789E-1,3.235292733E-1
7.031114290E-1,-4.154644012E-1,-3.272708058E-1,1.873064190E-1
7.078661170E-1,-2.548069656E-1,-1.928805560E-1,3.703367710E-2
7.126208040E-1,-1.106428802E-1,-8.353576064E-2,-1.205694377E-1
7.173754920E-1,1.336266659E-2,8.093958721E-3,-2.781725526E-1
7.221301790E-1,1.184314117E-1,9.483675659E-2,-4.302778840E-1
7.268848150E-1,1.990655661E-1,1.522580534E-1,-5.701659322E-1
7.316395020E-1,2.558759749E-1,1.601992846E-1,-6.917279959E-1
7.363941900E-1,2.870301008E-1,1.314886510E-1,-7.906880975E-1
7.411488770E-1,3.023017049E-1,7.040216774E-2,-8.646027446E-1
7.459035650E-1,3.071886301E-1,-1.878409274E-2,-9.128610492E-1
7.506582520E-1,3.114646673E-1,-1.293506175E-1,-9.336304665E-1
7.554128880E-1,3.291797638E-1,-2.503018379E-1,-9.269109368E-1
7.601675750E-1,3.609447181E-1,-3.804160357E-1,-9.036980867E-1
7.649222630E-1,4.116465151E-1,-5.581777096E-1,-8.670461774E-1
7.696769500E-1,4.825068116E-1,-7.835868001E-1,-8.261182308E-1
7.744316380E-1,5.759691000E-1,-1.018769741E0,-7.870228887E-1
7.791863250E-1,6.859247684E-1,-1.236848474E0,-7.577013969E-1
7.839410130E-1,8.160389662E-1,-1.429270864E0,-7.412080765E-1
7.886957000E-1,9.681442976E-1,-1.577100158E0,-7.412080765E-1
7.934503360E-1,1.141019106E0,-1.676060200E0,-7.497601509E-1
7.982050230E-1,1.319391608E0,-1.738368392E0,-7.552579641E-1
8.029597110E-1,1.491655469E0,-1.775020361E0,-7.405971885E-1
8.077143980E-1,1.637652159E0,-1.793957114E0,-6.941714883E-1
8.124690860E-1,1.746386051E0,-1.795178890E0,-5.939896107E-1
8.172237730E-1,1.822744131E0,-1.760970473E0,-4.192823172E-1
8.219784610E-1,1.866115570E0,-1.696829677E0,-1.944840699E-1
8.267331480E-1,1.830074549E0,-1.671784163E0,-7.964149863E-2
8.314877830E-1,1.721951485E0,-1.665064692E0,-1.077412739E-1
8.362424710E-1,1.605887175E0,-1.599091291E0,-1.621082425E-1
8.409971580E-1,1.519144297E0,-1.466533661E0,-1.712712198E-1
8.457518460E-1,1.458057880E0,-1.300378442E0,-1.407279670E-1
8.505065330E-1,1.411021233E0,-1.150716543E0,-1.004109010E-1
8.552612210E-1,1.365206480E0,-1.043204308E0,-5.154171586E-2
8.600159080E-1,1.303509116E0,-9.888373613E-1,1.504254527E-2
8.647705960E-1,1.235092282E0,-9.527963400E-1,7.429642975E-2
8.695252830E-1,1.165453672E0,-9.338595271E-1,1.176678315E-1
8.742799710E-1,1.097036839E0,-9.326378107E-1,1.366046369E-1
8.790346060E-1,1.033506870E0,-9.564615488E-1,1.176678315E-1
8.837892940E-1,9.870811105E-1,-1.038928270E0,5.658135191E-2
8.885439810E-1,9.644791484E-1,-1.186757565E0,-3.871355578E-2
8.932986690E-1,9.815833569E-1,-1.386510372E0,-1.566104591E-1
8.980533560E-1,1.047556758E0,-1.642462730E0,-2.769508064E-1
9.028080440E-1,1.169118881E0,-1.939342976E0,-3.917934000E-1
9.075627310E-1,1.349934816E0,-2.263101339E0,-4.883100390E-1
9.123174190E-1,1.580230832E0,-2.622900724E0,-5.622246861E-1
9.170721060E-1,1.857563496E0,-2.981478214E0,-6.184242368E-1
9.218267940E-1,2.167271852E0,-3.346775293E0,-6.569086909E-1
9.265814290E-1,2.494695425E0,-3.735896349E0,-6.721803546E-1
9.313361170E-1,2.827005863E0,-4.103025913E0,-6.679042578E-1
9.360908040E-1,3.145877361E0,-4.438390732E0,-6.508000493E-1
9.408454920E-1,3.426875114E0,-4.751153469E0,-6.202568412E-1
9.456001790E-1,3.649840593E0,-5.041314125E0,-5.744419694E-1
9.503548670E-1,3.802556992E0,-5.291158199E0,-5.127446055E-1
9.551095540E-1,3.872806311E0,-5.473195553E0,-4.400517046E-1
9.598642420E-1,3.854480505E0,-5.571545124E0,-3.630827665E-1
9.646189290E-1,3.751855135E0,-5.591092587E0,-2.946659029E-1
9.693736170E-1,3.578369617E0,-5.534893036E0,-2.415206581E-1
9.741283040E-1,3.354793072E0,-5.398670197E0,-1.975383908E-1
9.788829920E-1,3.101895094E0,-5.212967396E0,-1.602756530E-1
9.836376790E-1,2.839223146E0,-4.990612507E0,-1.187368408E-1
9.883923670E-1,2.577773094E0,-4.755429745E0,-7.536543906E-2
9.931470020E-1,2.329151154E0,-4.525744438E0,-3.565923125E-2
9.979016900E-1,2.100687504E0,-4.310109138E0,-8.399390499E-4
1.002656377E0,1.900323987E0,-4.106691360E0,3.703367710E-2
1.007411065E0,1.732336164E0,-3.908771038E0,8.162680268E-2
1.012165752E0,1.594280720E0,-3.720624685E0,1.359937787E-1
1.016920440E0,1.484935880E0,-3.543473959E0,1.921933293E-1
1.021675127E0,1.399414897E0,-3.387092590E0,2.465602905E-1
1.026429815E0,1.334663153E0,-3.255756617E0,3.003163934E-1
1.031184502E0,1.290070057E0,-3.158018112E0,3.583485484E-1
1.035939190E0,1.273576736E0,-3.100596905E0,4.182133079E-1
1.040693877E0,1.288848281E0,-3.085936069E0,4.817432463E-1
1.045448565E0,1.337717533E0,-3.109759808E0,5.562687516E-1
1.050203252E0,1.406745195E0,-3.176954985E0,6.472876072E-1
1.054957940E0,1.475772977E0,-3.285688877E0,7.535780668E-1
1.059712627E0,1.528307319E0,-3.417635679E0,8.586468101E-1
1.064467315E0,1.541135430E0,-3.555691242E0,9.734894037E-1
1.069222002E0,1.506927013E0,-3.662592411E0,1.096273184E0
1.073976638E0,1.428736329E0,-3.703520536E0,1.215391874E0
1.078731377E0,1.316337228E0,-3.672366381E0,1.327180147E0
1.083486013E0,1.188055634E0,-3.581347466E0,1.428583622E0
1.088240700E0,1.053054571E0,-3.445124626E0,1.519602537E0
1.092995388E0,9.143882394E-1,-3.279580355E0,1.603290915E0
1.097750075E0,7.757219076E-1,-3.107316494E0,1.677816510E0
1.102504763E0,6.437751055E-1,-2.933830738E0,1.743789911E0
1.107259450E0,5.234347582E-1,-2.759123564E0,1.802432895E0
1.112014138E0,4.183660150E-1,-2.587470531E0,1.851912975E0
1.116768825E0,3.328449428E-1,-2.424980402E0,1.891619205E0
1.121523513E0,2.723693252E-1,-2.278983831E0,1.921551466E0
1.126278200E0,2.363283187E-1,-2.154978275E0,1.944153547E0
1.131032888E0,2.222784162E-1,-2.063959360E0,1.960036039E0
1.135787575E0,2.320522517E-1,-2.019977093E0,1.972253323E0
1.140542263E0,2.650389671E-1,-2.019977093E0,1.986914039E0
1.145296950E0,3.249036968E-1,-2.059683323E0,2.009516001E0
1.150051638E0,4.116465151E-1,-2.131154537E0,2.041891813E0
1.154806325E0,5.173261166E-1,-2.218508244E0,2.084041595E0
1.159561013E0,6.248382926E-1,-2.317468166E0,2.140851974E0
1.164315700E0,7.262418866E-1,-2.410319805E0,2.197662354E0
1.169070388E0,8.190932870E-1,-2.487899542E0,2.220875263E0
1.173825075E0,8.972840309E-1,-2.557538033E0,2.231260061E0
1.178579763E0,9.626465440E-1,-2.616181135E0,2.239812136E0
1.183334450E0,1.017624378E0,-2.652832985E0,2.252640247E0
1.188089138E0,1.058552265E0,-2.668104649E0,2.265468359E0
1.192843825E0,1.081765175E0,-2.674213171E0,2.277685642E0
1.197598513E0,1.094593287E0,-2.678489447E0,2.287459612E0
1.202353200E0,1.098258495E0,-2.667493820E0,2.278296471E0
1.207107888E0,1.090317249E0,-2.643059254E0,2.253251076E0
1.211862575E0,1.075656533E0,-2.586859703E0,2.228205681E0
1.216617263E0,1.046945930E0,-2.500727654E0,2.209879637E0
1.221371950E0,1.002352715E0,-2.408487082E0,2.189721107E0
1.226126638E0,9.424880147E-1,-2.312581301E0,2.171395302E0
1.230881325E0,8.752928972E-1,-2.215453863E0,2.160399675E0
1.235636013E0,8.111520410E-1,-2.119548082E0,2.166508198E0
1.240390700E0,7.616720200E-1,-2.030972719E0,2.198884249E0
1.245145388E0,7.347939610E-1,-1.952171087E0,2.252029419E0
1.249900075E0,7.323505282E-1,-1.878256440E0,2.322889566E0
1.254654763E0,7.445678115E-1,-1.803730965E0,2.408410788E0
1.259409450E0,7.628937364E-1,-1.715766430E0,2.499429703E0
1.264164138E0,7.836631536E-1,-1.613141179E0,2.589837551E0
1.268918825E0,8.038216829E-1,-1.494022489E0,2.669250011E0
1.273673513E0,8.160389662E-1,-1.358410597E0,2.726060390E0
1.278428200E0,8.252019882E-1,-1.211192131E0,2.767599344E0
1.283182888E0,8.209258914E-1,-1.055421591E0,2.801807642E0
1.287937575E0,7.879391909E-1,-8.959859014E-1,2.836627007E0
1.292692263E0,7.164680362E-1,-7.371610999E-1,2.876333237E0
1.297446950E0,6.040689349E-1,-5.807796717E-1,2.917261124E0
1.302201638E0,4.586831033E-1,-4.231765866E-1,2.950247765E0
1.306956325E0,2.919169962E-1,-2.692386508E-1,2.976515055E0
1.311711013E0,1.208748668E-1,-1.287397593E-1,2.992397547E0
1.316465700E0,-4.833467677E-2,1.985310577E-3,2.997895241E0
1.321220388E0,-2.047160566E-1,1.107192412E-1,2.990564823E0
1.325975075E0,-3.348302543E-1,2.047924101E-1,2.967351913E0
1.330729763E0,-4.368446767E-1,3.055851161E-1,2.938641310E0
1.335484450E0,-5.077049732E-1,3.990474045E-1,2.913595915E0
1.340239138E0,-5.443568826E-1,4.857902229E-1,2.895880938E0
1.344993825E0,-5.474112034E-1,5.633700490E-1,2.882441759E0
1.349748513E0,-5.223657489E-1,6.171261668E-1,2.878165722E0
1.354503200E0,-4.679987729E-1,6.348412037E-1,2.892215729E0
1.359257888E0,-3.665952384E-1,6.470585465E-1,2.896491766E0
1.364012575E0,-2.322049737E-1,6.440041661E-1,2.891604900E0
1.368767263E0,-7.521272451E-2,6.183478832E-1,2.871446371E0
1.373521950E0,8.849903196E-2,5.768090487E-1,2.834794283E0
1.378276638E0,2.442695498E-1,5.401571989E-1,2.789590359E0
1.383031325E0,3.792706728E-1,5.285507441E-1,2.743164539E0
1.387786013E0,4.910589159E-1,5.334376693E-1,2.696738958E0
1.392540700E0,5.790234804E-1,5.377137065E-1,2.643593788E0
1.397295388E0,6.529380679E-1,5.254964232E-1,2.580063820E0
1.402050075E0,7.219657898E-1,5.016726851E-1,2.513479471E0
1.406804763E0,7.903826833E-1,4.760163724E-1,2.462777615E0
1.411559502E0,8.496365547E-1,4.613556266E-1,2.434067011E0
1.416314190E0,8.893427849E-1,4.583013058E-1,2.416962862E0
1.421068877E0,9.070578218E-1,4.637990892E-1,2.390695572E0
1.425823565E0,9.015600681E-1,4.809032977E-1,2.345491648E0
1.430578252E0,8.728494048E-1,5.114465356E-1,2.280129194E0
1.435332940E0,8.178715706E-1,5.743656158E-1,2.206214428E0
1.440087627E0,7.354048491E-1,6.470585465E-1,2.117639065E0
1.444842315E0,6.480512023E-1,7.484620810E-1,2.007072687E0
1.449597002E0,5.698604584E-1,8.816305995E-1,1.891008258E0
1.454351690E0,4.990001619E-1,1.000138402E0,1.761505008E0
1.459106377E0,4.446332157E-1,1.116202712E0,1.627114654E0
1.463861065E0,4.085921645E-1,1.237764716E0,1.505552649E0
1.468615752E0,3.963748813E-1,1.352607369E0,1.404149055E0
1.473370440E0,4.037052691E-1,1.463784695E0,1.318017125E0
1.478125127E0,4.269181192E-1,1.573129535E0,1.241048217E0
1.482879815E0,4.458549321E-1,1.633605123E0,1.161635756E0
1.487634502E0,4.452440739E-1,1.631772518E0,1.065119147E0
1.492389242E0,4.513527155E-1,1.610392332E0,9.606612325E-1
1.497143929E0,4.299724400E-1,1.518762589E0,8.458186388E-1
1.501898617E0,2.051742077E-1,1.270140648E0,7.126501203E-1
1.506653304E0,-3.488801420E-1,8.590285778E-1,5.587121844E-1
1.511407992E0,-1.113682866E0,4.283689260E-1,4.273762703E-1
1.516162679E0,-1.865657449E0,2.432768941E-1,3.601811528E-1
1.520917367E0,-2.489350319E0,2.780961990E-1,3.430769444E-1
1.525672054E0,-2.898018837E0,4.680751264E-1,3.577376902E-1
1.530426742E0,-3.083721876E0,7.551816106E-1,3.992764950E-1
1.535181429E0,-3.094717264E0,1.128419995E0,4.731911421E-1
1.539936117E0,-2.987816095E0,1.568853498E0,5.782598853E-1
1.544690804E0,-2.820439100E0,2.033110619E0,6.790525317E-1
1.549445492E0,-2.633514404E0,2.455218315E0,7.493020296E-1
1.554200231E0,-2.464915752E0,2.736216068E0,7.883973718E-1
1.558954919E0,-2.346407890E0,2.744768143E0,7.609084249E-1
1.563709606E0,-2.250502110E0,2.497978687E0,6.619483232E-1
1.568464294E0,-2.137492180E0,2.126573086E0,5.135082006E-1
1.573218981E0,-1.970726132E0,1.759443283E0,3.650680780E-1
1.577973669E0,-1.737375736E0,1.494938850E0,2.520580888E-1
1.582728356E0,-1.452101946E0,1.331837893E0,1.781434417E-1
1.587483044E0,-1.150334716E0,1.246316910E0,1.182786897E-1
1.592237731E0,-8.901063204E-1,1.151632786E0,8.468113095E-2
1.596992419E0,-6.921861768E-1,1.017853379E0,9.078978002E-2
1.601747106E0,-5.394699574E-1,8.498656154E-1,1.335503161E-1
1.606501794E0,-4.032471180E-1,6.818777919E-1,1.909715980E-1
1.611256533E0,-2.615264952E-1,5.377137065E-1,2.545015514E-1
1.616011221E0,-1.014799103E-1,4.454731345E-1,3.223075271E-1
1.620765908E0,6.956222653E-2,3.917170465E-1,3.797288239E-1
1.625520596E0,2.289979309E-1,3.568977416E-1,4.359283745E-1
1.630275283E0,3.615556061E-1,3.220784664E-1,4.957931340E-1
1.635029971E0,4.635699987E-1,3.043633699E-1,5.391645432E-1
1.639784658E0,5.393172503E-1,2.976438701E-1,5.495492220E-1
1.644539346E0,5.949059129E-1,2.933678031E-1,5.379427671E-1
1.649294033E0,6.449968219E-1,3.025307953E-1,5.122864842E-1
1.654048721E0,6.908116937E-1,3.336848915E-1,4.634172916E-1
1.658803461E0,7.323505282E-1,3.801106215E-1,3.931678534E-1
1.663558148E0,7.726675868E-1,4.216494262E-1,3.168097436E-1
1.668312836E0,8.123738170E-1,4.418079555E-1,2.502254844E-1
1.673067523E0,8.563560843E-1,4.295906425E-1,2.056323588E-1
1.677822211E0,8.887318969E-1,3.898844421E-1,1.909715980E-1
1.682576898E0,8.997274637E-1,3.318522871E-1,2.099084109E-1
1.687331586E0,8.820123672E-1,2.561050653E-1,2.648862302E-1
1.692086273E0,8.343649507E-1,1.815795600E-1,3.479638398E-1
1.696840961E0,7.439569235E-1,1.266017258E-1,4.395935535E-1
1.701595700E0,6.260600686E-1,1.070540547E-1,5.196168423E-1
1.706350388E0,4.770090282E-1,8.628465235E-2,6.106356978E-1
1.711105075E0,2.925278842E-1,4.902189970E-2,7.279217243E-1
1.715859763E0,9.582941234E-2,2.519817278E-2,8.977421522E-1
1.720614450E0,-6.360629201E-2,8.384118974E-2,1.126205564E0
1.725369138E0,-1.436295807E-1,2.603811026E-1,1.397429585E0
1.730123825E0,-4.161516204E-2,6.397281289E-1,1.655825377E0
1.734878513E0,1.208748668E-1,9.457713962E-1,1.719355226E0
1.739633252E0,2.082285285E-1,1.000749230E0,1.573969483E0
1.744387940E0,2.961930633E-1,8.064942360E-1,1.345506072E0
1.749142627E0,4.360810816E-1,4.051560760E-1,1.110934019E0
1.753897315E0,6.278926134E-1,-5.360338464E-2,8.965204358E-1
1.758652002E0,8.447496295E-1,-4.176788032E-1,7.236456871E-1
1.763406690E0,1.023733020E0,-5.936078429E-1,5.947532058E-1
1.768161377E0,1.103145480E0,-5.887209177E-1,5.061778426E-1
1.772916065E0,1.053054571E0,-4.757109582E-1,4.719693959E-1
1.777670804E0,8.936188221E-1,-3.193295598E-1,4.976257086E-1
1.782425492E0,6.950877905E-1,-1.366809905E-1,5.678751469E-1
1.787180179E0,5.112174749E-1,5.879573524E-2,6.711113453E-1
1.791934867E0,3.609447181E-1,2.530507445E-1,7.963386178E-1
1.796689554E0,2.387717664E-1,4.534143806E-1,9.264528155E-1
1.801444242E0,1.550832987E-1,6.623301506E-1,1.049236655E0
1.806198981E0,9.888373315E-2,8.516982198E-1,1.150640130E0
1.810953669E0,6.772962958E-2,9.946405888E-1,1.227609158E0
1.815708356E0,6.039925665E-2,1.088713765E0,1.269147992E0
1.820463044E0,7.689260691E-2,1.149189353E0,1.253876328E0
1.825217731E0,1.117118970E-1,1.182786942E0,1.184237719E0
1.829972419E0,1.587484777E-1,1.202334642E0,1.087721109E0
1.834727106E0,2.051742077E-1,1.165071845E0,1.003421783E0
1.839481846E0,2.289979309E-1,1.062446594E0,9.258419275E-1
1.844236533E0,2.351065874E-1,9.445496798E-1,8.610902429E-1
1.848991221E0,2.222784162E-1,8.303179741E-1,8.134428263E-1
1.853745908E0,1.923460513E-1,7.264709473E-1,7.798452377E-1
1.858500596E0,1.385899484E-1,6.488910913E-1,7.578541040E-1
1.863255283E0,6.650790572E-2,6.079631448E-1,7.419716120E-1
1.868009971E0,-8.017600514E-3,5.981893539E-1,7.321978211E-1
1.872764711E0,-7.399099320E-2,6.030762792E-1,7.285326123E-1
1.877519398E0,-1.369100660E-1,6.201804876E-1,7.340303659E-1
1.882274086E0,-2.096029818E-1,6.501128674E-1,7.401390672E-1
1.887028773E0,-2.987892330E-1,6.989820004E-1,7.547997832E-1
1.891783461E0,-4.044688344E-1,7.716749310E-1,7.755692005E-1
1.896538148E0,-5.187005401E-1,8.620828986E-1,7.908408046E-1
1.901292888E0,-6.323214173E-1,9.598212838E-1,7.938951254E-1
1.906047575E0,-7.392227650E-1,1.060003161E0,7.804561257E-1
1.910802263E0,-8.351284862E-1,1.146745920E0,7.407498956E-1
1.915556950E0,-9.218713045E-1,1.204778075E0,6.814960241E-1
1.920311638E0,-1.000061989E0,1.227990866E0,6.265181899E-1
1.925066377E0,-1.074587464E0,1.229212642E0,5.758163929E-1
1.929821065E0,-1.147891283E0,1.212719321E0,5.306124091E-1
1.934575752E0,-1.215086460E0,1.185841203E0,4.860192835E-1
1.939330440E0,-1.271896839E0,1.146745920E0,4.395935535E-1
1.944085127E0,-1.314046502E0,1.097876668E0,3.937787116E-1
1.948839815E0,-1.334815860E0,1.050840139E0,3.546833694E-1
1.953594554E0,-1.341535449E0,9.976949096E-1,3.186423481E-1
1.958349242E0,-1.336648464E0,9.372192621E-1,2.984837890E-1
1.963103929E0,-1.332983255E0,8.694133162E-1,2.997055352E-1
1.967858617E0,-1.334205031E0,8.064942360E-1,3.229183853E-1
1.972613304E0,-1.343368053E0,7.564033270E-1,3.504073024E-1
1.977367992E0,-1.364748240E0,7.258600593E-1,3.736201823E-1
1.982122731E0,-1.392848015E0,7.124210596E-1,3.870591819E-1
1.986877419E0,-1.417282701E0,7.234166265E-1,3.937787116E-1
1.991632106E0,-1.435608625E0,7.582359314E-1,3.962221742E-1
1.996386794E0,-1.460654020E0,8.266527653E-1,3.986656368E-1
2.001141481E0,-1.509523273E0,9.066760540E-1,3.974438906E-1
2.005896221E0,-1.584659576E0,9.775363803E-1,3.840048611E-1
2.010650908E0,-1.659796000E0,1.027627230E0,3.577376902E-1
2.015405596E0,-1.717828155E0,1.048396707E0,3.198640645E-1
2.020160283E0,-1.742262721E0,1.035568476E0,2.764926851E-1
2.024914971E0,-1.725158453E0,9.818124175E-1,2.318995446E-1
2.029669658E0,-1.664682865E0,8.907935619E-1,1.915824711E-1
2.034424398E0,-1.566333652E0,7.796161771E-1,1.555414498E-1
2.039179086E0,-1.442328095E0,6.586649418E-1,1.201112866E-1
2.043933773E0,-1.325652957E0,5.285507441E-1,8.468113095E-2
2.048688461E0,-1.237077594E0,4.027126133E-1,5.780307949E-2
2.053443148E0,-1.149723887E0,2.903134823E-1,6.513345987E-2
2.058197888E0,-1.045266032E0,2.072358727E-1,1.091157198E-1
2.062952575E0,-9.285908341E-1,1.803578287E-1,1.787542999E-1
2.067707263E0,-8.003092408E-1,2.225074917E-1,2.618319094E-1
2.072461950E0,-7.062360644E-1,3.452913165E-1,3.296379149E-1
2.077216690E0,-6.726384759E-1,5.371028781E-1,3.711767197E-1
2.081971377E0,-6.775254011E-1,7.576250434E-1,3.858374655E-1
2.086726065E0,-6.781362891E-1,9.335541129E-1,3.772853613E-1
2.091480752E0,-7.288380265E-1,1.030681610E0,3.479638398E-1
2.096235440E0,-7.740420103E-1,1.066111803E0,3.155880272E-1
2.100990179E0,-5.590176582E-1,8.791871071E-1,3.076467812E-1
2.105744867E0,-4.352411721E-3,4.008800089E-1,3.394117355E-1
2.110499554E0,5.515345335E-1,-9.330959618E-2,3.846157491E-1
2.115254242E0,1.013959169E0,-5.600103140E-1,3.998873532E-1
2.120008981E0,1.368871570E0,-9.216422439E-1,3.736201823E-1
2.124763669E0,1.573511362E0,-1.122005939E0,3.363574147E-1
2.129518356E0,1.611995816E0,-1.148273110E0,3.137554228E-1
2.134273044E0,1.434844971E0,-9.534072280E-1,3.125337064E-1
2.139027731E0,1.070158720E0,-5.746710300E-1,3.125337064E-1
2.143782471E0,6.651554108E-1,-1.153007299E-1,3.021489978E-1
2.148537158E0,4.776198864E-1,1.779143661E-1,2.703840137E-1
2.153291846E0,3.029125631E-1,4.473057389E-1,1.879172772E-1
2.158046533E0,-7.338013500E-2,8.626937866E-1,5.963567272E-2
2.162801221E0,-5.174788237E-1,1.314122915E0,-8.452841640E-2
2.167555961E0,-9.237039089E-1,1.651320219E0,-2.378554791E-1
2.172310648E0,-1.240742683E0,1.788764834E0,-3.942368627E-1
2.177065336E0,-1.429499984E0,1.777769208E0,-5.335140228E-1
2.181820023E0,-1.497916818E0,1.648876786E0,-6.666825414E-1
2.186574763E0,-1.494862437E0,1.427132845E0,-7.851903439E-1
2.191329450E0,-1.451491117E0,1.151632786E0,-9.030871987E-1
2.196084138E0,-1.369024277E0,8.242093325E-1,-1.029536247E0
2.200838825E0,-1.253570914E0,4.595230222E-1,-1.157817841E0
2.205593513E0,-1.125289321E0,1.137735620E-1,-1.260443091E0
2.210348252E0,-1.001894593E0,-1.568395346E-1,-1.325194836E0
2.215102940E0,-8.894954920E-1,-3.309359848E-1,-1.352072835E0
2.219857627E0,-8.045852780E-1,-4.256200492E-1,-1.345353365E0
2.224612315E0,-7.544943690E-1,-4.689914286E-1,-1.310534000E0
2.229367054E0,-7.428879142E-1,-4.592176080E-1,-1.279379964E0
2.234121742E0,-7.752637863E-1,-3.706422150E-1,-1.275103927E0
2.238876429E0,-8.577305079E-1,-1.953240186E-1,-1.302592754E0
2.243631117E0,-9.713513851E-1,4.169152305E-2,-1.366733551E0
2.248385856E0,-1.078863502E0,2.628245652E-1,-1.454698086E0
2.253140544E0,-1.146669507E0,4.222602844E-1,-1.520060658E0
2.257895231E0,-1.205312610E0,5.132791400E-1,-1.549993038E0
2.262649919E0,-1.259068727E0,5.597048402E-1,-1.552436471E0
2.267404658E0,-1.280448914E0,5.963567495E-1,-1.565875530E0
2.272159346E0,-1.255403519E0,6.305651665E-1,-1.617188096E0
2.276914033E0,-1.234634042E0,6.580541134E-1,-1.700265765E0
2.281668721E0,-1.297553182E0,6.287325621E-1,-1.777234674E0
2.286423461E0,-1.424002171E0,5.157225728E-1,-1.800447583E0
2.291178148E0,-1.506468892E0,3.538434207E-1,-1.759519696E0
2.295932836E0,-1.526016593E0,1.632536054E-1,-1.666057348E0
2.300687575E0,-1.445382476E0,4.718930274E-2,-1.582368851E0
2.305442263E0,-1.289611936E0,-1.069013379E-3,-1.520671487E0
2.310196950E0,-1.105130792E0,-1.206457894E-2,-1.479132652E0
2.314951638E0,-9.194278717E-1,-4.871646687E-2,-1.443091631E0
2.319706377E0,-7.410553098E-1,-1.892153621E-1,-1.400331140E0
2.324461065E0,-5.987238288E-1,-3.785834610E-1,-1.351462007E0
2.329215752E0,-4.667770565E-1,-5.386300087E-1,-1.316031814E0
2.333970440E0,-3.409388959E-1,-7.115047574E-1,-1.302592754E0
2.338725179E0,-1.833357960E-1,-8.129082918E-1,-1.281212568E0
2.343479867E0,1.763872057E-2,-8.165735006E-1,-1.236619353E0
2.348234554E0,1.789070219E-1,-8.984293938E-1,-1.203021884E0
2.352989294E0,2.497673333E-1,-1.054199934E0,-1.155985236E0
2.357743981E0,2.955822051E-1,-1.110399485E0,-1.033812284E0
2.362498669E0,3.371210098E-1,-1.143386126E0,-9.165262580E-1
2.367253356E0,3.652207851E-1,-1.115897179E0,-8.371137977E-1
2.372008096E0,3.786598146E-1,-9.980003238E-1,-7.528144717E-1
2.376762783E0,3.530034721E-1,-9.149227142E-1,-6.929497123E-1
2.381517471E0,2.870301008E-1,-8.342885971E-1,-6.275871992E-1
2.386272158E0,1.996764243E-1,-8.049670458E-1,-5.329031348E-1
2.391026898E0,1.666897237E-1,-8.544471264E-1,-3.991237879E-1
2.395781586E0,3.041343093E-1,-1.027932763E0,-3.099375069E-1
2.400536273E0,4.623482823E-1,-1.176983714E0,-3.704131246E-1
2.405291013E0,5.325977206E-1,-1.214246511E0,-5.054142475E-1
2.410045700E0,6.120101213E-1,-1.261893868E0,-5.781071782E-1
2.414800388E0,6.883682609E-1,-1.315039158E0,-6.055960655E-1
2.419555127E0,7.482330203E-1,-1.335197687E0,-6.037634611E-1
2.424309815E0,7.842740417E-1,-1.311373949E0,-5.793288946E-1
2.429064502E0,7.928261161E-1,-1.250898361E0,-5.322923064E-1
2.433819190E0,7.891609073E-1,-1.197753072E0,-4.614319801E-1
2.438573929E0,7.696132660E-1,-1.173929334E0,-3.930151165E-1
2.443328617E0,7.011964321E-1,-1.143386126E0,-3.630827665E-1
2.448083304E0,6.278926134E-1,-1.123838425E0,-3.496437371E-1
2.452838044E0,5.588648915E-1,-1.077412724E0,-3.698022664E-1
2.457592731E0,4.635699987E-1,-9.656245112E-1,-4.058432877E-1
2.462347419E0,3.297906220E-1,-8.098539710E-1,-4.192823172E-1
2.467102158E0,1.618028134E-1,-6.546943188E-1,-3.930151165E-1
2.471856846E0,-1.779143699E-2,-5.025889874E-1,-3.410916328E-1
2.476611533E0,-1.711184978E-1,-3.486510813E-1,-2.690095901E-1
2.481366221E0,-2.951240540E-1,-1.837175786E-1,-1.847102344E-1
2.486120961E0,-3.959167302E-1,-1.450803876E-2,-7.414371520E-2
2.490875648E0,-4.820486605E-1,1.351538301E-1,6.330086291E-2
2.495630336E0,-5.565741658E-1,2.359465212E-1,2.172387838E-1
2.500385075E0,-6.304888129E-1,3.306305707E-1,3.785070777E-1
2.505139763E0,-6.824123263E-1,3.862192631E-1,5.373319387E-1
2.509894450E0,-7.117338181E-1,3.691150546E-1,6.882155538E-1
2.514649190E0,-7.215076685E-1,3.116937578E-1,8.427643180E-1
2.519403877E0,-7.141773105E-1,2.353356630E-1,1.011973858E0
2.524158565E0,-6.640864015E-1,1.638644785E-1,1.192178965E0
2.528913304E0,-5.828413367E-1,6.185005978E-2,1.382768750E0
2.533667992E0,-4.979311526E-1,-7.864884287E-2,1.574580312E0
2.538422679E0,-4.008036554E-1,-1.843284518E-1,1.734016061E0
2.543177419E0,-3.103956580E-1,-2.283107042E-1,1.861075878E0
2.547932106E0,-2.346484363E-1,-2.240346521E-1,1.962479472E0
2.552686846E0,-1.454621702E-1,-1.861610413E-1,2.036394119E0
2.557441533E0,-3.061959706E-2,-1.372918636E-1,2.071213484E0
2.562196221E0,1.049923822E-1,-9.269873053E-2,2.066326380E0
2.566950961E0,2.632063627E-1,-5.604684353E-2,2.007683516E0
2.571705648E0,4.599048197E-1,-4.123337101E-3,1.875125766E0
2.576460336E0,6.419425011E-1,4.780016840E-2,1.674151301E0
2.581215075E0,7.812197208E-1,9.300415963E-2,1.456683397E0
2.585969763E0,8.789580464E-1,1.015562713E-1,1.269758821E0
2.590724450E0,9.479857683E-1,-4.734201822E-3,1.147585869E0
2.595479190E0,9.174425602E-1,-1.953240186E-1,1.072449446E0
2.600233877E0,7.164680362E-1,-2.820668221E-1,1.017471671E0
2.604988565E0,5.258781910E-1,-3.028362095E-1,1.000978351E0
2.609743304E0,3.737728894E-1,-3.071122766E-1,1.033354163E0
2.614497992E0,2.570977211E-1,-2.930623889E-1,1.112155676E0
2.619252679E0,1.673005968E-1,-2.539670467E-1,1.214170098E0
2.624007419E0,9.277509153E-2,-1.928805560E-1,1.319238901E0
2.628762106E0,2.435823344E-2,-9.086613357E-2,1.424918413E0
2.633516846E0,-3.428478539E-2,4.780016840E-2,1.508606911E0
2.638271533E0,-9.231694043E-2,1.730274558E-1,1.547091365E0
2.643026221E0,-1.582903415E-1,2.506072819E-1,1.544037104E0
2.647780961E0,-2.242637277E-1,2.701549530E-1,1.517769933E0
2.652535648E0,-2.859610617E-1,2.622137070E-1,1.487837553E0
2.657290336E0,-3.427715003E-1,2.249509543E-1,1.459126830E0
2.662045075E0,-3.965275884E-1,1.101083755E-1,1.432859659E0
2.666799763E0,-4.344012141E-1,7.483093534E-3,1.409646869E0
2.671554502E0,-4.527271688E-1,-6.643154472E-2,1.408425093E0
2.676309190E0,-4.466184974E-1,-1.024725661E-1,1.432859659E0
2.681063877E0,-4.172970057E-1,-9.453132749E-2,1.475009322E0
2.685818617E0,-3.702604175E-1,-6.154462695E-2,1.521435142E0
2.690573304E0,-3.171151876E-1,-2.489273995E-2,1.576412916E0
2.695327992E0,-2.554178238E-1,-4.734201822E-3,1.644218922E0
2.700082731E0,-1.857792437E-1,-2.306014486E-2,1.728518248E0
2.704837419E0,-1.136972085E-1,-8.475748450E-2,1.825645804E0
2.709592158E0,-4.711294547E-2,-1.696676910E-1,1.915442824E0
2.714346846E0,1.756236190E-3,-2.527453005E-1,1.961257696E0
2.719101533E0,1.947131567E-2,-2.692386508E-1,1.977140188E0
2.723856273E0,-5.574141163E-3,-1.525634825E-1,1.995466113E0
2.728610961E0,-6.177370250E-2,-1.511890348E-2,1.982027173E0
2.733365700E0,-1.259144992E-1,9.605848789E-2,1.931936264E0
2.738120388E0,-1.851683855E-1,1.950185746E-1,1.867795467E0
2.742875127E0,-2.315941155E-1,2.671006322E-1,1.798156857E0
2.747629815E0,-2.664133906E-1,2.994764447E-1,1.725463986E0
2.752384502E0,-2.951240540E-1,2.738201320E-1,1.648494959E0
2.757139242E0,-3.042870164E-1,1.882990748E-1,1.577023745E0
2.761893929E0,-2.774089575E-1,5.879573524E-2,1.534263253E0
2.766648669E0,-2.413679510E-1,-1.110246703E-1,1.535485029E0
2.771403356E0,-2.548069656E-1,-3.523162603E-1,1.584354162E0
2.776158044E0,-3.201695085E-1,-6.064360142E-1,1.667431831E0
2.780912783E0,-4.111883640E-1,-7.841976881E-1,1.781052589E0
2.785667471E0,-4.869355857E-1,-8.941532969E-1,1.919108033E0
2.790422211E0,-5.083158612E-1,-1.062141180E0,2.054109097E0
2.795176898E0,-4.673879147E-1,-1.245400548E0,2.208047152E0
2.799931638E0,-3.659843504E-1,-1.393229842E0,2.400469542E0
2.804686325E0,-2.193768173E-1,-1.479972601E0,2.627711296E0
2.809441065E0,-4.528035223E-2,-1.505018115E0,2.865948439E0
2.814195752E0,1.636354029E-1,-1.573434949E0,3.066312075E0
2.818950492E0,4.092030525E-1,-1.655901670E0,3.220250130E0
2.823705179E0,6.737074852E-1,-1.682168841E0,3.321653605E0
2.828459867E0,9.608139396E-1,-1.586263061E0,3.343033791E0
2.833214606E0,1.260137677E0,-1.399949312E0,3.270951748E0
2.837969294E0,1.546022415E0,-1.263726473E0,3.158552647E0
2.842724033E0,1.797698736E0,-1.139110088E0,3.013777733E0
2.847478721E0,1.998673201E0,-9.815070033E-1,2.840292215E0
2.852233461E0,2.154443741E0,-7.646499872E-1,2.678412914E0
2.856988148E0,2.271118879E0,-4.897608459E-1,2.553185701E0
2.861742888E0,2.362137794E0,-1.488982886E-1,2.453614712E0
2.866497575E0,2.446437120E0,2.475529462E-1,2.343048334E0
2.871252315E0,2.505079985E0,5.371028781E-1,2.167730093E0
2.876007002E0,2.498360634E0,5.584831238E-1,1.906279922E0
2.880761742E0,2.420780659E0,3.275762498E-1,1.590462804E0
2.885516429E0,2.283336163E0,-9.880737960E-2,1.278310895E0
2.890271169E0,2.076864004E0,-5.343539715E-1,9.930370450E-1
2.895025856E0,1.844124436E0,-8.397863507E-1,7.609084249E-1
2.899780596E0,1.632765174E0,-1.007163286E0,5.709294677E-1
2.904535283E0,1.455614448E0,-1.060308576E0,4.334849119E-1
2.909290023E0,1.293735266E0,-1.037706494E0,3.852266073E-1
2.914044711E0,1.114140987E0,-1.011439323E0,3.754527569E-1
2.918799450E0,8.875101805E-1,-9.845613241E-1,3.559050858E-1
2.923554138E0,6.346121430E-1,-9.460768104E-1,3.638463318E-1
2.928308877E0,3.866010606E-1,-8.990402222E-1,4.218784869E-1
2.933063565E0,1.752418280E-1,-8.312342763E-1,5.098429918E-1
2.937818304E0,1.763872057E-2,-7.524327040E-1,5.959749222E-1
2.942572992E0,-7.765618712E-2,-6.785180569E-1,6.784417033E-1
2.947327731E0,-1.228601784E-1,-5.997164845E-1,7.431933880E-1
2.952082419E0,-1.454621702E-1,-4.812087417E-1,7.957277298E-1
2.956837158E0,-1.668424457E-1,-3.205513060E-1,8.702532649E-1
2.961591846E0,-1.882227063E-1,-1.391244531E-1,9.747111201E-1
2.966346586E0,-2.169333547E-1,6.123919412E-2,1.096884012E0
2.971101273E0,-2.633590698E-1,3.104720116E-1,1.224554777E0
2.975856013E0,-3.476584256E-1,6.531671882E-1,1.352225542E0
2.980610700E0,-4.832704067E-1,1.067333460E0,1.476841927E0
2.985365440E0,-6.372083426E-1,1.425300241E0,1.584964991E0
2.990120260E0,-7.911462188E-1,1.689804673E0,1.680870771E0
2.994874948E0,-9.371429086E-1,1.844964385E0,1.772500515E0
2.999629687E0,-1.075198412E0,1.857181668E0,1.876347542E0
3.004384375E0,-1.216918945E0,1.754556417E0,1.993022680E0
3.009139114E0,-1.360472202E0,1.561523080E0,2.057774305E0
3.013893802E0,-1.513188362E0,1.333670497E0,2.060828686E0
3.018648542E0,-1.624976635E0,1.141248107E0,1.977751136E0
3.023403229E0,-1.653687358E0,8.700241446E-1,1.781052589E0
3.028157969E0,-1.640248299E0,5.230529904E-1,1.514715552E0
3.032912708E0,-1.615202785E0,2.444986254E-1,1.203785419E0
3.037667396E0,-1.598709464E0,6.246092543E-2,8.843031526E-1
3.042422135E0,-1.583437920E0,3.817904973E-3,5.941423774E-1
3.047176823E0,-1.571220517E0,5.146535859E-2,2.960403562E-1
3.051931562E0,-1.571831465E0,2.261726856E-1,-3.932442144E-2
3.056686250E0,-1.546175122E0,4.143190384E-1,-3.911825418E-1
3.061440989E0,-1.478979945E0,5.542070866E-1,-7.173843384E-1
3.066195729E0,-1.354974389E0,6.262891293E-1,-9.843322635E-1
3.070950417E0,-1.178434491E0,6.653844714E-1,-1.151098371E0
3.075705156E0,-9.597449303E-1,7.203623056E-1,-1.210352182E0
3.080459844E0,-7.092903852E-1,8.071050644E-1,-1.184085011E0
3.085214583E0,-4.295142889E-1,9.176716208E-1,-1.072907686E0
3.089969271E0,-1.509599537E-1,1.047174931E0,-8.939242363E-1
3.094724010E0,1.141553521E-1,1.176067472E0,-6.746237874E-1
3.099478750E0,3.694968224E-1,1.286023021E0,-4.369973838E-1
3.104233437E0,6.156753302E-1,1.362381220E0,-2.024253160E-1
3.108988177E0,8.459713459E-1,1.409417748E0,1.870773360E-2
3.113742917E0,1.063439250E0,1.425300241E0,2.178496569E-1
3.118497604E0,1.258915901E0,1.399643898E0,3.925569654E-1
3.123252344E0,1.433012366E0,1.314733744E0,5.373319387E-1
3.128007031E0,1.582063437E0,1.163239241E0,6.601157784E-1
3.132761771E0,1.705458164E0,9.616538882E-1,7.743474841E-1
3.137516510E0,1.806861639E0,7.209731340E-1,8.879683018E-1
3.142271198E0,1.881387115E0,4.570795596E-1,1.016860843E0
3.147025937E0,1.925369382E0,1.889099330E-1,1.162246585E0
3.151780625E0,1.935143232E0,-7.192932814E-2,1.324736595E0
3.156535364E0,1.916817307E0,-3.168860972E-1,1.507385254E0
3.161290104E0,1.877111077E0,-5.477929711E-1,1.707137942E0
3.166044792E0,1.823354959E0,-7.664825916E-1,1.920940638E0
3.170799531E0,1.761657715E0,-9.821178317E-1,2.141462803E0
3.175554271E0,1.695073366E0,-1.197753072E0,2.360763311E0
3.180308958E0,1.620547891E0,-1.401781917E0,2.573955059E0
3.185063698E0,1.539913774E0,-1.577710986E0,2.774929523E0
3.189818437E0,1.460501313E0,-1.698662281E0,2.958799839E0
3.194573125E0,1.384143233E0,-1.738979340E0,3.127398491E0
3.199327864E0,1.313282967E0,-1.729816318E0,3.269119263E0
3.204082604E0,1.249752998E0,-1.696829677E0,3.383350849E0
3.208837292E0,1.199051261E0,-1.652236462E0,3.465206861E0
3.213592031E0,1.158734083E0,-1.599702120E0,3.512854338E0
3.218346771E0,1.120860457E0,-1.524565816E0,3.508578300E0
3.223101458E0,1.081765175E0,-1.423773050E0,3.448102713E0
3.227856198E0,1.042058945E0,-1.315649986E0,3.335703373E0
3.232610937E0,9.968549609E-1,-1.203861713E0,3.182376385E0
3.237365625E0,9.424880147E-1,-1.063973784E0,2.986899614E0
3.242120364E0,8.722385764E-1,-7.603739500E-1,2.757825375E0
3.246875104E0,6.963095069E-1,3.550651670E-1,2.456058264E0
3.251629792E0,3.163515925E-1,2.672075272E0,2.050443888E0
3.256384531E0,-1.094211563E-1,5.041619778E0,1.637499452E0
3.261139271E0,-4.050796926E-1,6.322603226E0,1.337564826E0
3.265893958E0,-5.920043588E-1,6.602990150E0,1.170187831E0
3.270648698E0,-7.300597429E-1,6.285951138E0,1.098105788E0
3.275403437E0,-8.442915082E-1,5.640878201E0,1.086499333E0
3.280158177E0,-9.450841546E-1,4.832093239E0,1.109101415E0
3.284912864E0,-1.036713839E0,3.966497660E0,1.143309832E0
3.289667604E0,-1.125900149E0,3.120450020E0,1.167744398E0
3.294422344E0,-1.220584154E0,2.364199400E0,1.171409607E0
3.299177031E0,-1.341535449E0,1.785099626E0,1.138422847E0
3.303931771E0,-1.497305989E0,1.447902203E0,1.062064767E0
3.308686510E0,-1.670180678E0,1.330616236E0,9.441678524E-1
3.313441250E0,-1.797240496E0,1.393535256E0,7.969494462E-1
3.318195937E0,-1.788688421E0,1.585957646E0,6.466767192E-1
3.322950677E0,-1.624365807E0,1.768606305E0,5.171734095E-1
3.327705417E0,-1.354363561E0,1.819308043E0,4.188241661E-1
3.332460156E0,-1.029994369E0,1.711184978E0,3.351356983E-1
3.337214844E0,-7.013491392E-1,1.474169374E0,2.459494323E-1
3.341969583E0,-4.185187221E-1,1.149800181E0,1.402698308E-1
3.346724323E0,-2.322049737E-1,7.991638184E-1,-6.948587019E-3
3.351479010E0,-1.760054082E-1,4.729620516E-1,-1.865428388E-1
3.356233750E0,-2.456440032E-1,1.956294477E-1,-3.636936247E-1
3.360988489E0,-3.946950138E-1,-2.183841541E-2,-5.029708147E-1
3.365743229E0,-5.663480163E-1,-1.757763475E-1,-5.915461779E-1
3.370497917E0,-7.166207433E-1,-2.655734718E-1,-6.373610497E-1
3.375252656E0,-8.271872401E-1,-2.814559340E-1,-6.556869745E-1
3.380007396E0,-9.065997005E-1,-2.289215773E-1,-6.550761461E-1
3.384762135E0,-9.762382507E-1,-1.342375278E-1,-6.495783329E-1
3.389516823E0,-1.064813614E0,-2.428187430E-2,-6.532435417E-1
3.394271562E0,-1.205923438E0,7.284562290E-2,-6.807324290E-1
3.399026302E0,-1.423391342E0,1.412624866E-1,-7.344885468E-1
3.403781042E0,-1.700113058E0,1.821904182E-1,-8.084031940E-1
3.408535729E0,-1.947513223E0,2.151771188E-1,-9.012545943E-1
3.413290469E0,-2.095953465E0,2.683223486E-1,-1.004490733E0
3.418045208E0,-2.128940105E0,3.135263622E-1,-1.116889834E0
3.422799948E0,-2.066020966E0,2.842048407E-1,-1.257999659E0
3.427554687E0,-1.949345827E0,1.094975099E-1,-1.431485295E0
3.432309375E0,-1.813733935E0,-2.154825479E-1,-1.624518514E0
3.437064114E0,-1.669569850E0,-6.180424690E-1,-1.820606112E0
3.441818854E0,-1.524183989E0,-9.900590777E-1,-2.013028622E0
3.446573594E0,-1.396513224E0,-1.242346287E0,-2.196287870E0
3.451328281E0,-1.293887973E0,-1.352912784E0,-2.372827768E0
3.456083021E0,-1.205312610E0,-1.365740895E0,-2.549978733E0
3.460837760E0,-1.110017657E0,-1.357799649E0,-2.722853422E0
3.465592500E0,-9.927316308E-1,-1.388953805E0,-2.885343313E0
3.470347239E0,-8.491783738E-1,-1.484859586E0,-3.040503025E0
3.475101979E0,-6.952404976E-1,-1.630245328E0,-3.198106289E0
3.479856667E0,-5.468003154E-1,-1.778074622E0,-3.367315769E0
3.484611406E0,-4.130209386E-1,-1.877034783E0,-3.548131704E0
3.489366146E0,-2.890154123E-1,-1.888030291E0,-3.733223677E0
3.494120885E0,-1.625663936E-1,-1.807396173E0,-3.913428783E0
3.498875625E0,-3.428478539E-2,-1.651014805E0,-4.073475361E0
3.503630312E0,6.528617442E-2,-1.404225469E0,-4.174268246E0
3.508385052E0,6.772962958E-2,-9.717331529E-1,-4.180987835E0
3.513139792E0,-2.756527252E-2,-4.500546157E-1,-4.112570763E0
3.517894531E0,-1.906661689E-1,3.375028074E-2,-4.020941257E0
3.522649271E0,-4.105774760E-1,4.918988645E-1,-3.910374641E0
3.527404010E0,-7.099012136E-1,9.726494551E-1,-3.766821384E0
3.532158698E0,-1.103909016E0,1.432630658E0,-3.583561897E0
3.536913437E0,-1.580994368E0,1.830914497E0,-3.376478672E0
3.541668177E0,-2.095953465E0,2.174831390E0,-3.185277939E0
3.546422917E0,-2.561432362E0,2.502254963E0,-3.050276995E0
3.551177656E0,-2.905960083E0,2.808298111E0,-2.983692646E0
3.555932396E0,-3.113654137E0,3.131445646E0,-2.959258080E0
3.560687083E0,-3.194899082E0,3.485747099E0,-2.938488722E0
3.565441823E0,-3.163134098E0,3.842492104E0,-2.903669357E0
3.570196562E0,-2.978652954E0,4.249328136E0,-2.850524187E0
3.574951302E0,-2.587088585E0,4.731911182E0,-2.765614033E0
3.579706042E0,-2.089233875E0,5.059945583E0,-2.666043043E0
3.584460781E0,-1.620700598E0,5.014130592E0,-2.571358919E0
3.589215521E0,-1.219973326E0,4.589579582E0,-2.477896690E0
3.593970208E0,-8.601739407E-1,3.931678534E0,-2.359999657E0
3.598724948E0,-5.144245028E-1,3.196808100E0,-2.193844557E0
3.603479687E0,-1.705076247E-1,2.464381218E0,-1.976376653E0
3.608234427E0,1.477529258E-1,1.786932230E0,-1.721646070E0
3.612989167E0,4.147008359E-1,1.201112866E0,-1.474245787E0
3.617743906E0,6.370556355E-1,6.879864335E-1,-1.273882151E0
3.622498646E0,8.227584958E-1,2.005163580E-1,-1.110781193E0
3.627253385E0,9.577596188E-1,-2.570213675E-1,-9.757801294E-1
3.632008073E0,1.047556758E0,-6.772963405E-1,-8.432224989E-1
3.636762812E0,1.085430384E0,-1.025489211E0,-7.106648088E-1
3.641517552E0,1.062217474E0,-1.255174398E0,-5.805506110E-1
3.646272292E0,9.889137149E-1,-1.332143426E0,-4.589885175E-1
3.651027031E0,8.972840309E-1,-1.261893868E0,-3.514763117E-1
3.655781771E0,8.209258914E-1,-1.104901671E0,-2.586248815E-1
3.660536510E0,7.757219076E-1,-9.289726019E-1,-1.938732117E-1
3.665291250E0,7.555633783E-1,-7.683151960E-1,-1.724929363E-1
3.670045989E0,7.555633783E-1,-6.369792223E-1,-1.957058012E-1
3.674800677E0,7.696132660E-1,-5.392408967E-1,-2.604574561E-1
3.679555417E0,7.867174745E-1,-4.653262496E-1,-3.606393039E-1
3.684310156E0,7.989347577E-1,-4.024071693E-1,-4.925860763E-1
3.689064896E0,8.007673621E-1,-3.382663727E-1,-6.422479749E-1
3.693819635E0,7.934370041E-1,-2.729038298E-1,-7.992402315E-1
3.698574375E0,7.824414372E-1,-2.044869810E-1,-9.464586377E-1
3.703329114E0,7.696132660E-1,-1.342375278E-1,-1.057025194E0
3.708083854E0,7.488438487E-1,-4.810560122E-2,-1.105894327E0
3.712838594E0,7.213549614E-1,7.589995116E-2,-1.094287872E0
3.717593333E0,6.956986189E-1,2.176205814E-1,-1.031979680E0
3.722348073E0,6.804270148E-1,3.562868834E-1,-9.379065037E-1
3.727102812E0,6.792052984E-1,4.809032977E-1,-8.248965144E-1
3.731857500E0,6.969203353E-1,5.639809370E-1,-7.015018463E-1
3.736612292E0,7.286853194E-1,5.939132571E-1,-5.713876486E-1
3.741366979E0,7.671698332E-1,5.731438994E-1,-4.382191300E-1
3.746121719E0,8.135955334E-1,5.041161776E-1,-3.038288653E-1
3.750876458E0,8.600212336E-1,4.027126133E-1,-1.663842946E-1
3.755631198E0,9.046143889E-1,2.787070572E-1,-3.077231348E-2
3.760385937E0,9.455423355E-1,1.412624866E-1,1.005636156E-1
3.765140677E0,9.797507524E-1,-2.290742937E-3,2.233474404E-1
3.769895417E0,1.002352715E0,-1.488982886E-1,3.381900191E-1
3.774650156E0,1.014569998E0,-2.961167097E-1,4.450913370E-1
3.779404896E0,1.013959169E0,-4.366155863E-1,5.495492220E-1
3.784159635E0,1.002963662E0,-5.642863512E-1,6.521745324E-1
3.788914375E0,9.846376777E-1,-6.705768108E-1,7.499128580E-1
3.793669114E0,9.602030516E-1,-7.518218160E-1,8.500946760E-1
3.798423854E0,9.339358807E-1,-8.049670458E-1,9.514982700E-1
3.803178594E0,9.033926725E-1,-8.269581795E-1,1.054123521E0
3.807933333E0,8.642973304E-1,-8.110756874E-1,1.156748772E0
3.812688073E0,8.135955334E-1,-7.744238377E-1,1.262428403E0
3.817442812E0,7.470112443E-1,-7.188351154E-1,1.363221169E0
3.822197552E0,6.657662392E-1,-6.546943188E-1,1.455461740E0
3.826952292E0,5.723039508E-1,-5.948295593E-1,1.517769933E0
3.831707031E0,4.611265361E-1,-5.410735011E-1,1.541593671E0
3.836461771E0,3.169624507E-1,-5.044215918E-1,1.532430649E0
3.841216458E0,1.312595755E-1,-4.732674956E-1,1.501887441E0
3.845971250E0,-7.704532146E-2,-4.347830117E-1,1.460348606E0
3.850725937E0,-2.664133906E-1,-3.730856776E-1,1.410868526E0
3.855480729E0,-4.191296101E-1,-2.936732471E-1,1.349782109E0
3.860235469E0,-5.468003154E-1,-2.570213675E-1,1.268537045E0
3.864990208E0,-6.549233794E-1,-3.388772309E-1,1.173853040E0
3.869744948E0,-7.147881389E-1,-5.722275972E-1,1.073060393E0
3.874499635E0,-6.775254011E-1,-9.607375860E-1,9.832631946E-1
3.879254427E0,-4.887681901E-1,-1.496466041E0,9.398918152E-1
3.884009114E0,-1.411861181E-1,-2.114661217E0,9.637155533E-1
3.888763854E0,3.383427262E-1,-2.691928387E0,1.061453938E0
3.893518594E0,9.070578218E-1,-3.143968344E0,1.219057083E0
3.898273333E0,1.495931506E0,-3.408472776E0,1.407814264E0
3.903028073E0,1.998062372E0,-3.442681074E0,1.586186767E0
3.907782864E0,2.319988012E0,-3.247815371E0,1.707748890E0
3.912537604E0,2.434830666E0,-2.792721033E0,1.712024927E0
3.917292344E0,2.332816124E0,-2.076787472E0,1.596571445E0
3.922047083E0,2.051818371E0,-1.162322998E0,1.431027055E0
3.926801823E0,1.656588912E0,-2.118173689E-1,1.306410670E0
3.931556562E0,1.208824992E0,6.061306000E-1,1.242880702E0
3.936311302E0,7.818305492E-1,1.245705962E0,1.168355227E0
3.941066042E0,4.391354322E-1,1.784488678E0,1.003421783E0
3.945820781E0,2.210566849E-1,2.330601931E0,7.193696499E-1
3.950575521E0,1.178205460E-1,2.885877848E0,3.320813775E-1
3.955330260E0,1.086575761E-1,3.407556534E0,-6.986765563E-2
3.960085000E0,1.740200967E-1,3.895026445E0,-3.832412958E-1
3.964839739E0,2.900844216E-1,4.355007648E0,-5.805506110E-1
3.969594479E0,4.324159026E-1,4.724580765E0,-6.850084662E-1
3.974349219E0,5.784125924E-1,4.952433586E0,-7.234929800E-1
3.979103958E0,7.042507529E-1,5.034900188E0,-7.344885468E-1
3.983858698E0,7.726675868E-1,4.991528988E0,-7.442623973E-1
3.988613437E0,7.482330203E-1,4.894401550E0,-7.717512846E-1
3.993368177E0,5.680279136E-1,4.862025261E0,-8.145118356E-1
3.998122917E0,1.544724256E-1,4.920057774E0,-8.328377604E-1
4.002877656E0,-3.910298049E-1,4.870577812E0,-8.187878728E-1
4.007632396E0,-8.308524489E-1,4.426478863E0,-8.261182308E-1
4.012387187E0,-1.047709465E0,3.449706078E0,-8.603267074E-1
4.017141927E0,-1.053207278E0,2.030667305E0,-9.012545943E-1
4.021896667E0,-9.524145722E-1,5.303833485E-1,-9.330195785E-1
4.026651406E0,-7.599921227E-1,-7.518218160E-1,-9.592867494E-1
4.031406146E0,-3.904189467E-1,-1.770133376E0,-9.934952259E-1
4.036160885E0,4.024071619E-2,-2.692539215E0,-1.024038434E0
4.040915625E0,3.377318680E-1,-3.390146732E0,-1.035644889E0
4.045670364E0,4.916698039E-1,-3.490939617E0,-1.018540621E0
4.050425104E0,6.113992929E-1,-3.464672327E0,-9.482911825E-1
4.055179844E0,7.433460951E-1,-3.580125809E0,-7.998510599E-1
4.059934583E0,9.040035009E-1,-3.878838539E0,-5.805506110E-1
4.064689323E0,1.037172079E0,-4.298502922E0,-3.374264240E-1
4.069444062E0,1.094593287E0,-4.623482704E0,-1.297324002E-1
4.074198802E0,1.062217474E0,-4.708393097E0,1.320995111E-2
4.078953542E0,9.547052979E-1,-4.543459415E0,9.445496649E-2
4.083708333E0,7.952696085E-1,-4.191601276E0,1.268308014E-1
4.088463073E0,6.010146141E-1,-3.712683439E0,1.280525327E-1
4.093217812E0,3.774380684E-1,-3.140913963E0,1.097265854E-1
4.097972552E0,1.367573589E-1,-2.508058071E0,8.773545176E-2
4.102727292E0,-1.094211563E-1,-1.849545836E0,7.918334752E-2
4.107482031E0,-3.507127464E-1,-1.170264244E0,8.284853399E-2
4.112236771E0,-5.742892623E-1,-5.019781590E-1,9.323323518E-2
4.116991510E0,-7.661007643E-1,1.070540547E-1,1.231656075E-1
4.121746250E0,-9.090431333E-1,6.232348084E-1,1.787542999E-1
4.126501042E0,-9.976185560E-1,1.061224818E0,2.520580888E-1
4.131255781E0,-1.036103010E0,1.426522017E0,3.345248103E-1
4.136010521E0,-1.048320293E0,1.734397769E0,4.267654121E-1
4.140765260E0,-1.042822480E0,1.989128470E0,5.330559015E-1
4.145520000E0,-1.017777085E0,2.190103054E0,6.393463612E-1
4.150274739E0,-9.817360640E-1,2.323271513E0,7.248674035E-1
4.155029479E0,-9.475276470E-1,2.375805855E0,7.810669541E-1
4.159784219E0,-9.169843793E-1,2.361755848E0,8.036689758E-1
4.164539010E0,-8.937715292E-1,2.300058603E0,8.006146550E-1
4.169293750E0,-8.784999251E-1,2.204152822E0,7.774018049E-1
4.174048489E0,-8.736129999E-1,2.078314781E0,7.462477088E-1
4.178803229E0,-8.778890371E-1,1.918268085E0,7.150935531E-1
4.183557969E0,-8.901063204E-1,1.723402262E0,6.900480986E-1
4.188312708E0,-9.084323049E-1,1.501047492E0,6.778308153E-1
4.193067448E0,-9.346994758E-1,1.236543059E0,6.900480986E-1
4.197822187E0,-9.689078927E-1,9.213368297E-1,7.340303659E-1
4.202576979E0,-1.011057615E0,5.609265566E-1,8.164971471E-1
4.207331719E0,-1.056261539E0,1.687513888E-1,9.356157780E-1
4.212086458E0,-1.098411202E0,-2.423606068E-1,1.093829751E0
4.216841198E0,-1.132008791E0,-6.803506613E-1,1.278921723E0
4.221595937E0,-1.152778149E0,-1.141553521E0,1.470733285E0
4.226350677E0,-1.151556492E0,-1.575267553E0,1.648494959E0
4.231105417E0,-1.112461090E0,-1.943008184E0,1.798767686E0
4.235860208E0,-1.034881353E0,-2.259436131E0,1.920940638E0
4.240614948E0,-9.163735509E-1,-2.537379503E0,2.013792038E0
4.245369687E0,-7.636573315E-1,-2.775006056E0,2.071213484E0
4.250124427E0,-5.846739411E-1,-2.965595722E0,2.094426155E0
4.254879167E0,-3.855320215E-1,-3.108538151E0,2.087095976E0
4.259633958E0,-1.625663936E-1,-3.212385178E0,2.055941820E0
4.264388698E0,8.055779338E-2,-3.262475967E0,2.004629135E0
4.269143437E0,3.407861888E-1,-3.244760990E0,1.942320943E0
4.273898177E0,5.991820097E-1,-3.176954985E0,1.881845355E0
4.278652917E0,8.465822339E-1,-3.065777540E0,1.829921842E0
4.283407656E0,1.079321742E0,-2.916115761E0,1.803654671E0
4.288162448E0,1.291902661E0,-2.760345221E0,1.806708932E0
4.292917187E0,1.480659842E0,-2.632674456E0,1.831754446E0
4.297671927E0,1.641928196E0,-2.549596786E0,1.872071505E0
4.302426667E0,1.770209789E0,-2.504392862E0,1.919108033E0
4.307181406E0,1.865504622E0,-2.473238707E0,1.972864151E0
4.311936146E0,1.926591158E0,-2.445749760E0,2.029674530E0
4.316690937E0,1.958356142E0,-2.426813126E0,2.091372013E0
4.321445677E0,1.968740821E0,-2.432310820E0,2.153069258E0
4.326200417E0,1.957745314E0,-2.467741013E0,2.212934017E0
4.330955156E0,1.923536777E0,-2.511112452E0,2.270355225E0
4.335709896E0,1.869780779E0,-2.549596786E0,2.324722290E0
4.340464635E0,1.803196430E0,-2.573420525E0,2.369315386E0
4.345219427E0,1.727449179E0,-2.570977211E0,2.399858713E0
4.349974167E0,1.652312875E0,-2.542877436E0,2.409632444E0
4.354728906E0,1.586950302E0,-2.498895168E0,2.401080370E0
4.359483646E0,1.535026789E0,-2.439030409E0,2.380921841E0
4.364238437E0,1.497764111E0,-2.364504814E0,2.350378513E0
4.368993177E0,1.475772977E0,-2.273485899E0,2.312505007E0
4.373747917E0,1.465388298E0,-2.162919521E0,2.269133568E0
4.378502656E0,1.465388298E0,-2.031583548E0,2.224540472E0
4.383257396E0,1.472107768E0,-1.875202179E0,2.182390690E0
4.388012187E0,1.487379432E0,-1.694386125E0,2.140241146E0
4.392766927E0,1.500818372E0,-1.480583549E0,2.099313259E0
4.397521667E0,1.513646603E0,-1.240513682E0,2.051054955E0
4.402276406E0,1.527696490E0,-9.778417945E-1,2.000353098E0
4.407031198E0,1.539913774E0,-6.944005489E-1,1.945986152E0
4.411785937E0,1.544800639E0,-3.926333487E-1,1.887953997E0
4.416540677E0,1.546022415E0,-7.498364896E-2,1.824424028E0
4.421295417E0,1.538691998E0,2.677114904E-1,1.752952814E0
4.426050156E0,1.512424827E0,6.556106210E-1,1.679649115E0
4.430804948E0,1.389030099E0,1.315344572E0,1.597793221E0
4.435559687E0,1.082986951E0,2.514472246E0,1.508606911E0
4.440314427E0,6.657662392E-1,3.963443518E0,1.428583622E0
4.445069167E0,3.340666890E-1,4.948768139E0,1.376049280E0
4.449823958E0,1.410334110E-1,5.311622143E0,1.355890751E0
4.454578698E0,2.863428742E-2,5.264585495E0,1.357112408E0
4.459333437E0,-4.711294547E-2,4.977478981E0,1.365053654E0
4.464088177E0,-1.088102907E-1,4.559647560E0,1.374216676E0
4.468842969E0,-1.662315726E-1,4.070955753E0,1.386433959E0
4.473597708E0,-2.169333547E-1,3.545001030E0,1.400483847E0
4.478352448E0,-2.517526448E-1,3.014770508E0,1.412090302E0
4.483107239E0,-2.639699280E-1,2.502254963E0,1.416977167E0
4.487861979E0,-2.432005405E-1,2.033110619E0,1.405370831E0
4.492616719E0,-1.790597439E-1,1.629939914E0,1.372994900E0
4.497371458E0,-8.132137358E-2,1.290299177E0,1.317406297E0
4.502126250E0,4.024071619E-2,1.000749230E0,1.240437269E0
4.506880989E0,1.654679924E-1,7.429642677E-1,1.146364093E0
4.511635729E0,2.766453922E-1,4.925097227E-1,1.035797596E0
4.516390469E0,3.566686809E-1,2.396117151E-1,9.148463607E-1
4.521145208E0,3.853793144E-1,-1.679878100E-3,7.920625210E-1
4.525900000E0,3.517817557E-1,-1.953240186E-1,6.796634197E-1
4.530654739E0,2.369391769E-1,-2.851211429E-1,5.825359225E-1
4.535409479E0,4.512763396E-2,-2.576322258E-1,5.019017458E-1
4.540164271E0,-1.833357960E-1,-1.617264450E-1,4.395935535E-1
4.544919010E0,-3.995819092E-1,-5.115992576E-2,3.937787116E-1
4.549673750E0,-5.626828074E-1,3.619373962E-2,3.638463318E-1
4.554428489E0,-6.616429090E-1,1.003345400E-1,3.284161687E-1
4.559183281E0,-6.934078932E-1,1.589775532E-1,2.716057599E-1
4.563938021E0,-6.659189463E-1,2.298378795E-1,1.885281354E-1
4.568692760E0,-5.913934708E-1,3.165806830E-1,7.979421318E-2
4.573447552E0,-4.863247275E-1,4.082103968E-1,-3.443750367E-2
4.578202292E0,-3.708712757E-1,4.833467603E-1,-1.352301836E-1
4.582957031E0,-2.682459950E-1,5.187768936E-1,-2.030361742E-1
4.587711771E0,-2.010508776E-1,5.120574236E-1,-2.299142331E-1
4.592466562E0,-1.955530941E-1,4.900662601E-1,-2.176969349E-1
4.597221302E0,-2.853502035E-1,4.925097227E-1,-1.749363989E-1
4.601976042E0,-4.783834815E-1,5.426006317E-1,-1.291215420E-1
4.606730833E0,-7.520508766E-1,6.238456368E-1,-1.150716543E-1
4.611485573E0,-1.045266032E0,7.069232464E-1,-1.584430486E-1
4.616240312E0,-1.285335898E0,7.832813859E-1,-2.622900605E-1
4.620995104E0,-1.416671753E0,8.113811612E-1,-4.052324295E-1
4.625749844E0,-1.439884663E0,7.551816106E-1,-5.616137981E-1
4.630504583E0,-1.406287074E0,6.244565248E-1,-7.137191296E-1
4.635259375E0,-1.380630732E0,4.583013058E-1,-8.713222742E-1
4.640014114E0,-1.408730507E0,3.061959743E-1,-1.049083948E0
4.644768854E0,-1.524794817E0,2.298378795E-1,-1.256167054E0
4.649523594E0,-1.713552117E0,2.457203567E-1,-1.493793488E0
4.654278385E0,-1.912083149E0,2.994764447E-1,-1.739971995E0
4.659033125E0,-2.039753914E0,2.994764447E-1,-1.956218123E0
4.663787864E0,-2.042808294E0,1.852447391E-1,-2.113210440E0
4.668542656E0,-1.934685111E0,-1.817322709E-2,-2.230496407E0
4.673297396E0,-1.757534385E0,-2.533561587E-1,-2.350836754E0
4.678052135E0,-1.552283764E0,-4.702131748E-1,-2.506607294E0
4.682806927E0,-1.347033143E0,-6.412553191E-1,-2.699640512E0
4.687561667E0,-1.164995551E0,-7.689260244E-1,-2.921384335E0
4.692316406E0,-1.014111876E0,-8.684970140E-1,-3.134576321E0
4.697071198E0,-8.998801708E-1,-9.527963400E-1,-3.297677040E0
4.701825937E0,-8.229112029E-1,-1.028543591E0,-3.399691582E0
4.706580677E0,-7.819832563E-1,-1.087797403E0,-3.451615095E0
4.711335469E0,-7.764855027E-1,-1.118951559E0,-3.475438833E0
4.716090208E0,-7.887027860E-1,-1.115897179E0,-3.501095057E0
4.720844948E0,-8.088613153E-1,-1.057865024E0,-3.546910048E0
4.725599739E0,-8.284090161E-1,-9.155336022E-1,-3.621435404E0
4.730354479E0,-8.485675454E-1,-6.815723777E-1,-3.723449945E0
4.735109271E0,-8.656717539E-1,-3.804160357E-1,-3.841346741E0
4.739864010E0,-8.894954920E-1,-5.345067009E-3,-3.965963125E0
4.744618750E0,-9.230930209E-1,4.442514181E-1,-4.109516621E0
4.749373542E0,-9.603558183E-1,9.414953589E-1,-4.259788990E0
4.754128281E0,-1.001894593E0,1.519373417E0,-4.386848927E0
4.758883021E0,-1.043433428E0,2.111912251E0,-4.469926834E0
4.763637812E0,-1.100854635E0,2.635423422E0,-4.523071766E0
4.768392552E0,-1.184543133E0,3.086852551E0,-4.543230534E0
4.773147292E0,-1.298164010E0,3.518122911E0,-4.520628452E0
4.777902083E0,-1.430721641E0,3.971384764E0,-4.442437649E0
4.782656823E0,-1.562057614E0,4.444193840E0,-4.308658600E0
4.787411562E0,-1.687284827E0,4.846754074E0,-4.133951187E0
4.792166354E0,-1.804570913E0,5.127751827E0,-3.932976484E0
4.796921094E0,-1.905363560E0,5.282911301E0,-3.708789110E0
4.801675885E0,-1.959730625E0,5.314676285E0,-3.472995281E0
4.806430625E0,-1.880928993E0,5.266417980E0,-3.223762512E0
4.811185364E0,-1.624976635E0,5.078271866E0,-2.968420982E0
4.815940156E0,-1.273729444E0,4.636616230E0,-2.728961945E0
4.820694896E0,-8.595631123E-1,3.965886831E0,-2.504163742E0
4.825449687E0,-4.234056473E-1,3.150993347E0,-2.289750338E0
4.830204427E0,-1.298087649E-3,2.310443401E0,-2.078391075E0
4.834959167E0,3.725511432E-1,1.536477685E0,-1.870086193E0
4.839713958E0,6.816487312E-1,8.523091078E-1,-1.658116102E0
4.844468698E0,9.302706718E-1,2.390008420E-1,-1.444924235E0
4.849223489E0,1.128190875E0,-3.400989771E-1,-1.245782375E0
4.853978229E0,1.263802886E0,-8.898772597E-1,-1.064355493E0
4.858732969E0,1.340160966E0,-1.392008066E0,-8.945351243E-1
4.863487760E0,1.354821682E0,-1.810450435E0,-7.460949421E-1
4.868242500E0,1.310228586E0,-2.114661217E0,-6.214785576E-1
4.872997292E0,1.214322805E0,-2.269820690E0,-5.267944932E-1
4.877752031E0,1.087873816E0,-2.277761936E0,-4.571559429E-1
4.882506771E0,9.559270144E-1,-2.164752007E0,-4.113410711E-1
4.887261562E0,8.490256667E-1,-1.972940564E0,-3.832412958E-1
4.892016302E0,7.787762284E-1,-1.749974847E0,-3.624718785E-1
4.896771042E0,7.470112443E-1,-1.536783099E0,-3.533089161E-1
4.901525833E0,7.470112443E-1,-1.357188821E0,-3.575849831E-1
4.906280573E0,7.714458704E-1,-1.219744205E0,-3.704131246E-1
4.911035364E0,8.087086082E-1,-1.106734276E0,-4.015672207E-1
4.915790104E0,8.514691591E-1,-9.955568910E-1,-4.620428383E-1
4.920544896E0,8.856775761E-1,-8.843795061E-1,-5.420661569E-1
4.925299635E0,9.101121426E-1,-7.689260244E-1,-6.251437664E-1
4.930054427E0,9.198859930E-1,-6.400335431E-1,-6.978366375E-1
4.934809167E0,9.107230306E-1,-4.848739207E-1,-7.473167181E-1
4.939563906E0,8.814015388E-1,-3.052796721E-1,-7.717512846E-1
4.944318698E0,8.374192715E-1,-1.153007299E-1,-7.729730010E-1
4.949073437E0,7.897717953E-1,6.429351866E-2,-7.552579641E-1
4.953828229E0,7.433460951E-1,2.200640440E-1,-7.228820920E-1
4.958582969E0,7.066941857E-1,3.507890999E-1,-6.782889962E-1
4.963337708E0,6.822596192E-1,4.552469850E-1,-6.245328784E-1
4.968092500E0,6.724857688E-1,5.328267813E-1,-5.579485893E-1
4.972847239E0,6.785944104E-1,5.810851455E-1,-4.754818678E-1
4.977602031E0,6.938660145E-1,6.104066372E-1,-3.807978332E-1
4.982356771E0,7.128028274E-1,6.360629797E-1,-2.671769857E-1
4.987111562E0,7.299070358E-1,6.501128674E-1,-1.346193254E-1
4.991866302E0,7.366265655E-1,6.397281289E-1,1.320995111E-2
4.996621094E0,7.305179238E-1,6.006327868E-1,1.787542999E-1
5.001375833E0,7.176897526E-1,5.352702737E-1,3.571268320E-1
5.006130573E0,6.999746561E-1,4.521926641E-1,5.428296924E-1
5.010885364E0,6.853139400E-1,3.581194878E-1,7.309760451E-1
5.015640104E0,6.743183732E-1,2.707658112E-1,9.154572487E-1
5.020394896E0,6.651554108E-1,1.999054998E-1,1.089553714E0
5.025149635E0,6.559923887E-1,1.559232324E-1,1.256930590E0
5.029904427E0,6.401099563E-1,1.333212405E-1,1.419420719E0
5.034659167E0,6.126210093E-1,1.302669197E-1,1.579467297E0
5.039413958E0,5.631409883E-1,1.424842030E-1,1.734626889E0
5.044168698E0,4.904480577E-1,1.681405306E-1,1.857410669E0
5.048923489E0,3.927097023E-1,2.047924101E-1,1.925216675E0
5.053678229E0,2.577085793E-1,2.518289983E-1,1.938044906E0
5.058433021E0,8.361211419E-2,3.092502952E-1,1.914831996E0
5.063187760E0,-1.356883347E-1,3.886627257E-1,1.865351915E0
5.067942552E0,-3.934732676E-1,5.047270060E-1,1.795713425E0
5.072697292E0,-6.683624387E-1,6.617192626E-1,1.702861905E0
5.077452083E0,-9.273691177E-1,8.400917649E-1,1.590462804E0
5.082206823E0,-1.136895657E0,9.744820595E-1,1.475009322E0
5.086961614E0,-1.263955593E0,9.616538882E-1,1.376049280E0
5.091716354E0,-1.254181743E0,6.666061878E-1,1.341230035E0
5.096471146E0,-1.046487689E0,-1.023198478E-2,1.407814264E0
5.101225885E0,-5.883391500E-1,-1.061530232E0,1.590462804E0
5.105980677E0,1.159879491E-1,-2.387106895E0,1.849469423E0
5.110735417E0,9.479857683E-1,-3.755444050E0,2.104810953E0
5.115490208E0,1.778151035E0,-4.887376308E0,2.288681269E0
5.120244948E0,2.461708784E0,-5.447539330E0,2.363817692E0
5.124999739E0,2.822118998E0,-5.152491570E0,2.318002701E0
5.129754479E0,2.794019222E0,-4.164112568E0,2.210490465E0
5.134509271E0,2.501415014E0,-2.969260931E0,2.137797594E0
5.139264010E0,2.076864004E0,-1.884365082E0,2.106032610E0
5.144018802E0,1.604054570E0,-1.017547965E0,2.048000574E0
5.148773542E0,1.134299517E0,-3.510945439E-1,1.939266562E0
5.153528333E0,7.152463198E-1,2.286161482E-1,1.753563762E0
5.158283073E0,3.963748813E-1,8.181006312E-1,1.497000456E0
5.163037864E0,1.978438348E-1,1.416748166E0,1.201952815E0
5.167792604E0,1.080467105E-1,1.973856807E0,8.965204358E-1
5.172547396E0,9.949459881E-2,2.453996420E0,5.996401310E-1
5.177302135E0,1.569158882E-1,2.855945587E0,3.247509897E-1
5.182056927E0,2.650389671E-1,3.160767078E0,8.407026529E-2
5.186811667E0,4.061487317E-1,3.373347998E0,-1.382845193E-1
5.191566458E0,5.497019291E-1,3.530951023E0,-3.832412958E-1
5.196321198E0,6.724857688E-1,3.708101988E0,-6.654608250E-1
5.201075989E0,7.256309986E-1,3.973217249E0,-9.629519582E-1
5.205830781E0,6.315578222E-1,4.410596371E0,-1.246393204E0
5.210585521E0,3.536143601E-1,4.946935654E0,-1.485852242E0
5.215340312E0,1.756236190E-3,5.140579700E0,-1.682550669E0
5.220095052E0,-3.073413372E-1,4.651277065E0,-1.850538492E0
5.224849844E0,-5.364156365E-1,3.551720619E0,-1.976987481E0
5.229604583E0,-6.738601923E-1,2.215148449E0,-2.043571711E0
5.234359375E0,-7.166207433E-1,9.555452466E-1,-2.037463188E0
5.239114114E0,-6.427060962E-1,-1.098029464E-1,-1.975765824E0
5.243868906E0,-2.877936661E-1,-7.707586288E-1,-1.909181476E0
5.248623646E0,4.953349829E-1,-9.027054310E-1,-1.874362230E0
5.253378437E0,1.106810570E0,-8.813251853E-1,-1.858479738E0
5.258133229E0,9.516509771E-1,-9.876156449E-1,-1.796782374E0
5.262887969E0,6.675988436E-1,-1.172096848E0,-1.681939840E0
5.267642760E0,5.460367799E-1,-1.694386125E0,-1.521893263E0
5.272397500E0,5.399280787E-1,-2.344346285E0,-1.325805664E0
5.277152292E0,5.802451968E-1,-2.940550327E0,-1.127885461E0
5.281907031E0,6.065123677E-1,-3.319286585E0,-1.006934285E0
5.286661823E0,5.887972713E-1,-3.466504812E0,-9.855539799E-1
5.291416614E0,4.965566993E-1,-3.427409649E0,-1.031368852E0
5.296171354E0,3.444513679E-1,-3.250869751E0,-1.108337760E0
5.300926146E0,1.556941569E-1,-2.971704483E0,-1.193248034E0
5.305680885E0,-4.283689335E-2,-2.613737583E0,-1.275714755E0
5.310435677E0,-2.413679510E-1,-2.192240953E0,-1.341688156E0
5.315190417E0,-4.515054226E-1,-1.740200996E0,-1.388113856E0
5.319945208E0,-6.842449307E-1,-1.276554704E0,-1.405828953E0
5.324700000E0,-9.139300585E-1,-8.159626126E-1,-1.373453140E0
5.329454739E0,-1.114293694E0,-3.889681399E-1,-1.272049546E0
5.334209531E0,-1.271286011E0,-4.734201822E-3,-1.094898701E0
5.338964271E0,-1.381241679E0,3.593412042E-1,-8.444442153E-1
5.343719062E0,-1.451491117E0,7.295252681E-1,-5.310705900E-1
5.348473854E0,-1.484477758E0,1.127198219E0,-1.792124510E-1
5.353228594E0,-1.495473385E0,1.545640588E0,1.866955459E-1
5.357983385E0,-1.505858064E0,1.932317972E0,5.519927144E-1
5.362738125E0,-1.528460026E0,2.226754904E0,8.873574734E-1
5.367492917E0,-1.563890219E0,2.395353556E0,1.151861906E0
5.372247708E0,-1.596266031E0,2.448498726E0,1.328401804E0
5.377002448E0,-1.623144031E0,2.411846876E0,1.424307585E0
5.381757239E0,-1.650632977E0,2.316551924E0,1.459126830E0
5.386511979E0,-1.678121924E0,2.179718256E0,1.450574756E0
5.391266771E0,-1.701334715E0,2.001345634E0,1.418809772E0
5.396021562E0,-1.712330341E0,1.777158380E0,1.387655735E0
5.400776302E0,-1.708054304E0,1.513875604E0,1.370551467E0
5.405531094E0,-1.683008790E0,1.221271396E0,1.369329810E0
5.410285833E0,-1.637193918E0,8.907935619E-1,1.390709996E0
5.415040625E0,-1.577940106E0,5.016726851E-1,1.441411853E0
5.419795417E0,-1.507079720E0,3.680460155E-2,1.521435142E0
5.424550156E0,-1.430110812E0,-4.989238083E-1,1.623449564E0
5.429304948E0,-1.335426807E0,-1.091462612E0,1.740124702E0
5.434059739E0,-1.215086460E0,-1.715766430E0,1.865351915E0
5.438814479E0,-1.058704972E0,-2.331518173E0,1.986303210E0
5.443569271E0,-8.662826419E-1,-2.885572433E0,2.090761185E0
5.448324010E0,-6.439278126E-1,-3.361436129E0,2.170784235E0
5.453078802E0,-4.105774760E-1,-3.774380684E0,2.221486092E0
5.457833594E0,-1.735619605E-1,-4.138456345E0,2.239201307E0
5.462588333E0,6.711876392E-2,-4.461603642E0,2.226372957E0
5.467343125E0,3.126864135E-1,-4.735270977E0,2.181779861E0
5.472097917E0,5.564214587E-1,-4.943575859E0,2.116417408E0
5.476852656E0,8.001564741E-1,-5.063916206E0,2.035783291E0
5.481607448E0,1.043280721E0,-5.081020355E0,1.957592487E0
5.486362239E0,1.283350587E0,-5.009549141E0,1.897727847E0
5.491116979E0,1.519144297E0,-4.863552570E0,1.862297654E0
5.495871771E0,1.742110014E0,-4.636311054E0,1.856189013E0
5.500626562E0,1.941862822E0,-4.329657078E0,1.877569199E0
5.505381302E0,2.113515854E0,-3.950920582E0,1.915442824E0
5.510136094E0,2.256458044E0,-3.518428326E0,1.956370831E0
5.514890885E0,2.357861757E0,-3.093266487E0,1.990579247E0
5.519645625E0,2.408563375E0,-2.732856274E0,2.013792038E0
5.524400417E0,2.406730890E0,-2.429256439E0,2.031507254E0
5.529155208E0,2.357250929E0,-2.172693253E0,2.049222231E0
5.533909948E0,2.263177633E0,-1.938121200E0,2.066937447E0
5.538664739E0,2.134896040E0,-1.720653415E0,2.088928461E0
5.543419531E0,1.988899350E0,-1.530674458E0,2.116417408E0
5.548174271E0,1.842291832E0,-1.355967045E0,2.145738840E0
5.552929062E0,1.710345030E0,-1.180648923E0,2.157956123E0
5.557683854E0,1.599167585E0,-9.845613241E-1,2.145128012E0
5.562438594E0,1.505705357E0,-7.750346661E-1,2.106032610E0
5.567193385E0,1.425682068E0,-5.490147471E-1,2.046167850E0
5.571948177E0,1.351767421E0,-3.113883138E-1,1.967366338E0
5.576702969E0,1.281517982E0,-8.353576064E-2,1.876958370E0
5.581457708E0,1.211268544E0,1.235474050E-1,1.784717798E0
5.586212500E0,1.143462539E0,2.933678031E-1,1.699196696E0
5.590967292E0,1.080543399E0,4.283689260E-1,1.624671221E0
5.595722031E0,1.022511244E0,5.383245945E-1,1.562363029E0
5.600476823E0,9.742529392E-1,6.220130324E-1,1.512882948E0
5.605231614E0,9.327141643E-1,6.837103963E-1,1.476841927E0
5.609986354E0,9.009491801E-1,7.350230217E-1,1.452407360E0
5.614741146E0,8.814015388E-1,7.875574231E-1,1.439579248E0
5.619495937E0,8.710168004E-1,8.504765034E-1,1.439579248E0
5.624250729E0,8.667407632E-1,9.274454713E-1,1.441411853E0
5.629005469E0,8.728494048E-1,1.011744738E0,1.445687890E0
5.633760260E0,8.923971057E-1,1.103985429E0,1.446298718E0
5.638515052E0,9.247729182E-1,1.205388904E0,1.445687890E0
5.643269792E0,9.864702821E-1,1.339168310E0,1.438968301E0
5.648024583E0,1.134910345E0,1.606116176E0,1.423085809E0
5.652779375E0,1.365817308E0,1.994626164E0,1.404149055E0
5.657534167E0,1.626045704E0,2.416122913E0,1.396207809E0
5.662288906E0,1.836183190E0,2.848004341E0,1.405981660E0
5.667043698E0,1.767155409E0,3.622580767E0,1.408425093E0
5.671798489E0,1.121471405E0,4.852862358E0,1.344895124E0
5.676553281E0,1.831830740E-1,5.624384880E0,1.239826441E0
5.681308021E0,-6.274344921E-1,5.559633255E0,1.164079189E0
5.686062812E0,-1.088637352E0,4.931053162E0,1.129870772E0
5.690817604E0,-1.241353631E0,4.089892387E0,1.106047034E0
5.695572396E0,-1.205923438E0,3.204138517E0,1.069395185E0
5.700327135E0,-1.060537577E0,2.331823587E0,1.004032612E0
5.705081927E0,-8.699477911E-1,1.502269268E0,9.044616818E-1
5.709836719E0,-6.811906099E-1,7.368556261E-1,7.841212749E-1
5.714591510E0,-5.303069949E-1,3.802633286E-2,6.607266068E-1
5.719346250E0,-4.307360351E-1,-5.820014477E-1,5.495492220E-1
5.724101042E0,-3.818668425E-1,-1.098793030E0,4.554760456E-1
5.728855833E0,-3.806451261E-1,-1.485470414E0,3.797288239E-1
5.733610573E0,-4.276817143E-1,-1.710268617E0,3.180314898E-1
5.738365364E0,-5.046506524E-1,-1.749364018E0,2.697731555E-1
5.743120156E0,-5.920043588E-1,-1.596647859E0,2.318995446E-1
5.747874948E0,-6.695841551E-1,-1.261283040E0,1.983019859E-1
5.752629739E0,-7.251728773E-1,-8.025236130E-1,1.726456583E-1
5.757384479E0,-7.593812943E-1,-2.973384261E-1,1.543197185E-1
5.762139271E0,-7.722094655E-1,1.846338809E-1,1.433241516E-1
5.766894062E0,-7.544943690E-1,5.713112950E-1,1.359937787E-1
5.771648854E0,-7.044034600E-1,8.009964228E-1,1.188895553E-1
5.776403594E0,-6.231584549E-1,8.712459207E-1,9.017891437E-2
5.781158385E0,-5.113701820E-1,8.248201609E-1,4.558578506E-2
5.785913177E0,-3.690386713E-1,7.105884552E-1,-1.122464053E-2
5.790667969E0,-1.986074150E-1,5.694786906E-1,-6.986765563E-2
5.795422760E0,-1.107192412E-2,4.234820008E-1,-1.162933856E-1
5.800177500E0,1.764635593E-1,2.890917659E-1,-1.437823027E-1
5.804932292E0,2.143371850E-1,1.956294477E-1,-1.614973694E-1
5.809687083E0,-4.093557596E-1,3.342957497E-1,-1.822667718E-1
5.814441875E0,-1.436830282E0,6.971494555E-1,-2.354120165E-1
5.819196667E0,-2.015319347E0,1.022740364E0,-3.423133492E-1
5.823951406E0,-1.966450095E0,1.182786942E0,-4.852557182E-1
5.828706198E0,-1.678121924E0,1.122311354E0,-6.477457285E-1
5.833460989E0,-1.393458962E0,8.449786901E-1,-8.102357984E-1
5.838215781E0,-1.193706155E0,4.014908671E-1,-9.653954506E-1
5.842970573E0,-1.132008791E0,-1.165224537E-1,-1.133994102E0
5.847725312E0,-1.247462273E0,-5.960513353E-1,-1.350851059E0
5.852480104E0,-1.480201721E0,-9.717331529E-1,-1.609246850E0
5.857234896E0,-1.675678492E0,-1.261893868E0,-1.852371097E0
5.861989687E0,-1.708054304E0,-1.517846227E0,-2.031965256E0
5.866744427E0,-1.580383539E0,-1.745698810E0,-2.162690401E0
5.871499219E0,-1.364748240E0,-1.928958297E0,-2.290971994E0
5.876254010E0,-1.132008791E0,-2.045633316E0,-2.448575020E0
5.881008802E0,-9.279799461E-1,-2.081674337E0,-2.648327827E0
5.885763594E0,-7.667116523E-1,-2.034027100E0,-2.879234791E0
5.890518385E0,-6.500364542E-1,-1.932012558E0,-3.112585068E0
5.895273125E0,-5.706240535E-1,-1.817780852E0,-3.314781427E0
5.900027917E0,-5.260309577E-1,-1.708436131E0,-3.482769251E0
5.904782708E0,-5.205331445E-1,-1.616806388E0,-3.640983105E0
5.909537500E0,-5.437459946E-1,-1.530063510E0,-3.796753645E0
5.914292292E0,-5.877282619E-1,-1.382845163E0,-3.931143999E0
5.919047083E0,-6.653081179E-1,-1.117729783E0,-4.038045406E0
5.923801823E0,-7.850375772E-1,-7.377719283E-1,-4.116235733E0
5.928556614E0,-9.316451550E-1,-2.765690386E-1,-4.187706947E0
5.933311406E0,-1.097800374E0,2.225074917E-1,-4.273838997E0
5.938066198E0,-1.284114122E0,7.521272302E-1,-4.393568516E0
5.942820989E0,-1.472871304E0,1.326951027E0,-4.515130520E0
5.947575781E0,-1.667126298E0,1.979965448E0,-4.596986771E0
5.952330521E0,-1.847331405E0,2.713613987E0,-4.653797150E0
5.957085312E0,-2.015319347E0,3.495521069E0,-4.684951305E0
5.961840104E0,-2.155207396E0,4.299418926E0,-4.683729172E0
5.966594896E0,-2.263941288E0,5.086823940E0,-4.650131702E0
5.971349687E0,-2.321973324E0,5.835133076E0,-4.560334682E0
5.976104479E0,-2.295706272E0,6.500975609E0,-4.399066448E0
5.980859271E0,-2.195524454E0,7.015934944E0,-4.177933216E0
5.985614010E0,-2.156429052E0,7.169872761E0,-3.868224859E0
5.990368802E0,-2.166813612E0,6.829620838E0,-3.480325699E0
5.995123594E0,-2.050749540E0,6.180882454E0,-3.107698202E0
5.999878385E0,-1.755701780E0,5.458840370E0,-2.792491913E0
6.004633177E0,-1.306716084E0,4.828427792E0,-2.530431032E0
6.009387969E0,-7.850375772E-1,4.250549793E0,-2.285474300E0
6.014142760E0,-2.627482116E-1,3.643961191E0,-2.042350054E0
6.018897500E0,2.106719911E-1,2.981172800E0,-1.802891016E0
6.023652292E0,5.900190473E-1,2.328158379E0,-1.565875530E0
6.028407083E0,8.710168004E-1,1.734397769E0,-1.340466380E0
6.033161875E0,1.060995817E0,1.208443284E0,-1.139491916E0
6.037916667E0,1.181336164E0,7.154753804E-1,-9.708932042E-1
6.042671458E0,1.260748506E0,2.316704690E-1,-8.316160440E-1
6.047426250E0,1.323667645E0,-2.845102847E-1,-7.118865252E-1
6.052181042E0,1.376201987E0,-8.477275968E-1,-6.117047071E-1
6.056935781E0,1.418962479E0,-1.401781917E0,-5.164098144E-1
6.061690573E0,1.442175388E0,-1.914908409E0,-4.058432877E-1
6.066445364E0,1.426903725E0,-2.352898359E0,-2.922224402E-1
6.071200156E0,1.356043458E0,-2.650389671E0,-1.902080178E-1
6.075954948E0,1.219209790E0,-2.735299826E0,-1.138499230E-1
6.080709739E0,1.049389362E0,-2.620457172E0,-5.703949928E-2
6.085464531E0,8.942296505E-1,-2.351065874E0,-9.392046370E-3
6.090219323E0,7.928261161E-1,-2.005927324E0,2.481638081E-2
6.094974114E0,7.573959827E-1,-1.687055826E0,4.253146052E-2
6.099728854E0,7.745001912E-1,-1.424994826E0,3.336848691E-2
6.104483646E0,8.227584958E-1,-1.225852847E0,-3.283398226E-3
6.109238437E0,8.875101805E-1,-1.095127821E0,-7.231111825E-2
6.113993229E0,9.485966563E-1,-1.023656607E0,-1.767689884E-1
6.118748021E0,9.919680357E-1,-9.949460030E-1,-3.129918277E-1
6.123502812E0,1.008461356E0,-9.766200781E-1,-4.687623680E-1
6.128257604E0,9.944115281E-1,-9.185879230E-1,-6.129264235E-1
6.133012396E0,9.498183727E-1,-8.141300082E-1,-7.161626220E-1
6.137767187E0,8.838449717E-1,-6.834049821E-1,-7.705295682E-1
6.142521979E0,8.099303246E-1,-5.441278219E-1,-7.748056054E-1
6.147276771E0,7.396808863E-1,-4.024071693E-1,-7.412080765E-1
6.152031562E0,6.792052984E-1,-2.643517256E-1,-6.825650334E-1
6.156786354E0,6.333904266E-1,-1.397353113E-1,-6.178133488E-1
6.161541094E0,6.022363305E-1,-4.077522457E-2,-5.530617237E-1
6.166295885E0,5.832995176E-1,3.680460155E-2,-4.889208972E-1
6.171050677E0,5.802451968E-1,1.119409725E-1,-4.174497128E-1
6.175805469E0,5.942950845E-1,2.060141414E-1,-3.343721032E-1
6.180560260E0,6.175079346E-1,3.208567202E-1,-2.378554791E-1
6.185315052E0,6.376664639E-1,4.271472096E-1,-1.254563481E-1
6.190069844E0,6.358338594E-1,4.906771481E-1,6.490438245E-3
6.194824635E0,6.040689349E-1,4.864010811E-1,1.579848975E-1
6.199579427E0,5.539780259E-1,4.118755758E-1,3.180314898E-1
6.204334219E0,5.038870573E-1,2.829830945E-1,4.762454629E-1
6.209089010E0,4.672352076E-1,1.327103674E-1,6.204095483E-1
6.213843802E0,4.470766485E-1,-1.634063199E-2,7.499128580E-1
6.218598594E0,4.440223277E-1,-1.446222365E-1,8.720858097E-1
6.223353385E0,4.489092529E-1,-2.313650399E-1,1.000367403E0
6.228108177E0,4.550178945E-1,-2.741255760E-1,1.146364093E0
6.232862969E0,4.501309991E-1,-2.759581506E-1,1.311908484E0
6.237617708E0,4.250855148E-1,-2.435823381E-1,1.492724419E0
6.242372500E0,3.694968224E-1,-1.861610413E-1,1.665599227E0
6.247127292E0,2.821431756E-1,-1.110246703E-1,1.802432895E0
6.251882083E0,1.532506943E-1,-2.855792828E-2,1.893451691E0
6.256636875E0,-1.534797717E-2,5.757400393E-2,1.943542600E0
6.261391667E0,-2.193768173E-1,1.528689116E-1,1.950873017E0
6.266146458E0,-4.411207438E-1,2.499964088E-1,1.918497205E0
6.270901250E0,-6.543125510E-1,3.330740333E-1,1.850691199E0
6.275656042E0,-8.461240530E-1,3.782780170E-1,1.759061456E0
6.280410833E0,-1.018387914E0,3.568977416E-1,1.661934018E0
6.285165625E0,-1.149113059E0,2.328922004E-1,1.572136879E0
6.289920417E0,-1.176601887E0,-6.582067907E-2,1.511661291E0
6.294675208E0,-1.036713839E0,-6.027708054E-1,1.506774306E0
6.299430000E0,-6.970730424E-1,-1.370627880E0,1.580078125E0
6.304184792E0,-1.619555205E-1,-2.282649040E0,1.727907419E0
6.308939583E0,5.124391913E-1,-3.223380804E0,1.902003884E0
6.313694375E0,1.211268544E0,-4.066374302E0,2.044335365E0
6.318449167E0,1.756770730E0,-4.473209858E0,2.117028236E0
6.323203958E0,2.013944864E0,-4.229475021E0,2.099924088E0
6.327958750E0,2.012723207E0,-3.556912899E0,2.079154730E0
6.332713542E0,1.836183190E0,-2.759734392E0,2.134132385E0
6.337468333E0,1.568013549E0,-2.046855211E0,2.247142553E0
6.342223125E0,1.278463602E0,-1.448818564E0,2.323500633E0
6.346977917E0,1.011515737E0,-9.039271474E-1,2.282572508E0
6.351732708E0,8.068760037E-1,-3.010036349E-1,2.099924088E0
6.356487500E0,6.761509776E-1,4.075995386E-1,1.776165724E0
6.361242292E0,6.211731434E-1,1.163239241E0,1.366886258E0
6.365997083E0,6.187296510E-1,1.881005406E0,9.356157780E-1
6.370751875E0,6.608793139E-1,2.518137455E0,5.367210507E-1
6.375506667E0,7.329613566E-1,3.053865671E0,2.044106275E-1
6.380261458E0,8.239802122E-1,3.447262764E0,-5.154171586E-2
6.385016250E0,9.284381270E-1,3.694662809E0,-2.415206581E-1
6.389771042E0,1.034728527E0,3.811949015E0,-3.942368627E-1
6.394525833E0,1.120249629E0,3.799731731E0,-5.634464025E-1
6.399280677E0,1.155679822E0,3.674504280E0,-7.919098139E-1
6.404035417E0,1.090317249E0,3.564548731E0,-1.051527381E0
6.408790260E0,8.325323462E-1,3.701382399E0,-1.289153814E0
6.413545000E0,3.749946058E-1,3.987878084E0,-1.471191406E0
6.418299844E0,-9.109520912E-2,3.805229425E0,-1.629405499E0
6.423054635E0,-4.490619600E-1,2.943299294E0,-1.749134898E0
6.427809427E0,-7.221185565E-1,1.772882342E0,-1.805945396E0
6.432564219E0,-9.200387001E-1,6.122392416E-1,-1.791284561E0
6.437319010E0,-1.006170630E0,-4.225656986E-1,-1.715537429E0
6.442073802E0,-8.852193952E-1,-1.182481527E0,-1.597640514E0
6.446828594E0,-2.523635030E-1,-1.191644430E0,-1.468137145E0
6.451583385E0,8.331431746E-1,-4.659371078E-1,-1.372231364E0
6.456338177E0,1.597945929E0,3.330740333E-1,-1.319697022E0
6.461092969E0,1.421406031E0,5.047270060E-1,-1.265330076E0
6.465847760E0,9.962440729E-1,-3.071122766E-1,-1.194469690E0
6.470602552E0,7.799979448E-1,-1.417664409E0,-1.095509648E0
6.475357344E0,7.079159021E-1,-2.366337538E0,-9.653954506E-1
6.480112135E0,6.480512023E-1,-3.065777540E0,-8.426116109E-1
6.484866927E0,5.845212340E-1,-3.498269796E0,-7.888554931E-1
6.489621771E0,5.240456462E-1,-3.710239887E0,-8.566614985E-1
6.494376562E0,4.330267608E-1,-3.768272161E0,-1.011821151E0
6.499131354E0,3.102429509E-1,-3.677864075E0,-1.193248034E0
6.503886146E0,1.734092385E-1,-3.451233387E0,-1.356959701E0
6.508640937E0,1.756236190E-3,-3.135416269E0,-1.470580578E0
6.513395729E0,-2.181550860E-1,-2.749960423E0,-1.513952017E0
6.518150521E0,-4.741074145E-1,-2.264322996E0,-1.490128279E0
6.522905312E0,-7.386118770E-1,-1.657734275E0,-1.418046236E0
6.527660104E0,-9.866229892E-1,-9.802852273E-1,-1.305647135E0
6.532414896E0,-1.195538759E0,-3.144426346E-1,-1.153541803E0
6.537169687E0,-1.365359187E0,2.915352285E-1,-9.556216002E-1
6.541924479E0,-1.500971079E0,8.352048993E-1,-7.198277712E-1
6.546679323E0,-1.603596449E0,1.335503101E0,-4.571559429E-1
6.551434114E0,-1.679343581E0,1.818697214E0,-1.810450554E-1
6.556188906E0,-1.737986684E0,2.303112984E0,9.201150388E-2
6.560943698E0,-1.781358004E0,2.779587507E0,3.461312652E-1
6.565698489E0,-1.813733935E0,3.205971003E0,5.635991096E-1
6.570453281E0,-1.837557673E0,3.531562090E0,7.297543287E-1
6.575208073E0,-1.855272651E0,3.740477800E0,8.464295268E-1
6.579962864E0,-1.869322538E0,3.831496716E0,9.087377191E-1
6.584717656E0,-1.879707336E0,3.812559843E0,9.295071363E-1
6.589472448E0,-1.887037635E0,3.703215122E0,9.264528155E-1
6.594227292E0,-1.883372426E0,3.504683971E0,9.154572487E-1
6.598982083E0,-1.876042128E0,3.211468935E0,9.093486071E-1
6.603736875E0,-1.874820352E0,2.848004341E0,9.148463607E-1
6.608491667E0,-1.871766090E0,2.417955399E0,9.478330612E-1
6.613246458E0,-1.845498800E0,1.887724876E0,1.018693328E0
6.618001250E0,-1.785634160E0,1.234099627E0,1.146975040E0
6.622756042E0,-1.687284827E0,4.839576185E-1,1.321682334E0
6.627510833E0,-1.552894592E0,-3.132209182E-1,1.516548157E0
6.632265677E0,-1.395902395E0,-1.134834051E0,1.712635756E0
6.637020469E0,-1.229747176E0,-1.966831923E0,1.896506071E0
6.641775260E0,-1.054428935E0,-2.751793146E0,2.056552649E0
6.646530052E0,-8.613957167E-1,-3.440237761E0,2.188499451E0
6.651284844E0,-6.451495886E-1,-4.020559311E0,2.296622515E0
6.656039635E0,-3.989710510E-1,-4.509251118E0,2.377256632E0
6.660794427E0,-1.216384470E-1,-4.916087151E0,2.424904108E0
6.665549271E0,1.819613427E-1,-5.231904030E0,2.440786600E0
6.670304062E0,5.069414377E-1,-5.456702232E0,2.429180145E0
6.675058854E0,8.429170251E-1,-5.580708027E0,2.398025990E0
6.679813646E0,1.176449180E0,-5.588649273E0,2.350378513E0
6.684568437E0,1.497764111E0,-5.490911007E0,2.296622515E0
6.689323229E0,1.794644356E0,-5.322923183E0,2.243477345E0
6.694078073E0,2.060981512E0,-5.106677055E0,2.197662354E0
6.698832864E0,2.294331789E0,-4.846448421E0,2.167730093E0
6.703587656E0,2.494084597E0,-4.567283154E0,2.156123638E0
6.708342448E0,2.658407211E0,-4.287507057E0,2.160399675E0
6.713097239E0,2.783023596E0,-4.013839722E0,2.178725481E0
6.717852031E0,2.864268541E0,-3.755444050E0,2.205603600E0
6.722606823E0,2.898477077E0,-3.520871878E0,2.235536098E0
6.727361667E0,2.885037899E0,-3.299738884E0,2.272187948E0
6.732116458E0,2.830671072E0,-3.079827547E0,2.314948559E0
6.736871250E0,2.742706537E0,-2.859916210E0,2.362595797E0
6.741626042E0,2.627253056E0,-2.635728836E0,2.404745579E0
6.746380833E0,2.497749805E0,-2.413984776E0,2.440175772E0
6.751135625E0,2.365192175E0,-2.198349714E0,2.465221167E0
6.755890469E0,2.233245373E0,-1.979049206E0,2.474994898E0
6.760645260E0,2.104963779E0,-1.754861832E0,2.467664719E0
6.765400052E0,1.986455917E0,-1.534339666E0,2.441397429E0
6.770154844E0,1.880776286E0,-1.310152292E0,2.394971609E0
6.774909635E0,1.786092281E0,-1.083521366E0,2.333274364E0
6.779664479E0,1.699960351E0,-8.660535216E-1,2.263025045E0
6.784419271E0,1.624213099E0,-6.632464528E-1,2.194607973E0
6.789174062E0,1.552131057E0,-4.775435328E-1,2.128634691E0
6.793928854E0,1.479438186E0,-2.979492843E-1,2.062050343E0
6.798683646E0,1.407356143E0,-1.269071549E-1,1.996687889E0
6.803438489E0,1.336495757E0,4.046979174E-2,1.938044906E0
6.808193281E0,1.266857147E0,2.157879770E-1,1.883677959E0
6.812948073E0,1.202716351E0,3.929387629E-1,1.837863088E0
6.817702864E0,1.145905972E0,5.652026534E-1,1.801822066E0
6.822457708E0,1.095204234E0,7.527381182E-1,1.771278739E0
6.827212500E0,1.039615512E0,9.891427755E-1,1.746233344E0
6.831967292E0,9.082795978E-1,1.543197155E0,1.705916286E0
6.836722083E0,6.034580469E-1,2.752709389E0,1.632001638E0
6.841476875E0,2.204458266E-1,4.191906929E0,1.533652425E0
6.846231719E0,-4.894553870E-2,5.130195141E0,1.486004949E0
6.850986510E0,-1.833357960E-1,5.451509953E0,1.529987216E0
6.855741302E0,-2.358701676E-1,5.357436657E0,1.636888504E0
6.860496094E0,-2.462548614E-1,5.050782681E0,1.757228851E0
6.865250885E0,-2.315941155E-1,4.644557476E0,1.856189013E0
6.870005729E0,-2.102138400E-1,4.172969818E0,1.906890750E0
6.874760521E0,-2.108247131E-1,3.645793676E0,1.897727847E0
6.879515312E0,-2.370918989E-1,3.059974432E0,1.828089237E0
6.884270104E0,-2.737437785E-1,2.413068533E0,1.709581494E0
6.889024948E0,-2.963457704E-1,1.730121732E0,1.576412916E0
6.893779739E0,-2.798524201E-1,1.040455461E0,1.453629136E0
6.898534531E0,-2.334267050E-1,3.776671588E-1,1.351003766E0
6.903289323E0,-1.845575273E-1,-2.167042792E-1,1.259374142E0
6.908044167E0,-1.564577371E-1,-7.096721530E-1,1.165300965E0
6.912798958E0,-1.625663936E-1,-1.089019179E0,1.060842991E0
6.917553750E0,-2.089921087E-1,-1.346804142E0,9.484439492E-1
6.922308542E0,-2.945131958E-1,-1.473253131E0,8.311578631E-1
6.927063385E0,-4.099666178E-1,-1.454927206E0,7.169261575E-1
6.931818177E0,-5.388590693E-1,-1.270446062E0,6.118574142E-1
6.936572969E0,-6.677515507E-1,-9.283617735E-1,5.251146555E-1
6.941327760E0,-7.838158607E-1,-4.824304581E-1,4.585303664E-1
6.946082604E0,-8.784999251E-1,-2.290742937E-3,4.096612036E-1
6.950837396E0,-9.267582297E-1,4.381427765E-1,3.699549735E-1
6.955592187E0,-9.084323049E-1,7.588467598E-1,3.314704895E-1
6.960346979E0,-8.247438073E-1,9.329432249E-1,2.844339013E-1
6.965101823E0,-6.897426844E-1,9.787580967E-1,2.160170525E-1
6.969856614E0,-5.138136148E-1,9.286671877E-1,1.188895553E-1
6.974611406E0,-3.177260458E-1,8.138245940E-1,-6.337722298E-3
6.979366198E0,-1.277471036E-1,6.574432254E-1,-1.376736462E-1
6.984121042E0,3.596466407E-2,4.821250141E-1,-2.445749789E-1
6.988875833E0,1.544724256E-1,3.239110410E-1,-3.117701113E-1
6.993630625E0,1.960112303E-1,2.139553875E-1,-3.441459537E-1
6.998385417E0,-1.229365356E-2,1.882990748E-1,-3.484219909E-1
7.003140260E0,-5.956695080E-1,3.300196826E-1,-3.392590284E-1
7.007895052E0,-1.326874614E0,6.189587116E-1,-3.759109080E-1
7.012649844E0,-1.794797063E0,9.653190970E-1,-4.809796512E-1
7.017404687E0,-1.852829218E0,1.248760343E0,-6.208676696E-1
7.022159479E0,-1.652465582E0,1.360548615E0,-7.748056054E-1
7.026914271E0,-1.376354694E0,1.243262529E0,-9.434043169E-1
7.031669062E0,-1.136895657E0,9.225585461E-1,-1.135826707E0
7.036423906E0,-9.933425188E-1,4.680751264E-1,-1.347796798E0
7.041178698E0,-9.927316308E-1,-3.161225095E-2,-1.580536246E0
7.045933489E0,-1.144836903E0,-4.873173833E-1,-1.832212567E0
7.050688333E0,-1.380019903E0,-8.440623879E-1,-2.084499598E0
7.055443125E0,-1.548007727E0,-1.100014806E0,-2.294637203E0
7.060197917E0,-1.549229383E0,-1.291826248E0,-2.422918797E0
7.064952760E0,-1.407508850E0,-1.444542527E0,-2.477285862E0
7.069707552E0,-1.193095326E0,-1.555109024E0,-2.509661674E0
7.074462344E0,-9.664644599E-1,-1.608865142E0,-2.568915367E0
7.079217187E0,-7.648790479E-1,-1.610697746E0,-2.682536364E0
7.083971979E0,-6.097193956E-1,-1.575878382E0,-2.840750217E0
7.088726771E0,-5.113701820E-1,-1.534339666E0,-3.024009705E0
7.093481614E0,-4.612792730E-1,-1.517846227E0,-3.195051908E0
7.098236406E0,-4.563923478E-1,-1.532507062E0,-3.344713688E0
7.102991198E0,-4.851029813E-1,-1.552054644E0,-3.472384453E0
7.107745989E0,-5.364156365E-1,-1.542891741E0,-3.581729174E0
7.112500833E0,-5.956695080E-1,-1.482416153E0,-3.678246021E0
7.117255625E0,-6.616429090E-1,-1.359632254E0,-3.761323452E0
7.122010417E0,-7.447205186E-1,-1.170264244E0,-3.838292599E0
7.126765260E0,-8.473458290E-1,-8.972076178E-1,-3.904876709E0
7.131520052E0,-9.652426839E-1,-5.374082923E-1,-3.980013132E0
7.136274844E0,-1.087415695E0,-1.201876476E-1,-4.082638264E0
7.141029687E0,-1.207145214E0,3.770562708E-1,-4.214585304E0
7.145784479E0,-1.329928994E0,9.781472087E-1,-4.356305599E0
7.150539271E0,-1.456377983E0,1.683085203E0,-4.480922222E0
7.155294114E0,-1.566333652E0,2.478431225E0,-4.595153809E0
7.160048906E0,-1.639026523E0,3.295157433E0,-4.691059589E0
7.164803698E0,-1.656130791E0,4.157698631E0,-4.749702930E0
7.169558542E0,-1.625587583E0,5.033678532E0,-4.761919975E0
7.174313333E0,-1.568777084E0,5.812530994E0,-4.675177097E0
7.179068125E0,-1.572442293E0,6.261516571E0,-4.422890186E0
7.183822969E0,-1.637193918E0,6.238914490E0,-4.009334564E0
7.188577760E0,-1.632917881E0,5.801535606E0,-3.546910048E0
7.193332552E0,-1.480201721E0,5.096597672E0,-3.141906738E0
7.198087396E0,-1.167438984E0,4.356840134E0,-2.827922106E0
7.202842187E0,-7.593812943E-1,3.689165115E0,-2.582965374E0
7.207597031E0,-3.317759335E-1,3.112508774E0,-2.377714872E0
7.212351823E0,6.467530876E-2,2.599382401E0,-2.197509766E0
7.217106614E0,4.067595899E-1,2.083812475E0,-2.035019636E0
7.221861458E0,6.767618060E-1,1.531590700E0,-1.882914305E0
7.226616250E0,8.600212336E-1,9.873101711E-1,-1.749745846E0
7.231371042E0,9.602030516E-1,5.071704984E-1,-1.631237984E0
7.236125885E0,9.919680357E-1,9.239330143E-2,-1.527391076E0
7.240880677E0,9.803616405E-1,-2.619082630E-1,-1.438204765E0
7.245635469E0,9.430988431E-1,-5.593994260E-1,-1.355738044E0
7.250390312E0,8.942296505E-1,-7.841976881E-1,-1.267773509E0
7.255145104E0,8.416953087E-1,-9.069814682E-1,-1.163315654E0
7.259899896E0,7.983239293E-1,-9.289726019E-1,-1.035034060E0
7.264654739E0,7.628937364E-1,-8.837686181E-1,-8.896481991E-1
7.269409531E0,7.378482819E-1,-8.049670458E-1,-7.534253597E-1
7.274164375E0,7.207440734E-1,-7.041743994E-1,-6.330850124E-1
7.278919167E0,7.134137154E-1,-5.832231641E-1,-5.396226645E-1
7.283673958E0,7.219657898E-1,-4.531089365E-1,-4.822013974E-1
7.288428802E0,7.384591699E-1,-3.193295598E-1,-4.626537263E-1
7.293183594E0,7.610611320E-1,-1.892153621E-1,-4.760927260E-1
7.297938385E0,7.934370041E-1,-7.131846249E-2,-5.225184560E-1
7.302693229E0,8.270345330E-1,3.375028074E-2,-5.994874239E-1
7.307448021E0,8.526908755E-1,1.296560466E-1,-6.972258091E-1
7.312202864E0,8.636864424E-1,2.060141414E-1,-7.974076271E-1
7.316957656E0,8.502474427E-1,2.518289983E-1,-8.841503859E-1
7.321712448E0,8.178715706E-1,2.780961990E-1,-9.421825409E-1
7.326467292E0,7.683915496E-1,2.939786613E-1,-9.660062790E-1
7.331222083E0,7.079159021E-1,3.006981909E-1,-9.495129585E-1
7.335976927E0,6.449968219E-1,3.074176908E-1,-9.024763703E-1
7.340731719E0,5.851321220E-1,3.135263622E-1,-8.328377604E-1
7.345486510E0,5.350412130E-1,3.129154742E-1,-7.497601509E-1
7.350241354E0,4.990001619E-1,2.952004075E-1,-6.611847878E-1
7.354996146E0,4.788416326E-1,2.640463114E-1,-5.738310814E-1
7.359750937E0,4.702895284E-1,2.286161482E-1,-4.803687930E-1
7.364505781E0,4.696786702E-1,1.937968582E-1,-3.807978332E-1
7.369260573E0,4.733438492E-1,1.620318890E-1,-2.720639110E-1
7.374015417E0,4.782307744E-1,1.339320987E-1,-1.480583549E-1
7.378770208E0,4.800633490E-1,1.015562713E-1,-6.337722298E-3
7.383525000E0,4.800633490E-1,6.673697382E-2,1.439350098E-1
7.388279844E0,4.776198864E-1,2.886336111E-2,3.033707142E-1
7.393034635E0,4.733438492E-1,-1.084284950E-2,4.597521126E-1
7.397789479E0,4.690677822E-1,-4.382954910E-2,6.118574142E-1
7.402544271E0,4.623482823E-1,-6.826414168E-2,7.627410293E-1
7.407299114E0,4.574613571E-1,-7.437278330E-2,9.075160027E-1
7.412053906E0,4.544070363E-1,-5.787943676E-2,1.048014879E0
7.416808698E0,4.537961781E-1,-1.511890348E-2,1.184848547E0
7.421563542E0,4.611265361E-1,4.902189970E-2,1.322293162E0
7.426318333E0,4.678460658E-1,1.259908676E-1,1.463402987E0
7.431073177E0,4.617374241E-1,2.084576041E-1,1.614897370E0
7.435827969E0,4.275289774E-1,2.903134823E-1,1.779830933E0
7.440582760E0,3.426187932E-1,3.727802336E-1,1.953316450E0
7.445337604E0,1.813504845E-1,4.625773430E-1,2.095037222E0
7.450092396E0,-6.177370250E-2,5.627591610E-1,2.174449444E0
7.454847239E0,-3.623191714E-1,6.873756051E-1,2.194607973E0
7.459602031E0,-6.555342674E-1,8.303179741E-1,2.161621332E0
7.464356875E0,-8.846085668E-1,9.543235302E-1,2.087095976E0
7.469111667E0,-1.051374674E0,1.001971006E0,1.983248830E0
7.473866510E0,-1.162551999E0,9.103412628E-1,1.862297654E0
7.478621302E0,-1.212642908E0,6.311760545E-1,1.741957307E0
7.483376094E0,-1.186986566E0,1.455385387E-1,1.646662354E0
7.488130937E0,-1.046487689E0,-5.441278219E-1,1.595960617E0
7.492885729E0,-7.380009890E-1,-1.430492640E0,1.614286542E0
7.497640573E0,-2.151007652E-1,-2.440862894E0,1.700418472E0
7.502395364E0,4.928915203E-1,-3.411527157E0,1.805487156E0
7.507150208E0,1.260748506E0,-4.214203358E0,1.877569199E0
7.511905000E0,1.892993569E0,-4.704116821E0,1.908112526E0
7.516659792E0,2.256458044E0,-4.723664761E0,1.878180146E0
7.521414635E0,2.367635489E0,-4.374249935E0,1.829921842E0
7.526169427E0,2.276005745E0,-3.789652348E0,1.834808707E0
7.530924271E0,2.040211916E0,-3.110981703E0,1.912999392E0
7.535679062E0,1.725005746E0,-2.461632252E0,2.009516001E0
7.540433906E0,1.388419271E0,-1.870926142E0,2.058385134E0
7.545188698E0,1.075045705E0,-1.298545837E0,2.041280985E0
7.549943542E0,8.233693838E-1,-6.553052068E-1,1.941710114E0
7.554698333E0,6.486620307E-1,4.963276163E-2,1.753563762E0
7.559453177E0,5.387063622E-1,7.704532146E-1,1.485394120E0
7.564207969E0,4.757873118E-1,1.464395642E0,1.174463868E0
7.568962760E0,4.586831033E-1,2.117409945E0,8.397099972E-1
7.573717604E0,4.916698039E-1,2.725831270E0,5.141190886E-1
7.578472396E0,5.771908760E-1,3.271944523E0,2.264017612E-1
7.583227239E0,7.011964321E-1,3.706880093E0,-3.321577236E-2
7.587982031E0,8.093194962E-1,3.957945585E0,-3.154352903E-1
7.592736875E0,8.337540627E-1,4.077675343E0,-6.373610497E-1
7.597491667E0,6.956986189E-1,4.209011078E0,-9.476803541E-1
7.602246510E0,3.988183439E-1,4.303084373E0,-1.236008525E0
7.607001302E0,9.094249457E-2,3.998873472E0,-1.547549605E0
7.611756146E0,-1.198058575E-1,3.174817085E0,-1.878027439E0
7.616510937E0,-2.474765927E-1,2.146731615E0,-2.168188095E0
7.621265781E0,-2.731329203E-1,1.223104000E0,-2.380158186E0
7.626020573E0,-1.027016416E-1,6.189587116E-1,-2.493168354E0
7.630775417E0,2.326631248E-1,4.876227975E-1,-2.492557287E0
7.635530208E0,3.811032772E-1,7.319687009E-1,-2.358167171E0
7.640285052E0,2.320522517E-1,7.869465351E-1,-2.107712507E0
7.645039844E0,7.322741300E-2,2.163988501E-1,-1.791284561E0
7.649794687E0,2.680169232E-2,-7.389936447E-1,-1.493182540E0
7.654549479E0,6.406444311E-2,-1.791513681E0,-1.252501845E0
7.659304323E0,1.587484777E-1,-2.748738766E0,-1.051527381E0
7.664059114E0,2.742019296E-1,-3.525758743E0,-8.737657070E-1
7.668813958E0,3.615556061E-1,-4.066985130E0,-7.314342260E-1
7.673568750E0,3.817141354E-1,-4.421897411E0,-6.220894456E-1
7.678323594E0,3.291797638E-1,-4.649138927E0,-5.347357392E-1
7.683078385E0,2.143371850E-1,-4.751153469E0,-4.657080472E-1
7.687833229E0,6.589704007E-2,-4.717556000E0,-4.162279963E-1
7.692588021E0,-9.109520912E-2,-4.553844452E0,-3.875173330E-1
7.697342864E0,-2.486983240E-1,-4.278954983E0,-3.716348708E-1
7.702097656E0,-4.093557596E-1,-3.905105829E0,-3.594175577E-1
7.706852500E0,-5.907825828E-1,-3.464061499E0,-3.355938494E-1
7.711607292E0,-7.813724279E-1,-2.939328671E0,-2.952767611E-1
7.716362135E0,-9.579123259E-1,-2.330296516E0,-2.445749789E-1
7.721116927E0,-1.112461090E0,-1.646738768E0,-1.840993762E-1
7.725871771E0,-1.244407892E0,-9.100357890E-1,-1.089630052E-1
7.730626562E0,-1.351920128E0,-1.800523996E-1,-8.170315996E-3
7.735381406E0,-1.438052058E0,4.857902229E-1,1.207221523E-1
7.740136198E0,-1.507690668E0,1.074663877E0,2.606101930E-1
7.744891042E0,-1.569388032E0,1.586568594E0,3.882809281E-1
7.749645833E0,-1.624365807E0,2.011119604E0,4.835758209E-1
7.754400677E0,-1.670180678E0,2.337321281E0,5.324450135E-1
7.759155469E0,-1.707443476E0,2.555400133E0,5.306124091E-1
7.763910312E0,-1.730656266E0,2.681849003E0,4.909062088E-1
7.768665104E0,-1.736764908E0,2.719111919E0,4.328740537E-1
7.773419948E0,-1.722715020E0,2.656803608E0,3.840048611E-1
7.778174739E0,-1.687895775E0,2.482096434E0,3.669006526E-1
7.782929583E0,-1.631085277E0,2.190103054E0,4.011090994E-1
7.787684375E0,-1.554727197E0,1.777769208E0,4.884627461E-1
7.792439219E0,-1.456988811E0,1.243873358E0,6.332377195E-1
7.797194062E0,-1.321987748E0,6.012436748E-1,8.268818259E-1
7.801948854E0,-1.145447850E0,-1.061377525E-1,1.051069260E0
7.806703698E0,-9.414190054E-1,-8.526145220E-1,1.262428403E0
7.811458489E0,-7.208967805E-1,-1.597869515E0,1.421253324E0
7.816213333E0,-4.997637570E-1,-2.247218847E0,1.537928462E0
7.820968125E0,-2.780198455E-1,-2.732856274E0,1.619173408E0
7.825722969E0,-5.383246019E-2,-3.064555883E0,1.669875264E0
7.830477760E0,1.831830740E-1,-3.259421825E0,1.699196696E0
7.835232604E0,4.354702234E-1,-3.346164465E0,1.726074815E0
7.839987396E0,7.011964321E-1,-3.350440502E0,1.760894060E0
7.844742239E0,9.766964316E-1,-3.294852018E0,1.801211119E0
7.849497031E0,1.257694244E0,-3.202000380E0,1.838473916E0
7.854251875E0,1.530750751E0,-3.082270861E0,1.862908483E0
7.859006719E0,1.787924886E0,-2.941771984E0,1.869628072E0
7.863761510E0,2.018831730E0,-2.782336235E0,1.858021617E0
7.868516354E0,2.222860575E0,-2.605185509E0,1.838473916E0
7.873271146E0,2.390237570E0,-2.435976028E0,1.809152365E0
7.878025989E0,2.503858328E0,-2.297920465E0,1.767002702E0
7.882780781E0,2.555781841E0,-2.187354088E0,1.713857532E0
7.887535625E0,2.549062252E0,-2.095113516E0,1.660712242E0
7.892290417E0,2.492862701E0,-2.021809816E0,1.613064766E0
7.897045260E0,2.393902779E0,-1.976605654E0,1.579467297E0
7.901800052E0,2.258901596E0,-1.957668900E0,1.569082499E0
7.906554896E0,2.097633362E0,-1.948505878E0,1.589241028E0
7.911309739E0,1.921704292E0,-1.931401730E0,1.639331937E0
7.916064531E0,1.738444805E0,-1.877645612E0,1.714468360E0
7.920819375E0,1.555796266E0,-1.779907227E0,1.801211119E0
7.925574167E0,1.386586666E0,-1.654069066E0,1.897116899E0
7.930329010E0,1.241200924E0,-1.522122264E0,1.992411852E0
7.935083854E0,1.121471405E0,-1.396895051E0,2.073656797E0
7.939838646E0,1.024343848E0,-1.289382815E0,2.139019489E0
7.944593489E0,9.528726935E-1,-1.180648923E0,2.186055899E0
7.949348281E0,9.040035009E-1,-1.057254195E0,2.215377569E0
7.954103125E0,8.765146136E-1,-9.271399975E-1,2.228816509E0
7.958857917E0,8.673516512E-1,-7.939714789E-1,2.228205681E0
7.963612760E0,8.704059720E-1,-6.577486396E-1,2.218431711E0
7.968367552E0,8.826232553E-1,-5.209149122E-1,2.200105906E0
7.973122396E0,9.015600681E-1,-3.908007443E-1,2.175671339E0
7.977877239E0,9.241620302E-1,-2.643517256E-1,2.147571564E0
7.982632031E0,9.528726935E-1,-1.440113783E-1,2.115195751E0
7.987386875E0,9.834159613E-1,-4.321868345E-2,2.080376387E0
7.992141667E0,1.015180945E0,3.191768378E-2,2.045557022E0
7.996896510E0,1.049389362E0,8.323032409E-2,2.008905172E0
8.001651354E0,1.084208608E0,1.137735620E-1,1.975307584E0
8.006406146E0,1.124525666E0,1.211039424E-1,1.944764376E0
8.011160989E0,1.170340538E0,1.131627038E-1,1.917275429E0
8.015915781E0,1.219820619E0,9.605848789E-2,1.894673467E0
8.020670625E0,1.271133304E0,7.528908551E-2,1.876347542E0
8.025425417E0,1.324278474E0,6.185005978E-2,1.869017124E0
8.030180260E0,1.376812816E0,6.246092543E-2,1.874514937E0
8.034935104E0,1.429347277E0,7.284562290E-2,1.893451691E0
8.039689896E0,1.491655469E0,1.143844277E-1,1.924605846E0
8.044444739E0,1.601611137E0,2.328922004E-1,1.971642375E0
8.049199531E0,1.745164275E0,4.228711426E-1,2.027842045E0
8.053954375E0,1.864893794E0,7.228057384E-1,2.076100349E0
8.058709219E0,1.590615511E0,1.796706080E0,2.021733284E0
8.063464010E0,7.250201106E-1,3.488801479E0,1.742568135E0
8.068218854E0,-8.315397054E-2,4.466185093E0,1.451185584E0
8.072973646E0,-5.480220914E-1,4.550484657E0,1.333288789E0
8.077728489E0,-7.325032353E-1,4.122268200E0,1.379714489E0
8.082483333E0,-7.813724279E-1,3.472308159E0,1.500665665E0
8.087238125E0,-7.752637863E-1,2.717279196E0,1.618562579E0
8.091992969E0,-7.575486898E-1,1.910937786E0,1.687590361E0
8.096747760E0,-7.410553098E-1,1.083215952E0,1.685757756E0
8.101502604E0,-7.257837057E-1,2.609919906E-1,1.612453938E0
8.106257448E0,-7.086794972E-1,-5.203040838E-1,1.483561516E0
8.111012239E0,-6.854666471E-1,-1.202029228E0,1.319238901E0
8.115767083E0,-6.634755135E-1,-1.731648922E0,1.135368586E0
8.120521875E0,-6.512582302E-1,-2.067624569E0,9.453896284E-1
8.125276719E0,-6.420952678E-1,-2.180634499E0,7.572432756E-1
8.130031562E0,-6.219366789E-1,-2.074954987E0,5.837576389E-1
8.134786354E0,-5.773435831E-1,-1.762192130E0,4.389826953E-1
8.139541198E0,-5.009855032E-1,-1.286939383E0,3.302487731E-1
8.144296042E0,-4.044688344E-1,-7.279980779E-1,2.569449842E-1
8.149050833E0,-2.963457704E-1,-1.562286615E-1,2.154061943E-1
8.153805677E0,-1.888335794E-1,3.471239209E-1,1.915824711E-1
8.158560469E0,-1.002581790E-1,6.739365458E-1,1.653152853E-1
8.163315312E0,-3.367391974E-2,7.954986691E-1,1.140026376E-1
8.168070156E0,2.191477455E-2,7.637336850E-1,1.992946304E-2
8.172824948E0,7.383827865E-2,6.427824497E-1,-1.101847365E-1
8.177579792E0,1.300378442E-1,4.772381186E-1,-2.543488145E-1
8.182334635E0,1.978438348E-1,3.037525117E-1,-3.991237879E-1
8.187089427E0,2.625955045E-1,1.669187993E-1,-5.329031348E-1
8.191844271E0,1.275943816E-1,2.628245652E-1,-6.428588033E-1
8.196599062E0,-4.631118476E-1,8.639155030E-1,-7.314342260E-1
8.201353906E0,-1.195538759E0,1.548694968E0,-8.395572901E-1
8.206108750E0,-1.663461208E0,1.892611861E0,-9.873865843E-1
8.210863542E0,-1.797240496E0,1.837023139E0,-1.152930856E0
8.215618385E0,-1.774027705E0,1.562744856E0,-1.322751284E0
8.220373229E0,-1.719049811E0,1.203556299E0,-1.491960883E0
8.225128021E0,-1.695226073E0,8.504765034E-1,-1.662392139E0
8.229882864E0,-1.740430117E0,5.676460862E-1,-1.834656000E0
8.234637708E0,-1.840611935E0,3.764454126E-1,-2.005087376E0
8.239392500E0,-1.914526582E0,2.170097083E-1,-2.155970812E0
8.244147344E0,-1.885205030E0,2.275471389E-2,-2.268980980E0
8.248902135E0,-1.753869176E0,-2.191477418E-1,-2.349004269E0
8.253656979E0,-1.563279271E0,-4.732674956E-1,-2.428416491E0
8.258411823E0,-1.354363561E0,-7.041743994E-1,-2.538983107E0
8.263166614E0,-1.155221701E0,-9.112575054E-1,-2.683147192E0
8.267921458E0,-9.762382507E-1,-1.104290843E0,-2.848691463E0
8.272676302E0,-8.302416205E-1,-1.283885002E0,-3.008738041E0
8.277431094E0,-7.233402729E-1,-1.440266490E0,-3.147404432E0
8.282185937E0,-6.653081179E-1,-1.562439442E0,-3.266523123E0
8.286940781E0,-6.543125510E-1,-1.634521484E0,-3.373424292E0
8.291695573E0,-6.824123263E-1,-1.632077932E0,-3.474828005E0
8.296450417E0,-7.373901606E-1,-1.532507062E0,-3.567679405E0
8.301205260E0,-8.137482405E-1,-1.319315195E0,-3.648313522E0
8.305960052E0,-9.059888124E-1,-9.766200781E-1,-3.704513073E0
8.310714896E0,-1.011057615E0,-4.989238083E-1,-3.741164923E0
8.315469739E0,-1.099632978E0,4.046979174E-2,-3.785758018E0
8.320224531E0,-1.168049812E0,6.085740328E-1,-3.848066330E0
8.324979375E0,-1.229136348E0,1.209054112E0,-3.948858976E0
8.329734219E0,-1.289000988E0,1.811977625E0,-4.093634129E0
8.334489010E0,-1.363526583E0,2.406960011E0,-4.244517326E0
8.339243854E0,-1.456988811E0,2.985448837E0,-4.396622658E0
8.343998698E0,-1.562057614E0,3.524231672E0,-4.550560951E0
8.348753489E0,-1.670791507E0,4.063014507E0,-4.689837933E0
8.353508333E0,-1.753258228E0,4.579805851E0,-4.786965370E0
8.358263177E0,-1.774638534E0,5.077049732E0,-4.827893257E0
8.363017969E0,-1.721493363E0,5.510152817E0,-4.775969982E0
8.367772812E0,-1.631696224E0,5.802757263E0,-4.582936764E0
8.372527656E0,-1.606039882E0,5.785042286E0,-4.179765701E0
8.377282448E0,-1.586492181E0,5.402029991E0,-3.641593933E0
8.382037292E0,-1.466762662E0,4.739241600E0,-3.127245903E0
8.386792135E0,-1.197982192E0,4.020864487E0,-2.729573011E0
8.391546927E0,-8.058069944E-1,3.375180721E0,-2.442466497E0
8.396301771E0,-3.635408878E-1,2.809519768E0,-2.223776817E0
8.401056614E0,4.696023092E-2,2.300669432E0,-2.048458576E0
8.405811406E0,3.884336352E-1,1.835190535E0,-1.896964192E0
8.410566250E0,6.352230310E-1,1.378263712E0,-1.755854487E0
8.415321094E0,7.867174745E-1,9.353867173E-1,-1.628794551E0
8.420075885E0,8.581886292E-1,5.035052896E-1,-1.509065032E0
8.424830729E0,8.795689344E-1,8.200860023E-2,-1.396665931E0
8.429585573E0,8.771254420E-1,-3.284925222E-1,-1.286710262E0
8.434340364E0,8.685733676E-1,-7.102830410E-1,-1.174921989E0
8.439095208E0,8.533017635E-1,-1.034652233E0,-1.054581642E0
8.443850052E0,8.252019882E-1,-1.269835114E0,-9.201914072E-1
8.448604844E0,7.854957581E-1,-1.394451618E0,-7.711403966E-1
8.453359687E0,7.244092822E-1,-1.417664409E0,-6.141481996E-1
8.458114531E0,6.425533891E-1,-1.362686634E0,-4.614319801E-1
8.462869323E0,5.564214587E-1,-1.250898361E0,-3.276526034E-1
8.467624167E0,4.782307744E-1,-1.090240955E0,-2.244164497E-1
8.472379010E0,4.201986194E-1,-9.027054310E-1,-1.590539217E-1
8.477133802E0,3.872119188E-1,-6.980656981E-1,-1.395062506E-1
8.481888646E0,3.811032772E-1,-4.854847789E-1,-1.706603467E-1
8.486643489E0,3.902662396E-1,-2.729038298E-1,-2.494619042E-1
8.491398333E0,4.037052691E-1,-7.009673119E-2,-3.606393039E-1
8.496153125E0,4.098139107E-1,1.119409725E-1,-4.870882928E-1
8.500907969E0,4.030944109E-1,2.652680278E-1,-6.147590280E-1
8.505662812E0,3.756054938E-1,3.868301213E-1,-7.277690172E-1
8.510417604E0,3.236819804E-1,4.766272306E-1,-8.114575148E-1
8.515172448E0,2.534325123E-1,5.218312144E-1,-8.468876481E-1
8.519927292E0,1.789070219E-1,5.297724605E-1,-8.352812529E-1
8.524682135E0,1.062141135E-1,5.151117444E-1,-7.839685678E-1
8.529436927E0,4.818195850E-2,4.876227975E-1,-6.990583539E-1
8.534191771E0,1.091920771E-2,4.552469850E-1,-5.933787823E-1
8.538946614E0,-4.352411721E-3,4.198168218E-1,-4.742601514E-1
8.543701406E0,2.977965865E-3,3.862192631E-1,-3.484219909E-1
8.548456250E0,2.741255611E-2,3.562868834E-1,-2.201403975E-1
8.553211094E0,6.345357746E-2,3.355174661E-1,-9.185878932E-2
8.557965885E0,1.001054645E-1,3.257436454E-1,4.008800164E-2
8.562720729E0,1.337030232E-1,3.233001828E-1,1.811977625E-1
8.567475573E0,1.618028134E-1,3.239110410E-1,3.271944523E-1
8.572230417E0,1.831830740E-1,3.208567202E-1,4.725802541E-1
8.576985208E0,2.015090138E-1,3.129154742E-1,6.100248694E-1
8.581740052E0,2.149480432E-1,3.055851161E-1,7.364738584E-1
8.586494896E0,2.271653414E-1,3.019199073E-1,8.531489968E-1
8.591249687E0,2.332739830E-1,3.092502952E-1,9.612720609E-1
8.596004531E0,2.393826395E-1,3.275762498E-1,1.064508200E0
8.600759375E0,2.399934977E-1,3.575085998E-1,1.167744398E0
8.605514219E0,2.351065874E-1,3.959930837E-1,1.267315388E0
8.610269010E0,2.241110206E-1,4.369210303E-1,1.369329810E0
8.615023854E0,2.021198869E-1,4.766272306E-1,1.478674531E0
8.619778698E0,1.666897237E-1,5.071704984E-1,1.600236654E0
8.624533489E0,1.165988147E-1,5.334376693E-1,1.732183456E0
8.629288333E0,4.390590638E-2,5.523744822E-1,1.861075878E0
8.634043177E0,-6.238456443E-2,5.645917654E-1,1.961868644E0
8.638798021E0,-2.322049737E-1,5.639809370E-1,2.024176836E0
8.643552812E0,-5.089266896E-1,5.554288030E-1,2.040670156E0
8.648307656E0,-8.546761870E-1,5.548179150E-1,2.027231216E0
8.653062500E0,-1.161941171E0,5.658134818E-1,1.996687889E0
8.657817344E0,-1.365970016E0,5.523744822E-1,1.953927398E0
8.662572135E0,-1.465541005E0,4.491383433E-1,1.906890750E0
8.667326979E0,-1.467984438E0,1.962403059E-1,1.870238900E0
8.672081823E0,-1.362915635E0,-2.448040545E-1,1.873293161E0
8.676836614E0,-1.141171813E0,-8.526145220E-1,1.927049279E0
8.681591458E0,-8.058069944E-1,-1.585041404E0,2.026009321E0
8.686346302E0,-3.488801420E-1,-2.381608963E0,2.151847601E0
8.691101146E0,2.082285285E-1,-3.142746687E0,2.276463985E0
8.695855937E0,8.142064214E-1,-3.735896349E0,2.360152483E0
8.700610781E0,1.391473651E0,-4.115243435E0,2.379700184E0
8.705365625E0,1.842291832E0,-4.211760044E0,2.335107088E0
8.710120469E0,2.098855019E0,-3.964970589E0,2.247753382E0
8.714875260E0,2.164217472E0,-3.409083605E0,2.148793221E0
8.719630104E0,2.054872751E0,-2.631452799E0,2.081598043E0
8.724384948E0,1.811137676E0,-1.746309638E0,2.027842045E0
8.729139792E0,1.489822865E0,-8.770490885E-1,1.956370831E0
8.733894583E0,1.144073367E0,-1.098029464E-1,1.842139125E0
8.738649427E0,8.233693838E-1,5.340485573E-1,1.684535980E0
8.743404271E0,5.747473836E-1,1.098487616E0,1.483561516E0
8.748159114E0,4.147008359E-1,1.624442220E0,1.249600291E0
8.752913906E0,3.426187932E-1,2.116188288E0,9.942587614E-1
8.757668750E0,3.468948305E-1,2.557232618E0,7.285326123E-1
8.762423594E0,4.012618065E-1,2.940244913E0,4.560869038E-1
8.767178385E0,4.861720204E-1,3.243233919E0,1.830303669E-1
8.771933229E0,5.869646668E-1,3.477805853E0,-7.170025259E-2
8.776688073E0,6.883682609E-1,3.647015333E0,-2.885572612E-1
8.781442917E0,7.818305492E-1,3.763690710E0,-4.467712343E-1
8.786197708E0,8.630755544E-1,3.846768141E0,-5.396226645E-1
8.790952552E0,9.296598434E-1,3.893193960E0,-5.768854022E-1
8.795707396E0,9.858593941E-1,3.891972303E0,-5.726093650E-1
8.800462239E0,1.040837169E0,3.849211693E0,-5.377900600E-1
8.805217083E0,1.100091100E0,3.762468815E0,-4.944186807E-1
8.809971875E0,1.161788464E0,3.645793676E0,-4.547124803E-1
8.814726719E0,1.217377186E0,3.534616232E0,-4.284452796E-1
8.819481562E0,1.247920394E0,3.454592943E0,-4.260018170E-1
8.824236354E0,1.207603335E0,3.403280497E0,-4.748710096E-1
8.828991198E0,9.797507524E-1,3.454592943E0,-5.878809690E-1
8.833746042E0,4.195877314E-1,3.714821339E0,-7.338776588E-1
8.838500885E0,-2.767980993E-1,4.001927853E0,-9.537889957E-1
8.843255729E0,-8.442915082E-1,4.112494469E0,-1.269606113E0
8.848010521E0,-1.191262722E0,3.863872528E0,-1.607414365E0
8.852765364E0,-1.328707218E0,3.115563154E0,-1.876805663E0
8.857520208E0,-1.259068727E0,1.901163936E0,-1.998367786E0
8.862275052E0,-1.002505422E0,5.279398561E-1,-1.934226990E0
8.867029844E0,-6.078867912E-1,-7.573196292E-1,-1.689270139E0
8.871784687E0,-1.546251476E-1,-1.924071312E0,-1.304425359E0
8.876539531E0,2.729802132E-1,-2.929554701E0,-8.584941030E-1
8.881294375E0,5.661953092E-1,-3.715126991E0,-4.767036140E-1
8.886049167E0,6.877573729E-1,-4.289950848E0,-2.586248815E-1
8.890804010E0,7.030289769E-1,-4.718166828E0,-1.773798615E-1
8.895558854E0,6.706531644E-1,-5.061472893E0,-1.645517051E-1
8.900313698E0,6.156753302E-1,-5.362018108E0,-1.633299738E-1
8.905068542E0,5.460367799E-1,-5.590481758E0,-1.511126757E-1
8.909823333E0,4.544070363E-1,-5.717541695E0,-1.169042438E-1
8.914578177E0,3.407861888E-1,-5.719374180E0,-7.353284955E-2
8.919333021E0,2.045633495E-1,-5.559327602E0,-3.199404106E-2
8.924087864E0,4.268417507E-2,-5.211134911E0,7.101302966E-3
8.928842656E0,-1.466839015E-1,-4.680293083E0,4.497491941E-2
8.933597500E0,-3.519344628E-1,-4.017505169E0,7.368556410E-2
8.938352344E0,-5.480220914E-1,-3.337001562E0,7.490729541E-2
8.943107187E0,-7.343358397E-1,-2.691928387E0,4.314232618E-2
8.947862031E0,-9.163735509E-1,-2.085950613E0,-4.505127668E-3
8.952616823E0,-1.099022150E0,-1.511126757E0,-5.703949928E-2
8.957371667E0,-1.273118615E0,-9.796743989E-1,-1.022434905E-1
8.962126510E0,-1.428889036E0,-5.038107038E-1,-1.285106838E-1
8.966881354E0,-1.557781577E0,-8.231402934E-2,-1.266780794E-1
8.971636146E0,-1.657963395E0,2.939786613E-1,-1.046869531E-1
8.976390989E0,-1.734321475E0,6.452259421E-1,-6.864593178E-2
8.981145833E0,-1.789910197E0,9.757037759E-1,-1.794415340E-2
8.985900677E0,-1.836335897E0,1.280525327E0,4.925097153E-2
8.990655521E0,-1.876042128E0,1.555414438E0,1.317177117E-1
8.995410312E0,-1.913915753E0,1.800371170E0,2.257908881E-1
9.000165156E0,-1.948124170E0,2.008676052E0,3.278053105E-1
9.004920000E0,-1.976223946E0,2.162614107E0,4.273762703E-1
9.009674844E0,-1.995160699E0,2.260963202E0,5.159516931E-1
9.014429687E0,-1.997604132E0,2.322049856E0,5.892554522E-1
9.019184479E0,-1.979889154E0,2.357479811E0,6.430115104E-1
9.023939323E0,-1.940793753E0,2.361755848E0,6.784417033E-1
9.028694167E0,-1.878485560E0,2.303112984E0,7.059305906E-1
9.033449010E0,-1.795407891E0,2.176663876E0,7.328086495E-1
9.038203802E0,-1.690950036E0,2.001956701E0,7.615193129E-1
9.042958646E0,-1.566333652E0,1.787543058E0,8.000037670E-1
9.047713489E0,-1.424612999E0,1.527925491E0,8.635337353E-1
9.052468333E0,-1.269453406E0,1.221271396E0,9.655481577E-1
9.057223177E0,-1.102076411E0,8.724676371E-1,1.102992773E0
9.061977969E0,-9.133192301E-1,4.925097227E-1,1.250821948E0
9.066732812E0,-7.068468928E-1,9.483675659E-2,1.377271056E0
9.071487656E0,-4.918225110E-1,-3.058905303E-1,1.465235591E0
9.076242500E0,-2.780198455E-1,-6.840158105E-1,1.517158985E0
9.080997344E0,-6.421715766E-2,-1.027321815E0,1.547091365E0
9.085752135E0,1.483637840E-1,-1.333975911E0,1.564195633E0
9.090506979E0,3.633881807E-1,-1.602145553E0,1.572136879E0
9.095261823E0,5.869646668E-1,-1.826332927E0,1.570915103E0
9.100016667E0,8.172607422E-1,-2.002872944E0,1.561752200E0
9.104771510E0,1.052443624E0,-2.138484955E0,1.545869708E0
9.109526302E0,1.287626624E0,-2.231336355E0,1.518380761E0
9.114281146E0,1.517311811E0,-2.279594660E0,1.480507135E0
9.119035989E0,1.734168768E0,-2.288146734E0,1.439579248E0
9.123790833E0,1.931478024E0,-2.236834049E0,1.402927279E0
9.128545677E0,2.103741884E0,-2.111606836E0,1.383379698E0
9.133300521E0,2.239964724E0,-1.936899543E0,1.380936146E0
9.138055312E0,2.333427191E0,-1.743866205E0,1.397429585E0
9.142810156E0,2.377409458E0,-1.562439442E0,1.434692264E0
9.147565000E0,2.374965906E0,-1.443931580E0,1.494557023E0
9.152319844E0,2.329761982E0,-1.405447125E0,1.563584805E0
9.157074635E0,2.241797447E0,-1.423162222E0,1.626503825E0
9.161829479E0,2.112293959E0,-1.452483773E0,1.669875264E0
9.166584323E0,1.944917083E0,-1.483026981E0,1.690644622E0
9.171339167E0,1.749440312E0,-1.517235398E0,1.693088055E0
9.176094010E0,1.543578982E0,-1.550832987E0,1.681481719E0
9.180848802E0,1.344437003E0,-1.564271927E0,1.666820884E0
9.185603646E0,1.173394918E0,-1.549000382E0,1.658879638E0
9.190358489E0,1.037782907E0,-1.500131130E0,1.660101414E0
9.195113333E0,9.351575971E-1,-1.412777543E0,1.668653488E0
9.199868177E0,8.612430096E-1,-1.282052398E0,1.673540473E0
9.204623021E0,8.142064214E-1,-1.107345104E0,1.667431831E0
9.209377812E0,7.909935117E-1,-8.941532969E-1,1.647884130E0
9.214132656E0,7.928261161E-1,-6.498073936E-1,1.622838616E0
9.218887500E0,8.105412126E-1,-3.785834610E-1,1.592906237E0
9.223642344E0,8.380300999E-1,-9.025526792E-2,1.561141253E0
9.228397187E0,8.685733676E-1,2.072358727E-1,1.530598044E0
9.233151979E0,9.015600681E-1,5.016726851E-1,1.502498269E0
9.237906823E0,9.296598434E-1,7.692314982E-1,1.483561516E0
9.242661667E0,9.571487308E-1,9.976949096E-1,1.477452874E0
9.247416510E0,9.815833569E-1,1.176678300E0,1.486004949E0
9.252171354E0,9.992983937E-1,1.312290311E0,1.510439515E0
9.256926198E0,1.013348341E0,1.413693786E0,1.544037104E0
9.261680989E0,1.024343848E0,1.482110620E0,1.584964991E0
9.266435833E0,1.032896042E0,1.512653947E0,1.628947258E0
9.271190677E0,1.034728527E0,1.508377910E0,1.671096921E0
9.275945521E0,1.029841661E0,1.477223754E0,1.709581494E0
9.280700364E0,1.017624378E0,1.417358994E0,1.743789911E0
9.285455208E0,1.002352715E0,1.333670497E0,1.772500515E0
9.290210000E0,9.858593941E-1,1.230434418E0,1.795713425E0
9.294964844E0,9.608139396E-1,1.121700406E0,1.813428402E0
9.299719687E0,7.103593946E-1,9.427170753E-1,1.788383007E0
9.304474531E0,-2.438113987E-1,6.262891293E-1,1.605734468E0
9.309229375E0,-1.184543133E0,5.688678026E-1,1.361388564E0
9.313984167E0,-1.424002171E0,9.036217332E-1,1.256319761E0
9.318739010E0,-1.177823663E0,1.329394460E0,1.336953878E0
9.323493854E0,-8.088613153E-1,1.632994294E0,1.475620270E0
9.328248698E0,-4.893790483E-1,1.794262528E0,1.550145745E0
9.333003542E0,-2.719111741E-1,1.824194908E0,1.544647932E0
9.337758333E0,-1.686750352E-1,1.732565284E0,1.487226605E0
9.342513177E0,-1.662315726E-1,1.537699342E0,1.392542601E0
9.347268021E0,-2.468657345E-1,1.260366797E0,1.274034858E0
9.352022864E0,-3.898080885E-1,9.329432249E-1,1.148196697E0
9.356777708E0,-5.681806207E-1,5.841394663E-1,1.030299783E0
9.361532552E0,-7.563269734E-1,2.493855506E-1,9.392809272E-1
9.366287344E0,-9.328668714E-1,-5.421425030E-2,8.812488317E-1
9.371042187E0,-1.092302561E0,-3.187187016E-1,8.555924892E-1
9.375797031E0,-1.229747176E0,-5.337430835E-1,8.574250937E-1
9.380551875E0,-1.337259412E0,-6.956222653E-1,8.757510185E-1
9.385306719E0,-1.403843641E0,-7.945823669E-1,8.959095478E-1
9.390061562E0,-1.414228320E0,-8.190169334E-1,9.111811519E-1
9.394816354E0,-1.336648464E0,-7.420479655E-1,9.179006815E-1
9.399571198E0,-1.155221701E0,-5.642863512E-1,9.105703235E-1
9.404326042E0,-8.760564327E-1,-3.193295598E-1,8.757510185E-1
9.409080885E0,-5.309178233E-1,-6.887500733E-2,7.987820506E-1
9.413835729E0,-1.680641770E-1,1.247691289E-1,6.729438901E-1
9.418590573E0,1.618028134E-1,2.316704690E-1,5.135082006E-1
9.423345364E0,4.281398654E-1,2.481638193E-1,3.467421234E-1
9.428100208E0,6.205622554E-1,1.919642538E-1,1.915824711E-1
9.432855052E0,7.415134907E-1,8.323032409E-2,5.474875495E-2
9.437609896E0,8.044325709E-1,-5.421425030E-2,-7.170025259E-2
9.442364739E0,8.221476078E-1,-2.044869810E-1,-2.024253160E-1
9.447119583E0,8.093194962E-1,-3.413206935E-1,-3.404807448E-1
9.451874375E0,6.449968219E-1,-3.187187016E-1,-4.852557182E-1
9.456629219E0,-2.554178238E-1,5.108356476E-1,-6.843976378E-1
9.461384062E0,-1.542509913E0,1.722180486E0,-9.385173917E-1
9.466138906E0,-2.249891281E0,2.347706079E0,-1.182252407E0
9.470893750E0,-2.285932302E0,2.369697094E0,-1.382616043E0
9.475648594E0,-2.046473265E0,2.076482058E0,-1.543884397E0
9.480403437E0,-1.754480004E0,1.618944407E0,-1.688048482E0
9.485158229E0,-1.494862437E0,1.080772519E0,-1.846873283E0
9.489913073E0,-1.328707218E0,5.401571989E-1,-2.035019636E0
9.494667917E0,-1.279838085E0,6.429351866E-2,-2.253709316E0
9.499422760E0,-1.310381293E0,-3.358229101E-1,-2.477285862E0
9.504177604E0,-1.332372427E0,-6.803506613E-1,-2.667875528E0
9.508932448E0,-1.292666197E0,-9.747874737E-1,-2.795546293E0
9.513687292E0,-1.188208342E0,-1.200196624E0,-2.877402067E0
9.518442083E0,-1.048931241E0,-1.350469351E0,-2.957425356E0
9.523196927E0,-9.004910588E-1,-1.436601281E0,-3.056996346E0
9.527951771E0,-7.679333687E-1,-1.468977094E0,-3.165730476E0
9.532706614E0,-6.732493639E-1,-1.446985960E0,-3.277518511E0
9.537461458E0,-6.249909997E-1,-1.373071313E0,-3.389917850E0
9.542216302E0,-6.201041341E-1,-1.263726473E0,-3.513312340E0
9.546971146E0,-6.488147378E-1,-1.122005939E0,-3.644037485E0
9.551725937E0,-7.013491392E-1,-9.289726019E-1,-3.771708250E0
9.556480781E0,-7.691551447E-1,-6.791289449E-1,-3.897546291E0
9.561235625E0,-8.516218662E-1,-3.639226854E-1,-4.019719124E0
9.565990469E0,-9.566906095E-1,2.764163166E-2,-4.148612022E0
9.570745312E0,-1.084361315E0,4.802924395E-1,-4.312323570E0
9.575500156E0,-1.230358005E0,9.824233055E-1,-4.513298035E0
9.580254948E0,-1.386128545E0,1.523649454E0,-4.713050842E0
9.585009792E0,-1.538233876E0,2.119242668E0,-4.873708248E0
9.589764635E0,-1.676900148E0,2.692844629E0,-4.984274864E0
9.594519479E0,-1.808236122E0,3.270111799E0,-5.062465668E0
9.599274323E0,-1.916970015E0,3.861428976E0,-5.099117279E0
9.604029167E0,-1.985997796E0,4.464352608E0,-5.047194004E0
9.608784010E0,-1.985997796E0,5.077660561E0,-4.883481979E0
9.613538802E0,-1.879707336E0,5.664701939E0,-4.625086308E0
9.618293646E0,-1.646967769E0,6.176606655E0,-4.321486473E0
9.623048489E0,-1.316489935E0,6.522356033E0,-3.992841244E0
9.627803333E0,-1.102076411E0,6.379413605E0,-3.635485411E0
9.632558177E0,-1.034270406E0,5.672643185E0,-3.258581877E0
9.637313021E0,-9.267582297E-1,4.738019943E0,-2.931158304E0
9.642067864E0,-7.208967805E-1,3.830885649E0,-2.687423229E0
9.646822656E0,-4.050796926E-1,3.070358992E0,-2.506607294E0
9.651577500E0,-3.489565104E-2,2.435670614E0,-2.344727993E0
9.656332344E0,3.297906220E-1,1.902385592E0,-2.168188095E0
9.661087187E0,6.333904266E-1,1.497382283E0,-1.972711444E0
9.665842031E0,8.606321216E-1,1.191949844E0,-1.777234674E0
9.670596875E0,1.011515737E0,9.024000168E-1,-1.584812284E0
