Time (s),Acceleration x (m/s^2),Acceleration y (m/s^2),Acceleration z (m/s^2)
6.00038764,0.09477917053377323,-0.20746566133292105,-0.5089099758638705
6.00538764,0.11363983589275833,-0.23679067033146756,-0.44563775529196575
6.01038764,0.1317548988123708,-0.26643352179221175,-0.38182477045082647
6.01538764,0.14881155802491444,-0.2962266768366947,-0.3179380911384433
6.020386973,0.1645066265996788,-0.32599638834277617,-0.2544392309697958
6.025386273,0.17855074937759083,-0.35556337470502675,-0.1917797927393337
6.030386239,0.19067246057456008,-0.3847434887233207,-0.13039732301918272
6.035386239,0.20062202218903066,-0.41334838255536527,-0.07071142228105302
6.040386239,0.20817498624934222,-0.44118617166356,-0.013120150617747893
6.045386272,0.21313542729979087,-0.46806210253263,0.042003237681835746
6.050386272,0.2153387957233083,-0.4937792306151651,0.09431320450943524
6.055386272,0.214654347464955,-0.5181391164227328,0.14349446397809465
6.060386238,0.21098711145889582,-0.5409425488197903,0.18926413131192366
6.065386204,0.20427936263815177,-0.5619903052561589,0.23137347771534392
6.07038617,0.19451157589817608,-0.5810839587496647,0.2696092898440322
6.07538617,0.18170284474683443,-0.5980267408887913,0.3037948376806379
6.080386203,0.16591075732910482,-0.6126244691762633,0.33379045960085707
6.085386236,0.14723073163636452,-0.6246865460056112,0.35949377824358963
6.090386269,0.12579482062168804,-0.6340270356794948,0.3808395654616994
6.095386269,0.10177000645080701,-0.6404658251668605,0.3977992790828939
6.100386269,0.07535601118271039,-0.6438298736314488,0.41038029837758006
6.105386235,0.04678265879241111,-0.6439545549592918,0.4186248889014672
6.110386235,0.016306830564309267,-0.6406850963985465,0.42260893063907334
6.115386235,-0.015790937644657645,-0.6338781149099867,0.4224404460611747
6.120386268,-0.04921016215862807,-0.6234032508936892,0.41825796683437344
6.125386268,-0.08363436360892876,-0.6091448966085836,0.4102287794470194
6.130386268,-0.1187352025049933,-0.5910040138203441,0.3985470906980039
6.135386234,-0.1541767343440881,-0.5689000319829519,0.38343215336682074
6.1403862,-0.18961971967058366,-0.5427728146015515,0.3651263899457761
6.145386166,-0.2247259250944966,-0.5125846774156079,0.34389354779346704
6.150386166,-0.2591623531475623,-0.4783224377996682,0.32001691257683185
6.155386166,-0.2926053419208541,-0.439999470435064,0.2937975989051748
6.160386199,-0.3247444795164542,-0.3976577399829561,0.26555292832722327
6.165386232,-0.3552862831996969,-0.3513697773076691,0.23561489602316463
6.170386932,-0.3839575984759199,-0.3012405619109597,0.2043287190400862
6.175387598,-0.4105086789051468,-0.24740926985073647,0.1720514510586002
6.180387598,-0.4347159132029062,-0.19005084375466513,0.13915064161955817
6.185387564,-0.4563841720784263,-0.12937733973473883,0.10600301167958812
6.190387564,-0.4753487533974891,-0.0656390050386005,0.07299311255594434
6.195387564,-0.4914769106394565,0.0008749599998892787,0.040511932031894675
6.200387597,-0.5046689561821878,0.06983600183909984,0.008955409825951804
6.205387597,-0.5148589375682989,0.14087622064853736,-0.021277175119511056
6.210387597,-0.5220148914054409,0.21358882776542826,-0.04978498098380705
6.215387597,-0.5261386857128398,0.2875290944132023,-0.07616757461748827
6.220387597,-0.5272654671007516,0.3622158284072722,-0.10002712433918148
6.225387597,-0.5254627339278557,0.43713341036888925,-0.12097083314140365
6.230387563,-0.5208290603533846,0.5117344147040663,-0.13861362362149163
6.235387563,-0.5134924988982228,0.5854428334356713,-0.15258107756321757
6.240387563,-0.5036086907537676,0.6576579129945552,-0.16251262453439055
6.245387596,-0.4913587137184891,0.7277586053039846,-0.1680649654067548
6.250387596,-0.47694669746176255,0.7951086249327367,-0.16891570847854936
6.255387596,-0.46059723502684763,0.8590620937940842,-0.16476718790313147
6.260387562,-0.44255261833504084,0.9189697439589424,-0.15535042638647373
6.265387528,-0.4230699241828343,0.9741856378079534,-0.14042919666975825
6.270387528,-0.4024179760350757,1.0240743531232532,-0.11980412932408552
6.275387561,-0.3808742059437582,1.0680185689241006,-0.09331680807689688
6.280387594,-0.358721440212731,1.1054269760112803,-0.06085378848201337
6.285387594,-0.33624463196365195,1.1357424245277556,-0.02235047141208501
6.290387594,-0.3137275635032154,1.1584502096632965,0.02220524028623887
6.295387594,-0.29144954132019496,1.1730863862263217,0.07276957552562469
6.300387594,-0.26968210661382,1.1792459934530242,0.12923989331737976
6.305387594,-0.2486857844236601,1.1765910633732988,0.19145211945349788
6.31038756,-0.22870689468825894,1.1648582795017777,0.25917869374104624
6.31538756,-0.20997444895966494,1.1438661477278356,0.332127097504921
6.32038756,-0.19269715710573718,1.1135215382733326,0.40993902761261414
6.325387593,-0.1770605691453154,1.0738254568503918,0.4921902787112758
6.330387593,-0.1632243783206716,1.024877905098942,0.5783913894581746
6.335387593,-0.15131991252587737,0.9668816953007721,0.6679891009995992
6.340387559,-0.14144784218903694,0.900145092381726,0.7603686666226724
6.345387525,-0.13367613356944993,0.8250831673678514,0.8548570403431293
6.350387491,-0.12803827710732382,0.7422177607373852,0.95072695934675
6.355387491,-0.12453182090756407,0.6521759714063609,1.0472019209528718
6.360387524,-0.1231172396383011,0.5556871072060434,1.1434620394782848
6.365387557,-0.12371716908647842,0.45357805539299545,1.2386507524465664
6.37038759,-0.1262160363354554,0.3467670566676933,1.3318823293918443
6.37538759,-0.1304601149806669,0.2362558929980827,1.4222501203869635
6.38038789,-0.13625803390582,0.12312052780512625,1.5088354657156646
6.385387856,-0.14338176679756687,0.00850026624742761,1.5907171731707763
6.390387822,-0.15156812765672092,-0.10641446712707635,1.6669814556805644
6.395387822,-0.16052079492137486,-0.22039560681274778,1.7367322097040183
6.400387855,-0.1699128832578301,-0.332192025924575,1.799101504409485
6.405387888,-0.17939007736503235,-0.4405450351795026,1.8532601433361107
6.410387888,-0.1885743360576402,-0.5442045949773008,1.89842815425646
6.415387888,-0.19706816727895765,-0.6419460125479731,1.9338850594363928
6.420387854,-0.20445946542119628,-0.7325868777146544,1.9589797774066178
6.42538782,-0.21032689127626122,-0.8150039761292323,1.9731400085611317
6.430387786,-0.2142457620241578,-0.888149908271951,1.9758809601551048
6.435387786,-0.21579440394376775,-0.9510691364687697,1.9668132713745847
6.440387819,-0.21456090431124766,-1.002913181038125,1.9456500059188138
6.445387852,-0.21015018186852344,-1.0429546906846439,1.9122125878553282
6.450387885,-0.20219127821552377,-1.070600121474366,1.8664355663721017
6.455387885,-0.19034475655241614,-1.0854007729873072,1.8083701066236237
6.460387885,-0.17431008035903242,-1.0870619491801852,1.738186117454972
6.465387851,-0.15383283361922728,-1.0754500346651712,1.6561729426807335
6.470387851,-0.1287116365561751,-1.0505973042008785,1.562738560866257
6.475387851,-0.09880460673455332,-1.0127043141284793,1.4584072589697405
6.480387884,-0.06403521479421882,-0.962139759425291,1.3438157672989262
6.485387884,-0.024397386892497267,-0.8994377192432098,1.2197078665311076
6.490387884,0.02004028797780596,-0.8252922574388207,1.0869275017118323
6.495387884,0.06913137833171017,-0.7405493926909392,0.9464104631237865
6.500387884,0.12264957818763554,-0.6461965050910654,0.7991747198638173
6.505387884,0.18028792671023486,-0.54334930196872,0.6463095190557008
6.51038785,0.24165936374073094,-0.43323652401116525,0.48896339176729187
6.515387816,0.3062986816852645,-0.3171826316117447,0.3283312353080759
6.520387816,0.37366590645522785,-0.19658876835074213,0.16564066944848482
6.525387849,0.44315110879564906,-0.0729123506479051,0.0021378894398315297
6.530387582,0.5140806132796426,0.05235432312776485,-0.16092674056078876
6.535387582,0.5857245367488223,0.17770601724507326,-0.3223130959511618
6.540387582,0.657305552528517,0.3016466094165263,-0.4808054384992163
6.545387548,0.7280087429341051,0.4227107941775497,-0.6352260416206906
6.550387548,0.7969923720438249,0.53948499426355,-0.7844480479109809
6.555387548,0.8633993850148544,0.6506270596681498,-0.9274073363134204
6.560387581,0.926369420716066,0.7548843725768749,-1.0631132088019817
6.565387581,0.9850511121733898,0.851110027335082,-1.1906577459540915
6.570387581,1.0386144449236594,0.9382768155207757,-1.3092237246302203
6.575387581,1.0862629470240304,1.0154888140460985,-1.418091036084887
6.580387581,1.1272454957247613,1.0819904457307177,-1.5166415861766305
6.585387581,1.1608675435635543,1.1371729536898403,-1.6043626983622927
6.590387547,1.1865015892185684,1.1805783000897485,-1.6808490730297265
6.595387547,1.2035967439544026,1.2119005636254727,-1.7458033824639718
6.600387547,1.211687271031296,1.2309849661677013,-1.799035599215295
6.60538758,1.2104000013785425,1.2378247056272313,-1.8404611674209637
6.61038758,1.1994605528851299,1.232555808060828,-1.8700981327947324
6.61538758,1.178698301944928,1.215450236940365,-1.8880633488193743
6.620387546,1.1480500738338628,1.18690751146683,-1.8945678754195399
6.625387546,1.107562532831311,1.1474450894553063,-1.8899116831630092
6.630387546,1.0573932639085126,1.0976877647184962,-1.8744777716997356
6.635387579,0.997810546008187,1.038356315556904,-1.8487258062401906
6.640387612,0.9291918235855193,0.9702556218294712,-1.8131853706316674
6.645387612,0.8520208894959169,0.8942624452469985,-1.7684489300602602
6.650387612,0.7668837996501181,0.8113130430835511,-1.7151645905681734
6.655387612,0.6744635487831068,0.7223907612080509,-1.6540287363808506
6.660387612,0.5755335472854217,0.6285137294763709,-1.5857786193805126
6.665387612,0.4709499509915239,0.5307227619064769,-1.5111849678046636
6.670387578,0.36164290863918724,0.43006954619877413,-1.4310446733331166
6.675387578,0.24860680497244272,0.32760519239602803,-1.3461736072924881
6.680387578,0.13288959080149765,0.22436919897682173,-1.2573996081082974
6.685387611,0.015581304475360902,0.12137888643460674,-1.1655556738767059
6.690387611,-0.10219809804528604,0.019619343225321252,-1.0714733865465866
6.695387611,-0.21931147517882182,-0.07996607344355688,-0.975976588137707
6.700387577,-0.33461765304776087,-0.17648463954738003,-0.8798753249318177
6.705387577,-0.4469848489564516,-0.2691025245566357,-0.7839600727387211
6.710387577,-0.555304204508572,-0.357052362380168,-0.6889962551064565
6.71538761,-0.6585032598052687,-0.4396400808231807,-0.5957190665552246
6.72038761,-0.7555591935694955,-0.5162509327516458,-0.504828614298918
6.72538761,-0.8455116491076331,-0.5863546679189983,-0.4169853941206074
6.73038761,-0.9274749630368998,-0.6495097814918044,-0.3328061187060214
6.73538761,-1.0006496130668394,-0.7053667745837795,-0.25285991943508385
6.74038761,-1.064332703294204,-0.7536703644324645,-0.17766494501171518
6.745387576,-1.1179273109453636,-0.7942605880063183,-0.10768538199144913
6.750387576,-1.1609505277473215,-0.8270727533473138,-0.04332892284139822
6.755387576,-1.193040042557207,-0.8521362079936354,0.015055293768876633
6.760387609,-1.2139591299106158,-0.8695719131339621,0.0671782485445027
6.765387642,-1.2235999320138684,-0.879588835045088,0.11281209596707423
6.770387642,-1.221984949353526,-0.8824791907423547,0.15179069733463563
6.775387608,-1.2092666869939004,-0.8786126111063041,0.1840096307209187
6.780387574,-1.1857254387258476,-0.8684293102807648,0.2094256855290292
6.78538754,-1.1517652280847281,-0.8524323731421107,0.2280558587651411
6.790387506,-1.1079079622951062,-0.8311792917156611,0.23997587872461096
6.795387506,-1.0547858909455967,-0.805272895712064,0.24531828858844304
6.800387539,-0.9931324944156661,-0.7753518316392943,0.2442701268229714
6.805387572,-0.9237719567731509,-0.742080749473018,0.23707024298339682
6.810387605,-0.8476074032164139,-0.7061403561845062,0.22400628668378586
6.815387605,-0.765608102519753,-0.6682174921967424,0.20541140461132384
6.820387605,-0.6787958500070194,-0.6289953807379186,0.1816606762769927
6.825387571,-0.588230756273247,-0.5891441916723599,0.15316731458249955
6.830387571,-0.49499667134145403,-0.5493120511638422,0.12037865311670128
6.835387571,-0.40018647345331804,-0.5101166168097656,0.08377193913597474
6.840387604,-0.30488744669199236,-0.47213732497015964,0.04384995004298379
6.845387604,-0.21016696280615166,-0.43590840317777696,0.0011364522616793972
6.850387604,-0.11705867083640603,-0.40191272602881145,-0.04382847526068855
6.85538757,-0.02654938437178504,-0.37057657811556094,-0.09049322562223719
6.860387536,0.060433158767575164,-0.3422653726875552,-0.13829952346259744
6.865387502,0.14303150551183,-0.31728036008751304,-0.18668732073530345
6.870387502,0.2204685229467364,-0.2958563457636401,-0.23509968580179552
6.875387535,0.29205613547096715,-0.2781604238611358,-0.28298764025692563
6.880387568,0.35720265765272186,-0.2642917190580201,-0.3298148970338585
6.885387601,0.41541863651545297,-0.25428211647326915,-0.375062454113476
6.890387634,0.46632113797506675,-0.24809794718381836,-0.4182330002700204
6.895387634,0.5096364343024362,-0.24564258513946385,-0.45885509230139054
6.9003876,0.5452010726220845,-0.24675990001934275,-0.4964870666889899
6.905387566,0.5729613283168258,-0.25123849981676966,-0.5307206522229652
6.910387566,0.5929710714968244,-0.2588166867459248,-0.5611842534690482
6.915387566,0.6053880990981293,-0.2691880406155938,-0.5875458777570062
6.920387599,0.610469009314857,-0.28200753538391016,-0.609515680500227
6.925387599,0.6085627184422605,-0.2968980875190954,-0.626848105212253
6.930387599,0.6001027422177267,-0.31345742936255816,-0.6393435958965108
6.935387599,0.5855983837408403,-0.33126519715855546,-0.6468498609855247
6.940387599,0.5656249873902417,-0.3498901218756938,-0.6492626701071456
6.945387599,0.5408134322862916,-0.36889721136174414,-0.6465261679737482
6.950387565,0.5118390493698238,-0.38785481464113236,-0.638632693838166
6.955387565,0.47941015281375904,-0.40634146317418574,-0.6256221003503165
6.960387565,0.4442563791240337,-0.42395238951570785,-0.6075805722586439
6.965387598,0.40711702592939536,-0.4403056308347057,-0.5846389530238079
6.970387598,0.3687295772568559,-0.455047632924858,-0.556970595680789
6.975387598,0.32981859330570623,-0.46785827939408375,-0.524788762775814
6.980387564,0.2910851307033822,-0.4784552804853656,-0.48834360853623204
6.985387564,0.25319684431067563,-0.48659786633590846,-0.44791878431586235
6.990387564,0.21677890420498594,-0.492089740360886,-0.4038277156132091
6.995387597,0.18240584191381407,-0.49478125981344995,-0.3564096054967052
7.000387597,0.15059441883378022,-0.4945708224086223,-0.30602522502173574
7.005387597,0.12179758778362793,-0.49140545017113085,-0.2530525560265045
7.010387597,0.09639959666427705,-0.4852805742336617,-0.19788235522550848
7.015387597,0.07471226205107609,-0.47623903687601826,-0.14091371034342928
7.02038693,0.05697242083353275,-0.4643693392874642,-0.08254965871843334
7.02538623,0.04334055011862055,-0.4498031750209598,-0.023192936046901414
7.030386196,0.033900529719242116,-0.4327122996071609,0.036758082354578094
7.035386196,0.028660507705629907,-0.4133047960669098,0.0969131930486833
7.040386196,0.027554817600523713,-0.3918208039763841,0.15689388355241057
7.045386229,0.030446885656476446,-0.36852778635009453,0.21633652454437913
7.050386229,0.03713305808446117,-0.3437154140841699,0.27489521201533673
7.055386229,0.047347270956921296,-0.3176901522405807,0.3322442473037427
7.060386195,0.06076647960555226,-0.2907696362406965,0.38808025333539864
7.065386195,0.07701675941613342,-0.263276929219915,0.44212393433928326
7.070385528,0.09567998566906037,-0.23553475436070365,0.49412149323202675
7.075385561,0.11630099618909409,-0.20785979769239052,0.5438457253851834
7.080385561,0.13839513689574448,-0.18055717711979993,0.5910968095943648
7.085385561,0.16145608692371127,-0.1539151717664271,0.6357028170702518
7.090385561,0.18496385699809464,-0.12820030169020752,0.6775199577354561
7.095385561,0.20839285247712216,-0.10365284152415379,0.7164325807298003
7.100385561,0.23121989124927833,-0.08048284276649526,0.7523529434392733
7.105385527,0.2529320668416415,-0.05886672865800925,0.7852207610301799
7.110385527,0.27303434897053597,-0.03894451329073565,0.8150025466605526
7.115385527,0.29105681760448626,-0.02081768325025358,0.8416907513820455
7.12038556,0.30656143263884966,-0.004547766183079569,0.8653027122226818
7.12538556,0.31914824962908195,0.009844403231511605,0.8858794168842522
7.13038556,0.3284610026121711,0.022378722738423774,0.9034840936373479
7.135385526,0.334191987510936,0.033115182491658415,0.9182006351416417
7.140385492,0.33608619335636436,0.042152571718929784,0.9301318650051086
7.145385458,0.33394464280955016,0.04962656809596665,0.9393976560448999
7.150385458,0.3276269174646862,0.0557072546347686,0.9461329096878378
7.155385458,0.3170528566080608,0.060596116555659725,0.950485407069085
7.160385491,0.3022034302071627,0.06452257710573962,0.9526135443746734
7.165385524,0.2831207978657946,0.06774013652134932,0.952683967801276
7.170386224,0.2599075753738802,0.0705221822071612,0.9508691268739641
7.17538689,0.23272533931078118,0.07315754064680023,0.947344768318335
7.18038689,0.2017924078161576,0.07594584262583352,0.9422873958117092
7.185386856,0.1673809420050412,0.07919277324095067,0.9358717234862319
7.190386856,0.12981341761200477,0.08320527713390947,0.9282681529500011
7.195386856,0.08945852054977105,0.08828678759608227,0.919640304863113
7.200386889,0.04672652349172297,0.09473254570168256,0.9101426367995739
7.205386889,0.002064203538224015,0.1028250724296909,0.8999181792461615
7.210386889,-0.04405063652695893,0.1128298527761647,0.8890964211008803
7.215386855,-0.09111497909678311,0.12499128609602644,0.8777913749261382
7.220387488,-0.13860666938079186,0.13952895136063098,0.8660998505669477
7.225387454,-0.18599069411130337,0.15663422979841515,0.8540999637209173
7.230387454,-0.23272559571370746,0.17646732074418373,0.8418499037660969
7.235387487,-0.2782699567693799,0.1991546797583405,0.829386982603166
7.24038752,-0.3220888902751072,0.22478690144522834,0.8167269833297981
7.245387553,-0.3636604721505567,0.25341706304638006,0.8038638241173964
7.250387553,-0.40248205371363294,0.28505953885422597,0.7907695486693305
7.255387553,-0.43807639340158944,0.31968928976112565,0.7773946501717893
7.260387519,-0.46999754876274036,0.3572416267894362,0.7636687308571749
7.265387485,-0.4978364716170691,0.3976124422728434,0.7495014944219939
7.270387485,-0.5212262513013657,0.44065889763965127,0.7347840638694938
7.275387518,-0.539846953079082,0.48620055271163704,0.7193906131463418
7.280387551,-0.5534300010103106,0.5340209181895099,0.7031802973478123
7.285387551,-0.5617620567153893,0.5838694104368103,0.6859994632518095
7.290387551,-0.5646883475303827,0.6354636855586673,0.6676841193693852
7.295387551,-0.5621153997615692,0.688492327901049,0.6480626423710509
7.300387551,-0.5540131354685227,0.7426178663138014,0.6269586944305479
7.305387551,-0.5404162948474782,0.7974800895575912,0.6041943234732364
7.310387517,-0.521425151208356,0.8526996296843358,0.5795932153260754
7.315387517,-0.497205491975209,0.907881778800102,0.5529840632609118
7.320387517,-0.46798784708604757,0.9626205004502026,0.5242040164642163
7.32538755,-0.4340659553123982,1.0165025924344702,0.4931021647481203
7.33038755,-0.39579446885777714,1.0691119537253655,0.45954301267362624
7.33538755,-0.35358590670425966,1.1200339047497674,0.42340989264806944
7.340387516,-0.30790687741706496,1.1688595079095456,0.3846082639630837
7.345387516,-0.25927360254915177,1.2151898340953275,0.3430688434650099
7.350387516,-0.20824678238963598,1.2586401212473721,0.29875051358216803
7.355387549,-0.15542585628915168,1.2988437727354074,0.2516429544502603
7.360387549,-0.10144271970160292,1.335456146280981,0.2017689484967073
7.365387549,-0.046954968925784664,1.368158088033292,0.1491863079424258
7.370387549,0.007361248065461478,1.3966591709371479,0.09398937847874418
7.375387549,0.06081869060941368,1.4207006014775578,0.036310076248200145
7.380387549,0.11272670615862165,1.4400577640775334,-0.023681579535188905
7.385387515,0.1623990428200221,1.4545423776537003,-0.08577746937965859
7.390387481,0.20916170307181245,1.464004243797914,-0.14973193483461605
7.395387481,0.2523607489821653,1.4683325704403725,-0.21526291231106764
7.400387514,0.291369971202882,1.4674568585066057,-0.2820536432191091
7.405387547,0.32559833679999856,1.4613473421106247,-0.34975495324606654
7.410387547,0.3544971344004348,1.4500149755354685,-0.41798808203040966
7.415387547,0.3775667389270715,1.4335109630315306,-0.4863480326913537
7.420387513,0.3943629220771207,1.4119258307292828,-0.5544073990963972
7.425387479,0.4045026384271647,1.385388044136832,-0.6217206178883363
7.430387445,0.40766922053172283,1.3540621801213284,-0.6878285826532453
7.435387445,0.4036169197404748,1.3181466691000059,-0.7522635496456702
7.440387478,0.39217473298266503,1.27787113124135,-0.8145542585321875
7.445387511,0.3732494598265317,1.2334933393634793,-0.8742311878223057
7.450387544,0.34682793910331244,1.185295850278164,-0.9308318629942327
7.455387544,0.3129784206547168,1.1335823548822848,-0.9839061356446144
7.460387544,0.27185103563255036,1.0786738048370694,-1.0330213541183444
7.46538751,0.2236773384850479,1.0209043800263233,-1.0777673498496856
7.47038751,0.16876890543821244,0.9606173662421348,-1.11776116893445
7.47538751,0.10751498791893645,0.8981610168152688,-1.1526514851004852
7.480387543,0.040379234816904655,0.8338844750529315,-1.1821226380009637
7.485387543,-0.03210448557236466,0.7681338359119102,-1.2058982492120307
7.490387543,-0.10933711517314842,0.7012484246802073,-1.2237443769114233
7.495387509,-0.19066022050918588,0.6335573669905049,-1.2354721783467753
7.500387475,-0.2753625078506977,0.565376517896692,-1.240940056409287
7.505387441,-0.3626869400085981,0.4970058079151792,-1.2400552727519802
7.510387441,-0.4518383436048083,0.4287270510266711,-1.23277501514587
7.515387441,-0.5419913874478999,0.3608022441311436,-1.2191069116639035
7.520387474,-0.6322988086944391,0.2934723702080977,-1.1991089894395879
7.525387507,-0.7218997638020712,0.22695669963523532,-1.172889081662845
7.53038754,-0.8099281855741487,0.16145256706868438,-1.1406036933545691
7.53538754,-0.8955210352989997,0.09713558618320992,-1.1024563441668926
7.54038754,-0.9778263494040935,0.03416025228109279,-1.0586954146060992
7.545387506,-1.0560109924686754,-0.02733912628873931,-1.0096115302218627
7.550387472,-1.1292680422303294,-0.08724723282627067,-0.9555345260901188
7.555387438,-1.196823746819141,-0.14546635094091326,-0.8968300411117079
7.560387438,-1.2579440093079235,-0.20191484530639997,-0.8338957981108857
7.565387471,-1.3119403691674025,-0.2565255805331491,-0.7671576313038312
7.570387504,-1.3581754636650913,-0.3092443399749295,-0.6970653272181336
7.575387537,-1.3960679639085676,-0.3600283003678987,-0.6240883482852894
7.580387537,-1.4250969894244605,-0.40884461103381564,-0.5487115096729512
7.585387537,-1.4448060113560528,-0.45566911837313695,-0.4714306789225648
7.590387503,-1.4548062572781977,-0.5004852678049481,-0.392748564082895
7.595387503,-1.4547796303703466,-0.5432832064590662,-0.31317064905015
7.600387503,-1.444481152871463,-0.5840591012279389,-0.23320132504886068
7.605387536,-1.4237409394706808,-0.6228146787127736,-0.15334025548257774
7.610387536,-1.3924657018751245,-0.6595569863480095,-0.07407899894368268
7.615387536,-1.3506397823272474,-0.694298367375659,0.004102096862528534
7.620387502,-1.2983257118902694,-0.7270566359928574,0.08073672839511674
7.625387468,-1.2356642889509608,-0.7578554326336212,0.1553752043045223
7.630387434,-1.1628741743660418,-0.7867247329589572,0.22758676380337975
7.635387434,-1.0802510016129099,-0.8137014779869227,0.296961667737949
7.640387434,-0.9881660027189381,-0.8388302873243471,0.36311309016049337
7.645387467,-0.8870641531284164,-0.8621642131075049,0.425678842136564
7.6503875,-0.7774618406105488,-0.8837654894062852,0.48432296171146255
7.655387533,-0.659944064657128,-0.9037062308124848,0.5387372042125963
7.660387533,-0.5351611737140833,-0.922069034932757,0.588642465201546
7.665387533,-0.4038251483580991,-0.9389474465656529,0.6337901642321013
7.670387499,-0.26670543946514297,-0.9544462462016695,0.6739636110443594
7.675387499,-0.1246243717200367,-0.9686815316104656,0.7089793671181818
7.680387499,0.02154787539906235,-0.9817805680183161,0.7386886051017255
7.685387532,0.1708986947210219,-0.9938813891757212,0.7629784571819481
7.690387532,0.32247886934064635,-1.0051321381437692,0.7817733316814633
7.695387532,0.4753087610414713,-1.0156901428030378,0.7950361657235328
7.700387532,0.6283848453384562,-1.025720726981146,0.8027695713055237
7.705387532,0.7806865656311318,-1.0353957638164415,0.8050168230882905
7.710387532,0.931183475104367,-1.0448919836068273,0.8018626291267634
7.715387498,1.0788426309893786,-1.0543890539540648,0.7934336210929436
7.720387498,1.2226362016172851,-1.0640674554261347,0.7798984986888515
7.725387498,1.3615492423708646,-1.0741061810277774,0.7614677642242096
7.730387531,1.4945875921784775,-1.0846802922426113,0.7383929878764952
7.735387531,1.6207858376251651,-1.0959583680959923,0.7109655518696673
7.740387531,1.739215287127538,-1.1080998865074996,0.6795148324157915
7.745387497,1.8489918929949665,-1.1212525791679055,0.6444057913574308
7.750387497,1.9492840546610788,-1.1355498023347401,0.6060359645589231
7.755387497,2.039320232027388,-1.1511079663407584,0.5648318506964828
7.76038753,2.1183962938634044,-1.168024066308178,0.5212447216195311
7.765387563,2.1858825227239174,-1.1863733556454543,0.4757458933036076
7.770387563,2.2412301950286873,-1.2062072024684818,0.4288215139869686
7.775387563,2.2839776529270157,-1.227551167189663,0.3809669427731908
7.780387563,2.313755783473342,-1.2504033371477272,0.33268080716005716
7.785387563,2.3302928206897167,-1.2747329512629073,0.2844588409275097
7.790387563,2.333418387620732,-1.3004793442720226,0.2367876138353031
7.795387529,2.3230666988532493,-1.3275512361682507,0.19013827095628977
7.800387529,2.299278849400234,-1.355826388132557,0.1449604017719403
7.805387529,2.262204123342893,-1.3851516415829108,0.101676157336564
7.810387562,2.2121002650284423,-1.4153433520394507,0.060674728201012114
7.815387562,2.1493326667122234,-1.4461882243549218,0.022307286968790363
7.820387562,2.0743724391206833,-1.477444550524144,-0.013117511933888595
7.825387528,1.9877933453723395,-1.5088438457467628,-0.0453373957433477
7.830387528,1.8902675939455298,-1.5400928725964331,-0.0741396347847827
7.835387528,1.7825605027847355,-1.5708760369815271,-0.09936345141396533
7.840387561,1.6655240638801274,-1.6008581331254315,-0.12090164111843342
7.845387561,1.540089455250134,-1.6296874082636528,-0.138701385198955
7.850387561,1.4072585647126719,-1.6569989114097514,-0.15276424866454744
7.855387561,1.268094606879126,-1.6824180845165373,-0.16314537072343438
7.860387561,1.1237119314637873,-1.7055645486280082,-0.1699518689157682
7.865387561,0.9752651373654141,-1.7260560321945648,-0.17334049179511407
7.870387527,0.8239376228661797,-1.7435123839230853,-0.17351456892767836
7.875387527,0.6709297170457752,-1.757559608987347,-0.17072032011075167
7.880387527,0.5174465501529979,-1.7678338657717325,-0.16524259724318707
7.88538756,0.3646858303378648,-1.7739853608306264,-0.15740014172392178
7.890387593,0.21382570029044515,-1.7756820821845527,-0.1475404476883716
7.895387593,0.06601284966662378,-1.772613314862374,-0.13603432719511993
7.900387559,-0.07764894255889544,-1.764492887067265,-0.12327027796106295
7.905387525,-0.21610966779027502,-1.7510620999766213,-0.10964875741862472
7.910387525,-0.3483831923045836,-1.7320922988813066,-0.09557646822600563
7.915387525,-0.47355646481862734,-1.7073870485851605,-0.08146075889929431
7.920387558,-0.5907977055085384,-1.6767838824996542,-0.06770423803777265
7.925387558,-0.6993634789458967,-1.6401556032728792,-0.05469969160241885
7.930387558,-0.7986045804419832,-1.5974111231357448,-0.042825380696576223
7.935387558,-0.8879706937099872,-1.5484958438879655,-0.03244078326969316
7.940387558,-0.967013805532848,-1.4933915886039415,-0.023882827704657612
7.945387558,-1.0353903882213955,-1.4321161086035068,-0.017462649766073646
7.950387524,-1.0928623817302934,-1.3647221990979501,-0.013462887591507948
7.955387524,-1.1392970240726836,-1.2912964646694511,-0.01213551329259697
7.960387524,-1.1746655915955873,-1.2119577812381894,-0.013700185187381066
7.965387557,-1.1990411204161453,-1.126855504543309,-0.01834309224853996
7.970387557,-1.2125951873520315,-1.0361674766231825,-0.02621625218432809
7.975387557,-1.2155938332413547,-0.9400978815143637,-0.037437216573158946
7.980387523,-1.20839271390084,-0.8388749996110273,-0.0520891305879834
7.985387523,-1.1914315646608877,-0.7327489071807776,-0.07022109128403743
7.990387523,-1.1652280641524413,-0.6219891638650297,-0.09184874751205346
7.995387556,-1.1303711822705276,-0.5068825269623811,-0.11695508624218398
8.000387556,-1.087514095975604,-0.3877307269993565,-0.14549135383603362
8.005387556,-1.0373667545479461,-0.26484833445461015,-0.17737806578322035
8.010387556,-0.9806881730723772,-0.13856074256549056,-0.2125060643072914
8.015387556,-0.9182785296732461,-0.009202286228570018,-0.25073759027955883
8.020386889,-0.85097113878231,0.12288548749660462,-0.2919073441077788
8.025386189,-0.7796243697774702,0.2573553856571602,-0.33582351894720675
8.030385489,-0.7051135777936389,0.3938559641450633,-0.3822687975050407
8.035385489,-0.6283231113127332,0.5320327455466421,-0.4310013100626352
8.040385489,-0.550138458973878,0.6715292575610879,-0.4817555561725324
8.045385522,-0.4714385954461382,0.8119878923288444,-0.5342432964286218
8.050385522,-0.39308858277985004,0.9530505900796163,-0.5881544243679566
8.055385522,-0.3159324792241901,1.0943593538077157,-0.6431578321839264
8.060385955,-0.240786602187769,1.2355566052195195,-0.6989022874274421
8.065385921,-0.16843318621550932,1.3762853959399044,-0.7550173410572186
8.070385887,-0.09961447102935055,1.5161894917723788,-0.8111142899622834
8.075385887,-0.03502724913502527,1.654913351425019,-0.8667872194203604
8.08038592,0.024682102714257245,1.7921020242449197,-0.9216141528932658
8.085385953,0.07892208884692656,1.9274009938585575,-0.9751583380156291
8.090385986,0.12716004213239587,2.0604559958680135,-1.0269696983679057
8.095385986,0.1689255432868657,2.1909128375568248,-1.0765864802783705
8.100385986,0.20381330575667828,2.3184172457268466,-1.1235371221371604
8.105385952,0.23148552357056115,2.4426147654770736,-1.1673423704010832
8.110385952,0.25167368293562287,2.5631507284613884,-1.2075176617972634
8.115385952,0.2641798415867414,2.679670304626149,-1.2435757856323424
8.120385985,0.26887738314052995,2.7918186472828785,-1.2750298340980428
8.125385985,0.26571125707938137,2.8992411380531986,-1.3013964424102724
8.130385985,0.2546977185070494,3.0015837359229094,-1.322199314661057
8.135385951,0.23592358530838642,3.0984934333519107,-1.3369730253645804
8.140385917,0.209545033491367,3.1896188219693946,-1.3452670807771359
8.145385883,0.17578595391266755,3.2746107706638217,-1.3466502181382713
8.150385883,0.13493589498415265,3.3531232197196,-1.3407149149833038
8.155385883,0.08734761620515329,3.424814095969311,-1.3270820745332002
8.160385916,0.0334342765908698,3.4893463556245092,-1.3054058468107577
8.165385949,-0.026333719401535144,3.54638916334312,-1.2753785386564038
8.170386649,-0.09143219766028664,3.5956192178749755,-1.2367355595367682
8.175387315,-0.16128699308481564,3.636722235848113,-1.1892603443648802
8.180387981,-0.23527801434710285,3.6693946054330664,-1.132789189795147
8.185387947,-0.3127435801327478,3.6933452204038137,-1.0672159367524787
8.190387947,-0.3929850145246845,3.708297502386649,-0.9924964293141283
8.195387947,-0.4752714915249697,3.713991614920659,-0.9086526784523136
8.20038798,-0.5588451209570744,3.710186867510868,-0.8157766585139011
8.20538798,-0.6429262699071159,3.6966643013812113,-0.7140336645861801
8.210387513,-0.7267191150952601,3.6732294414690374,-0.6036651599896098
8.215387513,-0.8094174216990949,3.6397151917536124,-0.48499104498815165
8.220386846,-0.8902105427742687,3.595984843681914,-0.3584112804167218
8.225386846,-0.9682896302346211,3.5419351605763505,-0.22440680336639063
8.230386812,-1.0428540432479219,3.4774994946943,-0.08353967644748339
8.235386812,-1.113117933002878,3.402650888158664,0.06354758245133345
8.240386812,-1.1783169744849895,3.3174051043372854,0.21613353654555129
8.245386845,-1.2377152066865182,3.2218235324689686,0.3734202718317309
8.250386845,-1.2906119330943535,3.1160159054882146,0.5345367747143276
8.255386845,-1.3363486247825702,3.000142769175299,0.6985432667905084
8.260386811,-1.3743157593056865,2.874417640042311,0.8644365076956425
8.265386777,-1.4039595200953323,2.739108789826562,1.0311560658220622
8.270386743,-1.4247882734683293,2.594540596109689,1.1975915448435401
8.275386743,-1.4363787339861416,2.4410944013638236,1.3625907411968268
8.280386743,-1.438381724166968,2.279208826570989,1.5249686938133975
8.285386776,-1.4305274318993253,2.109379490397293,1.683517572333999
8.290386809,-1.4126300687862579,1.9321580906780387,1.8370173338403488
8.295386842,-1.384591835377908,1.7481508116692424,1.984247061131138
8.300386842,-1.346406104910656,1.5580160281628879,2.1239968783039282
8.305386842,-1.2981597456057683,1.3624612861727556,2.2550803225234124
8.310386808,-1.2400345124468066,1.1622395495139026,2.376347034970012
8.315386808,-1.1723074521746113,0.9581447123045046,2.486695619590287
8.320386808,-1.0953502794333783,0.751006389326376,2.585086505813987
8.325386841,-1.009627696964565,0.5416840093810326,2.6705546411076266
8.330386841,-0.9156946479393319,0.3310602513286764,2.742221831177361
8.335386841,-0.8141925035256503,0.12003387846435545,2.799308539777388
8.340386807,-0.7058442032989196,-0.09048795562653132,2.8411449563720863
8.345386773,-0.5914483799234543,-0.2995978375105195,2.867181138361084
8.350386739,-0.47187251251894946,-0.5063965479158697,2.8769960353662243
8.355386739,-0.34804516514075934,-0.7100017053069202,2.870305206601282
8.360386772,-0.22094737769566591,-0.9095564443078424,2.8469670494280686
8.365386805,-0.09160328634680984,-1.1042379561175986,2.8069873692216696
8.370387505,0.038929940683566554,-1.293265705022504,2.7505221393226607
8.375387505,0.16957275726770085,-1.4759091298590075,2.6778783265453487
8.380387505,0.2992343790874293,-1.651494644035687,2.5895126928800267
8.385387471,0.4268242926972629,-1.8194117637324216,2.486028526886073
8.390387437,0.5512640034845702,-1.9791182210621279,2.3681703070019733
8.395387437,0.671498876306651,-2.1301439557380974,2.236816351229955
8.40038747,0.7865099074587857,-2.2720939221826786,2.0929695608978856
8.405387503,0.8953252550132937,-2.4046496950410856,1.9377464178364527
8.410387503,0.9970313490101128,-2.5275699003063323,1.7723644411674704
8.415387503,1.090783404810537,-2.640689537665834,1.5981283480929895
8.420387503,1.175815171996792,-2.743918289245508,1.4164151886854284
8.425387503,1.251447766254415,-2.8372379290769993,1.2286587352460112
8.430387503,1.3170974510564675,-2.9206989562287387,1.0363334026697986
8.435387469,1.372282258200077,-2.994416573703342,0.8409379606123503
8.440387469,1.4166273602180486,-3.0585661268382136,0.643979275767872
8.445387469,1.4498691325133284,-3.113378101511815,0.4469562977993191
8.450387502,1.4718578677911025,-3.159132766613653,0.25134447881792854
8.455387502,1.4825591288336757,-3.196154529452563,0.05858079562860125
8.460387502,1.4820537467089263,-3.2248060590312355,-0.12995047351035083
8.465387468,1.4705364894069037,-3.245482221722586,-0.31293108114272783
8.470387468,1.4483134407207023,-3.2586038674546565,-0.4891211301695546
8.475387468,1.4157981416168928,-3.264611502039543,-0.6573702746324963
8.480387501,1.3735065572211667,-3.263958882376021,-0.8166277125902944
8.485387501,1.3220509425084992,-3.257106575367531,-0.965950899444004
8.490387501,1.2621326891710056,-3.2445155279513944,-1.104512926747647
8.495387501,1.19453424501613,-3.226640704055854,-1.2316085261545315
8.500387501,1.1201102054604362,-3.203924853968634,-1.3466586701571803
8.505387501,1.0397776838704411,-3.176792491751344,-1.4492137511149499
8.510387467,0.9545060732092401,-3.1456441659945105,-1.5389553289052536
8.515387433,0.8653063152995898,-3.110851117266288,-1.6156964467301542
8.520387433,0.7732197958773047,-3.0727504210180414,-1.679380525120522
8.525387466,0.6793069836562244,-3.0316407166837465,-1.7300788562846652
8.530387499,0.5846359302638626,-2.9877786217792894,-1.7679867342656999
8.535387499,0.4902707456289656,-2.941375923789916,-1.7934182701604913
8.540387499,0.39726016064639724,-2.8925976325933522,-1.8067999552762983
8.545387465,0.3066262860046844,-2.841560962380102,-1.8086630483448185
8.550387465,0.21935367307877743,-2.7883352949343037,-1.7996348758944158
8.555387465,0.136378779787113,-2.732943156256767,-1.7804291477040037
8.560387498,0.05857994122244495,-2.6753622164518402,-1.751835401819185
8.565387498,-0.013232058394087275,-2.6155282992692572,-1.7147077056896163
8.570387498,-0.07832271931704486,-2.553339363518816,-1.6699527514536343
8.575387498,-0.13604177582058816,-2.488660394658921,-1.6185174942065432
8.580387498,-0.18583027555539855,-2.421329122061227,-1.5613764920975777
8.585387498,-0.22722670620390767,-2.351162456474908,-1.4995191158365526
8.590387464,-0.259872091098878,-2.2779635235169593,-1.4339368017570917
8.595387464,-0.2835139808984319,-2.2015291528668817,-1.3656105258193831
8.600387464,-0.29800927571922436,-2.121657669498329,-1.2954986748416144
8.605387497,-0.30332582162910965,-2.0381568231147664,-1.2245254854021121
8.610387497,-0.2995427370291819,-1.9508516854256812,-1.1535702105124372
8.615387497,-0.2868494379261648,-1.8595923423728566,-1.0834571600288485
8.620387463,-0.2655433460773962,-1.7642612100559256,-1.014946743660911
8.625387463,-0.23602628021882602,-1.6647798088722103,-0.9487276261008438
8.630387463,-0.19879954789175214,-1.5611148401166017,-0.8854100829436083
8.635387496,-0.1544577735957712,-1.4532834227701403,-0.8255206244533314
8.640387529,-0.10368151780677179,-1.3413573651598643,-0.7694979326647191
8.645387529,-0.047228760344537414,-1.225466366173196,-0.717690136523199
8.650387529,0.014074659847607673,-1.1058000631649825,-0.6703534302509226
8.655387529,0.07934553862090438,-0.982608867932405,-0.6276520219840351
8.660387529,0.1476546074569783,-0.8562035575322477,-0.5896593826787033
8.665387529,0.2180384985418698,-0.7269536127707057,-0.5563607488431331
8.670387495,0.2895122165744152,-0.5952843234872635,-0.5276568164503836
8.675387495,0.3610819464005363,-0.46167270584300074,-0.5033685474198266
8.680387495,0.4317580143415786,-0.32664230213153067,-0.4832429947029758
8.685387528,0.5005678130661871,-0.19075695744204563,-0.4669600378576068
8.690387528,0.566568495865026,-0.054613689148735364,-0.4541399086412903
8.695387528,0.6288592465100191,0.08116521578626185,-0.44435137610069686
8.700387494,0.6865929353438766,0.21594072463604372,-0.4371204532006132
8.70538746,0.7389869805029481,0.3490660399511568,-0.4319394823015207
8.710387426,0.7853332448535402,0.47989586459869166,-0.4282764545762772
8.715387426,0.825006813988089,0.6077957720712726,-0.4255844184280698
8.720387459,0.8574735182907232,0.732151501844587,-0.4233108338309797
8.725387492,0.8822960825725394,0.8523780021390809,-0.4209067331532823
8.730387525,0.8991388099110882,0.9679280489465131,-0.4178355546331528
8.735387525,0.907770731584161,1.0783002802696648,-0.41358152266234705
8.740387525,0.9080671815833885,1.1830464977361528,-0.40765745971702627
8.745387491,0.900009781356112,1.2817781036178422,-0.3996119281167408
8.750387491,0.8836848475359689,1.374171559371373,-0.38903561537431164
8.755387491,0.8592802619849873,1.4599727716494175,-0.3755668940864416
8.760387524,0.8270808690547606,1.5390003327825301,-0.35889650539959983
8.765387557,0.7874624892037592,1.6111475644084972,-0.33877133337394294
8.770387557,0.7408846605999326,1.676383334676788,-0.3149972554512228
8.775387523,0.6878822406442794,1.7347516408448203,-0.28744107124419627
8.780387489,0.6290560169776953,1.7863699697919868,-0.25603152771078275
8.785387455,0.5650624920821702,1.831426468764823,-0.22075947328869167
8.790387421,0.49660301696178777,1.8701759773579647,-0.1816771865221438
8.795387421,0.42441245786783033,1.9029349892229122,-0.13889693561641428
8.800387454,0.3492475860442917,1.9300756282012694,-0.09258883345925303
8.805387487,0.271875384192806,1.9520187384298113,-0.042978057334219305
8.81038752,0.1930614644652924,1.969226201429512,0.009658496155233356
8.81538752,0.11355879056010061,1.982192605261482,0.06499605167471667
8.82038752,0.034096890182490965,1.9914364014061354,0.12266622439559853
8.825387486,-0.04462826657431272,1.997490693810811,0.18226165329662936
8.830387486,-0.12196356215099151,2.0008938111566086,0.24334093531254633
8.835387486,-0.197307057085091,2.002179817474117,0.305433797338072
8.840387519,-0.2701152241879106,2.0018691176174697,0.3680464423655765
8.845387519,-0.3399089917643616,2.000459312793362,0.43066700482348425
8.850387519,-0.4062785200080878,1.9984164574708065,0.4927710492138134
8.855387519,-0.46888665917115024,1.9961668627614364,0.5538270462381357
8.860387519,-0.527471062886229,1.9940895829448775,0.6133017624320698
8.865387519,-0.581844954578555,1.9925097113841008,0.6706655033098766
8.870387485,-0.6318965685789051,1.9916925998167407,0.725397156273573
8.875387485,-0.6775873096457016,1.9918391011199723,0.7769889878715142
8.880387485,-0.7189486946356796,1.9930819202523182,0.8249511598382844
8.885387518,-0.7560781579117392,1.9954831411639318,0.8688159388376989
8.890387551,-0.7891338179416996,1.9990329789773529,0.9081415850448252
8.895387551,-0.818328316711679,2.0036497867523493,0.9425159139848337
8.900387517,-0.8439218562038967,2.0091813250028796,0.9715595340695012
8.905387483,-0.8662145671525119,2.015407280368826,0.9949287688503167
8.910387483,-0.8855383542248381,2.022042998002952,1.0123182779220379
8.915387483,-0.9022483682167187,2.028744370766317,1.023463393465794
8.920387516,-0.9167142594284007,2.0351138076642075,1.0281421906404855
8.925387516,-0.929311366971473,2.040707184583997,1.0261773097532227
8.930387516,-0.940411996544522,2.04504166279966,1.017437546872841
8.935387516,-0.9503769346555346,2.047604245273124,1.001839227692761
8.940387516,-0.9595473408530661,2.0478609278011324,0.9793473770874472
8.945387516,-0.9682371515880708,2.04526629177676,0.9499766937809219
8.950387482,-0.976726119962364,2.0392733779639114,0.9137923357288351
8.955387482,-0.9852536047301187,2.029343676342202,0.8709105173043535
8.960387482,-0.9940132093389958,2.014957065802702,0.8214989143908769
8.965387515,-1.003148357467735,1.995621539244604,0.7657768681619693
8.970387515,-1.0127488756318777,1.970882554370705,0.7040153727640427
8.975387515,-1.022848636475608,1.9403318580395152,0.6365368265612543
8.980387481,-1.0334242989966733,1.9036156420996433,0.5637145215104382
8.985387447,-1.0443951647422407,1.8604419007953108,0.48597184104438457
8.990387413,-1.0556241523035466,1.8105868736698936,0.4037811337138863
8.995387413,-1.0669198762980416,1.7539004730655168,0.3176622276300252
9.000387446,-1.0780398013018049,1.6903106115666968,0.22818054925933004
9.005387479,-1.0886944255615778,1.6198263618638367,0.13594480939360348
9.010387512,-1.0985524334655672,1.5425398993483743,0.04160421953402528
9.015387545,-1.1072467396295547,1.458627196138707,-0.05415479585014409
9.020386878,-1.1143813313754494,1.3683474540020326,-0.15061242099882316
9.025386844,-1.1195388009297886,1.2720412825778302,-0.24701982654748839
9.03038681,-1.1222884445066745,1.1701276481971556,-0.342604114474978
9.03538641,-1.1221947931456981,1.0630996371935044,-0.4365738281207788
9.04038641,-1.118826430200328,0.9515190956788501,-0.5281250099633213
9.04538621,-1.1117649430142515,0.8360102250680188,-0.6164477742825029
9.05038621,-1.1006138517370343,0.7172522289114878,-0.7007333469699464
9.05538621,-1.085007356465599,0.5959711215620612,-0.7801815114338556
9.060386176,-1.064618744931269,0.4729308225937333,-0.8540083881987529
9.065386142,-1.0391683066908117,0.34892367249208817,-0.9214544665148217
9.070386108,-1.0084306060699169,0.224760514749481,-0.9817927989371809
9.075386108,-0.9722409747726453,0.10126049691428254,-1.0343372641539303
9.080386141,-0.9305010959493112,-0.020759251890271217,-1.078450799019591
9.085386174,-0.8831835644569126,-0.14049390724612285,-1.1135534974769252
9.090386207,-0.8303353228827102,-0.25716104066274487,-1.1391304715487245
9.095386207,-0.772079889443513,-0.3700103611757211,-1.1547393676379418
9.100386207,-0.7086183119417347,-0.47833296064560726,-1.1600174298885704
9.105386173,-0.6402288014275356,-0.5814699274735357,-1.1546880013951446
9.110386173,-0.567265020013203,-0.6788202078939525,-1.138566353857712
9.115386173,-0.49015301933217925,-0.7698476107396629,-1.111564737281797
9.120386206,-0.409386849245774,-0.8540868696902303,-1.073696544037994
9.125386206,-0.3255228802231847,-0.9311486956722617,-1.0250794865298094
9.130386206,-0.23917290684325135,-1.0007237706728789,-0.9659376952437606
9.135386206,-0.1509961234911409,-1.0625856524055135,-0.8966026542169477
9.140386206,-0.061690085984968016,-1.1165925768443081,-0.8175129038397912
9.145386206,0.028019205868230583,-1.1626881624699141,-0.7292124561021412
9.150386172,0.1173879502220623,-1.2009010359281826,-0.6323478845176334
9.155386138,0.2056657374329719,-1.2313434133997376,-0.5276640697235395
9.160386138,0.29210710883317975,-1.2542086850369258,-0.41599860193386995
9.165386138,0.37598327903338463,-1.2697680611814326,-0.29827486278305665
9.170386838,0.45659381015117806,-1.27836634868796,-0.17549383126927534
9.175386838,0.5332780188554523,-1.2804169336042401,-0.048724680975423235
9.180386838,0.6054258932588255,-1.2763960528580358,0.08090574208952424
9.185387204,0.6724882970632149,-1.2668364427380205,0.21222445042120108
9.190387204,0.7339862435383833,-1.2523204561212113,0.34402472426463077
9.195387437,0.7895190324053563,-1.2334727438141835,0.4750792506908102
9.20038747,0.8387710589346992,-1.2109525980926397,0.6041538281760551
9.20538747,0.88151712683549,-1.185446058412434,0.730021459049407
9.21038747,0.9176261248171315,-1.1576578800440598,0.8514766418045846
9.21538747,0.9470629606591298,-1.12830346568321,0.9673496681974693
9.22038747,0.9698886853689028,-1.0981008575638846,1.0765207264830756
9.22538747,0.9862587822696206,-1.067762883075845,1.1779336121171073
9.230387436,0.9964196400288624,-1.0379895404868547,1.2706088506400621
9.235387436,1.0007032729000078,-1.009460703502916,1.3536560440922363
9.240387436,0.9995203939716623,-0.9828292146449427,1.4262852619469757
9.245387469,0.9933519863712181,-0.9587144283484991,1.4878173098029328
9.250387469,0.98273955189361,-0.9376962557193637,1.537692723189564
9.255387469,0.9682742456481763,-0.9203097542142975,1.5754793487240828
9.260387435,0.9505851286622711,-0.9070402972314614,1.6008783895542626
9.265387401,0.9303267877776306,-0.8983193506957089,1.6137288063513988
9.270387401,0.9081665834880028,-0.8945208761915827,1.6140099799351175
9.275387434,0.8847717914890922,-0.8959583729634901,1.6018425583896942
9.280387467,0.8607969026565577,-0.9028825640249803,1.5774874316010161
9.285387467,0.8368713391207301,-0.9154797245244937,1.5413428001448128
9.290387467,0.8135878314434296,-0.9338706433220335,1.4939393332922184
9.295387467,0.7914916841688145,-0.9581102015281571,1.4359334419876468
9.300387467,0.7710711348502705,-0.9881875447446,1.3680987261263342
9.305387467,0.7527489856554767,-1.0240268191169712,1.2913156901890281
9.310387433,0.736875657367724,-1.0654884352105904,1.2065598559504072
9.315387433,0.7237237836312724,-1.1123708183435066,1.1148884342274563
9.320387433,0.7134844294323126,-1.1644125996903463,1.0174257483713807
9.325387466,0.7062649830652451,-1.2212951996411519,0.9153476296689058
9.330387466,0.7020887362153435,-1.2826457539418252,0.8098650284486149
9.335387466,0.7008961330640593,-1.3480403342256206,0.7022071038716333
9.340387432,0.7025476368943173,-1.4170074175200877,0.5936040692974308
9.345387398,0.7068281317179661,-1.4890315637188556,0.485270077815132
9.350387364,0.7134527472854852,-1.56355726518479,0.37838643324873805
9.355387364,0.7220739691164585,-1.6399929379154605,0.27408540533902404
9.360387397,0.7322898716408459,-1.7177150285158846,0.17343491406175338
9.36538743,0.7436532926498656,-1.7960722153267736,0.07742432780601921
9.370387463,0.7556817512412999,-1.874389685467095,-0.013048405667124398
9.375387463,0.7678678994861241,-1.951973472461833,-0.09718810684471199
9.380387463,0.7796902904461707,-2.0281148418135184,-0.17431203546951116
9.385387429,0.7906242423516853,-2.1020947146016025,-0.24385776484625676
9.390387395,0.8001525810570869,-2.1731881220662457,-0.30538917460337656
9.395387395,0.8077760503979683,-2.2406686869862633,-0.3586005112806681
9.400387428,0.8130231924072129,-2.303813130058057,-0.40331849864375446
9.405387461,0.8154595157708328,-2.3619058008780756,-0.43950251029464993
9.410387461,0.8146957905465955,-2.4142432331298664,-0.46724284595197135
9.415387461,0.8103953292819104,-2.4601387221268625,-0.4867571795372445
9.420387427,0.8022801386059145,-2.498926920232578,-0.4983852714554436
9.425387393,0.7901358504197915,-2.529968442247235,-0.5025820586415497
9.430387359,0.7738153672285536,-2.5526544688867596,-0.49990925374692224
9.435387359,0.7532411814607085,-2.5664113320959796,-0.49102559937367257
9.440387392,0.7284063537209039,-2.570705061177065,-0.47667593500363653
9.445387425,0.6993741599122886,-2.5650458636947224,-0.45767924379466796
9.450387458,0.66627644196691,-2.548992510075798,-0.4349158541832368
9.455387458,0.6293107210939995,-2.522156586012412,-0.4093139774808168
9.460387458,0.5887361553257523,-2.48420657236362,-0.38183576749495524
9.465387424,0.5448684440206165,-2.4348717082850877,-0.35346309168233636
9.470387424,0.49807380025415376,-2.3739455898732227,-0.32518320533314704
9.475387424,0.44876212712984337,-2.301289453849092,-0.2979745204421145
9.480387457,0.3973795455456154,-2.216835093890309,-0.2727926587415711
9.485387457,0.34440042864702625,-2.120587356243696,-0.25055697338928157
9.490387457,0.2903191021008446,-2.0126261613163536,-0.2321377156990029
9.495387457,0.23564136960011198,-1.8931079992156423,-0.21834401193955216
9.500387457,0.18087601994011485,-1.7622668498646283,-0.20991280073417526
9.505387457,0.126526465973141,-1.620414482403524,-0.20749886442287094
9.510387423,0.07308265721748236,-1.4679400939456775,-0.21166606854043427
9.515387389,0.021013397302663987,-1.305309254146399,-0.22287990284061854
9.520387389,-0.029240814899206893,-1.1330621293937886,-0.2415013955294505
9.525387422,-0.07727431559524943,-0.9518109690202793,-0.2677824503362638
9.530387455,-0.12272208880709085,-0.762236846230972,-0.30186263484241466
9.535387455,-0.16526479023938728,-0.565085658691722,-0.3437674288768512
9.540387455,-0.2046329302415398,-0.36116340760451,-0.39340792364295885
9.545387421,-0.24061018340654547,-0.1513307887990271,-0.45058194468120577
9.550387421,-0.2730358109192122,0.06350285606209376,-0.5149765538947922
9.555387421,-0.301806198274004,0.28238616631452335,-0.5861718674246462
9.560387454,-0.32687552485599636,0.5043328927065697,-0.6636461077970834
9.565387454,-0.3482555929494673,0.7283294456725872,-0.746781791781835
9.570387454,-0.3660148522611684,0.9533427660069927,-0.8348729412365671
9.575387454,-0.38027666263009374,1.1783284144891175,-0.9271331939082676
9.580387454,-0.3912168428802822,1.4022387709200757,-1.0227046849662527
9.585387454,-0.39906055811166297,1.6240312289997059,-1.120667567472958
9.59038742,-0.40407860123318323,1.842676271729619,-1.2200500402117236
9.59538742,-0.40658312734002505,2.0571653129314504,-1.3198387534479297
9.60038742,-0.40692290182208435,2.26651819440077,-1.4189894666907725
9.605387153,-0.40547812507172143,2.4697902353256094,-1.5164378371609843
9.610387153,-0.4026548984823292,2.666078740522795,-1.6111102237133994
9.615387153,-0.39887939814714146,2.854528885955972,-1.701934398639744
9.620386453,-0.39459182426865014,3.034338913002659,-1.7878500686523424
9.625386419,-0.39024019579609565,3.2047645764519586,-1.867819115347608
9.630386385,-0.3862740612661,3.365122805009947,-1.9408354735780615
9.635386385,-0.3831381981503034,3.5147945471259243,-2.0059345731556775
9.640386385,-0.3812663739601909,3.653226789286373,-2.062202275647583
9.645386418,-0.38107524257428144,3.7799337486877227,-2.108783244534022
9.650386451,-0.3829584483412616,3.8944972574771426,-2.144888694380348
9.655386484,-0.38728100807986604,3.9965663713850184,-2.1698034731605094
9.660386484,-0.3943740369082539,4.085856251136113,-2.1828924411474624
9.66538595,-0.40452987797672574,4.162146379962447,-2.1836061192495158
9.670385916,-0.41799768901736634,4.225278194271841,-2.171485588759374
9.675385916,-0.4349795306499592,4.275152216478956,-2.146166632822232
9.680385916,-0.4556269930874306,4.311724788655967,-2.107383117258512
9.685385949,-0.48003838970898816,4.335004512577446,-2.054969614453213
9.690385949,-0.5082565382223803,4.3450485055796175,-1.9888632786799443
9.695385949,-0.5402671429383572,4.341958582200869,-1.9091049844884218
9.700385915,-0.5759977850424094,4.325877468788319,-1.8158397418713257
9.705385881,-0.6153175217030113,4.296985152342892,-1.7093164031415045
9.710385847,-0.6580370895119706,4.255495456157571,-1.589886677089349
9.715385847,-0.7039097032886291,4.20165292360069,-1.4580034663488946
9.72038588,-0.7526324378912773,4.135730077986832,-1.3142185442769874
9.725385913,-0.8038481785009226,4.0580251111420935,-1.1591795882770337
9.730385946,-0.857148123876973,3.9688600363566513,-0.9936265874847635
9.735385946,-0.9120748271630558,3.8685793234076495,-0.8183876440427882
9.740385946,-0.9681257595694296,3.7575490148828457,-0.6343741886611393
9.745385912,-1.0247573830842769,3.636156304917955,-0.44257563255052645
9.750385912,-1.0813897185734225,3.504809544434815,-0.24405347888732404
9.755386212,-1.1374113946434858,3.363938621605875,-0.03993491755048045
9.760386245,-1.1921851601803508,3.2139956528970908,0.16859407315440647
9.765386278,-1.245053839506561,3.055455908796788,0.38029609473169657
9.770386944,-1.2953467037058395,2.8888188893111555,0.5938901448103104
9.775386944,-1.3423862248795968,2.7146094576409894,0.8080598610293853
9.780386944,-1.3854951718873287,2.5333789363630537,1.021462173215052
9.785386944,-1.4240039964420899,2.345706069118439,1.2327363453049636
9.790386944,-1.457258447441423,2.1521977523023157,1.4405133883151897
9.79538691,-1.48462733964925,1.9534894453700826,1.6434258240210144
9.80038691,-1.5055103911977372,1.7502451747510714,1.8401177753214664
9.80538691,-1.5193460338451492,1.543157054544523,2.029255353059878
9.810386943,-1.525619091354987,1.3329442567716017,2.2095373003310748
9.815387476,-1.5238682153932739,1.1203513747545237,2.3797058442673493
9.820387042,-1.5136929654229911,0.906146135202319,2.538557692296649
9.825387008,-1.4947604193914061,0.691116427992617,2.6849550952043315
9.830387008,-1.4668112053535,0.476066637701373,2.8178368832776854
9.835387008,-1.429664849963638,0.26181327786275904,2.936229364672269
9.840387041,-1.3832243472263488,0.04917994785191782,3.039256957260735
9.845387041,-1.3274798593466424,-0.16100834687141113,3.1261524070598155
9.850387041,-1.262511470541326,-0.3679314478676426,3.1962664285418634
9.855387107,-1.188490924133224,-0.5707807830164296,3.2490765856454034
9.860387107,-1.1056822832800892,-0.7687664802335094,3.284195218239149
9.865387107,-1.0144414666331536,-0.9611247191810556,3.301376208493214
9.870387073,-0.9152146225149355,-1.1471251608920123,3.3005203766723854
9.875387073,-0.8085353192271185,-1.3260782740257937,3.281679298259097
9.880387073,-0.6950205451154304,-1.497342359775763,3.245057346310002
9.885387106,-0.5753655303166703,-1.6603300679285615,3.1910117868260803
9.890387139,-0.4503374231091687,-1.8145141972729257,3.1200507924318046
9.895387139,-0.3207678778999385,-1.9594325873975684,3.0328292912971855
9.900387105,-0.1875446391067154,-2.0946919381094227,2.9301426323028936
9.905387071,-0.051602234506104926,-2.2199704378765874,2.812918119535304
9.910387037,0.08608807940373868,-2.3350191418037625,2.682204542753738
9.915387003,0.22452895225165456,-2.4396621072585183,2.539159898586256
9.920387003,0.36270796882115536,-2.5337953631493013,2.385037554464727
9.925387036,0.4996088767970343,-2.6173848479797193,2.2211711502545004
9.930387069,0.6342228173177525,-2.690463495094818,2.0489585589662
9.935387102,0.7655593698333275,-2.7531276677416585,1.8698452366582574
9.940387102,0.8926572365099348,-2.80553315202995,1.6853072834723906
9.945387102,1.0145944101191144,-2.8478909049639194,1.4968345165447101
9.950387068,1.1304976917321288,-2.880462730537195,1.3059138274442637
9.955387068,1.2395514489479442,-2.90355702286746,1.114013067665055
9.960387068,1.3410055295555374,-2.9175246751902613,0.9225656786336387
9.965387101,1.4341822671315336,-2.922755211077276,0.7329562576246988
9.970387534,1.5184825325769256,-2.919673153221243,0.5465072261728972
9.975387534,1.593390798765041,-2.908734608761938,0.36446674127868744
9.9803875,1.6584791951750175,-2.8904240206952445,0.18799796095732085
9.985387466,1.7134105371104913,-2.8652510134521703,0.018169744709487495
9.990387432,1.7579403214932514,-2.8337472472133642,-0.14405116195593576
9.995387432,1.7919176896553657,-2.796463189393122,-0.2978064389649232
10.00038747,1.815285367826024,-2.7539647125150792,-0.4423510035941455
10.00538743,1.8280786081391112,-2.7068294351573545,-0.5770563465142197
10.01038746,1.830423166170899,-2.655642736468031,-0.7014124303760235
10.0153875,1.8225323638459,-2.600993394332785,-0.8150282013922042
10.0203875,1.8047032975309314,-2.543468821693583,-0.9176307752903485
10.0253868,1.7773122592963089,-2.4836499036341495,-1.0090633699656912
10.0303861,1.7408094445117501,-2.4221054683035788,-1.0892820683169124
10.0353861,1.695713021668937,-2.359386455906427,-1.1583515050775641
10.0403861,1.6426026412701706,-2.2960198799932963,-1.2164395793679423
10.04538613,1.582112460348906,-2.2325027022483814,-1.2638112992267632
10.05038613,1.5149237581234747,-2.1692957641453847,-1.3008218657868893
10.05538613,1.4417572168352302,-2.106817934791569,-1.3279091040511928
10.06038613,1.363364940409266,-2.045440643001761,-1.345585345434322
10.06538613,1.280522282629556,-1.9854829626518045,-1.354428865063693
10.07038613,1.1940195563948734,-1.927207413668848,-1.3550749746845596
10.0753861,1.1046536964898717,-1.8708166270776665,-1.3482068700517786
10.0803861,1.0132199501333885,-1.8164510021385545,-1.3345463297897338
10.0853861,0.9205036721475565,-1.7641874578278776,-1.3148443604644358
10.09038613,0.8272723045999818,-1.7140393509233227,-1.2898718795767463
10.09538613,0.7342676238484942,-1.665957600047442,-1.2604105241659003
10.10038613,0.6421983407519716,-1.6198330205368854,-1.2272436679923617
10.1053861,0.5517331421589834,-1.5754998402869047,-1.1911477254710674
10.1103861,0.46349426349262957,-1.5327403330201048,-1.1528838162940553
10.1153861,0.3780516832159245,-1.4912904738079316,-1.1131898614289548
10.12038613,0.295918029976082,-1.4508464930145584,-1.072773178957475
10.12538613,0.21754429181555093,-1.4110721799027743,-1.032303646679313
10.13038613,0.1433164133458805,-1.3716067666193401,-0.9924074969038627
10.13538613,0.07355286055296335,-1.332073207718683,-0.9536618065985705
10.14038613,0.008503223401970366,-1.2920866601921706,-0.9165897422471416
10.14538613,-0.051652086706024856,-1.2512629644009814,-0.8816566126233224
10.15038609,-0.10680100443755923,-1.2092269275009464,-0.8492667735567433
10.15538606,-0.15689782345966752,-1.1656202179868167,-0.8197614162319943
10.16038606,-0.20196005977156006,-1.1201086929636344,-0.7934172545818808
10.16538606,-0.24206419857987757,-1.0723889986554789,-0.7704461084468537
10.17038609,-0.277340388930715,-1.0221943090581886,-0.750995358570946
10.17538676,-0.3079661827248142,-0.9692990964525928,-0.7351492289028021
10.18038743,-0.3341594464659424,-0.9135228590748586,-0.7229308329362927
10.18538739,-0.35617060310017523,-0.8547327637627794,-0.7143049055397863
10.19038736,-0.3742743859799473,-0.7928451932312194,-0.7091811308253707
10.19538732,-0.3887613062850288,-0.7278262175518276,-0.7074179702378081
10.20038732,-0.39992904857377887,-0.6596910366336095,-0.7088268926271676
10.20538736,-0.4080740161595758,-0.5885024645575548,-0.7131769086527903
10.21038739,-0.4134832483905169,-0.51436854719011,-0.7201993145316068
10.21538742,-0.41642692542760223,-0.4374394212965024,-0.7295925543360152
10.22038742,-0.41715166280435345,-0.3579035361318752,-0.7410271156547772
10.22538742,-0.415874778307548,-0.27598336701865317,-0.754150380619939
10.23038739,-0.4127796882582229,-0.19193075466123438,-0.7685913632381993
10.23538739,-0.40801256001987424,-0.10602200399732356,-0.7839652745975498
10.24038739,-0.4016803135497209,-0.018552872482877483,-0.7998778695032397
10.24538742,-0.39385002807836944,0.07016642978758954,-0.8159295408077334
10.25038742,-0.3845497715494149,0.15981611638864013,-0.8317191403458315
10.25538742,-0.37377083124893834,0.25007147893429377,-0.8468475172003618
10.26038739,-0.36147128509625176,0.34060723670070225,-0.8609207744507794
10.26538735,-0.3475808153675244,0.43110151581555456,-0.8735532543130566
10.27038732,-0.3320066312162983,0.5212394103339016,-0.8843702685645093
10.27538665,-0.3146403342685254,0.6107160956820099,-0.8930105963376547
10.28038665,-0.29536553378726793,0.6992394825371785,-0.8991287747895294
10.28538602,-0.2740659953010226,0.7865324154995099,-0.9023972099201445
10.29038605,-0.2506340898958529,0.8723344352370414,-0.9025081351306069
10.29538608,-0.22497930113672232,0.9564031346125459,-0.8991754442089986
10.30038608,-0.19703654315951852,1.0385151482700437,-0.8921364234991321
10.30538608,-0.16677404698912546,1.1184668211022122,-0.8811534051967616
10.31038605,-0.13420058249949776,1.1960746039452876,-0.8660153602016196
10.31538605,-0.09937180036572603,1.2711752249134383,-0.84653944493837
10.32038605,-0.06239550143355902,1.34362568225636,-0.822572512235923
10.32538608,-0.023435669546917722,1.4133030998498315,-0.7939925918324926
10.33038608,0.01728486277800993,1.4801044798322385,-0.760710341374879
10.33538608,0.05948320940343375,1.5439463789778736,-0.7226704639214041
10.34038608,0.10281674043192376,1.6047645267050392,-0.6798530830660603
10.34538608,0.1468849203529382,1.6625133937184875,-0.6322750621385139
10.35038608,0.1912326474095811,1.7171657117011538,-0.579991249790043
10.35538605,0.23535502771191114,1.7687119366592297,-0.5230956308338786
10.36038605,0.2787034804053038,1.8171596418914557,-0.46172235848642235
10.36538605,0.3206930364122638,1.8625328214142665,-0.3960466420041503
10.37038608,0.3607106642278172,1.9048710812320053,-0.3262854618686896
10.37538608,0.39812443304403833,1.9442286942378133,-0.25269808288946866
10.38038608,0.43229330665968946,1.9806734949070395,-0.1755863337796766
10.38538605,0.462577351223891,2.0142855923867993,-0.09529462006174855
10.39038601,0.488348135590378,2.045155884990502,-0.012209635906258962
10.39538601,0.5089991045281371,2.0733843651308805,0.07324025989770339
10.40038605,0.523955711847591,2.0990782108566832,0.16058603789378767
10.40538608,0.5326851123539029,2.1223496678321663,0.24931939394391361
10.41038608,0.5347052282342859,2.1433137333089474,0.3388945765846745
10.41538608,0.5295930267746619,2.1620856610457695,0.42873067214587274
10.42038608,0.5169918716155484,2.1787783131085368,0.5182143715558039
10.42538675,0.4966178380276593,2.1934993910555685,0.6067032409921218
10.43038675,0.4682649123806896,2.206348585215254,0.6935295170527451
10.43538738,0.43180902544117905,2.2174146865326096,0.7780044450112602
10.44038738,0.387210897095916,2.226772710616245,0.8594231750351792
10.44538738,0.3345176959268397,2.2344810879043355,0.9370702254115436
10.45038741,0.2738635406103733,2.240578977055656,1.0102255137973775
10.45538741,0.20546889136988802,2.245083760639042,1.0781709476421693
10.46038741,0.12963889855222663,2.247988782968507,1.1401975536748403
10.46538738,0.04676079144364448,2.249261389656552,1.1956131139775614
10.47038738,-0.042699596915536146,2.2488413272951466,1.2437502626267898
10.47538738,-0.13820206446016087,2.246639559669108,1.2839749819289845
10.48038741,-0.23913692539488593,2.2425375539675576,1.3156954208113387
10.48538741,-0.34483043661628554,2.236387086441616,1.3383709402122919
10.49038741,-0.45455065903505476,2.228010611737325,1.3515212719856349
10.49538741,-0.567513653825968,2.217202233607503,1.3547356597481466
10.50038741,-0.6828899221494201,2.2037293067579684,1.3476818332646927
10.50538741,-0.7998110069129984,2.187334690053629,1.3301146535047739
10.51038738,-0.9173761862055497,2.167739660001061,1.301884254616775
10.51538734,-1.0346592000832189,2.144647480186558,1.2629435028210494
10.52038734,-1.1507149656043092,2.1177476072317485,1.2133545913207273
10.52538738,-1.264586249448719,2.086720497188841,1.1532945949348605
10.53038741,-1.3753102827391295,2.051242958773088,1.0830598178828938
10.53538741,-1.481925317969525,2.010993982222916,1.0030687822088047
10.54038741,-1.5834771421039657,1.9656609557339506,0.9138637218381469
10.54538738,-1.679025571684812,1.9149461661428944,0.8161104674594122
10.55038734,-1.7676509640572,1.8585734675540577,0.7105966297744112
10.55538731,-1.848460782835311,1.796294991461278,0.5982280128101137
10.56038731,-1.9205962552615459,1.7278977649811602,0.48002321468341674
10.56538734,-1.9832391542475092,1.6532101002402597,0.35710640026194873
10.57038737,-2.0356187288805367,1.5721076177445321,0.23069825832236085
10.57538741,-2.077018794356947,1.484518769591413,0.1021051847204939
10.58038741,-2.1067849761328983,1.3904297344842969,-0.027293237677853962
10.58538741,-2.124332084203915,1.289888565454003,-0.15605836242715745
10.59038737,-2.1291515725798598,1.1830084827397793,-0.2827080777296705
10.59538737,-2.120819016994811,1.0699702181885349,-0.4057337229082117
10.60038737,-2.099001521475137,0.9510233335499573,-0.5236181395332971
10.6053874,-2.063464942400396,0.8264864529300322,-0.6348546478732955
10.6103874,-2.0140807979727122,0.6967463691689496,-0.7379667153652959
10.6153874,-1.9508327124117133,0.5622560047721024,-0.8315280621438437
10.62038737,-1.8738222285542248,0.4235312299472726,-0.9141829298498801
10.62538734,-1.783273810678664,0.2811465629300716,-0.9846662244473974
10.6303873,-1.6795388520564127,0.13572980068864787,-1.0418232319994214
10.6353873,-1.5630984995995274,-0.012044349207724405,-1.0846285986421091
10.6403873,-1.4345651114865579,-0.16146154285466655,-1.112204262664885
10.64538734,-1.2946821730588942,-0.3117758671769698,-1.1238360279622712
10.65038737,-1.1443225116449194,-0.46221856822403823,-1.1189884744449636
10.6553874,-0.9844846721914954,-0.612007292927768,-1.0973179124818344
10.6603874,-0.8162873424843244,-0.7603556839964631,-1.0586831051755867
10.6653874,-0.6409617490953097,-0.9064831587687671,-1.0031535042340003
10.67038737,-0.45984198267501014,-1.0496246982481785,-0.9310147722987576
10.67538733,-0.2743532532871364,-1.189040472398167,-0.8427713966927785
10.6803873,-0.0859981224291052,-1.3240251320164296,-0.739146236441192
10.6853873,0.10365919267215236,-1.4539166057239417,-0.6210768858474708
10.69038733,0.29301029592153294,-1.5781042521266506,-0.4897087835433186
10.69538737,0.48042167190897195,-1.6960362311698078,-0.3463850453583065
10.7003874,0.6642550782297294,-1.8072259741813708,-0.19263305199479502
10.7053874,0.8428889712344919,-1.9112576482798196,-0.030147877618636684
10.7103874,1.0147406202404514,-2.0077905271814656,0.13922729770312708
10.71538737,1.178288525059933,-2.096562196890052,0.31352359108151834
10.72038736,1.3320947184991772,-2.1773905416546366,0.49067137707676184
10.72538737,1.4748265106126417,-2.250174473623829,0.6685274902159972
10.7303874,1.6052772162235598,-2.3148933895410835,0.8449043004225212
10.7353874,1.7223854026808714,-2.3716053601699,1.017600241025856
10.7403874,1.8252522020363726,-2.4204440831385803,1.1844313225394734
10.74538736,1.9131562516561862,-2.461614657340753,1.3432631245752649
10.75038733,1.9855658602893695,-2.495388266112792,1.4920427244380459
10.7553873,2.0421480429037953,-2.5220958856190285,1.6288299957139625
10.7603873,2.0827741267691087,-2.542121162112456,1.751827695394484
10.7653873,2.107521702467131,-2.5558926246952396,1.8594097556958522
10.77038733,2.116672775426693,-2.5638754167646356,1.9501472084595772
10.77538736,2.1107080643949097,-2.566562737818489,2.022831197115424
10.7803874,2.0902974906342022,-2.5644671866467195,2.0764925743447695
10.78538803,2.0562870027025624,-2.5581121869638452,2.110417642825406
10.79038803,2.0096819829691843,-2.5480236581990514,2.1241596709306245
10.79538799,1.9516275794429725,-2.534722069534179,2.1175459030357064
10.80038799,1.8833863955375414,-2.5187149871199854,2.090679882030971
10.80538759,1.8063140467569954,-2.5004901954976875,2.0439390058115765
10.81038763,1.7218331535735298,-2.48050944695769,1.9779673457438702
10.81538763,1.631406381841421,-2.4592028685726897,1.893663859607972
10.82038763,1.5365091649304778,-2.436964036930555,1.7921662313116724
10.82538763,1.4386027451729186,-2.4141457154981376,1.6748306627363079
10.83038763,1.3391081566543466,-2.391056238899792,1.5432080281482354
10.83538763,1.239381737873633,-2.367956521718875,1.3990168778184515
10.84038759,1.140692712931268,-2.345057666176349,1.2441138440159358
10.84538759,1.044203315791447,-2.322519142744606,1.0804620583826485
10.85038759,0.9509518563313241,-2.300447520033567,0.9100982335045318
10.85538763,0.8618390420878941,-2.2788957246872754,0.7350990913816126
10.86038763,0.7776177786502021,-2.2578628179077196,0.5575478351083628
10.86538763,0.6988865773549742,-2.237294281786694,0.3795013549676154
10.87038759,0.6260866040649329,-2.2170828150862394,0.20295883441274182
10.87538759,0.5595023097340717,-2.1970696437190735,0.029832374129693726
10.88038759,0.49926549415117955,-2.177046355139567,-0.13807981614329773
10.88538762,0.4453625706058663,-2.1567572673190623,-0.2991171960294525
10.89038766,0.3976447236952596,-2.1359023414035456,-0.45177728370122555
10.89538766,0.35584058822444015,-2.114140642649701,-0.5947324078324351
10.90038766,0.3195710273503982,-2.091094347513463,-0.7268426882543823
10.90538766,0.2883655550092031,-2.0663532868192767,-0.8471652216227131
10.91038766,0.26167993165229486,-2.0394800068965235,-0.954959549327966
10.91538766,0.23891446192256452,-2.010015323480841,-1.0496895709970215
10.92038762,0.21943253562125462,-1.9774843374621798,-1.1310221344502938
10.92538762,0.20257897652615572,-1.9414028765852902,-1.198822580704907
10.93038762,0.18769779486056992,-1.9012843215975788,-1.2531475519822208
10.93538702,0.1741489762988377,-1.8566467678174856,-1.2942353848269423
10.94038702,0.16132398176546048,-1.807020463152461,-1.3224944129138836
10.94538702,0.1486596771473282,-1.7519554515977824,-1.3384894980113204
10.95038699,0.1356504599577951,-1.6910293381002106,-1.3429270955678052
10.95538739,0.12185840031023135,-1.62385507736305,-1.3366391460318015
10.96038739,0.10692126519515166,-1.550088676542301,-1.3205660665237187
10.96538742,0.09055834676079721,-1.4694366905716554,-1.2957391012952935
10.97038742,0.07257406601833348,-1.3816633798154863,-1.2632622740926909
10.97538742,0.05285937235019504,-1.286597393665944,-1.224294171172509
10.98038742,0.031391005722719495,-1.18413784120247,-1.1800297703224734
10.98538742,0.008228731940139617,-1.0742596114215779,-1.1316825189033295
10.99038742,-0.016489298963925196,-0.9570178108019851,-1.080466852835411
10.99538739,-0.042552885573086646,-0.8325511948979177,-1.0275813387973087
11.00038739,-0.06968758289731324,-0.7010844830014924,-0.9741926136021976
11.00538739,-0.09756374388631965,-0.5629294604258817,-0.9214202870680372
11.01038742,-0.1258065348495076,-0.4184847913826329,-0.8703229664192064
11.01538746,-0.15400665341160136,-0.2682344865160527,-0.8218855500182028
11.02038746,-0.18173147337180245,-0.11274499265238619,-0.777007925220934
11.02538702,-0.2085363444142598,0.047339102093495546,-0.7364951890926172
11.03038632,-0.23397578666640437,0.21130072740468994,-0.7010494912663043
11.03538629,-0.2576143404369803,0.37835730502899734,-0.6712635746775028
11.04038625,-0.27903685828771746,0.547668960069496,-0.6476160618473475
11.04538625,-0.2978580568935708,0.7183478623548555,-0.6304685025345783
11.05038589,-0.3137311770622266,0.889468563555299,-0.6200641648536127
11.05538592,-0.3263556300974596,1.060079170660078,-0.6165285187525659
11.06038595,-0.3354835368166654,1.2292131744846833,-0.6198713302069767
11.06538595,-0.34092509197214893,1.3959017336626884,-0.6299902581581768
11.07038595,-0.3425527117858342,1.5591862006164643,-0.646675824856941
11.07538592,-0.3403039460456387,1.71813066659383,-0.6696176138068884
11.08038592,-0.3341831588861876,1.8718342979996767,-0.6984115374401508
11.08538592,-0.32426200393654947,2.019443235759709,-0.7325680085244374
11.09038595,-0.3106787397746503,2.1601618332387407,-0.7715208448271758
11.09538595,-0.293636450328455,2.2932630164245937,-0.8146367356118009
11.10038595,-0.27340025155702113,2.4180975628863908,-0.8612251009864663
11.10538592,-0.25029357967947374,2.5341021135277093,-0.9105481807879179
11.11038588,-0.22469366660389795,2.640805753335386,-0.9618311983296634
11.11538585,-0.19702631462810358,2.737835023980544,-1.0142724556756795
11.12038585,-0.16776008504573472,2.8249172618535354,-1.067053230679891
11.12538588,-0.1374000144145847,2.9018821892374307,-1.1193473612017337
11.13038592,-0.1064809684379196,2.968661722976595,-1.1703304178562357
11.13538595,-0.07556073722952357,3.0252880032105307,-1.2191883826077703
11.14038598,-0.04521296779385628,3.0718896834813996,-1.2651257659060935
11.14538598,-0.016020020447094975,3.1086865617110178,-1.3073731095940022
11.15038595,0.011434173866132534,3.135982668156476,-1.3451938364180547
11.15538591,0.03657118839481717,3.1541579605810828,-1.377890419712131
11.16038591,0.058825050357405824,3.163658807680887,-1.4048098587944826
11.16538591,0.07764901767640577,3.164987468455323,-1.4253484568978332
11.17038595,0.09252214291752923,3.1586907968694833,-1.4389559090881012
11.17538635,0.10295559156907066,3.1453484170535537,-1.4451387176231145
11.18038701,0.10849868693232957,3.125560623836957,-1.443462961472642
11.18538701,0.10874465700465873,3.0999362663374264,-1.433556455072727
11.19038701,0.10333605975080737,3.0690808686466418,-1.4151103385608963
11.19538701,0.09196986215195986,3.0335852316383622,-1.3878801474968112
11.20038738,0.07440214558015053,2.994014744025386,-1.3516864142778693
11.20538738,0.05045240569399307,2.950899609645725,-1.3064148560776805
11.21038738,0.02000740969413027,2.9047261723613005,-1.252016205177619
11.21538741,-0.016975431958098718,2.855929490800487,-1.1885057370115966
11.22038698,-0.06046522774766274,2.80488728342021,-1.1159625490270462
11.22538698,-0.11035535433229297,2.7519153309809083,-1.0345286394885331
11.23038694,-0.1664618492911339,2.697264389481101,-0.9444078296075508
11.23538694,-0.22852250554568532,2.6411186327974074,-0.8458645650370704
11.24038694,-0.29619672516046885,2.58359561157309,-0.739222624144841
11.24538698,-0.3690661875337297,2.5247476840793612,-0.6248637509588656
11.25038698,-0.44663638194454125,2.4645648464978813,-0.5032262206180118
11.25538698,-0.5283390469529634,2.402978864817302,-0.3748033348717261
11.26038698,-0.613535549244169,2.339868588619472,-0.240141834952208
11.26538698,-0.7015212222996495,2.275066308658932,-0.09984020928839718
11.27038698,-0.7915306710662319,2.208365005394574,0.04545313566852808
11.27538694,-0.8827440330168375,2.1395263244258,0.1950418815081755
11.28038691,-0.9742941691858814,2.0682891068826605,0.3481840278751556
11.28538691,-1.0652747414462271,1.9943782979411397,0.5040943990775479
11.29038691,-1.1547491149110694,1.9175140545420892,0.6619474837748328
11.29538694,-1.241760007213662,1.8374208739218596,0.8208806661000986
11.30038694,-1.3253397898063242,1.7538365676477756,0.9799979062488294
11.30538694,-1.4045213306149902,1.6665209115203214,1.1383739258497603
11.31038691,-1.4783492527058888,1.5752638100187155,1.2950589481416315
11.31538691,-1.5458914703944546,1.4798928249272807,1.4490840349543317
11.32038691,-1.6062508527870056,1.3802799312610767,1.5994670516148561
11.32538694,-1.6585768554091884,1.2763473793727513,1.745219277139836
11.33038694,-1.7020769535749831,1.1680725598818882,1.885352660562611
11.33538694,-1.7360277065996066,1.0554917875396317,2.0188877052909
11.34038694,-1.7597852798775775,0.9387029410506949,2.1448619425017856
11.34538694,-1.77279525221165,0.8178669179370205,2.262338932380279
11.35038694,-1.7746015386036988,0.6932078864319281,2.370417709160014
11.35538691,-1.7648542641427711,0.56501233980862,2.468242563046982
11.36038691,-1.743316432936622,0.43362698213534284,2.555013029721527
11.36538691,-1.7098692475951107,0.2994554978771308,2.6299939366741816
11.37038737,-1.6645159499467492,0.16295428070088366,2.692525335648967
11.37538737,-1.6073840728249777,0.024627218968325797,2.7420321326773243
11.38038737,-1.5387260162360803,-0.11498034363732125,2.778033212655253
11.38538734,-1.458917889006962,-0.255288334696212,2.8001498455175646
11.3903873,-1.3684565884396442,-0.3956892127465605,2.8081131572334197
11.39538727,-1.2679551244073148,-0.5355555936840399,2.8017704523118314
11.40038727,-1.1581362295824724,-0.6742480707742831,2.7810901862575887
11.40538727,-1.0398243332834525,-0.8111230554186941,2.746165407300342
11.4103873,-0.9139360120787472,-0.945540473901885,2.6972155170592376
11.41538734,-0.7814690648375084,-1.0768711715813641,2.634586238600755
11.42038737,-0.6434903919840999,-1.204503899600624,2.5587477248871715
11.42538737,-0.5011228868938936,-1.3278517882266554,2.470290787222446
11.43038737,-0.35553157075728525,-1.4463582424357349,2.3699212687617823
11.43538734,-0.20790922043588883,-1.5595022262809344,2.258452630750485
11.44038734,-0.05946175118779016,-1.6668029301198852,2.1367968588745883
11.44538734,0.08860637892294737,-1.7678238368572161,2.005953834986706
11.45038737,0.23510648084607372,-1.8621762186423154,1.8669993564504557
11.45538737,0.37887941669183656,-1.9495221035150652,1.7210720210201276
11.46038737,0.5188086338371,-2.029576752674107,1.5693592272751928
11.46538733,0.6538322687075778,-2.102110684255556,1.413082565629242
11.4703873,0.7829541776969229,-2.1669512699179783,1.2534828893424252
11.47538727,0.9052537909236086,-2.2239839175056173,1.0918053565424815
11.48038727,1.0198947175959856,-2.2731528383003994,0.9292847226180353
11.4853873,1.1261320582198608,-2.3144613828606975,0.7671311391802597
11.49038733,1.223318399224412,-2.347971917163233,0.6065166847191225
11.49538737,1.3109084813269833,-2.373805202309224,0.4485628176528424
11.50038736,1.3884625457467223,-2.3921392373815005,0.2943289083590796
11.50538736,1.4556483734142054,-2.403207526370253,0.14480197459159963
11.51038733,1.5122420423520602,-2.4072967359594024,0.0008877144653740819
11.5153873,1.5581274379675143,-2.404743720449074,-0.13659709711112122
11.5203873,1.5932945605944664,-2.39593190215936,-0.2669308084197397
11.52538733,1.6178366845421064,-2.381287009549877,-0.3894916696412123
11.53038736,1.631946433036875,-2.361272190537462,-0.5037611918886771
11.53538736,1.6359108433255012,-2.336382534723989,-0.6093261052580553
11.54038736,1.630105505337576,-2.3071390549568442,-0.7058789502207959
11.54538736,1.6149878653857117,-2.274082195217087,-0.793217350892547
11.55038736,1.5910897933351027,-2.237764947656613,-0.8712420315172237
11.55538736,1.5590095175639775,-2.1987456761174204,-0.9399536496199251
11.56038733,1.5194030369218914,-2.1575807560428606,-0.9994485315654662
11.565387,1.4729751226696177,-2.1148171506532094,-1.049913408610857
11.570387,1.4204700257527043,-2.070985050037975,-1.0916192627082595
11.57538703,1.3626620054093221,-2.026590703130686,-1.1249143998317068
11.58038703,1.3003457939090373,-1.9821095723713926,-1.1502168737047669
11.58538703,1.2343271091858214,-1.9379799373520743,-1.1680063845779234
11.59038699,1.1654133223200078,-1.894597067021256,-1.1788157767122835
11.59538699,1.094404380328321,-1.8523080702559362,-1.1832222552172893
11.60038699,1.022084076757348,-1.8114075220309032,-1.1818384385828389
11.60538703,0.9492117534786132,-1.7721339473767557,-1.175303358116214
11.61038703,0.8765145072249096,-1.7346672282708768,-1.1642735096795302
11.61538703,0.8046799642715902,-1.699126980109132,-1.14941405659769
11.62038703,0.7343496769809233,-1.6655719251124113,-1.131390275481312
11.62538703,0.6661131875183363,-1.6340002705716448,-1.1108593293618725
11.63038703,0.6005027974262375,-1.6043510806985959,-1.0884624454296654
11.63538699,0.5379890768176102,-1.5765066122795481,-1.0648175680002405
11.64038696,0.47897714314150364,-1.5502955664811071,-1.0405125508474535
11.64538696,0.4238037360304977,-1.5254971922660496,-1.0160989461679883
11.65038699,0.3727351110803707,-1.5018461613303173,-0.9920864397635354
11.65538703,0.3259657712316398,-1.479038120748407,-0.9689379735833695
11.66038702,0.2836180496449918,-1.456735818048851,-0.947065587988577
11.66538703,0.2457425526495409,-1.434575684527133,-0.92682700749797
11.67038699,0.2123194656377088,-1.4121747563695684,-0.9085229857511821
11.67538696,0.18326071882352518,-1.3891378095929603,-0.8923954181842499
11.68038692,0.15841300359509233,-1.3650645837751487,-0.8786262244528683
11.68538692,0.1375616236325324,-1.339556970879602,-0.867336996698739
11.69038696,0.12043515773728286,-1.3122260489805493,-0.8585894038084755
11.69538699,0.10671090298631887,-1.282698846225448,-0.8523863352364766
11.70038702,0.09602105682780832,-1.2506247278426588,-0.8486737603950042
11.70538702,0.08795958460541624,-1.2156813083876328,-0.8473432712183931
11.71038702,0.0820897046683749,-1.177579802665995,-0.8482352668034184
11.71538732,0.07795190715839394,-1.1360697416452497,-0.8511427305254846
11.72038732,0.07507240563110303,-1.0909429936741475,-0.855815542090737
11.72538732,0.07297190392306029,-1.0420370457817816,-0.8619652599252031
11.73038736,0.07117454519402373,-0.9892375140378297,-0.8692703034681432
11.73538736,0.06921689684092529,-0.9324798654208881,-0.8773814606051891
11.74038736,0.06665681478250843,-0.8717503461245542,-0.8859276427367019
11.74538732,0.06308202401315316,-0.8070861226962736,-0.8945218087171506
11.75038729,0.058118249682330564,-0.7385746529335625,-0.9027669788855525
11.75538725,0.05143673445124315,-0.6663523132102421,-0.9102622613461528
11.76038725,0.04276098353094502,-0.5906023180639723,-0.9166088142774116
11.76538725,0.03187258855809628,-0.5115519766063651,-0.9214156701836907
11.77038729,0.018615995235786865,-0.429469338691249,-0.9243053506941276
11.77538712,0.0029020972933534606,-0.3446592917768215,-0.924919203953073
11.78038715,-0.015289439541728825,-0.25745917695129716,-0.9229224010254052
11.78538715,-0.03590919570271541,-0.1682339995083461,-0.9180085330885424
11.79038715,-0.05883840354632817,-0.07737131557251799,-0.9099037573496364
11.79538712,-0.0838907575493501,0.014724118609131066,-0.8983704463654879
11.80038712,-0.11081561579641896,0.10763584418355347,-0.8832103025248633
11.80538712,-0.13930254912727907,0.20094125104448468,-0.8642669067114206
11.81038715,-0.1689871642060421,0.29421708939132946,-0.8414276774642054
11.81538715,-0.1994580979052439,0.38704484935484595,-0.8146252241616174
11.82038715,-0.23026505351118157,0.47901592049994834,-0.7838380847960379
11.82538715,-0.2609277250162236,0.5697364495572503,-0.7490908458029711
11.83038715,-0.2909454347646161,0.6588318237275435,-0.7104536482491087
11.83538715,-0.31980729247796563,0.7459507179431777,-0.668041091543247
11.84038712,-0.3470026706311758,0.8307686569769366,-0.6220105527486456
11.84538712,-0.37203178262769987,0.9129910565827077,-0.5725599465849281
11.85038712,-0.3944161465249755,0.9923557212110562,-0.5199249584058137
11.85538715,-0.413708718424474,1.068634788574627,-0.46437578996624146
11.86038715,-0.42950348623153056,1.1416361228520568,-0.4062134657443009
11.86538715,-0.4414443263458507,1.211204168156917,-0.34576575588727027
11.87038712,-0.44923294280606413,1.2772202817404876,-0.28338278020732866
11.87538712,-0.4526357300722541,1.3396025720962579,-0.21943236556636275
11.88038712,-0.4514894262678331,1.39830527078588,-0.15429523584051108
11.88538715,-0.4457054522455624,1.453317668782345,-0.08836011877363491
11.89038718,-0.43527286198788356,1.5046626490061945,-0.022018856803803975
11.89538718,-0.42025986036696594,1.5523948471572888,0.04433839100588681
11.90038718,-0.40081387431500776,1.5965984734640264,0.11032777145424578
11.90538718,-0.37716019253439065,1.6373848289321917,0.17557610448720884
11.91038718,-0.3495992166849618,1.6748895512009314,0.23972492196223233
11.91538718,-0.3185023930272371,1.7092696270876258,0.3024341116638364
11.92038715,-0.2843069170831403,1.7407002109611702,0.3633851079790485
11.92538735,-0.2475093243154048,1.7693712897248564,0.42228357900280605
11.93038735,-0.2086580966203498,1.795484236024593,0.4788615693171463
11.93538738,-0.16834542730636468,1.8192482912078967,0.5328790685993993
11.94038738,-0.1271982961804089,1.8408770186632488,0.5841249886360808
11.94538738,-0.08586901165048864,1.8605847666945698,0.632417545013736
11.95038735,-0.04502537886758225,1.8785831782594056,0.6776040542316185
11.95538731,-0.005340652520013459,1.895077782881759,0.7195601715509533
11.96038728,0.03251656935953036,1.9102647039014726,0.7581886087222824
11.96538728,0.0678923577704466,1.9243275119138303,0.7934173829023347
11.97038731,0.10015722314288145,1.9374342527091266,0.8251976577982222
11.97538735,0.12871550144770663,1.9497346751853384,0.8535012449553824
11.98038738,0.15301422110779367,1.9613576816279326,0.8783178373254238
11.98538738,0.17255132517209687,1.972409019621075,0.8996520496149787
11.99038738,0.18688313487531596,1.9829692319483474,0.9175203415230833
11.99538734,0.19563095469785585,1.99309187842364,0.9319479016651362
12.00038734,0.19848673508226233,2.0028020418458623,0.9429655719723985
12.00538734,0.19521772655589448,2.0120951292301568,0.950606894265172
12.01038738,0.18567007759086665,2.0209359790030392,0.954905361841712
12.01538741,0.16977134755177267,2.02925828471835,0.9558919586156045
12.02038674,0.14753192496938058,2.0369643457976125,0.9535930660131915
12.02538604,0.11904535949148587,2.0439251556312863,0.9480288130744472
12.03038534,0.08448763255092721,2.049980837016214,0.9392119376528254
12.03538531,0.04411540652298781,2.054941434357935,0.9271472160876583
12.04038528,-0.0017366954465509207,2.0585880713559157,0.9118315052272741
12.04538488,-0.05265971688834474,2.0606744819863314,0.8932544244222416
12.05038491,-0.10817483339145124,2.0609289214137534,0.8713996864739891
12.05538494,-0.1677385817133209,2.0590564618893668,0.8462470660636369
12.06038497,-0.23074877550347372,2.0547416766298894,0.8177749726552649
12.06538497,-0.2965510288773347,2.0476517120273763,0.7859635733048598
12.07038497,-0.36444580796324294,2.0374397452052886,0.7507983905400066
12.07538494,-0.43369592947772556,2.0237488197684255,0.712274282979261
12.08038494,-0.5035344242344032,2.0062160474152866,0.67039970295749
12.08538494,-0.5731726825099277,1.9844771566662192,0.6252011169821238
12.09038497,-0.6418087979196939,1.95817136208048,0.5767274715737901
12.09538497,-0.7086360274999696,1.9269465179005765,0.5250545884203222
12.10038497,-0.7728512883877674,1.8904645092845003,0.4702893776307999
12.10538497,-0.8336636157273527,1.8484068227281858,0.4125737646813237
12.11038497,-0.8903025117714729,1.8004802257517252,0.3520882338785126
12.11538497,-0.9420261220383706,1.7464224752840363,0.28905489770258125
12.12038494,-0.9881291802841714,1.6860079651650535,0.2237400067376227
12.12538494,-1.0279506693908045,1.6190532163271136,0.15645581924567672
12.13038494,-1.0608811494864747,1.54542210887851,0.08756175351847764
12.13538497,-1.0863697072469343,1.465030753706834,0.01746475091232456
12.140385,-1.1039304811578323,1.3778519023917764,-0.05338121616287715
12.14538501,-1.1131487166704446,1.2839187980064273,-0.12447654842365147
12.15038497,-1.1136863030572866,1.1833283754797823,-0.19527838197834324
12.15538494,-1.1052867409043141,1.076243728253133,-0.2652039406704735
12.1603849,-1.0877794860935006,0.9628957677154537,-0.33363489395995577
12.16538487,-1.061083613309724,0.843584013140108,-0.39992271699087045
12.17038554,-1.0252107399691244,0.7186764624031117,-0.4633950289454799
12.17538624,-0.980267150380843,0.5886085075184259,-0.5233628641866428
12.18038694,-0.9264550602422815,0.45388087389292375,-0.5791288087680992
12.18538697,-0.8640729635115653,0.3150565781057923,-0.6299959132935038
12.19038697,-0.7935150075267415,0.17275691582763653,-0.6752772723721903
12.19538737,-0.7152693480796812,0.027656508982296952,-0.7143061415159876
12.20038733,-0.6299154440105597,-0.11952254092571146,-0.7464464446604162
12.20538733,-0.5381202606695168,-0.2680173286591959,-0.771103509942374
12.21038733,-0.44063336313011936,-0.41703156839753713,-0.7877348582504206
12.21538737,-0.33828089311543874,-0.5657436660785442,-0.7958608586785626
12.22038737,-0.23195843794902427,-0.7133153281092983,-0.7950750576281994
12.22538737,-0.12262281519518087,-0.8589005810581817,-0.7850539841568361
12.23038733,-0.011282812768696708,-1.001655067130008,-0.7655662334869872
12.2353873,0.10101105899506964,-1.1407454735665121,-0.736480633553645
12.24038726,0.21317772960519746,-1.2753589507272467,-0.6977733062101165
12.24538727,0.32411755358048533,-1.40471237338811,-0.6495334452830931
12.2503873,0.4327250086883754,-1.5280613024667238,-0.5919676480646465
12.25538733,0.5379019782061635,-1.6447085095092402,-0.5254026549662463
12.26038736,0.6385714681450171,-1.754011933320927,-0.45028637369590324
12.2653874,0.7336915900579438,-1.8553919466093267,-0.36718708904886443
12.2703874,0.8222696203113106,-1.948337820177793,-0.27679078679722185
12.27538736,0.9033759286464537,-2.0324132831658557,-0.17989654993249246
12.28038753,0.9761575535529791,-2.1072610905525866,-0.0774100174944858
12.28538666,1.0398511902430339,-2.1726065242791806,0.02966506978764278
12.2903858,1.0937953495298909,-2.228259772471573,0.14023717719340104
12.29538496,1.1374414434510287,-2.2741171525647172,0.25313904054222514
12.30038496,1.1703635568593589,-2.310161168314158,0.36714135409198395
12.30538496,1.1922666738391468,-2.3364594167601127,0.48096791184160587
12.31038496,1.2029931435209869,-2.3531623877310004,0.5933119969971061
12.31538496,1.2025271915054467,-2.3605002238419974,0.7028537810962683
12.32038496,1.1909973109551593,-2.3587785316716423,0.808278463988074
12.32538493,1.1686764019160056,-2.3483733535806066,0.9082948597322245
12.33038493,1.1359795684825136,-2.32972542345877,1.0016541129254655
12.33538493,1.0934595301079044,-2.303333838001226,1.0871682163562004
12.34038496,1.0417996541118395,-2.2697492778940846,1.1637279953023285
12.34538496,0.9818046694047886,-2.2295669109523244,1.2303202267148585
12.35038496,0.9143891747673368,-2.183419102546175,1.2860435727810569
12.35538493,0.840564107012601,-2.1319680485477077,1.330123027167721
12.36038493,0.7614213835782874,-2.0758984335506767,1.3619225975431972
12.36538406,0.6781169792454095,-2.0159102032070737,1.3809559786721757
12.37038409,0.5918527364708056,-1.9527115249783633,1.3868950054889153
12.37538409,0.5038572420315922,-1.8870119970581276,1.3795757142537286
12.38038409,0.41536612842466464,-1.8195161512029787,1.3590018815015954
12.38538409,0.32760217622420507,-1.7509172821764452,1.3253459544530728
12.39038409,0.2417556029305388,-1.6818916249527258,1.2789473324502818
12.39538409,0.1589649242239341,-1.6130928912333897,1.2203080064311804
12.40038406,0.08029876459744076,-1.5451471695837278,1.1500856119856744
12.40538346,0.006738976105918386,-1.4786481887771061,1.0690840003918565
12.41038346,-0.0608346031615168,-1.4141529417058576,0.9782414801156757
12.41538346,-0.12165745458137894,-1.3521776672495793,0.8786169272605661
12.42038349,-0.17509149456927162,-1.293194189417257,0.7713740060622432
12.42538349,-0.22063379443067002,-1.2376266164263752,0.6577637785595906
12.43038329,-0.2579227509254666,-1.1858484065973731,0.5391060150005546
12.43538412,-0.2867416088249374,-1.1381798124130091,0.41676954246177966
12.44038499,-0.3070192928603291,-1.0948857182018168,0.2921519878001741
12.44538586,-0.31882856279646465,-1.0561738901059006,0.16665928173848038
12.45038589,-0.322381561074266,-1.022193658872029,0.041685293081220556
12.45538589,-0.31802287673770424,-0.9930350563568134,-0.08140804442475345
12.46038589,-0.30622030113201326,-0.9687284255618701,-0.2013097648529165
12.46538589,-0.2875534987187845,-0.949244521895999,-0.31677773695563943
12.47038589,-0.26270085869017185,-0.934495120621654,-0.426655068242581
12.47538589,-0.23242482831850964,-0.9243341422516075,-0.5298847838137792
12.48038586,-0.19755605582216595,-0.9185593038486277,-0.6255225572724868
12.48538586,-0.15897668802921014,-0.9169142993821017,-0.7127473158451176
12.49038586,-0.11760317589490617,-0.9190915061699461,-0.790869590987979
12.49538589,-0.07436893923047465,-0.9247352068585953,-0.8593375381279108
12.50038589,-0.03020723169044347,-0.9334453076003205,-0.917740603122951
12.50538589,0.013965470575762997,-0.9447815236793129,-0.9658108664645412
12.51038585,0.057265256852193046,-0.9582679946542084,-1.003422146806958
12.51538669,0.09885547521550184,-0.9733982829467939,-1.0305869906541627
12.52038665,0.1379600929258567,-0.989640703251755,-1.0474517127773504
12.52538665,0.1738755215163254,-1.0064439253167596,-1.0542896806889113
12.53038665,0.20598074266780025,-1.023242789439521,-1.0514930557848843
12.53538669,0.23374561075989408,-1.0394642722567449,-1.0395632142095392
12.54038672,0.2567372483851475,-1.0545335397685207,-1.0191000736081361
12.54538675,0.27462449151992235,-1.0678800246159978,-0.9907905496685634
12.55038675,0.28718038083883274,-1.0789434649467722,-0.9553963605381033
12.55538732,0.2942827339108881,-1.0871798424549977,-0.9137413890994843
12.56038728,0.29591286853281584,-1.0920671573227487,-0.8666988032245082
12.56538728,0.2921525791447139,-1.0931109780112556,-0.8151781224803679
12.57038728,0.283179495494049,-1.0898497044727862,-0.7601124062808402
12.57538732,0.269260975347637,-1.0818594846345027,-0.7024457234567195
12.58038732,0.2507467012347072,-1.068758726048848,-0.6431210473516885
12.58538732,0.22806016493511352,-1.050212147430847,-0.5830687045649853
12.59038728,0.20168923241061423,-1.0259343184825207,-0.5231954898059017
12.59538725,0.17217598576910048,-0.9956926411023613,-0.46437454405003015
12.60038722,0.14010603763664156,-0.9593097309518291,-0.40743607810463883
12.60538722,0.10609750750963454,-0.9166651654268481,-0.3531590086621584
12.61038725,0.07078984031801593,-0.8676965722075701,-0.30226355908687047
12.61538728,0.03483263596848595,-0.8124000414203478,-0.2554048629262516
12.62038731,-0.0011253535139417535,-0.7508298536026851,-0.2131675948197909
12.62538691,-0.03644691444799578,-0.6830975246420129,-0.17606164115889847
12.63038691,-0.07051661581022116,-0.6093701773235423,-0.14451881128947033
12.63538688,-0.10275048385412106,-0.52986825701563,-0.1188905789080797
12.64038685,-0.13260499290625652,-0.4448626165691496,-0.09944683240735705
12.64538685,-0.15958526703306805,-0.3546710030451693,-0.08637560236458112
12.65038688,-0.18325239598703622,-0.25965398665038625,-0.0797837243856333
12.65538691,-0.20322977818258933,-0.16021038029040008,-0.07969838628941212
12.66038691,-0.21920841404505395,-0.056772206282602544,-0.08606950013639912
12.66538691,-0.2309510852403949,0.050200725291888085,-0.09877283182904663
12.67038691,-0.23829536925916703,0.1602265546333171,-0.11761381408358283
12.67538691,-0.24115545488070483,0.27280734776103105,-0.14233196276008264
12.68038691,-0.23952274220937864,0.3874352242572601,-0.1726058120031917
12.68538688,-0.23346523066277267,0.5035985462462067,-0.2080582804482608
12.69038688,-0.2231257184414402,0.6207880729446614,-0.24826237903291934
12.69538688,-0.2087188565834433,0.7385029817088465,-0.2927471709137478
12.70038691,-0.19052711902458855,0.8562566545434098,-0.3410038955794218
12.70538691,-0.1688957668405066,0.973582128615342,-0.3924921721218361
12.71038691,-0.14422689994160925,1.0900371105353235,-0.44664620035930064
12.71538688,-0.11697270285687389,1.2052084572367516,-0.5028808828845935
12.72038688,-0.08762800275317423,1.3187160314784165,-0.5605977961611909
12.72538688,-0.056722267352795716,1.4302158476065174,-0.6191909446513
12.73038691,-0.02481117781168281,1.5394024334451681,-0.678052238714448
12.73538691,0.007532083261202613,1.646010347051466,-0.7365766446100808
12.74038691,0.03972568589489668,1.7498148022814581,-0.7941669632120472
12.74538691,0.07118800647417095,1.8506313741240603,-0.8502382027996803
12.75038691,0.10134634185319634,1.9483147729548924,-0.9042215202742715
12.75538691,0.1296453508860095,2.042756695754912,-0.9555677140017032
12.76038688,0.15555509962218916,2.1338827817294503,-1.0037502598433985
12.76538684,0.1785785985465876,2.221648719717066,-1.048267889755335
12.77038684,0.19825873485977843,2.30603557527807,-1.0886467201384538
12.77538728,0.21418451893875645,2.387044425841539,-1.1244419458127872
12.78038731,0.22599658061228128,2.464690411656358,-1.1552391255036742
12.78538731,0.23339186690026134,2.5389963274271614,-1.1806550954114154
12.79038731,0.23612750799598542,2.609985893809522,-1.2003385573911063
12.79538727,0.23402383223792958,2.6776768592446705,-1.2139703963032045
12.80038727,0.22696652335605527,2.7420740909379973,-1.2212637866625775
12.80538727,0.2149079242248668,2.8031628191008107,-1.2219641517063144
12.81038731,0.19786750070180795,2.8609022008130616,-1.2158490384632412
12.81538731,0.17593148697314295,2.9152193689517034,-1.2027279704887324
12.82038731,0.1492517403440164,2.966004127504363,-1.1824423359006433
12.82538731,0.11804383880836695,3.0131044471977817,-1.1548653625643153
12.83038731,0.08258445920480029,3.056322904648816,-1.1199022250738764
12.83538704,0.04320807742337242,3.0954141941279354,-1.0774903198727632
12.84038701,0.0003030350568540503,3.1300838235127126,-1.027599735710157
12.84538701,-0.045692980795426094,3.159988085238476,-0.9702339368569243
12.85038701,-0.09429799598875069,3.184735369329424,-0.9054306662981706
12.85538704,-0.14499129584729037,3.2038888593757635,-0.8332630656833426
12.86038704,-0.1972194079623485,3.216970624175303,-0.7538409983524949
12.86538704,-0.25040246787054754,3.2234670883049272,-0.6673125514285438
12.87038701,-0.3039409123168323,3.2228358348121535,-0.5738656828774764
12.87538697,-0.3572224424134179,3.2145136632755578,-0.47372996969900855
12.88038694,-0.40962919582611257,3.197925797460336,-0.36717840418821596
12.88538694,-0.46054506291962943,3.1724961094030517,-0.2545291767426064
12.89038694,-0.5093630764883963,3.137658201538212,-0.13614737624465112
12.89538697,-0.5554927984392733,3.0928671657682356,-0.0124465328912002
12.900387,-0.5983676199981813,3.0376118183712917,0.1161100762709002
12.90538704,-0.6374518853203408,2.9714271924955233,0.24900844168734315
12.91038704,-0.6722477425302837,2.893907055928854,0.38568323906114055
12.91538704,-0.7023016219521635,2.8047162112043162,0.525517733169986
12.920387,-0.7272102393374423,2.70360232833778,0.6678442476687919
12.925387,-0.7466260228980515,2.590407058053,0.8119452764405638
12.930387,-0.7602618673640857,2.4650761756265904,0.957055306115163
12.93538704,-0.7678951262763071,2.3276685127715946,1.1023634119151229
12.94038704,-0.7693707651381891,2.17836344741523,1.2470166800089693
12.94538704,-0.7646036124313509,2.0174667387977903,1.3901244989914059
12.950387,-0.7535796621522917,1.845414517871071,1.530763750876723
12.95538697,-0.7363563996292581,1.6627752702554328,1.6679849180276578
12.96038693,-0.7130621410827808,1.470249680716599,1.800819106715127
12.96538693,-0.6838943959680063,1.268668243893258,1.928285970450043
12.97038697,-0.6491172790051025,1.058986585427731,2.049402496746913
12.975387,-0.6090580155221177,0.842278480218305,2.1631925995425987
12.98038703,-0.5641025989666113,0.6197265996258575,2.2686974362438708
12.9853873,-0.5146906729369702,0.3926110664587848,2.3649863435927196
12.9903873,-0.46130972161971273,0.16229594470045453,2.451168260547855
12.99538726,-0.40448866187557025,-0.06978616055237458,2.5264034795848334
13.00038723,-0.3447909372564412,-0.3021511694554031,2.5899155408301278
13.0053872,-0.28280721901764744,-0.5332819900106204,2.6410030571826577
13.0103872,-0.21914782200113833,-0.7616480626740136,2.6790512341662547
13.0153872,-0.15443494449995934,-0.9857256322142023,2.703542826909418
13.02038776,-0.0892948411512056,-1.2040183564111517,2.714068259757145
13.02538713,-0.024350036576084866,-1.415077832023147,2.710334623473335
13.03038649,0.039788315137754875,-1.6175235976736204,2.6921732634115783
13.03538649,0.10252782364748089,-1.8100621631200253,2.65954568261679
13.04038649,0.1633019106107848,-1.99150461730909,2.6125475097812507
13.04538646,0.22157641810627954,-2.160782386563963,2.5514103257044867
13.05038646,0.2768556829446309,-2.3169607520742126,2.4765012039904772
13.05538646,0.3286879810028595,-2.45924979490222,2.388319900052648
13.06038649,0.37667024418264333,-2.5870125179474637,2.2874937118277545
13.06538649,0.42045195589039314,-2.699769995872965,2.1747701278411777
13.07038649,0.4597381439644942,-2.7972035194756923,2.051007463805234
13.07538646,0.494291413900833,-2.87915381929518,1.9171637586901749
13.08038642,0.5239329960683956,-2.9456175614874276,1.774284248633016
13.08538639,0.5485428121805611,-2.9967413965842273,1.6234877592435633
13.09038639,0.5680585944969923,-3.032813903327227,1.4659523550364209
13.09538642,0.5824741155649387,-3.0542558051326547,1.3029005641933848
13.10038646,0.5918366080491876,-3.061608848809119,1.1355844658872252
13.10538649,0.596243473855881,-3.0555237276235547,0.9652708943269483
13.11038649,0.5958383979988672,-3.036747407203523,0.7932269840374115
13.11538649,0.5908069932278843,-3.0061101764268168,0.6207062562301542
13.12038646,0.5813721049268217,-2.9645126997581066,0.4489354251778857
13.12538646,0.5677889026285409,-2.912913295863721,0.27910208397659886
13.13038646,0.5503398764649634,-2.85231561310069,0.11234340850903134
13.13538649,0.5293298460209787,-2.7837568186922415,-0.050264005583169215
13.14038652,0.5050810770560807,-2.7082963676800804,-0.20771308678019978
13.14538652,0.4779285896459159,-2.6270053722395925,-0.3590739581715039
13.15038652,0.4482157303731554,-2.540956553558679,-0.5035003116308575
13.15538652,0.4162900716744757,-2.4512147290040702,-0.6402344898890842
13.16038652,0.38249969304697584,-2.3588277682509515,-0.7686113024740656
13.16538652,0.34718989059291677,-2.2648179443633616,-0.8880606191214696
13.17038556,0.31070035210193897,-2.1701736095866844,-0.998108799538632
13.17538622,0.27336282354296093,-2.075841140035578,-1.0983790321034725
13.18038689,0.23549927915447014,-1.9827171168392448,-1.1885906658731895
13.18538692,0.19742059169264561,-1.8916407411929537,-1.2685576292423024
13.19038692,0.15942568257431158,-1.803386514152714,-1.3381860335666287
13.19538692,0.12180111440043004,-1.7186572456538756,-1.3974710601229032
13.20038689,0.08482107147811739,-1.6380774880515288,-1.4464932239037354
13.20538689,0.048747658467147084,-1.5621875148606026,-1.4854140992372304
13.21038689,0.013831434242099512,-1.4914379833318767,-1.514471582158579
13.21538692,-0.01968791156139684,-1.426185428780311,-1.5339747548407283
13.22038662,-0.0515808373707344,-1.3666887387351154,-1.544298409466422
13.22538662,-0.08162728298217814,-1.3131067463019486,-1.5458772830797716
13.23038662,-0.10961615302838613,-1.265497065451069,-1.5392000509283457
13.23538662,-0.13534503865052724,-1.2238162674574757,-1.5248031229946997
13.24038662,-0.1586202540519318,-1.1879214688582753,-1.5032642861554997
13.24538658,-0.17925725006050372,-1.1575733686654717,-1.4751962322007264
13.25038659,-0.19708144964365668,-1.1324407378248385,-1.4412400096405826
13.25538658,-0.21192953106331675,-1.112106328589173,-1.4020584350576137
13.26038662,-0.223651163641815,-1.0960741369494473,-1.3583294981895053
13.26538665,-0.2321111796023149,-1.0837779187325078,-1.3107397943640071
13.27038665,-0.2371921438337312,-1.0745908304402387,-1.2599780185203602
13.27538662,-0.23879726236565643,-1.067836040179811,-1.2067285567899786
13.28038658,-0.23685355043178405,-1.062798132692167,-1.1516652143222244
13.28538658,-0.23131516282585646,-1.0587351158451883,-1.0954451215274346
13.29038658,-0.22216677342407673,-1.0548908240771433,-1.0387028648521337
13.29538662,-0.20942687796727444,-1.0505075070037648,-0.9820448921038708
13.30038662,-0.1931508852081494,-1.0448383885041215,-0.9260442455831919
13.30538662,-0.1734338569580892,-1.0371599828651445,-0.8712356782890697
13.31038662,-0.1504127577724756,-1.0267839597903015,-0.8181112089104831
13.31538662,-0.12426808007367182,-1.013068358989201,-0.7671161701530873
13.32038702,-0.09522472038209821,-0.9954279672931217,-0.7186458022896282
13.32538698,-0.06355199701968944,-0.9733436864006225,-0.6730424397485184
13.33038698,-0.029562719252989308,-0.9463707371513242,-0.6305933329829903
13.33538698,0.006388757702122972,-0.9141455665101309,-0.5915291405598294
13.34038702,0.04390952856341334,-0.8763913461996599,-0.5560231171624129
13.34538702,0.08257218924725909,-0.8329219771513401,-0.5241910120530561
13.35038702,0.12191991354418301,-0.7836445415517704,-0.49609167988481845
13.35538698,0.16147248988535637,-0.7285601738617987,-0.47172839228591307
13.36038698,0.2007332181419445,-0.667763352979868,-0.45105082514584777
13.36538698,0.23919653395632828,-0.6014396485292357,-0.4339576837515048
13.37012414,0.2763561996270782,-0.5298619838115827,-0.42029991652448995
13.37512415,0.311713877415269,-0.4533855052685344,-0.4098844586211405
13.38012415,0.3447878842187175,-0.3724411726654949,-0.4024784392675688
13.38512414,0.37512191637903025,-0.2875282052929223,-0.3978137812170177
13.39012415,0.40229353013559654,-0.1992055370878139,-0.39559211674904826
13.39512414,0.4259221668500181,-0.10808244761430347,-0.3954899418971652
13.40012411,0.4456765222805604,-0.01480854621844783,-0.3971639290446827
13.40512408,0.4612810753700586,0.07993670671303293,-0.400256317763106
13.41012408,0.47252161355045913,0.1754547546892768,-0.40440030485028783
13.41512408,0.4792496176642862,0.27103879061382596,-0.40922535691097783
13.42012411,0.4813853993283085,0.3659845119659867,-0.4143623723973094
13.42512411,0.47891991586526134,0.4596006129125343,-0.41944862468397726
13.43012411,0.47191522169493827,0.551218851655644,-0.42413242337520535
13.43512408,0.46050354923746717,0.6402035448118975,-0.42807743742111465
13.44012408,0.44488504596594014,0.7259603560474603,-0.4309666304423735
13.44512408,0.4253242263483452,0.8079442631100602,-0.43250576560183474
13.45012411,0.40214522715689777,0.8856666053316656,-0.4324264442409386
13.45512411,0.3757259811416581,0.9587011321129685,-0.4304886493359009
13.46012411,0.3464914466082146,1.0266889913279698,-0.42648277178122673
13.46512411,0.3149060484232367,1.0893426145799068,-0.42023110477472403
13.47012411,0.2814654990114889,1.1464484735135378,-0.41158879933374887
13.47512324,0.24668817578534566,1.1978686977716786,-0.4004442823526421
13.48012321,0.21110623407922613,1.2435415605479836,-0.38671914772457955
13.48512321,0.17525663210844744,1.283480851914294,-0.3703675409624999
13.49012321,0.13967223698524606,1.3177741731250827,-0.3513750684103821
13.49512324,0.10487316890039843,1.346580196984134,-0.3297572732506156
13.50012324,0.07135852502381067,1.3701249502779314,-0.30555773148015514
13.50512324,0.039598606590582404,1.3886971844438174,-0.27884583099660815
13.51012321,0.010027753207683976,1.402642910199415,-0.249714305075896
13.51512317,-0.01696213136609626,1.412359180868623,-0.21827659730657334
13.52012314,-0.04102729714557646,1.4182872175579715,-0.18466413830014106
13.52512314,-0.06187706321906367,1.420904977046866,-0.14902361525125846
13.53012314,-0.0792779009540302,1.4207192700741915,-0.11151431376717214
13.53512317,-0.09305667013978616,1.4182575434008693,-0.07230560746623588
13.5401232,-0.10310300471148832,1.4140594433696017,-0.03157466486711309
13.54512324,-0.10937085329097547,1.4086682814718343,0.010495564749966725
13.55012324,-0.11187918561816296,1.4026225234975926,0.05371803438751488
13.55512324,-0.11071187962840275,1.396447423053594,0.09790291028737644
13.5601232,-0.10601680619337213,1.3906469175539768,0.14285848229859066
13.5651232,-0.09800413001658122,1.3856959002746732,0.18839165879309114
13.5701232,-0.08694384629861235,1.3820329757678456,0.23430804587872628
13.57512324,-0.07316257395018,1.3800537978483547,0.28041162606317477
13.58012324,-0.057039627801887434,1.3801050794894563,0.32650406736741
13.58512324,-0.03900239493921318,1.382479352392071,0.3723837095826252
13.5901232,-0.01952104440516195,1.3874105409249697,0.4178442891643543
13.59512317,0.0008973946403115716,1.395070400860334,0.4626734774009363
13.60012314,0.021715543513087184,1.405565858194733,0.50665131726645
13.60512314,0.042372721124726974,1.4189372677488252,0.5495486521262798
13.61012317,0.06229246463832848,1.4351575956450042,0.59112564373657
13.6151232,0.08089044921039218,1.4541325146835482,0.6311304776274393
13.62012323,0.09758272097451103,1.4757013875979632,0.6692983512068941
13.6251241,0.11179414681589352,1.4996391006814482,0.7053508342052227
13.6301241,0.12296697524902829,1.5256586998018542,0.7389956828623111
13.63512407,0.13056939525636646,1.5534147726895864,0.7699271789262142
13.64012403,0.13410397455761008,1.5825075157209085,0.7978270523456098
13.645124,0.1331158557077774,1.612487420174381,0.8223660326676471
13.650124,0.12720058793890052,1.6428605119031676,0.8432060587559531
13.655124,0.1160114750130934,1.6730940791590942,0.8600031597899404
13.66012403,0.09926632468818705,1.7026228253326785,0.8724110030301213
13.66512406,0.07675349368268546,1.730855385881015,0.8800850860922783
13.6701241,0.0483371330011313,1.7571811509772506,0.8826875340371414
13.6751241,0.013961551623298195,1.7809773369425936,0.879892444962302
13.6801241,-0.02634536884326643,1.801616250089038,0.8713917124457898
13.68512406,-0.07246976070044271,1.8184726861258005,0.8569012395687203
13.69012406,-0.1242103949912113,1.8309314067240448,0.8361674476535296
13.69512406,-0.18127836777922907,1.8383946321873121,0.8089739733918058
13.7001241,-0.24329785899453324,1.8402894855464844,0.7751484405778882
13.7051241,-0.30980796529391025,1.8360753190974595,0.7345691869732822
13.7101241,-0.38026560092405776,1.8252508499274471,0.6871718226858248
13.71512406,-0.4540494546288893,1.8073610268944837,0.6329554937316542
13.72012403,-0.5304649853414727,1.7820035483203551,0.5719887230958887
13.72512399,-0.608750434070794,1.7488349476948537,0.5044147015522998
13.73012399,-0.6880838236116923,1.7075761642665417,0.4304559016567552
13.73512403,-0.7675909111263525,1.6580175167928526,0.3504178906733586
13.74012406,-0.846354050877563,1.600023002175081,0.26469222189020347
13.74512409,-0.9234219150690627,1.5335338463172976,0.1737582892122297
13.75012409,-0.9978200096559917,1.4585712422377253,0.07818403757974633
13.75512409,-1.0685619091460024,1.3752382199552515,-0.02137456787172026
13.76012406,-1.134661120042418,1.2837206035881559,-0.124175397578545
13.76512402,-1.1951434670518624,1.1842870230413323,-0.2293934052937399
13.77012403,-1.2490598799381927,1.0772879602903536,-0.33612531508400084
13.77512406,-1.295499442439985,0.963153823353246,-0.44339577212932113
13.78012409,-1.3336025485054204,0.8423920544039877,-0.5501649565567304
13.78512409,-1.3625739958226237,0.7155832919907079,-0.6553376321483637
13.79012409,-1.381695832880453,0.5833766208437826,-0.7577735730347362
13.79512409,-1.3903397642438846,0.4464839561385076,-0.8562992823600787
13.80012409,-1.3879789099976716,0.30567362211372273,-0.949720888457142
13.80512409,-1.3741987099806485,0.16176319739621123,-1.036838077360002
13.81012406,-1.3487067620260709,0.015611710963484344,-1.1164588964233981
13.81512406,-1.3113413863904348,-0.13188871690434656,-1.187415243019157
13.82012406,-1.2620787162114013,-0.27982168538437147,-1.2485788350263163
13.82512409,-1.201038126306435,-0.42725566507362117,-1.2988774461497155
13.83012409,-1.128485829820853,-0.5732533753589163,-1.337311178867513
13.83512409,-1.0448364938972676,-0.716881268111181,-1.3629685408068997
13.84012406,-0.9506527512824396,-0.8572189973348185,-1.3750420863160417
13.84512406,-0.8466425141633527,-0.9933687550792955,-1.3728433836711778
13.85012406,-0.7336540290925527,-1.1244643564927859,-1.3558170694924385
13.85512409,-0.6126686472293871,-1.2496799612352392,-1.3235537553547105
13.86012409,-0.4847913219221093,-1.3682383243531409,-1.2758015571824917
13.86512409,-0.35123888552024285,-1.4794184768822127,-1.2124760258781264
13.87012409,-0.21332619884901036,-1.5825627446462336,-1.1336682679943693
13.87512409,-0.07245030953114157,-1.6770830228057678,-1.0396510585068017
13.88012409,0.0699272013149883,-1.7624662336077457,-0.9308827643170127
13.88512406,0.2122994613330962,-1.8382789054559123,-0.8080089174411982
13.89012402,0.3531348734653746,-1.90417082281399,-0.6718613012091217
13.89512402,0.49089870223098914,-1.9598777084970556,-0.5234544413610968
13.90012405,0.6240753386307231,-2.005222912513229,-0.36397942669641026
13.90512409,0.7511908705208814,-2.0401180946953854,-0.1947950207679359
13.91012409,0.8708355591636363,-2.064562901854185,-0.01741606671492575
13.91512409,0.9816858038395356,-2.0786436541133924,0.1665007688786181
13.92012405,1.0825251662738986,-2.0825310695524366,0.35517382098046457
13.92512402,1.1722640264194382,-2.0764770713275196,0.5467156800245887
13.93012399,1.2499574518109513,-2.0608107369022615,0.7391546862200913
13.93512398,1.314820884804256,-2.0359334644238474,0.9304584271250457
13.94012402,1.3662432856082338,-2.0023134459097136,1.1185589535175158
13.94512405,1.4037974137731906,-1.9604795498891177,1.3013793824849271
13.95012408,1.4272469859490067,-1.9110147265371664,1.4768615134272598
13.95512408,1.436550512017809,-1.854549055243331,1.6429940436284096
13.96012408,1.4318616833850892,-1.7917525572578827,1.7978409365852894
13.96512405,1.4135262641787518,-1.7233278941966972,1.939569469862831
13.97012405,1.3820755161323,-1.6500030668021504,2.0664774713721616
13.97512405,1.3382162688656587,-1.572524217864332,2.1770192450886534
13.98012408,1.2828178271112607,-1.4916486293461644,2.269829690563257
13.98512408,1.2168959831206405,-1.4081379875589195,2.3437461360743854
13.99012408,1.1415944736853405,-1.3227519728695813,2.397827433547021
13.99512405,1.0581642842420735,-1.2362422130026858,2.431369904581043
14.00012402,0.9679412547858334,-1.1493466224714743,2.4439197804059676
14.00512398,0.8723224817559624,-1.0627841358058758,2.4352818426130916
14.01012398,0.772742035494071,-0.9772498296822739,2.405524043669559
14.01512398,0.6706465237615381,-0.8934104193504889,2.3549779639322335
14.02012335,0.5674710279553757,-0.8119001083020606,2.2842350429712677
14.02512271,0.46461592013298414,-0.7333167670900268,2.194138605872793
14.03012208,0.3634250362106096,-0.6582184174371066,2.0857717887127967
14.03512208,0.26516563474106897,-0.5871200007816367,1.9604415506722637
14.04012208,0.17101051304111464,-0.5204904154528772,1.819659042136677
14.04512205,0.0820225851484347,-0.45874981284956856,1.6651166769145902
14.05012138,-0.0008578483566095325,-0.4022671496140378,1.4986623302487883
14.05512138,-0.0768229872411003,-0.3513579995800772,1.32227114993777
14.06012141,-0.14520450320721867,-0.30628263629679875,1.1380155225278386
14.06512141,-0.2054776009609935,-0.2672444043047407,0.9480337769794662
14.07012141,-0.25726224479385307,-0.23438840499603814,0.7544982320143027
14.07512141,-0.3003216903121333,-0.2078005304533739,0.5595831996813148
14.08012141,-0.33455851567728573,-0.18750688539419522,0.3654335475378939
14.08512141,-0.36000839201546575,-0.17347364223467615,0.17413439722622295
14.09012138,-0.3768318684976903,-0.16560737628160407,-0.012317500276956191
14.09512138,-0.3853044743297779,-0.16375592631573666,-0.1920402224250754
14.10012138,-0.38580545789171633,-0.16770981990598188,-0.3632905379685972
14.10512141,-0.3788054926040358,-0.17720429283963238,-0.5244848206830511
14.11012141,-0.36485367961991005,-0.19192191889265015,-0.6742167416770811
14.11512141,-0.3445641691025068,-0.21149585107605157,-0.8112715541007247
14.12012138,-0.31860270501490595,-0.23551365977162753,-0.9346368700508816
14.12512138,-0.28767337390359127,-0.26352173778585414,-1.0435099114319655
14.13012138,-0.2525058073976439,-0.29503022793937644,-1.1373012910804705
14.13512141,-0.21384305255924016,-0.32951841578896024,-1.2156354450370397
14.14012144,-0.17243028519039136,-0.36644051869958727,-1.2783478901657899
14.14512144,-0.12900449996055732,-0.40523179282627164,-1.3254795234059382
14.15012144,-0.08428526916470971,-0.44531487161595745,-1.357268210693909
14.15512144,-0.03896662086845069,-0.4861062432511315,-1.3741379363612296
14.16012144,0.006289950833845204,-0.52702277022971,-1.3766857991877874
14.16512144,0.05086136403996818,-0.5674881522622015,-1.3656671509375282
14.17012208,0.09416776392878673,-0.6069392339618885,-1.3419791786293471
14.17512274,0.13567634401529305,-0.6448320612282248,-1.3066432341507497
14.18012341,0.17490425893223402,-0.6806475943983252,-1.2607862147847633
14.18512344,0.21142072358965908,-0.7138969917901895,-1.2056212959304264
14.19012344,0.244848397953935,-0.744126384044657,-1.1424283124084242
14.19512344,0.27486415644113915,-0.770921067904402,-1.0725340767082796
14.20012407,0.3011993368119805,-0.7939090581833089,-0.9972929110190736
14.20512404,0.3236395561972253,-0.8127639490453743,-0.9180676550135851
14.210124,0.3420241719542956,-0.8272070504062586,-0.8362113935447663
14.21512401,0.356245452690882,-0.8370087820023852,-0.7530501279430611
14.22012387,0.36624751017243673,-0.8419893257778813,-0.6698665912674607
14.2251239,0.3720250264298334,-0.8420185557586881,-0.5878853811380973
14.23012394,0.3736217932538087,-0.837015282445564,-0.5082595535821641
14.23512394,0.3711290650135143,-0.8269458649831269,-0.432058788721423
14.24012394,0.36468371209055794,-0.811822258178512,-0.36025920617390306
14.2451239,0.3544661524105057,-0.7916995723051907,-0.2937348768980235
14.2501239,0.3406980330039918,-0.766673231161912,-0.23325105032895632
14.2551239,0.3236396319886243,-0.7368758178179662,-0.1794590914694879
14.26012394,0.3035869532942227,-0.7024736977886302,-0.13289310163712484
14.26512397,0.2808684913674431,-0.6636635062399783,-0.09396817800965904
14.27012397,0.25584165064815545,-0.6206685796923817,-0.06298025040384654
14.27512394,0.22888881450363519,-0.573735404185759,-0.04010741882478293
14.2801239,0.2004130700725226,-0.5231301415446794,-0.025412702393096898
14.28512387,0.17083360839223205,-0.469135283699195,-0.018848099287153704
14.29012383,0.14058083237273583,-0.4120464724679528,-0.02025984814325587
14.29512383,0.11009121773497782,-0.35216950946295167,-0.029394773753933515
14.30012387,0.0798019831703844,-0.2898175687052554,-0.04590759381150227
14.3051239,0.050145635160778225,-0.22530861407751307,-0.06936905884294081
14.31012393,0.021544459967526065,-0.1589630155833324,-0.09927479427474571
14.31512393,-0.005594959556327385,-0.09110135276604928,-0.13505471146410217
14.32012393,-0.030887121215500208,-0.022042390328859993,-0.17608285315885497
14.3251239,-0.05397279186589601,0.0478987904448983,-0.2216875380011761
14.3301239,-0.07452392405353699,0.11841252084588466,-0.2711616684959049
14.3351239,-0.0922482199858797,0.18919614963980982,-0.32377306770841624
14.34012393,-0.10689326591072772,0.2599555367670842,-0.3787747123035729
14.34512393,-0.11825016596902992,0.3304064461089223,-0.4354147338027417
14.35012393,-0.1261566125962852,0.40027584436228036,-0.4929460663940926
14.35512393,-0.130499340464637,0.4693031095697351,-0.5506356282825686
14.36012393,-0.13121592236406968,0.5372411492630111,-0.6077729340483858
14.36512393,-0.12829587767119105,0.6038574247434498,-0.6636780471928224
14.37012406,-0.12178107659929652,0.6689348750113692,-0.7177087943983723
14.37512406,-0.1117654359666085,0.7322727314864532,-0.769267175626725
14.38012406,-0.09839391457270436,0.793687213042438,-0.8178049168971203
14.3851241,-0.08186082819098475,0.8530120900259107,-0.8628281255323942
14.39012413,-0.0624075153524307,0.9100991058340967,-0.9039010209504972
14.39512413,-0.04031939516363051,0.9648182453544178,-0.9406487275589576
14.4001241,-0.015922466987074998,1.0170578413213855,-0.9727591294841256
14.40512406,0.010420691428651882,1.0667245126938898,-0.9999837992221243
14.41012406,0.038315365934690045,1.1137429335103115,-1.0221380237290951
14.41512406,0.06733952342239827,1.1580554357548216,-1.0390999623392851
14.4201241,0.0970489379661533,1.1996214545232744,-1.0508089815833348
14.4251241,0.1269825575870578,1.2384168273140845,-1.0572632223276577
14.4301241,0.15666804278961075,1.2744329612856364,-1.0585164639763878
14.4351241,0.18562740772138273,1.3076758830247983,-1.0546743580054383
14.4401241,0.21338269499023402,1.3381651851236858,-1.0458901084719505
14.4451241,0.23946161601707067,1.365932882980898,-1.032359680506498
14.45012406,0.26340309052988564,1.3910221940298428,-1.0143166195820992
14.45512406,0.28476262154677046,1.4134862503955032,-0.9920265650215234
14.46012406,0.3031174459326449,1.433386755148027,-0.9657815411109497
