Time (s),Acceleration x (m/s^2),Acceleration y (m/s^2),Acceleration z (m/s^2)
6.00336672,0.07161082853137174,2.60431928599863,-0.2916488000911546
6.008366753,1.3362758341444574,3.2237726493325245,-3.079884550750123
6.013366786,2.599211236985255,3.924376934727463,-5.7860321589117225
6.018366819,3.8306286178967848,4.7005210672888715,-8.345283385511696
6.023366819,5.001049296656412,5.541892352356156,-10.698811735523433
6.028366819,6.082116299483467,6.433085961280082,-12.795895336621609
6.033366785,7.047370474510305,7.353440576181857,-14.595635723046223
6.038366785,7.872968425203002,8.277134462805666,-16.068195341571233
6.043366785,8.538323235208692,9.173564051181957,-17.195506526065373
6.048366818,9.026652462662355,10.00801310386142,-17.97143612218943
6.053366818,9.325421349826355,10.742605493806325,-18.401420417568797
6.058366818,9.426672531311777,11.337519300670134,-18.50161234426181
6.063366784,9.327236729938711,11.752425183640149,-18.297605257734393
6.06836675,9.02882202008883,11.948098545212329,-17.822813967731765
6.073366716,8.537982163738619,11.888143443677542,-17.11660426383179
6.078366716,7.8659671527366015,11.540756968164617,-16.22226792904395
6.083366749,7.0284612979518055,10.88045623146021,-15.184942128034134
6.088366782,6.045215968575944,9.889686658652735,-14.049570475863163
6.093366815,4.93958549115338,8.56023024429861,-12.85899799732648
6.098366815,3.7379759174483564,6.894336212401817,-11.652283518425442
6.103367481,2.469217519075768,4.905504165605238,-10.463300900063416
6.108375227,1.1638730712592962,2.618861259118022,-9.319685169639143
6.113375193,-0.14650474288912618,0.07108984990682868,-8.242161365585735
6.118375193,-1.4301522188064384,-2.6901200973080277,-7.244273340280455
6.123375226,-2.655894047744759,-5.607099516286151,-6.3325078716246646
6.128375259,-3.793946409554745,-8.613693812851977,-5.506787716837578
6.133376492,-4.8167057755760005,-11.637183446362354,-4.761287411736472
6.138376492,-5.69950424751145,-14.600571356126341,-4.085509148109767
6.143376492,-6.421310966909308,-17.42515602641306,-3.4655439403602606
6.148376492,-6.965357913359149,-20.033290141037316,-2.885436027313991
6.153375825,-7.319667542629195,-22.351209433554196,-2.3285661600094474
6.158374891,-7.477459529442076,-24.3118058382508,-1.7789719090036773
6.163373991,-7.437414699212895,-25.857214659058034,-1.222530000632281
6.168373091,-7.203776354304244,-26.9410882528235,-0.6479365292253175
6.173372224,-6.786272916474605,-27.530439353331456,-0.04743528027449712
6.178372124,-6.199851449613282,-27.606955796175814,0.582738169332454
6.183372124,-5.464219497474085,-27.167714523402093,1.2422092730430077
6.188371424,-4.603202784251794,-26.225255019095137,1.9266064512591228
6.19337139,-3.643938058385385,-24.80700849403744,2.6279647289281862
6.198371356,-2.6159322853561413,-22.954116071700412,3.335346872368741
6.203371356,-1.5500295852188721,-20.71970336770081,4.0356254861260865
6.208371389,-0.4773340850122316,-18.16670701465797,4.714362595260219
6.213371422,0.571860531653687,-15.365368819992366,5.356721840190867
6.218370788,1.5690853045965485,-12.390524672575657,5.94835201349179
6.223370788,2.4886091334726244,-9.318818381561801,6.4761883229530515
6.228370788,3.3082127301846795,-6.2259662620684475,6.929128328159075
6.233370088,4.009794035429597,-3.1841877022574527,7.2985517737318295
6.238369154,4.579785529723336,-0.25990153064150573,7.578666397764355
6.243368454,5.009374078876409,2.488230848180215,7.76667423875632
6.248368487,5.2945239711135565,5.010855550471574,7.862764215033558
6.253367853,5.435813102836655,7.269031453005287,7.869946281460983
6.258367853,5.438100433143561,9.234874287460944,7.7937500072712975
6.263367853,5.310049528887154,10.89174406458692,7.641815869245413
6.268367453,5.063538027208042,12.233999212879626,7.423410911030298
6.273367419,4.712986017316773,13.26635719954933,7.148901745724961
6.278367385,4.2746376724695185,14.002914745323261,6.829217323252826
6.283366151,3.7658300518813212,14.465890711369846,6.475331676070779
6.288366184,3.2042810419425174,14.684161170441243,6.097793274278213
6.293366217,2.6074251709309597,14.691659094597615,5.706322956039754
6.29836625,1.9918217813143524,14.525710672434647,5.309496941923775
6.303366916,1.3726550466584475,14.225376813921129,4.914525481504476
6.308367816,0.763339841894281,13.82986232390113,4.5271315112979496
6.313368682,0.1752417825227297,13.37704702311386,4.15152762923327
6.318369582,-0.382485898071053,12.902183318196904,3.7904840257031984
6.323370482,-0.9029513173446417,12.436793939441896,3.4454750604326616
6.328370615,-1.3814662812316143,12.007792336143304,3.1168882064552004
6.333370748,-1.8153936484708835,11.636837068934513,2.8042762986836065
6.338371414,-2.2039146619780268,11.33992094507653,2.5066325394125197
6.343371414,-2.547733517426022,11.127186033128027,2.2226675486689684
6.348371414,-2.848737771066105,11.00294743373845,1.951068840818559
6.353371414,-3.1096335435746427,10.965902071493526,1.6907253311336528
6.35837138,-3.333573963136534,11.009494067638991,1.4409026589517189
6.363371346,-3.5237981315961253,11.122405747961562,1.2013590817309274
6.368371612,-3.68329640499876,11.289143363608224,0.9723962732788041
6.373371645,-3.8145162279545555,11.490689302772939,0.7548443276763727
6.378371011,-3.9191212187846642,11.705197579784189,0.5499852660385022
6.383371677,-3.9978144958015083,11.90871572228623,0.35942384283147855
6.38837191,-4.0502350883473754,12.075922532996328,0.184917890623763
6.39337191,-4.074933497230446,12.18087640411538,0.028182420502188166
6.39837191,-4.069429042923501,12.197772146448665,-0.10931791349893136
6.40337191,-4.030347707925536,12.101705344179816,-0.22657439022368364
6.408371943,-3.953634967168688,11.869442081859027,-0.32322620614706965
6.413371943,-3.8348338570659783,11.480188741477308,-0.39972950343701513
6.418372309,-3.669414531462639,10.916351783471505,-0.4574959163463806
6.423372309,-3.4531381290711316,10.164271501644908,-0.49899397889598845
6.428372309,-3.182435333790587,9.214907432908344,-0.5278066160062774
6.433372309,-2.854778877742042,8.06444742078549,-0.5486374728185871
6.438372275,-2.469029496073008,6.714808304289288,-0.5672589529602688
6.443372275,-2.02573628736325,5.173994571431251,-0.5903961659976195
6.448372275,-1.5273747175647525,3.456282417245149,-0.6255436030103557
6.453372308,-0.9785082909953664,1.5822004781887438,-0.6807149910654148
6.458372308,-0.3858629192739662,-0.42171515848219443,-0.7641310910596362
6.463372308,0.24169393470444267,-2.5234055912620006,-0.8838548601960329
6.468372274,0.8932741392499511,-4.686016942436546,-1.0473878862988777
6.47337224,1.5561911008694678,-6.868862848269106,-1.2612456209033343
6.478372206,2.2162803852680937,-9.028599499780267,-1.5305311911866044
6.483372072,2.858310961340705,-11.120576933284086,-1.8585284923070946
6.488372072,3.4664741462521413,-13.100316704697544,-2.2463352290020757
6.493372105,4.024932451042142,-14.92505452097197,-2.692555860080324
6.498372138,4.518406260626797,-16.555278000880666,-3.193073030087254
6.503372171,4.932772871549757,-17.956185375721294,-3.7409139843742616
6.508371771,5.25565006868369,-19.09899121707548,-4.326225615149718
6.513371771,5.476935370938066,-19.962010447757013,-4.936368177883613
6.518372137,5.5892725401133445,-20.53146179816524,-5.556133411170555
6.523372137,5.588419111725626,-20.801945958770585,-6.168087938157659
6.528372803,5.473492663591871,-20.77657106598228,-6.753037646185835
6.533372903,5.247079230799204,-20.46671767561522,-7.2906034394629895
6.538373569,4.9151944345237055,-19.891455600860994,-7.759893430685392
6.543374235,4.487095991538243,-19.076644352852192,-8.140251295236084
6.548374201,3.9749545992822943,-18.05376594233389,-8.412055269757529
6.553374167,3.393398026866687,-16.858552305720053,-8.55753748357525
6.558374133,2.7589500136933416,-15.529478832164672,-8.56158946993781
6.563374133,2.08939091671383,-14.106200023934939,-8.412517274625541
6.568374166,1.4030707615583442,-12.628003248365246,-8.10270886885168
6.573374199,0.718207365079723,-11.132352200596491,-7.629177753808137
6.578374232,0.05220250613825564,-9.653583690304897,-6.993949796700888
6.583374232,-0.57899220632567,-8.22181042989894,-6.20426545513692
6.588374232,-1.1614309537240746,-6.8620694510214735,-5.2725765171004095
6.593374198,-1.6836261659186422,-5.593741453450962,-4.216325092812838
6.598374164,-2.136878441790464,-4.430251619327066,-3.057502548742607
6.60337413,-2.5154706874137958,-3.3790479741141337,-1.821997038292707
6.60837413,-2.8167199129507137,-2.441839938658561,-0.5387498864075198
6.61337413,-3.0408870500866523,-1.6150679230177991,0.7612471657054471
6.618374163,-3.190951993638743,-0.8905652395833168,2.046070680436712
6.623374196,-3.2722675444584564,-0.2563667508379877,3.284047408685921
6.628374229,-3.2921117661774764,0.30238519129518315,4.444939557924235
6.633374229,-3.2591632009896574,0.8024878288555246,5.5010704715047165
6.638374229,-3.182927151809121,1.261726620239323,6.428329464967342
6.643374195,-3.073143570892566,1.697969916520568,7.207001921184266
6.648374195,-2.9392077935650227,2.1283484368686025,7.82238350896973
6.653374195,-2.789634343521429,2.568551080571321,8.265154063187685
6.658374628,-2.6315914156790092,3.032260250447671,8.531504866208955
6.663374628,-2.470529664217609,3.5307406771857996,8.62303034327876
6.668374628,-2.309923892766029,4.072586153607805,8.546409624286513
6.673374594,-2.1511404501653644,4.663619109559913,8.312913862102219
6.678373894,-1.9934368514062393,5.306929100767407,7.937781137773367
6.683373127,-1.8340936528411182,6.003028551731941,7.439502301536421
6.688373127,-1.6686721994212719,6.750097943885412,6.8390586975750765
6.69337316,-1.4913857743584702,7.54428846299492,6.159147171575888
6.698373193,-1.2955661044606972,8.380048201324806,5.423420017487804
6.703373226,-1.0742022639418467,9.250438523660248,4.655758692388103
6.708373226,-0.8205249385923589,10.14741021848229,3.8795915031078527
6.713373226,-0.5286059479123597,11.0620145429942,3.1172585510745017
6.718373192,-0.19394110742685106,11.984532079750915,2.3894235277727023
6.723373192,0.18601576729938504,12.904512027038693,1.7145323394958505
6.728373192,0.6113984072676014,13.810725328605177,1.108322528697721
6.733372892,1.0795805426482805,14.691045795094578,0.5833933006206217
6.738372925,1.5849577045258167,15.532282932431205,0.14885147492339817
6.743372925,2.1188747851403056,16.31999763565748,-0.18994786101948577
6.748372925,2.6697090749664896,17.038336606860714,-0.4315466944957235
6.753372925,3.2231115003098636,17.669922997863104,-0.578398630139385
6.758372925,3.7624017161061976,18.195839315321965,-0.6367409464215098
6.763372925,4.269105728071237,18.595734225347957,-0.6163194732675901
6.768372891,4.7236179956736155,18.848077881242787,-0.5299696876102986
6.773372891,5.1059637200611006,18.93058120921616,-0.39306587693469064
6.778372891,5.396631514116435,18.820783755272974,-0.22285838160718024
6.783372924,5.577442180033633,18.496802848485327,-0.037726137983120155
6.788372924,5.632416194286388,17.938224686441313,0.14362274361144842
6.793372924,5.548601022903289,17.127106257419445,0.30296659677168025
6.79837289,5.316819779964344,16.049046498762568,0.4233661362030248
6.80337289,4.93230502847483,14.694276348927518,0.48990735214748987
6.80837289,4.3951855126673856,13.058710851060395,0.4903620869451971
6.813372923,3.710798986812075,11.144902611082182,0.41574148243694864
6.818372923,2.8898107637802575,8.96283508210281,0.26072161514955633
6.823372923,1.948124914748783,6.5304966625206236,0.0239243350055777
6.828373589,0.9065830176039636,3.8741826458953166,-0.29196012249372705
6.833374255,-0.20954622969159667,1.0284816322248849,-0.6802183225698933
6.838374255,-1.371274597170243,-1.9640841555560469,-1.1303314877371773
6.843374221,-2.5467786761261126,-5.053779623552491,-1.6283648314925652
6.848374221,-3.7024325263777342,-8.18473600206533,-2.1575195049008244
6.853374221,-4.803952923716834,-11.296367096361923,-2.698829344271158
6.858374254,-5.817615398888014,-14.325082164831246,-3.231975310130751
6.863374287,-6.711494496806722,-17.206236586060257,-3.736182053862229
6.868374287,-7.4566784905461585,-19.87624468606434,-4.191154471446465
6.873374253,-8.028407358739452,-22.27476503220975,-4.578008047302672
6.878374219,-8.40708335751428,-24.34685835385246,-4.8801455394327755
6.883374519,-8.579106152116978,-26.045013219848848,-5.084034170752443
6.888374485,-8.537489373851638,-27.330935758829856,-5.1798418984930565
6.893374485,-8.282222771383811,-28.17700777995599,-5.161898330751876
6.898374518,-7.820353922450034,-28.567332801200013,-5.028955100842642
6.903374551,-7.165775778573549,-28.498311156627967,-4.784231563214028
6.908373917,-6.338720995460785,-27.9787121755459,-4.4352440651687175
6.91337325,-5.364980537601018,-27.029241238400296,-3.9934301390159814
6.91837325,-4.274881197657791,-25.681629504936488,-3.4735917218821992
6.923373183,-3.1020723981740854,-23.97730129297972,-2.893192514353551
6.928373183,-1.8821846760438663,-21.965695967614707,-2.271552400391516
6.933372949,-0.6514290583387904,-19.702336300971428,-1.628985615555991
6.938372982,0.5547921610574899,-17.246743214527896,-0.9859290990465938
6.943372982,1.7031962881484781,-14.660298076033948,-0.36210393333101604
6.948372982,2.7637932124438263,-12.004149190259428,0.22425302935749641
6.953372948,3.71087131208343,-9.337249869353547,0.7570573983129743
6.958372914,4.523759379446847,-6.714602604084382,1.2229231283305027
6.96337288,5.187340993324364,-4.185768467409099,1.611571652054769
6.96837288,5.692311237091772,-1.7936840072155158,1.9160972783054844
6.973372913,6.035178521820959,0.4261894954500014,2.1330885954253187
6.978372946,6.218025937915393,2.4463765231070984,2.2626114237819834
6.983372979,6.248056618493441,4.247565535955927,2.308063626850619
6.988373012,6.136955775466672,5.818476917136926,2.2759157731795487
6.993373012,5.900108193553704,7.15545442422833,2.1753542801859727
6.998372978,5.555713961705578,8.26182302991449,2.017845369625307
7.003372944,5.12384709975657,9.147062267456974,1.816639052647133
7.008372944,4.625501595233211,9.825847479324594,1.5862325579691732
7.013372944,4.081667358268456,10.317011766918977,1.3418122280927582
7.018372977,3.5124749344192705,10.642479157217222,1.0986920467687338
7.023372977,2.936442724764798,10.826214868906463,0.8717657317244893
7.028372977,2.3698542188407345,10.893232016730174,0.6749878073080731
7.033372977,1.8262856437826953,10.86868615080581,0.5208973074699429
7.038372977,1.316296790012196,10.777080233652496,0.4201957908954485
7.043372977,0.8472899217228059,10.641593566651721,0.38138924774241983
7.048372943,0.4235339540234424,10.483539335649104,0.4105013528320873
7.053372943,0.04634380369768059,10.321947365054028,0.5108635014217728
7.058373609,-0.2856017048250416,10.173261802054908,0.6829852515044535
7.063374309,-0.5758255347493879,10.051138175014474,0.924507232690317
7.068374309,-0.829528302387934,9.96632092085393,1.2302372598339575
7.073374342,-1.0530041545617261,9.926581411121216,1.5922692967312744
7.078374308,-1.253028703349305,9.936698035851613,2.0001840329804916
7.083374508,-1.4362522116839322,9.998463992603778,2.4413290451934206
7.088374474,-1.6086311261727877,10.110714388132441,2.9011754802289285
7.093374474,-1.7749293592171929,10.269370878469164,3.3637464399304204
7.098374507,-1.9383171500617733,10.467508145113396,3.8121093874021796
7.10337454,-2.1000898802193375,10.695451252903558,4.228920910506705
7.108374573,-2.2595221951334787,10.940916015389364,4.597007448350716
7.113374606,-2.4138647339207155,11.189205811877779,4.899960766085558
7.118374606,-2.558482315912066,11.423477881708301,5.122722815559653
7.123374572,-2.6871241167491893,11.625090043721238,5.252131930972277
7.128374538,-2.7923085930628155,11.774035150186004,5.277401878565528
7.133375704,-2.865799077532633,11.849465534248775,5.190507798073853
7.138375704,-2.899140592170351,11.830303535702848,4.986458786228981
7.143375737,-2.884225113320754,11.695927377504606,4.663445254616174
7.148375737,-2.813851671118775,11.42691486107069,4.222858988937553
7.15337507,-2.6822492726318714,11.005821208970188,3.6691934827089487
7.158374136,-2.485534297955862,10.417962404131577,3.0098402560913247
7.163373202,-2.22207912070179,9.652171828607548,2.2548026433735116
7.168372268,-1.8927746143589645,8.7014960165072,1.4163516367732139
7.173371368,-1.5011753562636074,7.563794959606532,0.5086489433577529
7.178371401,-1.0535222785694602,6.2422136403172335,-0.4526391997283526
7.183371434,-0.5586429590841535,4.7454942653279275,-1.4507173580844757
7.188371467,-0.027734583710317038,3.0881029712372334,-2.4680103360241574
7.193371467,0.5259611812064255,1.2901505330333107,-3.486478006442154
7.198371467,1.087578593474181,-0.6229061605936079,-4.487893786702717
7.203371433,1.6411276847015874,-2.620786342865677,-5.454091508618228
7.208371433,2.17005510660057,-4.669125532073491,-6.3671902914777005
7.213371433,2.657845207074793,-6.730416364114836,-7.209809558545509
7.218371466,3.0886386046675804,-8.765120811419997,-7.965286539874938
7.223371466,3.447844105017317,-10.732912890302833,-8.617906908126763
7.228370799,3.7227191357483362,-12.594000821752593,-9.153156106129444
7.233370799,3.9028941497825635,-14.310469946183131,-9.557994900390351
7.238370565,3.980817780277956,-15.847583316435237,-9.821158162064725
7.243370565,3.9521019723070605,-17.17497641047381,-9.933471251082985
7.248370531,3.8157498516430715,-18.267686168254752,-9.888174026842226
7.253370497,3.5742536375368,-19.106962569355698,-9.681238710267738
7.258370497,3.233555308006665,-19.68082279759621,-9.311664773574607
7.263370497,2.8028687564029036,-19.984322807731242,-8.781731884501033
7.26837053,2.2943685450228357,-20.01953756362552,-8.09719082418378
7.27337053,1.7227567049071322,-19.795257889878975,-7.267372405101592
7.27837053,1.104724941015497,-19.326427326581282,-6.305195926504904
7.28336933,0.45833469216353867,-18.63335543263006,-5.227061716462089
7.288369296,-0.1976585122577254,-17.740753923404448,-4.052616719495753
7.293369262,-0.8445072066301934,-16.67664856383144,-2.804387644273576
7.298369262,-1.4641700152455421,-15.471222861881737,-1.5072826423371195
7.303369962,-2.0399747942202766,-14.155649472630998,-0.1879696658404212
7.308370895,-2.5572173483588188,-12.760962120599054,1.1258526568908058
7.313371828,-3.003668690946413,-11.317015218720886,2.4062679094799484
7.318372728,-3.3699675405729494,-9.851570758018577,3.626007216519432
7.323373628,-3.6498796030176326,-8.389543047169706,4.759328980469829
7.328373594,-3.840411098095961,-6.9524220380085575,5.782870006890058
7.333374727,-3.9417709049353626,-5.5578857592079665,6.676422779906956
7.338374727,-3.957183473116217,-4.219602257270038,7.423595235105835
7.34337476,-3.8925629118079454,-2.9472119251681574,8.012315326701954
7.34837476,-3.7560667939320123,-1.746472746311747,8.43515265257617
7.35337476,-3.557555449130028,-0.6195443054269237,8.689442090144174
7.358374726,-3.307988194723073,0.43461822645316933,8.777208001361442
7.363374692,-3.0187915767352727,1.4197913692082058,8.70490039297534
7.368374658,-2.7012359820967515,2.3419633568582037,8.482965326668932
7.373374658,-2.3658558842034245,3.2087966126103034,8.125280341298955
7.378375324,-2.021945676134838,4.029098877835841,7.648491541371799
7.383375357,-1.6771578908396858,4.812324318834107,7.071292272201862
7.388375623,-1.3372240572905176,5.568120044664681,6.413683849904968
7.393375656,-1.0058109666909514,6.305926980081114,5.696256601146827
7.398375656,-0.6845171869881392,7.034637457302791,4.939524637886951
7.403375656,-0.37300671617614617,7.762305789559094,4.163340708239121
7.408375622,-0.06926912396252466,8.495903025219414,3.386408666703932
7.413375622,0.23001124377886523,9.24110353576198,2.625901296782135
7.418375622,0.5290001628558969,10.00208943311012,1.8971812776005512
7.423375655,0.8322002167508421,10.781359274121472,1.2136141112315908
7.428375655,1.1439101110156062,11.579530176117396,0.5864551416451366
7.433374988,1.4676890644983762,12.395127248293381,0.02478974427348487
7.438374321,1.805858576577456,13.224360789335737,-0.46449288764466756
7.443374321,2.1590718373413336,14.060899307035342,-0.8767066669621968
7.448374321,2.5259772321082123,14.895654088816423,-1.2093630750208821
7.453374287,2.902997138143087,15.716597751320862,-1.46215241882483
7.458374287,3.2842369972030467,16.508644054713432,-1.6369051477564514
7.463374287,3.6615329337601032,17.253618683363626,-1.7375229808815746
7.46837432,4.024639326629504,17.93035035329053,-1.7698687479444148
7.47337432,4.36155096271712,18.51490846092646,-1.7416053538979026
7.47837432,4.658947870470429,18.98100770749387,-1.6619775766791403
7.483373153,4.902744812514394,19.30059204344758,-1.5415348906424526
7.488373119,5.078721915716539,19.444600321490537,-1.3917986179721495
7.493373085,5.173208271959233,19.383904778260995,-1.224881960848806
7.498373085,5.173786806211567,19.090401543309177,-1.0530763742422493
7.503373085,5.069986534436129,18.538220548843892,-0.8884216905192894
7.508373118,4.853927775434605,17.70501128287786,-0.742279600806033
7.513373151,4.520887140003985,16.573251550941798,-0.6249298140988875
7.518373184,4.069752237926807,15.131519393715694,-0.5452054189216698
7.523373184,3.5033408146928404,13.375663949256067,-0.5101796678430414
7.528373184,2.8285650586943714,11.309809610915698,-0.5249121708811804
7.53337285,2.0564286680574773,8.947129558644422,-0.5922595326388007
7.53837285,1.2018515766942477,6.310329882036952,-0.7127541152893596
7.54337285,0.2833247507800543,3.4317942224366247,-0.8845544533503299
7.548372883,-0.6775950477026483,0.3533510635690367,-1.1034712263912816
7.553372883,-1.6569334474644546,-2.8743588754327964,-1.363072974936262
7.558372883,-2.6290659835150074,-6.192919882277955,-1.6548753305891184
7.563372849,-3.5675758054991453,-9.537568375297441,-1.9686158434442849
7.568372815,-4.446168254765187,-12.83897483781555,-2.2926130956678046
7.573372781,-5.239606296864716,-16.025325239156153,-2.6142036829241606
7.578372781,-5.924629634933523,-19.024627409257675,-2.920244379271996
7.583373481,-6.480820619866684,-21.767150791389444,-3.197660310014194
7.588374181,-6.891381688629768,-24.18789438356644,-3.434014219261989
7.593374214,-7.1437918747207885,-26.228968828270123,-3.6180677248442743
7.59837478,-7.23031381804565,-27.841775792984343,-3.740303329523734
7.60337478,-7.148327503925847,-28.98887202819837,-3.7933761820920426
7.608374746,-6.900472553223276,-29.6454174062811,-3.7724672599230615
7.613374712,-6.494587315754893,-29.800125863177797,-3.6755148069311607
7.618374712,-5.9434406270219515,-29.455664723235316,-3.5033084578275338
7.623374745,-5.264261340605754,-28.62847961922301,-3.2594401750977466
7.628374778,-4.478081732780768,-27.34805632590549,-2.950117005962923
7.633374778,-3.6089227692698325,-25.65566384576095,-2.5838511900864756
7.638374778,-2.682860282108189,-23.60265166567912,-2.171051582713085
7.643374778,-1.7270193514318468,-21.248395817762116,-1.7235455039825425
7.648374778,-0.7685483068644757,-18.658002133694698,-1.2540617498641375
7.653374778,0.16637648270780084,-15.899880960977486,-0.7757041753756904
7.658374744,1.0534678587537136,-13.043306411253711,-0.3014418919275305
7.663374744,1.8711267731362053,-10.156066057891394,0.15636242594448233
7.668374744,2.6010910790318245,-7.302295113110733,0.5863696698165439
7.673374777,3.2289121255514304,-4.540573724483783,0.9786154424722656
7.678374777,3.7442470969822654,-1.9223483331571225,1.3247884767438316
7.683375077,4.140964830234408,0.5092808487325683,1.6184336828347459
7.688375043,4.417071917568119,2.7203832504975654,1.8550805721439476
7.693375043,4.5744738940459495,4.686627624244097,2.0323004458802396
7.698375043,4.618592973967613,6.393330298109038,2.1496976285374196
7.703375076,4.557868983572345,7.835149163803167,2.2088412205080448
7.708375076,4.4031737556400365,9.015462874367426,2.2131444283491883
7.713375076,4.167171284849403,9.945484164026077,2.167698620813096
7.718375076,3.863656427783885,10.643162597038417,2.0790689946321863
7.723375076,3.5069039516626836,11.13193541543628,1.9550582735504944
7.728375076,3.1110574082165794,11.439385644789219,1.8044443564617432
7.733374709,2.689583781510809,11.595864505420183,1.636697394807374
7.738374675,2.2548153164664146,11.633130826936794,1.4616814993292717
7.743374675,1.8175946045284888,11.583054015769163,1.2893462009477288
7.748374141,1.3870331440099155,11.476419672238288,1.129412929550001
7.753374174,0.9703874851937264,11.341868710697888,0.9910620983296062
7.758374174,0.5730510019518511,11.204992308468407,0.8826268412285476
7.763374174,0.1986535865216785,11.087596668022414,0.8113000072286206
7.76837414,-0.15074359371518964,11.007143840519053,0.782861646329394
7.773374106,-0.4743754992215704,10.976368088371366,0.8014349119748225
7.778374072,-0.772443461781631,11.00306181034695,0.8692790348562778
7.783374072,-1.0457515238139086,11.09002129575513,0.9866287672072739
7.788374105,-1.2953338493817539,11.235140763286108,1.151590357328161
7.793374138,-1.5220988932021828,11.431643024654601,1.3601044015675248
7.798374171,-1.7265153276761713,11.668435822912635,1.6059853315021917
7.803374171,-1.9083622732687735,11.930583377010795,1.8810453035570234
7.808374171,-2.066562094738917,12.199882275191053,2.175306611316049
7.813374137,-2.1991082286555352,12.455529549497657,2.4773016151915446
7.818374137,-2.303093744615527,12.67486885058924,2.774453145197967
7.823374137,-2.3748392396316094,12.834198530730847,3.0535221253845495
7.82837417,-2.410111808463418,12.909623438471296,3.3011034663332373
7.83337417,-2.404420671302096,12.877930432850672,3.504146540927607
7.83837417,-2.3533698462073684,12.717465945018532,3.6504731434495623
7.843374136,-2.253044192520968,12.408992220490559,3.729264170622262
7.848374102,-2.1004024206346137,11.936497193405874,3.731486951455356
7.853374068,-1.8936495613328193,11.287931512998476,3.650238711730887
7.858374068,-1.6325622299260938,10.455845409931754,3.4809881785169816
7.863374068,-1.3187429668593469,9.437898218848536,3.2217062433918633
7.868374101,-0.9557848433429245,8.237214827753396,2.8728866662683514
7.873374134,-0.5493338885422964,6.862566451726591,2.4374673266947484
7.878374167,-0.10704397004057255,5.328358146510122,1.9206699232420814
7.8833745,0.3615742471615337,3.654412317566203,1.3297803611958667
7.8883745,0.8454023609253678,1.8655457235166288,0.6738932311867046
7.893374466,1.3320482880809354,-0.009053539833576017,-0.036357911268006436
7.898374466,1.8082486154374877,-1.9366335625738615,-0.7890668616560065
7.903374466,2.260320419244026,-3.881846616417945,-1.5713059432506267
7.908374499,2.674642956052446,-5.8078457746383165,-2.369356839237641
7.913374499,3.0381497145294856,-7.677471138823037,-3.168921696529208
7.918374499,3.3388117437532827,-9.454480200361543,-3.9553192414989224
7.923374499,3.5660937177287497,-11.104771638250037,-4.71367287038218
7.928374499,3.7113649710194236,-12.597548679614889,-5.429098374689619
7.933376265,3.768248985403124,-13.906367800439883,-6.0868986520768695
7.938375765,3.732896681681773,-15.010021534085581,-6.672771855937694
7.943375765,3.6041713893082448,-15.893210666391822,-7.173038221685845
7.948375765,3.383736456801908,-16.546970936595372,-7.574889373333545
7.953375798,3.076040046771506,-16.968831959226716,-7.866662187895284
7.958375798,2.6881956529357174,-17.162700548009024,-8.038137097045881
7.963375798,2.229761164440635,-17.13847588065992,-8.080857873106456
7.968375764,1.7124236963754407,-16.911418839884767,-7.988466433165803
7.973375764,1.149601654980155,-16.501311275777233,-7.757042089149413
7.978375764,0.5559793373768847,-15.931451878041651,-7.385430214123753
7.983375797,-0.053007464145938876,-15.227543105098825,-6.875540936374601
7.98837583,-0.6617140373755175,-14.416527800874958,-6.232594858488367
7.99337583,-1.2548352437642605,-13.525434667986344,-5.465290619587202
7.99837583,-1.8179371449238282,-12.580288855340132,-4.585868926258586
8.00337583,-2.3379493715854296,-11.605137959762413,-3.610049786916089
8.00837583,-2.803597145797203,-10.62123528169177,-2.556824176280522
8.01337583,-3.2057540474203874,-9.646411860751131,-1.4480881219019317
8.018375796,-3.5376996396872142,-8.694657346493726,-0.3081159899297522
8.023375796,-3.79526990015519,-7.775917829569215,0.8371198172436661
8.028375796,-3.9768929967486697,-6.896107026029364,1.9607639672703785
8.033375829,-4.0835082081060685,-6.0573162776415455,3.035997362676395
8.038375829,-4.118371524995709,-5.2581992559197,4.037018304289883
8.043375829,-4.086757400561994,-4.494499515357144,4.940034175804602
8.048375795,-3.9955718958660955,-3.759683472430155,5.724205962863715
8.053375761,-3.8528977067366625,-3.0456381143552855,6.372486168404786
8.058375727,-3.6674958152655988,-2.343391664727473,6.872294414674299
8.063375727,-3.4482912983775282,-1.6438163428971104,7.215984690120436
8.06837576,-3.2038717312952074,-0.9382750860674516,7.401073283982513
8.073375793,-2.9420254812892197,-0.2191785997154739,7.430215251013402
8.078375826,-2.669344193420561,0.5195746566617425,7.31093716271538
8.083374059,-2.390909421134377,1.2822950689965762,7.0551521630799465
8.088374525,-2.1100782587948026,2.071345377642144,6.67849779585356
8.093374491,-1.8283775115046133,2.8871314059002553,6.19954650995388
8.098374491,-1.5455107019791798,3.7282301193517995,5.638942857441043
8.103374491,-1.259477174052244,4.591635434787817,5.018520489198711
8.108374524,-0.9667977213847964,5.473093710046715,4.360446878223712
8.113374557,-0.6628365766735926,6.3674942146740925,3.6864352583405893
8.118374557,-0.3422053258267361,7.269275645609988,3.0170526298142084
8.123374523,0.000769512994782516,8.172808297167403,2.371140923473374
8.128374489,0.3715367562773726,9.072713036403654,1.765356644177561
8.133374055,0.7747927431089867,9.964082826482693,1.213823791080559
8.138374021,1.2139612740038608,10.84258008962773,0.7278870600408868
8.143374421,1.6907078915980378,11.704393446177294,0.31594878098938795
8.148374454,2.204514634745955,12.54604974499871,-0.016625489824152944
8.15337382,2.7523395781116085,13.364090814468947,-0.2675421381879033
8.158372953,3.3283823645644763,14.154637668478138,-0.4375573569405335
8.163372053,3.9239728105631766,14.912876647558413,-0.5303931050222351
8.168371386,4.527594821262607,15.632511120549097,-0.5525828182819813
8.173370452,5.125052523029812,16.305228284478762,-0.5132381448506663
8.178369552,5.699779844819465,16.920232991757192,-0.4237305482047582
8.183368785,6.2332888561163475,17.463899366507782,-0.2972863306644196
8.188368151,6.7057461199550605,17.919586384803704,-0.14849963741096334
8.193368151,7.096660318445079,18.26765585827237,0.007225401173723319
8.198368151,7.385658675996664,18.485720767362373,0.15428562496774528
8.203368151,7.55332449297739,18.549139155199715,0.2775190556226856
8.208368151,7.582063687149319,18.43175446745018,0.3628455946000968
8.213368151,7.456964942408816,18.106868094013794,0.3978765350380497
8.218368117,7.166616234712014,17.548414804589278,0.37246138855922134
8.22336745,6.703840415914092,16.732297606880373,0.2791443492861472
8.22836745,6.066314238879196,15.63782597724189,0.11350948068807255
8.233367483,5.257038522529095,14.24919095818926,-0.1255984089933616
8.238367516,4.284631819837291,12.55690279532035,-0.435983024187163
8.243367516,3.1634257474447263,10.559112151681077,-0.8121360911608717
8.248367482,1.913346907465118,8.262735042485177,-1.245403041349282
8.253367448,0.5595779558962558,5.684304924324693,-1.7242677593741382
8.258367448,-0.8680012746590167,2.8504830970065376,-2.2347470131488545
8.263367048,-2.335582779621917,-0.20182929953415152,-2.760883241832902
8.268367081,-3.806390517807348,-3.425818244592599,-3.2853223220443084
8.273367081,-5.241803660624605,-6.765543756002456,-3.7899603358130523
8.278367081,-6.602606563356038,-10.157185702612816,-4.256639938131938
8.283367481,-7.850321772129714,-13.530723794812593,-4.667872733003566
8.288367481,-8.948576493172371,-16.81200282174226,-5.007559670832996
8.293367081,-9.864448727099948,-19.925110566981477,-5.261677806614083
8.298367047,-10.569736953326494,-22.794974119829497,-5.418899760958478
8.303367713,-11.042097086439245,-25.350062015393718,-5.47111253978036
8.308368613,-11.265992644891458,-27.525066375168414,-5.413805215954802
8.313369546,-11.23340884178123,-29.263432556561263,-5.246300311391211
8.318370212,-10.944288738724781,-30.51960513866273,-4.971811370581079
8.323371112,-10.40665979749301,-31.2608692549317,-4.597318875251357
8.328371978,-9.636432225487937,-31.46868540166386,-4.133267753054591
8.333372844,-8.656866422314328,-31.139443035950606,-3.593101414986429
8.33837351,-7.497725139023178,-30.284591726748292,-2.9926583954773975
8.343373543,-6.194145369462559,-28.930145595742474,-2.349467024358784
8.348373543,-4.785283282173705,-27.115593751165747,-1.681979972124593
8.353373543,-3.312800095898126,-24.892282681246606,-1.0087931746128038
8.358373543,-1.8192658004689275,-22.321363205506483,-0.3478923683661623
8.363373543,-0.34656044734697633,-19.471413038158374,0.284034259133492
8.368373543,1.0656500811133467,-16.415856065898943,0.8721860141577746
8.373374176,2.381294346746893,-13.230301681852607,1.4041195373041913
8.378374142,3.5690731700099914,-9.989922975042271,1.8700848190975294
8.383374142,4.603389937574613,-6.7669824869836015,2.2632222802794275
8.388374142,5.465003257669229,-3.6285999055390366,2.5796235418032385
8.393374175,6.141387167809658,-0.6348387008248786,2.8182650734562027
8.398374175,6.626799029173329,2.162830554974437,2.980829156920473
8.403374175,6.9220690341208835,4.722652570284034,3.0714304744283263
8.408374141,7.034137336085367,7.013277849056928,3.096269138186167
8.413374541,6.9753747518425735,9.014022865453777,3.063232147885442
8.418374541,6.762730499515271,10.71471883366244,2.9814651818983324
8.423374574,6.41675538044256,12.115183129641323,2.860935424081271
8.428374574,5.960551174071587,13.224359827610083,2.712004002542481
8.433374574,5.418696882088159,14.059185247847344,2.5450238246426187
8.438374574,4.816200013350415,14.643240778729213,2.369975406827978
8.443374574,4.177516612630891,15.005258579838179,2.196149971261262
8.448374574,3.525677544591012,15.177546257197257,2.0318858217022076
8.45337454,2.8815510425810866,15.194394491610698,1.8843609731484647
8.45837454,2.2632631440687287,15.090527245556762,1.7594423012897922
8.46337454,1.6857888013209104,14.899647974523019,1.6615891739207012
8.468373906,1.1607176164840065,14.653127650608239,1.5938076742990943
8.473373906,0.6961897208320731,14.378871820857235,1.5576501538688576
8.478373639,0.29698967652443936,14.100394880442037,1.553254001953766
8.483373505,-0.035220252786142645,13.836120810488584,1.5794132747852787
8.488373471,-0.30155130680355874,13.59892132665213,1.6336772450242942
8.493373471,-0.505451481708729,13.395894985070228,1.7124709372743308
8.498373504,-0.6522106288701529,13.228384249335049,1.8112340527966106
8.503373537,-0.7484378944904571,13.092221557358073,1.9245760252292476
8.508373537,-0.8015411498388048,12.978189729678363,2.0464459910013946
8.513373537,-0.8192357028388176,12.872676453817157,2.1703169749216475
8.518373537,-0.8091058281810682,12.758497076854725,2.2893834012595344
8.523373537,-0.7782377174540336,12.615854703775026,2.396770020556334
8.528373537,-0.7329366415831787,12.423401871751713,2.4857485066144567
8.533373203,-0.6785348479404454,12.159364116001036,2.5499555433824317
8.538373203,-0.619290470436181,11.802682825637062,2.58360357326513
8.543373203,-0.5583719821175606,11.334133145883134,2.581672972418319
8.548373236,-0.49791781630898124,10.737372480274383,2.5400727308323643
8.553373236,-0.43915691275130136,9.999876425825368,2.455756277690184
8.558373236,-0.38257321145581497,9.113721721239258,2.3267805146483935
8.563373202,-0.32809569320529464,8.076180131371316,2.152299953589414
8.568373168,-0.27529574340652335,6.890093451149775,1.9324942710719362
8.573373134,-0.22357558598355035,5.564008195360558,1.668435994113812
8.578373134,-0.1723350830783033,4.112058816589787,1.3619139394100346
8.583373167,-0.12110864957515936,2.553599861165843,1.015235499134307
8.5883732,-0.06966851608534934,0.9125996255050987,0.6310352810482838
8.593373233,-0.018094377589258262,-0.7831801165608858,0.21211817202778185
8.598373233,0.03318778709388807,-2.5031827010337735,-0.2386384919745666
8.603373233,0.08339335646998684,-4.215188669109777,-0.7183060531972079
8.608373199,0.13138835365270982,-5.8865299354343925,-1.2238415002876475
8.613373165,0.17571608803662642,-7.485330695326871,-1.751944500285526
8.618373831,0.21463799214633814,-8.981718157243872,-2.298849650971183
8.623373864,0.24618677440364964,-10.348946530213729,-2.8600773961631916
8.628374164,0.2682310322470019,-11.564380195149965,-3.4301721782172443
8.633374164,0.27855096650367295,-12.610287367191118,-4.002458896650892
8.638374164,0.2749246627156563,-13.474404336371565,-4.5688490185963335
8.64337413,0.2552235516139223,-14.150242341304102,-5.11972562766591
8.648374096,0.21751430055076743,-14.6371232994526,-5.643932145796152
8.653374062,0.16016286511045685,-14.939945658334976,-6.1288827873075995
8.658374062,0.08193516401635587,-15.06869640752561,-6.560804821939738
8.663374095,-0.017911826999132494,-15.037739022964347,-6.925114151968766
8.668374128,-0.13955468272701577,-14.864919134935851,-7.2069168438129525
8.673374161,-0.2825491729393719,-14.570539254146867,-7.391620163203128
8.678374161,-0.44580096575983785,-14.176260212197725,-7.465627565141255
8.683374461,-0.6275637620782191,-13.703989603412136,-7.417083534730749
8.688374427,-0.8254654183607767,-13.174816374521583,-7.236626944004582
8.693374427,-1.0365607972382591,-12.608046060152857,-6.918106497828003
8.698374427,-1.2574084121468774,-12.020383514675734,-6.459209580814024
8.70337446,-1.4841665020169978,-11.425300010533867,-5.861956864679065
8.70837446,-1.7127030194707724,-10.832610000413155,-5.133019599193705
8.71337446,-1.9387131557523258,-10.248270421010433,-4.283824504901753
8.71837446,-2.157837504137295,-9.67440285132906,-3.330422258926699
8.72337446,-2.3657738661997585,-9.109526767945198,-2.2931091548868494
8.72837446,-2.5583761178145354,-8.548981155561927,-1.1958069024774842
8.733374226,-2.7317345127543726,-7.985502399755772,-0.06522182803429359
8.738374192,-2.8822332837512814,-7.409919236763976,1.070179114710679
8.743374192,-3.0065833285232966,-6.811920981695795,2.1813232933497466
8.748373358,-3.1018300378592123,-6.180853523679085,3.2397537557138216
8.753373391,-3.1653387897536165,-5.506498622579035,4.21884372450599
8.758373391,-3.194763076646124,-4.779795538658249,5.094926904800382
8.763373391,-3.1880023229610623,-3.9934693923675737,5.848268161445381
8.768373357,-3.1431577607320507,-3.1425371792689254,6.463808284997857
8.773373323,-3.058494863296882,-2.2246694448184807,6.931633758518739
8.778373289,-2.9324196704305727,-1.2403929563909009,7.2471466574694015
8.783373289,-2.76347421704309,-0.19312736088027846,7.410937703740341
8.788373322,-2.5503538912023482,0.9109429717517564,7.428392221777967
8.793373355,-2.2919475497867765,2.0631518619361384,7.3090799230514145
8.798373388,-1.9873999092997543,3.252769751624995,7.065992596888222
8.803373388,-1.6361950058563586,4.467529602952051,6.714698521279999
8.808373388,-1.2382590615110531,5.694224627129331,6.27247975470317
8.813373354,-0.794080576275759,6.919336616437892,5.757510076082836
8.818373354,-0.30484468068425197,8.129650619559449,5.188118908975792
8.823373354,0.22742232941210438,9.312811537125596,4.5821716456633705
8.828373387,0.7997037513348346,10.457781011783954,3.9565808105653013
8.833373387,1.4078455787952395,11.555158675030917,3.3269469340580526
8.838373387,2.046420620915463,12.59734024601083,2.707314574204732
8.843373353,2.7086137990930683,13.578495994712599,2.110019759725721
8.848373319,3.3861398954944604,14.494366379444566,1.5456021919594742
8.853373285,4.069205445201567,15.34188646707626,1.0227591760779946
8.858373285,4.746525946241413,16.11866562799163,0.5483262885689446
8.863373285,5.4054080783280885,16.82236225617745,0.12727863122109503
8.868373318,6.0319043309338936,17.45000348871078,-0.23724673809014837
8.873373351,6.611044536504446,17.99730629615819,-0.5439030643854237
8.878373384,7.127145409684369,18.458058632285727,-0.7930560350481465
8.883373584,7.5641953878152615,18.823617639105002,-0.9866723290573421
8.888373584,7.906307953681656,19.082576458903567,-1.1281736425034952
8.89337355,8.13823235805532,19.220642401625916,-1.2222583613224445
8.898374416,8.245906460001404,19.220757571236533,-1.2746962194768001
8.903374416,8.21703251835864,19.06347920967454,-1.2921039998742094
8.908374449,8.041653484581545,18.72762172565609,-1.2817119773446448
8.913374449,7.712704982002449,18.191146457915224,-1.2511307148854862
8.918374449,7.226517002463537,17.432269484797658,-1.2081257327563641
8.923374449,6.583239572328754,16.43074296531296,-1.1604040032794143
8.928374449,5.787168209796915,15.169252245578933,-1.1154124121774636
8.933376215,4.846947751450653,13.634859950112917,-1.080145536023216
8.938376181,3.7756368818022867,11.820420191238476,-1.0609590176234367
8.943376181,2.5906203160064565,9.725881549449728,-1.063385547516874
8.948376181,1.3133609687142433,7.359397168134811,-1.0919526848484429
8.953376214,-0.031009503057352117,4.738164520018167,-1.150005034842683
8.958376214,-1.4142568135891722,1.8889262068712478,-1.239537128725209
8.963376214,-2.805754969563541,-1.1519236980046519,-1.361047141789743
8.96837618,-4.173323283581853,-4.33866629061862,-1.5134247009579664
8.97337618,-5.484164272947889,-7.617035930841154,-1.6938878321356647
8.97837618,-6.705871477832639,-10.925445958850688,-1.8979840084241129
8.983376213,-7.807471534284145,-14.196634601182724,-2.119667913009607
8.988376246,-8.760461476613527,-17.359679822242445,-2.3514639172485645
8.993376246,-9.539800430724108,-20.342309106249264,-2.5847148386703167
8.998376246,-10.124814724506702,-23.073409824152044,-2.809911100451497
9.003376246,-10.499977042298715,-25.485629427625867,-3.017086921613855
9.008376246,-10.65552360645854,-27.5179436479991,-3.196263506175872
9.013376246,-10.587878486659982,-29.118066378155955,-3.337914083309575
9.018376212,-10.299860984658583,-30.24457781532307,-3.4334226218445125
9.023376212,-9.800660452475544,-30.868658066007054,-3.475507442086221
9.028376212,-9.105572524028737,-30.975331519602587,-3.4585828694736747
9.033376245,-8.235501169476324,-30.564152094813974,-3.3790363827915373
9.038376245,-7.216241942058289,-29.649289604560284,-3.2354050780876715
9.043376245,-6.077573049432782,-28.25901097051649,-3.028443130276839
9.048376211,-4.8521918827056005,-26.434584177126975,-2.7610803960543744
9.053376177,-3.5745442368252256,-24.228664635240836,-2.4382802359778264
9.058376143,-2.2796002444390897,-21.703250221012365,-2.0668109985716576
9.063376143,-1.0016340046496937,-18.927310760137697,-1.6549497981152517
9.068376176,0.22693720312644422,-15.974209407392685,-1.2121391633866352
9.073376209,1.376602938482682,-12.919037451958374,-0.7486171483802129
9.078376242,2.4216552699816773,-9.835981328952629,-0.27504003955553974
9.083374475,3.3408962102204,-6.7958320475341845,0.19788566013766348
9.088374108,4.118134038220387,-3.8637339852454646,0.6597483111041987
9.093374074,4.742457198143741,-1.0972532471145184,1.1007428383897044
9.098374074,5.208285901481526,1.4551732438312548,1.5119417337059757
9.103374074,5.515212263622046,3.755366926128625,1.8855208688335119
9.108374107,5.667649257689289,5.776094324020747,2.214938068373407
9.11337414,5.674316550376304,7.501310065852882,2.4950643882213575
9.11837414,5.547597098862926,8.925972861602995,2.722269583904899
9.123374106,5.302802078181198,10.055466854717851,2.8944643236747853
9.128374072,4.957383259321735,10.904673906649693,3.011102328102403
9.133373638,4.5301314770866545,11.4967526200696,3.0731458608074944
9.138373604,4.04039751452481,11.861687112262466,3.0829979384171344
9.143373604,3.5073678534115813,12.034672705665306,3.044404361593836
9.148373637,2.9494226002904016,12.054406937701255,2.9623282755115476
9.153373003,2.383596816329685,11.961352860637284,2.8427995233326864
9.158372136,1.8251597911912367,11.79603784584836,2.6927406391167534
9.163371236,1.287319855092267,11.597445413944065,2.5197710302333745
9.168370569,0.7810554752955146,11.401550391861592,2.3319908283824433
9.173370535,0.3150669726673188,11.240039370488516,2.137746136201638
9.178369868,-0.10416248712219188,11.13924942727238,1.9453780160012357
9.183368968,-0.47221269624685025,11.119348804887029,1.7629585561651848
9.188368101,-0.7864986671083637,11.193774074739176,1.598018655550342
9.193367434,-1.045991375288823,11.368929549558393,1.4572736868943077
9.198367434,-1.2509100437155765,11.644146514487998,1.3463547899509254
9.203366767,-1.4024087226726558,12.011892297176358,1.2695550204478474
9.2083661,-1.5022782874342095,12.458212322863616,1.2296007545225855
9.2133661,-1.5526821055410926,12.963382128863541,1.2274594602249944
9.218366066,-1.5559397068041922,13.502740917646545,1.2621950802308004
9.223365666,-1.5143681305769787,14.047673796661261,1.3308817763522005
9.228365399,-1.4301856611669166,14.566706752077804,1.428585730609826
9.233365432,-1.305477883766791,15.026677072674525,1.5484231862232687
9.238364932,-1.1422217950126474,15.393942529779636,1.6817009020064386
9.243364932,-0.9423602629808061,15.635594665271011,1.8181424391471515
9.248364898,-0.7079164425102414,15.720644105358959,1.9461999975996624
9.253364864,-0.44113575483218115,15.621148044009475,2.053446974421143
9.258364464,-0.14464172861221572,15.313251579891366,2.127041397990469
9.263364464,0.1784085883974568,14.7781156098521,2.154245295880065
9.268364497,0.524183771862497,14.002704891531957,2.122980193500276
9.273364497,0.8880649165834115,12.980411144219929,2.0223946875654764
9.278364497,1.2645717879451392,11.711488120131337,1.843416986408632
9.283364897,1.6473372516779219,10.203278875375183,1.5792641586878218
9.288364897,2.0291358032926916,8.470220273824017,1.2258810536841347
9.293364897,2.401968315052948,6.533616095903375,0.7822854633163219
9.298364863,2.7572012802519295,4.421177809093798,0.25080163769829444
9.303365529,3.085755254789677,2.166340738118003,-0.36282908185503937
9.308366429,3.3783341550562787,-0.19262743009938316,-1.0494650006504895
9.313367362,3.625684739234848,-2.613699726117605,-1.7967067368160334
9.318368028,3.8188741574148986,-5.0523099869853105,-2.5891598256050727
9.323368028,3.949573094406822,-7.462678074628112,-3.408808180485007
9.328368661,4.0103327422455,-9.799192567334492,-4.235487230427428
9.333369527,3.99484531516533,-12.017799159461886,-5.047443705892664
9.338370427,3.8981796337703236,-14.077340749323485,-5.821966969501773
9.343371127,3.716985172086066,-15.94079519250013,-6.536074514838214
9.348371127,3.4496597555853863,-17.576359398647696,-7.167232100736597
9.353371793,3.0964777197133557,-18.958334090089327,-7.694087212980282
9.358372459,2.659676639454851,-20.06777204022913,-8.097193265265775
9.363372459,2.143501565558018,-20.892863606723708,-8.359701191181571
9.368372459,1.554205971030136,-21.429046269904745,-8.467994857312943
9.373372825,0.9000083852786309,-21.678838891448574,-8.412247112174988
9.378373058,0.19100319297372342,-21.651415592408085,-8.186874405014645
9.383373058,-0.5609763878475621,-21.361947486707184,-7.7908699222856015
9.388373958,-1.342545259696945,-20.830751923146803,-7.227998213518786
9.393373991,-2.1390050159106453,-20.082297400701783,-6.506838266499022
9.398373991,-2.9346347088247335,-19.14411728085567,-5.640666681098316
9.403373991,-3.7130325713085663,-18.045686731685922,-4.64717764577994
9.408374357,-4.457504926138915,-16.81731540273735,-3.548041673710572
9.413374323,-5.1514954209687405,-15.48910374086807,-2.368310565438191
9.418374289,-5.779044261226595,-14.090004143486116,-1.1356819485004768
9.423374289,-6.325263552942472,-12.64701974740183,0.1203569801402582
9.428374322,-6.776811538235442,-11.184564048663619,1.3694803184653068
9.433374355,-7.122345774253444,-9.723994366940873,2.5815361103677628
9.438374388,-7.352933546059277,-8.283322159707335,3.727581658108897
9.443374388,-7.462397348060608,-6.877094086394225,4.7808969825953245
9.448374388,-7.4475743640212055,-5.516430048793761,5.717928204295134
9.453374354,-7.308471657493056,-4.209198425819665,6.51911144525597
9.458374354,-7.048303251896093,-2.9603043458184217,7.169530154139825
9.463374354,-6.673401241936146,-1.7720639010054025,7.659365424931804
9.468374387,-6.193000085200902,-0.6446354775972537,7.984110441260598
9.473374387,-5.618900578834447,0.4235212691511903,8.144536228623451
9.478374387,-4.965026971215581,1.4351877370976367,8.146414669727292
9.483374387,-4.246896618860196,2.3939569827345637,8.000023365692336
9.488374353,-3.4810262990602028,3.3038560061824023,7.719472492085822
9.493374319,-2.6843026699901786,4.16903795457356,7.321904423842685
9.498374319,-1.873346448616568,4.9935561135634,6.826622015077187
9.503374319,-1.0639006537297615,5.781224430199478,6.254201284794635
9.508374352,-0.2702726862593721,6.535561837851559,5.625639503205041
9.513374385,0.49514198903452455,7.25981024780791,4.961581171997013
9.518374418,1.2222302756139698,7.957009243990557,4.281653294422346
9.523374418,1.903406588311459,8.63010486084905,3.6039289315403678
9.528374418,2.533719410650634,9.282065907646667,2.944525570744253
9.533374084,3.1108130460842554,9.915979576607686,2.317333377424813
9.538374084,3.634746096821627,10.535098829276317,1.7338589598163634
9.543374084,4.107676283977623,11.142817399201235,1.203163789075333
9.548374117,4.533429157975136,11.742554077923055,0.7318736030473714
9.553374117,4.916975411616901,12.337535954571576,0.3242362009178267
9.558374117,5.263847209360622,12.930479945721261,-0.01779048686084073
9.563374117,5.5795276511216345,13.523182569849636,-0.2944314691298551
9.568374117,5.86884900472134,14.116038576542852,-0.5079729949934003
9.573374117,6.1354348033585815,14.70751869007813,-0.6626238257410764
9.578374083,6.381218602518307,15.293644391952526,-0.764353011675131
9.583374083,6.606068400149778,15.867502655648943,-0.8206961187374531
9.588374083,6.807540649627723,16.41884552851086,-0.8405227179319884
9.593374116,6.98078160830403,16.93381837310242,-0.833760736117305
9.598374116,7.118586665073327,17.394856532933286,-0.8110773086911016
9.603374116,7.211620539852128,17.78078337528258,-0.7835204451483282
9.608374082,7.24879316519178,18.0671333933685,-0.762130547085177
9.613374048,7.217778000863258,18.226712756022525,-0.7575350076933629
9.618374014,7.105651872811073,18.230396941858487,-0.7795420796911207
9.623374014,6.899628555610412,18.04815154333931,-0.8367512879191428
9.628374014,6.587852602000702,17.650248642220244,-0.9361966993548373
9.633374047,6.160215665842963,17.00863796530048,-1.0830368892750761
9.63837408,5.60915496423656,16.098419927843388,-1.2803024615674576
9.643374113,4.930392685875296,14.899357295241984,-1.5287093410692794
9.648374113,4.123576127579071,13.397354218484868,-1.8265440890125204
9.653374113,3.1927811564066455,11.585826486215613,-2.1696261302251636
9.658374079,2.146846249364792,9.466885551985222,-2.5513508020771702
9.663374079,0.9995107896010026,7.052261648862034,-2.962816281256306
9.668374079,-0.23066067593637224,4.36389829516615,-3.3930364344225197
9.673374112,-1.5205771826336454,1.434161667746486,-3.8292401845811606
9.678374112,-2.8431418519070766,-1.6943766847835753,-4.257255792865315
9.683374412,-4.167982359250954,-4.969607154667161,-4.661975215464314
9.688374378,-5.462369297143279,-8.331002293590693,-5.0278891806125925
9.693374344,-6.692290881880148,-11.71117084369085,-5.339677950021852
9.69837431,-7.823644120372613,-15.037803791670488,-5.5828364969408115
9.70337431,-8.823495619039305,-18.235948088672828,-5.744307013744763
9.708374343,-9.66135995534237,-21.230522360838975,-5.813087225046038
9.713374376,-10.310440270795079,-23.948970286038417,-5.780780652796437
9.718374409,-10.748774786639325,-26.32393291137569,-5.642055161127313
9.723374409,-10.960234462398567,-28.295812590892496,-5.394978903334986
9.728374409,-10.935321009176636,-29.81509976873741,-5.041208088517555
9.733374142,-10.671720849463636,-30.844340417663922,-4.586008578515364
9.738374108,-10.174579424874267,-31.35963683898729,-4.03810299023094
9.743374108,-9.456471755247547,-31.35159730861311,-3.4093463522891105
9.748374141,-8.537059568440261,-30.825679602095477,-2.7142457034726992
9.753374174,-7.442442290423739,-29.801907939946965,-1.9693510418997628
9.758374174,-6.204227383973178,-28.313979747791777,-1.1925550940406813
9.763374174,-4.858362824168574,-26.40781443828675,-0.40234595930895234
9.768374174,-3.4437887021410254,-24.139627589688693,0.3829410498865113
9.773374174,-2.000974619398114,-21.573637597568336,1.1458280853715772
9.778374174,-0.570414296436638,-18.779526782350402,1.870317307498326
9.78337414,0.8088510127869212,-15.829785100630142,2.5424009027742542
9.78837414,2.1006126126956675,-12.797062875860354,3.1504380286544387
9.79337414,3.272717690899412,-9.75165049399938,3.685388602581973
9.798374173,4.298085873370028,-6.759189090474536,4.140904060056686
9.803374173,5.155481362406424,-3.878698243631064,4.5132844261768925
9.808374173,5.830016620683384,-1.1609859606649604,4.801318698138321
9.813374139,6.313377622490323,1.352515883225055,5.006031222898347
9.818374105,6.603774452396308,3.630469805671826,5.130360289374769
9.823374071,6.705633825923805,5.651905275095311,5.1787965632828765
9.828374071,6.629061361257565,7.406065838323398,5.157008446996941
9.833374104,6.389110676107686,8.891868264508632,5.071479195873381
9.838374137,6.0049032720737126,10.117025263827875,4.929176966309732
9.84337417,5.498647493381204,11.096894002793812,4.7372742529432905
9.84837417,4.894606552135693,11.853119638563392,4.502927755197854
9.85337417,4.218064782634035,12.412146389374225,4.233123955220759
9.85837377,3.49433812440528,12.803668378490418,3.9345899481533686
9.863373736,2.7478696395313875,13.059088934007528,3.613763704663372
9.868373736,2.001444028699284,13.210050636248512,3.276813307258866
9.873373769,1.2755470573260006,13.287089718483099,2.9296910655759425
9.878373802,0.587886989242988,13.318458050981537,2.578205976093522
9.883374035,-0.046913999512685524,13.329144515224845,2.228096867149385
9.888374035,-0.6174594427449293,13.340115745254622,1.8850888192244908
9.893374001,-1.1155586654449419,13.367784566004545,1.554917071943801
9.898373967,-1.5360641515485904,13.423703493370704,1.2433055481712356
9.903373933,-1.8765890614341323,13.514470782105457,0.9558911809652285
9.908373933,-2.13713216778508,13.64182804392244,0.6980901769786017
9.913373966,-2.3196401192426532,13.802921694768452,0.4749078852837927
9.918373999,-2.427537835941102,13.990695753437521,0.2906997351663679
9.923374032,-2.465257161622944,14.19438129965299,0.1488964322865627
9.928374032,-2.4377918992569674,14.400048836056465,0.05171186670352282
9.933374232,-2.3503042485939676,14.591194245946193,-0.00014361467021767012
9.938374198,-2.20780354712259,14.749336567202256,-0.007719565718883945
9.943374198,-2.014913170468902,14.854615025625321,0.02597350767209261
9.948374198,-1.7757356310551784,14.886381715727639,0.09584087089575045
9.953374231,-1.4938195703232415,14.823793114881319,0.1946762223841554
9.958374231,-1.1722257721573175,14.646407118062827,0.31324301582340136
9.963374231,-0.8136828630805109,14.334792271285346,0.44047110082856095
9.968374231,-0.4208173474480749,13.871152865495826,0.5637689577877698
9.973374231,0.0035625974342755463,13.239968363614008,0.6694453020181538
9.978374231,0.4561542055226907,12.428639133813546,0.7432273832407196
9.983374197,0.9328452683335849,11.428123384013332,0.7708570914110539
9.988374163,1.428425245145693,10.233543153053096,0.738740310007498
9.993374163,1.9363489826972426,8.844730901859231,0.6346203759390495
9.998374196,2.4485765635985848,7.266683563558541,0.44824365505386865
10.00337423,2.9555081713434928,5.509888818366928,0.1719845419340553
10.0083746,3.446027193828945,3.590489515577888,-0.19860139172618604
10.0133746,3.9076584689048675,1.5302566540024487,-0.6643243015549161
10.01837443,4.32684185394458,-0.6436512678234426,-1.2220311276594822
10.02337439,4.689314409897037,-2.8991550039939225,-1.864420252043117
10.02837436,4.980587754267059,-5.199948383416181,-2.5800141561326475
10.03337436,5.186500957050394,-7.506407381096764,-3.3532989780555744
10.03837439,5.293824111545366,-9.776689195124275,-4.165033865860327
10.04337443,5.29088370742115,-11.967982894658457,-4.992726616645814
10.04837446,5.168178375853296,-14.037861289847,-5.811265548908706
10.05337506,4.918952610632298,-15.945674157980745,-6.5936912216310795
10.05837506,4.539696782029803,-17.653916889976475,-7.3120857902771945
10.06337503,4.030544161454141,-19.129506814106303,-7.938552632760861
10.06837502,3.395539696620049,-20.34490237338284,-8.446254370155701
10.07337502,2.6427608027809177,-21.279008017542072,-8.810473457477741
10.07837506,1.7842772909519773,-21.9178196837425,-9.00965614078086
10.08337486,0.835945433191085,-22.25478114780975,-9.026397981203246
10.08837486,-0.18296041872821564,-22.290838949378017,-8.848327721287314
10.09337482,-1.250266905517466,-22.034201366911553,-8.468846470977422
10.09837479,-2.3415520177953906,-21.499823362170655,-7.88768141336652
10.10337476,-3.4309008614634995,-20.708653136518077,-7.111217694985297
10.10837476,-4.491735963115529,-19.68668609158644,-6.152578914243555
10.11337409,-5.497687864598786,-18.463878320710243,-5.031435585943872
10.11837412,-6.423469992565349,-17.07297448625584,-3.773531998265983
10.12337416,-7.245721608092635,-15.548304492220684,-2.409934734420394
10.12837419,-7.943783988714475,-13.924600247286616,-0.9760203541811199
10.13337382,-8.500377793510403,-12.23587858362752,0.489765364338869
10.13837382,-8.902153693810906,-10.51442965231709,1.9473295219929427
10.14337379,-9.140093651661747,-8.78994246597688,3.3564749325277545
10.14837312,-9.209746487697162,-7.088791231731976,4.678491790673421
10.15337245,-9.111288372338706,-5.433498079745057,5.877718166213825
10.15837159,-8.849406386602874,-3.8423799325033685,6.922985467154229
10.16337092,-8.433011137602955,-2.3293796405575966,7.7888666207903
10.16837015,-7.8747923294948325,-0.9040741708786681,8.456652941556234
10.17336925,-7.190638759677961,0.42815430065934895,8.915001103892124
10.17836859,-6.398950817883218,1.6658047861928953,9.160213715865208
10.18336792,-5.519878582983463,2.8108268720979686,9.196143454231938
10.18836698,-4.574521644259652,3.8681020468847014,9.033738017478415
10.19336608,-3.5841277664993143,4.844867331270349,8.690267574072543
10.19836542,-2.5693266646036044,5.750110842768768,8.188295329722655
10.20336485,-1.5494327218209811,6.593966296555244,7.554464212985528
10.20836445,-0.541846708964432,7.387129351545659,6.818178395889744
10.21336445,0.4384183698376675,8.140313639987975,6.010257768217933
10.21836442,1.3790680758126825,8.863758709719207,5.161637209140792
10.22336438,2.27070140168822,9.566796381535065,4.302171584591566
10.22836435,3.1068243196478194,10.257476648703399,3.4595932277226678
10.23336435,3.8837041452621466,10.942249734787334,2.6586527760621395
10.23836345,4.600074510162076,11.625697769138622,1.9204582928713378
10.24336348,5.256708366181774,12.310308146327614,1.2620134308404123
10.24836351,5.85588381148918,12.996281276977898,0.6959447959489139
10.25336355,6.400774173316967,13.681368113547773,0.23040260010392402
10.25836355,6.894799004120091,14.36073714051899,-0.13088337857580046
10.26336421,7.3409757866227965,15.026875669020539,-0.38841028240427466
10.26836418,7.741312870083493,15.669535321598824,-0.5465881303399999
10.27336418,8.096282505664394,16.27573567821297,-0.6133220901291
10.27836418,8.404409030233055,16.829842577601703,-0.5995085569542976
10.28336458,8.662001534979925,17.313738214208513,-0.51846379783928
10.28836458,8.863053037366702,17.707098864677654,-0.38530544039183406
10.29336458,8.999319568997427,17.987792908215877,-0.21630841918948027
10.29836521,9.060583053110431,18.13240696409969,-0.028257699652622748
10.30336584,9.03509177716959,18.11690172682303,0.16218019838308922
10.30836671,8.910162129501126,17.917391774691882,0.3390463751245775
10.31336738,8.672915584723974,17.51103565767065,0.48762166094118947
10.31836831,8.311116255119137,16.87701435898277,0.5948876215127307
10.32336924,7.814067231609473,15.997568190759706,0.6499066926133208
10.32836994,7.17351888960909,14.859054726403286,0.644116011964087
10.33337058,6.384539646834215,13.452983893592243,0.57153349632184
10.33837148,5.446299471203185,11.776981292254959,0.4288780852558427
10.34337234,4.362718733961527,9.83562764394748,0.21560867043314108
10.34837301,3.1429396636185363,7.641121512179051,-0.06611212414439015
10.35337301,1.80158449271513,5.213714501182182,-0.41152260747778113
10.35837344,0.3587731768051589,2.5818733783608088,-0.8134290022005374
10.36337347,-1.1601159685029725,-0.21786788208340455,-1.2624300237344555
10.36837347,-2.7249475822852154,-3.1413913912476636,-1.7471960575103953
10.37337347,-4.301584787181946,-6.13782471177707,-2.254801260300713
10.37837347,-5.8528783895669685,-9.150710435268579,-2.7711071514552468
10.38337347,-7.339856882735863,-12.119492290004038,-3.2811948989974096
10.38837437,-8.723073150171608,-14.981275989783317,-3.7698404314128937
10.39337434,-9.964054098268857,-17.672805558727642,-4.222022124997146
10.39837434,-11.026791724322901,-20.13257998162311,-4.623445933032991
10.40337434,-11.879208711545507,-22.303021796290228,-4.961068343876313
10.40837437,-12.49452893546513,-24.132599811872954,-5.223594230787737
10.41337437,-12.852483669332146,-25.57780361582423,-5.401924973218687
10.41837437,-12.940288161195319,-26.604868834893185,-5.489532435033901
10.42337434,-12.753330934722054,-27.19115980599874,-5.482736589941209
10.42837434,-12.295529853143579,-27.326130493760754,-5.380868834604958
10.43337434,-11.57932470227768,-27.01180473628819,-5.186309237877848
10.43837437,-10.625295444697004,-26.262742194881916,-4.9043937168677445
10.44337437,-9.461417385251815,-25.10548504688697,-4.543195523378887
10.44837437,-8.121987423575124,-23.577510161659088,-4.113193293872199
10.45337437,-6.6462767753644,-21.725739500226133,-3.6268442227045408
10.45837437,-5.0769823884841125,-19.604685163762806,-3.0980851299778465
10.46337437,-3.458559993323615,-17.274323025209693,-2.5417863416719286
10.46837434,-1.8355258485590116,-14.797799459755321,-1.9731837234470135
10.47337434,-0.25081230042759084,-12.239079523777558,-1.4073132733814733
10.47837434,1.2557448038292836,-9.660642696532392,-0.858470661301376
10.4833744,2.6487200004986176,-7.12132487278633,-0.3397152637218465
10.48837444,3.8981607922536026,-4.674393652859134,0.1375651113298951
10.49337444,4.980362535315423,-2.36592913600175,0.5640161668653231
10.4983744,5.878336304681869,-0.23356537741066954,0.9325965699041231
10.50337437,6.581967303038266,1.6943706563752845,1.2387690139315382
10.50837434,7.087877160672725,3.3993045576579477,1.480599942188147
10.5133743,7.399017359131712,4.872444711125273,1.658767613752235
10.5183743,7.524032406597125,6.114414984238652,1.7764805181743988
10.52337433,7.476439919988445,7.134523231295249,1.8393102030787571
10.52837437,7.273680251995823,7.949712410373068,1.8549444331165854
10.53337397,6.936090731873807,8.583251934648176,1.8328683103688825
10.53837397,6.485859092300934,9.063234820847203,1.7839826053141263
10.54337397,5.9460074689525335,9.42095112711494,1.720170102772565
10.54837393,5.339452820343796,9.689210075437508,1.653822263179174
10.55337393,4.688182143308752,9.90068221810487,1.597339912893817
10.55837393,4.012571941208186,10.086329212366909,1.562622953210197
10.56337397,3.3308715649377256,10.273982472411943,1.5605651276996435
10.56837397,2.658859832229012,10.487123511703246,1.6005706008901401
10.57337397,2.009674274958287,10.743908585586805,1.6901093758708983
10.57837393,1.3938029787425443,11.056468765122146,1.8343283487861328
10.5833739,0.819220718884438,11.430504313251385,2.0357340340894567
10.58837386,0.29164432695623665,11.865179678833842,2.2939616741957662
10.5933733,-0.18512279542533738,12.353313025664992,2.6056435387570347
10.59837333,-0.6087901970868813,12.881842383250598,2.9643866873150126
10.60337336,-0.9781581993501203,13.432539613052876,3.3608672963431205
10.6083734,-1.2927073407056384,13.982933764182526,3.783044844918496
10.61337343,-1.5522298615891166,14.5073973615042,4.216495047411424
10.61837343,-1.7565289821075585,14.978343034927962,4.644855501102722
10.6233734,-1.905205627679866,15.367473989645736,5.050372754235037
10.62837336,-1.9975451734181287,15.647030550777249,5.414534170354302
10.63337336,-2.0325092319063978,15.790976943465074,5.718762910481461
10.63837336,-2.008830033214916,15.776078082219001,5.945149930689774
10.64337339,-1.9251980099336472,15.582825377354304,6.077193426458856
10.64837339,-1.7805271488571424,15.196182398130398,6.100513921513924
10.65337339,-1.574277683338721,14.606133854922332,6.003512383346076
10.65837339,-1.3068118160292808,13.8080329071741,5.77793941517971
10.66337339,-0.9797553960919835,12.802751069873613,5.419345702570334
10.66837339,-0.5963369367083767,11.596641704615358,4.92738751586051
10.67337336,-0.1616753026055648,10.20133260095536,4.305966541843969
10.67837336,0.31701080427212314,8.633365962997003,3.5631914043716346
10.68337379,0.8302944855604483,6.913705562762796,2.711159380368692
10.68837383,1.3665503728267834,5.067131256265025,1.765569915649098
10.69337383,1.9120921105487103,3.1215410141676014,0.7451939216271783
10.69837383,2.4514395748033806,1.1071806759716942,-0.32876802582424464
10.70337379,2.967710364986539,-0.9441778730739567,-1.4334004722181268
10.70837376,3.4431231847401573,-3.000088469841957,-2.5448214659063098
10.71337372,3.8595944389732746,-5.02828954214456,-3.6389268279215843
10.71837372,4.1994038632623925,-6.997545960953842,-4.692096661114784
10.72337376,4.445900467518743,-8.878448672158772,-5.6818363984949976
10.72837379,4.584216720914066,-10.644146297320125,-6.58733196073362
10.73337362,4.601956934011288,-12.270983092427317,-7.389906507696626
10.73837366,4.489825423821548,-13.739019015258497,-8.073374154736118
10.74337422,4.2421614759696755,-15.03241054342607,-8.624293315263229
10.74837419,3.8573514389473758,-16.139635601587468,-9.03212858498719
10.75337415,3.3380934068278028,-17.0535525634159,-9.2893349411773
10.75837415,2.6914965847208663,-17.771291504313314,-9.391381184529553
10.76337415,1.9290051820469658,-18.293985070045224,-9.336730709010356
10.76837419,1.066145106534242,-18.62635565652675,-9.12679652416869
10.77337419,0.12210040079348797,-18.77618414670209,-8.765883708639235
10.77837419,-0.8808651959764381,-18.7536923534727,-8.261126257097573
10.78337415,-1.9181184988273363,-18.570875920592037,-7.622417428315954
10.78837412,-2.9634694931583803,-18.240826415969707,-6.862324693073922
10.79337408,-3.990052171871542,-17.777080698598837,-5.995973824646405
10.79837408,-4.971236596667634,-17.19303252493996,-5.040882749120453
10.80337412,-5.8815341344867615,-16.501436073992075,-4.016725026997932
10.80837415,-6.697458442375096,-15.714024020339815,-2.9450053005485803
10.81337418,-7.398306943830503,-14.841254487964347,-1.8486344063235247
10.81837418,-7.96683113650526,-13.892192248973824,-0.7513996114659482
10.82337418,-8.389768956143424,-12.874520477247474,0.3226650438106231
10.82837415,-8.658218422103667,-11.794670832211013,1.3499927538597782
10.83337415,-8.767838692324567,-10.658052281038962,2.308256011742152
10.83837415,-8.718872201039463,-9.469353504580946,3.177160474546703
10.84337418,-8.515989444727422,-8.232890416721608,3.9392162247923146
10.84837418,-8.16796590653339,-6.952969330456594,4.580436659173748
10.85337418,-7.687208229998138,-5.634237319804411,5.090913587014982
10.85837418,-7.089153663797101,-4.281993840214689,5.465220131348494
10.86337418,-6.391572493438513,-2.902441175592174,5.702601546988705
10.86837418,-5.6138071223381605,-1.5028554415789248,5.806928363338546
10.87337415,-4.775983302309263,-0.09166459211828484,5.7864053008481395
10.87837412,-3.8982287272894274,1.3215747785680985,5.653050690988652
10.88337432,-2.999932132175114,2.7263040105412903,5.42198138593306
10.88837432,-2.099072705702619,4.111187905973052,5.1105544968002174
10.89337435,-1.21164552362513,5.464428015099652,4.737427961831199
10.89837435,-0.3512041361871404,6.774146070279405,4.321606259889245
10.90337435,0.47146352029091365,8.02881442147233,3.881535728286637
10.90837431,1.248515118752305,9.217706066324018,3.434306657521945
10.91337431,1.9750849262134953,10.331334143265952,2.9950077305921803
10.91837431,2.6491670574474946,11.361849724539907,2.576263748959274
10.92337435,3.2713586063069098,12.303367505778645,2.1879712533996356
10.92837435,3.8444764596413847,13.152191591625286,1.8372298532992237
10.93337395,4.373067389050686,13.906918009821318,1.5284510365426505
10.93837395,4.862836148550356,14.56839675553796,1.2636122635047595
10.94337395,5.320020551188632,15.139543932791856,1.0426138911055707
10.94837395,5.750745601761936,15.625003762888095,0.8636917924584131
10.95337391,6.1603904142624755,16.030670589149917,0.7238406100926152
10.95837391,6.5530015439925124,16.363091908707997,0.619210665595611
10.96337391,6.930784398573413,16.62878391318497,0.5454529703570569
10.96837395,7.2937007137393834,16.83349988458403,0.49799843035697966
10.97337395,7.639195032470109,16.981498106911708,0.472267134046381
10.97837395,7.96206708781545,17.074859113202006,0.4638107813771312
10.98337391,8.254500279919778,17.11290187911037,0.46839588743762917
10.98837388,8.506249311144654,17.091745108198335,0.4820377587156052
10.99337384,8.704982727068412,17.004053352647823,0.5009959382372663
10.99837384,8.83676884188537,16.838998828895477,0.5217415220968851
11.00337384,8.886686578278107,16.582458961154575,0.5409062090891882
11.00837388,8.839536459078019,16.21745749918033,0.5552227503983316
11.01337391,8.68062173509121,15.724844073229924,0.5614667665774696
11.01837394,8.396565765829012,15.084193787211243,0.556410331295509
11.02337394,7.976129471413919,14.274895419420426,0.5367976879000229
11.02837394,7.410991929403535,13.277384555430055,0.4993525157178017
11.03337391,6.6964578754960264,12.074467144022382,0.4408241810350418
11.03837391,5.832057860624839,10.652670202380326,0.35807753694193767
11.04337391,4.822010029508784,9.003550319562887,0.2482272901801864
11.04837394,3.675516827758085,7.124887726171219,0.10881387147273058
11.05337394,2.4068753111857717,5.0216943852800116,-0.06198679643705529
11.05837394,1.0353860319259036,2.7069690642776516,-0.2651320849860309
11.06337391,-0.4149473375313877,0.20214078667874447,-0.5004772156553754
11.06837387,-1.9159274602307936,-2.4628456471252225,-0.7665568513905623
11.07337384,-3.4358729890800084,-5.249832613500484,-1.0604075584314654
11.07837384,-4.940510494502115,-8.113153078356092,-1.377455274166315
11.08337427,-6.394021834779979,-11.000726045233806,-1.7114893006087437
11.08837431,-7.760211888556682,-13.85551443616754,-2.0547385886438794
11.09337434,-9.003754412680815,-16.617294966994443,-2.398057686255361
11.09837434,-10.091468043825689,-19.224670194815943,-2.731219896346563
11.10337434,-10.99357036868979,-21.617236119054105,-3.0433053984030254
11.1083743,-11.684855771348925,-23.73780569167192,-3.323163561978605
11.11337427,-12.145742665926154,-25.53458050286105,-3.559922176910534
11.11837427,-12.363137974154942,-26.963160776883246,-3.7435122202170388
11.1233743,-12.33107153066404,-27.98828838754131,-3.8651752543219557
11.12837434,-12.051060698229835,-28.5852292541013,-3.917921703147303
11.13337414,-11.532176022572484,-28.74072005953743,-3.896912057422719
11.13837414,-10.790792318028114,-28.453428892444386,-3.7997392264769037
11.14337414,-9.850025941464285,-27.733908454564887,-3.626598103197877
11.14837347,-8.738877407968403,-26.604051386452955,-3.380336908601425
11.15337257,-7.491117334295266,-25.09608702066177,-3.06639283839729
11.15837187,-6.1439706745729685,-23.251184535188894,-2.6926209024190197
11.1633712,-4.736667035044977,-21.11774688793426,-2.2690290569159415
11.1683703,-3.3089320602554855,-18.749492072257578,-1.8074348252427346
11.17337014,-1.8994962125796304,-16.203423200941597,-1.321059111260152
11.17837014,-0.5446933507192,-13.537787402256768,-0.8240725305341299
11.18336924,0.7227866623038176,-10.810116493671204,-0.331108908582201
11.1883683,1.8749384862922958,-8.075431000913765,0.14324002078843973
11.19336737,2.889235704853562,-5.38467446539412,0.5849350950774466
11.19836643,3.7491545463738256,-2.783428258940715,0.9809919401963894
11.20336643,4.44441722358579,-0.3109393545266044,1.3199614704492713
11.20836647,4.9709593491720065,2.0005243519418014,1.5923750820538984
11.2133665,5.330638714323935,4.125993633156633,1.791140806438452
11.21836653,5.530713770236664,6.047810380173592,1.9118766654641244
11.22336587,5.583129121255263,7.7553640895594675,1.9531677037080548
11.2283652,5.503652017891312,9.24459402815431,1.9167338045683693
11.2333663,5.310908117802587,10.517306034731577,1.8074965676658792
11.23836627,5.0253666457531985,11.580356904744196,1.633535356792459
11.24336587,4.6683245993334905,12.444759963463783,1.405925203233676
11.2483659,4.2609369678793305,13.124762959767228,1.1384525952287692
11.25336593,3.8233352848087394,13.63694417477105,0.8472092653451281
11.25836553,3.373870504656931,13.999365146804108,0.5500688120406845
11.26336553,2.928508513476648,14.2308092848623,0.2660562120490011
11.2683655,2.5003979084359726,14.350125562223637,0.014625782389313786
11.2733648,2.0996204199628092,14.375686162591045,-0.18513134391315186
11.27836476,1.7331249311834003,14.32495709229382,-0.31532396637285015
11.28336496,1.404836919707073,14.214172024104554,-0.3601109334634361
11.288365,1.1159267256984817,14.058092577151132,-0.30653003931992434
11.29336503,0.8652126921791139,13.869833378542763,-0.14526847604736853
11.29836573,0.6496691883616607,13.660728143883404,0.12866371502674662
11.30336663,0.46500497385451967,13.440214307532406,0.5153955762960559
11.3083673,0.30627438864931805,13.215718917217655,1.009829009106045
11.31336793,0.16848258122685397,12.992537246097696,1.6014768154607195
11.31836883,0.04714661925222361,12.773706288402758,2.274530900765731
11.32336903,-0.061222899537001,12.559885617055992,3.0081773418260074
11.32836906,-0.1587500993110841,12.349265846237792,3.7771634189152277
11.33336996,-0.24595521504732945,12.13752898096384,4.552608309536391
11.33837086,-0.32166370244217163,11.917885100397255,5.303034788921351
11.34337176,-0.383067994860274,11.681206614316137,5.995584938972127
11.34837199,-0.4259368634738479,11.416275497511108,6.597369545188576
11.35337199,-0.44495767679211407,11.110151210629516,7.076889562063541
11.35837196,-0.4341880886278744,10.748658201815095,7.405459669170301
11.36337193,-0.387586336068229,10.316982677601613,7.558559262312658
11.36837193,-0.29958384696340523,9.800359399119095,7.517035757988476
11.37337263,-0.16566064286084858,9.184821138367724,7.268089409244633
11.37837346,0.017116475049022216,8.457976562330142,6.805978925248329
11.38337232,0.2496303536526014,7.609777218228482,6.1324039776233175
11.38837232,0.5303562363022274,6.633231644304734,5.2565433913854624
11.39337269,0.8551345510494258,5.525025022420173,4.19475311356091
11.39837269,1.21708841853965,4.286006376071061,2.9699515097082463
11.40337269,1.6066915724432278,2.9215116958755836,1.6107379857912385
11.40837312,2.0119840512402134,1.4414998017771123,0.15030322795969997
11.41337312,2.4189255297366787,-0.13951250811938679,-1.37480428449571
11.41837312,2.8118695822561928,-1.8027189511442,-2.9259895857686393
11.42337379,3.1741366459646625,-3.52548792762829,-4.4639372774443435
11.42837379,3.488659186506648,-5.282003598463439,-5.949895196897278
11.43337379,3.738669730085379,-7.044055076130957,-7.346866810403853
11.43837376,3.9084010846604524,-8.781936418399077,-8.620673330201774
11.44337376,3.983768187620763,-10.465413771829565,-9.740857397790748
11.44837376,3.953002473030624,-12.064712291363444,-10.681411150520187
11.45337379,3.8072122965559023,-13.551474665133133,-11.42132178068572
11.45837379,3.5408466055426437,-14.899645389370855,-11.944936681992822
11.46337379,3.152043457987535,-16.086240319585528,-12.242157529984572
11.46837376,2.6428498983067565,-17.091969077969754,-12.308477867654668
11.47337372,2.0193048127412885,-17.9016879496321,-12.144881838568699
11.47837369,1.2913814626508509,-18.504672124373943,-11.757622744106001
11.48337369,0.4727912102485467,-18.894707598060794,-11.157899466119964
11.48837369,-0.4193456446774163,-19.070013706658305,-10.361447026863592
11.49337372,-1.3649520327455094,-19.033016124147654,-9.388055225063878
11.49837442,-2.34155578298209,-18.78999647906,-8.261026858793903
11.50337445,-3.324943911265379,-18.350648289173687,-7.006584813362272
11.50837445,-4.289889519382889,-17.72756992916768,-5.653235434438996
11.51337445,-5.210928504394453,-16.935724327265653,-4.231094340903231
11.51837442,-6.06316094725079,-15.991892506016232,-2.771180461206953
11.52337442,-6.823050287820396,-14.914144301459382,-1.3046848685015684
11.52837428,-7.469192320792628,-13.721344917613756,0.1377769514431011
11.53337392,-7.983025813625546,-12.432710702458424,1.5269175149061456
11.53837392,-8.349457308105213,-11.067422016703903,2.8355183386008234
11.54337392,-8.557374535591727,-9.644295745938361,4.039138628094987
11.54837388,-8.600025917698735,-8.181515372798806,5.116765954376286
11.55337385,-8.475247877521516,-6.6964129822137455,6.051379176515151
11.55837382,-8.18552716078933,-5.2052952897998015,6.830391619186783
11.56337382,-7.737891976535246,-3.7233046663213294,7.445943304372593
11.56837385,-7.143633241143061,-2.2643059085115245,7.895016126761216
11.57337395,-6.417865060714134,-0.8407899008554837,8.179355930876163
11.57837398,-5.578941225001961,0.5362137803853728,8.305199794420329
11.58337398,-4.647751413708113,1.8572217199610577,8.282823076938826
11.58837398,-3.646926725666191,3.1143829500625952,8.12593572148022
11.59337395,-2.5999888493084247,4.301567270617126,7.850968242921095
11.59837395,-1.53048051728491,5.414452101968717,7.476293636881279
11.60337395,-0.46111660382336517,6.45060005249119,7.021432282766779
11.60837398,0.5870048929497432,7.409515471117788,6.506283616960141
11.61337401,1.5950948183946057,8.29266527095863,5.950421812108495
11.61837401,2.5472346142534423,9.103447579857962,5.372483715110477
11.62337401,3.4307804314590813,9.847091454466643,4.789666667547981
11.62837401,4.236589400995725,10.530472084595706,4.217342498309722
11.63337401,4.959056337629385,11.161828725233624,3.6687831485932634
11.63837401,5.595958699731596,11.750377151473849,3.154984619218488
11.64337398,6.148118043671523,12.305814834113056,2.68457091705349
11.64837398,6.61889706083433,12.837725230291424,2.263759523707543
11.65337398,7.013561734530102,13.354897179810077,1.8963742000923374
11.65837401,7.338547102146536,13.864585532295983,1.5838976354969518
11.66337401,7.600671616587947,14.371748606571503,1.3255629710488992
11.66837401,7.806348710154698,14.878305704940823,1.1184877426183504
11.67337398,7.96084484254695,15.382462777144884,0.9578556246102933
11.67837394,8.067631234426704,15.878155976570625,0.837150641430055
11.68337431,8.127871881340097,16.354661169151925,0.7484457322432098
11.68837431,8.140083580514741,16.796412578778884,0.6827433294585442
11.69337434,8.09999490563048,17.183065950585522,0.6303606393948132
11.69837438,8.000620699254267,17.489831249014028,0.5813473572885665
11.70337441,7.832557128315534,17.68808744604485,0.5259194063836642
11.70837441,7.584490134505287,17.746277959514828,0.45488966845116025
11.71337441,7.243897768647941,17.63107040519892,0.36007595953206595
11.71837438,6.797915074334486,17.308749199828835,0.23466760503568584
11.72337431,6.234319565192221,16.746794887309946,0.07353438002463127
11.72837431,5.542586559255869,15.91559057266539,-0.12653530407703434
11.73337434,4.71495721645395,14.790184275289647,-0.3666766852111122
11.73837438,3.747458456575366,13.352027083301522,-0.645877604575656
11.74337438,2.64081327230597,11.590601365591118,-0.9609967246483632
11.74837434,1.401182437175685,9.50485151484021,-1.3068700359244807
11.75337431,0.04068426712011045,7.104332129914731,-1.6765013505565058
11.75837427,-1.4223521741297627,4.409995399819402,-2.061329647508436
11.76337424,-2.963433471771593,1.4545507380065565,-2.4515639348992755
11.76837424,-4.5522669164835365,-1.7176547595221718,-2.8365746609786773
11.77337427,-6.153447476287946,-5.051267134241835,-3.2053293352216183
11.77837431,-7.727453120849559,-8.481077332928972,-3.546858485042972
11.78337434,-9.231917992065322,-11.933678955267764,-3.850736036625101
11.78837434,-10.62313671846557,-15.329591209378885,-4.107555685893981
11.79337434,-11.85773852102459,-18.585780480707825,-4.309382277746615
11.7983743,-12.894457392481835,-21.61848936986749,-4.450155367422093
11.8033743,-13.695915252306376,-24.34626025109169,-4.526021678455243
11.8083743,-14.23032925289516,-26.693022960825864,-4.535574510561196
11.81337434,-14.473052965705303,-28.591104768322342,-4.479981408207488
11.81837434,-14.407864598157214,-29.98401672637597,-4.36298646940793
11.82337434,-14.027924232195145,-30.828874846947404,-4.190780266450004
11.82837434,-13.33633673713257,-31.0983277092718,-3.9717380246521263
11.83337434,-12.346277475105047,-30.781883841992038,-3.7160349108961217
11.83837434,-11.080663344744574,-29.886561573532372,-3.4351553887586808
11.8433743,-9.571380084864357,-28.436819291187906,-3.141320883872313
11.8483743,-7.858104979664643,-26.473762635671196,-2.8468657218959104
11.8533743,-5.986788788334253,-24.053663868666042,-2.5635948551336005
11.85837434,-4.007879405351786,-21.24586418830628,-2.302158035029341
11.86337437,-1.9743815222569592,-18.13015953019708,-2.071473946497047
11.86837437,0.060148371046353004,-14.793792938930238,-1.8782347555407497
11.87337434,2.0435733275821777,-11.328191541173332,-1.7265169465141066
11.8783743,3.927021760119718,-7.825593735711611,-1.6175186208192243
11.8833743,5.66652695791306,-4.3757129390161795,-1.5494369544329534
11.8883743,7.22439423177291,-1.0625786972444997,-1.5174926397653883
11.89337433,8.570246725875533,2.0383151103456187,-1.5141012449392257
11.89837433,9.681719206834892,4.862441134700135,-1.529184836714284
11.90337433,10.544787430417928,7.3581545593766835,-1.550611160956374
11.90837433,11.153738077919046,9.488023644323956,-1.5647423142182133
11.91337433,11.51080015969817,11.229530640021526,-1.5570703369569578
11.91837433,11.62547291808337,12.575128202060773,-1.5129136838960295
11.9233743,11.513597451984788,13.531667811303771,-1.4181461227952978
11.9283743,11.196229243779156,14.119248183813923,-1.2599281542793561
11.93337387,10.698376020552871,14.369560293761934,-1.0274104384081437
11.9383739,10.047669378040723,14.323828476358397,-0.7123790520378637
11.9433739,9.273038926302144,14.030462209980488,-0.3098138341745062
11.9483739,8.40345428729544,13.542540174100356,0.18166638135846394
11.95337387,7.4667933447899735,12.915247800888965,0.7594943028096162
11.95837383,6.488885244939061,12.203383061255202,1.4169987120370287
11.9633738,5.49276447020951,11.459033967464979,2.1434159789433695
11.9683738,4.49815865749094,10.729516441383419,2.9240755906902205
11.97337383,3.5212185410896253,10.05564389928565,3.74076017804378
11.97837386,2.5744843023813706,9.47038115784069,4.57223356773848
11.9833739,1.6670694749163502,8.997915959869236,5.394923280958964
11.98837393,0.8050320602838105,8.6531622898098,6.183736911256503
11.99337393,-0.008106804136134677,8.441691309019232,6.912985221266627
11.9983739,-0.7707430175250096,8.360068729203844,7.557378852136403
12.00337386,-1.4825187925788015,8.396562259502172,8.093060507963473
12.00837386,-2.1436521434540694,8.532169865784391,8.49863065212291
12.01337386,-2.7543154529499856,8.741909342603533,8.756122403540397
12.01837389,-3.3141067789700625,8.996302361866393,8.851880594693153
12.02337389,-3.8216496980087413,9.262981818209427,8.777300823643413
12.02837389,-4.274347500543244,9.50834989230643,8.529386704008585
12.03337386,-4.668306144706266,9.699215655395935,8.111087415825974
12.03837383,-4.99842829373881,9.804345042836488,7.531383334891911
12.04337379,-5.258668739676164,9.795862412123222,6.805095377066044
12.04837379,-5.442430257869,9.650451424968535,5.952404289862653
12.05337383,-5.543069201327138,9.350313298532686,4.998080242764554
12.05837386,-5.554472757185651,8.883852006237804,3.9704413353584105
12.06337389,-5.471665463628566,8.246068111162906,2.900081308446364
12.06837389,-5.291401607924066,7.438655076852445,1.8184288945787024
12.07337389,-5.012702199046135,6.469803929950819,0.7562198443878493
12.07837386,-4.6372996528008334,5.35373400636462,-0.2580254512306735
12.08337429,-4.169959442336458,4.10997897004087,-1.199421966978308
12.08837429,-3.6186552479986154,2.7624677621652847,-2.0479449088925534
12.09337432,-2.9945822544305747,1.3384488138405721,-2.7893776427766324
12.09837432,-2.312001890547715,-0.13268796730937102,-3.4159176435571785
12.10337432,-1.58792014698686,-1.6206336257754415,-3.9263966692575045
12.10837432,-0.841610270228323,-3.0953688189165343,-4.3260956803607575
12.11337432,-0.09399876939423844,-4.5283029556576455,-4.626160851549162
12.11837432,0.6330590671113017,-5.893293135149655,-4.842652734781988
12.12337429,1.3175819095178611,-7.167499783269856,-4.9952846687285515
12.12837426,1.9383066327968896,-8.332045700683054,-5.1059273895364035
12.13337402,2.4755345557197175,-9.372456743946648,-5.1969729673561
12.13837402,2.91193925427629,-10.278874679753699,-5.289661278091768
12.14337405,3.2332965626371077,-11.046044850334113,-5.402475353304848
12.14837405,3.429100368058209,-11.673092295553486,-5.549708114848795
12.15337339,3.493032707941583,-12.163109437512173,-5.740292949574604
12.15837245,3.4232633252201343,-12.522586295081473,-5.97697539757143
12.16337155,3.22256196850934,-12.760720498825918,-6.25588380365824
12.16837085,2.898215973489051,-12.888648924921325,-6.5665336442556494
12.17336999,2.461755544145293,-12.918645144508519,-6.892273975925995
12.17836909,1.928499057168006,-12.863326759262385,-7.211156309140401
12.18336842,1.3169399806519333,-12.734914051222093,-7.497178290035051
12.18836775,0.6480050243055285,-12.544576526671577,-7.721829422463922
12.19336685,-0.05578054894635923,-12.3018973769583,-7.855846007915878
12.19836619,-0.771180241350996,-12.01447814410493,-7.87106905891293
12.20336525,-1.4751440173420836,-11.687697443679891,-7.742292718496322
12.20836435,-2.1456744125406106,-11.324628875353254,-7.448991532304944
12.21336435,-2.762621634718245,-10.926114614626528,-6.9768222717140205
12.21836438,-3.308372797857018,-10.4909829751257,-6.318809255989969
12.22336458,-3.768406621284209,-10.016390795445968,-5.476140450281144
12.22836458,-4.131692291496533,-9.49826516959571,-4.458523977192849
12.23336455,-4.390919262499226,-8.931814118839274,-3.2840798375126568
12.23836452,-4.542553157861568,-8.31207255465127,-1.9787682443425383
12.24336448,-4.5867213257009976,-7.634448491900519,-0.5753826546771202
12.24836448,-4.526939737497048,-6.895235050156024,0.8878389997655911
12.25336448,-4.369700551001394,-6.092056362557269,2.368908461697988
12.25836452,-4.12394646220773,-5.224220024141549,3.8239909770093647
12.26336455,-3.8004635891763288,-4.292954954605744,5.209408550171344
12.26836418,-3.411228649935805,-3.3015211700377876,6.483623785497655
12.27336361,-2.968748125096011,-2.2551863912084773,7.609084703918814
12.27836361,-2.4854263951271665,-1.1610728882297126,8.55382056197603
12.28336341,-1.9729962088297681,-0.02788570162793346,9.292700585741965
12.28836321,-1.4420386473723403,1.1344600046236903,9.808300005362936
12.29336321,-0.9016121610357841,2.315289071113552,10.091354663462551
12.29836325,-0.35900269005523444,3.5036655664673506,10.140818912885539
12.30336391,0.18039975086211052,4.688908314344826,9.963566177811432
12.30836481,0.7130982147994337,5.861086583789091,9.573786242102779
12.31336568,1.2373647307817188,7.011458230113162,8.992139579477442
12.31836635,1.7530044966724085,8.132813381074106,8.244729049114895
12.32336721,2.261022138178831,9.219690268916466,7.361944947290315
12.32836811,2.76320783477283,10.268436048562094,6.377232272605498
12.33336881,3.2616647714764198,11.277094237032944,5.325820551231434
12.33836951,3.758302508303134,12.24511146274868,4.243448381780747
12.34337044,4.254323259985627,13.172869183577713,3.165109329336079
12.34837111,4.749729498296495,14.061060401519265,2.123845220649659
12.35337201,5.24288148487754,14.909946127991542,1.1496175141677287
12.35837288,5.7301321738209685,15.718539768749373,0.2682942082058316
12.36337284,6.205564407624363,16.483777925072097,-0.4992058681102026
12.36837284,6.660851588454971,17.199742163544283,-1.1375705659100113
12.37337268,7.085258172446696,17.856997701700863,-1.6375195450605087
12.37837271,7.465790533255912,18.442111819043735,-1.9959735318924825
12.38337271,7.787502129465314,18.937407471123123,-2.215957196293199
12.38837271,8.033949706043746,19.320996495486845,-2.306239017197961
12.39337271,8.187789734265177,19.567122502047912,-2.280725291813822
12.39837271,8.23149675528901,19.64682673080617,-2.1576383553664207
12.40337271,8.148178072829682,19.528931675884216,-1.9585204394471634
12.40837267,7.922452689422803,19.181318076634167,-1.7071137734734105
12.41337267,7.541356854122243,18.57245201733506,-1.4281738025718111
12.41837307,6.995234426271716,17.673101456767103,-1.1462748659666997
12.42337367,6.278567749610054,16.458166564298548,-0.8846656365403609
12.42837367,5.390704095807404,14.908536590337084,-0.6642252907431057
12.43337407,4.336434153392944,13.01287818966968,-0.5025622768410358
12.43837424,3.1263826595511564,10.769256522572535,-0.41328773522833523
12.44337424,1.7771771967242451,8.186491436410133,-0.405486507280373
12.44837424,0.31136937665546127,5.285156917491011,-0.48340058152020365
12.45337427,-1.2429071038812267,2.098142977145045,-0.6463324546634475
12.45837427,-2.852545158211582,-1.3292849273609213,-0.8887688002979659
12.46337427,-4.480330465254308,-4.9399734027004465,-1.2007176792937666
12.46837427,-6.086042566690224,-8.665935832996595,-1.5682450017055591
12.47337427,-7.627755535744723,-12.429967533985756,-1.9741878980974672
12.47837427,-9.063290992926374,-16.147785771501624,-2.3990142241984684
12.48337424,-10.351765942384574,-19.730629738846,-2.8217892054245612
12.48837421,-11.45516968086108,-23.0882272444911,-3.2212031995198958
12.4933742,-12.339898399692954,-26.132009229396466,-3.5766097468640243
12.49837424,-12.978173535975666,-28.77843219256664,-3.8690212523162923
12.50337427,-13.349270859581711,-30.952254076720052,-4.082011172911815
12.5083735,-13.440492100378883,-32.589602908328864,-4.202476522267108
12.5133735,-13.247820017184235,-33.6406807661533,-4.221222676755777
12.51837347,-12.7762115456536,-34.0719589716453,-4.133343509984968
12.52337344,-12.039502106529861,-33.867743437827,-3.938383107665478
12.5283734,-11.059916602999403,-33.03102084672178,-3.6402795748554024
12.53337297,-9.867207214910351,-31.583534965592992,-3.2471051583860686
12.538373,-8.497461956652351,-29.56508521787561,-2.770628446753295
12.54337303,-6.991648147381645,-27.03208289585055,-2.2257326828961204
12.54837307,-5.393969421032794,-24.055440101267536,-1.6297289379409274
12.55337307,-3.7501230155467407,-20.717899299310755,-1.0016043389730416
12.55837307,-2.1055461298005853,-17.110935374409426,-0.3612442228457283
12.56337303,-0.5037367463765158,-13.331376802614216,0.27133644992423633
12.56837303,1.0152738419526126,-9.477898489004552,0.8767222097396763
12.57337303,2.416231687746657,-5.647536958103363,1.4367625033372697
12.57837307,3.6697039638767524,-1.9323701370854476,1.9351553888933333
12.58337307,4.752822580922401,1.5835098225009117,2.357937270510953
12.58837307,5.649711687492681,4.826620198217704,2.6938715425964785
12.59337303,6.3515998623226375,7.736218402459151,2.934733271922099
12.598373,6.856633131051596,10.265873537213794,3.0754904700164882
12.60337296,7.169418133375566,12.384437071879857,3.1143851488533567
12.60837296,7.300335356872576,14.076395762754531,3.0529192472394144
12.61337296,7.264670089795484,15.34161432274246,2.895751747849191
12.618373,7.081613582414647,16.194498622966062,2.650514064288218
12.62337303,6.773188967262922,16.662631823393383,2.3275513164962685
12.62837306,6.363155975123095,16.784955164375667,1.9395976248909526
12.63337306,5.875945591270348,16.60958135963797,1.5013940873747864
12.63837306,5.33567070143878,16.191340689096524,1.0292585943632746
12.64337303,4.765251704680925,15.589167311604555,0.5406170156811518
12.648373,4.185687374013937,14.86343576692603,0.05350556515611002
12.65337296,3.615491430754507,14.073355318520678,-0.41394559723124386
12.65837373,3.0703049794469788,13.274523215762898,-0.8440371048138838
12.66337376,2.5626847687584426,12.516727783509449,-1.2200224832965425
12.66837379,2.1020577909647473,11.842079164312107,-1.5266158593694739
12.67337383,1.6948245110080182,11.283530211135206,-1.7504726558089163
12.67837383,1.3445864320381242,10.863833102393254,-1.88062986958398
12.68337426,1.0524690637437413,10.594959351752783,-1.9088920915059455
12.68837422,0.8175088429991546,10.477992606889714,-1.8301495694458534
12.69337423,0.6370721849484238,10.503485534699399,-1.6426155242531222
12.69837422,0.5072764826579556,10.652254718140174,-1.3479717142951846
12.70337432,0.42338629272345085,10.896571386661666,-0.9514139528753599
12.70837433,0.3801628675690862,11.201691503277313,-0.46159283626746
12.71337432,0.372151294435187,11.52765671600046,0.10955090209293415
12.71837429,0.3938963358955805,11.831288329070055,0.7470526218422193
12.72337426,0.44008505663923364,12.068290030039632,1.4332836522627943
12.72837422,0.5056208181034711,12.195371798299712,2.1483933163155045
12.73337419,0.585638668877784,12.17230731987768,2.8708188222245172
12.73837419,0.6754762107598274,11.963840380960878,3.577846806929903
12.74337422,0.7706165301220304,11.541362084298392,4.246209328799579
12.74837426,0.8666206891997585,10.884290210441524,4.852697285865839
12.75337429,0.9590665328320346,9.981094363068115,5.374775739447382
12.75837429,1.043508226725066,8.82992526657795,5.791188275215663
12.76337429,1.115467249654455,7.438823198101529,6.082540719347723
12.76837425,1.1704610078896116,5.825498456004789,6.231857382127306
12.77337425,1.2040704520162375,4.016695318513616,6.225104765807142
12.77837425,1.2120436089739526,2.04716932728235,6.05167794896252
12.78337429,1.1904281599947515,-0.041674914561057395,5.704843607614959
12.78837429,1.135723337215907,-2.2034227738784393,5.182130975395275
12.79337429,1.0450397161907419,-4.388490126951082,4.485658123838386
12.79837429,0.9162551286970101,-6.546081043767317,3.6223761832470576
12.80337429,0.7481558055028292,-8.626173212494,2.6042096939764114
12.80837429,0.5405535353496037,-10.581440609946474,1.4480689677755108
12.81337425,0.2943715550859996,-12.369025834398798,0.1757116723151407
12.81837425,0.011693711960498778,-13.952081742905087,-1.1865637312153219
12.82337425,-0.30422691847613603,-15.301013672724471,-2.6084013541246995
12.82837429,-0.6490021952548798,-16.39436908542453,-4.056046268462819
12.83337429,-1.0171864160871178,-17.219340047222275,-5.493165647335804
12.83837429,-1.4023959063510727,-17.77186449256061,-6.881811114545231
12.84337425,-1.7974675661834705,-18.056333539655316,-8.183493400736857
12.84837422,-2.1946514614396473,-18.08493293117962,-9.360335101452641
12.85337412,-2.5858309436231717,-17.876665580893174,-10.37626382823327
12.85837412,-2.9627624127219856,-17.456117893976472,-11.198205932574055
12.86337412,-3.317325713526976,-16.852043917974086,-11.79723992366748
12.86837415,-3.6417753366285437,-16.09584784917769,-12.149668495126983
12.87337418,-3.9289821897912383,-15.220046868752494,-12.237968699375049
12.87837422,-4.172655824709559,-14.256793018670397,-12.051581411787472
12.88337425,-4.367537692588712,-13.236525373393961,-11.58750405073805
12.88837425,-4.50955721229574,-12.186812770073423,-10.850654776498338
12.89337422,-4.595944047675952,-11.13143360254872,-9.85398219954613
12.89837422,-4.625291849806523,-10.089723562168697,-8.618302018919145
12.90337422,-4.5975706680822555,-9.076205701882408,-7.171850966065161
12.90837425,-4.514087149115104,-8.100500803083127,-5.549558877578769
12.91337425,-4.377393468027747,-7.167500690329973,-3.7920514594218395
12.91837425,-4.191147688349717,-6.277773732633297,-1.944408923785595
12.92337422,-3.9599299896298716,-5.42816100329679,-0.05471856930810256
12.92837418,-3.6890210165797654,-4.612513936295331,1.8275281689494085
12.93337415,-3.3841505534933978,-3.8225200651983657,3.653132365996534
12.93837415,-3.0512268239569966,-3.048562581838798,5.37490666654799
12.94337418,-2.6960588720929346,-2.280561826897066,6.949338628818584
12.94837421,-2.3240864715913365,-1.508752066095551,8.33811687669449
12.95337425,-1.9401334435403605,-0.724354488519767,9.509440001560936
12.95837425,-1.5482005969610746,0.0798833939584758,10.439036099009403
12.96337425,-1.1513131357863005,0.9093016355789191,11.110837016456589
12.96837421,-0.7514339654677684,1.7671043948166683,11.51727596155023
12.97337421,-0.34944923078224105,2.654298380805771,11.65920708596596
12.97837421,0.05477326904053588,3.569782729554011,11.545475272917004
12.98337424,0.462257093795211,4.510570546666159,11.192187768668797
12.98837428,0.8747293481282382,5.472113851849141,10.621753237111086
12.99337428,1.294381742280739,6.448696594661598,9.86175823908639
12.99837428,1.723591248061506,7.433855582580557,8.943748053336348
13.00337428,2.164611711051848,8.420787256094405,7.901970685756297
13.00837428,2.619248394534206,9.40269963859977,6.77213206115221
13.01337428,3.088528185855079,10.37307352192132,5.590198689684366
13.01837424,3.57237916399573,11.325804818777282,4.391273583659057
13.02337424,4.069334358060685,12.25521063840142,3.2085638977979607
13.02837424,4.576275540550779,13.155894359178141,2.0724557862430864
13.03337428,5.088233313373809,14.022478702141884,1.0097125441952164
13.03837428,5.598259121325474,14.849229150106913,0.04281384621523691
13.04337428,6.097383023764126,15.62960165145674,-0.8105456951372559
13.04837424,6.574668216685873,16.355757405241413,-1.5377826772216558
13.05337421,7.0173696706935615,17.018093084960114,-2.1315647444269663
13.05837418,7.411200037071978,17.60483688654421,-2.5897600925106543
13.06337418,7.7407013151791535,18.101759266636446,-2.915200774395712
13.06837421,7.989715797039923,18.492042321356973,-3.1152724005332644
13.07337357,8.141944668460466,18.75634373750556,-3.201350849232908
13.07837361,8.181577561031204,18.873080560865468,-3.1881135838505483
13.08337361,8.09397157612038,18.81894524425175,-3.0927585896520355
13.08837361,7.86635413579773,18.569652263467432,-2.934167288207703
13.09337357,7.488520761917261,18.10089880947467,-2.732048626257169
13.09837357,6.953496812860117,17.389508484592934,-2.5060997247307033
13.10337357,6.2581315010044385,16.41471331260305,-2.2752144071055618
13.10837361,5.403593254406957,15.15951742117626,-2.0567655231141417
13.11337364,4.39573768278773,13.612076133190486,-1.865981312543897
13.11837364,3.245323035347106,11.767017543239254,-1.7154308967098733
13.12337361,1.9680530465433714,9.626630526590281,-1.6146296712855932
13.12837357,0.5844333627893132,7.20184397804308,-1.5697718808734415
13.13337354,-0.8805648385710966,4.5129271719389745,-1.583594776235688
13.1383735,-2.398032145423904,1.589850496084452,-1.6553762225313118
13.1433735,-3.9358284380898474,-1.5277408182345096,-1.7810651807167275
13.14837354,-5.459451122149234,-4.790970533749108,-1.9535418471061172
13.1533729,-6.933036236762734,-8.142603963109469,-2.1630010286685395
13.1583734,-8.320457475014393,-11.518339413695982,-2.397448131676884
13.16337274,-9.586482675319479,-14.848487192560963,-2.6432918011146516
13.16837184,-10.697943722033708,-18.059983796615008,-2.886011175238225
13.1733709,-11.62487402237054,-21.078669285849656,-3.1108697707644724
13.1783709,-12.341567750139081,-23.831738697895798,-3.3036431251108156
13.18337023,-12.827516821516937,-26.25026487723938,-3.4513242329925253
13.18837027,-13.068185031436757,-28.271681416932957,-3.542770005494984
13.19336937,-13.055583829409949,-29.842111540575495,-3.5692537123808337
13.1983687,-12.788620767431597,-30.918432352165965,-3.524892744706633
13.2033678,-12.273199750004022,-31.469974134751116,-3.406928023246886
13.2083669,-11.522062048411216,-31.479770945475444,-3.2158407434705745
13.2133669,-10.554368774974952,-30.945300816329052,-2.9553032612325443
13.21836687,-9.395038902349368,-29.878680145837638,-2.631972590462539
13.22336687,-8.073870912821212,-28.306305545406296,-2.255145535560902
13.22836623,-6.624488976699612,-26.267965129837098,-1.8363022725923
13.23336626,-5.083164332838017,-23.81546742674423,-1.38856931204184
13.2383663,-3.487568197987329,-21.010857550453206,-0.926133400611707
13.2433663,-1.8755139850253528,-17.92430582491712,-0.4636359956829628
13.2483656,-0.28374437620794307,-14.631763427601209,-0.015574536343483214
13.25336556,1.2531864656020808,-11.212483317038487,0.40426736520368745
13.25836516,2.70389290371068,-7.746503497619584,0.7833429492127305
13.26336516,4.040966756496524,-4.3121844916868,1.1108047287480696
13.2683652,5.241592227771702,-0.9838846565906039,1.377896029827869
13.2733652,6.287954652003201,2.170153436005204,1.5782642939207796
13.2783652,7.167441333095159,5.089644173855485,1.7081910690789983
13.2833652,7.872642389810002,7.723778816486541,1.7667353380048039
13.2883652,8.401167858071279,10.032388088890466,1.7557881004371867
13.2933652,8.755303994556181,11.986723925563107,1.680037102873112
13.29836516,8.941536569337215,13.569848847590613,1.5468415179655244
13.30336583,8.969971882869826,14.776632858631462,1.3660174863433363
13.30836536,8.853687434105828,15.613368712999266,1.1495369852237955
13.31336606,8.608043892687608,16.097027333645574,0.911144605341473
13.31836696,8.249988616603028,16.254186268566354,0.6658994524820115
13.32336786,7.797378644977234,16.119674964890162,0.4296523656959254
13.32836783,7.268347985293306,15.734990263202661,0.21847175190573803
13.33336849,6.680740126960515,15.146542745738488,0.04803436565595098
13.33836849,6.051622098710128,14.403798789596035,-0.0669999193841322
13.34336943,5.396891201379051,13.557384392515065,-0.1136081191865541
13.34837009,4.7309800487991716,12.657215473699855,-0.08099620189977336
13.35337099,4.066660050502179,11.750715956737867,0.03886028357636133
13.35837189,3.4149383024352056,10.881180016713726,0.2507504907712118
13.36337189,2.7850383411758144,10.0863287800708,0.5558600832311001
13.36837189,2.1844516346225338,9.397104707371488,0.9515213296446297
13.37337253,1.619044198682094,8.836738961608841,1.4310992995907248
13.37837313,1.093201422148345,8.420118339206715,1.9840278621716105
13.38337313,0.6099940797172015,8.153468925352803,2.596003922324531
13.38837313,0.17134960771851337,8.03436368991402,3.2493419826472265
13.39337316,-0.22178508237513922,8.052050966130954,3.9234838721703946
13.39837382,-0.5692998828248977,8.188090386911043,4.595650641550883
13.40337383,-0.8718038078613727,8.417272664858944,5.241615596817699
13.40837419,-1.1305363626136178,8.708789898156038,5.836569724616533
13.41337416,-1.3473071044387661,9.02761419195272,6.356043927879451
13.41837412,-1.5244590175964954,9.336034638896397,6.776847165499165
13.42337412,-1.6648483923836495,9.595296429154358,7.0779763248072
13.42837416,-1.7718317644331747,9.767281340259544,7.241452827784123
13.43337419,-1.8492493120578086,9.816166274677842,7.253042839960137
13.43837422,-1.9013941255162725,9.709995958991799,7.102822891185183
13.44337422,-1.9329581451734414,9.422107495850359,6.785561307823829
13.44837422,-1.9489483360147084,8.932348391732129,6.300898279281714
13.45337419,-1.9545704398200947,8.228036244110566,5.653322407014444
13.45837419,-1.9550816870284935,7.3046175423342286,4.851956502494359
13.46337419,-1.9556174832622188,6.165994726956979,3.9101774699222154
13.46837422,-1.961000018376136,4.824504164526411,2.8451030199299385
13.47337422,-1.975538957538652,3.3005423451659937,1.6769819034491562
13.47837422,-2.0028358332885206,1.621852783234207,0.4285251488114326
13.48337419,-2.0456043490027027,-0.17749875837099058,-0.8757858287568827
13.48837415,-2.105518445095187,-2.0584185704697107,-2.210381915501447
13.49337412,-2.1830987102530734,-3.9782934076887466,-3.549252568375089
13.49837412,-2.2776456823243127,-5.892646293794723,-4.866534739665701
13.50337412,-2.387225964739611,-7.756864449805241,-6.137030514759911
13.50837415,-2.5087141085845324,-9.52791901400147,-7.336646688747866
13.51337418,-2.6378901433617035,-11.165995351785694,-8.442756410911622
13.51837422,-2.7695897544718737,-12.6359565201701,-9.434489263188594
13.52337422,-2.8979016129450197,-13.908570920572224,-10.292961287600711
13.52837422,-3.0164043448297537,-14.961447953947289,-11.001460092949218
13.53337418,-3.1184340259301973,-15.779641781998203,-11.545601893548294
13.53837418,-3.1973717825936268,-16.35590199287423,-11.913477002626212
13.54337418,-3.246940018352418,-16.690569778981104,-12.095797976931614
13.54837422,-3.2614950546133974,-16.79113778857286,-12.086060517642128
13.55337422,-3.2363037449914205,-16.671509765949978,-11.88072174361216
13.55837422,-3.167792036922911,-16.351011226342504,-11.479394047417742
13.56337422,-3.0537545129719854,-15.853213735382775,-10.885045994062722
13.56837422,-2.893515497125135,-15.204642253095138,-10.104195250321837
13.57337422,-2.6880341371419303,-14.433437275992578,-9.147072951601904
13.57837418,-2.439947791323675,-13.56804141142241,-8.02773476515851
13.58337418,-2.153549966222089,-12.635974102716323,-6.764091647177813
13.58837418,-1.8347009499686955,-11.662749224012053,-5.377833275059787
13.59337422,-1.4906711778594801,-10.670978974560557,-3.8942195947659397
13.59837422,-1.1299192896680743,-9.679694719224262,-2.34172091535078
13.60337422,-0.7618088504624329,-8.703901931657404,-0.7514943860380857
13.60837418,-0.39626987787279755,-7.754372981982282,0.8433057846436298
13.61337415,-0.04341370994337873,-6.837668910851435,2.4083758081352156
13.61837411,0.2868876137509823,-5.956370162299378,3.909246647973892
13.62337411,0.5854434321035512,-5.109486944323026,5.312371699107926
13.62837411,0.8441910252750812,-4.293012726958635,6.58627209380033
13.63337415,1.0566268469370803,-3.5005795787005436,7.702683099351398
13.63837418,1.2182002438339128,-2.724171764596323,8.63763684508542
13.64337421,1.3266460979126227,-1.9548543594521124,9.372412576359755
13.64837421,1.382233120796985,-1.1834763901009833,9.8942878820344
13.65337421,1.3879071648365795,-0.40131276020818146,10.197034821000939
13.65837418,1.3493140813506104,0.3993845927891387,10.281123789338373
13.66337418,1.274693736702878,1.2249485603005446,10.153622638899266
13.66837418,1.1746445490382118,2.0799857777125847,9.827804220343575
13.67337421,1.0617650947896007,2.967197709082255,9.322497566536855
13.67837421,0.9501852567621639,3.887329820577448,8.661233547046056
13.68337421,0.8550039668653057,4.839235855240968,7.871244193905083
13.68837418,0.7916540907203705,5.820036238414475,6.9823765435888205
13.69337414,0.7752176780198549,6.825343215198289,6.02597794541518
13.69837411,0.8197168214752737,7.849521027653824,5.033801800347808
13.70337411,0.937406804176984,8.885947715548328,4.0369721254923645
13.70837414,1.1380990951441914,9.92724617729585,3.065033653037132
13.71337418,1.4285420262497457,10.965455944019268,2.145102850617924
13.71837421,1.811886461789518,11.992123582244423,1.3011261092529867
13.72337421,2.287262112973742,12.998298597242012,0.5532465631213693
13.72837421,2.8494870477825107,13.974432785312192,-0.08271806834934747
13.73337418,3.48892846062692,14.910193270491533,-0.5956788207764856
13.73837414,4.191527396830167,15.794211527821227,-0.9795460169947535
13.74337414,4.938994474585907,16.613801030967196,-1.2333496725406385
13.74837417,5.709178039145506,17.354683619876674,-1.3611935021268873
13.75337421,6.476600638927601,18.00076861674266,-1.3720311810143977
13.75837421,7.2131541337816,18.53402890902028,-1.2792610987470185
13.76337421,7.88893808369074,18.93451476289361,-1.100144949176253
13.76837421,8.473220377543488,19.180539327784995,-0.8550652497970481
13.77337421,8.935493491505294,19.249060077727783,-0.5666465661260147
13.77837421,9.246594521405456,19.11626836696249,-0.2587742101193188
13.78337417,9.379852465028085,18.758385534685686,0.044448082636754885
13.78837417,9.312222429593307,18.152649364729367,0.319754080574004
13.79337417,9.02536383823991,17.278460055838046,0.5457338236127417
13.79837421,8.506618655827845,16.11864107682278,0.7037647234372386
13.80337421,7.7498464184817895,14.660758188148986,0.7788092832544775
13.80837421,6.756075498639534,12.898430176922114,0.7600428478785162
13.81337417,5.533934439489947,10.832558022929556,0.6412864193332032
13.81837417,4.099833191026941,8.472395821086051,0.42123123032170917
13.82337417,2.4778715966608766,5.836387364186876,0.1034518735430276
13.82837421,0.6994614524025817,2.9526972401848814,-0.30378691133225943
13.8333742,-1.1973412802199563,-0.14062526611559775,-0.7879177418976011
13.83837421,-3.168786300308995,-3.3958974617188686,-1.3326342362535593
13.84337421,-5.166641244041225,-6.756500162902808,-1.9186070100338424
13.8483742,-7.139634908703784,-10.158029865653372,-2.524322847280048
13.85337421,-9.035088281830634,-13.52989245529924,-3.127012715528923
13.85837417,-10.80067929065683,-16.797299844091647,-3.70362971136097
13.86337414,-12.386277427266856,-19.883605712778554,-4.2318345891324025
13.86837414,-13.745776391514726,-22.71289250739171,-4.690944907873511
13.87337417,-14.838847254677058,-25.212700704160103,-5.062804553612744
13.8783742,-15.63253202141408,-27.316774917271136,-5.332533704753974
13.8833742,-16.10259845112509,-28.967691500086072,-5.489125183614072
13.8883742,-16.234582176246864,-30.119230498724338,-5.525861362639479
13.89337417,-16.02445221848318,-30.738362276418265,-5.440535969934872
13.89837414,-15.478851705592865,-30.80673615050993,-5.235476550861324
13.9033741,-14.614887225105567,-30.321584325564668,-4.917374842985971
13.9083741,-13.459466831369165,-29.29598759914442,-4.49694250015382
13.91337413,-12.048215547764157,-27.758486967025853,-3.9884172746746325
13.91837417,-10.424024473109823,-25.75206356027642,-3.4089494364898663
13.9233742,-8.635311827557963,-23.332544280659064,-2.7779001203898317
13.9283742,-6.734089418079244,-20.566518992561797,-2.116083105663659
13.9333742,-4.773935551018773,-17.528875740086647,-1.44497992226065
13.93837417,-2.807975808494895,-14.300073127085822,-0.7859556635838049
13.94337417,-0.8869672314592819,-10.963274373611165,-0.1594998905663964
13.94837417,0.9424295508181253,-7.601466541420794,0.4154860628581769
13.9533742,2.639120551618233,-4.294681987429932,0.9223368840898547
13.9583742,4.16873866945368,-1.1174282640850295,1.3471900561140855
13.9633742,5.504460145294618,1.8635815767968937,1.6794575028326488
13.96837416,6.627462059560639,4.591323079669178,1.912189872389705
13.97337413,7.527023470594936,7.019922125868072,2.0423232237806204
13.9783741,8.200289040790087,9.115647049066084,2.070800187827731
13.9833741,8.651728218551707,10.857413884627375,2.00256039212001
13.9883741,8.892334878580094,12.236807543141426,1.8463981059630181
13.99337413,8.938621464717633,13.257640924652966,1.6146886018358544
13.99837416,8.811467865848442,13.93509135560361,1.3229884407127381
14.0033742,8.534888296345871,14.294468229938275,0.9895185250626383
14.0083742,8.134779291689576,14.369676739980866,0.6345421854710811
14.0133742,7.637708691340919,14.201449939280552,0.27965380471771967
14.01837416,7.06979946463352,13.835425283796084,-0.053003339916706256
14.02337413,6.455753866869789,13.320142591523899,-0.3415681540592153
14.02837409,5.818053200253708,12.705038405706864,-0.5653167712877513
14.03337409,5.176356974580496,12.038507401735883,-0.7055138541924816
14.03837413,4.547113148452418,11.36609512200736,-0.746230287366228
14.04337416,3.943379036928264,10.728878368384175,-0.6750960698364835
14.04837419,3.3748410267833537,10.162080457375001,-0.48395685788067416
14.05337419,2.8480110236186964,9.693958659382433,-0.16940336653424173
14.05837419,2.3665690785328652,9.344990856286413,0.26685509653374306
14.06337416,1.9318153476952578,9.127378039544574,0.8177980815726076
14.06837416,1.5431907734174801,9.044868936278428,1.4711022047071376
14.07337416,1.1988248381101583,9.092902944507989,2.209362786200479
14.07837419,0.8960704182624629,9.259057814704768,3.0105329480185525
14.08337419,0.6319899083405625,9.52377928420888,3.848574419804121
14.08837419,0.40376297049854165,9.861361345994784,4.69430389834183
14.09337416,0.2089939862332555,10.241138244048212,5.516408331411033
14.09837412,0.04590600103728735,10.628842874245484,6.282592541472372
14.10337409,-0.08658291879650479,10.988081251618299,6.960813804106735
14.10837409,-0.18889608672707975,11.281869263093604,7.5205510049823445
14.11337409,-0.26093444191293075,11.474176191980812,7.934051394396214
14.11837412,-0.30229297612795325,11.531419551724245,8.177496132497131
14.12337416,-0.3125325966124427,11.423857595922449,8.232026975544267
14.12837419,-0.29147951082711754,11.126829368953615,8.084580831972275
14.13337419,-0.23952320414759654,10.621797164428072,7.728487092477906
14.13837419,-0.15788546681373197,9.897152702663321,7.163795277008855
14.14337416,-0.04883673033167712,8.948756328338602,6.397317332990846
14.14837416,0.08415828980314985,7.780188173434625,5.442387827216354
14.15337349,0.23637692165840807,6.402701377044268,4.3183633176797604
14.15837285,0.4018613874361218,4.834879592633269,3.0498970083550647
14.16337195,0.5735266572507948,3.1020134035153126,1.6660353411670872
14.16837105,0.7433466081098934,1.235222167634291,0.19918936583037591
14.17337015,0.9026075522235314,-0.729641356308014,-1.3159641994283617
14.17836949,1.0422149446704434,-2.7532569276598062,-2.8435990162359714
14.18336859,1.1530368772956705,-4.794219241661666,-4.347824193929343
14.18836789,1.2262668385529036,-6.810477871534848,-5.793698236188357
14.19336699,1.2537881102019746,-8.760773663397732,-7.14814159950544
14.19836609,1.2285229519014553,-10.606011329794695,-8.380728086368613
14.20336522,1.144751228477297,-12.310511542919174,-9.464345044283965
14.20836465,0.9983851904093117,-13.843091929543032,-10.375720449387511
14.21336465,0.7871895544642699,-15.177934875679375,-11.095821119557767
14.21836459,0.5109386746848014,-16.295210717657405,-11.61013055654682
14.22336369,0.17150527857682943,-17.181437277653266,-11.90881736991468
14.22836279,-0.2271221656715845,-17.8295701648007,-11.986806042024744
14.23336282,-0.6788939711437416,-18.23883202589638,-11.843761210305656
14.23836285,-1.1758239457411315,-18.414302062189247,-11.483995063730486
14.24336285,-1.7081805358851372,-18.366298631355345,-10.916305343777376
14.24836285,-2.264738656236075,-18.10959676753853,-10.153749175141465
14.25336218,-2.8330845191458076,-17.662528471783187,-9.213355665846478
14.25836219,-3.3999639281956413,-17.046016522786108,-8.115777944042877
14.26336178,-3.9516628864633265,-16.28259243385581,-6.884883255265968
14.26836175,-4.474408144126672,-15.39544624712889,-5.547278411470414
14.27336175,-4.954774539798319,-14.407550441765718,-4.131767801066206
14.27836175,-5.380085641873388,-13.340892823076553,-2.6687426884390346
14.28336232,-5.738794198510674,-12.215844458837216,-1.189503726756898
14.28836232,-6.020829218203811,-11.050679195914082,0.2744766848400102
14.29336232,-6.2178971407675645,-9.861251680728792,1.6923396741439733
14.29836228,-6.323725581160447,-8.660831720870211,3.0346536067081193
14.30336292,-6.334239639214511,-7.460084747650809,4.274230086443287
14.30836355,-6.247662893398435,-6.26718141165139,5.386909463499805
14.31336445,-6.064538028230445,-5.088014178019219,6.352277609158183
14.31836538,-5.787665564499313,-3.9264952850786012,7.1542726077125
14.32336632,-5.421963170552105,-2.78490855306966,7.781640682032405
14.32836702,-4.9742521143234395,-1.6642871061764228,8.22820653338012
14.33336792,-4.452980998549955,-0.5647898857353003,8.492935132091874
14.33836858,-3.8678995228836768,0.513948204603022,8.579779078301184
14.34336945,-3.2296965434147147,1.572514443511789,8.497325107521808
14.34837035,-2.549617500622124,2.611481896914049,8.25827099963518
14.35337058,-1.8390768368462707,3.631249297801,7.878776471077136
14.35837118,-1.1092815529889009,4.631960345237866,7.377736990753278
14.36337121,-0.3708824354256038,5.613497291392659,6.776028335541701
14.36837125,0.36633062174471503,6.575535746279717,6.095763721815653
14.37337211,1.093673716666469,7.5176409032772655,5.35959627753786
14.37837298,1.8037409668054238,8.439380481792004,4.590088843431811
14.38337294,2.490493022243138,9.34042694606332,3.809161708382831
14.38837291,3.14925565119583,10.220621216351407,3.0376180342414716
14.39337211,3.7766268773759504,11.079972338583884,2.2947378719261473
14.39837214,4.370296795038324,11.918572580013295,1.5979265574272075
14.40337284,4.928790300019699,12.736415149654201,0.9624032374948175
14.40837288,5.451148947136521,13.533111765516402,0.40092015764859346
14.41337328,5.936573196122681,14.307518629716428,-0.07648883990642652
14.41837328,6.384049845400569,15.057290707558796,-0.4627242195342753
14.42337324,6.79199125289872,15.778394273712257,-0.7537887540347501
14.42837324,7.157913047491639,16.464615558854522,-0.9488923302401459
14.43337271,7.478175569084571,17.107108441863772,-1.0504781677684456
14.43837274,7.747811368306316,17.69402620665584,-1.0641574366779694
14.44337274,7.960456880441076,18.21028134653537,-0.9985435343615915
14.44837274,8.108401024711211,18.637473338167755,-0.8649827982377423
14.45337274,8.182757187728178,18.95401743837928,-0.6771844710524169
14.45837274,8.173758120847177,19.13549821589454,-0.45075855068457155
14.46337274,8.071166081316253,19.155260161369082,-0.20267506384949271
14.46837271,7.86478349260521,18.98523485089153,0.04933812992739428
14.47337271,7.545042909231343,18.59699035157348,0.2874397027441799
14.47837271,7.103649517586561,17.962974471335958,0.4943409188549443
14.48337274,6.534245080411911,17.057909730970977,0.6539722625963107
14.48837277,5.833059346709771,15.860285288610656,0.7521289768456141
14.49337277,4.999513630098992,14.353880218745388,0.777073352572309
14.49837274,4.0367415708967656,12.529244265931816,0.7200712638094017
14.50337337,2.9519940540293748,10.385057114788195,0.5758404510017036
14.50837334,1.7568988256800422,7.92928588900781,0.34288857423450136
14.5133733,0.46755045995966926,5.180063409017288,0.023720221676784052
14.5183733,-0.8955871556418943,2.1662169082253127,-0.37510590593662363
14.52337334,-2.3079759179703174,-1.072611591560146,-0.8430851060052466
14.52837337,-3.7414976391358565,-4.486296499795671,-1.366050445281052
14.5333734,-5.165139464269287,-8.015035667227894,-1.926635221991049
14.5383734,-6.545853508618411,-11.590635516713979,-2.50490756308429
14.5433742,-7.849564606489811,-15.138252784642162,-3.079159374098345
14.54837417,-9.042291677732647,-18.578546509340427,-3.6268201706633496
14.55337417,-10.091340840983019,-21.830169192493653,-4.125455569213575
14.55837417,-10.966522401197178,-24.812502888708103,-4.553801635264458
14.5633742,-11.64133957471488,-27.448525974836755,-4.892780757383205
14.5683742,-12.094094600044723,-29.66768129763779,-5.126442752414208
14.5733742,-12.308857928576854,-31.408608061967737,-5.2427767460438375
14.57837417,-12.276248632394353,-32.62159964447965,-5.234345018463909
14.58337413,-11.993979193928812,-33.270658279721296,-5.0986992912478515
14.5883741,-11.467125832015965,-33.335035246469864,-4.838552545074904
14.5933741,-10.708096997872367,-32.81017106583325,-4.461694784747875
14.59837413,-9.736287966276466,-31.707982958512535,-3.980657992428459
14.60337417,-8.57742810500314,-30.056484197177028,-3.4121519503559563
14.6083742,-7.262647791631813,-27.89875873906787,-2.7763065751728764
14.61337423,-5.827311382999022,-25.291350584673516,-2.0957663058495375
14.61837423,-4.309678256132284,-22.302156990090733,-1.3946873502810346
14.6233742,-2.749463754250379,-19.00793579842353,-0.6976896307228265
14.62837416,-1.186375364230477,-15.491549399877474,-0.02881305958032642
14.63337416,0.3413027464038952,-11.839072041909034,0.589476586047292
14.63837416,1.7980104886915478,-8.136884693021251,1.1371925461490815
14.6433742,3.1520417881811147,-4.46887373708465,1.597609361463968
14.6483742,4.376460146237302,-0.9138376607646982,1.9578958478546107
14.6533742,5.449770121917985,2.456809290603099,2.209578907816555
14.6583742,6.356329171413827,5.580964759842106,2.3488252980463478
14.6633742,7.086497891552241,8.40734388797141,2.3765354138267702
14.6683742,7.636539149587952,10.89652826495988,2.2982498791298935
14.67337416,8.008287375334664,13.021541949296882,2.1238760776554066
14.67837416,8.208618142450598,14.767955757387115,1.8672476115519743
14.68337416,8.248754952869978,16.133537391271922,1.5455349945560581
14.6883742,8.143454894642513,17.127480280860745,1.1785306845051478
14.6933742,7.910117643687828,17.769258296681315,0.7878357885217657
14.6983742,7.567863141631951,18.08716636792148,0.39597925049167393
