Time (s),Acceleration x (m/s^2),Acceleration y (m/s^2),Acceleration z (m/s^2)
6.004528617,0.34691476390222653,-0.41845352316381007,0.2585525176350324
6.009528617,0.335773827307801,-0.33493911157594897,0.25658011105322853
6.014528583,0.3227779439598488,-0.25270732981377275,0.25393591100377716
6.019528583,0.30818350665093147,-0.17225284428388046,0.2505129324450207
6.024528583,0.29225829016189875,-0.09404782793460095,0.24619519123139202
6.029528616,0.2752774683370083,-0.018537271422896785,0.24085958279770397
6.034528616,0.25751977628610434,0.05386565251859082,0.2343780766120635
6.039527949,0.23926389449157318,0.12278414587604582,0.22662019869204078
6.044527915,0.22078512210349205,0.1878822268609834,0.21745576847815085
6.049527881,0.20235239473416636,0.2488690080938978,0.20675785154903803
6.054527847,0.18422568765040173,0.30550275185737674,0.19440588567437891
6.059527847,0.16665382877955798,0.3575946320736547,0.18028893405799606
6.06452788,0.14987272813912045,0.4050121236133336,0.1643090159758276
6.06952768,0.134104012174959,0.4476819330205799,0.14638446122563098
6.074527713,0.1195540341445356,0.4855923814817738,0.12645323089003943
6.079527713,0.10641321615428166,0.5187951514077442,0.10447614292041701
6.084527713,0.09485566565932645,0.547406312603887,0.08043993705750621
6.089527679,0.08503899983443529,0.5716065526135554,0.054360109855009664
6.094527645,0.07710430560983059,0.5916405481048177,0.02628344755572198
6.099527645,0.07117616143324648,0.6078154296026609,-0.003709817037056313
6.104527978,0.06736264886172061,0.6204983098003427,-0.035504297085815144
6.109528011,0.06575528765829336,0.630112865372425,-0.06894826404454789
6.114528011,0.06642883681580627,0.6371349828584939,-0.10385304450606353
6.119528011,0.06944091538941503,0.6420875000030766,-0.13999305805967782
6.124528011,0.07483141060662245,0.6455340941831799,-0.17710654223582006
6.129528011,0.08262165572785458,0.6480723885273751,-0.21489699850286992
6.134528011,0.09281337577518065,0.6503263633902213,-0.25303537985842867
6.139527977,0.10538741482016398,0.6529381755043334,-0.2911630260156996
6.144527977,0.12030227347510035,0.656559499119011,-0.3288953366429573
6.149527977,0.1374924991614627,0.6618425126748608,-0.3658261568220453
6.15452801,0.15686698430410895,0.6694306611017993,-0.40153283231388465
6.15952801,0.17830723852452895,0.6799493277664743,-0.4355818759179041
6.16452801,0.20166570992201205,0.6939965515795716,-0.46753517065967615
6.169527976,0.22676423741136817,0.7121339239704099,-0.4969566209800069
6.174527976,0.25339272062068846,0.7348777974893326,-0.5234191495823125
6.179527976,0.2813080958267807,0.7626909327909672,-0.5465119252301669
6.184528009,0.31023370557731567,0.795974703714511,-0.5658476959732166
6.189528675,0.339859145794672,0.8350619711442566,-0.581070093675357
6.194528675,0.3698406671816767,0.8802107254160307,-0.5918607699772229
6.199528675,0.39980219774123227,0.9315985844867758,-0.5979462213684456
6.204528675,0.4293370404132006,0.9893182213143111,-0.5991041619948854
6.209528675,0.4580102845732471,1.053373779402628,-0.5951693070407706
6.214528641,0.48536195292244466,1.1236783207393526,-0.5860384367260075
6.219528841,0.5109108867679047,1.20005233578507,-0.5716746208834662
6.224528841,0.5341593536104581,1.282223331091686,-0.5521104965453704
6.229528874,0.5545983421273982,1.3698264968284646,-0.5274505057857689
6.234528907,0.5717134918397511,1.4624064442769424,-0.4978720179595853
6.239528907,0.5849915885600511,1.559419992461461,-0.46362527908888707
6.244528907,0.5939275423827051,1.6602399736231739,-0.42503215110189824
6.249528873,0.5980317524769361,1.7641600191813733,-0.3824836245970449
6.254528539,0.5968377521392025,1.8704002809768072,-0.3364361105054164
6.259528505,0.5899100184151063,1.9781140366634233,-0.2874065381889688
6.264528505,0.5768518232482709,2.0863951227695097,-0.23596630975356117
6.269528538,0.557312997793464,2.194286133896645,-0.18273418210650805
6.274528571,0.5309974784114441,2.3007873215411347,-0.12836816890882569
6.279528604,0.49767050195006207,2.404866120892247,-0.07355657357816645
6.284528604,0.4571653190923106,2.505467228459812,-0.019008281650388214
6.289528604,0.4093892976673508,2.601523147345915,0.03455754402743538
6.29452857,0.3543292927732947,2.6919651103707603,0.08642220885286711
6.29952857,0.29205616733735307,2.775734284186913,0.1358785060233366
6.30452857,0.22272835537828117,2.8517931501333726,0.18224183608248576
6.309528603,0.14659437073548165,2.9191369501115,0.2248612485398802
6.314528603,0.06399417631590923,2.97680507852843,0.2631302269888946
6.319528603,-0.02464065708643022,3.023892294790865,0.29649704126620535
6.324528569,-0.11878805762745205,3.0595596254378234,0.3244744944852019
6.329528535,-0.21783786264245134,3.0830448211914967,0.34664889886539396
6.334528501,-0.32109555062366696,3.0936722322373003,0.362688122264673
6.339528501,-0.427787291970211,3.0908619650682656,0.3723485576786381
6.344528501,-0.5370662924138897,3.0741381864044643,0.3754808812589605
6.349528534,-0.6480203785980062,3.043136444222149,0.37203448095314406
6.354528567,-0.759680750282828,2.997609882956983,0.36206045759699607
6.3595286,-0.8710317989600933,2.937434239524292,0.34571312263513754
6.3645286,-0.9810218693348667,2.8626115188788095,0.32324994066896223
6.3695286,-1.0885748193287346,2.773272262357676,0.2950298897074078
6.374528566,-1.192602216983695,2.6696763389573483,0.26151023648902527
6.379528566,-1.292015999531129,2.55221220885481,0.22324174804865157
6.384528566,-1.385741411145488,2.4213946295977054,0.1808623836270084
6.389528599,-1.4727300314574403,2.2778607979544403,0.1350895330914455
6.394528599,-1.5519727065405815,2.122364943751995,0.0867108893522576
6.399528599,-1.62251219747342,1.9557714153885561,0.03657406285352625
6.404528599,-1.6834553682591529,1.7790463194599833,-0.014424934038498751
6.409528599,-1.7339847443627394,1.5932477987028182,-0.06535418630525855
6.414528599,-1.7733692849479954,1.3995150530802796,-0.11525919559986395
6.419528565,-1.8009742256668886,1.1990562282762594,-0.1631768407070474
6.424528565,-1.8162698641590527,0.9931353140724194,-0.2081497872187662
6.429528565,-1.8188391768003662,0.783058211974836,-0.24924114431350133
6.434528598,-1.8083841721981624,0.5701581468710692,-0.2855491595070679
6.439528598,-1.7847309040066426,0.35578061120693255,-0.3162217384729911
6.444528598,-1.7478330824979469,0.14126804189174297,-0.34047057632172995
6.449528564,-1.6977742408105427,-0.07205556045248783,-0.35758468875518323
6.454528564,-1.6347684278749994,-0.2828998535618303,-0.36694313595030004
6.459528564,-1.559159415726446,-0.49002299697023527,-0.36802673862816365
6.464528597,-1.4714184243341757,-0.6922458967747573,-0.3604285944146185
6.46952863,-1.3721403823075882,-0.8884656354431867,-0.3438632133294965
6.47452863,-1.2620387569382319,-1.077667878164331,-0.31817410422116565
6.47952863,-1.1419390020086024,-1.2589380590115324,-0.2833396594149579
6.48452863,-1.0127706865625266,-1.4314711657312051,-0.2394772029370965
6.48952863,-0.8755583822424368,-1.594579960991233,-0.18684508842932226
6.49452863,-0.7314114006571487,-1.747701500186206,-0.1258427561168289
6.499528596,-0.5815124853289292,-1.8904018312454582,-0.05700868361798205
6.504528596,-0.42710557486249523,-2.0223787902439536,0.018983807394728876
6.509528596,-0.26948276488693496,-2.14346283790785,0.10133289804163202
6.514528629,-0.10997060592726661,-2.253615916163234,0.18911675226933716
6.519528629,0.050084117268661014,-2.3529283402453705,0.2813040793366281
6.524528629,0.2093289719615866,-2.4416137796953055,0.3767666970893157
6.529528595,0.3664206691524178,-2.5200024195138138,0.4742939829720898
6.534528561,0.5200398935864526,-2.5885324292090726,0.5726090677769756
6.539528527,0.6689059973316195,-2.6477399007930247,0.6703865944321542
6.544528527,0.8117913747027989,-2.6982474454854684,0.7662718305557701
6.54952856,0.9475353294467199,-2.740751661902314,0.8589008891263454
6.554528593,1.0750572400179315,-2.776009705229061,0.9469217769132777
6.559528626,1.1933688266990983,-2.8048251971574913,1.0290159561501664
6.564528626,1.3015853263574682,-2.8280337204435075,1.103920072555878
6.569528626,1.3989353875982378,-2.8464881404080753,1.1704474736328994
6.574528592,1.4847695114270991,-2.861043989327655,1.2275091166596173
6.579528592,1.5585668803752,-2.872545139259772,1.2741334474322423
6.584528592,1.619940442220314,-2.881809975198199,1.3094848202050853
6.589528625,1.668640142673132,-2.889618264285832,1.332880028168975
6.594528658,1.7045542342961022,-2.8966988987819984,1.3438025239688767
6.599528658,1.7277086258589889,-2.903718671032301,1.3419139328129641
6.604528624,1.7382642763055762,-2.9112722180152324,1.3270624980161934
6.60952859,1.7365126791172476,-2.9198732511775614,1.2992881513388441
6.614528556,1.722869524452423,-2.9299471642786488,1.2588239685924976
6.619528522,1.6978666662830153,-2.941825088061889,1.206093853941876
6.624528522,1.662142558242895,-2.955739436190054,1.1417063918121118
6.629528555,1.6164313537307384,-2.9718209626177003,1.0664449094725645
6.634528588,1.5615508919577452,-2.990097327046577,0.981253901355543
6.639528621,1.4983898112974587,-3.0104931427574813,0.8872220726823373
6.644528621,1.427894043733528,-3.032831460082307,0.7855623596610006
6.649528621,1.351052948668839,-3.056836619026914,0.6775893713226547
6.654528587,1.2688853402988614,-3.082138386043395,0.5646947697168975
6.659528587,1.1824256501365293,-3.108277272781286,0.44832115811678014
6.664528587,1.0927104459689554,-3.1347109190713915,0.3299350808788083
6.66952862,1.0007655024976272,-3.1608214088147957,0.210999755269996
6.67452862,0.9075935900342379,-3.185923376507495,0.09294815651833895
6.67952862,0.8141631189110806,-3.2092727548851485,-0.022842937305293524
6.68452862,0.72139775099722,-3.230076012115713,-0.13507736513412355
6.68952862,0.630167067004052,-3.2474997315200747,-0.24256193997858558
6.69452862,0.5412783591166045,-3.260680398273578,-0.3442262789409268
6.699528586,0.45546960195595215,-3.268734274401721,-0.4391397175100671
6.704528586,0.37340363943792804,-3.2707672627205846,-0.5265250039797993
6.709528586,0.29566360938635716,-3.2658846792612013,-0.6057685594252553
6.714528619,0.22274961116573802,-3.2532008702323703,-0.6764271796276055
6.719528652,0.1550766040329064,-3.231848622896053,-0.7382311445196372
6.724528652,0.09297350533426216,-3.20098832980419,-0.7910837858720287
6.729528618,0.036683438114033406,-3.1598168730788068,-0.8350576434070561
6.734528584,-0.013634942422502485,-3.10757620037909,-0.8703874117903672
6.739528584,-0.057905133906385305,-3.043561567413229,-0.8974599442920972
6.744528584,-0.09612959183450227,-2.9671294237101233,-0.9168016313845676
6.749528617,-0.1283857787120977,-2.8777049190960726,-0.929063512246156
6.754528617,-0.15482159252656688,-2.7747890079580193,-0.9350045027311575
6.759528617,-0.17565031453644117,-2.65796512680511,-0.9354731347597588
6.764528617,-0.19114521325834244,-2.526905417834369,-0.9313882008704162
6.769528617,-0.2016339305667278,-2.3813764674507842,-0.9237186868569083
6.774528617,-0.20749275843082707,-2.2212445244986303,-0.9134633584717732
6.779527917,-0.20914089302910935,-2.0464801586938446,-0.9016303480817585
6.784527917,-0.20703472886044547,-1.8571623154313663,-0.8892170658422329
6.789527917,-0.20166223110190326,-1.6534817186794089,-0.8771907383625549
6.79452795,-0.19353740186552065,-1.4357435691948361,-0.8664698561531122
6.79952795,-0.1831948366659633,-1.2043694813039176,-0.8579067890987221
6.80452795,-0.17118435201829046,-0.9598985987730722,-0.8522718064834194
6.809527916,-0.1580656538819723,-0.7029878297145012,-0.8502387146777407
6.814527916,-0.14440301000938383,-0.43441114282724197,-0.8523723015732843
6.819527916,-0.1307598878107816,-0.15505787315536265,-0.859117751921985
6.824527949,-0.11769352379754268,0.13407000481583684,-0.8707921711013801
6.829527949,-0.10574940116977452,0.43186166574246637,-0.8875783255322925
6.834527949,-0.09545562785253658,0.737102296659032,-0.9095206754868975
6.839527949,-0.0873172264101002,1.0484790298042814,-0.936523740571331
6.844527949,-0.08181036737862138,1.364587920923366,-0.9683528007840522
6.849527949,-0.07937659643969323,1.6839419299415017,-1.004636898401685
6.854527915,-0.08041712203717168,2.004979843008985,-1.0448740698979115
6.859527881,-0.08528724286383925,2.3260760589915246,-1.0884387041093915
6.864527881,-0.0942910039918506,2.6455511501159514,-1.1345908935318096
6.869527881,-0.10767617640016673,2.96168309600371,-1.1824876198992809
6.874527914,-0.12562965746314303,3.2727190828660486,-1.2311955928642153
6.879527914,-0.14827338981979268,3.5768877551811773,-1.279705541556029
6.884527914,-0.1756608930618985,3.872411805591836,-1.3269477429442347
6.88952788,-0.20777449684142507,4.15752078989486,-1.3718085579703256
6.894527846,-0.244523355307912,4.430464057731387,-1.4131477359988236
6.899527812,-0.285742311615047,4.689523695679851,-1.449816240294518
6.904527812,-0.33119166844965925,4.93302738719992,-1.4806743425304385
6.909527845,-0.38055790708477605,5.159361102137606,-1.5046097333881931
6.914527878,-0.43345538383476256,5.3669815361836415,-1.5205553991094978
6.919527911,-0.4894290190642891,5.554428227144215,-1.527507019708592
6.924527911,-0.5479579801607392,5.720335279965406,-1.5245396526997632
6.929528577,-0.6084603463805928,5.863442636219753,-1.5108234762533403
6.934528543,-0.6702987303947576,5.982606826369105,-1.485638377603967
6.939528543,-0.7327868185565191,6.076811144752397,-1.448387186272455
6.944528543,-0.7951967790914254,6.145175188085741,-1.3986073671527242
6.949528576,-0.856767474349578,6.18696369839361,-1.335981005742272
6.954528576,-0.9167133999884957,6.201594650681523,-1.2603429368719252
6.959528576,-0.9742342606725451,6.188646524195762,-1.1716868893916619
6.964528542,-1.0285250788691895,6.147864693666622,-1.0701695425054418
6.969528508,-1.0787867208929356,6.079166873447061,-0.9561124147881099
6.974528474,-1.1242367127503063,5.982647543064771,-0.8300015341687742
6.979528474,-1.1641202077438506,5.858581277791852,-0.6924848660041854
6.984528474,-1.1977209583028907,5.707424903055903,-0.5443675063850449
6.989528507,-1.2243721362176365,5.529818387699741,-0.3866046785551248
6.99452854,-1.243466838522512,5.326584389129324,-0.22029260128933656
6.999528573,-1.2544681110324143,5.0987263640913385,-0.046657328805600876
7.004528573,-1.2569183185372585,4.847425162842421,0.13295830816264168
7.009528573,-1.2504476906011168,4.574034032219585,0.3171095016272634
7.014528539,-1.2347818754402302,4.280071964746217,0.5042658203904058
7.019528539,-1.2097483419117923,3.9672153463299926,0.6928289089577904
7.024528539,-1.1752814813958894,3.6372878740684627,0.881151300581243
7.029528572,-1.1314262772075168,3.292248737783944,1.0675560970555775
7.034528572,-1.078340428927734,2.9341790836801436,1.2503572556987008
7.039527905,-1.0162948424862268,2.565266805397213,1.4278802160698016
7.044527238,-0.9456724237139277,2.1877897361440786,1.5984825950788932
7.049527238,-0.8669651429911714,1.8040973449423618,1.7605746787214822
7.054527238,-0.7807693708855017,1.4165910698953637,1.9126394411501506
7.059527204,-0.687779518437234,1.0277034515388377,2.053251826589132
7.064526837,-0.5887800499724053,0.6398762595719673,2.181097036243469
7.069526837,-0.48463596984264334,0.2555378364089972,2.2949875705230696
7.07452687,-0.3762819161562509,-0.12292008929589913,2.3938787863894255
7.079527836,-0.2647100234201034,-0.49316583722534696,2.4768827404241547
7.084527836,-0.15095674148883229,-0.8529511490186512,2.543280100562251
7.089527802,-0.03608882021798249,-1.2001341672827042,2.592529923766737
7.094527768,0.07881131203705745,-1.5327016654229424,2.6242771137112846
7.099527768,0.19266053233263014,-1.8487901578887511,2.6383573922911943
7.104527801,0.3043901137163532,-2.1467055113646327,2.6347996423176125
7.109527834,0.4129606594708978,-2.42494067704371,2.6138255074133
7.114527834,0.5173766168592525,-2.682191174326675,2.575846170698526
7.119527834,0.6167001119744974,-2.917367978819575,2.521456278186369
7.124527834,0.7100638597148935,-3.1296075035953708,2.4514250274279847
7.129527834,0.7966829207506432,-3.3182784127508413,2.3666845075951315
7.134527834,0.8758650992482344,-3.4829850696105527,2.268315452846272
7.1395278,0.9470198003361705,-3.6235674966552187,2.1575306521303688
7.1445278,1.009665194723825,-3.740097807764484,2.035656336859132
7.1495278,1.0634335693315748,-3.8328731625259644,1.904111931843866
7.154527833,1.108074776633014,-3.9024053833582073,1.7643885950606644
7.159527833,1.1434577311022438,-3.949407464362112,1.618026984814747
7.164527833,1.1695699386203895,-3.974777281072728,1.4665946828641316
7.169527799,1.186515083735374,-3.9795788781083288,1.3116636783425426
7.174527799,1.1945087391929652,-3.9650217639940384,1.154788289869413
7.179527799,1.1938723002807743,-3.932438677754182,0.9974838787370467
7.184527832,1.185025281416944,-3.8832623102997657,0.8412066862867523
7.189528498,1.1684761429223085,-3.8190014663617005,0.6873351109618493
7.194529164,1.1448118416433481,-3.741217141568684,0.537152720006214
7.199529164,1.1146863201474921,-3.651498966308406,0.3918332623306208
7.204529164,1.078808165832997,-3.5514424352242244,0.2524279101704056
7.209529164,1.0379276835093127,-3.4426273003521035,0.1198549090074624
7.214529497,0.99282363249859,-3.3265974585889286,-0.005108238138104797
7.219529463,0.944289881647905,-3.204842611947193,-0.12182997995279411
7.224529463,0.8931222325756747,-3.0787819234953715,-0.2298272990564802
7.229528529,0.8401056530621629,-2.949749834739679,-0.328765694664196
7.234528562,0.7860021490357103,-2.8189841532962063,-0.41845663799665533
7.239528562,0.7315394855690046,-2.6876164647575482,-0.49885261527935637
7.244528562,0.6774009452570098,-2.556664871063298,-0.5700399137949271
7.249528528,0.624216286924331,-2.4270290104012173,-0.6322293448561478
7.254527628,0.5725540394327416,-2.2994872713168175,-0.6857451327067134
7.259527594,0.5229152350714495,-2.174696076715474,-0.731012228822514
7.264527594,0.47572865531854025,-2.053191082114486,-0.7685423355903308
7.269527627,0.4313476294252568,-1.9353901070607225,-0.7989189410647862
7.27452766,0.390048394015967,-1.8215975992049054,-0.8227816771073653
7.279527693,0.3520299902724021,-1.712010417205071,-0.8408103166236202
7.284527693,0.31741564465826855,-1.6067247114951813,-0.8537087219072217
7.289527693,0.2862555498696711,-1.5057436810221418,-0.862189045569762
7.294527659,0.25853093522807713,-1.4089859891917507,-0.8669564688796384
7.299527659,0.2341592907359866,-1.3162946330598753,-0.868694740678208
7.304527659,0.21300058729624957,-1.227446075474894,-0.8680527547467485
7.309527692,0.194864317910629,-1.14215946927392,-0.865632375858239
7.314527692,0.1795171715456545,-1.0601058244149322,-0.8619776957704093
7.319527692,0.16669114298831864,-0.9809169917935459,-0.8575658707437798
7.324527658,0.15609187833167956,-0.9041943603829615,-0.852799662109613
7.329527624,0.14740705649314378,-0.8295171864765342,-0.8480017710357366
7.33452759,0.14031461211752708,-0.7564504946725693,-0.8434110279128184
7.33952759,0.13449061414400007,-0.6845525094208991,-0.839180465750303
7.34452759,0.12961662705070148,-0.6133815930810778,-0.835377275853829
7.349527623,0.12538639816372005,-0.5425026811312958,-0.8319846132388086
7.354527656,0.12151173421243025,-0.4714932170414844,-0.8289051891556171
7.359527689,0.11772745320150378,-0.3999485981457418,-0.8259665591808977
7.364527689,0.11379532319065583,-0.3274871495996787,-0.8229279879365708
7.369527689,0.1095069272214247,-0.25375464634973827,-0.8194887459147686
7.374527655,0.10468542292726735,-0.17842840322071468,-0.8152976703477326
7.379527655,0.0991861957897334,-0.10122095104188002,-0.8099638009129762
7.384527655,0.09289643589020996,-0.0218833125920479,-0.8030678828549693
7.389527688,0.08573369851065615,0.05979211334699906,-0.7941745154513973
7.394527688,0.07764353807969077,0.14396905760894496,-0.7828447130997076
7.399527688,0.06859633167834044,0.23076527957788498,-0.7686486398122188
7.404528554,0.05858343154444324,0.3202508681271927,-0.7511782755344564
7.409528554,0.047612804797011674,0.41244695709565526,-0.7300597743131252
7.414528554,0.03570433222683828,0.5073248702979252,-0.7049652798588937
7.41952852,0.02288494604407225,0.6048057120564325,-0.6756239735233415
7.42452852,0.009183788794613608,0.7047604186966997,-0.6418321432762482
7.42952852,-0.005372427667966601,0.8070102843140361,-0.6034620799615253
7.434528553,-0.020763693018007536,0.9113279703639527,-0.5604696286102036
7.439528553,-0.03698044284101867,1.017439003287496,-0.5129002471568629
7.444528553,-0.05402663899182499,1.125023757614712,-0.46089345157868594
7.449528519,-0.07192207151581516,1.233719914072907,-0.40468555436279496
7.454528519,-0.09070379487964161,1.3431253735050606,-0.3446106316282166
7.459528519,-0.11042664157925543,1.452801598265716,-0.2810996826636445
7.464528552,-0.131162788381932,1.5622773436791804,-0.2146779736317409
7.469528585,-0.15300038289798623,1.6710527336961905,-0.14596058430441114
7.474528585,-0.17604126921528404,1.7786036276882127,-0.07564620259540755
7.479528585,-0.2003978795685937,1.8843862198879402,-0.004509236254535965
7.484528585,-0.22618938354368032,1.9878418095965424,0.0666096653762526
7.489528585,-0.25353720676464603,2.0884016789595163,0.1368145637798676
7.494528585,-0.2825600473768382,2.1854920157671165,0.20516651977684303
7.499528551,-0.31336853098940737,2.2785388212550832,0.2706970586942993
7.504528551,-0.3460596531027901,2.3669727471297657,0.3324226329996609
7.509528551,-0.380711162494598,2.450233811761935,0.389359885462414
7.514528584,-0.4173760398286278,2.527775952255151,0.4405415000783406
7.519528584,-0.4560772232280036,2.59907137631377,0.4850324138002205
7.524528584,-0.4968027269431072,2.663614684887646,0.5219461495199174
7.52952855,-0.5395012906031011,2.7209267429762005,0.5504610200579417
7.534528516,-0.5840786848317527,2.7705582815341026,0.5698359447636988
7.539528482,-0.6303947841950668,2.812093218166915,0.5794256156295337
7.544528482,-0.6782615005702696,2.8451516883467187,0.5786947497413755
7.549528515,-0.7274416493403665,2.869392782314682,0.5672311705489625
7.554528548,-0.7776487979464088,2.8845169857563926,0.5447574723819817
7.559528581,-0.8285481222718568,2.8902683247795014,0.5111410404385912
7.564528581,-0.8797582722452625,2.886436217638207,0.4664022208696718
7.569528581,-0.9308542248614041,2.872857036896414,0.41072046109349347
7.574528547,-0.9813710810382007,2.8494153861738885,0.3444382680245334
7.579528547,-1.0308087425732302,2.816045095285003,0.26806286104908333
7.584528547,-1.0786373872440815,2.772729936636375,0.1822654273041689
7.58952858,-1.1243036443985723,2.7195040644486466,0.08787791910368546
7.594528613,-1.167237360922916,2.656452176911035,-0.014112632954048068
7.599528613,-1.2068588387560635,2.5837093998833716,-0.12257228275320607
7.604528579,-1.2425864202377885,2.5014608892717023,-0.23623076291466913
7.609528545,-1.2738442963748482,2.4099411477011854,-0.3536944296302482
7.614528511,-1.3000704153525549,2.3094330495809374,-0.47346144096973125
7.619528477,-1.3207243739918684,2.2002665672195656,-0.5939390167573614
7.624528477,-1.3352951827571093,2.082817189653339,-0.7134625955424406
7.62952851,-1.343308804381978,1.9575040258181795,-0.8303166741712664
7.634528543,-1.3443353760381895,1.8247875851319424,-0.9427570879139306
7.639528576,-1.3379960341970702,1.6851672316639392,-1.0490344637042852
7.644528576,-1.3239692692540526,1.5391783126393295,-1.1474185555395073
7.649528576,-1.3019967432831414,1.387388967516177,-1.2362231494248548
7.654528542,-1.2718885088966234,1.230396629648035,-1.3138312057154677
7.659528542,-1.233527570183598,1.068824238064094,-1.378719889794406
7.664528542,-1.1868737283108073,0.903316181790792,-1.4294851283289627
7.669528575,-1.1319666550096135,0.7345340032211508,-1.4648653185019824
7.674528575,-1.0689281374466588,0.5631518903276945,-1.4837638122735166
7.679528575,-0.9979634385635421,0.3898519902058968,-1.4852697975276723
7.684528575,-0.9193617185305516,0.21531957883572342,-1.468677203485006
7.689528575,-0.8334954660859382,0.040238124401249735,-1.4335012695018625
7.694528575,-0.7408188937377397,-0.13471571568655116,-1.3794924346772663
7.699528541,-0.6418652584878685,-0.3088771205589155,-1.3066472307054326
7.704528541,-0.537243080152909,-0.48159810695758554,-1.2152158921245966
7.709528541,-0.4276312426018073,-0.6522524535740892,-1.1057064363324076
7.714528574,-0.31377297926291975,-0.8202404918150322,-0.978885010151461
7.719528607,-0.19646876293534363,-0.9849937014969646,-0.8357723499867811
7.724528607,-0.07656814111128225,-1.1459790460247667,-0.6776362584266932
7.729528573,0.04503941849083485,-1.3027029788458122,-0.5059800612452959
7.734528539,0.1674345819316615,-1.4547150517086065,-0.3225270747994375
7.739528539,0.2896789852444543,-1.6016110555607375,-0.12920118410604098
7.744528539,0.4108267076513875,-1.7430356266720095,0.07189629461010005
7.749528572,0.5299362091815206,-1.8786842535785517,0.2785132177682957
7.754528572,0.6460825341727388,-2.0083046245963536,0.4882763600041353
7.759528572,0.7583695591212676,-2.131697260952612,0.6987239028397757
7.764528572,0.8659420446808627,-2.2487153871552406,0.907340197437569
7.769528572,0.9679972388594893,-2.359263998345705,1.1115922675437468
7.774528572,1.0637957730425833,-2.4632980946032617,1.3089674612568798
7.779528538,1.1526715955864182,-2.5608200653608546,1.4970116119725363
7.784528538,1.2340407002892133,-2.651876224263333,1.6733670314335742
7.789528538,1.3074084295482677,-2.7365525166603843,1.835809632849179
7.794528571,1.3723751643326083,-2.8149694484606025,1.9822844711238883
7.799528571,1.4286402544839676,-2.8872763152446512,2.1109389919970556
7.804528571,1.476004091912866,-2.9536448421789965,2.2201533039804167
7.809528537,1.514368283886907,-3.014262375256675,2.3085668279137628
7.814528537,1.5437339410104933,-3.069324789248364,2.3751007397713013
7.819528537,1.5641981514302743,-3.119029294656005,2.418975702882642
7.82452857,1.5759487660975087,-3.1635673335476655,2.4397244838492225
7.82952857,1.579257666930876,-3.203117752536905,2.4371991579528527
7.83452857,1.574472728593666,-3.2378404314152225,2.4115727294851848
7.83952857,1.5620087143347128,-3.267870529500342,2.363335115210045
7.84452857,1.5423373666790285,-3.293313490182193,2.293283561352398
7.84952857,1.5159769648400512,-3.314240918953764,2.202507683456303
7.854528536,1.4834816228465562,-3.3306874227626597,2.092369431980101
7.859528502,1.4454305959166016,-3.3426484699127927,1.9644783923569078
7.864528502,1.402417848141518,-3.350079300817796,1.8206629241473915
7.869528502,1.3550421128502164,-3.3528948912886243,1.662937727749336
7.874528535,1.3038976490785372,-3.3509709422361307,1.4934684971543537
7.879528535,1.249565864567833,-3.34414584303646,1.3145343719940903
7.884528535,1.1926079390776054,-3.3322235303676186,1.128488940165831
7.889528501,1.1335585429350636,-3.3149771398432697,0.9377205621077186
7.894528467,1.0729207058742833,-3.292153324523076,0.7446127880829684
7.899528433,1.0111618515337264,-3.2634770942880946,0.5515056209004219
7.904528433,0.9487109751473662,-3.228657016744297,0.3606583408218297
7.909528466,0.8859569083231256,-3.1873906172242856,0.17421456075854183
7.914528499,0.8232475877680696,-3.139369823710964,-0.005829878585385995
7.919528532,0.7608902257273071,-3.0842863204917115,-0.1776556306504386
7.924528532,0.6991522682939244,-3.021836699102017,-0.3396447135069278
7.929528532,0.6382630217526449,-2.951727323553903,-0.49040114213208535
7.934528498,0.5784158245605409,-2.873678856084499,-0.6287670239028817
7.939528498,0.5197706418995502,-2.7874304171499538,-0.7538339117678498
7.944528498,0.4624569603794137,-2.692743377212575,-0.8649493055282405
7.949528531,0.4065768626264331,-2.589404796851796,-0.961718288659194
7.954528531,0.35220816573000385,-2.4772305453145087,-1.044000384429914
7.959528531,0.29940751435642204,-2.356068135843162,-1.1119018088807644
7.964528497,0.2482133289969907,-2.2257993196655064,-1.1657633871883981
7.969528463,0.1986485221998701,-2.0863424805320374,-1.2061444816912954
7.974528429,0.15072291053725032,-1.93765486926954,-1.2338033524509162
7.979528429,0.10443526736362897,-1.7797347137444224,-1.249674433396894
7.984528429,0.059774980987599376,-1.612623234316116,-1.2548430577495278
7.989528462,0.01672330416598881,-1.4364065886304413,-1.2505182043657312
7.994528495,-0.024745797311333046,-1.2512177628374634,-1.238003860959059
7.999528528,-0.06466516821410766,-1.05723841939491,-1.218669610394451
8.004528528,-0.1030743120795216,-0.8547007047587288,-1.1939210424380555
8.009528528,-0.1400195004340364,-0.6438890134462258,-1.1651705753513277
8.014528494,-0.17555406641216445,-0.42514169795204754,-1.1338092394267825
8.019528494,-0.2097387964124081,-0.19885270652624462,-1.1011799286690787
8.024528494,-0.24264232745105083,0.0345268772344058,-1.068552569619259
8.029528527,-0.274341456152586,0.27448742755969957,-1.037101591430288
8.034528527,-0.3049212679822808,0.5204595456406178,-1.0078860126334488
8.039528527,-0.3344750021277368,0.7718130558996245,-0.9818323907836702
8.044528127,-0.36310357806189014,1.027856286884444,-0.9597208134241432
8.049528127,-0.39091472410137146,1.2878356980003902,-0.9421740436418783
8.054528127,-0.41802166600126955,1.550935914060063,-0.9296498713645867
8.059528093,-0.4445413542293468,1.8162802276509176,-0.9224366629103475
8.064528093,-0.4705922309160919,2.082931625103697,-0.9206520470203291
8.069528093,-0.4962915599730228,2.349894385887979,-0.9242446270916519
8.074528126,-0.5217523648684266,2.6161162980649273,-0.9329985681029263
8.079528126,-0.5470800369703858,2.880491524626197,-0.9465408736137516
8.084528126,-0.5723686928937317,3.141864147870703,-0.9643511427578151
8.089528092,-0.597697372029433,3.3990324119701056,-0.9857735777742762
8.094528058,-0.6231261754908953,3.6507536776761107,-1.0100309974673554
8.099528024,-0.64869245499308,3.8957500974193016,-1.036240599596091
8.104528024,-0.6744071645127222,4.132715013276524,-1.0634312047442045
8.109528024,-0.7002514888925122,4.360320073831362,-1.090561705334057
8.114528057,-0.7261738619514115,4.577223058306369,-1.1165404360661733
8.11952809,-0.7520874823083192,4.782076387166738,-1.140245176401641
8.124528123,-0.7778684281083601,4.973536287572374,-1.1605434921912
8.129528123,-0.8033544621912706,5.150272569770983,-1.1763131226895576
8.134528123,-0.8283446070321938,5.310978957285157,-1.1864621213991684
8.139528089,-0.8525995542106541,5.454383900293042,-1.1899484647590148
8.144528089,-0.875842956576353,5.579261788677637,-1.185798851795403
8.149528089,-0.897763633183531,5.684444469303332,-1.1731264304972258
8.154528122,-0.9180186980260053,5.768832961300884,-1.1511472027015734
8.159528122,-0.9362376041277517,5.831409253470943,-1.1191948783714556
8.164528122,-0.9520270750017076,5.871248059414464,-1.076733971980481
8.169528088,-0.9649768761262423,5.887528398897547,-1.0233709579985422
8.174528054,-0.9746663600475047,5.87954486851799,-0.9588633289202025
8.17952802,-0.9806717001020927,5.846718461085494,-0.883126427557668
8.18452802,-0.9825737097655258,5.788606791227495,-0.7962379550519594
8.189528053,-0.9799661276617434,5.70491358450997,-0.6984400869339877
8.194528486,-0.972464232837496,5.595497288754194,-0.5901391614470103
8.199528519,-0.9597136414303012,5.460378669137938,-0.4719029371468654
8.204528519,-0.9413991245010004,5.299747252932609,-0.34445545031393515
8.209529052,-0.9172532775684378,5.1139664952360775,-0.20866953649200176
8.214529018,-0.8870648653486245,4.90357754389412,-0.06555711394376879
8.219528984,-0.8506866606138727,4.6693014902210574,0.08374264051989029
8.224528984,-0.8080425943596514,4.412040002417493,0.2379770614148172
8.229529017,-0.7591340361346797,4.132874250899614,0.39579551841099864
8.23452905,-0.7040450290129557,3.833062049087551,0.5557664747768895
8.23952905,-0.6429463136398499,3.5140331494004933,0.7163958365581895
8.24452905,-0.5760979901172655,3.1773826520541166,0.8761463279667628
8.24952905,-0.5038506850201954,2.8248625035393453,1.0334576124765156
8.25452905,-0.4266451133673076,2.4583710822427096,1.1867668682524968
8.25952905,-0.34500995186016425,2.0799408905078978,1.3345295208084498
8.264529016,-0.2595579702580111,1.691724395574442,1.4752398348583975
8.269529016,-0.17098040244094362,1.295978086326311,1.607451070639217
8.274529016,-0.0800395773147464,0.8950448386489134,1.7297949169762974
8.279529049,0.01244012850905112,0.49133470933539036,1.8409999237197014
8.284529049,0.10558291059371731,0.08730430674760309,1.939908669854206
8.289529049,0.19847357921138145,-0.31456508431299884,2.0254934206204687
8.294529015,0.29017083121810394,-0.7117904158934414,2.0968700472240105
8.299529015,0.379721516592527,-1.1019105895627814,2.153310005690735
8.304529015,0.46617562688150754,-1.4825106975234517,2.194250196348381
8.309529048,0.5486016995662466,-1.8512464881692055,2.2193005511526818
8.314529048,0.6261023060930498,-2.20586871900231,2.228249221520838
8.319529048,0.6978292747242506,-2.544247028517728,2.221065264118807
8.324529048,0.762998295447451,-2.864392931978377,2.197898747420164
8.329529048,0.8209025653137003,-3.1644815271924545,2.159078231184484
8.334529048,0.8709251593288752,-3.4428714884046276,2.105105609368481
8.339529014,0.9125498522454702,-3.6981229314608393,2.036648359077781
8.34452898,0.9453701655956978,-3.929012753130586,1.9545293046662076
8.34952898,0.969096466416381,-4.134547083221381,1.859714080682199
8.354529013,0.9835609947667449,-4.313970540860845,1.753296547732859
8.359528513,0.988720743987933,-4.466772055888626,1.6364824687242827
8.364528513,0.9846581606342955,-4.59268710070215,1.5105717824564109
8.369528513,0.9715796716707835,-4.69169627323032,1.3769398185129749
8.374528479,0.9498120866976809,-4.764020272525372,1.2370177886612201
8.379528479,0.9197969631816478,-4.81011140837247,1.0922728736689478
8.384528479,0.882083061744902,-4.830641878828512,0.944188207446918
8.389528512,0.8373170545232878,-4.826489129302975,0.7942430477326969
8.394528512,0.7862326808876842,-4.7987186703293006,0.6438934161647624
8.399528512,0.7296385705882233,-4.748564777282461,0.49455348828941725
8.404528512,0.6684049741839457,-4.677409524008277,0.3475780101248882
8.409528512,0.6034496541729669,-4.586760614282341,0.20424600662353304
8.414528512,0.5357231974772885,-4.478228471396386,0.06574602604545245
8.419528478,0.46619401122890675,-4.353503028875281,-0.06683686607561798
8.424528478,0.3958332599832469,-4.214330636821265,-0.1925321658948757
8.429528478,0.3255999946178812,-4.0624914612777685,-0.3104929445076414
8.434528511,0.25642671223525093,-3.8997777107862315,-0.4200026961179669
8.439528511,0.18920557307609248,-3.7279729772686343,-0.5204799605569899
8.444528511,0.12477548516798984,-3.5488329295831935,-0.6114806981057708
8.449528477,0.06391025035296045,-3.364067549360142,-0.692698433368403
8.454528443,0.00730794646717623,-3.1753250514638385,-0.763962224076185
8.459528409,-0.044418300316888336,-2.984177586702766,-0.8252325494133692
8.464528409,-0.09074802174493472,-2.7921087829441236,-0.8765952494062054
8.469528409,-0.13125948583355695,-2.6005031430848224,-0.9182536807847884
8.474528442,-0.16563406724374174,-2.410637284755337,-0.9505192845827282
8.479528475,-0.19365885719972606,-2.2236729774538917,-0.9738007860316544
8.484528508,-0.21522748873082884,-2.040651908176047,-0.9885922675871738
8.489528508,-0.23033918147783652,-1.8624920865496792,-0.9954603706361669
8.494528508,-0.23909603869077004,-1.6899857849804973,-0.9950308899581695
8.499528474,-0.2416986572556481,-1.5237988983883195,-0.9879750268640115
8.504528474,-0.23844013965374897,-1.3644716018979897,-0.9749955620122136
8.509528474,-0.22969862458001752,-1.212420183431038,-0.9568131976273866
8.514528507,-0.21592848005618115,-1.0679399313346059,-0.9341533021456573
8.519528507,-0.19765032843060923,-0.9312089643504219,-0.9077332695258993
8.524528507,-0.1754400957008998,-0.802292901333342,-0.8782506821523509
8.529528473,-0.14991729731444892,-0.6811502799465234,-0.8463724419078822
8.534528439,-0.12173278843905569,-0.5676386458941554,-0.8127250097464673
8.539528405,-0.09155621825790214,-0.4615212460627579,-0.7778858705790814
8.544528405,-0.06006343477578096,-0.36247426935680127,-0.7423763177250787
8.549528438,-0.0279240886076584,-0.270094587330563,-0.7066556294862711
8.554528471,0.004210318920285184,-0.18390795243936692,-0.6711166893197771
8.559528504,0.03571770627841017,-0.10337761460844641,-0.6360830803343247
8.564528504,0.06601577701357299,-0.027913316827148545,-0.6018076641976075
8.569528504,0.09457127410091275,0.04311937221038226,-0.5684726338951047
8.57452847,0.1209079406447138,0.11038943544622404,-0.5361910090805759
8.57952847,0.1446130319156521,0.17459054873765661,-0.5050095220404452
8.58452847,0.16534225588586315,0.23643104823412012,-0.4749128216475066
8.589528503,0.18282305558432888,0.29662379483852036,-0.44582890221939403
8.594528536,0.19685618601207078,0.3558760155734117,-0.4176356441151043
8.599528536,0.20731558000656314,0.41487920999735456,-0.3901683335561815
8.604528536,0.21414654005576195,0.4742992172243358,-0.3632280110564849
8.609528536,0.21736233523311857,0.5347665452755163,-0.33659048148947
8.614528536,0.2170393227347157,0.5968670691878932,-0.31001580459123695
8.619528536,0.21331075057321738,0.661133207305205,-0.2832580729152226
8.624528502,0.2063594305701581,0.7280356863022444,-0.2560752753922381
8.629528502,0.19640949787728545,0.7979760046098269,-0.2282390394334528
8.634528502,0.18371749414980115,0.8712797009142818,-0.19954404381429686
8.639528535,0.16856302576157858,0.9481905291996459,-0.16981689912867265
8.644528535,0.15123925585182244,1.0288656342557405,-0.13892430268226477
8.649528535,0.1320434894218725,1.1133718115737508,-0.10678028994290385
8.654528501,0.11126810418338863,1.2016829230429449,-0.07335242420801406
8.659528501,0.08919206652758438,1.2936785248900127,-0.03866678892048099
8.664528501,0.06607325208906195,1.389143747006481,-0.0028116720816761167
8.669528534,0.04214176433351314,1.4877704434741221,0.03406014140110818
8.674528534,0.017594413057473494,1.5891596132060735,0.07173052667947329
8.679528534,-0.007409521403713436,1.6928250678301064,0.10991665578298462
8.684528534,-0.03275115183836735,1.798198302016965,0.14827311878582516
8.689528534,-0.05835343036856676,1.9046345002601581,0.18639550856724804
8.694528534,-0.08418117296713738,2.0114195945724185,0.2238254240689183
8.6995285,-0.11023969737362894,2.117778270564089,0.2600568238064508
8.7045285,-0.1365721455876947,2.22288280561706,0.29454363991946775
8.7095285,-0.1632555938782591,2.3258626127942907,0.326708543692333
8.714528533,-0.1903960801146745,2.425814357792596,0.3559527363787917
8.719528566,-0.21812270017529858,2.5218125132975615,0.3816666239072642
8.724528566,-0.24658094259508181,2.612920214840739,0.4032412197307763
8.729528532,-0.27592544386808654,2.6982002839075077,0.42008010577318206
8.734528498,-0.3063123559429965,2.7767262870053586,0.4316117666957883
8.739528464,-0.33789152209113693,2.8475935034126656,0.43730209797041075
8.74452843,-0.3707986571487914,2.9099296793733345,0.43666687460737585
8.74952843,-0.4051477231494817,2.9629054525973455,0.4292839563452339
8.754528463,-0.4410236819719856,3.0057443379423767,0.4148049982118989
8.759528496,-0.47847579351069586,3.03773217281494,0.392966433894071
8.764528529,-0.5175116118505977,3.058225928835263,0.3635995039815513
8.769528529,-0.5580918138415979,3.066661804426843,0.32663911175053173
8.774528529,-0.6001259750191948,3.0625625211043244,0.28213130485095317
8.779528495,-0.6434693874820422,3.045543754329099,0.23023920086366972
8.784528495,-0.6879209933583952,3.0153196379322833,0.17124719712943798
8.789528495,-0.7332224859620311,2.971707289348114,0.10556332990309907
8.794528528,-0.7790586087003426,2.9146303113311176,0.03371967457399022
8.799528528,-0.8250586593940956,2.8441212344999327,-0.04362929256672499
8.804528528,-0.8707991852169604,2.7603228739817243,-0.12571041979950148
8.809528494,-0.9158078314236963,2.6634885825992622,-0.21163770896302855
8.81452846,-0.9595682859066241,2.5539813923564267,-0.30042023018126446
8.819528426,-1.0015262418400106,2.432272045275998,-0.39097206922170324
8.824528426,-1.041096282612853,2.298935923724254,-0.4821242180887721
8.829528459,-1.0776695773368323,2.154648899028876,-0.5726382828997598
8.834528492,-1.110622262042905,2.0001821253408587,-0.6612218474548174
8.839528525,-1.1393243718808097,1.8363958133346616,-0.7465452977822068
8.844528558,-1.1631491835217729,1.6642320257119687,-0.8272598838592179
8.849528558,-1.181482824286136,1.4847065439620104,-0.9020167707132627
8.854528524,-1.1937340045748452,1.2988998638447855,-0.969486812554471
8.85952849,-1.199343732112964,1.1079473859096254,-1.028380770260839
8.86452849,-1.1977948694803022,0.9130288772007757,-1.0774696837619602
8.86952849,-1.1886213996914503,0.7153572911135126,-1.1156051056728735
8.87452879,-1.1714172676811174,0.5161670438994231,-1.1417388999141047
8.879527923,-1.145844668225943,0.3167018581185945,-1.154942308349731
8.884527056,-1.1116416532109186,0.11820229482642508,-1.1544239895469426
8.889526189,-1.0686289337062032,-0.0781068931224009,-1.1395467369116183
8.894525289,-1.01671575578741,-0.2710294450394012,-1.109842589186307
8.899525289,-0.9559047341369505,-0.45941016433382204,-1.065026055145116
8.904525255,-0.8862955347227641,-0.6421472228317808,-1.005005186786911
8.909525255,-0.8080873075695186,-0.8182040369072515,-0.9298902518228082
8.914525255,-0.7215797830292714,-0.9866205512910448,-0.8399997770678508
8.919525288,-0.6271729602002242,-1.146523764779234,-0.7358637597184122
8.924525288,-0.5253653343531209,-1.29713733292502,-0.6182238736768896
8.929525288,-0.41675063146018654,-1.4377900867263107,-0.4880305333106781
8.934525254,-0.3020130421760536,-1.5679233137553588,-0.3464367174309298
8.939525254,-0.18192097478037572,-1.687096659368799,-0.19478850177660567
8.944525254,-0.05731937634054721,-1.7949925206346322,-0.034612298582641324
8.949525287,0.07087929693093939,-1.89141882433826,0.13240114364204314
8.95452442,0.20170534647622268,-1.9763101027782708,0.30441586896901157
8.95952442,0.3341431894617006,-2.049726806906483,0.4794727998838428
8.96452442,0.4671436319623786,-2.1118528253963027,0.6555145467651575
8.96952442,0.5996368540955448,-2.162991209790776,0.8304126462598782
8.97452442,0.7305458810804774,-2.2035581391110703,1.0019968741196257
8.979524386,0.8588002962619593,-2.2340751914059926,1.1680862215045185
8.984524352,0.9833499400024722,-2.255160024114142,1.326521071685331
8.989524352,1.103178332919209,-2.26751559922466,1.4751960678605252
8.994524252,1.217315563904805,-2.27191812221089,1.612093123916301
8.999524285,1.3248503931417517,-2.269203894329577,1.7353139999785594
9.004524285,1.4249413379819433,-2.2602553046858804,1.8431118450685733
9.009524285,1.516826534701174,-2.2459862101687498,1.9339211012705337
9.014523785,1.5998322008645798,-2.2273269669282865,2.006385168422246
9.019523785,1.6733795601887156,-2.205209385614448,2.059381246339871
9.024523518,1.7369901329561637,-2.1805518834941853,2.0920418039139514
9.029524418,1.7902893385051393,-2.154245099738496,2.1037721716131106
9.034525284,1.833008400141602,-2.1271382261842744,2.094263815819671
9.03952615,1.8649845851186804,-2.100026285689703,2.063502929057928
9.04452615,1.8861598514879176,-2.0736385649133062,2.01177405800368
9.04952615,1.8965780084471093,-2.0486283790679063,1.939658589209014
9.05452615,1.8963805265207074,-2.0255643140432578,1.8480280185138576
9.059526116,1.8858011580809817,-2.004923057368083,1.738032041666211
9.064526116,1.865159547139929,-1.987083894871979,1.6110816178829466
9.069526116,1.834854019945422,-1.9723249155776892,1.4688272716870914
9.074526149,1.7953537546783513,-1.9608209340861087,1.3131330078221977
9.079526149,1.7471905293278207,-1.9526431080670723,1.14604631582464
9.084526149,1.6909502413149036,-1.947760198769214,0.9697648316491909
9.089526115,1.6272643804653733,-1.9460413948515365,0.7866003008161143
9.094526081,1.5568016188294063,-1.9472605943680672,0.5989405486542558
9.099526047,1.480259657486452,-1.9511020165416584,0.40921020646983547
9.104526913,1.3983574430790862,-1.957166994463144,0.21983096639581678
9.109526913,1.3118278370421659,-1.9649817828959049,0.033182141972037595
9.114526546,1.221410790599403,-1.9740062032160464,-0.14843770246995772
9.119526579,1.127847051017911,-1.9836429415052852,-0.322847320835692
9.124526612,1.0318724010456881,-1.9932473166807998,-0.488016865543496
9.129526612,0.9342124146727193,-2.0021373429705123,-0.6420988527972722
9.134526612,0.8355776987313142,-2.0096039237989256,-0.7834554624448253
9.139526578,0.7366595815750837,-2.0149210306725007,-0.9106817111408901
9.144526678,0.6381262066822985,-2.017355739385531,-1.022624137206896
9.149526678,0.5406189891969966,-2.0161780152810467,-1.1183947423757845
9.154526711,0.44474939558829074,-2.0106701579273465,-1.1973800456706374
9.159526711,0.35109600977402367,-2.0001358321531177,-1.259245213794257
9.164527177,0.26020185297188303,-1.9839086260444592,-1.3039333363877568
9.169527143,0.17257192930471116,-1.9613600868354402,-1.3316600096797182
9.174527109,0.08867097476057201,-1.931907192706694,-1.3429034757941418
9.179527075,0.00892139312131461,-1.895019222856029,-1.338390636043903
9.184527075,-0.06629863169851687,-1.8502239905569584,-1.319079314840808
9.189527108,-0.13665685241212272,-1.7971134050213922,-1.286137197073382
9.194528041,-0.20186850569897458,-1.735348328402602,-1.2409178968403527
9.199528074,-0.2616976883138828,-1.6646626948192156,-1.1849346401999066
9.204528074,-0.3159585569643601,-1.5848668593629953,-1.1198320600963658
9.209528074,-0.3645163431870511,-1.4958501470318053,-1.0473566089639037
9.21452804,-0.4072881698406268,-1.3975825746823418,-0.9693260946627704
9.219528006,-0.4442436505839964,-1.290115723827131,-0.8875988388410573
9.224528006,-0.47540524821030483,-1.1735827489460708,-0.8040429434587687
9.229528039,-0.5008483622123097,-1.0481975152757808,-0.7205061310240194
9.234528072,-0.5207011106920134,-0.9142528715481415,-0.6387865976158913
9.239528072,-0.5351437672145972,-0.7721180760740687,-0.560605285954314
9.244528072,-0.5444078103132685,-0.6222354078518343,-0.48757994946539984
9.249528072,-0.5487745430287314,-0.46511600709520623,-0.4212013381100444
9.254528072,-0.5485732427447643,-0.3013350012089338,-0.36281179331521923
9.259528072,-0.5441788075930587,-0.1315259827198589,-0.3135864932843205
9.264528438,-0.5360088739184042,0.04362508477905736,-0.2745175418474464
9.269528438,-0.5245203883194971,0.22338644773273664,-0.24640104471044302
9.274528438,-0.5102056266988626,0.4069875375504477,-0.22982726785618965
9.279528471,-0.4935876618433402,0.5936262386594789,-0.22517392550524026
9.284528471,-0.47521529135025375,0.7824763427570146,-0.23260260064273533
9.289528471,-0.45565744984008333,0.972695077821235,-0.252058260254347
9.294528437,-0.43549714287876523,1.1634305981764907,-0.28327179019813653
9.299528437,-0.4153249536164495,1.3538293223793763,-0.32576544095063936
9.304528437,-0.3957321856070139,1.543043009210073,-0.3788610451822655
9.30952847,-0.3773037159607843,1.730235468579319,-0.4416908412367667
9.31452847,-0.3606106418717504,1.9145888132794446,-0.5132107132120806
9.31952847,-0.3462028109022719,2.095309168553442,-0.5922156385553013
9.32452847,-0.3346013314064658,2.2716317687633043,-0.6773571178178888
9.32952847,-0.3262911642012151,2.442825383540247,-0.7671623481194245
9.33452847,-0.32171390007335626,2.6081960294489765,-0.860054891342994
9.339528436,-0.3212608299102429,2.7670899372791573,-0.9543765794394506
9.344528402,-0.3252664149527384,2.9188957595440552,-1.0484103918432492
9.349528402,-0.334002263489983,3.0630460176722765,-1.140404033543663
9.354528435,-0.3476717168751381,3.199017803830051,-1.2285939368751126
9.359528468,-0.3664051420767513,3.3263327681734074,-1.3112294061570477
9.364528468,-0.3902560206003122,3.4445564379446414,-1.386596622780043
9.369528468,-0.4191979151023741,3.5532969292515397,-1.453042229777317
9.374528434,-0.4531223856739253,3.652203124987218,-1.5089962192320647
9.3795284,-0.4918379176850407,3.7409624031603097,-1.5529938525132843
9.384528366,-0.5350699123342053,3.8192980092026225,-1.5836963519983385
9.389528366,-0.5824617796239753,3.8869661737588674,-1.5999101138717942
9.394528399,-0.6335771611930432,3.943753083935021,-1.6006042053012746
9.399528432,-0.6879032969958438,3.9894718207327107,-1.584925926121435
9.404528465,-0.7448555350700331,4.023959378087751,-1.5522142351230446
9.409528465,-0.8037829676065602,4.047073879129234,-1.5020108639884044
9.414528465,-0.863975159457329,4.058692102520519,-1.4340689676484344
9.419528431,-0.9246699174163532,4.058707425690014,-1.3483591881112873
9.424528431,-0.9850620304415638,4.047028282257868,-1.2450730392462708
9.429528431,-1.0443128927562417,4.023577218030022,-1.1246235521374501
9.434528464,-1.1015609038207812,3.9882906137022514,-0.9876431540193803
9.439528464,-1.1559325219766872,3.941119123181396,-0.8349787881042723
9.444528464,-1.2065538327256473,3.8820288546954114,-0.667684316420236
9.44952843,-1.252562478623977,3.8110032983746613,-0.4870102826233855
9.454528396,-1.2931197859184604,3.7280459796428578,-0.2943911460265519
9.459528362,-1.3274229134419253,3.633183793451278,-0.09143013111714085
9.464528362,-1.3547168421270985,3.526470950881324,0.1201181320981565
9.469528362,-1.3743060191915344,3.4079934474976583,0.3383669731270197
9.474528395,-1.3855654700787343,3.2778739424733896,0.5613188222549823
9.479528428,-1.3879511939471298,3.1362769192906823,0.7868878769705845
9.484528461,-1.3810096649532388,2.9834139831608453,1.0129240241775876
9.489528461,-1.364386271616367,2.8195491377311868,1.2372377341644476
9.494528461,-1.3378325398679205,2.6450038747234665,1.4576256312228628
9.499528427,-1.301212001605684,2.460161905368806,1.6718964381667127
9.504528427,-1.2545045893153883,2.265473362180594,1.8778969876137424
9.509528427,-1.1978094582197787,2.0614583038919885,2.0735379914923135
9.51452846,-1.1313461601065093,1.8487093653261961,2.256819261467091
9.51952846,-1.0554541171184142,1.6278934075427565,2.4258540764160386
9.52452846,-0.97059036902236,1.3997520417141014,2.5788923983065297
9.52952846,-0.8773255934744322,1.1651009226455509,2.714342644463088
9.53452846,-0.7763384252513267,0.924827734357446,2.830791732125222
9.53952846,-0.6684081270271678,0.6798888202599704,2.927023120453479
9.544528426,-0.5544056907931134,0.43130444357177705,3.0020325861896655
9.549528426,-0.4352834752745084,0.1801526990071952,3.0550414828869537
9.554528426,-0.31206351067385235,-0.07243786652375273,3.0855072513295845
9.559528459,-0.1858246279298966,-0.32529682946674476,3.093130972077273
9.564528459,-0.057688595658192836,-0.5772215307349963,3.0778617815779534
9.569528459,0.0711945261002126,-0.8269876184167062,3.0398980122093113
9.574528425,0.1996615811650273,-1.0733602995121998,2.979684964447467
9.579528391,0.3265518052049008,-1.315106086324393,2.8979092754918505
9.584528357,0.45072233353371727,-1.551004809883232,2.7954899109540015
9.589528357,0.571063447744851,-1.7798616689949585,2.6735658713040156
9.594528357,0.686513282407372,-2.0005190888816875,2.533480769528154
9.59952839,0.7960717253400401,-2.2118681766761097,2.3767644995457085
9.604528423,0.8988132655331917,-2.41285958056755,2.2051122768407025
9.609528456,0.9938985694000017,-2.602513583419881,2.020361393728577
9.614528456,1.0805845971507673,-2.7799292887009224,1.8244660893086635
9.619528456,1.158233105579309,-2.9442927854954584,1.6194709828353164
9.624528422,1.2263174199410847,-3.094884209385641,1.4074835518869409
9.629528422,1.2844273940266004,-3.2310836459999854,1.1906461478952939
9.634528422,1.332272512723235,-3.3523758524636125,0.9711080304959522
9.639528455,1.369683125235739,-3.45835379702271,0.7509978734971643
9.644528455,1.3966098301834893,-3.548721037339545,0.5323971572946138
9.649528455,1.4131210660627451,-3.623292972663783,0.3173148232937686
9.654528421,1.4193989915177656,-3.6819970142973903,0.10766352997747705
9.659527987,1.4157337689079752,-3.7248717230310247,-0.09476218196749459
9.664527953,1.40251639140384,-3.7520649624316142,-0.28830553938619724
9.669527953,1.3802302178810861,-3.763831114118028,-0.4714647595748914
9.674527986,1.3494414005232231,-3.760527396736648,-0.6429076451374234
9.679528019,1.3107884064194886,-3.742609325558432,-0.80148339638204
9.684528052,1.264970845839925,-3.7106253457359526,-0.9462315378753373
9.689528052,1.2127378259392123,-3.665210670437446,-1.0763879077039882
9.694528052,1.1548760494035715,-3.6070803562531646,-1.1913877084536735
9.699528018,1.0921978732230397,-3.5370216530239302,-1.2908656668631997
9.704528018,1.0255295336364805,-3.4558856736694583,-1.3746533942975196
9.709528018,0.9556997297538963,-3.3645784412907167,-1.4427740824742161
9.714528051,0.8835287409862778,-3.2640513849641315,-1.4954347079202575
9.719528084,0.8098182329826629,-3.1552913711234063,-1.5330159537507535
9.724528084,0.7353418842208499,-3.0393103729681457,-1.556060087650304
9.729528084,0.6608369417188843,-2.9171348946883793,-1.565257059525725
9.734528084,0.5869967903939353,-2.7897952793822585,-1.5614291005217178
9.739528084,0.5144645969512792,-2.658315038591866,-1.5455141166083088
9.744528084,0.44382806616096276,-2.5237003468917734,-1.51854817493695
9.74952805,0.37561532532041064,-2.3869298466767175,-1.481647380444223
9.75452805,0.3102919321085646,-2.248944906163582,-1.4359894349572222
9.75952805,0.24825898243547231,-2.1106404677976305,-1.3827951622820247
9.764528083,0.18985227862824153,-1.9728566150142428,-1.323310270709477
9.769528083,0.13534250445482107,-1.8363709730070124,-1.258787608705932
9.774528083,0.08493634190114983,-1.7018920442411827,-1.190470149731152
9.779528049,0.03877845491232355,-1.5700535625529333,-1.1195749178641476
9.784528049,-0.0030457429171342415,-1.4414099315553435,-1.0472780375206172
9.789528049,-0.0405066266429173,-1.316432794437723,-0.9747010590070059
9.794528082,-0.07362629972812579,-1.1955087635611492,-0.9028986785532979
9.799528082,-0.10247403473544554,-1.0789383197707452,-0.8328479386284077
9.804528082,-0.12716131698433938,-0.9669358732801738,-0.7654389633958595
9.809528482,-0.14783659450907247,-0.8596309606324899,-0.7014672562013102
9.814528482,-0.16467983792145854,-0.7570705359719817,-0.6416275615083328
9.819528482,-0.17789701310821504,-0.659222300053385,-0.5865092728174289
9.824528448,-0.18771456800666098,-0.5659789973703091,-0.5365933506678919
9.829528448,-0.19437403179619364,-0.4771636006153532,-0.49225070052938585
9.834528448,-0.19812682046977778,-0.39253529226450035,-0.4537419488676271
9.839528481,-0.1992293367231219,-0.3117961451510296,-0.4212185465350334
9.844528514,-0.1979384443519028,-0.2345983972574175,-0.3947251214909196
9.849528514,-0.1945073879412379,-0.1605522105749841,-0.374202997241002
9.85452848,-0.18918221771664034,-0.0892337998816281,-0.35949478881988894
9.859528446,-0.18219876720211484,-0.020193814861216505,-0.35034998420671465
9.864528412,-0.1737802180699929,0.047034141674680535,-0.34643141552021633
9.869528378,-0.16413527263101285,0.11292497547387385,-0.34732252119151913
9.874528378,-0.1534569401975219,0.17795365532829532,-0.35253529781727616
9.879528411,-0.141921929404032,0.24258696837973595,-0.36151883893314996
9.884528444,-0.12969062477076898,0.3072755779515916,-0.37366835778653473
9.889528477,-0.11690761259613124,0.3724464782230696,-0.38833459228482475
9.894528477,-0.10370270888534738,0.4384959320005372,-0.40483349228744386
9.899528477,-0.09019243066845811,0.5057829694248343,-0.4224560917903179
9.904528443,-0.07648184198842656,0.5746235168781849,-0.4404784709023898
9.909528443,-0.0626666974704861,0.6452852167091385,-0.45817171466194617
9.914528443,-0.048835800289709234,0.7179829896782349,-0.47481177779320877
9.919528476,-0.03507348803558605,0.7928753831289266,-0.48968916677419433
9.924528476,-0.021462159591044253,0.8700617386097891,-0.5021183534537478
9.929528476,-0.008084758462888166,0.9495802028473839,-0.5114468381921425
9.934528442,0.004972867454956397,1.0314065955357705,-0.5170637851354137
9.939528408,0.017619803461415205,1.1154541363618615,-0.5184081575519293
9.944528374,0.029758169270979847,1.2015740220018416,-0.5149762868469853
9.949528374,0.04128154182960914,1.2895568315373387,-0.5063288146823166
9.954528407,0.05207374871344715,1.379134726093263,-0.49209695342567616
9.95952844,0.062008071721754814,1.4699843959887469,-0.47198801582850497
9.964528473,0.07094689066736252,1.561730696965339,-0.44579017020987066
9.969528506,0.07874178774796745,1.6539509067460418,-0.4133763823403332
9.974528506,0.08523412346629822,1.7461795247846394,-0.37470750962998445
9.979499339,0.09025608602187989,1.8379135318966406,-0.3298345172567596
9.984499305,0.093632207537269,1.9286180226052985,-0.27889978965394635
9.989499305,0.09518133250317103,2.0177321213626707,-0.22213751421125563
9.994499305,0.09471901650236135,2.1046750941223165,-0.15987311675242147
9.999499338,0.09206032655333778,2.1888525689540983,-0.09252172998125763
10.00449934,0.08702300796813002,2.269662783484561,-0.02058567688195403
10.00949934,0.07943097584381935,2.3465027827439715,0.05534904779360445
10.01449934,0.06911808172971187,2.418774498007169,0.13461731155889944
10.01949934,0.0559320977253506,2.4858906447357345,0.21648040054805773
10.02449934,0.039738851865501204,2.5472803851936354,0.3001325941544959
10.0294993,0.020426440758812947,2.602394708491399,0.3847087394280235
10.0344993,-0.0020905615385226487,2.6507114877642834,0.4692927895129855
10.0394989,-0.02786698517983491,2.6917401809845964,0.5529272518178876
10.04449827,-0.056923127535827754,2.7250261484770277,0.6346234731364417
10.04949827,-0.08924109021881667,2.750154566352184,0.7133726720043906
10.05449827,-0.12476148200749684,2.7667539206053084,0.7881576141023338
10.05949824,-0.16338057595940375,2.77449907144844,0.8579648147281729
10.06449824,-0.20494800273460215,2.773113881566725,0.9217971428505317
10.06949757,-0.249265053748283,2.7623734055083333,0.9786866932613226
10.0744976,-0.29608365797638536,2.7421056404789943,1.0277077861305972
10.07949907,-0.3451060857198947,2.7121928415728362,1.0679899463453002
10.08449907,-0.3959854216803042,2.6725724070684023,1.098730708278219
10.08949907,-0.44832683822058983,2.6232373419763753,1.1192080854190274
10.09449907,-0.5016896874483378,2.5642363106595036,1.1287925393358786
10.09949907,-0.5555904176117077,2.495673292126424,1.1269582795880797
10.10449903,-0.6095063052704731,2.417706854508151,1.1132937260980493
10.109499,-0.6628799800380917,2.3305490681378966,1.087510968290821
10.114499,-0.7151247038915147,2.2344640793618797,1.0494540609081058
10.119499,-0.7656303527721756,2.1297663694189994,0.9991060046882838
10.12449903,-0.8137700350121935,2.016818724109556,0.9365942710368367
10.12949903,-0.858907269313441,1.896029940248679,0.8621947432715549
10.13449903,-0.9004036346791863,1.767852293934414,0.7763339627165464
10.139499,-0.9376267958633653,1.632778793507679,0.6795895855080573
10.144499,-0.9699588005581973,1.4913402369620856,0.5726889752801487
10.149499,-0.9968045386693648,1.3441020898090592,0.4565058778938553
10.15449903,-1.0176002495795406,1.1916611954304812,0.33205514705756206
10.15949903,-1.0318219602025156,1.0346423262272995,0.2004855139349156
10.16449903,-1.0389937348539935,0.8736945808757388,0.06307041933395525
10.16949903,-1.038695617612301,0.7094876311439567,-0.07880304664051979
10.17449903,-1.0305711491421419,0.5427078212768067,-0.22364702597832953
10.17949903,-1.0143343431578,0.3740541240266967,-0.369887497162594
10.184499,-0.989776012950942,0.20423395993879556,-0.5158804784012697
10.1894994,-0.9567693456681307,0.033958890337790586,-0.6599296801394511
10.19450006,-0.9152746310956648,-0.136059800575058,-0.8003054330638504
10.1995001,-0.8653430622859399,-0.3051156132196824,-0.9352646950579009
10.2045001,-0.8071195370652128,-0.47251140184019425,-1.0630719195505371
10.2095001,-0.7408444018775,-0.6375639704576319,-1.182020548624339
10.21450006,-0.6668540921161034,-0.799608653333887,-1.290454877333266
10.2195007,-0.5855806357029087,-0.958003830480923,-1.3867920212098706
10.2245007,-0.49754999894223984,-1.1121353218759158,-1.46954370722943
10.22949926,-0.4033792654756457,-1.2614205978486615,-1.5373375998254701
10.2344993,-0.3037726504484906,-1.4053127379615857,-1.588937868137133
10.2394993,-0.1995163627198479,-1.5433040670512788,-1.6232646986984947
10.2444993,-0.09147233803051391,-1.6749293955033162,-1.639412459438436
10.2494993,0.019429124557995482,-1.7997687919824539,-1.6366662263200693
10.2544993,0.13219778188895367,-1.917449821493831,-1.61451639334092
10.2594993,0.2457928722480762,-2.0276491903792606,-1.5726711000410227
10.26449926,0.35913348958100105,-2.1300937527246653,-1.5110662282545715
10.26949926,0.47110983961230707,-2.224560849084174,-1.4298727417599288
10.27449926,0.5805952998970335,-2.31087796726188,-1.3295011688760596
10.27949929,0.6864591915888019,-2.3889217346401246,-1.2106030589792507
10.28449929,0.78758015307772,-2.458616270662834,-1.074069279354215
10.28949929,0.8828599851751053,-2.5199309453060033,-0.9210250586611028
10.29449926,0.9712378153943257,-2.5728776039131,-0.7528217273626818
10.29949923,1.0517044065326815,-2.6175073303795084,-0.5710251532173412
10.30449919,1.1233164135050682,-2.6539068295039723,-0.3774009205750008
10.30949919,1.1852103732390689,-2.682194515812624,-0.1738963546085923
10.31449922,1.2366161962298297,-2.7025164007729847,0.03738045541039994
10.31949926,1.2768699158645453,-2.715041873378543,0.25418442712367
10.32449929,1.3054254437664374,-2.7199594706868693,0.4741597922246414
10.32949929,1.3218650772185043,-2.7174727348886902,0.6948686315465333
10.33449929,1.325908509273351,-2.7077962515945213,0.9138212818803787
10.33949926,1.3174201043188714,-2.6911519599840177,1.128508213221854
10.34449922,1.2964142221733943,-2.6677658190734026,1.3364329346130612
10.34949922,1.263058402290716,-2.637864905436673,1.5351454526088022
10.35449926,1.2176742558946634,-2.6016750060759013,1.7222757802308084
10.35949929,1.1607359568494644,-2.5594187556604195,1.8955669771057309
10.36449929,1.0928662704816803,-2.51131435017068,2.0529071939006527
10.36949929,1.014830111948511,-2.457574849626971,2.1923601965570927
10.37449926,0.9275256805998405,-2.3984080620619066,2.3121938584215864
10.37949922,0.8319732725265679,-2.3340169805245425,2.4109061310855515
10.38449919,0.7293019284326746,-2.2646007259784473,2.4872480369290546
10.38949919,0.6207341263863623,-2.1903559324614013,2.5402432668094566
10.39449922,0.50756877724521,-2.1114784974090908,2.5692040136144185
10.39949925,0.39116282309070594,-2.028165609922178,2.5737427253374268
10.40449929,0.27291177447189224,-1.940617963132037,2.5537795193287547
10.40949929,0.1542295494427902,-1.8490420537557906,2.5095450622831974
10.41449929,0.03652799535052837,-1.7536524723698261,2.4415787883224644
10.41949925,-0.07880351745177129,-1.654674091657355,2.350722400068933
10.42449925,-0.19041804247097474,-1.5523440665531478,2.238108674592978
10.42949925,-0.29703016843651503,-1.446913569428977,2.1051456771130113
10.43449929,-0.3974339398664727,-1.3386491948436536,1.953496569647546
10.43949928,-0.4905192611821929,-1.2278339814724124,1.7850552883194868
10.44449929,-0.5752864965215208,-1.1147680130766489,1.6019184499665071
10.44949928,-0.6508590224953891,-0.999768575149721,1.406353933810003
10.45449928,-0.7164935423475267,-0.8831698585523898,1.2007666643134185
10.45949929,-0.7715880257751625,-0.7653222154366698,0.9876621935683858
10.46449925,-0.8156871971794929,-0.646590985487916,0.7696087417099071
10.46949922,-0.8484855542514325,-0.527354921533289,0.5491983983033458
10.47449922,-0.8698279563000928,-0.4080042526193772,0.3290082137446185
10.47949925,-0.8797078751078653,-0.28893842971463,0.11156191635710674
10.48449928,-0.8782634477708335,-0.17056360425971295,-0.10070702184067404
10.48949928,-0.865771508879813,-0.0532898927504922,-0.30549027911256255
10.49449928,-0.8426398076193832,0.06247151886945881,-0.5006368953949308
10.49949925,-0.8093976343332604,0.1763113791807655,-0.6841822250080046
10.50449925,-0.766685091983746,0.28782543608184624,-0.8543731368140954
10.50949925,-0.7152412518147194,0.39661752075929757,-1.0096890644854828
10.51449928,-0.6558914301451846,0.5023026156450263,-1.148858617148875
10.51949928,-0.589533815299529,0.6045098771794859,-1.2708715740835839
10.52449928,-0.5171256613398072,0.7028855891808969,-1.3749862001837605
10.52949928,-0.4396692500045629,0.7970960264947006,-1.4607319263024245
10.53449928,-0.3581978056491529,0.8868302116185136,-1.5279075370486728
10.53949928,-0.2737615312725025,0.9718025494742225,-1.5765750963976268
10.54449925,-0.18741391758125941,1.0517553274938443,-1.6070499176572153
10.54949925,-0.10019846171719471,1.12646106931687,-1.6198869480006859
10.55449925,-0.013135917878803778,1.1957247300472842,-1.615863987783567
10.55949928,0.07278781123169555,1.2593857189480278,-1.5959622003423974
10.56449928,0.15663304523672977,1.3173197321829597,-1.5613443889859704
10.56949928,0.23751687291159584,1.3694403747502473,-1.513331525630818
10.57449925,0.3146227978970974,1.4157005479474547,-1.4533780119779325
10.57949921,0.3872094140019454,1.4560935769429137,-1.3830461415266129
10.58449918,0.45461804759830116,1.4906540522389784,-1.3039802111069452
10.58949918,0.5162793107857219,1.519458358727054,-1.2178807054145158
10.59449918,0.5717185149141794,1.5426248663679827,-1.1264789479199426
10.59949921,0.6205599000138778,1.5603137571113688,-1.0315125766027302
10.60449925,0.6625296418637756,1.5727264634940747,-0.9347021632385643
10.60949928,0.6974576049002449,1.5801046956086802,-0.8377292508724058
10.61449928,0.7252778159516411,1.5827290350723726,-0.7422160366533436
10.61949928,0.7460276410556111,1.5809170774699182,-0.6497068778734448
10.62449924,0.7598456557907214,1.5750211085974566,-0.5616517495892877
10.62949924,0.7669682092490153,1.5654253047559663,-0.4793917345116934
10.63449924,0.7677246936245875,1.5525424534004317,-0.40414658186698704
10.63949928,0.7625315457913838,1.5368101976735988,-0.3370043333843196
10.64449928,0.7518850241613265,1.5186868166582745,-0.27891298258849995
10.64949928,0.736352823085366,1.498646562363798,-0.2306741084970621
10.65449924,0.7165646073137526,1.4771745842706452,-0.19293840619254538
10.65949921,0.693201569653595,1.4547614824701949,-0.166203023650799
10.66449918,0.6669851350547635,1.4318975408337824,-0.15081060557914258
10.66949918,0.6386649531711457,1.4090667019063703,-0.14694993980191295
10.67449921,0.6090063384062984,1.3867403548837864,-0.15465809894063318
10.67949924,0.5787773310717347,1.3653710165899027,-0.17382396887094786
10.68449927,0.5487355651031707,1.3453859924193265,-0.20419305493266385
10.68949927,0.5196151364153712,1.3271811095250619,-0.24537345655936774
10.69449927,0.4921136712333833,1.3111146179875617,-0.2968429005467482
10.69949924,0.4668797956629938,1.2975013571826925,-0.35795672245498966
10.70449924,0.44450120658178466,1.2866072839671048,-0.42795668463652153
10.70949924,0.42549353986481125,1.2786444566467565,-0.5059805181740344
10.71449927,0.41029022505248863,1.273766564203152,-0.5910720747594255
10.71949931,0.3992335056745146,1.2720650842508094,-0.6821919735761841
10.72449931,0.39256679131697814,1.2735661459994214,-0.7782286281780828
10.72949931,0.3904284909461575,1.2782281662973678,-0.8780095399420886
10.73449931,0.3928474569229777,1.2859403177173327,-0.9803127484858956
10.73949931,0.39974014573071415,1.2965218776018228,-1.0838783356442037
10.74449931,0.4109095750881635,1.3097224959783873,-1.1874198879590465
10.74949927,0.426046128375007,1.3252234082777339,-1.2896358326620003
10.75449927,0.4447302268230131,1.3426396059557362,-1.3892205731749097
10.75949927,0.46643685851262834,1.3615229647181966,-1.4848753615426526
10.76449931,0.49054192164142346,1.3813663164719816,-1.5753188563223504
10.7694993,0.5163303083670004,1.4016084377102185,-1.6592973249287242
10.7744993,0.5430056251341421,1.421639913936489,-1.7355944592006467
10.77949927,0.5697014162149915,1.4408098269747736,-1.8030407819796144
10.78449927,0.5954937299089785,1.4584331996050692,-1.860522630542154
10.78949927,0.6194148422710076,1.4737991199382028,-1.9069907093852083
10.7944993,0.6404679321680652,1.4861794564165143,-1.941468209708647
10.7994993,0.657642484714879,1.494838063566425,-1.963058495691336
10.8044993,0.669930188374893,1.4990403689831182,-1.970952358214235
10.8094993,0.6763410844686022,1.4980632238070242,-1.964434835106422
10.8144993,0.6759197262499588,1.4912048923889076,-1.9428915934367377
10.8194993,0.6677611076262361,1.4777950521086392,-1.9058148640291455
10.82449927,0.6510261286144269,1.4572046715166946,-1.8528089114589175
10.82949927,0.6249563754072631,1.4288556341060672,-1.783595014643127
10.83449927,0.5888880069585264,1.3922299759877954,-1.6980159243410986
10.8394993,0.5422645565197314,1.3468786083732667,-1.5960397551145573
10.84449934,0.48464847466494687,1.2924293999041616,-1.477763261174298
10.84949934,0.41573125921140885,1.2285944994026627,-1.3434144384979287
10.8544993,0.3353420365026571,1.155176786493824,-1.1933543899441446
10.85949927,0.24345447748550814,1.072075345809417,-1.0280783860548781
10.86449927,0.14019195088015518,0.9792898702056311,-0.8482160520489682
10.86949927,0.0258308347090437,0.8769239097251794,-0.6545306113761634
10.8744993,-0.09919807320688707,0.7651868960130656,-0.44791711829556585
10.8794993,-0.23431008518975427,0.644394886635446,-0.22939961640131817
10.8844993,-0.37876911266633995,0.5149699902859445,-0.00012716693008136317
10.8894993,-0.5316921109766606,0.37743845214329624,0.23863129991359847
10.8944993,-0.6920554541714319,0.23242739847215904,0.48549334553527335
10.8994993,-0.8587031904445895,0.08066026054337447,0.7389706162160886
10.90449927,-1.0303571048075604,-0.07704908044917447,0.9974776736393182
10.90949927,-1.2056284914542441,-0.239803364139959,1.259342049254242
10.91449927,-1.383031514530142,-0.4066301528704475,1.522815489644262
10.9194993,-1.5609980132611472,-0.5764910599124318,1.7860863396957558
10.9244993,-1.7378935860955018,-0.7482918805508656,2.0472929894972363
10.9294993,-1.9120347690725508,-0.9208934859688345,2.304538289987706
10.93449927,-2.0817071064662898,-1.0931233259512316,2.55590482196034
10.93949923,-2.2451838972878564,-1.2637873755611708,2.7994708838551228
10.9444992,-2.4007453897677324,-1.4316823534992313,3.0333270466929814
10.9494992,-2.546698187486177,-1.5956080361341385,3.2555931102231632
10.95449923,-2.681394625183593,-1.7543794914042738,3.4644352832834278
10.95949926,-2.8032518693921498,-1.9068390609719785,3.6580834036142864
10.9644993,-2.9107704992040295,-2.051867926974756,3.8348480077707428
10.96949933,-3.002552326343041,-2.188397111046885,3.993137060000474
10.97449933,-3.077317221790333,-2.3154177674452643,4.131472149605262
10.9794993,-3.133918728732898,-2.431990648583861,4.248503969004156
10.98449926,-3.1713582583381212,-2.5372546396585878,4.343026889138618
10.98949926,-3.188797685242834,-2.6304342790187754,4.413992454709469
10.99449926,-3.185570182843985,-2.7108462021658677,4.460521628939601
10.9994993,-3.1611891635624185,-2.7779044692875097,4.481915626474418
11.0044993,-3.1153552156028086,-2.8311247586673867,4.477665184337229
11.0094993,-3.0479609553451295,-2.870127430997637,4.44745813511212
11.01449926,-2.959093743691261,-2.8946394925395924,4.391185163900646
11.01949923,-2.849036245394447,-2.904495507880437,4.308943650869383
11.02449919,-2.718264841874732,-2.8996375347326397,4.201039523819673
11.02949919,-2.567445939166983,-2.8801141723770898,4.067987069343789
11.03449923,-2.397430242415622,-2.8460788304953324,3.9105066758661735
11.03949926,-2.209245095878308,-2.797787335100659,3.7295205064373866
11.04449889,-2.0040850121007523,-2.73559499229179,3.526146123103908
11.04949889,-1.7833005353819544,-2.6599532282382143,3.3016881079549143
11.05449889,-1.5483856026576404,-2.571405915144,3.0576277488196753
11.05949886,-1.3009635793646308,-2.470585478262072,2.7956108805187947
11.06449796,-1.0427721586070533,-2.3582088590333536,2.517433996023926
11.06949796,-0.775647318983913,-2.235073385104259,2.225028766088289
11.07449799,-0.5015065398297002,-2.102052570552205,1.9204451305727037
11.07949799,-0.22233147254634217,-1.9600918404527,1.6058331487582695
11.08449799,0.05984973657317448,-1.8102041442687353,1.2834238177962929
11.08949799,0.342980282747968,-1.6534653936437138,0.9555090865223885
11.09449799,0.624992517536383,-1.4910096331461034,0.6244213051490873
11.09949799,0.9038255716190191,-1.3240238284658878,0.29251235949695326
11.10449796,1.1774426269053975,-1.1537421367593395,-0.03786725857900073
11.10949792,1.4438476925865653,-0.9814395098097339,-0.36438919515389817
11.11449792,1.701101754610699,-0.8084244742675204,-0.6847675511379466
11.11949792,1.947338184833311,-0.6360309364869502,-0.9967785451573853
11.12449796,2.1807773150995597,-0.46560887432402953,-1.2982793171057354
11.12949796,2.399740102927164,-0.2985138062908066,-1.5872256958255053
11.13449756,2.6026608390701944,-0.1360949706814794,-1.8616887891947678
11.13949752,2.788098872070604,0.020317796191642673,-2.1198702936951284
11.14449749,2.9547493488275727,0.16942842386079435,-2.360116460137962
11.14949745,3.1014529898408436,0.3099900749739194,-2.5809306878979297
11.15449745,3.2272049285903046,0.44082149214268757,-2.780984745694004
11.15949749,3.331162641885284,0.56082391720171,-2.959128627394614
11.16449752,3.412652979692663,0.6689982021611918,-3.114399045350102
11.16949755,3.4711782715074957,0.7644616742678888,-3.2460265459866475
11.17449755,3.5064214489175183,0.8464642817004372,-3.35344121117714
11.17949755,3.5182500888456207,0.9144035331985193,-3.4362768921177036
11.18449752,3.5067192546168604,0.9678377543469259,-3.4943739144673502
11.18949752,3.472072994547157,1.0064972141030792,-3.5277801948559535
11.19449792,3.414744350181842,1.0302927250187643,-3.5367507174196824
11.19949795,3.335353728240631,1.0393213858781696,-3.5217453315823373
11.20449795,3.2347055017683393,1.0338692120454025,-3.483424845794357
11.20949795,3.1137827272721754,1.0144104827874625,-3.422645404233839
11.21449882,2.973739895787745,0.981603722912181,-3.340451143777427
11.21949878,2.815893675883278,0.9362843254424636,-3.2380651374630123
11.22449875,2.6417116531316656,0.8794539101273992,-3.116878639846794
11.22949875,2.452799119885157,0.8122665966986186,-2.9784386611127904
11.23449875,2.250884017493776,0.7360124492772403,-2.8244339120105417
11.23949878,2.037800177738064,0.6520984169970605,-2.6566791810901673
11.24449882,1.8154690500318016,0.5620271542334889,-2.477098228710031
11.24949885,1.5858801357241399,0.4673741509831655,-2.287705307845861
11.25449885,1.3510703807091535,0.3697636394538058,-2.0905854486369146
11.25949885,1.1131028025360872,0.27084376640951235,-1.8878736707290364
11.26449882,0.874044648146421,0.17226153184309853,-1.6817333139050592
11.26949878,0.6359453930405562,0.07563799264210688,-1.4743337026720742
11.27449875,0.40081490194659347,-0.01745578531750554,-1.267827384135146
11.27949875,0.17060207480713965,-0.10552157186026508,-1.0643272004002777
11.28449918,-0.052825700077795135,-0.18715520068466782,-0.8658834764807253
11.28949921,-0.2677019719341008,-0.26106582055207206,-0.6744616215144409
11.29449925,-0.47237923300109785,-0.3260928707093039,-0.4919204541756825
11.29949925,-0.6653452251443855,-0.38122054917767817,-0.31999157173369136
11.30449925,-0.8452372966274868,-0.4255896122721094,-0.16026008579718676
11.30949921,-1.0108545922455583,-0.4585064122786983,-0.014147045939898224
11.31449921,-1.1611679010501872,-0.47944914423503593,0.11710613593865697
11.31949921,-1.2953270335906892,-0.4880713293623449,0.23245096487761438
11.32449924,-1.4126656535926827,-0.4842026101951697,0.33104258000090303
11.32949925,-1.5127035443807553,-0.46784697069971787,0.4122476905880645
11.33449924,-1.5951463442995069,-0.4391785247646928,0.47564957790907125
11.33949921,-1.6598828344153742,-0.39853503991734834,0.5210500916740629
11.34449918,-1.7069799038756384,-0.3464093812755347,0.5484686599619306
11.34949914,-1.736675353301937,-0.2834390745729193,0.5581384187450296
11.35449914,-1.7493687257077934,-0.2103941974356307,0.5504996422014012
11.35949914,-1.745610379056671,-0.1281638157819063,0.5261907120233449
11.36449918,-1.726089035223091,-0.03774118803706845,0.4860369007100805
11.36949921,-1.6916180562398835,0.05979203549859691,0.43103726102299283
11.37449924,-1.6431207095357985,0.163282386625092,0.3623499139693887
11.37949924,-1.5816146892028828,0.27152169079449506,0.28127601477042313
11.38449924,-1.5081961606383858,0.38326447610137765,0.18924265489542755
11.38949921,-1.4240235918338113,0.4972454359869396,0.08778493313426498
11.39449921,-1.3303016266600185,0.6121967006720307,-0.021472595913098125
11.39949921,-1.2282652440890394,0.7268646748547127,-0.13683490846464838
11.40449924,-1.119164432674513,0.8400262063112472,-0.2565557615889629
11.40949924,-1.0042495919910994,0.9505038618805861,-0.37885704571748774
11.41449924,-0.8847578522483561,1.0571801036859763,-0.5019480857379289
11.41949924,-0.7619004800620246,1.1590101789429086,-0.6240447414373912
11.42449924,-0.6368515125843569,1.2550335607074636,-0.7433881615281711
11.42949924,-0.5107377342248395,1.344383803660761,-0.8582630485875448
11.43449921,-0.38463008055022696,1.4262967077253705,-0.9670152955589757
11.43949921,-0.25953652329378263,1.5001167123438541,-1.0680688583529925
11.44449921,-0.13639645953023385,1.5653014751791074,-1.1599417336542843
11.44949924,-0.016076597899493266,1.6214246204458587,-1.2412609161340944
11.45449924,0.10063169381399506,1.6681766735796024,-1.3107762145879638
11.45949924,0.21301364171588222,1.7053642298376774,-1.3673728118541806
11.46449921,0.3204310050062247,1.7329074338830246,-1.4100824587616343
11.46949917,0.4223208076893383,1.7508358745274144,-1.4380931980864136
11.47449914,0.5181929871006874,1.759283022782813,-1.4507575209307393
11.47949914,0.6076270987184944,1.7584793615567773,-1.4475988654328318
11.48449914,0.6902682289996901,1.7487443713560529,-1.4283163766064984
11.48949917,0.7658222772657488,1.7304775481404804,-1.3927878566942014
11.4944992,0.8340507738360098,1.704148637182561,-1.3410708479428834
11.49949924,0.8947654045198298,1.6702872708369199,-1.2734018043883994
11.50449924,0.9478224110889535,1.629472199026056,-1.190193326269035
11.50949924,0.9931170333566911,1.5823202995278725,-1.0920294502509058
11.5144992,1.0305781510039598,1.5294755512102602,-0.979659010749029
11.5194992,1.06016327246987,1.4715981473888118,-0.8539871119937549
11.5244992,1.0818540043361446,1.4093539184713697,-0.7160647765249609
11.52949924,1.0956521180410637,1.343404222875248,-0.5670768626142827
11.53449924,1.1015763118967599,1.274396452763989,-0.408328369650381
11.53949924,1.0996597457046267,1.202955286534203,-0.24122927570964492
11.5444992,1.0899484031574156,1.1296748035490063,-0.06727807457274025
11.54949917,1.0725003140019327,1.0551115589297444,0.11195580004685701
11.55449913,1.0473856439094338,0.9797786978537608,0.29485045737409105
11.55949913,1.0146876355047079,0.9041411701624862,0.479750718479662
11.56449917,0.974504359495422,0.8286120873498901,0.6649877373530243
11.5694992,0.9269512109042498,0.7535502452317028,0.8488988300756293
11.57449923,0.8721640626731404,0.6792588167991049,1.0298472604418187
11.57949923,0.8103029679621775,0.6059852009324049,1.2062417253594697
11.58449923,0.7415562837835422,0.5339219937943872,1.3765552809092547
11.5894992,0.6661450725926131,0.4632090309002675,1.5393434501116139
11.59449916,0.5843276254554771,0.3939364292480479,1.6932612563875697
11.59949917,0.4964039407497643,0.3261485408322275,1.8370789325909513
11.6044992,0.4027199863467464,0.2598487118903586,1.9696960645042858
11.60949923,0.3036715711859107,0.19500472703184837,2.0901539399556532
11.61449923,0.19970765440570473,0.1315548046896213,2.1976458903811737
11.61949923,0.09133292700636793,0.06941400072721758,2.29152543103251
11.62449923,-0.02089048742165403,0.008480870905957042,2.3713120296577177
11.62949923,-0.1363423499569148,-0.051355759672380395,2.4366943621564903
11.63449923,-0.254344757327222,-0.11021007134859674,2.4875309484218926
11.6394992,-0.3741638161993885,-0.1681927166251832,2.523848103451153
11.6444992,-0.4950125997766234,-0.22540462069200706,2.5458351888546566
11.6494992,-0.6160554114967443,-0.2819312496959627,2.5538372085365912
11.6544989,-0.7364133441428604,-0.3378374706039424,2.54834485866108
11.6594989,-0.8551710857132037,-0.3931631139592773,2.52998221318234
11.6644989,-0.9713848880149767,-0.44791933557492647,2.499492297375951
11.66949886,-1.084091582184762,-0.5020858554145321,2.4577208671382937
11.67449886,-1.1923184988455866,-0.5556091322899961,2.4055987660121865
11.67949886,-1.2950941303443118,-0.6084015125490734,2.344123271338298
11.6844989,-1.3914593585965152,-0.6603413705137878,2.2743388640392936
11.6894989,-1.4804790638949958,-0.7112742384935856,2.1973178634040353
11.6944989,-1.5612539265640752,-0.761014904683128,2.1141413600866668
11.6994989,-1.6329322334192782,-0.8093504378473102,2.025880859291774
11.7044989,-1.6947215036701335,-0.8560440781137384,1.933581014008822
11.7094989,-1.7458997535595093,-0.9008399133837659,1.8382437874333293
11.71449886,-1.7858262253252664,-0.9434682411118561,1.740814336435611
11.71949883,-1.8139514138097892,-0.9836514961386779,1.6421688558735126
11.72449883,-1.8298262330929205,-1.0211106078687329,1.543104568133872
11.72949886,-1.8331101757809753,-1.0555716354666338,1.4443319847209755
11.73449889,-1.823578328989842,-1.0867725189138229,1.3464695080484255
11.73949889,-1.8011271235758615,-1.1144697774478287,1.2500403828763431
11.74449889,-1.7657787067670254,-1.1384449854784087,1.1554719491747998
11.74949886,-1.7176838430656203,-1.1585108596033398,1.063097092779236
11.75449886,-1.657123264283485,-1.1745167986618026,0.9731577383070094
11.75949886,-1.5845074070690575,-1.1863537315224812,0.8858101817747588
11.76449889,-1.5003744955306193,-1.193958144027677,0.8011320195985187
11.76949889,-1.4053869477290295,-1.197315176624886,0.7191303975722402
11.77449889,-1.3003261079891584,-1.1964607070702717,0.6397512793116058
11.77949889,-1.1860853321297944,-1.1914823575302438,0.5628894196247198
11.78449889,-1.0636614796313728,-1.182519391852248,0.4883987250730464
11.78949889,-0.9341448949774143,-1.1697614962460534,0.4161026917447825
11.79449886,-0.798707989131865,-1.1534464646573486,0.3458046282748566
11.79949886,-0.6585925603318541,-1.1338568381135137,0.27729739891053024
11.80449919,-0.5150960200280494,-1.1113155743897207,0.21037245495327103
11.80949923,-0.36955671397609313,-1.0861808493976473,0.14482796107579007
11.81449922,-0.22333854942368378,-1.0588401136866037,0.080475863733436
11.81949923,-0.07781515636570144,-1.0297035455648431,0.017147790168582835
11.82449919,0.06564617671025143,-0.9991970561091053,-0.04530029355742628
11.82949916,0.20570054483629402,-0.9677550104546265,-0.10698470012358964
11.83449912,0.34104119673915695,-0.9358128340194792,-0.16799191566018035
11.83949912,0.47041478754289384,-0.9037996714797771,-0.228377743675813
11.84449912,0.5926358784957195,-0.8721312602019464,-0.2881676429549375
11.84949916,0.706600464761542,-0.8412031684960147,-0.3473581775313757
11.85449919,0.8112983351307209,-0.81138453290874,-0.4059194701196132
11.85949922,0.905824095897724,-0.7830124086985599,-0.4637985239568525
11.86449922,0.989386723814698,-0.7563868247605903,-0.5209232531572805
11.86949922,1.0613175480636767,-0.7317666097935138,-0.57720704034771
11.87449919,1.1210765964696203,-0.7093660317078159,-0.632553624863786
11.87949919,1.1682572750043985,-0.6893522686178526,-0.6868621172468915
11.88449919,1.2025893811873432,-0.671843708626373,-0.7400319373700132
11.88949922,1.2239404811061412,-0.6569090579024197,-0.7919674842154184
11.89449922,1.2323157063075545,-0.6445672224438551,-0.8425823641909012
11.89949922,1.2278560501574822,-0.6347879179326094,-0.8918030304592891
11.90449919,1.2108352625241092,-0.6274929534575039,-0.9395717163945659
11.90949915,1.1816554559645163,-0.6225581279089158,-0.9858485802471015
11.91449912,1.1408415456037602,-0.6198156721713615,-1.0306130137126102
11.91949912,1.0890346487122617,-0.6190571657472148,-1.073864102648659
11.92449915,1.0269845691318826,-0.6200368530716812,-1.115620261915245
11.92949919,0.9555414869206644,-0.6224752823712243,-1.155918096612376
11.93449922,0.8756469657361663,-0.6260631883418145,-1.194810567637595
11.93949922,0.7883243804623126,-0.630465539309592,-1.2323645597639363
11.94449922,0.6946688563378699,-0.6353256704065079,-1.2686579649521346
11.94949918,0.595836799309814,-0.6402694274262194,-1.303776402192678
11.95449918,0.49303508642712535,-0.6449092521158718,-1.337809697947943
11.95949918,0.38750997565334344,-0.6488481489997792,-1.3708482487307792
11.96449922,0.2805357872444061,-0.651683486228864,-1.402979380301949
11.96949925,0.17340340436066046,-0.6530105978507581,-1.4342838072875452
11.97449925,0.06740863908586782,-0.6524261714974616,-1.4648322835936287
11.97949925,-0.03615948867633973,-0.649531422748331,-1.494682518700511
11.98449925,-0.1360305084098282,-0.6439350740735179,-1.523876418638551
11.98949925,-0.23096423618196152,-0.6352561709032071,-1.552437694086621
11.99449925,-0.3197624297194018,-0.6231267786826493,-1.5803698625021265
11.99949922,-0.40128029282188826,-0.6071946117538923,-1.6076546573614234
12.00449922,-0.47443775391606785,-0.5871256470638564,-1.6342508462200407
12.00949922,-0.5382304367254993,-0.5626067731412742,-1.660093450896607
12.01449925,-0.5917402341209692,-0.5333485180731163,-1.6850933577435814
12.01949925,-0.6341453895058292,-0.49908789008660603,-1.7091373033238897
12.02449925,-0.6647299840863907,-0.4595913515290149,-1.7320882201268386
12.02949922,-0.6828927236533402,-0.4146579322133163,-1.7537859273889422
12.03449922,-0.6881549155797742,-0.3641224719634368,-1.7740481529458385
12.03949855,-0.680167526075314,-0.30785896552124703,-1.792671872823024
12.04449818,-0.6587172096902391,-0.24578396663257207,-1.8094349555484575
12.04949818,-0.6237312078169986,-0.1778599930497762,-1.8240980975640242
12.05449818,-0.5752810203839969,-0.10409886130805716,-1.8364070343585637
12.05949775,-0.5135847647493367,-0.024564870232671836,-1.8460950089339574
12.06449775,-0.43900814759236495,0.06062225431045312,-1.8528854750214636
12.06949775,-0.3520639890450689,0.15128474378552392,-1.8564950073452016
12.07449771,-0.2534102531768295,0.24718459031693416,-1.8566363856072563
12.07949771,-0.14384655508288108,0.34802185516545686,-1.8530218133002327
12.08449771,-0.02430913207697534,0.45343356206106405,-1.845366227540755
12.08949775,0.10413571531283862,0.5629932461324698,-1.833390652394643
12.09449778,0.24029968784941041,0.6762112181219383,-1.8168255460323253
12.09949778,0.3828820132382158,0.792535590933863,-1.7954140917557968
12.10449775,0.5304803684881898,0.9113541018662261,-1.7689153844627725
12.10949771,0.6816031145241889,1.031996749640667,-1.7371074670390725
12.11449771,0.8346827393954259,1.1537392510835682,-1.6997901747394033
12.11949748,0.9880903888948989,1.2758073084875337,-1.6567877491747738
12.12449751,1.1401513481946481,1.3973816656949165,-1.6079511870053989
12.12949751,1.289161325476242,1.5176039190338015,-1.5531602924513976
12.13449751,1.4334033783676665,1.6355830383971075,-1.4923254082316848
12.13949751,1.5711653158650154,1.7504025436987454,-1.425388807282822
12.14449751,1.7007574018094127,1.861128272234437,-1.3523257375829196
12.14949751,1.8205301806250749,1.96681666285503,-1.2731451235492213
12.15449748,1.9288922420004706,2.0665234734487172,-1.1878899381535053
12.15949748,2.0243277387528598,2.1593128394298757,-1.0966372688453117
12.16449748,2.105413471364071,2.244266573176884,-0.9994981071360973
12.16949751,2.170835353634628,2.3204935979876957,-0.8966168962394824
12.17449751,2.2194040767039893,2.3871394054047372,-0.7881708734439268
12.17949751,2.250069793570941,2.443395421931802,-0.6743692439624299
12.18449748,2.2619356534247443,2.488508170391489,-0.5554522212149633
12.18949811,2.2542700246121323,2.521788112532465,-0.43168996545879085
12.19449847,2.2265172568496236,2.542618062981206,-0.3033814489643096
12.19949847,2.1783068473099894,2.550461070157258,-0.17085327179971455
12.20449851,2.1094608914536033,2.5448676671823764,-0.03445844766119853
12.20949897,2.019999717634688,2.525482404817888,0.10542482591532062
12.21449901,1.910145623795899,2.492049588529037,0.24839440366848592
12.21949904,1.7803246540872506,2.4444181522610844,0.39402543006218393
12.22449904,1.631166372570016,2.3825456120168482,0.5418715765778123
12.22949901,1.4635016102207523,2.306501052826822,0.691466280570277
12.23449897,1.2783581801048247,2.2164671133277434,0.8423239907282927
12.23949897,1.0769545736559714,2.1127409428970716,0.993941427495323
12.24449897,0.8606916685141621,1.9957341168986347,1.1457988698405552
12.249499,0.6311424955776809,1.8659715057235315,1.297361482321047
12.254499,0.3900401300070843,1.7240891026119525,1.4480806983138186
12.259499,0.13926378790697405,1.5708308235425923,1.5973956765454744
12.26449897,-0.11917677274325858,1.407044299917705,1.744734848650837
12.26949917,-0.3831584316309126,1.2336756917699374,1.8895175755486524
12.27449914,-0.650463334138169,1.0517635562413754,2.0311559298402466
12.27949914,-0.9187988189617353,0.8624318134430513,2.169056619750961
12.28449917,-1.1858184792594182,0.6668818595933902,2.3026230666552627
12.2894992,-1.4491441741053506,0.4663838855292445,2.4312576424747934
12.29449924,-1.7063887904513928,0.26226746718143695,2.554364065317498
12.29949924,-1.955179540397693,0.05591150319826167,2.671349942401783
12.30449924,-2.1931815649229858,-0.15126641676747588,2.781629439835046
12.3094992,-2.41812160378954,-0.3578211219867775,2.8846260506154633
12.3144992,-2.627811482516968,-0.5622913513158828,2.979775426537623
12.3194992,-2.820171161429225,-0.7632115224875559,3.0665282372502967
12.32449923,-2.993251089077398,-0.959123675438905,3.144353020650633
12.32949923,-3.145253603042787,-1.1485894849367522,3.2127389927033128
12.33449923,-3.2745531253712135,-1.3302022399685383,3.2711987910386715
12.33949923,-3.379714907709561,-1.50259869175962,3.3192711347718555
12.34449923,-3.459512092552234,-1.664470678587183,3.356523392490052
12.34949923,-3.5129408717887305,-1.8145764434700062,3.3825540608347184
12.3544992,-3.5392335419200824,-1.951751569942635,3.3969951668333587
12.35949917,-3.537869276761875,-2.074919470962314,3.399514617029689
12.36449917,-3.5085824628668805,-2.183101375853824,3.3898185243174623
12.36949917,-3.4513684697788767,-2.275425769218387,3.367653548225241
12.3744992,-3.366486755981657,-2.351137242994218,3.3328092856798963
12.3794992,-3.254461241397859,-2.4096047274522285,3.2851207468548846
12.3844992,-3.1160779078909147,-2.450329068078941,3.224470944747426
12.38949916,-2.952379620091409,-2.4729499126491112,3.150793618088696
12.39449917,-2.7646581901296226,-2.4772518664887047,3.064076095923345
12.39949916,-2.5544437416532273,-2.4631698646362143,2.964362299867217
12.4044992,-2.3234914604525416,-2.4307936982336793,2.851755867788071
12.4094992,-2.0737658503012875,-2.3803716199521836,2.7264233711536705
12.4144992,-1.8074226425207964,-2.3123129404463776,2.5885975877596348
12.4194992,-1.5267885357768962,-2.227189515503061,2.438580781849366
12.4244992,-1.234338968286379,-2.1257360123402287,2.276747934416881
12.4294992,-0.9326741475845948,-2.0088488339580377,2.103549857225983
12.43449916,-0.624493583119006,-1.8775835730331762,1.9195161142309554
12.43949916,-0.3125693842452469,-1.7331508621006542,1.7252576632759202
12.44449916,0.00028139908093679177,-1.576910485273176,1.5214691192300795
12.4494992,0.3112251032974891,-1.410363619240171,1.3089305276256076
12.4544992,0.6174401463322915,-1.2351430787491504,1.0885085262413041
12.4594992,0.916145783863313,-1.053001455517444,0.8611567616688561
12.46449916,1.2046306155837339,-0.8657970611474025,0.6279154191484208
12.46949913,1.4802805299165247,-0.6754776157630406,0.3899097171748481
12.4744991,1.7406057797443044,-0.48406166611667695,0.1483472141909848
12.4794991,1.9832668909110973,-0.29361777069879763,-0.09548622555780896
12.4844991,2.2060991197586253,-0.10624155520332164,-0.3402319541005859
12.48949913,2.4071351954512252,0.07596918095932158,-0.5844656821254535
12.49449916,2.584626106119717,0.2509410394059315,-0.8267063471978688
12.49949919,2.737059712810599,0.4166529183607209,-1.0654267713086463
12.50449919,2.8631769992815186,0.5711647765135435,-1.2990661125432459
12.50949919,2.961985786634087,0.7126467289002335,-1.5260440420361343
12.51449916,3.0327717587556475,0.8394078709418996,-1.7447764949664253
12.51949916,3.075106658455027,0.9499241811192223,-1.953692763121235
12.52449916,3.088853527185095,1.0428648324734429,-2.1512536273239427
12.52949919,3.074168875782982,1.1171162493988656,-2.3359701785280045
12.53449919,3.0315016918048014,1.1718032783976056,-2.506422949076344
12.53949919,2.961589212382217,1.2063068975387314,-2.661280968442041
12.54449916,2.865449421137469,1.2202779660705971,-2.799320366278422
12.54949912,2.7443702638721184,1.2136466089355544,-2.9194421650328515
12.55449909,2.599895619970801,1.186626936411155,-3.0206889307279976
12.55949909,2.433808113586432,1.1397169123431594,-3.102259980974576
12.56449912,2.24810889922417,1.0736933012881447,-3.163524882073722
12.56949916,2.044994608649468,0.9896017415258797,-3.2040350010843257
12.57449919,1.8268316982309398,0.8887421038970512,-3.2235329131998154
12.57949919,1.5961284858547877,0.7726494028552852,-3.2219594991346034
12.58449919,1.3555052124840232,0.6430706236923075,-3.199458601119555
12.58949916,1.1076625038343837,0.5019379168076775,-3.15637913945856
12.59449912,0.8553486417357354,0.3513386846883577,-3.0932746245312126
12.59949912,0.6013260823457263,0.1934831487688126,-3.0109000318851704
12.60449916,0.3483376795792358,0.030670030726404073,-2.9102060408802215
12.60949919,0.09907308707877824,-0.1347489845254684,-2.792330670289446
12.61449902,-0.14386417914778798,-0.30040531932367076,-2.65858837710624
12.61949902,-0.37798853281340844,-0.4639494205385335,-2.510456717097676
12.62449902,-0.600962483894592,-0.6230858513940839,-2.349560697006111
12.62949902,-0.8106247113951974,-0.7756069165888514,-2.177654978765246
12.63449902,-1.0050155949203388,-0.919424226825982,-1.9966041261782184
12.63949832,-1.1823997884030384,-1.0525976714027487,-1.8083611149140117
12.64449832,-1.341285460904269,-1.1733613430786658,-1.6149443579073028
12.64949832,-1.4804398820417557,-1.2801460447768955,-1.4184135303134218
12.65449835,-1.5989010924477283,-1.3715980986865044,-1.2208445106280417
12.65949835,-1.6959854708459774,-1.4465942706140054,-1.0243037866287057
12.66449835,-1.7712910866179377,-1.5042527117813658,-0.8308227051341673
12.66949832,-1.8246968079602726,-1.5439399031903303,-0.6423719710563396
12.67449832,-1.8563572187014596,-1.5652736618454697,-0.4608368208038218
12.67949832,-1.8666934787103382,-1.5681223325949265,-0.28799330434291004
12.68449835,-1.856380340229504,-1.5526003441935812,-0.1254861057138017
12.68949835,-1.8263296023874545,-1.5190603539073921,0.02519168969818433
12.69449835,-1.7776703468562263,-1.4680822420890383,0.1627165137284374
12.69949835,-1.7117263489095407,-1.4004592473302828,0.28594961263558827
12.70449835,-1.6299911008040633,-1.3171815549711399,0.3939494912263162
12.70949835,-1.5341009194206099,-1.219417667961431,0.4859813554342825
12.71449832,-1.4258066377133827,-1.1084939002488212,0.5615234873139777
12.71949828,-1.3069443987843279,-0.9858723398230019,0.620270560949952
12.72449829,-1.1794060804909072,-0.8531276320921829,0.6621339701004031
12.72949832,-1.0451098755497643,-0.7119229351397931,0.6872392867734409
12.73449835,-0.9059715360832702,-0.5639853970092032,0.6959210046293506
12.73949835,-0.7638767627066453,-0.4110815013570453,0.688714743874933
12.74449835,-0.6206551780707229,-0.2549926209562579,0.6663471081147095
12.74949832,-0.4780562756210144,-0.09749110779680119,0.6297233919648527
12.75449828,-0.33772767878426835,0.059682766616178655,0.5799133442703462
12.75949825,-0.2011959860997377,0.21484272675953023,0.5181351975545199
12.76449842,-0.06985041574727197,0.36637699405109697,0.44573818068737564
12.76949845,0.05507060002243183,0.5127671301847181,0.36418373856239084
12.77449848,0.1724897824535759,0.6526050100641799,0.275025689243013
12.77949851,0.28149830822572885,0.7846077444161321,0.17988955494846678
12.78449851,0.38136007547143347,0.9076304070200993,0.08045130790257482
12.78949918,0.47151301669157164,1.020676457739446,-0.02158422485058511
12.79449915,0.5515675893970821,1.122905789482439,-0.1245050522259764
12.79949915,0.6213026174212631,1.2136403641540658,-0.2266135605036759
12.80449915,0.6806586914727268,1.2923674389084894,-0.3262476626670875
12.80949918,0.7297293663207796,1.3587404189536216,-0.42180131707158647
12.81449918,0.76875041403079,1.4125774061658782,-0.5117441828642457
12.81949918,0.7980874081761714,1.4538575432610226,-0.5946401877531156
12.82449914,0.8182219233988922,1.4827152808422555,-0.6691647943250756
12.82949911,0.8297366386184697,1.499432719185912,-0.7341207643220994
12.83449908,0.8332996312048677,1.5044301981620605,-0.788452236139226
12.83949908,0.829648144167237,1.4982553271872034,-0.8312569491789003
12.84449908,0.8195720994767981,1.4815706623407983,-0.8617964693674686
12.84949911,0.8038976185959195,1.4551402494023953,-0.8795042929121897
12.85449914,0.7834707966590021,1.4198152593080202,-0.8839917301500443
12.85949918,0.7591419600524907,1.3765189463308987,-0.8750514980646386
12.86449918,0.7317506188016264,1.3262311593738085,-0.8526589786088828
12.86949918,0.7021113055146917,1.2699726335142416,-0.8169711300976303
12.87449914,0.671000471920956,1.2087892828151499,-0.7683230701834081
12.87949914,0.6391445925386479,1.1437367067970414,-0.707222380719113
12.88449914,0.6072096030745845,1.0758651121668916,-0.634341216475738
12.88949918,0.5757917792085173,1.0062048386562144,-0.5505063305095116
12.89449918,0.545410139836634,0.9357526633772804,-0.45668715823250555
12.89949851,0.5165004378610472,0.8654590422592991,-0.35398212920303596
12.90449851,0.48941078123203013,0.7962164301926287,-0.24360339962772634
12.90949851,0.46439890703483766,0.7288488037353426,-0.1268602189884264
12.91449851,0.4416311117439027,0.6641024917540884,-0.005141160698117995
12.91949847,0.42118282113590644,0.6026384002428103,0.12010454091487767
12.92449847,0.4030407636301506,0.5450256978652284,0.24738629667061482
12.92949847,0.38710669098622325,0.4917370086383636,0.3751918565915856
12.93449851,0.3732025704120836,0.4431451378056323,0.5020071360570835
12.93949851,0.3610771523832504,0.3995213365425839,0.6263359206071659
12.94449851,0.3504137990931484,0.36103509088394414,0.7467192013698559
12.94949847,0.3408394397793821,0.32775540033541833,0.8617539012991191
12.95449847,0.3319345015880593,0.29965349224689397,0.9701107632880283
12.95949847,0.323243648532367,0.2766068994522557,1.070551184626581
12.96449851,0.31428714682321923,0.25840481124458137,1.1619427979908896
12.96949854,0.30457266272702055,0.244754591745712,1.2432736168640124
12.97449854,0.2936072894648736,0.23528934539200488,1.3136645826191542
12.97949854,0.28090959284010963,0.22957639684965742,1.372380371056252
12.98449854,0.26602146158988643,0.22712654248594732,1.4188383376216536
12.98949854,0.24851954820347605,0.2274039228278492,1.4526155025624883
12.99449854,0.2280260894196055,0.22983636041825395,1.4734534996342383
12.9994985,0.20421890306847557,0.2338260052071514,1.4812614345059807
13.0044985,0.17684036952864077,0.23876013005961008,1.4761166215611246
13.00949851,0.1457052217998673,0.24402192198389708,1.458263190301174
13.01449854,0.1107069877989565,0.24900112003200223,1.4281085750193274
13.01949854,0.07182295154503247,0.2531043581284343,1.3862179238700636
13.02449854,0.029117525899601513,0.2557650798272059,1.3333064859912864
13.0294985,-0.017256042094206142,0.25645290157298556,1.2702300579592054
13.0344985,-0.06705568204596114,0.2546823108781766,1.1979735934879956
13.0394985,-0.11995224459321852,0.2500205955168849,1.1176381027284024
13.04449787,-0.1755329646473422,0.24209490919985785,1.0304259894939243
13.04949854,-0.23330659678412904,0.23059838828087095,0.9376249959266234
13.05449854,-0.29271014464435785,0.21529524310462403,0.8405909441583647
13.05949854,-0.3531170761820006,0.19602475703290545,0.7407294830680392
13.06449854,-0.41384688873957737,0.17270413642654955,0.6394770649282381
13.06949854,-0.4741758629811649,0.14533016630738,0.5382813912418313
13.0744985,-0.5333488232372156,0.11397963932686214,0.43858157907203527
13.0794985,-0.5905917041296432,0.07880854009469597,0.34178830836451624
13.08449784,-0.6451247095448007,0.04004998276615603,0.24926421687217906
13.08949787,-0.6961758400485148,-0.0019890831771972152,0.16230481209347009
13.0944979,-0.7429945585566999,-0.04693236609235764,0.08212016893550347
13.0994979,-0.784865361327416,-0.09433987295761558,0.009817677461131482
13.10449787,-0.8211210219611637,-0.14371462783298558,-0.053613903039363815
13.10949783,-0.8511552799054712,-0.19451037971463464,-0.1073188393743552
13.1144978,-0.8744347517470102,-0.24614019384437819,-0.15058704076511728
13.11949776,-0.8905098531300157,-0.2979858039848086,-0.18286468755249896
13.12449777,-0.8990245313244197,-0.34940758811699396,-0.2037626874421659
13.1294978,-0.8997246232527965,-0.39975501680509085,-0.21306280197418953
13.13449783,-0.892464671227224,-0.448377412407587,-0.21072131697830282
13.13949786,-0.8772130488094061,-0.4946348487033407,-0.19687016503005103
13.14449786,-0.8540552720966277,-0.5379090146475207,-0.171815444956569
13.14949696,-0.8231953972829434,-0.5776138631234873,-0.1360333228278427
13.15449693,-0.7849554334143428,-0.6132058658341175,-0.09016334011454279
13.15949693,-0.7397727296448368,-0.6441936988812448,-0.034999197181192855
13.16449626,-0.68819532871619,-0.6701471900351472,0.028522876722102703
13.1694963,-0.6308753124434955,-0.69070536806163,0.09933801310767632
13.1744963,-0.5685602002366529,-0.7055834665819124,0.17626865808468276
13.1794963,-0.5020824976215332,-0.7145787496336402,0.2580423552335791
13.18449626,-0.4323475277903432,-0.7175750432841045,0.3433110853654396
13.18949623,-0.3603197147780439,-0.7145458772843863,0.43067185748830855
13.19449686,-0.2870075212145426,-0.705556162816002,0.5186882160988282
13.19949686,-0.21344727595606106,-0.6907623567570279,0.6059123059070212
13.20449689,-0.1406861564290397,-0.6704110893009104,0.6909071172226325
13.20949693,-0.06976461639362384,-0.6448362597014746,0.7722685244764829
13.21449696,-0.0016985712308408396,-0.614454633713392,0.848646727716863
13.21949699,0.06253833102902095,-0.5797600051966021,0.9187667133092186
13.22449699,0.1220320146729989,-0.5413160126350133,0.9814473661593477
13.22949696,0.1759445157285546,-0.4997477283118982,1.035618891916978
13.23449759,0.22352941833097015,-0.45573216290012275,1.0803382436203357
13.23949809,0.264145862128943,-0.4099878505132105,1.1148022921953384
13.24449809,0.2972708140506196,-0.36326369806005065,1.1383585323764867
13.24949812,0.3225093244790467,-0.31632729741759397,1.1505131725504634
13.25449813,0.3396025218462215,-0.2699529090920697,1.1509365159811469
13.25949812,0.3484331403932648,-0.22490933154927625,1.1394655991328715
13.26449813,0.34902842266118145,-0.18194787131986373,1.1161041079828395
13.26949812,0.34156029022218015,-0.1417906254896914,1.0810196434702382
13.27449813,0.3263427320929286,-0.10511928046869493,1.0345384514149847
13.27949809,0.30382641898262297,-0.0725646192072711,0.9771377699012631
13.28449809,0.2745906118613743,-0.04469691354035829,0.9094359784280833
13.28949809,0.23933249414655378,-0.02201735942198379,0.8321807587348868
13.29449812,0.19885411685971932,-0.0049506909644009825,0.7462354981042006
13.29949902,0.15404720401786157,0.006160914929035916,0.6525641832920824
13.30449902,0.10587611976921968,0.011062557253846228,0.5522150481916035
13.30949899,0.055359347723197755,0.00958989353458165,0.44630325175248814
13.31449966,0.0035498747919431705,0.0016709542652904078,0.33599287478889955
13.31949966,-0.04848509514590944,-0.012673515580307645,0.22247853448308647
13.32449969,-0.09968464999012079,-0.0333311656800204,0.10696692230137352
13.32949969,-0.14901444223324933,-0.0601005517293329,-0.009341426801649884
13.33449969,-0.19548626977514447,-0.09269497594943542,-0.12526982964031977
13.33949969,-0.23817652420668756,-0.13074756086169811,-0.2396823201256635
13.34449969,-0.2762430946595748,-0.17381744008407207,-0.3514994064898374
13.34949969,-0.3089403562406656,-0.2213969325232049,-0.4597124647547095
13.35449966,-0.33563192386747687,-0.2729195524391843,-0.5633965412547841
13.35949962,-0.35580091296689764,-0.32776869766087713,-0.6617213706585547
13.36449962,-0.36905751552512095,-0.3852868516134232,-0.7539604537153878
13.36949962,-0.37514377080968475,-0.4447851315140109,-0.8394980798525457
13.37449965,-0.3739354823570947,-0.5055530148888573,-0.9178342228017445
13.37949965,-0.36544130448114426,-0.5668680794117521,-0.9885872816852252
13.38449965,-0.3497990907426432,-0.6280055969920811,-1.0514946843707689
13.38949912,-0.327269661646418,-0.6882478319755385,-1.1064114132425997
13.39449912,-0.29822820737383204,-0.7468929049398666,-1.1533065546257004
13.39949912,-0.2631535919061013,-0.8032630973093781,-1.192258010745031
13.40449915,-0.22261586625033952,-0.8567124872625309,-1.2234455461203657
13.40949915,-0.17726233007807715,-0.906633823721252,-1.2471423676372
13.41449915,-0.1278025028230646,-0.952464562378053,-1.2637054584809047
13.41949915,-0.07499237723207262,-0.9936920056267945,-1.2735649005010927
13.42449915,-0.019618330570186263,-1.0298575067352966,-1.2772124277738148
13.42949915,0.03751893876062453,-1.0605597173458927,-1.2751894569275337
13.43449912,0.09562009816762983,-1.085456876088994,-1.2680748380979008
13.43949912,0.15390216557528152,-1.1042681544300297,-1.256472564981847
13.44449912,0.21161249854447028,-1.1167740935105062,-1.2409996739734408
13.44949915,0.2680415326390996,-1.1228161822917966,-1.222274551177349
13.45449915,0.3225340562319591,-1.122295642302895,-1.2009058524302139
13.45949915,0.3744988539096916,-1.1151714972812132,-1.177482225337264
13.46449912,0.4234165966564631,-1.1014580166376906,-1.1525630035185652
13.46949908,0.46884590253695885,-1.0812216297662856,-1.126670021315551
13.47449908,0.5104275353414105,-1.0545774136205315,-1.1002806717210993
13.47949912,0.5478867497302344,-1.0216852585861997,-1.0738223012095094
13.48449915,0.5810338294407176,-0.9827458174350491,-1.0476680029514551
13.48949915,0.6097628999303224,-0.9379963391181104,-1.0221338355849043
13.49449915,0.6340491281556262,-0.8877064835343962,-0.9974774595466536
13.49949915,0.653944449500214,-0.8321742054506314,-0.973898148383878
13.50449915,0.6695719845088391,-0.7717217857843713,-0.9515380999496492
13.50949915,0.6811193254982904,-0.7066920769426784,-0.930484943216687
13.51449912,0.6888308850426806,-0.6374450163628845,-0.9107753114042678
13.51949912,0.6929995048839911,-0.5643544493552157,-0.8923993315375399
13.52449912,0.6939575254070351,-0.48780528922089494,-0.8753058646227858
13.52949915,0.6920675130570282,-0.40819102967971715,-0.8594083195259509
13.53449915,0.6877128367089036,-0.32591161201368135,-0.844590857538811
13.53949915,0.6812882747562624,-0.24137163710191994,-0.830714803468632
13.54449912,0.6731908231599789,-0.15497890085419236,-0.8176250826316327
13.54949908,0.6638108613086342,-0.06714322074679979,-0.8051565110149626
13.55449905,0.6535238176727465,0.021724488385896856,-0.7931397777982782
13.55949905,0.6426824612478284,0.11121293904694926,-0.7814069751225038
13.56449908,0.6316099279958995,0.2009110518816762,-0.7697965490379292
13.56949911,0.6205935742443245,0.29040845182404074,-0.7581575673019475
13.57449915,0.6098797317140228,0.3792959400860003,-0.7463532233753504
13.57949915,0.5996694219307576,0.4671660015495585,-0.7342635209259377
13.58449915,0.5901150713876081,0.5536134042182814,-0.7217871088608604
13.58949911,0.5813182528966605,0.6382359427946148,-0.7088422627902217
13.59449908,0.5733284630104674,0.7206353724728185,-0.6953670339429697
13.59949908,0.5661429302792536,0.8004185720787723,-0.6813186095996412
13.60449911,0.5597074345044715,0.8771989681836615,-0.6666719489066647
13.60949914,0.5539181029036138,0.9505982439707945,-0.6514177741619517
13.61449914,0.5486241350205222,1.020248348279417,-0.6355600108736054
13.61949914,0.5436313943977883,1.0857938110675698,-0.6191127809004718
13.62449911,0.5387067918185633,1.1468943613410776,-0.6020970621599108
13.62949908,0.5335833726029414,1.2032278324149377,-0.5845371354054909
13.63449904,0.5279660091198258,1.2544933273816672,-0.5664569425602181
13.63949904,0.5215375894373778,1.300414605108081,-0.5478764811167202
13.64449908,0.5139655840972039,1.3407436342663632,-0.5288083547564629
13.64949911,0.5049088657166755,1.3752642502160706,-0.5092545918569445
13.65449914,0.4940246509049449,1.4037958375320165,-0.4892038316835089
13.65949914,0.4809754312074756,1.426196950304883,-0.4686289636787309
13.66449914,0.4654357599083208,1.4423687737700583,-0.4474852892315631
13.66949911,0.44709876503788415,1.4522583250290708,-0.4257092584830439
13.67449911,0.42568226624125155,1.4558612881137325,-0.40321781789199185
13.67949911,0.40093438421099264,1.4532243796252233,-0.3799083879873539
13.68449914,0.37263854565644655,1.4444471456383874,-0.3556594751549958
13.68949914,0.3406178034982374,1.429683098366502,-0.3303319063583404
13.69449914,0.3047384103508332,1.4091401120621667,-0.3037706612713456
13.69949914,0.26491260266041955,1.3830800115192663,-0.2758072625074466
13.70449914,0.2211005724349539,1.3518173029192708,-0.24626267179740932
13.70949914,0.17331162272733897,1.315717015082968,-0.214950628534418
13.71449911,0.12160452137714335,1.275191638833799,-0.18168135738031824
13.71949907,0.06608708454367422,1.230697172517013,-0.14626556371839744
13.72449907,0.006915036878764722,1.1827283020966999,-0.1085186296961433
13.7294991,-0.055709791665378955,1.1318127639964086,-0.06826491966140502
13.73449914,-0.12154186192885168,1.0785049573282832,-0.025342102316537444
13.73949914,-0.19029483664138294,1.0233788889546591,0.020394602032285245
13.74449824,-0.2616449242448045,0.9670205498820058,0.06906833762711093
13.7494982,-0.33523457151898206,0.9100198349969049,0.12077677678236719
13.7544982,-0.4106764217759192,0.852962130293873,0.17558860921254513
13.7594982,-0.48755745802001427,0.7964197024455233,0.2335404289811881
13.76449824,-0.5654432546712254,0.7409430344779454,0.29463408291726856
13.76949824,-0.6438822667802718,0.687052257940558,0.3588345348052788
13.77449824,-0.7224100917230174,0.6352288358631366,0.42606828858524226
13.77949824,-0.8005536448801484,0.5859076517706244,0.4962224015200616
13.78449824,-0.877835197673003,0.5394696581238844,0.5691441053111913
13.78949824,-0.9537762334780122,0.4962352329144864,0.644641039976728
13.7944982,-1.027901084306006,0.4564583858492957,0.7224820923067421
13.7994982,-1.0997403186000412,0.4203219456279376,0.8023988181139862
13.8044982,-1.1688338579336395,0.38793384726867425,0.8840874155321805
13.80949824,-1.2347338076151175,0.3593246233836729,0.9672112055388622
13.81449824,-1.2970069930629302,0.3344461859391494,1.0514035659270986
13.81949824,-1.355237200181637,0.31317196560770005,1.1362712562886779
13.8244982,-1.409027123742076,0.2952984545800713,1.2213980643613958
13.82949817,-1.458000032866093,0.2805481758821576,1.306348698562351
13.83449813,-1.5018011670291853,0.26857407807693984,1.3906728479755797
13.83949813,-1.5400988794140902,0.2589653290042215,1.4739093297760246
13.84449813,-1.572585546940661,0.2512544562660272,1.5555902452290782
13.84949817,-1.5989782679792808,0.24492575589601595,1.6352450689933642
13.8544982,-1.6190193699007296,0.23942486450614958,1.712404602249781
13.85949823,-1.6324767495929013,0.2341693646956259,1.786604727767296
13.86449823,-1.6391440712464096,0.22856026918582645,1.8573899138494196
13.86949823,-1.6388408473432023,0.2219942065367249,1.9243164235970118
13.8744982,-1.6314124309958287,0.21387611086398095,1.9869551955521536
13.8794982,-1.6167299505378714,0.20363220012572436,2.044894371206937
13.8844982,-1.5946902203430102,0.19072301270154488,2.0977414539557104
13.88949823,-1.5652156648667968,0.17465626056130326,2.145125092926066
13.89449913,-1.528254295351998,0.15499924967318812,2.1866964939241216
13.89949913,-1.4837797799738701,0.1313906146830424,2.2221304686262786
13.9044991,-1.4317916479638468,0.10355111550401135,2.2511261421770135
13.90949906,-1.3723156661419267,0.07129324849221731,2.273407348402938
13.91449903,-1.305404422212628,0.03452943458989123,2.288722750712633
13.91949903,-1.2311381432124442,-0.006721438585333433,2.2968457351315057
13.92449906,-1.149625769828219,-0.05232932411161671,2.2975741294646737
13.9294991,-1.0610062982119728,-0.10205035138222333,2.290729808888265
13.93449913,-0.9654503907552848,-0.15552633927499873,2.276158252973194
13.93949913,-0.8631622464520801,-0.2122866020549509,2.253728122001195
13.94449913,-0.7543817103337281,-0.2717521247631378,2.2233309213552492
13.9494991,-0.6393865902720314,-0.33324214253205425,2.1848808217786457
13.95449906,-0.5184951383860288,-0.39598311260223773,2.138314700442183
13.95949903,-0.3920686434871051,-0.45912001940355207,2.0835924630558886
13.96449903,-0.2605140706075299,-0.5217299025799322,2.020697700706139
13.96949903,-0.12428667389263662,-0.5828374460573521,1.9496387266670947
13.97449906,0.016107499773247654,-0.6414324141375101,1.870450028076821
13.97949909,0.16010930694389292,-0.696488669345177,1.783194154993842
13.98449913,0.3071045009998277,-0.7469844578321708,1.6879640548079093
13.98949913,0.45642212596000004,-0.7919236031960252,1.5848858430938402
13.99449913,0.6073334184817935,-0.8303572102693605,1.474121982704129
13.99949909,0.759051328805658,-0.861405448260734,1.3558748213784386
14.00449909,0.9107307725141978,-0.8842789587167481,1.2303904148914828
14.00949909,1.061469723983449,-0.898299418820235,1.0979625385153668
14.01449912,1.2103112591598353,-0.9029187848068636,0.9589367652424677
14.01949913,1.3562466497141226,-0.8977367437311584,0.8137144657404746
14.02449912,1.498219602654208,-0.8825159142520541,0.6627565633270683
14.02949909,1.6351317290429017,-0.857194358392615,0.5065868582885497
14.03449906,1.765849312374805,-0.8218949964765232,0.3457947205079559
14.03949902,1.8892114310862118,-0.7769315572049095,0.1810369384176181
14.04449836,2.004039470159677,-0.722810745140814,0.013038506582375313
14.04949772,2.1091480333490527,-0.6602303700925615,-0.15740786511726007
14.05449776,2.203357239734944,-0.590073258397251,-0.32944372890321477
14.05949779,2.2855063557527813,-0.5133968558123554,-0.5021485514796579
14.06449779,2.354468676247241,-0.43141853584863943,-0.6745451949565571
14.06949779,2.409167525493192,-0.34549674539185365,-0.8456073261296826
14.07449775,2.4485932021577184,-0.25710824963578854,-1.01426877921599
14.07949775,2.471820642556541,-0.1678218765274968,-1.1794348043211855
14.08449775,2.478027526763453,-0.07926929926639421,-1.3399950316165572
14.08949779,2.466512504727022,0.006886477298999913,-1.494837881500447
14.09449782,2.4367131768682397,0.08898415636159937,-1.64286606521225
14.09949782,2.3882234281575503,0.1653978735428708,-1.7830127562774278
14.10449782,2.3208096892384478,0.23457073094740424,-1.9142579750551512
14.10949782,2.234425685444391,0.2950472698930294,-2.035644717955002
14.11449782,2.129225236398463,0.34550404941259,-2.146294378272431
14.11949782,2.0055726861585605,0.3847775644395596,-2.2454210429509067
14.12449779,1.8640505764478204,0.41188882728838705,-2.332344302694348
14.12949779,1.7054642220621674,0.4260640427388335,-2.4065002749973394
14.13449779,1.5308429054704351,0.42675092513078855,-2.467450605181024
14.13949782,1.3414374735543368,0.413630330339835,-2.5148892755091383
14.14449782,1.138714190179489,0.3866230019477097,-2.548647114518246
14.14949782,0.9243447714902371,0.34589135550821415,-2.56869395644202
14.15449778,0.7001926050272073,0.2918363442542806,-2.575138453278257
14.15949775,0.4682952281038981,0.22508956133288743,-2.5682255893434203
14.16449772,0.23084321473698927,0.1465008359316099,-2.548331990227238
14.16949772,-0.009844306741422993,0.057121672390927046,-2.5159591554316827
14.17449775,-0.2513472120765738,-0.041815038064188785,-2.4717247774136504
14.17949778,-0.49117465343195366,-0.14891853446679948,-2.4163523399471454
14.18449782,-0.726797618292685,-0.26266637694375655,-2.3506592159986797
14.18949782,-0.9556832867472361,-0.38143271223857617,-2.2755435094643315
14.19449848,-1.175330643904524,-0.5035179845981504,-2.1919699055370643
14.19949912,-1.3833067561567993,-0.627179446466026,-2.100954810396297
14.20449912,-1.5772830803263256,-0.7506618218398644,-2.003551071656232
14.20949912,-1.755071144970174,-0.8722274888610537,-1.9008325760978961
14.21449915,-1.9146569249994445,-0.9901855777559063,-1.7938790203389456
14.21949918,-2.0542332260766463,-1.1029194256187078,-1.6837611429829202
14.22449918,-2.1722294055192517,-1.2089118896480535,-1.571526693105649
14.22949915,-2.2673377827925765,-1.3067680929425007,-1.4581873894588935
14.23449911,-2.3385361360086843,-1.3952352581967822,-1.3447070975521613
14.23949908,-2.3851057419784865,-1.4732193701030993,-1.2319914179747717
14.24449905,-2.406644496773382,-1.5397984922019243,-1.120878838750528
14.24949904,-2.4030747508908807,-1.5942326441642167,-1.0121335564250382
14.25449908,-2.3746456058567134,-1.6359702181998217,-0.9064400145102507
14.25949911,-2.321929543746252,-1.664650977411379,-0.8043991456508474
14.26449914,-2.245813393030885,-1.680105734933986,-0.7065262409083531
14.26949914,-2.1474837686878656,-1.6823528620067745,-0.6132503139379135
14.27449914,-2.028407257565686,-1.6715918172711797,-0.5249147870611932
14.27949911,-1.8903057478151823,-1.6481939296670833,-0.4417793046068365
14.28449911,-1.735127419700275,-1.6126907035220734,-0.3640224768006316
14.28949911,-1.5650140196550195,-1.5657599462180822,-0.2917453721737599
14.29449914,-1.3822651253631215,-1.5082100452197837,-0.22497560303065395
14.29949914,-1.1893001730760107,-1.4409627413585724,-0.16367188104240776
14.30449914,-0.9886190572246655,-1.3650347584412656,-0.10772895269969936
14.30949914,-0.7827621265354218,-1.2815186551466289,-0.05698285255638144
14.31449914,-0.5742703920332225,-1.1915632636774824,-0.011216433092200294
14.31949914,-0.36564673326077257,-1.0963540708457402,0.02983485734610777
14.32449911,-0.15931884270142263,-0.9970938815788519,0.06647697208651113
14.32949911,0.04239541278276135,-0.8949840830521946,0.09905106378461409
14.33449911,0.2373196089989132,-0.7912068008433364,0.1279271120725044
14.33949914,0.42344684161104335,-0.6869082076927074,0.15349741891834442
14.34449918,0.5989638414190788,-0.5831832114767834,0.17617001853835745
14.34949918,0.7622708093622462,-0.4810617126811278,0.19636205805241122
14.35449914,0.9119967601789828,-0.3814965839993749,0.2144932136268298
14.35949911,1.0470102705908602,-0.2853534867231373,0.23097921361785873
14.36449911,1.1664256311218124,-0.19340260114524868,0.24622554444971356
14.36949911,1.2696044978859795,-0.1063123117832483,0.2606214163775654
14.37449914,1.356153230290351,-0.02464485314244194,0.2745340653100917
14.37949914,1.4259161812932242,0.05114611181504687,0.28830346441127097
14.38449914,1.4789652773816826,0.1207160401639326,0.30223751623604544
14.38949914,1.515586284665807,0.1838282740319833,0.31660779324743143
14.39449914,1.5362622045721952,0.24035113930372032,0.3316458916962511
14.39949914,1.5416542769643913,0.2902535199970528,0.34754046051360155
14.40449911,1.5325810898702592,0.3335990717111058,0.3644349622525717
14.40949911,1.50999630357903,0.37053925490694506,0.38242621626348305
14.41449911,1.4749654934406105,0.40130538159517803,0.40156376435986557
14.41949914,1.428642601443313,0.4261998770292635,0.42185008583487593
14.42449914,1.372246462922127,0.4455869612328894,0.44324167203345244
14.42949914,1.3070378427933178,0.4598829537030254,0.4656509514820328
14.4344991,1.234297376584524,0.4695463986125207,0.48894903579012866
14.43949907,1.1553047664109328,0.4750681977708381,0.5129692352401122
14.44449904,1.0713195324847178,0.47696192529095865,0.5375112722970568
14.44949904,0.9835635685255616,0.4757544822148698,0.5623461023178847
14.45449907,0.8932056962738861,0.47197723195610847,0.5872212345575475
14.4594991,0.8013483616582208,0.4661577388266836,0.611866434046222
14.46449914,0.7090165642211887,0.4588122125040254,0.6359996767182511
14.46949917,0.6171490630116463,0.450438741338692,0.6593332266874481
14.47449917,0.5265918568022409,0.44151137714075817,0.6815797057487748
14.47949914,0.43809389450548303,0.43247511379364906,0.7024580305424709
14.4844991,0.35230493331184415,0.42374178206278296,0.7216991014725667
14.4894991,0.2697754275802232,0.4156868636125712,0.7390511383679945
14.4944991,0.19095830100082628,0.40864720881075967,0.7542845699561895
14.49949913,0.11621242809850242,0.4029196256933326,0.7671963966261669
14.50449913,0.04580762883455852,0.39876029181609907,0.7776139581651869
14.50949913,-0.02006903798187287,0.39638492692556443,0.7853980500018944
14.5144991,-0.081305910383805,0.3959696526657011,0.790445343126169
