"Time (s)","Acceleration x (m/s^2)","Acceleration y (m/s^2)","Acceleration z (m/s^2)"
5.413660000E-3,2.120040894E0,4.905286312E0,5.632704735E0
1.016886800E-2,2.242074728E0,4.969892502E0,5.809773445E0
1.501886800E-2,2.246860504E0,5.084748268E0,6.077769279E0
1.986886800E-2,2.263610125E0,5.197210789E0,6.393621922E0
2.471928500E-2,2.414358139E0,5.400600910E0,7.209574699E0
2.956949300E-2,2.586641312E0,5.438885689E0,7.735995770E0
3.441980600E-2,2.785245657E0,5.508277893E0,8.329415321E0
3.927001400E-2,2.895315409E0,5.599205017E0,8.841479301E0
4.412032700E-2,2.969492912E0,5.656632900E0,9.253045082E0
4.897053500E-2,2.933600664E0,5.651846886E0,9.518648148E0
5.382084800E-2,2.974278450E0,5.635097504E0,9.695717812E0
5.867116000E-2,3.031706333E0,5.568098068E0,9.757930756E0
6.352136800E-2,3.050848961E0,5.517848969E0,9.698110580E0
6.837168100E-2,3.002992392E0,5.465207100E0,9.518648148E0
7.322188900E-2,2.931207657E0,5.400600910E0,9.217152596E0
7.807220200E-2,2.833101988E0,5.383851051E0,8.865407944E0
8.292241000E-2,2.653640270E0,5.364708424E0,8.394021988E0
8.777272300E-2,2.447857618E0,5.345565796E0,7.846065521E0
9.262303500E-2,2.210968018E0,5.340780258E0,7.264609337E0
9.747324300E-2,1.998006940E0,5.374279499E0,6.802794933E0
1.023235560E-1,1.868794441E0,5.465207100E0,6.582654953E0
1.071737640E-1,1.780260086E0,5.446064472E0,6.630511761E0
1.120240770E-1,1.842473388E0,5.302495003E0,6.948757172E0
1.168742850E-1,2.024327993E0,5.228317261E0,7.369893551E0
1.217245980E-1,2.210968018E0,5.146961689E0,7.769495010E0
1.265749100E-1,2.366501570E0,5.082355499E0,8.157132149E0
1.314251180E-1,2.467000246E0,5.087141037E0,8.518448830E0
1.362754310E-1,2.507678032E0,5.115854740E0,8.894122124E0
1.411256390E-1,2.498106956E0,5.154139996E0,9.207581520E0
1.459759520E-1,2.493321180E0,5.209175110E0,9.477970123E0
1.508261600E-1,2.517249346E0,5.271388054E0,9.736394882E0
1.556764730E-1,2.548356056E0,5.292923450E0,9.903892517E0
1.605267850E-1,2.591426849E0,5.280959606E0,9.985248566E0
1.653769930E-1,2.622533560E0,5.257031441E0,9.951749802E0
1.702273060E-1,2.641676188E0,5.211567879E0,9.820143700E0
1.750775140E-1,2.603390932E0,5.185246468E0,9.647860527E0
1.799278270E-1,2.519642353E0,5.192425251E0,9.437292099E0
1.847780350E-1,2.404786825E0,5.211567879E0,9.154939651E0
1.896283480E-1,2.256431818E0,5.185246468E0,8.829515457E0
1.944785560E-1,2.110469580E0,5.197210789E0,8.499305725E0
1.993288680E-1,1.990828395E0,5.168497086E0,8.164310455E0
2.041790770E-1,1.890329838E0,5.139782906E0,7.831708431E0
2.090293890E-1,1.794616938E0,5.120640278E0,7.532605648E0
2.138797020E-1,1.737189293E0,5.170889854E0,7.293323517E0
2.187299100E-1,1.730010748E0,5.218746185E0,7.147361279E0
2.235802230E-1,1.737189293E0,5.197210789E0,7.092326164E0
2.284304310E-1,1.689332843E0,5.132604599E0,7.077969551E0
2.332807430E-1,1.648654819E0,5.079962254E0,7.068397999E0
2.381309520E-1,1.579262972E0,5.027320385E0,7.022934437E0
2.429812640E-1,1.466800332E0,4.991427898E0,6.958328247E0
2.478314730E-1,1.392622828E0,4.991427898E0,6.920042992E0
2.526817850E-1,1.301695466E0,4.974678040E0,6.888936520E0
2.574385040E-1,1.146162033E0,4.847858906E0,6.905686378E0
2.621937120E-1,1.119840980E0,4.888536453E0,6.920042992E0
2.669488680E-1,1.155733347E0,4.890929699E0,7.020541668E0
2.717040770E-1,1.189232826E0,4.881358147E0,7.202396393E0
2.764592330E-1,1.215553880E0,4.857429981E0,7.357929707E0
2.812144410E-1,1.261017561E0,4.852644444E0,7.558926582E0
2.859695980E-1,1.308874011E0,4.843072891E0,7.795815945E0
2.907248060E-1,1.299302697E0,4.850251675E0,8.027919769E0
2.954799620E-1,1.261017561E0,4.855037212E0,8.298309326E0
3.002351700E-1,1.225125194E0,4.876572609E0,8.499305725E0
3.049903270E-1,1.215553880E0,4.864608288E0,8.721838951E0
3.097455350E-1,1.184447169E0,4.862215519E0,8.963513374E0
3.145006910E-1,1.160519004E0,4.864608288E0,9.174081802E0
3.192559000E-1,1.146162033E0,4.800002098E0,9.351150513E0
3.240110560E-1,1.129412293E0,4.733003139E0,9.504291534E0
3.287662640E-1,1.143769264E0,4.658825874E0,9.619147301E0
3.335214200E-1,1.141376376E0,4.560719967E0,9.784252167E0
3.382766290E-1,1.155733347E0,4.400400639E0,1.007856941E1
3.430317850E-1,1.217946768E0,4.290330887E0,1.030827999E1
3.477869930E-1,1.172483087E0,4.201796532E0,1.043509960E1
3.525422020E-1,1.033699393E0,4.163511276E0,1.034895802E1
3.572973580E-1,8.111668825E-1,4.177868366E0,1.016231823E1
3.620525140E-1,5.670989752E-1,4.151547432E0,9.954142570E0
3.668077230E-1,4.115654826E-1,4.120440483E0,9.774680138E0
3.715628790E-1,3.158525825E-1,4.098905087E0,9.602396965E0
3.763180870E-1,2.919243574E-1,4.115654945E0,9.420542717E0
3.810732430E-1,2.823530734E-1,4.175475597E0,9.073583603E0
3.858284520E-1,3.254238665E-1,4.496113777E0,8.197810173E0
3.905836080E-1,5.216353536E-1,4.386044025E0,8.262416840E0
3.953388160E-1,7.202396393E-1,4.249652863E0,8.580661774E0
4.000939730E-1,8.781659007E-1,4.335794449E0,8.580661774E0
4.048491810E-1,7.106683254E-1,4.627718925E0,8.595019341E0
4.096043370E-1,6.436693072E-1,4.503292084E0,8.870193481E0
4.143595450E-1,7.178468108E-1,4.393222332E0,8.891729355E0
4.191147020E-1,5.431707501E-1,4.086941242E0,8.750552177E0
4.238699100E-1,5.335994363E-1,3.893122435E0,8.781659126E0
4.286250660E-1,6.699903607E-1,3.905086517E0,8.810373306E0
4.333802750E-1,1.028913736E0,3.716053486E0,8.707481384E0
4.381354310E-1,1.131805062E0,3.890729666E0,8.736195564E0
4.428906390E-1,1.203589797E0,4.103690624E0,8.805587769E0
4.476457950E-1,1.272981644E0,4.304687977E0,8.920442581E0
4.524010040E-1,1.304088354E0,4.462614059E0,9.047262192E0
4.571561600E-1,1.287338614E0,4.615755081E0,9.236295700E0
4.619113680E-1,1.280160069E0,4.666004181E0,9.403793335E0
4.666665250E-1,1.232303619E0,4.716253281E0,9.511469841E0
4.714216810E-1,1.227517962E0,4.677968502E0,9.643074989E0
4.761768890E-1,1.268195987E0,4.620540619E0,9.786644936E0
4.809320450E-1,1.328016520E0,4.589433670E0,9.875179291E0
4.856872540E-1,1.390229940E0,4.522434711E0,9.875179291E0
4.904424100E-1,1.418943882E0,4.503292084E0,9.822537422E0
4.951976180E-1,1.466800332E0,4.476971149E0,9.729216576E0
4.999527750E-1,1.538584948E0,4.374079704E0,9.576076508E0
5.047079830E-1,1.490728498E0,4.388436794E0,9.418149948E0
5.094631390E-1,1.361516118E0,4.508078098E0,9.279366493E0
5.142183480E-1,1.261017561E0,4.599005222E0,9.157332420E0
5.189735040E-1,1.110269666E0,4.625326157E0,9.020941734E0
5.237287120E-1,9.858429432E-1,4.608576298E0,8.915657043E0
5.284838680E-1,9.188438654E-1,4.572684288E0,8.784051895E0
5.332390250E-1,8.327022791E-1,4.560719967E0,8.597412109E0
5.379942330E-1,7.369893789E-1,4.479363918E0,8.444271088E0
5.427493890E-1,6.747759581E-1,4.405186653E0,8.334200859E0
5.475045980E-1,6.484549642E-1,4.319045067E0,8.317451477E0
5.522597540E-1,6.843472719E-1,4.290330887E0,8.319844246E0
5.570149620E-1,6.987041831E-1,4.225724697E0,8.382058144E0
5.617701180E-1,7.034898400E-1,4.194618225E0,8.458627701E0
5.665253270E-1,3.230310678E-1,4.254438877E0,8.238488197E0
5.712804830E-1,-1.124626622E-1,4.247260094E0,7.671389580E0
5.760356910E-1,2.081755698E-1,4.173082829E0,8.152346611E0
5.807908480E-1,3.445664644E-1,4.350151539E0,8.623732567E0
5.855460040E-1,4.905286431E-1,4.455435753E0,8.941978455E0
5.903012120E-1,7.345965505E-1,4.441078663E0,9.355937004E0
5.950563680E-1,9.643075466E-1,4.278367043E0,9.810572624E0
5.998115770E-1,1.186840057E0,4.086941242E0,9.997213364E0
6.045667330E-1,1.086341500E0,4.034298897E0,9.872786522E0
6.093219410E-1,1.050449133E0,4.132404804E0,9.925428391E0
6.140770980E-1,1.134197950E0,4.199403763E0,1.011924744E1
6.188322540E-1,8.518448472E-1,3.873979807E0,1.016949654E1
6.235874620E-1,7.704889178E-1,3.804588079E0,1.003789139E1
6.283426180E-1,6.891329288E-1,3.797409534E0,9.958928108E0
6.330978270E-1,4.570291340E-1,3.972085476E0,9.738788605E0
6.378529830E-1,4.929214716E-1,4.118047714E0,9.879964828E0
6.426081910E-1,6.580262184E-1,4.237689018E0,1.017188931E1
6.473633480E-1,6.795616150E-1,4.271188259E0,1.033460140E1
6.521185040E-1,6.843472719E-1,4.146761417E0,1.024367332E1
6.568737120E-1,7.058826685E-1,4.029513359E0,1.000439167E1
6.616288680E-1,7.250252366E-1,3.917050600E0,9.690931320E0
6.663840770E-1,5.359922647E-1,3.955335855E0,9.288937569E0
6.711392330E-1,4.666004181E-1,4.029513359E0,8.953942299E0
6.758943890E-1,7.298108935E-1,3.964907169E0,8.937192917E0
6.806495980E-1,9.092726111E-1,3.926621914E0,8.910871506E0
6.854047540E-1,1.012163997E0,3.919443607E0,8.874979019E0
6.901599620E-1,1.069591761E0,3.890729666E0,8.815158844E0
6.949151180E-1,1.057627559E0,3.938585997E0,8.776873589E0
6.996703270E-1,1.021735311E0,3.981656790E0,8.640482903E0
7.044254830E-1,1.064806104E0,3.991228104E0,8.494520187E0
7.091806390E-1,1.186840057E0,3.967299938E0,8.422736168E0
7.139358480E-1,1.311266780E0,3.962514400E0,8.315058708E0
7.186910040E-1,1.328016520E0,3.991228104E0,8.279166222E0
7.234462120E-1,1.316052437E0,3.972085476E0,8.315058708E0
7.282013680E-1,1.268195987E0,3.991228104E0,8.370093346E0
7.329565250E-1,1.194018483E0,3.979264021E0,8.468199730E0
7.377117330E-1,1.103091240E0,4.007977962E0,8.571090698E0
7.424668890E-1,1.019342422E0,4.022335052E0,8.717052460E0
7.472220980E-1,9.547362328E-1,4.027120590E0,8.874979019E0
7.519772540E-1,9.020941257E-1,4.048655987E0,8.968298912E0
7.567324100E-1,8.757730722E-1,4.046263218E0,9.075976372E0
7.614876180E-1,8.159525394E-1,4.034298897E0,9.147761345E0
7.662427750E-1,7.872386575E-1,4.031906128E0,9.157332420E0
7.709979830E-1,7.561319470E-1,4.024727821E0,9.154939651E0
7.757531390E-1,1.062413216E0,3.969692707E0,9.066405296E0
7.805083480E-1,9.379864931E-1,3.931407690E0,9.097511292E0
7.852635040E-1,6.532405615E-1,4.031906128E0,9.018548965E0
7.900186600E-1,6.077769399E-1,4.089334011E0,8.863015175E0
7.947738680E-1,5.766702294E-1,4.098905087E0,8.827122688E0
7.995290250E-1,8.494520187E-1,4.036691666E0,8.762516975E0
8.042841810E-1,8.398807645E-1,3.988835335E0,8.810373306E0
8.090393890E-1,5.934200287E-1,3.993621111E0,8.786444664E0
8.137945450E-1,4.785645306E-1,4.060619831E0,8.707481384E0
8.185497020E-1,4.187439680E-1,4.118047714E0,8.736195564E0
8.233049100E-1,5.024927258E-1,4.103690624E0,8.702695847E0
8.280600660E-1,7.513462901E-1,4.022335052E0,8.688339233E0
8.328152750E-1,4.594219327E-1,4.060619831E0,8.752944946E0
8.375704310E-1,4.163511395E-1,4.165904045E0,8.635697365E0
8.423256390E-1,3.397808075E-1,4.218546391E0,8.645268440E0
8.470807950E-1,5.551348329E-1,4.120440483E0,8.638090134E0
8.518359520E-1,3.302095234E-1,4.412364960E0,8.590232849E0
8.565911080E-1,1.483550072E-1,4.455435753E0,8.587840080E0
8.613463160E-1,9.571290761E-2,4.409972191E0,8.664410591E0
8.661014730E-1,2.033899277E-1,4.331008911E0,8.879764557E0
8.708566810E-1,3.804588020E-1,4.235296249E0,9.028120041E0
8.756118370E-1,4.570291340E-1,4.199403763E0,9.104690552E0
8.803669930E-1,5.790630579E-1,4.122833252E0,9.164510727E0
8.851222020E-1,5.120640397E-1,4.130012035E0,9.253045082E0
8.898773580E-1,2.512463629E-1,4.299902439E0,9.243474007E0
8.946325660E-1,9.810572863E-2,4.400400639E0,9.193224907E0
8.993877230E-1,1.914258152E-1,4.297509670E0,9.229117393E0
9.041428790E-1,2.033899277E-1,4.292723656E0,9.375079155E0
9.088980870E-1,1.292124242E-1,4.357329845E0,9.451649666E0
9.136532430E-1,1.842473447E-1,4.371686935E0,9.487542152E0
9.184084000E-1,2.656033039E-1,4.405186653E0,9.506684303E0
9.231636080E-1,3.565305769E-1,4.429114819E0,9.516255379E0
9.279187640E-1,4.881358147E-1,4.414757729E0,9.477970123E0
9.326739200E-1,5.862415433E-1,4.414757729E0,9.466006279E0
9.374291290E-1,6.460621357E-1,4.390829563E0,9.451649666E0
9.421842850E-1,6.963114142E-1,4.400400639E0,9.415757179E0
9.469394930E-1,7.345965505E-1,4.402793884E0,9.387042999E0
9.516946500E-1,7.561319470E-1,4.381258488E0,9.346364975E0
9.564498060E-1,8.063812256E-1,4.366901398E0,9.288937569E0
9.612050140E-1,8.135597110E-1,4.331008911E0,9.224330902E0
9.659601700E-1,8.518448472E-1,4.314259052E0,9.195617676E0
9.707153270E-1,8.709874153E-1,4.280759811E0,9.176474571E0
9.754705350E-1,8.446664214E-1,4.280759811E0,9.157332420E0
9.802256910E-1,8.135597110E-1,4.302295208E0,9.126225471E0
9.849808480E-1,7.872386575E-1,4.280759811E0,9.128618240E0
9.897360560E-1,7.465606928E-1,4.307080746E0,9.133403778E0
9.944912120E-1,7.393822074E-1,4.278367043E0,9.116654396E0
9.992463680E-1,7.369893789E-1,4.256831646E0,9.138189316E0
1.004001577E0,7.298108935E-1,4.244867325E0,9.166903496E0
1.008756733E0,6.699903607E-1,4.266402721E0,9.178867340E0
1.013511889E0,6.293123364E-1,4.309473515E0,9.202795982E0
1.018267098E0,6.221339107E-1,4.345366001E0,9.214759827E0
1.023022254E0,6.173482537E-1,4.333401680E0,9.198010445E0
1.027777410E0,5.958128572E-1,4.297509670E0,9.190832138E0
1.032532618E0,5.910272002E-1,4.247260094E0,9.200403214E0
1.037287775E0,5.766702294E-1,4.199403763E0,9.212367058E0
1.042042931E0,5.551348329E-1,4.134797573E0,9.212367058E0
1.046798139E0,5.240281820E-1,4.051048756E0,9.200403214E0
1.051553295E0,4.474578202E-1,4.029513359E0,9.212367058E0
1.056308452E0,3.637090325E-1,3.969692707E0,9.243474007E0
1.061063660E0,2.895315289E-1,3.907479286E0,9.236295700E0
1.065818816E0,1.794617027E-1,3.909872293E0,9.269794464E0
1.070573973E0,8.135596663E-2,3.869194269E0,9.303294182E0
1.075329181E0,-2.871387079E-2,3.840480328E0,9.351150513E0
1.080084337E0,-2.536391914E-1,4.096512318E0,9.238688469E0
1.084839493E0,-3.589234054E-1,3.991228104E0,9.018548965E0
1.089594702E0,-2.225325108E-1,3.799802303E0,8.731410027E0
1.094349858E0,3.828516230E-2,3.687339783E0,8.573483467E0
1.099105014E0,1.507478207E-1,3.634697676E0,8.590232849E0
1.103860223E0,3.110669367E-2,3.582055569E0,8.726624489E0
1.108615379E0,-2.871387079E-2,3.687339783E0,8.846264839E0
1.113370535E0,-1.028913707E-1,3.766302824E0,8.932407379E0
1.118125691E0,-2.536391914E-1,3.842873096E0,8.994620323E0
1.122880900E0,-3.565305769E-1,3.912265062E0,9.006584167E0
1.127636056E0,-4.283152521E-1,3.924229145E0,9.092725754E0
1.132391212E0,-4.546363056E-1,3.912265062E0,9.219545364E0
1.137146420E0,-3.996013701E-1,3.873979807E0,9.422935486E0
1.141901577E0,-3.996013701E-1,3.869194269E0,9.676574707E0
1.146656733E0,-3.469592929E-1,3.866801500E0,9.934999466E0
1.151411941E0,-2.895315289E-1,3.845266104E0,1.015513897E1
1.156167098E0,-3.062812984E-1,3.838087559E0,1.034417248E1
1.160922254E0,-3.924229145E-1,3.821337700E0,1.046142101E1
1.165677462E0,-5.216353536E-1,3.828516245E0,1.056670475E1
1.170432618E0,-6.508477330E-1,3.842873096E0,1.065763187E1
1.175187775E0,-7.345965505E-1,3.859622955E0,1.074616623E1
1.179942931E0,-8.422735929E-1,3.895515203E0,1.082752228E1
1.184698139E0,-8.973084688E-1,3.926621914E0,1.088495064E1
1.189453295E0,-9.667003751E-1,3.938585997E0,1.088016415E1
1.194208452E0,-9.140582681E-1,3.948157310E0,1.091844940E1
1.198963660E0,-9.044869542E-1,3.988835335E0,1.090409279E1
1.203718816E0,-8.614161611E-1,4.036691666E0,1.086820030E1
1.208473973E0,-8.303094506E-1,4.079762459E0,1.082512951E1
1.213229181E0,-7.441678643E-1,4.106083870E0,1.075573826E1
1.217984337E0,-6.628118753E-1,4.153940201E0,1.067677498E1
1.222739493E0,-5.838487148E-1,4.141975880E0,1.053559780E1
1.227494650E0,-5.168496966E-1,4.208974838E0,1.040159988E1
1.232249858E0,-4.570291340E-1,4.206582069E0,1.030588722E1
1.237005014E0,-4.737788737E-1,4.120440483E0,1.019103146E1
1.241760170E0,-4.570291340E-1,4.043870449E0,1.001635551E1
1.246515379E0,-3.661018610E-1,3.981656790E0,9.844072342E0
1.251270535E0,-2.368894368E-1,3.897907972E0,9.638289452E0
1.256025691E0,-1.363908947E-1,3.823730469E0,9.391828537E0
1.260780848E0,-7.417750359E-2,3.696911097E0,9.169296265E0
1.265536056E0,9.571290575E-3,3.656233072E0,8.932407379E0
1.270291212E0,7.657032460E-2,3.613162279E0,8.738588333E0
1.275046368E0,1.842473447E-1,3.608376503E0,8.544769287E0
1.279801577E0,2.751746178E-1,3.546163082E0,8.370093346E0
1.284556733E0,3.661018610E-1,3.495913982E0,8.231309891E0
1.289311889E0,4.666004181E-1,3.457628727E0,8.152346611E0
1.294067045E0,5.670989752E-1,3.409772158E0,8.133204460E0
1.298822254E0,6.628118753E-1,3.378665686E0,8.161917686E0
1.303577410E0,5.790630579E-1,3.376272678E0,7.944170952E0
1.308332566E0,6.963114142E-1,3.328416348E0,8.042277336E0
1.313087723E0,7.824530005E-1,3.251846075E0,8.312665939E0
1.317842931E0,9.164510965E-1,3.196810961E0,8.482556343E0
1.322598087E0,1.112662554E0,3.148954630E0,8.726624489E0
1.327353243E0,1.155733347E0,3.156133175E0,8.879764557E0
1.332108452E0,1.148554921E0,3.192025423E0,9.035298347E0
1.336863608E0,1.184447169E0,3.196810961E0,9.250652313E0
1.341618764E0,1.210768223E0,3.170490026E0,9.432506561E0
1.346373920E0,1.208375454E0,3.168097258E0,9.588040352E0
1.351129077E0,1.198804140E0,3.156133175E0,9.755537987E0
1.355884285E0,1.179661512E0,3.132204771E0,9.901499748E0
1.360639441E0,1.146162033E0,3.101098061E0,1.002831936E1
1.365394598E0,1.079162955E0,3.072384357E0,1.012881851E1
1.370149754E0,9.714859724E-1,3.058027267E0,1.018146038E1
1.374904962E0,8.159525394E-1,3.034099102E0,1.025563812E1
1.379660118E0,7.106683254E-1,3.029313564E0,1.029870892E1
1.384415275E0,6.149554253E-1,3.038884640E0,1.029870892E1
1.389170483E0,5.335994363E-1,3.012563705E0,1.027478027E1
1.393925639E0,4.498506486E-1,3.031706333E0,1.022931671E1
1.398680795E0,3.708875179E-1,3.031706333E0,1.015992451E1
1.403435952E0,3.158525825E-1,3.065205812E0,1.006660461E1
1.408191108E0,2.081755698E-1,3.103491068E0,9.937392235E0
1.412946316E0,1.292124242E-1,3.141776085E0,9.803394318E0
1.417701473E0,5.264209956E-2,3.184846878E0,9.664610863E0
1.422456629E0,-1.435693540E-2,3.223132133E0,9.521040916E0
1.427211785E0,-7.178468257E-2,3.218346357E0,9.372686386E0
1.431966993E0,-1.124626622E-1,3.249453068E0,9.233902931E0
1.436722150E0,-1.914258152E-1,3.199203968E0,9.102297783E0
1.441477306E0,-3.014956415E-1,3.136990547E0,9.004191399E0
1.446232462E0,-3.541377485E-1,3.165704250E0,8.939585686E0
1.450987670E0,-4.331009090E-1,3.146561861E0,8.894122124E0
1.455742827E0,-4.618147612E-1,3.151347399E0,8.851051331E0
1.460497983E0,-5.048855543E-1,3.117847919E0,8.841479301E0
1.465253139E0,-5.431707501E-1,3.110669374E0,8.872586250E0
1.470008295E0,-5.503492355E-1,3.105883837E0,8.930013657E0
1.474763504E0,-5.407779217E-1,3.093919754E0,9.008976936E0
1.479518660E0,-5.312066078E-1,3.101098061E0,9.090332985E0
1.484273816E0,-5.264210105E-1,3.058027267E0,9.188439369E0
1.489029025E0,-5.024927258E-1,3.012563705E0,9.293723106E0
1.493784181E0,-4.331009090E-1,3.000599623E0,9.384650230E0
1.498539337E0,-3.708875179E-1,3.005385160E0,9.466006279E0
1.503294493E0,-3.206382394E-1,2.998206854E0,9.533005714E0
1.508049650E0,-2.679961324E-1,2.998206854E0,9.576076508E0
1.512804858E0,-1.962114573E-1,3.005385160E0,9.600004196E0
1.517560014E0,-1.148554832E-1,3.007778168E0,9.628718376E0
1.522315170E0,-5.982056633E-2,3.024527788E0,9.640682220E0
1.527070327E0,1.914258115E-2,3.031706333E0,9.655039787E0
1.531825483E0,1.244267747E-1,3.074777126E0,9.671789169E0
1.536580691E0,1.890329868E-1,3.122633457E0,9.671789169E0
1.541335848E0,2.967100143E-1,3.136990547E0,9.683753014E0
1.546091004E0,4.163511395E-1,3.170490026E0,9.700503349E0
1.550846160E0,4.833501875E-1,3.225524902E0,9.681360245E0
1.555601368E0,5.264210105E-1,3.230310678E0,9.652647018E0
1.560356525E0,5.288137794E-1,3.316452265E0,9.616754532E0
1.565111681E0,5.623133183E-1,3.407379389E0,9.442078590E0
1.569866837E0,6.987041831E-1,3.424129248E0,9.547362328E0
1.574621993E0,7.752745152E-1,3.416950703E0,9.537791252E0
1.579377202E0,8.446664214E-1,3.443271875E0,9.542576790E0
1.584132358E0,8.757730722E-1,3.503092289E0,9.509077072E0
1.588887514E0,8.781659007E-1,3.558127165E0,9.449256897E0
1.593642670E0,8.949156404E-1,3.589233875E0,9.365508080E0
1.598397827E0,9.164510965E-1,3.625126362E0,9.279366493E0
1.603153035E0,8.877372146E-1,3.665804386E0,9.183652878E0
1.607908191E0,8.662018180E-1,3.670589924E0,9.085547447E0
1.612663348E0,8.207381964E-1,3.718446493E0,8.985049248E0
1.617418504E0,7.585247755E-1,3.713660717E0,8.884550095E0
1.622173660E0,6.891329288E-1,3.744767427E0,8.807980537E0
1.626928868E0,6.125625968E-1,3.747160196E0,8.721838951E0
1.631684025E0,4.953143001E-1,3.737588882E0,8.697910309E0
1.636439181E0,4.211367965E-1,3.732803345E0,8.647661209E0
1.641194337E0,3.397808075E-1,3.728017569E0,8.647661209E0
1.645949493E0,2.608176768E-1,3.701696634E0,8.647661209E0
1.650704702E0,1.459621787E-1,3.689732552E0,8.712266922E0
1.655459858E0,5.742774159E-2,3.668197155E0,8.786444664E0
1.660215014E0,-4.785645381E-2,3.653840065E0,8.882157326E0
1.664970170E0,-1.818545163E-1,3.613162279E0,8.989834785E0
1.669725327E0,-2.632105052E-1,3.574877024E0,9.126225471E0
1.674480483E0,-3.732803464E-1,3.553341627E0,9.265008926E0
1.679235691E0,-4.666004181E-1,3.510270834E0,9.384650230E0
1.683990848E0,-5.312066078E-1,3.515056372E0,9.475577354E0
1.688746004E0,-5.742774606E-1,3.488735437E0,9.583254814E0
1.693501160E0,-6.412764788E-1,3.479164124E0,9.705288887E0
1.698256316E0,-7.154539824E-1,3.448057413E0,9.805787086E0
1.703011525E0,-7.800601721E-1,3.414557934E0,9.884750366E0
1.707766681E0,-8.494520187E-1,3.402593851E0,9.949356079E0
1.712521837E0,-9.068797827E-1,3.404986620E0,9.968499184E0
1.717276993E0,-9.714859724E-1,3.366701365E0,9.946963310E0
1.722032150E0,-1.057627559E0,3.328416348E0,9.915857315E0
1.726787306E0,-1.100698471E0,3.318845034E0,9.896714211E0
1.731542514E0,-1.153340459E0,3.302095175E0,9.817750931E0
1.736297670E0,-1.208375454E0,3.299702406E0,9.743574142E0
1.741052827E0,-1.256231904E0,3.309273720E0,9.657432556E0
1.745807983E0,-1.304088354E0,3.302095175E0,9.590433121E0
1.750563139E0,-1.366301775E0,3.297309637E0,9.523433685E0
1.755318295E0,-1.428515077E0,3.306880951E0,9.470791817E0
1.760073452E0,-1.471585870E0,3.299702406E0,9.403793335E0
1.764828660E0,-1.500299811E0,3.292523861E0,9.324830055E0
1.769583816E0,-1.505085468E0,3.321237803E0,9.265008926E0
1.774338973E0,-1.524227977E0,3.371487141E0,9.202795982E0
1.779094129E0,-1.500299811E0,3.378665686E0,9.171689034E0
1.783849285E0,-1.529013634E0,3.402593851E0,9.131011009E0
1.788604441E0,-1.514656782E0,3.438486099E0,9.099904060E0
1.793359650E0,-1.462014675E0,3.488735437E0,9.099904060E0
1.798114806E0,-1.428515077E0,3.479164124E0,9.123832703E0
1.802869962E0,-1.371087432E0,3.486342669E0,9.157332420E0
1.807625118E0,-1.299302697E0,3.517449379E0,9.207581520E0
1.812380275E0,-1.215553880E0,3.510270834E0,9.269794464E0
1.817135431E0,-1.107876897E0,3.462414265E0,9.322437286E0
1.821890639E0,-1.036092162E0,3.433700562E0,9.420542717E0
1.826645795E0,-9.547362328E-1,3.364308596E0,9.583254814E0
1.831400952E0,-8.446664214E-1,3.316452265E0,9.707681656E0
1.836156108E0,-7.298108935E-1,3.259024382E0,9.860821724E0
1.840911264E0,-6.436693072E-1,3.237488985E0,9.985248566E0
1.845666420E0,-5.503492355E-1,3.187239647E0,1.009531879E1
1.850421629E0,-4.642075896E-1,3.141776085E0,1.018385315E1
1.855176785E0,-3.948157430E-1,3.053241730E0,1.024845982E1
1.859931941E0,-3.062812984E-1,2.998206854E0,1.030110168E1
1.864687098E0,-2.033899277E-1,2.933600664E0,1.032742214E1
1.869442254E0,-1.316052526E-1,2.837887764E0,1.034177971E1
1.874197410E0,-5.742774159E-2,2.790031195E0,1.032742214E1
1.878952566E0,-7.178467698E-3,2.732603550E0,1.025803089E1
1.883707723E0,3.110669367E-2,2.648854733E0,1.021017456E1
1.888462931E0,5.982056633E-2,2.605783939E0,1.011446095E1
1.893218087E0,7.417750359E-2,2.536391973E0,9.966106415E0
1.897973243E0,8.853443712E-2,2.500499725E0,9.801001549E0
1.902728400E0,8.614161611E-2,2.452643156E0,9.614361763E0
1.907483556E0,5.024927482E-2,2.411965132E0,9.434899330E0
1.912238712E0,5.742774159E-2,2.373680115E0,9.267401695E0
1.916993868E0,2.153540403E-2,2.337787628E0,9.099904060E0
1.921749077E0,4.785645287E-3,2.287538528E0,8.920442581E0
1.926504233E0,-2.632104978E-2,2.234896421E0,8.779266357E0
1.931259389E0,-5.503492057E-2,2.187039852E0,8.638090134E0
1.936014545E0,-9.571290761E-2,2.187039852E0,8.532805443E0
1.940769702E0,-1.292124242E-1,2.143969059E0,8.446663857E0
1.945524858E0,-1.435693651E-1,2.105684042E0,8.391629219E0
1.950280014E0,-2.177468538E-1,2.120040894E0,8.389236450E0
1.955035170E0,-2.488535494E-1,2.117648125E0,8.463413239E0
1.959790327E0,-2.536391914E-1,2.088934183E0,8.554341316E0
1.964545535E0,-2.512463629E-1,2.091326952E0,8.697910309E0
1.969300691E0,-2.823530734E-1,2.093719721E0,8.855836868E0
1.974055848E0,-2.991028428E-1,2.143969059E0,9.042476654E0
1.978811004E0,-3.278166950E-1,2.146361828E0,9.260223389E0
1.983566160E0,-3.230310678E-1,2.170290232E0,9.485149384E0
1.988321316E0,-3.086741269E-1,2.179861546E0,9.724431038E0
1.993076473E0,-2.656033039E-1,2.201396942E0,9.939785004E0
1.997831629E0,-2.584248483E-1,2.234896421E0,1.009292603E1
2.002586785E0,-2.967100143E-1,2.239681959E0,1.026520920E1
2.007341993E0,-3.302095234E-1,2.287538528E0,1.044227791E1
2.012097150E0,-3.780659735E-1,2.304288149E0,1.060259724E1
2.016852306E0,-4.474578202E-1,2.325823545E0,1.072702408E1
2.021607462E0,-5.192425251E-1,2.373680115E0,1.079162979E1
2.026362618E0,-5.790630579E-1,2.409572363E0,1.080598736E1
2.031117775E0,-6.508477330E-1,2.395215511E0,1.077009487E1
2.035872931E0,-7.154539824E-1,2.435893536E0,1.069352436E1
2.040628087E0,-8.111668825E-1,2.469393015E0,1.059781170E1
2.045383243E0,-8.709874153E-1,2.476571321E0,1.046859932E1
2.050138400E0,-9.451649189E-1,2.524427891E0,1.032742214E1
2.054893608E0,-1.024128079E0,2.572284460E0,1.017428207E1
2.059648764E0,-1.071984529E0,2.634497643E0,1.001874828E1
2.064403920E0,-1.103091240E0,2.689532757E0,9.882357597E0
2.069159077E0,-1.129412293E0,2.703889608E0,9.757930756E0
2.073914233E0,-1.184447169E0,2.737389088E0,9.662218094E0
2.078669389E0,-1.256231904E0,2.749353170E0,9.623932838E0
2.083424545E0,-1.392622828E0,2.749353170E0,9.513862610E0
2.088179702E0,-1.373480201E0,2.785245657E0,9.475577354E0
2.092934858E0,-1.426122308E0,2.775674343E0,9.415757179E0
2.097690014E0,-1.564906001E0,2.653640270E0,9.336793900E0
2.102445223E0,-1.598405480E0,2.608176708E0,9.205188751E0
2.107200379E0,-1.653440475E0,2.658426046E0,9.114261627E0
2.111955535E0,-1.703689694E0,2.687139750E0,9.059226990E0
2.116710691E0,-1.775474429E0,2.687139750E0,9.078369141E0
2.121465848E0,-1.844866276E0,2.658426046E0,9.154939651E0
2.126221004E0,-1.859223247E0,2.620140791E0,9.279366493E0
2.130976160E0,-1.859223247E0,2.550748825E0,9.444471359E0
2.135731316E0,-1.820937991E0,2.510071039E0,9.628718376E0
2.140486473E0,-1.773081541E0,2.435893536E0,9.822537422E0
2.145241629E0,-1.789831281E0,2.356930256E0,1.000917721E1
2.149996785E0,-1.806581140E0,2.275574446E0,1.020060253E1
2.154751993E0,-1.823330879E0,2.179861546E0,1.040877819E1
2.159507150E0,-1.854437590E0,2.129612207E0,1.064088249E1
2.164262306E0,-1.864008784E0,2.103291035E0,1.082512951E1
2.169017462E0,-1.813759565E0,2.074577332E0,1.095912743E1
2.173772618E0,-1.770688772E0,2.029113531E0,1.105484104E1
2.178527775E0,-1.682154298E0,1.978864312E0,1.114337540E1
2.183282931E0,-1.612762451E0,1.940579176E0,1.117448139E1
2.188038087E0,-1.526620865E0,1.923829436E0,1.116251755E1
2.192793243E0,-1.433300734E0,1.938186288E0,1.110030460E1
2.197548400E0,-1.354337573E0,1.974078655E0,1.098066330E1
2.202303556E0,-1.284945726E0,1.954936147E0,1.081795120E1
2.207058712E0,-1.227517962E0,1.976471543E0,1.060499001E1
2.211813868E0,-1.177268744E0,2.000399828E0,1.039681435E1
2.216569025E0,-1.100698471E0,2.021935225E0,1.016231823E1
2.221324181E0,-9.906286001E-1,2.053041935E0,9.925428391E0
2.226079389E0,-8.853443861E-1,2.081755638E0,9.705288887E0
2.230834545E0,-8.518448472E-1,2.124826431E0,9.521040916E0
2.235589702E0,-7.800601721E-1,2.146361828E0,9.339186668E0
2.240344858E0,-7.465606928E-1,2.184647083E0,9.195617676E0
2.245100014E0,-7.154539824E-1,2.196611166E0,9.049654961E0
2.249855170E0,-6.891329288E-1,2.246860504E0,8.906085968E0
2.254610327E0,-6.628118753E-1,2.280359983E0,8.779266357E0
2.259365483E0,-6.221339107E-1,2.323430777E0,8.657232285E0
2.264120639E0,-5.958128572E-1,2.352144718E0,8.566305161E0
2.268875795E0,-5.503492355E-1,2.400001049E0,8.496912956E0
2.273630952E0,-5.431707501E-1,2.423929453E0,8.468199730E0
2.278386108E0,-5.216353536E-1,2.474178553E0,8.453842163E0
2.283141264E0,-5.335994363E-1,2.500499725E0,8.511270523E0
2.287896420E0,-5.072783828E-1,2.529213428E0,8.559126854E0
2.292651577E0,-5.120640397E-1,2.565105915E0,8.611768723E0
2.297406733E0,-5.527420044E-1,2.596212626E0,8.709874153E0
2.302161889E0,-5.838487148E-1,2.627319336E0,8.772088051E0
2.306917045E0,-6.101697683E-1,2.636890650E0,8.874979019E0
2.311672202E0,-6.532405615E-1,2.646461725E0,8.927620888E0
2.316427410E0,-7.154539824E-1,2.653640270E0,8.982656479E0
2.321182514E0,-7.633104324E-1,2.675175667E0,9.040083885E0
2.325937723E0,-7.776673436E-1,2.675175667E0,9.102297783E0
2.330692879E0,-8.231309652E-1,2.687139750E0,9.157332420E0
2.335448035E0,-8.781659007E-1,2.691925526E0,9.236295700E0
2.340203191E0,-9.188438654E-1,2.708675146E0,9.293723106E0
2.344958348E0,-9.643075466E-1,2.723032236E0,9.365508080E0
2.349713504E0,-9.954141974E-1,2.732603550E0,9.418149948E0
2.354468660E0,-1.028913736E0,2.756531715E0,9.454042435E0
2.359223816E0,-1.052842021E0,2.787638426E0,9.480362892E0
2.363978973E0,-1.081555843E0,2.818745136E0,9.492327690E0
2.368734129E0,-1.119840980E0,2.854637384E0,9.540184021E0
2.373489285E0,-1.141376376E0,2.902493954E0,9.535398483E0
2.378244441E0,-1.170090318E0,2.926422119E0,9.540184021E0
2.382999598E0,-1.170090318E0,2.933600664E0,9.540184021E0
2.387754754E0,-1.220339537E0,2.933600664E0,9.552147865E0
2.392509910E0,-1.256231904E0,2.926422119E0,9.540184021E0
2.397265066E0,-1.294517040E0,2.928814888E0,9.561718941E0
2.402020223E0,-1.308874011E0,2.868994236E0,9.571290970E0
2.406775379E0,-1.316052437E0,2.835494757E0,9.607182503E0
2.411530535E0,-1.335195065E0,2.763710260E0,9.645467758E0
2.416285691E0,-1.265803218E0,2.679961443E0,9.791430473E0
2.421040848E0,-1.390229940E0,2.586641312E0,9.915857315E0
2.425796004E0,-1.356730461E0,2.555534601E0,1.000199890E1
2.430551160E0,-1.378265858E0,2.488535643E0,1.012403297E1
2.435306316E0,-1.414158225E0,2.390429735E0,1.021496010E1
2.440061473E0,-1.404586911E0,2.321038008E0,1.029392338E1
2.444816629E0,-1.402194023E0,2.213361025E0,1.037288570E1
2.449571785E0,-1.387837172E0,2.132004976E0,1.043988514E1
2.454326941E0,-1.387837172E0,2.031506538E0,1.051167011E1
2.459082098E0,-1.380658627E0,1.957328916E0,1.052602673E1
2.463837254E0,-1.397408366E0,1.875972986E0,1.055234814E1
2.468592410E0,-1.347159147E0,1.811366796E0,1.057149029E1
2.473347566E0,-1.275374413E0,1.770688772E0,1.056670475E1
2.478102723E0,-1.239482164E0,1.703689694E0,1.046859932E1
2.482857879E0,-1.225125194E0,1.643869162E0,1.032981491E1
2.487613035E0,-1.222732425E0,1.605584025E0,1.021735287E1
2.492368191E0,-1.304088354E0,1.536192179E0,1.006181908E1
2.497123348E0,-1.275374413E0,1.452443361E0,9.946963310E0
2.501878504E0,-1.284945726E0,1.361516118E0,9.815358162E0
2.506633660E0,-1.306481123E0,1.263410330E0,9.738788605E0
2.511388816E0,-1.320838094E0,1.182054400E0,9.623932838E0
2.516143973E0,-1.306481123E0,1.119840980E0,9.537791252E0
2.520899129E0,-1.261017561E0,1.071984529E0,9.439684868E0
2.525654285E0,-1.215553880E0,1.009771109E0,9.312865257E0
2.530409441E0,-1.124626637E0,9.451649189E-1,9.188439369E0
2.535164598E0,-1.045663476E0,8.949156404E-1,9.064012527E0
2.539919754E0,-1.040877819E0,8.279166222E-1,8.999405861E0
2.544674910E0,-9.786644578E-1,7.920243144E-1,8.949156761E0
2.549430066E0,-9.475577474E-1,7.202396393E-1,8.939585686E0
2.554185223E0,-9.116654396E-1,6.891329288E-1,8.977870941E0
2.558940379E0,-8.901300430E-1,6.149554253E-1,9.028120041E0
2.563695535E0,-8.590233326E-1,5.886343718E-1,9.138189316E0
2.568450691E0,-8.159525394E-1,5.335994363E-1,9.334401131E0
2.573205848E0,-7.513462901E-1,5.479564071E-1,9.516255379E0
2.577961004E0,-6.987041831E-1,5.144568682E-1,9.698110580E0
2.582716160E0,-6.532405615E-1,5.072783828E-1,9.930213928E0
2.587471316E0,-6.867401004E-1,4.642075896E-1,1.009771156E1
2.592226473E0,-7.369893789E-1,3.972085714E-1,1.027956581E1
2.596981629E0,-7.322037220E-1,4.091726840E-1,1.045902824E1
2.601736785E0,-7.034898400E-1,4.474578202E-1,1.059781170E1
2.606491941E0,-7.585247755E-1,4.977070987E-1,1.066481018E1
2.611247098E0,-8.350951076E-1,5.814558864E-1,1.069591713E1
2.616002254E0,-8.422735929E-1,6.604190469E-1,1.076770210E1
2.620757410E0,-8.518448472E-1,7.322037220E-1,1.078923702E1
2.625512566E0,-8.925228715E-1,7.896314859E-1,1.078445148E1
2.630267723E0,-8.877372146E-1,8.470591903E-1,1.075334454E1
2.635022879E0,-9.188438654E-1,8.757730722E-1,1.067198944E1
2.639778035E0,-9.499505758E-1,9.044869542E-1,1.056431198E1
2.644533191E0,-1.012163997E0,9.355936646E-1,1.045424175E1
2.649288348E0,-1.028913736E0,9.260223508E-1,1.035374355E1
2.654043504E0,-1.062413216E0,9.834501147E-1,1.023170948E1
2.658798660E0,-1.055234790E0,1.012163997E0,1.010967541E1
2.663553816E0,-1.050449133E0,1.026520967E0,9.992427826E0
2.668308973E0,-1.062413216E0,1.091127157E0,9.865608215E0
2.673064129E0,-1.069591761E0,1.141376376E0,9.745966911E0
2.677819285E0,-1.098305583E0,1.184447169E0,9.657432556E0
2.682574441E0,-1.117448211E0,1.194018483E0,9.604789734E0
2.687329598E0,-1.122233868E0,1.191625714E0,9.564111710E0
2.692084754E0,-1.100698471E0,1.213161111E0,9.535398483E0
2.696839910E0,-1.048056364E0,1.234696507E0,9.454042435E0
2.701595066E0,-9.786644578E-1,1.251446247E0,9.391828537E0
2.706350223E0,-9.571290612E-1,1.287338614E0,9.351150513E0
2.711105379E0,-9.236295223E-1,1.344766378E0,9.310472488E0
2.715860483E0,-9.068797827E-1,1.363908887E0,9.276973724E0
2.720615639E0,-8.829515576E-1,1.423729420E0,9.305686951E0
2.725370795E0,-8.422735929E-1,1.464407444E0,9.341579437E0
2.730125952E0,-8.255237937E-1,1.466800332E0,9.406186104E0
2.734881108E0,-7.657032609E-1,1.466800332E0,9.449256897E0
2.739636264E0,-7.226324677E-1,1.469193101E0,9.516255379E0
2.744391420E0,-6.556333899E-1,1.462014675E0,9.621540070E0
2.749146577E0,-6.173482537E-1,1.459621787E0,9.769894600E0
2.753901733E0,-5.335994363E-1,1.430907965E0,9.903892517E0
2.758656889E0,-4.450650215E-1,1.416550994E0,1.002592659E1
2.763412045E0,-3.517449200E-1,1.414158225E0,1.012642574E1
2.768167202E0,-2.799602449E-1,1.433300734E0,1.016710377E1
2.772922358E0,-2.201396823E-1,1.457229018E0,1.021256733E1
2.777677514E0,-2.297109663E-1,1.500299811E0,1.021974564E1
2.782432670E0,-2.823530734E-1,1.560120344E0,1.020299530E1
2.787187827E0,-3.445664644E-1,1.567298889E0,1.018624592E1
2.791942983E0,-4.331009090E-1,1.562513232E0,1.020299530E1
2.796698139E0,-4.857429862E-1,1.540977836E0,1.021256733E1
2.801453295E0,-5.670989752E-1,1.536192179E0,1.018624592E1
2.806208452E0,-6.484549642E-1,1.505085468E0,1.020538902E1
2.810963608E0,-7.752745152E-1,1.485942841E0,1.017667484E1
2.815718712E0,-8.662018180E-1,1.466800332E0,1.014317513E1
2.820473868E0,-9.595218897E-1,1.438086390E0,1.010010433E1
2.825229025E0,-1.069591761E0,1.447657704E0,1.003549862E1
2.829984181E0,-1.134197950E0,1.471585870E0,9.949356079E0
2.834739337E0,-1.186840057E0,1.500299811E0,9.846465111E0
2.839494493E0,-1.237089276E0,1.497906923E0,9.748359680E0
2.844249650E0,-1.249053478E0,1.531406522E0,9.619147301E0
2.849004806E0,-1.249053478E0,1.548156261E0,9.506684303E0
2.853759962E0,-1.263410330E0,1.562513232E0,9.387042999E0
2.858515118E0,-1.258624673E0,1.552941918E0,9.334401131E0
2.863270275E0,-1.227517962E0,1.576870084E0,9.300901413E0
2.868025431E0,-1.191625714E0,1.612762451E0,9.255437851E0
2.872780587E0,-1.134197950E0,1.653440475E0,9.262616158E0
2.877535743E0,-1.074377418E0,1.710868239E0,9.269794464E0
2.882290900E0,-9.930213690E-1,1.720439434E0,9.334401131E0
2.887046056E0,-8.949156404E-1,1.758724689E0,9.425328255E0
2.891801160E0,-8.279166222E-1,1.801795483E0,9.516255379E0
2.896556316E0,-7.345965505E-1,1.835294962E0,9.635896683E0
2.901311473E0,-6.747759581E-1,1.852044702E0,9.755537987E0
2.906066629E0,-6.101697683E-1,1.871187329E0,9.858428955E0
2.910821785E0,-5.144568682E-1,1.844866276E0,9.992427826E0
2.915576941E0,-4.019941986E-1,1.825723648E0,1.014556789E1
2.920332098E0,-2.608176768E-1,1.828116536E0,1.025324535E1
2.925087254E0,-1.938186288E-1,1.789831281E0,1.032742214E1
2.929842410E0,-1.100698411E-1,1.749153376E0,1.035374355E1
2.934597566E0,-1.196411345E-2,1.713261008E0,1.036810017E1
2.939352723E0,2.632104978E-2,1.636690736E0,1.035135078E1
2.944107879E0,6.699903309E-2,1.574477315E0,1.030827999E1
2.948862983E0,7.657032460E-2,1.548156261E0,1.022692394E1
2.953618139E0,7.178468257E-2,1.495514154E0,1.016231823E1
2.958373295E0,8.374879509E-2,1.457229018E0,1.004506969E1
2.963128452E0,6.699903309E-2,1.406979680E0,9.894321442E0
2.967883608E0,7.178468257E-2,1.373480201E0,9.686145782E0
2.972638764E0,2.632104978E-2,1.330409408E0,9.513862610E0
2.977393920E0,2.153540403E-2,1.289731383E0,9.401400566E0
2.982149077E0,4.785645287E-3,1.222732425E0,9.284152031E0
2.986904233E0,-4.307080805E-2,1.198804140E0,9.224330902E0
2.991659389E0,-7.896314561E-2,1.191625714E0,9.142974854E0
2.996414545E0,-1.387837082E-1,1.182054400E0,9.006584167E0
3.001169650E0,-1.100698411E-1,1.170090318E0,8.949156761E0
3.005924806E0,-1.411765367E-1,1.191625714E0,8.863015175E0
3.010679962E0,-1.746760458E-1,1.201196909E0,8.757730484E0
3.015435118E0,-2.440679073E-1,1.239482164E0,8.666803360E0
3.020190275E0,-2.632105052E-1,1.277767301E0,8.650053978E0
3.024945431E0,-3.254238665E-1,1.253839016E0,8.757730484E0
3.029700587E0,-4.163511395E-1,1.328016520E0,8.860622406E0
3.034455743E0,-4.450650215E-1,1.371087432E0,9.020941734E0
3.039210900E0,-4.761717021E-1,1.373480201E0,9.245866776E0
3.043966056E0,-4.977070987E-1,1.426122308E0,9.501898766E0
3.048721212E0,-5.096712112E-1,1.497906923E0,9.767501831E0
3.053476316E0,-5.144568682E-1,1.562513232E0,1.002831936E1
3.058231473E0,-5.024927258E-1,1.617548108E0,1.025324535E1
3.062986629E0,-4.977070987E-1,1.674975872E0,1.049252701E1
3.067741785E0,-4.498506486E-1,1.706082582E0,1.073420238E1
3.072496941E0,-3.732803464E-1,1.727617979E0,1.095673466E1
3.077252098E0,-2.919243574E-1,1.753939033E0,1.111944675E1
3.082007254E0,-2.177468538E-1,1.753939033E0,1.124387360E1
3.086762410E0,-1.316052526E-1,1.765903115E0,1.129651546E1
3.091517566E0,-5.264209956E-2,1.780260086E0,1.128694439E1
3.096272670E0,-2.153540403E-2,1.794616938E0,1.120080280E1
3.101027827E0,1.196411345E-2,1.787438512E0,1.105005455E1
3.105782983E0,2.632104978E-2,1.761117458E0,1.084187984E1
3.110538139E0,-9.571290575E-3,1.727617979E0,1.056431198E1
3.115293295E0,-6.221338734E-2,1.694118381E0,1.023649502E1
3.120048452E0,-1.746760458E-1,1.627119422E0,9.901499748E0
3.124803608E0,-2.775674164E-1,1.631905079E0,9.568898201E0
3.129558764E0,-3.541377485E-1,1.648654819E0,9.260223389E0
3.134313868E0,-4.043870270E-1,1.641476393E0,8.946763992E0
3.139069025E0,-5.096712112E-1,1.627119422E0,8.657232285E0
3.143824181E0,-5.958128572E-1,1.581655741E0,8.396414757E0
3.148579337E0,-6.819544435E-1,1.648654819E0,8.126026154E0
3.153334493E0,-7.944171429E-1,1.631905079E0,7.898707390E0
3.158089650E0,-8.327022791E-1,1.660618901E0,7.767102242E0
3.162844806E0,-9.164510965E-1,1.617548108E0,7.726424217E0
3.167599962E0,-9.786644578E-1,1.631905079E0,7.690532207E0
3.172355118E0,-1.002592683E0,1.648654819E0,7.664210796E0
3.177110223E0,-1.055234790E0,1.720439434E0,7.680960655E0
3.181865379E0,-1.189232826E0,1.797009826E0,7.786244869E0
3.186620535E0,-1.249053478E0,1.873580098E0,7.917850018E0
3.191375691E0,-1.299302697E0,1.931007862E0,8.063812256E0
3.196130848E0,-1.289731383E0,1.986042738E0,8.276773453E0
3.200886004E0,-1.289731383E0,1.990828395E0,8.568697929E0
3.205641160E0,-1.296909928E0,2.009970903E0,8.889336586E0
3.210396316E0,-1.268195987E0,2.057827473E0,9.267401695E0
3.215151420E0,-1.220339537E0,2.057827473E0,9.674181938E0
3.219906577E0,-1.146162033E0,2.055434704E0,1.004985523E1
3.224661733E0,-9.906286001E-1,2.062613010E0,1.037527943E1
3.229416889E0,-8.255237937E-1,2.122433662E0,1.067438221E1
3.234172045E0,-6.580262184E-1,2.184647083E0,1.097348499E1
3.238927202E0,-5.288137794E-1,2.175075769E0,1.119362450E1
3.243682358E0,-4.067798555E-1,2.158325911E0,1.142333508E1
3.248437514E0,-2.967100143E-1,2.146361828E0,1.163868904E1
3.253192618E0,-1.722832322E-1,2.098505497E0,1.178465176E1
3.257947775E0,-5.742774159E-2,2.048256159E0,1.185643578E1
3.262702931E0,3.828516230E-2,1.964507341E0,1.181336498E1
3.267458087E0,9.332008660E-2,1.914258122E0,1.173918819E1
3.272213243E0,1.459621787E-1,1.861616015E0,1.158126163E1
3.276968400E0,2.153540403E-1,1.792224169E0,1.135633659E1
3.281723504E0,2.703889608E-1,1.720439434E0,1.109791183E1
3.286478660E0,2.679961324E-1,1.672582984E0,1.080120182E1
3.291233816E0,2.464607358E-1,1.596012712E0,1.048774147E1
3.295988973E0,1.842473447E-1,1.543370605E0,1.014556789E1
3.300744129E0,1.268195957E-1,1.533799291E0,9.841679573E0
3.305499285E0,7.178468257E-2,1.521835208E0,9.525827408E0
3.310254441E0,-1.196411345E-2,1.497906923E0,9.274580956E0
3.315009545E0,-9.571290761E-2,1.478764415E0,9.037691116E0
3.319764702E0,-1.603191197E-1,1.478764415E0,8.884550095E0
3.324519858E0,-2.679961324E-1,1.464407444E0,8.800801277E0
3.329275014E0,-3.708875179E-1,1.459621787E0,8.772088051E0
3.334030170E0,-4.642075896E-1,1.438086390E0,8.776873589E0
3.338785327E0,-5.527420044E-1,1.450050473E0,8.788837433E0
3.343540431E0,-6.029912829E-1,1.440479279E0,8.817551613E0
3.348295587E0,-6.388836503E-1,1.478764415E0,8.889336586E0
3.353050743E0,-6.891329288E-1,1.512263894E0,9.013762474E0
3.357805900E0,-8.207381964E-1,1.572084427E0,9.188439369E0
3.362561056E0,-7.465606928E-1,1.672582984E0,9.131011009E0
3.367316212E0,-6.795616150E-1,1.722832322E0,9.439684868E0
3.372071368E0,-6.843472719E-1,1.746760488E0,9.623932838E0
3.376826473E0,-6.005984545E-1,1.820937991E0,9.865608215E0
3.381581629E0,-5.718846321E-1,1.895115495E0,1.014078236E1
3.386336785E0,-5.335994363E-1,2.002792597E0,1.034656525E1
3.391091941E0,-4.761717021E-1,2.079362869E0,1.062173939E1
3.395847098E0,-4.498506486E-1,2.148754835E0,1.084905815E1
3.400602254E0,-3.972085714E-1,2.194218397E0,1.105244732E1
3.405357358E0,-3.469592929E-1,2.213361025E0,1.118883896E1
3.410112514E0,-2.584248483E-1,2.266003132E0,1.124148083E1
3.414867670E0,-1.674975902E-1,2.299502611E0,1.125583744E1
3.419622827E0,-6.221338734E-2,2.328216314E0,1.118166065E1
3.424377983E0,-1.196411345E-2,2.330609322E0,1.104526901E1
3.429133139E0,7.417750359E-2,2.337787628E0,1.089212894E1
3.433888243E0,1.052841991E-1,2.376072884E0,1.067438221E1
3.438643400E0,1.459621787E-1,2.376072884E0,1.044706345E1
3.443398556E0,1.722832322E-1,2.385644197E0,1.019342422E1
3.448153712E0,2.321037948E-1,2.361716032E0,9.927821159E0
3.452908868E0,2.703889608E-1,2.299502611E0,9.669396400E0
3.457664025E0,3.038884699E-1,2.258824587E0,9.382257462E0
3.462419129E0,2.847459018E-1,2.237289190E0,9.099904060E0
3.467174285E0,2.536391914E-1,2.182254314E0,8.860622406E0
3.471929441E0,2.153540403E-1,2.129612207E0,8.618947029E0
3.476684598E0,1.603191197E-1,2.038684845E0,8.434700012E0
3.481439754E0,9.092725813E-2,1.995614052E0,8.295916557E0
3.486194910E0,0.000000000E0,1.940579176E0,8.200202942E0
3.490950014E0,-8.374879509E-2,1.895115495E0,8.104490280E0
3.495705170E0,-1.674975902E-1,1.844866276E0,8.063812256E0
3.500460327E0,-2.560320199E-1,1.789831281E0,8.049455643E0
3.505215483E0,-3.302095234E-1,1.739582062E0,8.104490280E0
3.509970639E0,-4.187439680E-1,1.727617979E0,8.193024635E0
3.514725743E0,-5.072783828E-1,1.703689694E0,8.346165657E0
3.519480900E0,-5.982056856E-1,1.677368641E0,8.595019341E0
3.524236056E0,-6.891329288E-1,1.653440475E0,8.841479301E0
3.528991212E0,-7.800601721E-1,1.636690736E0,9.054440498E0
3.533746368E0,-8.327022791E-1,1.615155339E0,9.310472488E0
3.538501525E0,-8.805587292E-1,1.591227055E0,9.602396965E0
3.543256629E0,-9.044869542E-1,1.572084427E0,9.879964828E0
3.548011785E0,-9.236295223E-1,1.576870084E0,1.012403297E1
3.552766941E0,-9.212366939E-1,1.560120344E0,1.036331463E1
3.557522098E0,-8.997012973E-1,1.576870084E0,1.053559780E1
3.562277254E0,-9.140582681E-1,1.576870084E0,1.068156052E1
3.567032358E0,-8.829515576E-1,1.581655741E0,1.078923702E1
3.571787514E0,-8.925228715E-1,1.574477315E0,1.084905815E1
3.576542670E0,-8.853443861E-1,1.579262972E0,1.084187984E1
3.581297827E0,-8.398807645E-1,1.564906001E0,1.080120182E1
3.586052983E0,-8.015955687E-1,1.569691658E0,1.070309544E1
3.590808139E0,-7.537391186E-1,1.564906001E0,1.055952644E1
3.595563243E0,-7.058826685E-1,1.540977836E0,1.038006496E1
3.600318400E0,-6.484549642E-1,1.548156261E0,1.022453117E1
3.605073556E0,-5.862415433E-1,1.560120344E0,1.008096218E1
3.609828712E0,-5.072783828E-1,1.540977836E0,9.954142570E0
3.614583868E0,-4.618147612E-1,1.605584025E0,9.834501266E0
3.619338973E0,-4.091726840E-1,1.634297848E0,9.750752449E0
3.624094129E0,-3.780659735E-1,1.670190215E0,9.652647018E0
3.628849285E0,-3.254238665E-1,1.694118381E0,9.600004196E0
3.633604441E0,-2.967100143E-1,1.741974831E0,9.540184021E0
3.638359598E0,-2.560320199E-1,1.777867198E0,9.528220177E0
3.643114702E0,-2.057827413E-1,1.825723648E0,9.535398483E0
3.647869858E0,-1.674975902E-1,1.859223247E0,9.611968994E0
3.652625014E0,-1.794617027E-1,1.928615093E0,9.726823807E0
3.657380170E0,-1.722832322E-1,1.964507341E0,9.822537422E0
3.662135327E0,-1.555334777E-1,1.971685886E0,9.954142570E0
3.666890431E0,-1.483550072E-1,2.014756680E0,1.007139015E1
3.671645587E0,-1.627119333E-1,2.043470621E0,1.017188931E1
3.676400743E0,-1.627119333E-1,2.036292076E0,1.026999474E1
3.681155900E0,-1.746760458E-1,2.036292076E0,1.034417248E1
3.685911004E0,-1.842473447E-1,2.038684845E0,1.038485050E1
3.690666160E0,-1.938186288E-1,2.036292076E0,1.039681435E1
3.695421316E0,-2.273181528E-1,1.990828395E0,1.038724327E1
3.700176473E0,-2.057827413E-1,1.995614052E0,1.036331463E1
3.704931629E0,-2.153540403E-1,1.971685886E0,1.029870892E1
3.709686785E0,-2.225325108E-1,1.947757602E0,1.022453117E1
3.714441889E0,-2.201396823E-1,1.923829436E0,1.013838959E1
3.719197045E0,-2.847459018E-1,1.897508383E0,1.003310490E1
3.723952202E0,-3.158525825E-1,1.837687731E0,9.927821159E0
3.728707358E0,-3.708875179E-1,1.804188251E0,9.791430473E0
3.733462462E0,-4.546363056E-1,1.756331801E0,9.695717812E0
3.738217618E0,-5.479564071E-1,1.706082582E0,9.614361763E0
3.742972775E0,-6.364908218E-1,1.646261930E0,9.597611427E0
3.747727931E0,-7.178468108E-1,1.593619823E0,9.561718941E0
3.752483087E0,-7.561319470E-1,1.519442320E0,9.552147865E0
3.757238191E0,-8.255237937E-1,1.454836130E0,9.540184021E0
3.761993348E0,-8.566305041E-1,1.383051515E0,9.547362328E0
3.766748504E0,-9.068797827E-1,1.351944804E0,9.521040916E0
3.771503660E0,-8.805587292E-1,1.311266780E0,9.487542152E0
3.776258816E0,-8.470591903E-1,1.270588875E0,9.442078590E0
3.781013920E0,-8.207381964E-1,1.280160069E0,9.394221306E0
3.785769077E0,-7.896314859E-1,1.277767301E0,9.382257462E0
3.790524233E0,-7.633104324E-1,1.289731383E0,9.384650230E0
3.795279389E0,-7.082754970E-1,1.292124271E0,9.403793335E0
3.800034493E0,-6.388836503E-1,1.306481123E0,9.410971642E0
3.804789650E0,-5.551348329E-1,1.349551916E0,9.427721024E0
3.809544806E0,-4.450650215E-1,1.351944804E0,9.454042435E0
3.814299962E0,-3.852444589E-1,1.351944804E0,9.461220741E0
3.819055118E0,-3.086741269E-1,1.342373490E0,9.466006279E0
3.823810223E0,-2.632105052E-1,1.347159147E0,9.513862610E0
3.828565379E0,-1.914258152E-1,1.332802176E0,9.540184021E0
3.833320535E0,-1.459621787E-1,1.363908887E0,9.571290970E0
3.838075691E0,-9.332008660E-2,1.354337573E0,9.631111145E0
3.842830795E0,-6.221338734E-2,1.368694544E0,9.659825325E0
3.847585952E0,7.178467698E-3,1.375872970E0,9.681360245E0
3.852341108E0,2.632104978E-2,1.409372568E0,9.712467194E0
3.857096264E0,8.853443712E-2,1.418943882E0,9.738788605E0
3.861851420E0,1.507478207E-1,1.440479279E0,9.726823807E0
3.866606525E0,1.483550072E-1,1.483550072E0,9.726823807E0
3.871361681E0,1.459621787E-1,1.450050473E0,9.688538551E0
3.876116837E0,1.459621787E-1,1.469193101E0,9.671789169E0
3.880871993E0,1.387837082E-1,1.466800332E0,9.614361763E0
3.885627098E0,9.332008660E-2,1.488335729E0,9.580862045E0
3.890382254E0,7.178468257E-2,1.505085468E0,9.568898201E0
3.895137410E0,1.603191197E-1,1.452443361E0,9.738788605E0
3.899892566E0,3.589234129E-2,1.529013634E0,9.616754532E0
3.904647723E0,-5.264209956E-2,1.529013634E0,9.585647583E0
3.909402827E0,-1.052841991E-1,1.512263894E0,9.602396965E0
3.914157983E0,-1.339980662E-1,1.495514154E0,9.638289452E0
3.918913139E0,-1.244267747E-1,1.517049551E0,9.657432556E0
3.923668295E0,-1.674975902E-1,1.521835208E0,9.712467194E0
3.928423400E0,-2.129612118E-1,1.564906001E0,9.791430473E0
3.933178556E0,-2.177468538E-1,1.574477315E0,9.872786522E0
3.937933712E0,-1.938186288E-1,1.615155339E0,1.001635551E1
3.942688868E0,-2.129612118E-1,1.641476393E0,1.017906761E1
3.947444025E0,-2.321037948E-1,1.617548108E0,1.030588722E1
3.952199129E0,-2.368894368E-1,1.584048629E0,1.044467068E1
3.956954285E0,-2.440679073E-1,1.588834286E0,1.057388306E1
3.961709441E0,-2.512463629E-1,1.557727575E0,1.067677498E1
3.966464545E0,-2.727817893E-1,1.531406522E0,1.072941685E1
3.971219702E0,-2.608176768E-1,1.502692580E0,1.073420238E1
3.975974858E0,-2.799602449E-1,1.500299811E0,1.074377346E1
3.980730014E0,-2.967100143E-1,1.493121386E0,1.068156052E1
3.985485170E0,-2.751746178E-1,1.478764415E0,1.055474091E1
3.990240275E0,-2.536391914E-1,1.476371527E0,1.037049294E1
3.994995431E0,-2.560320199E-1,1.430907965E0,1.016231823E1
3.999750587E0,-2.799602449E-1,1.411765337E0,9.865608215E0
4.004505743E0,-3.302095234E-1,1.342373490E0,9.537791252E0
4.009260848E0,-2.991028428E-1,1.263410330E0,9.365508080E0
4.014016004E0,-4.450650215E-1,1.239482164E0,9.131011009E0
4.018771160E0,-4.977070987E-1,1.239482164E0,8.839086533E0
4.023526316E0,-6.053841114E-1,1.261017561E0,8.638090134E0
4.028281420E0,-6.628118753E-1,1.253839016E0,8.511270523E0
4.033036577E0,-6.604190469E-1,1.225125194E0,8.377271652E0
4.037791733E0,-6.317051649E-1,1.191625714E0,8.312665939E0
4.042546889E0,-5.216353536E-1,1.165304661E0,8.295916557E0
4.047301993E0,-5.144568682E-1,1.127019525E0,8.353343964E0
4.052057150E0,-4.833501875E-1,1.153340459E0,8.470592499E0
4.056812306E0,-4.809573591E-1,1.165304661E0,8.654839516E0
4.061567462E0,-4.522434771E-1,1.186840057E0,8.891729355E0
4.066322618E0,-4.402793646E-1,1.237089276E0,9.145368576E0
4.071077723E0,-4.235295951E-1,1.270588875E0,9.406186104E0
4.075832879E0,-3.852444589E-1,1.265803218E0,9.674181938E0
4.080588035E0,-3.038884699E-1,1.280160069E0,9.968499184E0
4.085343191E0,-1.651047617E-1,1.308874011E0,1.018863869E1
4.090098295E0,-1.028913707E-1,1.332802176E0,1.046620655E1
4.094853452E0,-3.589234129E-2,1.363908887E0,1.071506023E1
4.099608608E0,2.392822690E-2,1.399801254E0,1.093759251E1
4.104363712E0,7.657032460E-2,1.438086390E0,1.110509014E1
4.109118868E0,1.459621787E-1,1.435693622E0,1.121755219E1
4.113874025E0,1.986042857E-1,1.411765337E0,1.129651546E1
4.118629181E0,2.584248483E-1,1.385444283E0,1.135394382E1
4.123384337E0,3.038884699E-1,1.325623751E0,1.133719349E1
4.128139441E0,3.373879790E-1,1.308874011E0,1.123669529E1
4.132894598E0,3.804588020E-1,1.296909928E0,1.104526901E1
4.137649754E0,4.139583111E-1,1.304088354E0,1.082273674E1
4.142404910E0,4.307080805E-1,1.299302697E0,1.054038334E1
4.147160014E0,4.642075896E-1,1.296909928E0,1.026760197E1
4.151915170E0,4.809573591E-1,1.301695466E0,1.003789139E1
4.156670327E0,4.689932466E-1,1.268195987E0,9.841679573E0
4.161425431E0,4.307080805E-1,1.289731383E0,9.674181938E0
4.166180587E0,3.708875179E-1,1.275374413E0,9.540184021E0
4.170935743E0,3.302095234E-1,1.277767301E0,9.454042435E0
4.175690900E0,2.584248483E-1,1.256231904E0,9.372686386E0
4.180446004E0,2.225325108E-1,1.227517962E0,9.327222824E0
4.185201160E0,2.416750938E-1,1.241874933E0,9.286544800E0
4.189956316E0,2.368894368E-1,1.208375454E0,9.243474007E0
4.194711473E0,2.656033039E-1,1.205982566E0,9.205188751E0
4.199466577E0,2.584248483E-1,1.194018483E0,9.226723671E0
4.204221733E0,2.775674164E-1,1.174875975E0,9.238688469E0
4.208976889E0,2.919243574E-1,1.167697430E0,9.262616158E0
4.213732045E0,2.943171859E-1,1.165304661E0,9.303294182E0
4.218487150E0,3.110669553E-1,1.131805062E0,9.351150513E0
4.223242306E0,3.326023519E-1,1.129412293E0,9.391828537E0
4.227997462E0,3.589234054E-1,1.143769264E0,9.427721024E0
4.232752618E0,3.828516304E-1,1.162911773E0,9.477970123E0
4.237507723E0,3.996013701E-1,1.155733347E0,9.523433685E0
4.242262879E0,3.996013701E-1,1.208375454E0,9.521040916E0
4.247018035E0,4.187439680E-1,1.217946768E0,9.580862045E0
4.251773191E0,3.780659735E-1,1.160519004E0,9.667003632E0
4.256528295E0,4.259224236E-1,1.150947690E0,9.731609344E0
4.261283452E0,4.761717021E-1,1.160519004E0,9.824930191E0
4.266038608E0,4.354937077E-1,1.182054400E0,9.896714211E0
4.270793712E0,3.684946895E-1,1.220339537E0,9.927821159E0
4.275548868E0,3.254238665E-1,1.222732425E0,9.966106415E0
4.280304025E0,2.727817893E-1,1.256231904E0,9.990034103E0
4.285059181E0,2.201396823E-1,1.244267821E0,9.997213364E0
4.289814285E0,1.651047617E-1,1.244267821E0,1.000439167E1
4.294569441E0,1.196411327E-1,1.232303619E0,9.973284721E0
4.299324598E0,4.067798331E-2,1.196411371E0,9.946963310E0
4.304079754E0,-2.153540403E-2,1.191625714E0,9.918250084E0
4.308834858E0,-9.332008660E-2,1.191625714E0,9.870393753E0
4.313590014E0,-1.483550072E-1,1.150947690E0,9.822537422E0
4.318345170E0,-1.962114573E-1,1.158126116E0,9.798608780E0
4.323100275E0,-2.057827413E-1,1.170090318E0,9.748359680E0
4.327855431E0,-2.297109663E-1,1.160519004E0,9.722038269E0
4.332610587E0,-2.344966233E-1,1.158126116E0,9.705288887E0
4.337365743E0,-2.560320199E-1,1.165304661E0,9.700503349E0
4.342120848E0,-2.321037948E-1,1.143769264E0,9.702896118E0
4.346876004E0,-2.464607358E-1,1.153340459E0,9.676574707E0
4.351631160E0,-2.368894368E-1,1.170090318E0,9.700503349E0
4.356386316E0,-1.962114573E-1,1.194018483E0,9.710074425E0
4.361141420E0,-1.842473447E-1,1.225125194E0,9.683753014E0
4.365896577E0,-1.220339537E-1,1.244267821E0,9.662218094E0
4.370651733E0,-7.896314561E-2,1.294517040E0,9.626325607E0
4.375406837E0,-3.828516230E-2,1.330409408E0,9.645467758E0
4.380161993E0,2.392822690E-2,1.361516118E0,9.652647018E0
4.384917150E0,8.614161611E-2,1.385444283E0,9.688538551E0
4.389672306E0,1.531406492E-1,1.399801254E0,9.748359680E0
4.394427410E0,2.105683982E-1,1.421336651E0,9.832108498E0
4.399182566E0,2.608176768E-1,1.414158225E0,9.896714211E0
4.403937723E0,3.230310678E-1,1.428515077E0,1.000439167E1
4.408692827E0,3.924229145E-1,1.404586911E0,1.004746246E1
4.413447983E0,4.785645306E-1,1.402194023E0,1.011446095E1
4.418203139E0,5.527420044E-1,1.399801254E0,1.019581699E1
4.422958295E0,6.173482537E-1,1.404586911E0,1.025324535E1
4.427713400E0,6.508477330E-1,1.402194023E0,1.028674412E1
4.432468556E0,6.795616150E-1,1.383051515E0,1.033460140E1
4.437223712E0,7.082754970E-1,1.385444283E0,1.037527943E1
4.441978868E0,7.441678643E-1,1.359123230E0,1.040399265E1
4.446733973E0,7.441678643E-1,1.323230863E0,1.045184898E1
4.451489129E0,7.800601721E-1,1.272981644E0,1.047817039E1
4.456244285E0,8.135597110E-1,1.263410330E0,1.047338486E1
4.460999389E0,8.877372146E-1,1.323230863E0,1.055713367E1
4.465754545E0,8.949156404E-1,1.328016520E0,1.056431198E1
4.470509702E0,8.781659007E-1,1.265803218E0,1.044945621E1
4.475264858E0,8.781659007E-1,1.155733347E0,1.026999474E1
4.480019962E0,8.638089895E-1,1.091127157E0,1.009292603E1
4.484775118E0,8.709874153E-1,1.045663476E0,9.966106415E0
4.489530275E0,8.781659007E-1,1.050449133E0,9.812965393E0
4.494285379E0,8.518448472E-1,1.009771109E0,9.686145782E0
4.499040535E0,8.279166222E-1,9.547362328E-1,9.597611427E0
4.503795691E0,7.896314859E-1,9.427721500E-1,9.561718941E0
4.508550795E0,8.135597110E-1,9.188438654E-1,9.535398483E0
4.513305952E0,7.872386575E-1,9.140582681E-1,9.473184586E0
4.518061108E0,7.369893789E-1,8.949156404E-1,9.415757179E0
4.522816264E0,7.226324677E-1,8.877372146E-1,9.389435768E0
4.527571368E0,6.628118753E-1,8.853443861E-1,9.377471924E0
4.532326525E0,6.293123364E-1,8.901300430E-1,9.401400566E0
4.537081681E0,5.862415433E-1,8.614161611E-1,9.408578873E0
4.541836785E0,6.149554253E-1,9.451649189E-1,9.430113792E0
4.546591941E0,6.460621357E-1,9.714859724E-1,9.499505997E0
4.551347098E0,5.479564071E-1,8.853443861E-1,9.604789734E0
4.556102254E0,5.814558864E-1,8.494520187E-1,9.688538551E0
4.560857358E0,6.771687865E-1,8.733802438E-1,9.858428955E0
4.565612514E0,6.580262184E-1,9.379864931E-1,1.000917721E1
4.570367670E0,5.766702294E-1,9.571290612E-1,1.011446095E1
4.575122775E0,5.455635786E-1,9.786644578E-1,1.021256733E1
4.579877931E0,5.551348329E-1,9.786644578E-1,1.033699417E1
4.584633087E0,5.814558864E-1,1.038485050E0,1.044227791E1
4.589388191E0,6.029912829E-1,1.050449133E0,1.054277611E1
4.594143348E0,6.388836503E-1,1.014556766E0,1.056670475E1
4.598898504E0,6.460621357E-1,9.978070259E-1,1.055234814E1
4.603653608E0,6.269195080E-1,9.858429432E-1,1.049731255E1
4.608408764E0,6.053841114E-1,9.978070259E-1,1.043031406E1
4.613163920E0,5.814558864E-1,1.012163997E0,1.031545830E1
4.617919077E0,5.503492355E-1,9.882357717E-1,1.018385315E1
4.622674181E0,5.120640397E-1,1.000199914E0,1.002831936E1
4.627429337E0,4.689932466E-1,9.499505758E-1,9.887143135E0
4.632184493E0,4.115654826E-1,9.475577474E-1,9.774680138E0
4.636939598E0,3.804588020E-1,9.571290612E-1,9.643074989E0
4.641694754E0,3.613162339E-1,9.332008362E-1,9.528220177E0
4.646449910E0,3.326023519E-1,9.116654396E-1,9.403793335E0
4.651205014E0,3.206382394E-1,9.188438654E-1,9.317651749E0
4.655960170E0,2.943171859E-1,9.044869542E-1,9.224330902E0
4.660715327E0,2.679961324E-1,9.188438654E-1,9.162117958E0
4.665470483E0,2.368894368E-1,9.379864931E-1,9.147761345E0
4.670225587E0,2.249253243E-1,9.475577474E-1,9.164510727E0
4.674980743E0,1.818545163E-1,9.499505758E-1,9.186046600E0
4.679735900E0,1.459621787E-1,9.667003751E-1,9.267401695E0
4.684491004E0,1.244267747E-1,9.451649189E-1,9.377471924E0
4.689246160E0,1.196411327E-1,9.714859724E-1,9.499505997E0
4.694001316E0,1.268195957E-1,9.954141974E-1,9.578469276E0
4.698756420E0,1.531406492E-1,1.019342422E0,9.671789169E0
4.703511577E0,1.698904037E-1,1.019342422E0,9.710074425E0
4.708266733E0,2.201396823E-1,1.052842021E0,9.769894600E0
4.713021837E0,2.368894368E-1,1.076770186E0,9.791430473E0
4.717776993E0,2.464607358E-1,1.074377418E0,9.820143700E0
4.722532150E0,2.560320199E-1,1.098305583E0,9.872786522E0
4.727287306E0,2.416750938E-1,1.138983607E0,9.954142570E0
4.732042410E0,2.321037948E-1,1.136590719E0,1.003310490E1
4.736797566E0,2.368894368E-1,1.158126116E0,1.011206818E1
4.741552723E0,2.488535494E-1,1.158126116E0,1.018863869E1
4.746307827E0,2.871387303E-1,1.201196909E0,1.026520920E1
4.751062983E0,3.349951804E-1,1.229910851E0,1.029392338E1
4.755818139E0,3.804588020E-1,1.244267821E0,1.030349445E1
4.760573243E0,4.331009090E-1,1.263410330E0,1.029631615E1
4.765328400E0,4.522434771E-1,1.265803218E0,1.031306553E1
4.770083556E0,5.072783828E-1,1.284945726E0,1.029392338E1
4.774838660E0,5.479564071E-1,1.289731383E0,1.023410225E1
4.779593816E0,5.527420044E-1,1.284945726E0,1.017906761E1
4.784348973E0,5.814558864E-1,1.296909928E0,1.009771156E1
4.789104077E0,6.053841114E-1,1.289731383E0,1.001635551E1
4.793859233E0,6.340979934E-1,1.270588875E0,9.918250084E0
4.798614389E0,6.963114142E-1,1.284945726E0,9.805787086E0
4.803369545E0,7.082754970E-1,1.292124271E0,9.753145218E0
4.808124650E0,7.178468108E-1,1.313659668E0,9.671789169E0
4.812879806E0,7.274180651E-1,1.299302697E0,9.643074989E0
4.817634962E0,7.178468108E-1,1.270588875E0,9.638289452E0
4.822390066E0,7.298108935E-1,1.251446247E0,9.628718376E0
4.827145223E0,7.369893789E-1,1.244267821E0,9.643074989E0
4.831900327E0,7.776673436E-1,1.244267821E0,9.611968994E0
4.836655483E0,8.398807645E-1,1.241874933E0,9.566504478E0
4.841410639E0,8.566305041E-1,1.234696507E0,9.506684303E0
4.846165795E0,8.685946465E-1,1.210768223E0,9.430113792E0
4.850920900E0,8.805587292E-1,1.203589797E0,9.377471924E0
4.855676056E0,8.662018180E-1,1.196411371E0,9.284152031E0
4.860431212E0,8.709874153E-1,1.177268744E0,9.276973724E0
4.865186316E0,8.781659007E-1,1.179661512E0,9.272188187E0
4.869941473E0,9.427721500E-1,1.215553880E0,9.281759262E0
4.874696629E0,9.188438654E-1,1.222732425E0,9.281759262E0
4.879451733E0,8.662018180E-1,1.150947690E0,9.238688469E0
4.884206889E0,8.518448472E-1,1.045663476E0,9.229117393E0
4.888962045E0,8.303094506E-1,1.021735311E0,9.315258980E0
4.893717150E0,7.298108935E-1,1.016949654E0,9.437292099E0
4.898472306E0,6.388836503E-1,1.009771109E0,9.523433685E0
4.903227462E0,6.125625968E-1,1.040877819E0,9.626325607E0
4.907982566E0,6.364908218E-1,1.081555843E0,9.690931320E0
4.912737723E0,6.843472719E-1,1.117448211E0,9.781859398E0
4.917492879E0,7.082754970E-1,1.124626637E0,9.868000984E0
4.922247983E0,6.867401004E-1,1.117448211E0,9.975677490E0
4.927003139E0,6.388836503E-1,1.110269666E0,1.010488987E1
4.931758295E0,5.766702294E-1,1.095912814E0,1.025563812E1
4.936513400E0,5.168496966E-1,1.064806104E0,1.040399265E1
4.941268556E0,4.642075896E-1,1.036092162E0,1.053320503E1
4.946023712E0,4.283152521E-1,1.002592683E0,1.065763187E1
4.950778816E0,4.235295951E-1,1.000199914E0,1.073420238E1
4.955533973E0,4.307080805E-1,1.009771109E0,1.077248764E1
4.960289129E0,4.187439680E-1,1.012163997E0,1.074377346E1
4.965044233E0,3.924229145E-1,1.033699393E0,1.068156052E1
4.969799389E0,3.589234054E-1,1.031306505E0,1.060738277E1
4.974554545E0,2.895315289E-1,1.057627559E0,1.054995537E1
4.979309702E0,2.009970993E-1,1.038485050E0,1.046859932E1
4.984064806E0,1.674975902E-1,1.052842021E0,1.040877819E1
4.988819962E0,1.363908947E-1,1.024128079E0,1.034177971E1
4.993575118E0,1.435693651E-1,1.031306505E0,1.026760197E1
4.998330223E0,1.507478207E-1,1.060020447E0,1.020060253E1
5.003085379E0,1.627119333E-1,1.095912814E0,1.009531879E1
5.007840535E0,1.674975902E-1,1.136590719E0,9.968499184E0
5.012595639E0,1.818545163E-1,1.189232826E0,9.846465111E0
5.017350795E0,2.033899277E-1,1.217946768E0,9.714859962E0
5.022105952E0,2.416750938E-1,1.225125194E0,9.604789734E0
5.026861056E0,2.584248483E-1,1.234696507E0,9.530612946E0
5.031616212E0,2.703889608E-1,1.268195987E0,9.494720459E0
5.036371368E0,2.919243574E-1,1.292124271E0,9.475577354E0
5.041126473E0,2.967100143E-1,1.332802176E0,9.499505997E0
5.045881629E0,3.613162339E-1,1.363908887E0,9.485149384E0
5.050636785E0,4.115654826E-1,1.397408366E0,9.506684303E0
5.055391889E0,4.857429862E-1,1.421336651E0,9.511469841E0
5.060147045E0,5.383850932E-1,1.421336651E0,9.513862610E0
5.064902202E0,6.029912829E-1,1.452443361E0,9.518648148E0
5.069657306E0,6.795616150E-1,1.469193101E0,9.511469841E0
5.074412462E0,7.298108935E-1,1.454836130E0,9.501898766E0
5.079167618E0,7.776673436E-1,1.469193101E0,9.525827408E0
5.083922723E0,8.183453679E-1,1.469193101E0,9.528220177E0
5.088677879E0,8.685946465E-1,1.514656782E0,9.525827408E0
5.093433035E0,9.164510965E-1,1.519442320E0,9.494720459E0
5.098188139E0,9.786644578E-1,1.533799291E0,9.451649666E0
5.102943295E0,1.033699393E0,1.519442320E0,9.408578873E0
5.107698452E0,1.134197950E0,1.529013634E0,9.358329773E0
5.112453556E0,1.182054400E0,1.517049551E0,9.346364975E0
5.117208712E0,1.203589797E0,1.529013634E0,9.348757744E0
5.121963868E0,1.229910851E0,1.552941918E0,9.379864693E0
5.126718973E0,1.237089276E0,1.557727575E0,9.415757179E0
5.131474129E0,1.251446247E0,1.548156261E0,9.430113792E0
5.136229285E0,1.222732425E0,1.538584948E0,9.454042435E0
5.140984389E0,1.172483087E0,1.533799291E0,9.458827972E0
5.145739545E0,1.143769264E0,1.514656782E0,9.475577354E0
5.150494702E0,1.105484009E0,1.502692580E0,9.497113228E0
5.155249806E0,1.081555843E0,1.473978758E0,9.533005714E0
5.160004962E0,1.038485050E0,1.452443361E0,9.600004196E0
5.164760118E0,9.738788009E-1,1.445264935E0,9.667003632E0
5.169515223E0,9.164510965E-1,1.435693622E0,9.748359680E0
5.174270379E0,8.446664214E-1,1.416550994E0,9.791430473E0
5.179025535E0,7.920243144E-1,1.368694544E0,9.836894035E0
5.183780691E0,7.345965505E-1,1.363908887E0,9.872786522E0
5.188535795E0,6.867401004E-1,1.361516118E0,9.908679008E0
5.193290952E0,6.556333899E-1,1.339980721E0,9.958928108E0
5.198046056E0,6.101697683E-1,1.306481123E0,1.001396275E1
5.202801212E0,6.005984545E-1,1.299302697E0,1.006421185E1
5.207556368E0,5.647061467E-1,1.258624673E0,1.012164021E1
5.212311525E0,5.312066078E-1,1.229910851E0,1.016231823E1
5.217066629E0,5.216353536E-1,1.189232826E0,1.018146038E1
5.221821785E0,5.240281820E-1,1.170090318E0,1.021735287E1
5.226576941E0,5.120640397E-1,1.119840980E0,1.022213840E1
5.231332045E0,4.977070987E-1,1.105484009E0,1.022453117E1
5.236087202E0,4.977070987E-1,1.079162955E0,1.019342422E1
5.240842358E0,4.953143001E-1,1.069591761E0,1.014796066E1
5.245597462E0,4.713860750E-1,1.050449133E0,1.008814049E1
5.250352618E0,4.953143001E-1,1.052842021E0,1.005703354E1
5.255107775E0,5.072783828E-1,1.062413216E0,1.003071213E1
5.259862879E0,5.240281820E-1,1.071984529E0,9.992427826E0
5.264618035E0,5.288137794E-1,1.103091240E0,9.970891953E0
5.269373191E0,5.216353536E-1,1.074377418E0,9.937392235E0
5.274128295E0,5.431707501E-1,1.100698471E0,9.934999466E0
5.278883452E0,5.312066078E-1,1.105484009E0,9.937392235E0
5.283638608E0,5.383850932E-1,1.127019525E0,9.966106415E0
5.288393764E0,5.551348329E-1,1.167697430E0,9.951749802E0
5.293148868E0,5.599204898E-1,1.194018483E0,9.927821159E0
5.297904025E0,5.910272002E-1,1.229910851E0,9.927821159E0
5.302659181E0,6.125625968E-1,1.284945726E0,9.889535904E0
5.307414285E0,6.532405615E-1,1.294517040E0,9.887143135E0
5.312169441E0,6.652047038E-1,1.351944804E0,9.875179291E0
5.316924545E0,6.580262184E-1,1.363908887E0,9.839286804E0
5.321679702E0,6.532405615E-1,1.404586911E0,9.815358162E0
5.326434858E0,6.795616150E-1,1.447657704E0,9.801001549E0
5.331190014E0,6.819544435E-1,1.485942841E0,9.777072906E0
5.335945118E0,7.058826685E-1,1.509871125E0,9.817750931E0
5.340700275E0,7.322037220E-1,1.517049551E0,9.836894035E0
5.345455431E0,7.585247755E-1,1.531406522E0,9.882357597E0
5.350210535E0,7.848458290E-1,1.543370605E0,9.913464546E0
5.354965691E0,8.303094506E-1,1.543370605E0,9.920642853E0
5.359720848E0,8.566305041E-1,1.574477315E0,9.913464546E0
5.364475952E0,8.973084688E-1,1.560120344E0,9.894321442E0
5.369231108E0,9.475577474E-1,1.593619823E0,9.836894035E0
5.373986264E0,9.308080077E-1,1.572084427E0,9.762716293E0
5.378741420E0,9.355936646E-1,1.545763373E0,9.700503349E0
5.383496525E0,9.116654396E-1,1.555334687E0,9.659825325E0
5.388251681E0,9.020941257E-1,1.493121386E0,9.652647018E0
5.393006837E0,8.901300430E-1,1.478764415E0,9.628718376E0
5.397761941E0,8.997012973E-1,1.459621787E0,9.638289452E0
5.402517098E0,9.092726111E-1,1.454836130E0,9.635896683E0
5.407272254E0,9.260223508E-1,1.409372568E0,9.621540070E0
5.412027358E0,9.499505758E-1,1.390229940E0,9.607182503E0
5.416782514E0,9.044869542E-1,1.347159147E0,9.616754532E0
5.421537670E0,8.614161611E-1,1.337587833E0,9.638289452E0
5.426292775E0,8.159525394E-1,1.323230863E0,9.678967476E0
5.431047931E0,7.728816867E-1,1.296909928E0,9.741181374E0
5.435803087E0,7.345965505E-1,1.275374413E0,9.786644936E0
5.440558191E0,7.393822074E-1,1.253839016E0,9.824930191E0
5.445313348E0,7.441678643E-1,1.253839016E0,9.879964828E0
5.450068504E0,7.202396393E-1,1.241874933E0,9.944570541E0
5.454823660E0,7.058826685E-1,1.272981644E0,1.000678444E1
5.459578764E0,6.771687865E-1,1.304088354E0,1.004985523E1
5.464333920E0,6.532405615E-1,1.330409408E0,1.009292603E1
5.469089077E0,6.436693072E-1,1.337587833E0,1.014796066E1
5.473844181E0,6.221339107E-1,1.363908887E0,1.016471100E1
5.478599337E0,5.838487148E-1,1.349551916E0,1.015992451E1
5.483354493E0,5.790630579E-1,1.378265858E0,1.013121128E1
5.488109598E0,5.479564071E-1,1.409372568E0,1.011685371E1
5.492864754E0,5.647061467E-1,1.404586911E0,1.010010433E1
5.497619910E0,5.886343718E-1,1.423729420E0,1.002353382E1
5.502375014E0,5.982056856E-1,1.452443361E0,9.908679008E0
5.507130170E0,6.125625968E-1,1.450050473E0,9.796216011E0
5.511885327E0,6.197410822E-1,1.473978758E0,9.674181938E0
5.516640483E0,6.508477330E-1,1.502692580E0,9.554540634E0
5.521395587E0,6.317051649E-1,1.497906923E0,9.473184586E0
5.526150743E0,6.125625968E-1,1.545763373E0,9.413364410E0
5.530905900E0,5.934200287E-1,1.576870084E0,9.420542717E0
5.535661004E0,6.005984545E-1,1.596012712E0,9.432506561E0
5.540416160E0,5.934200287E-1,1.624726534E0,9.422935486E0
5.545171316E0,6.652047038E-1,1.665404558E0,9.372686386E0
5.549926420E0,8.183453679E-1,1.686939955E0,9.343972206E0
5.554681577E0,8.757730722E-1,1.706082582E0,9.367900848E0
5.559436733E0,8.901300430E-1,1.725225091E0,9.343972206E0
5.564191889E0,9.044869542E-1,1.732403636E0,9.358329773E0
5.568946993E0,9.188438654E-1,1.789831281E0,9.442078590E0
5.573702150E0,8.997012973E-1,1.840080619E0,9.588040352E0
5.578457306E0,8.470591903E-1,1.832902193E0,9.655039787E0
5.583212410E0,8.973084688E-1,1.744367719E0,9.623932838E0
5.587967566E0,9.690931439E-1,1.689332843E0,9.559326172E0
5.592722723E0,9.523434043E-1,1.677368641E0,9.540184021E0
5.597477827E0,9.643075466E-1,1.713261008E0,9.537791252E0
5.602232983E0,1.000199914E0,1.756331801E0,9.540184021E0
5.606988139E0,1.019342422E0,1.808973908E0,9.547362328E0
5.611743243E0,1.086341500E0,1.849651933E0,9.571290970E0
5.616498400E0,1.110269666E0,1.904686809E0,9.614361763E0
5.621253556E0,1.165304661E0,1.940579176E0,9.631111145E0
5.626008712E0,1.258624673E0,1.978864312E0,9.643074989E0
5.630763816E0,1.344766378E0,2.014756680E0,9.674181938E0
5.635518973E0,1.383051515E0,2.033899307E0,9.707681656E0
5.640274129E0,1.418943882E0,2.038684845E0,9.743574142E0
5.645029233E0,1.440479279E0,2.057827473E0,9.796216011E0
5.649784389E0,1.462014675E0,2.055434704E0,9.832108498E0
5.654539545E0,1.440479279E0,2.067398787E0,9.889535904E0
5.659294650E0,1.442872047E0,2.057827473E0,9.925428391E0
5.664049806E0,1.457229018E0,2.050648928E0,9.946963310E0
5.668804962E0,1.464407444E0,2.036292076E0,9.956535339E0
5.673560118E0,1.483550072E0,2.045863390E0,9.963713646E0
5.678315223E0,1.502692580E0,2.074577332E0,9.951749802E0
5.683070379E0,1.529013634E0,2.048256159E0,9.944570541E0
5.687825535E0,1.497906923E0,2.057827473E0,9.927821159E0
5.692580639E0,1.440479279E0,2.053041935E0,9.887143135E0
5.697335795E0,1.416550994E0,2.043470621E0,9.858428955E0
5.702090952E0,1.366301775E0,1.993221283E0,9.822537422E0
5.706846056E0,1.313659668E0,1.959721804E0,9.762716293E0
5.711601212E0,1.253839016E0,1.935793519E0,9.702896118E0
5.716356368E0,1.194018483E0,1.935793519E0,9.643074989E0
5.721111525E0,1.148554921E0,1.919043779E0,9.552147865E0
5.725866629E0,1.117448211E0,1.935793519E0,9.504291534E0
5.730621785E0,1.093519926E0,1.933400750E0,9.437292099E0
5.735376941E0,1.057627559E0,1.942971945E0,9.399007797E0
5.740132045E0,1.031306505E0,1.935793519E0,9.382257462E0
5.744887202E0,1.002592683E0,1.923829436E0,9.377471924E0
5.749642358E0,9.978070259E-1,1.938186288E0,9.365508080E0
5.754397462E0,9.690931439E-1,1.938186288E0,9.365508080E0
5.759152618E0,9.236295223E-1,1.931007862E0,9.348757744E0
5.763907775E0,8.997012973E-1,1.962114573E0,9.370293617E0
5.768662931E0,9.092726111E-1,1.966900229E0,9.408578873E0
5.773418035E0,8.566305041E-1,2.005185366E0,9.475577354E0
5.778173191E0,8.255237937E-1,2.062613010E0,9.513862610E0
5.782928348E0,8.279166222E-1,2.069791555E0,9.554540634E0
5.787683452E0,7.992027402E-1,2.065006018E0,9.623932838E0
5.792438608E0,8.015955687E-1,2.069791555E0,9.722038269E0
5.797193764E0,7.585247755E-1,2.045863390E0,9.801001549E0
5.801948920E0,7.274180651E-1,2.081755638E0,9.865608215E0
5.806704025E0,6.771687865E-1,2.184647083E0,9.846465111E0
5.811459181E0,7.393822074E-1,2.143969059E0,9.961320877E0
5.816214337E0,7.633104324E-1,2.110469580E0,9.954142570E0
5.820969441E0,8.805587292E-1,2.182254314E0,9.980463028E0
5.825724598E0,8.853443861E-1,2.206182480E0,9.961320877E0
5.830479754E0,7.920243144E-1,2.222932339E0,9.946963310E0
5.835234858E0,7.417750359E-1,2.256431818E0,9.908679008E0
5.839990014E0,7.393822074E-1,2.289931297E0,9.853643417E0
5.844745170E0,7.537391186E-1,2.325823545E0,9.789037704E0
5.849500327E0,8.135597110E-1,2.333002090E0,9.731609344E0
5.854255431E0,8.422735929E-1,2.328216314E0,9.655039787E0
5.859010587E0,8.709874153E-1,2.311466694E0,9.554540634E0
5.863765743E0,8.662018180E-1,2.330609322E0,9.461220741E0
5.868520848E0,8.733802438E-1,2.354537487E0,9.430113792E0
5.873276004E0,8.757730722E-1,2.333002090E0,9.367900848E0
5.878031160E0,8.542376757E-1,2.333002090E0,9.377471924E0
5.882786316E0,8.518448472E-1,2.316252232E0,9.377471924E0
5.887541420E0,8.518448472E-1,2.321038008E0,9.382257462E0
5.892296577E0,8.207381964E-1,2.277967215E0,9.384650230E0
5.897051733E0,7.992027402E-1,2.266003132E0,9.396614075E0
5.901806837E0,7.800601721E-1,2.256431818E0,9.408578873E0
5.906561993E0,7.513462901E-1,2.234896421E0,9.439684868E0
5.911317150E0,7.322037220E-1,2.167897224E0,9.458827972E0
5.916072306E0,6.915257573E-1,2.139183521E0,9.456435204E0
5.920827410E0,7.058826685E-1,2.108076811E0,9.492327690E0
5.925582566E0,7.034898400E-1,2.103291035E0,9.609575272E0
5.930337723E0,6.939185858E-1,2.103291035E0,9.600004196E0
5.935092827E0,6.963114142E-1,2.069791555E0,9.621540070E0
5.939847983E0,6.939185858E-1,2.038684845E0,9.619147301E0
5.944603139E0,6.963114142E-1,2.026720762E0,9.619147301E0
5.949358243E0,7.154539824E-1,2.000399828E0,9.633503914E0
5.954113400E0,7.130611539E-1,1.983649969E0,9.635896683E0
5.958868556E0,7.441678643E-1,1.998006940E0,9.669396400E0
5.963623712E0,7.752745152E-1,2.005185366E0,9.702896118E0
5.968378816E0,7.920243144E-1,2.007578135E0,9.734002113E0
5.973133973E0,8.398807645E-1,2.024327993E0,9.741181374E0
5.977889129E0,8.662018180E-1,2.021935225E0,9.722038269E0
5.982644285E0,9.379864931E-1,2.053041935E0,9.676574707E0
5.987399389E0,9.882357717E-1,2.072184324E0,9.616754532E0
5.992154545E0,1.009771109E0,2.081755638E0,9.554540634E0
5.996909702E0,1.019342422E0,2.076970100E0,9.509077072E0
6.001664806E0,1.036092162E0,2.096112728E0,9.487542152E0
6.006419962E0,1.040877819E0,2.093719721E0,9.449256897E0
6.011175118E0,1.100698471E0,2.129612207E0,9.425328255E0
6.015930223E0,1.081555843E0,2.129612207E0,9.410971642E0
6.020685379E0,1.107876897E0,2.163111687E0,9.415757179E0
6.025440535E0,1.103091240E0,2.191825628E0,9.442078590E0
6.030195691E0,1.115055323E0,2.191825628E0,9.437292099E0
6.034950795E0,1.124626637E0,2.196611166E0,9.461220741E0
6.039705952E0,1.117448211E0,2.218146563E0,9.482755661E0
6.044461108E0,1.122233868E0,2.196611166E0,9.494720459E0
6.049216212E0,1.112662554E0,2.206182480E0,9.513862610E0
6.053971368E0,1.119840980E0,2.187039852E0,9.552147865E0
6.058726525E0,1.110269666E0,2.203789711E0,9.544969559E0
6.063481681E0,1.127019525E0,2.215753794E0,9.540184021E0
6.068236785E0,1.136590719E0,2.237289190E0,9.554540634E0
6.072991941E0,1.129412293E0,2.237289190E0,9.540184021E0
6.077747098E0,1.131805062E0,2.237289190E0,9.523433685E0
6.082502202E0,1.122233868E0,2.254039049E0,9.521040916E0
6.087257358E0,1.098305583E0,2.277967215E0,9.499505997E0
6.092012514E0,1.127019525E0,2.277967215E0,9.499505997E0
6.096767670E0,1.141376376E0,2.289931297E0,9.492327690E0
6.101522775E0,1.146162033E0,2.297109842E0,9.480362892E0
6.106277931E0,1.138983607E0,2.282752752E0,9.485149384E0
6.111033087E0,1.098305583E0,2.318645239E0,9.489934921E0
6.115788243E0,1.069591761E0,2.282752752E0,9.504291534E0
6.120543348E0,1.050449133E0,2.306680918E0,9.518648148E0
6.125298504E0,1.007378340E0,2.306680918E0,9.559326172E0
6.130053660E0,9.643075466E-1,2.275574446E0,9.616754532E0
6.134808764E0,9.427721500E-1,2.273181438E0,9.657432556E0
6.139563920E0,9.116654396E-1,2.277967215E0,9.719645500E0
6.144319077E0,8.877372146E-1,2.268395901E0,9.753145218E0
6.149074233E0,8.494520187E-1,2.273181438E0,9.784252167E0
6.153829337E0,8.087740541E-1,2.268395901E0,9.786644936E0
6.158584493E0,7.537391186E-1,2.249253273E0,9.793823242E0
6.163339650E0,7.537391186E-1,2.246860504E0,9.777072906E0
6.168094754E0,7.322037220E-1,2.244467735E0,9.777072906E0
6.172849910E0,7.393822074E-1,2.230110645E0,9.760323524E0
6.177605066E0,7.250252366E-1,2.227717876E0,9.779465675E0
6.182360170E0,7.178468108E-1,2.225325108E0,9.774680138E0
6.187115327E0,7.082754970E-1,2.213361025E0,9.789037704E0
6.191870483E0,7.034898400E-1,2.234896421E0,9.808179855E0
6.196625639E0,7.058826685E-1,2.234896421E0,9.805787086E0
6.201380743E0,6.963114142E-1,2.234896421E0,9.822537422E0
6.206135900E0,7.034898400E-1,2.237289190E0,9.812965393E0
6.210891056E0,7.034898400E-1,2.210968018E0,9.798608780E0
6.215646212E0,7.369893789E-1,2.187039852E0,9.750752449E0
6.220401316E0,7.393822074E-1,2.155933142E0,9.717252731E0
6.225156473E0,7.561319470E-1,2.163111687E0,9.671789169E0
6.229911629E0,7.489534616E-1,2.175075769E0,9.669396400E0
6.234666733E0,7.417750359E-1,2.167897224E0,9.647860527E0
6.239421889E0,7.609176040E-1,2.179861546E0,9.657432556E0
6.244177045E0,7.633104324E-1,2.203789711E0,9.647860527E0
6.248932202E0,7.992027402E-1,2.199003935E0,9.645467758E0
6.253687306E0,8.231309652E-1,2.210968018E0,9.580862045E0
6.258442462E0,8.614161611E-1,2.215753794E0,9.556933403E0
6.263197618E0,8.925228715E-1,2.222932339E0,9.499505997E0
6.267952723E0,9.403793216E-1,2.239681959E0,9.468399048E0
6.272707879E0,9.427721500E-1,2.254039049E0,9.444471359E0
6.277463035E0,9.260223508E-1,2.258824587E0,9.454042435E0
6.282218191E0,9.116654396E-1,2.266003132E0,9.466006279E0
6.286973295E0,9.092726111E-1,2.268395901E0,9.468399048E0
6.291728452E0,8.853443861E-1,2.263610125E0,9.468399048E0
6.296483608E0,9.188438654E-1,2.275574446E0,9.461220741E0
6.301238764E0,9.403793216E-1,2.306680918E0,9.470791817E0
6.305993868E0,9.571290612E-1,2.337787628E0,9.458827972E0
6.310749025E0,9.810572863E-1,2.328216314E0,9.437292099E0
6.315504181E0,9.690931439E-1,2.359323025E0,9.446864128E0
6.320259337E0,9.619147182E-1,2.342573404E0,9.415757179E0
6.325014441E0,9.571290612E-1,2.340180635E0,9.379864693E0
6.329769598E0,9.667003751E-1,2.347358942E0,9.367900848E0
6.334524754E0,9.690931439E-1,2.330609322E0,9.320044518E0
6.339279858E0,9.547362328E-1,2.356930256E0,9.367900848E0
6.344035014E0,9.762716293E-1,2.361716032E0,9.387042999E0
6.348790170E0,9.714859724E-1,2.356930256E0,9.444471359E0
6.353545327E0,9.667003751E-1,2.340180635E0,9.494720459E0
6.358300431E0,9.810572863E-1,2.321038008E0,9.521040916E0
6.363055587E0,9.643075466E-1,2.275574446E0,9.544969559E0
6.367810743E0,9.690931439E-1,2.251646042E0,9.564111710E0
6.372565848E0,9.212366939E-1,2.210968018E0,9.576076508E0
6.377321004E0,8.997012973E-1,2.187039852E0,9.585647583E0
6.382076160E0,9.140582681E-1,2.177468538E0,9.609575272E0
6.386831316E0,8.877372146E-1,2.141576290E0,9.631111145E0
6.391586420E0,8.805587292E-1,2.122433662E0,9.628718376E0
6.396341577E0,8.733802438E-1,2.105684042E0,9.619147301E0
6.401096733E0,8.590233326E-1,2.117648125E0,9.616754532E0
6.405851889E0,8.590233326E-1,2.093719721E0,9.631111145E0
6.410606993E0,8.470591903E-1,2.086541414E0,9.657432556E0
6.415362150E0,8.590233326E-1,2.093719721E0,9.688538551E0
6.420117306E0,8.781659007E-1,2.069791555E0,9.712467194E0
6.424872410E0,8.566305041E-1,2.048256159E0,9.748359680E0
6.429627566E0,9.690931439E-1,2.065006018E0,1.000199890E1
6.434382723E0,9.140582681E-1,2.060220242E0,9.973284721E0
6.439137879E0,8.709874153E-1,2.033899307E0,9.858428955E0
6.443892983E0,8.422735929E-1,2.067398787E0,9.772287369E0
6.448648139E0,7.800601721E-1,2.069791555E0,9.688538551E0
6.453403295E0,7.226324677E-1,2.067398787E0,9.623932838E0
6.458158400E0,6.843472719E-1,2.086541414E0,9.576076508E0
6.462913556E0,7.106683254E-1,2.069791555E0,9.552147865E0
6.467668712E0,7.250252366E-1,2.074577332E0,9.573683739E0
6.472423868E0,7.345965505E-1,2.103291035E0,9.576076508E0
6.477178973E0,7.465606928E-1,2.124826431E0,9.576076508E0
6.481934129E0,7.896314859E-1,2.141576290E0,9.585647583E0
6.486689285E0,7.800601721E-1,2.175075769E0,9.583254814E0
6.491444441E0,7.704889178E-1,2.179861546E0,9.578469276E0
6.496199545E0,7.369893789E-1,2.210968018E0,9.621540070E0
6.500954702E0,7.417750359E-1,2.215753794E0,9.631111145E0
6.505709858E0,7.322037220E-1,2.242074728E0,9.619147301E0
6.510464962E0,7.489534616E-1,2.246860504E0,9.645467758E0
6.515220118E0,7.465606928E-1,2.275574446E0,9.667003632E0
6.519975275E0,7.513462901E-1,2.289931297E0,9.707681656E0
6.524730431E0,7.537391186E-1,2.297109842E0,9.741181374E0
6.529485535E0,7.345965505E-1,2.304288149E0,9.769894600E0
6.534240691E0,7.154539824E-1,2.323430777E0,9.815358162E0
6.538995848E0,7.250252366E-1,2.333002090E0,9.856036186E0
6.543751004E0,7.250252366E-1,2.333002090E0,9.851250648E0
6.548506108E0,7.704889178E-1,2.342573404E0,9.860821724E0
6.553261264E0,8.111668825E-1,2.359323025E0,9.856036186E0
6.558016420E0,8.327022791E-1,2.371287346E0,9.841679573E0
6.562771525E0,8.614161611E-1,2.397608280E0,9.846465111E0
6.567526681E0,8.494520187E-1,2.400001049E0,9.822537422E0
6.572281837E0,8.422735929E-1,2.433500528E0,9.812965393E0
6.577036993E0,8.255237937E-1,2.402393818E0,9.781859398E0
6.581792098E0,8.231309652E-1,2.366501570E0,9.789037704E0
6.586547254E0,7.920243144E-1,2.349751949E0,9.741181374E0
6.591302410E0,7.968099117E-1,2.333002090E0,9.693324089E0
6.596057514E0,7.968099117E-1,2.304288149E0,9.683753014E0
6.600812670E0,8.183453679E-1,2.277967215E0,9.628718376E0
6.605567827E0,8.327022791E-1,2.244467735E0,9.573683739E0
6.610322983E0,8.279166222E-1,2.246860504E0,9.540184021E0
6.615078087E0,8.470591903E-1,2.222932339E0,9.494720459E0
6.619833243E0,8.542376757E-1,2.220539331E0,9.466006279E0
6.624588400E0,8.518448472E-1,2.210968018E0,9.454042435E0
6.629343556E0,8.255237937E-1,2.196611166E0,9.458827972E0
6.634098660E0,8.422735929E-1,2.151147604E0,9.458827972E0
6.638853816E0,8.733802438E-1,2.110469580E0,9.456435204E0
6.643608973E0,8.877372146E-1,2.091326952E0,9.420542717E0
6.648364129E0,9.068797827E-1,2.074577332E0,9.401400566E0
6.653119233E0,8.973084688E-1,2.081755638E0,9.389435768E0
6.657874389E0,8.781659007E-1,2.074577332E0,9.396614075E0
6.662629545E0,8.901300430E-1,2.079362869E0,9.422935486E0
6.667384702E0,9.044869542E-1,2.086541414E0,9.475577354E0
6.672139806E0,8.877372146E-1,2.110469580E0,9.516255379E0
6.676894962E0,9.068797827E-1,2.108076811E0,9.583254814E0
6.681650118E0,8.997012973E-1,2.127219439E0,9.623932838E0
6.686405223E0,9.427721500E-1,2.127219439E0,9.635896683E0
6.691160379E0,9.236295223E-1,2.153540373E0,9.700503349E0
6.695915535E0,9.475577474E-1,2.146361828E0,9.753145218E0
6.700670639E0,9.499505758E-1,2.148754835E0,9.796216011E0
6.705425795E0,9.595218897E-1,2.146361828E0,9.834501266E0
6.710180952E0,9.786644578E-1,2.182254314E0,9.884750366E0
6.714936108E0,9.619147182E-1,2.170290232E0,9.894321442E0
6.719691212E0,9.858429432E-1,2.184647083E0,9.903892517E0
6.724446368E0,9.571290612E-1,2.210968018E0,9.946963310E0
6.729201525E0,9.643075466E-1,2.222932339E0,9.973284721E0
6.733956681E0,9.667003751E-1,2.222932339E0,9.975677490E0
6.738711785E0,9.738788009E-1,2.203789711E0,9.966106415E0
6.743466941E0,9.667003751E-1,2.218146563E0,9.913464546E0
6.748222098E0,9.714859724E-1,2.210968018E0,9.822537422E0
6.752977254E0,1.004985452E0,2.194218397E0,9.793823242E0
6.757732358E0,1.031306505E0,2.201396942E0,9.769894600E0
6.762487514E0,1.045663476E0,2.189432621E0,9.745966911E0
6.767242670E0,1.016949654E0,2.189432621E0,9.736394882E0
6.771997827E0,9.738788009E-1,2.172683001E0,9.734002113E0
6.776752931E0,9.667003751E-1,2.153540373E0,9.710074425E0
6.781508087E0,9.690931439E-1,2.105684042E0,9.707681656E0
6.786263243E0,9.810572863E-1,2.091326952E0,9.664610863E0
6.791018348E0,9.810572863E-1,2.050648928E0,9.619147301E0
6.795773504E0,9.643075466E-1,2.036292076E0,9.604789734E0
6.800528660E0,9.714859724E-1,2.045863390E0,9.576076508E0
6.805283816E0,9.427721500E-1,2.024327993E0,9.561718941E0
6.810038920E0,9.403793216E-1,2.033899307E0,9.566504478E0
6.814794077E0,8.901300430E-1,2.050648928E0,9.592825890E0
6.819549233E0,9.092726111E-1,2.043470621E0,9.614361763E0
6.824304389E0,9.188438654E-1,2.067398787E0,9.611968994E0
6.829059493E0,9.308080077E-1,2.141576290E0,9.456435204E0
6.833814650E0,9.882357717E-1,2.146361828E0,9.468399048E0
6.838569806E0,9.475577474E-1,2.136790514E0,9.554540634E0
6.843324910E0,1.038485050E0,2.127219439E0,9.597611427E0
6.848080066E0,1.153340459E0,2.127219439E0,9.647860527E0
6.852835223E0,1.095912814E0,2.139183521E0,9.681360245E0
6.857590379E0,1.043270707E0,2.146361828E0,9.662218094E0
6.862345483E0,1.004985452E0,2.160718918E0,9.635896683E0
6.867100639E0,1.002592683E0,2.139183521E0,9.604789734E0
6.871855795E0,1.024128079E0,2.098505497E0,9.561718941E0
6.876610952E0,1.026520967E0,2.103291035E0,9.475577354E0
6.881366056E0,1.036092162E0,2.100898266E0,9.415757179E0
6.886121212E0,1.009771109E0,2.100898266E0,9.348757744E0
6.890876368E0,1.002592683E0,2.105684042E0,9.298508644E0
6.895631525E0,9.834501147E-1,2.112862349E0,9.248259544E0
6.900386629E0,9.786644578E-1,2.148754835E0,9.221938133E0
6.905141785E0,9.643075466E-1,2.165504456E0,9.224330902E0
6.909896941E0,9.092726111E-1,2.172683001E0,9.267401695E0
6.914652045E0,8.877372146E-1,2.179861546E0,9.324830055E0
6.919407202E0,8.638089895E-1,2.177468538E0,9.382257462E0
6.924162358E0,8.135597110E-1,2.170290232E0,9.425328255E0
6.928917514E0,7.992027402E-1,2.148754835E0,9.468399048E0
6.933672618E0,7.250252366E-1,2.141576290E0,9.475577354E0
6.938427775E0,6.508477330E-1,2.151147604E0,9.485149384E0
6.943182931E0,6.269195080E-1,2.158325911E0,9.499505997E0
6.947938087E0,6.197410822E-1,2.141576290E0,9.525827408E0
6.952693191E0,5.718846321E-1,2.172683001E0,9.561718941E0
6.957448348E0,5.383850932E-1,2.163111687E0,9.592825890E0
6.962203504E0,5.072783828E-1,2.146361828E0,9.643074989E0
6.966958608E0,4.713860750E-1,2.184647083E0,9.662218094E0
6.971713764E0,4.187439680E-1,2.155933142E0,9.695717812E0
6.976468920E0,4.043870270E-1,2.175075769E0,9.743574142E0
6.981224077E0,3.804588020E-1,2.177468538E0,9.757930756E0
6.985979233E0,3.254238665E-1,2.175075769E0,9.750752449E0
6.990734337E0,3.182454109E-1,2.191825628E0,9.753145218E0
6.995489493E0,2.775674164E-1,2.208575249E0,9.772287369E0
7.000244650E0,2.679961324E-1,2.225325108E0,9.772287369E0
7.004999754E0,2.632105052E-1,2.206182480E0,9.757930756E0
7.009754910E0,2.823530734E-1,2.210968018E0,9.724431038E0
7.014510066E0,2.703889608E-1,2.201396942E0,9.643074989E0
7.019265223E0,2.512463629E-1,2.199003935E0,9.597611427E0
7.024020327E0,2.344966233E-1,2.182254314E0,9.533005714E0
7.028775483E0,2.440679073E-1,2.191825628E0,9.463613510E0
7.033530639E0,2.703889608E-1,2.179861546E0,9.406186104E0
7.038285795E0,2.823530734E-1,2.160718918E0,9.410971642E0
7.043040900E0,2.775674164E-1,2.191825628E0,9.410971642E0
7.047796056E0,3.565305769E-1,2.199003935E0,9.384650230E0
7.052551212E0,4.713860750E-1,2.199003935E0,9.341579437E0
7.057306368E0,5.168496966E-1,2.201396942E0,9.339186668E0
7.062061473E0,5.312066078E-1,2.196611166E0,9.351150513E0
7.066816629E0,5.551348329E-1,2.170290232E0,9.329615593E0
7.071571785E0,5.407779217E-1,2.139183521E0,9.343972206E0
7.076326941E0,5.168496966E-1,2.124826431E0,9.403793335E0
7.081082045E0,5.192425251E-1,2.115255117E0,9.468399048E0
7.085837202E0,5.455635786E-1,2.098505497E0,9.544969559E0
7.090592358E0,5.647061467E-1,2.134397745E0,9.590433121E0
7.095347462E0,6.364908218E-1,2.148754835E0,9.664610863E0
7.100102618E0,6.867401004E-1,2.158325911E0,9.719645500E0
7.104857775E0,6.915257573E-1,2.148754835E0,9.767501831E0
7.109612931E0,6.843472719E-1,2.155933142E0,9.805787086E0
7.114368035E0,6.771687865E-1,2.148754835E0,9.829715729E0
7.119123191E0,7.010970116E-1,2.141576290E0,9.805787086E0
7.123878348E0,7.250252366E-1,2.167897224E0,9.779465675E0
7.128633504E0,7.274180651E-1,2.155933142E0,9.734002113E0
7.133388608E0,7.441678643E-1,2.143969059E0,9.695717812E0
7.138143764E0,7.633104324E-1,2.170290232E0,9.659825325E0
7.142898920E0,7.680960894E-1,2.170290232E0,9.583254814E0
7.147654077E0,7.657032609E-1,2.172683001E0,9.583254814E0
7.152409181E0,7.728816867E-1,2.196611166E0,9.590433121E0
7.157164337E0,7.944171429E-1,2.191825628E0,9.607182503E0
7.161919493E0,8.279166222E-1,2.196611166E0,9.664610863E0
7.166674598E0,8.590233326E-1,2.184647083E0,9.705288887E0
7.171429754E0,8.494520187E-1,2.179861546E0,9.722038269E0
7.176184910E0,8.709874153E-1,2.189432621E0,9.741181374E0
7.180940066E0,8.590233326E-1,2.184647083E0,9.741181374E0
7.185695170E0,8.662018180E-1,2.182254314E0,9.731609344E0
7.190450327E0,8.398807645E-1,2.184647083E0,9.774680138E0
7.195205483E0,8.327022791E-1,2.170290232E0,9.834501266E0
7.199960639E0,7.824530005E-1,2.129612207E0,9.872786522E0
7.204715743E0,7.944171429E-1,2.129612207E0,9.920642853E0
7.209470900E0,7.872386575E-1,2.105684042E0,9.915857315E0
7.214226056E0,7.872386575E-1,2.093719721E0,9.911071777E0
7.218981212E0,8.159525394E-1,2.065006018E0,9.844072342E0
7.223736316E0,7.345965505E-1,2.048256159E0,9.786644936E0
7.228491473E0,6.987041831E-1,2.062613010E0,9.810572624E0
7.233246629E0,7.393822074E-1,2.053041935E0,9.791430473E0
7.238001785E0,7.657032609E-1,2.053041935E0,9.726823807E0
7.242756889E0,7.393822074E-1,2.021935225E0,9.667003632E0
7.247512045E0,6.843472719E-1,1.978864312E0,9.611968994E0
7.252267202E0,6.484549642E-1,1.974078655E0,9.597611427E0
7.257022358E0,5.862415433E-1,1.981257200E0,9.645467758E0
7.261777462E0,5.216353536E-1,1.962114573E0,9.702896118E0
7.266532618E0,4.450650215E-1,1.974078655E0,9.734002113E0
7.271287775E0,3.732803464E-1,1.966900229E0,9.767501831E0
7.276042879E0,3.062812984E-1,1.923829436E0,9.468399048E0
7.280798035E0,3.876372576E-1,1.914258122E0,9.592825890E0
7.285553191E0,3.373879790E-1,1.904686809E0,9.681360245E0
7.290308348E0,3.469592929E-1,1.880758643E0,9.714859962E0
7.295063452E0,3.182454109E-1,1.868794441E0,9.745966911E0
7.299818608E0,2.608176768E-1,1.907079697E0,9.808179855E0
7.304573764E0,2.009970993E-1,1.907079697E0,9.841679573E0
7.309328920E0,1.866401732E-1,1.928615093E0,9.848857880E0
7.314084025E0,1.579262912E-1,1.933400750E0,9.844072342E0
7.318839181E0,9.571290761E-2,1.947757602E0,9.827322960E0
7.323594337E0,4.785645381E-2,1.947757602E0,9.789037704E0
7.328349493E0,-1.914258115E-2,1.931007862E0,9.777072906E0
7.333104598E0,-5.264209956E-2,1.945364833E0,9.748359680E0
7.337859754E0,-1.028913707E-1,1.964507341E0,9.748359680E0
7.342614910E0,-1.411765367E-1,1.978864312E0,9.779465675E0
7.347370014E0,-1.363908947E-1,1.971685886E0,9.793823242E0
7.352125170E0,-1.579262912E-1,2.000399828E0,9.812965393E0
7.356880327E0,-1.339980662E-1,2.002792597E0,9.812965393E0
7.361635483E0,-1.292124242E-1,2.026720762E0,9.817750931E0
7.366390587E0,-1.268195957E-1,2.033899307E0,9.827322960E0
7.371145743E0,-1.387837082E-1,2.041077614E0,9.798608780E0
7.375900900E0,-1.531406492E-1,2.057827473E0,9.808179855E0
7.380656056E0,-1.483550072E-1,2.048256159E0,9.820143700E0
7.385411212E0,-1.483550072E-1,2.021935225E0,9.810572624E0
7.390166316E0,-1.507478207E-1,2.014756680E0,9.824930191E0
7.394921473E0,-1.411765367E-1,1.981257200E0,9.796216011E0
7.399676629E0,-1.076770201E-1,1.962114573E0,9.786644936E0
7.404431733E0,-7.178468257E-2,1.954936147E0,9.784252167E0
7.409186889E0,-4.546362907E-2,1.962114573E0,9.734002113E0
7.413942045E0,-2.871387079E-2,1.954936147E0,9.707681656E0
7.418697202E0,7.178467698E-3,1.940579176E0,9.676574707E0
7.423452306E0,4.785645287E-3,1.942971945E0,9.686145782E0
7.428207462E0,1.674975827E-2,1.940579176E0,9.676574707E0
7.432962618E0,7.178467698E-3,1.957328916E0,9.676574707E0
7.437717775E0,3.828516230E-2,1.954936147E0,9.702896118E0
7.442472879E0,1.052841991E-1,1.938186288E0,9.698110580E0
7.447228035E0,1.507478207E-1,1.966900229E0,9.676574707E0
7.451983191E0,1.842473447E-1,1.966900229E0,9.655039787E0
7.456738348E0,1.986042857E-1,1.976471543E0,9.647860527E0
7.461493452E0,1.770688742E-1,1.959721804E0,9.619147301E0
7.466248608E0,2.105683982E-1,1.966900229E0,9.590433121E0
7.471003764E0,2.416750938E-1,1.940579176E0,9.583254814E0
7.475758868E0,2.560320199E-1,1.938186288E0,9.559326172E0
7.480514025E0,2.895315289E-1,1.923829436E0,9.535398483E0
7.485269181E0,2.967100143E-1,1.902294040E0,9.511469841E0
7.490024337E0,3.206382394E-1,1.921436548E0,9.518648148E0
7.494779441E0,3.182454109E-1,1.933400750E0,9.554540634E0
7.499534598E0,3.110669553E-1,1.942971945E0,9.566504478E0
7.504289754E0,3.230310678E-1,1.940579176E0,9.540184021E0
7.509044910E0,3.397808075E-1,1.935793519E0,9.554540634E0
7.513800014E0,3.613162339E-1,1.935793519E0,9.556933403E0
7.518555170E0,3.900300860E-1,1.945364833E0,9.528220177E0
7.523310327E0,4.354937077E-1,1.945364833E0,9.468399048E0
7.528065483E0,4.091726840E-1,1.952543259E0,9.461220741E0
7.532820587E0,3.804588020E-1,1.974078655E0,9.485149384E0
7.537575743E0,3.708875179E-1,1.976471543E0,9.501898766E0
7.542330900E0,4.283152521E-1,1.995614052E0,9.485149384E0
7.547086056E0,4.235295951E-1,1.995614052E0,9.509077072E0
7.551841160E0,4.139583111E-1,2.062613010E0,9.564111710E0
7.556596316E0,4.259224236E-1,2.093719721E0,9.583254814E0
7.561351473E0,3.708875179E-1,2.112862349E0,9.619147301E0
7.566106629E0,3.852444589E-1,2.151147604E0,9.676574707E0
7.570861733E0,3.876372576E-1,2.189432621E0,9.755537987E0
7.575616889E0,3.541377485E-1,2.177468538E0,9.808179855E0
7.580372045E0,3.613162339E-1,2.167897224E0,9.872786522E0
7.585127150E0,3.541377485E-1,2.167897224E0,9.899106979E0
7.589882306E0,3.349951804E-1,2.177468538E0,9.932606697E0
7.594637462E0,3.349951804E-1,2.165504456E0,9.939785004E0
7.599392618E0,3.397808075E-1,2.160718918E0,9.925428391E0
7.604147723E0,3.565305769E-1,2.170290232E0,9.920642853E0
7.608902879E0,3.230310678E-1,2.163111687E0,9.868000984E0
7.613658035E0,2.775674164E-1,2.112862349E0,9.832108498E0
7.618413191E0,2.512463629E-1,2.074577332E0,9.786644936E0
7.623168295E0,2.344966233E-1,2.009970903E0,9.717252731E0
7.627923452E0,1.914258152E-1,1.931007862E0,9.645467758E0
7.632678608E0,1.962114573E-1,1.871187329E0,9.556933403E0
7.637433764E0,1.555334777E-1,1.818545222E0,9.444471359E0
7.642188868E0,1.938186288E-1,1.746760488E0,9.413364410E0
7.646944025E0,1.268195957E-1,1.741974831E0,9.418149948E0
7.651699181E0,1.052841991E-1,1.765903115E0,9.353543282E0
7.656454285E0,2.153540403E-2,1.787438512E0,9.365508080E0
7.661209441E0,-4.546362907E-2,1.852044702E0,9.394221306E0
7.665964598E0,-5.742774159E-2,1.909472466E0,9.501898766E0
7.670719754E0,-5.982056633E-2,2.002792597E0,9.664610863E0
7.675474858E0,-6.221338734E-2,2.067398787E0,9.848857880E0
7.680230014E0,-5.742774159E-2,2.139183521E0,9.999606133E0
7.684985170E0,-7.657032460E-2,2.196611166E0,1.017667484E1
7.689740327E0,-6.221338734E-2,2.273181438E0,1.030110168E1
7.694495431E0,-5.982056633E-2,2.311466694E0,1.039920712E1
7.699250587E0,-7.178467698E-3,2.376072884E0,1.041595650E1
7.704005743E0,9.571290575E-3,2.414358139E0,1.036810017E1
7.708760900E0,2.392822690E-2,2.445464849E0,1.026281643E1
7.713516004E0,5.503492057E-2,2.455035925E0,1.016710377E1
7.718271160E0,7.657032460E-2,2.469393015E0,1.006660461E1
7.723026316E0,1.339980662E-1,2.471785784E0,9.879964828E0
7.727781473E0,1.794617027E-1,2.452643156E0,9.700503349E0
7.732536577E0,1.962114573E-1,2.404786825E0,9.509077072E0
7.737291733E0,1.938186288E-1,2.371287346E0,9.377471924E0
7.742046889E0,1.986042857E-1,2.306680918E0,9.214759827E0
7.746801993E0,1.794617027E-1,2.263610125E0,9.107083321E0
7.751557150E0,1.316052526E-1,2.234896421E0,9.028120041E0
7.756312306E0,5.742774159E-2,2.239681959E0,8.999405861E0
7.761067462E0,7.178467698E-3,2.225325108E0,9.073583603E0
7.765822566E0,2.153540403E-2,2.258824587E0,9.040083885E0
7.770577723E0,5.024927482E-2,2.292324066E0,9.071190834E0
7.775332879E0,3.349951655E-2,2.318645239E0,9.128618240E0
7.780088035E0,3.828516230E-2,2.395215511E0,9.152546883E0
7.784843139E0,7.657032460E-2,2.474178553E0,9.214759827E0
7.789598295E0,1.148554832E-1,2.543570518E0,9.269794464E0
7.794353452E0,1.172483116E-1,2.572284460E0,9.329615593E0
7.799108608E0,1.339980662E-1,2.615355253E0,9.432506561E0
7.803863712E0,1.387837082E-1,2.617748022E0,9.559326172E0
7.808618868E0,1.244267747E-1,2.603390932E0,9.686145782E0
7.813374025E0,1.459621787E-1,2.557927370E0,9.803394318E0
7.818129181E0,1.842473447E-1,2.519642353E0,9.868000984E0
7.822884285E0,2.703889608E-1,2.474178553E0,9.918250084E0
7.827639441E0,3.349951804E-1,2.450250387E0,9.913464546E0
7.832394598E0,4.115654826E-1,2.409572363E0,9.865608215E0
7.837149754E0,4.713860750E-1,2.395215511E0,9.786644936E0
7.841904858E0,5.072783828E-1,2.368894339E0,9.698110580E0
7.846660014E0,5.455635786E-1,2.364108801E0,9.607182503E0
7.851415170E0,5.407779217E-1,2.359323025E0,9.549755096E0
7.856170275E0,5.479564071E-1,2.376072884E0,9.468399048E0
7.860925431E0,5.575276613E-1,2.366501570E0,9.413364410E0
7.865680587E0,5.503492355E-1,2.368894339E0,9.415757179E0
7.870435743E0,5.479564071E-1,2.383251429E0,9.418149948E0
7.875190848E0,5.694918036E-1,2.402393818E0,9.461220741E0
7.879946004E0,5.383850932E-1,2.400001049E0,9.477970123E0
7.884701160E0,5.623133183E-1,2.435893536E0,9.521040916E0
7.889456316E0,5.503492355E-1,2.435893536E0,9.542576790E0
7.894211420E0,5.312066078E-1,2.452643156E0,9.614361763E0
7.898966577E0,5.359922647E-1,2.462214470E0,9.647860527E0
7.903721733E0,5.168496966E-1,2.483749866E0,9.645467758E0
7.908476889E0,5.288137794E-1,2.498106956E0,9.669396400E0
7.913231993E0,5.288137794E-1,2.455035925E0,9.698110580E0
7.917987150E0,4.857429862E-1,2.481357098E0,9.707681656E0
7.922742306E0,4.785645306E-1,2.452643156E0,9.745966911E0
7.927497410E0,4.570291340E-1,2.447857618E0,9.741181374E0
7.932252566E0,4.378865361E-1,2.433500528E0,9.731609344E0
7.937007723E0,4.211367965E-1,2.438286304E0,9.669396400E0
7.941762879E0,3.996013701E-1,2.433500528E0,9.588040352E0
7.946517983E0,4.187439680E-1,2.440679073E0,9.528220177E0
7.951273139E0,4.378865361E-1,2.478964329E0,9.494720459E0
7.956028295E0,4.259224236E-1,2.490928411E0,9.427721024E0
7.960783452E0,4.378865361E-1,2.533999205E0,9.355937004E0
7.965538556E0,4.307080805E-1,2.541177750E0,9.298508644E0
7.970293712E0,3.876372576E-1,2.567498684E0,9.255437851E0
7.975048868E0,4.019941986E-1,2.598605394E0,9.224330902E0
7.979804025E0,3.828516304E-1,2.639283419E0,9.231510162E0
7.984559129E0,3.732803464E-1,2.660818815E0,9.250652313E0
7.989314285E0,3.684946895E-1,2.711068153E0,9.327222824E0
7.994069441E0,3.684946895E-1,2.766103029E0,9.399007797E0
7.998824545E0,3.230310678E-1,2.809173822E0,9.444471359E0
8.003579702E0,2.967100143E-1,2.885744095E0,9.477970123E0
8.008334858E0,2.847459018E-1,2.935993433E0,9.518648148E0
8.013090014E0,2.919243574E-1,2.993421078E0,9.573683739E0
8.017845118E0,3.326023519E-1,3.036491871E0,9.611968994E0
8.022600275E0,3.613162339E-1,3.074777126E0,9.643074989E0
8.027355431E0,3.708875179E-1,3.115455151E0,9.698110580E0
8.032110587E0,4.163511395E-1,3.158525944E0,9.712467194E0
8.036865691E0,4.450650215E-1,3.208775282E0,9.700503349E0
8.041620848E0,4.426721931E-1,3.259024382E0,9.690931320E0
8.046376004E0,4.259224236E-1,3.275774240E0,9.690931320E0
8.051131160E0,3.732803464E-1,3.270988464E0,9.686145782E0
8.055886264E0,3.349951804E-1,3.292523861E0,9.640682220E0
8.060641420E0,3.182454109E-1,3.294916868E0,9.607182503E0
8.065396577E0,3.493520916E-1,3.316452265E0,9.530612946E0
8.070151681E0,3.637090325E-1,3.326023579E0,9.475577354E0
8.074906837E0,3.661018610E-1,3.337987661E0,9.413364410E0
8.079661993E0,3.780659735E-1,3.328416348E0,9.360722542E0
8.084417150E0,3.373879790E-1,3.342773199E0,9.348757744E0
8.089172254E0,2.847459018E-1,3.352344513E0,9.315258980E0
8.093927410E0,2.703889608E-1,3.381058455E0,9.322437286E0
8.098682566E0,2.679961324E-1,3.419343472E0,9.329615593E0
8.103437723E0,2.871387303E-1,3.443271875E0,9.353543282E0
8.108192827E0,2.847459018E-1,3.457628727E0,9.341579437E0
8.112947983E0,2.895315289E-1,3.469592810E0,9.300901413E0
8.117703139E0,2.871387303E-1,3.479164124E0,9.272188187E0
8.122458295E0,2.727817893E-1,3.469592810E0,9.236295700E0
8.127213400E0,2.536391914E-1,3.462414265E0,9.257830620E0
8.131968556E0,2.297109663E-1,3.462414265E0,9.279366493E0
8.136723712E0,1.866401732E-1,3.450450182E0,9.260223389E0
8.141478816E0,1.890329868E-1,3.467200041E0,9.267401695E0
8.146233973E0,1.770688742E-1,3.462414265E0,9.241081238E0
8.150989129E0,1.722832322E-1,3.469592810E0,9.250652313E0
8.155744285E0,1.459621787E-1,3.460021496E0,9.257830620E0
8.160499389E0,1.220339537E-1,3.445664644E0,9.284152031E0
8.165254545E0,1.435693651E-1,3.467200041E0,9.298508644E0
8.170009702E0,1.770688742E-1,3.474378586E0,9.296115875E0
8.174764858E0,1.938186288E-1,3.483949661E0,9.315258980E0
8.179519962E0,2.368894368E-1,3.495913982E0,9.293723106E0
8.184275118E0,2.584248483E-1,3.517449379E0,9.310472488E0
8.189030275E0,2.632105052E-1,3.498306751E0,9.320044518E0
8.193785431E0,2.608176768E-1,3.503092289E0,9.343972206E0
8.198540535E0,2.536391914E-1,3.500699520E0,9.370293617E0
8.203295691E0,2.560320199E-1,3.500699520E0,9.377471924E0
8.208050848E0,2.368894368E-1,3.510270834E0,9.391828537E0
8.212806004E0,2.464607358E-1,3.534198999E0,9.403793335E0
8.217561108E0,2.679961324E-1,3.524627686E0,9.384650230E0
8.222316264E0,2.895315289E-1,3.522234917E0,9.396614075E0
8.227071420E0,3.086741269E-1,3.543770313E0,9.403793335E0
8.231826525E0,3.278166950E-1,3.548556089E0,9.394221306E0
8.236581681E0,3.421736360E-1,3.562912941E0,9.377471924E0
8.241336837E0,3.613162339E-1,3.555734396E0,9.379864693E0
8.246091993E0,3.469592929E-1,3.558127165E0,9.355937004E0
8.250847098E0,3.541377485E-1,3.562912941E0,9.329615593E0
8.255602254E0,3.469592929E-1,3.567698479E0,9.315258980E0
8.260357410E0,3.613162339E-1,3.572484255E0,9.305686951E0
8.265112566E0,3.948157430E-1,3.589233875E0,9.274580956E0
8.269867670E0,4.259224236E-1,3.596412420E0,9.286544800E0
8.274622827E0,4.618147612E-1,3.613162279E0,9.260223389E0
8.279377983E0,4.618147612E-1,3.639483213E0,9.207581520E0
8.284133139E0,4.929214716E-1,3.644268990E0,9.198010445E0
8.288888243E0,5.048855543E-1,3.658625841E0,9.188439369E0
8.293643400E0,4.929214716E-1,3.658625841E0,9.188439369E0
8.298398556E0,5.048855543E-1,3.656233072E0,9.221938133E0
8.303153660E0,4.713860750E-1,3.672982693E0,9.260223389E0
8.307908816E0,4.713860750E-1,3.689732552E0,9.305686951E0
8.312663973E0,4.713860750E-1,3.670589924E0,9.355937004E0
8.317419129E0,4.713860750E-1,3.656233072E0,9.387042999E0
8.322174233E0,4.689932466E-1,3.684946775E0,9.406186104E0
8.326929389E0,4.737788737E-1,3.687339783E0,9.408578873E0
8.331684545E0,5.072783828E-1,3.716053486E0,9.434899330E0
8.336439702E0,5.168496966E-1,3.747160196E0,9.420542717E0
8.341194806E0,5.359922647E-1,3.747160196E0,9.420542717E0
8.345949962E0,5.479564071E-1,3.775874138E0,9.420542717E0
8.350705118E0,5.575276613E-1,3.795016766E0,9.437292099E0
8.355460275E0,5.527420044E-1,3.797409534E0,9.439684868E0
8.360215379E0,5.431707501E-1,3.809373617E0,9.456435204E0
8.364970535E0,5.383850932E-1,3.818944931E0,9.473184586E0
8.369725691E0,5.503492355E-1,3.833301783E0,9.430113792E0
8.374480795E0,5.527420044E-1,3.847658873E0,9.406186104E0
8.379235952E0,5.910272002E-1,3.936193228E0,9.382257462E0
8.383991108E0,5.694918036E-1,3.957728624E0,9.370293617E0
8.388746264E0,5.790630579E-1,3.952943087E0,9.379864693E0
8.393501368E0,6.173482537E-1,3.909872293E0,9.348757744E0
8.398256525E0,6.532405615E-1,3.883551121E0,9.303294182E0
8.403011681E0,6.293123364E-1,3.862015724E0,9.257830620E0
8.407766837E0,5.670989752E-1,3.869194269E0,9.243474007E0
8.412521941E0,5.479564071E-1,3.859622955E0,9.221938133E0
8.417277098E0,5.312066078E-1,3.833301783E0,9.212367058E0
8.422032254E0,5.575276613E-1,3.830909014E0,9.221938133E0
8.426787358E0,5.599204898E-1,3.790230989E0,9.209974289E0
8.431542514E0,5.503492355E-1,3.787838221E0,9.174081802E0
8.436297670E0,5.670989752E-1,3.792623997E0,9.114261627E0
8.441052827E0,5.694918036E-1,3.778266907E0,9.052047729E0
8.445807931E0,5.479564071E-1,3.780659676E0,9.047262192E0
8.450563087E0,5.192425251E-1,3.742374659E0,9.004191399E0
8.455318243E0,5.048855543E-1,3.696911097E0,9.013762474E0
8.460073400E0,4.785645306E-1,3.665804386E0,9.004191399E0
8.464828504E0,4.594219327E-1,3.644268990E0,9.013762474E0
8.469583660E0,4.259224236E-1,3.632304668E0,8.985049248E0
8.474338816E0,4.235295951E-1,3.617947817E0,8.949156761E0
8.479093973E0,4.163511395E-1,3.601198196E0,8.915657043E0
8.483849077E0,4.331009090E-1,3.596412420E0,8.889336586E0
8.488604233E0,3.924229145E-1,3.617947817E0,8.894122124E0
8.493359389E0,3.924229145E-1,3.610769272E0,8.898907661E0
8.498114493E0,3.876372576E-1,3.582055569E0,8.903693199E0
8.502869650E0,3.828516304E-1,3.603590965E0,8.918049812E0
8.507624806E0,3.804588020E-1,3.601198196E0,8.944371223E0
8.512379962E0,3.996013701E-1,3.605983734E0,8.953942299E0
8.517135066E0,4.043870270E-1,3.605983734E0,8.994620323E0
8.521890223E0,3.948157430E-1,3.598805189E0,9.047262192E0
8.526645379E0,4.402793646E-1,3.629911900E0,9.107083321E0
8.531400535E0,4.618147612E-1,3.622733593E0,9.159725189E0
8.536155639E0,4.426721931E-1,3.622733593E0,9.202795982E0
8.540910795E0,4.737788737E-1,3.677768469E0,9.233902931E0
8.545665952E0,4.809573591E-1,3.742374659E0,9.265008926E0
8.550421108E0,4.666004181E-1,3.742374659E0,9.288937569E0
8.555176212E0,4.881358147E-1,3.761517286E0,9.303294182E0
8.559931368E0,5.072783828E-1,3.775874138E0,9.324830055E0
8.564686525E0,5.312066078E-1,3.775874138E0,9.341579437E0
8.569441629E0,5.479564071E-1,3.780659676E0,9.382257462E0
8.574196785E0,5.623133183E-1,3.804588079E0,9.413364410E0
8.578951941E0,5.910272002E-1,3.799802303E0,9.451649666E0
8.583707098E0,5.886343718E-1,3.792623997E0,9.437292099E0
8.588462202E0,6.436693072E-1,3.799802303E0,9.399007797E0
8.593217358E0,6.675975323E-1,3.797409534E0,9.360722542E0
8.597972514E0,6.771687865E-1,3.847658873E0,9.358329773E0
8.602727670E0,7.465606928E-1,3.833301783E0,9.329615593E0
8.607482775E0,7.609176040E-1,3.854837179E0,9.341579437E0
8.612237931E0,7.657032609E-1,3.881158352E0,9.348757744E0
8.616993087E0,7.944171429E-1,3.921836376E0,9.379864693E0
8.621748243E0,7.585247755E-1,3.945764542E0,9.379864693E0
8.626503348E0,8.398807645E-1,3.967299938E0,9.284152031E0
8.631258504E0,8.925228715E-1,3.945764542E0,9.370293617E0
8.636013660E0,9.308080077E-1,3.917050600E0,9.422935486E0
8.640768764E0,9.738788009E-1,3.960121393E0,9.399007797E0
8.645523920E0,9.690931439E-1,3.948157310E0,9.384650230E0
8.650279077E0,9.164510965E-1,3.955335855E0,9.372686386E0
8.655034233E0,8.805587292E-1,3.952943087E0,9.353543282E0
8.659789337E0,8.638089895E-1,3.993621111E0,9.360722542E0
8.664544493E0,8.614161611E-1,3.981656790E0,9.348757744E0
8.669299650E0,8.255237937E-1,3.969692707E0,9.341579437E0
8.674054806E0,7.728816867E-1,3.974478483E0,9.320044518E0
8.678809910E0,7.417750359E-1,3.960121393E0,9.327222824E0
8.683565066E0,7.010970116E-1,3.955335855E0,9.315258980E0
8.688320223E0,6.915257573E-1,3.969692707E0,9.310472488E0
8.693075379E0,6.628118753E-1,3.960121393E0,9.324830055E0
8.697830483E0,6.269195080E-1,3.957728624E0,9.324830055E0
8.702585639E0,6.293123364E-1,3.960121393E0,9.305686951E0
8.707340795E0,5.670989752E-1,3.967299938E0,9.284152031E0
8.712095900E0,5.288137794E-1,3.984049797E0,9.253045082E0
8.716851056E0,5.168496966E-1,3.943371773E0,9.188439369E0
8.721606212E0,4.689932466E-1,3.914657831E0,9.171689034E0
8.726361368E0,4.618147612E-1,3.857230186E0,9.150154114E0
8.731116473E0,3.948157430E-1,3.857230186E0,9.145368576E0
8.735871629E0,3.732803464E-1,3.823730469E0,9.145368576E0
8.740626785E0,3.852444589E-1,3.847658873E0,9.219545364E0
8.745381941E0,3.349951804E-1,3.895515203E0,9.279366493E0
8.750137045E0,2.943171859E-1,3.842873096E0,9.255437851E0
8.754892202E0,3.326023519E-1,3.850051641E0,9.260223389E0
8.759647358E0,3.397808075E-1,3.864408493E0,9.257830620E0
8.764402514E0,2.943171859E-1,3.864408493E0,9.217152596E0
8.769157618E0,2.656033039E-1,3.881158352E0,9.217152596E0
8.773912775E0,2.392822653E-1,3.881158352E0,9.176474571E0
8.778667931E0,2.799602449E-1,3.905086517E0,9.138189316E0
8.783423035E0,2.919243574E-1,3.924229145E0,9.131011009E0
8.788178191E0,2.919243574E-1,3.938585997E0,9.128618240E0
8.792933348E0,2.967100143E-1,3.964907169E0,9.116654396E0
8.797688504E0,2.943171859E-1,3.976871252E0,9.131011009E0
8.802443608E0,2.919243574E-1,3.996013880E0,9.183652878E0
8.807198764E0,2.775674164E-1,4.024727821E0,9.248259544E0
8.811953920E0,2.608176768E-1,4.017549038E0,9.322437286E0
8.816709077E0,2.081755698E-1,4.051048756E0,9.403793335E0
8.821464181E0,1.890329868E-1,4.046263218E0,9.489934921E0
8.826219337E0,1.746760458E-1,4.048655987E0,9.621540070E0
8.830974493E0,1.603191197E-1,4.046263218E0,9.741181374E0
8.835729650E0,1.459621787E-1,4.055834293E0,9.808179855E0
8.840484754E0,1.435693651E-1,4.051048756E0,9.868000984E0
8.845239910E0,1.651047617E-1,4.053441525E0,9.882357597E0
8.849995066E0,1.770688742E-1,4.079762459E0,9.841679573E0
8.854750170E0,1.890329868E-1,4.084548473E0,9.750752449E0
8.859505327E0,1.842473447E-1,4.082155228E0,9.609575272E0
8.864260483E0,1.770688742E-1,4.070191383E0,9.458827972E0
8.869015639E0,1.722832322E-1,4.043870449E0,9.296115875E0
8.873770743E0,1.746760458E-1,4.039084435E0,9.123832703E0
8.878525900E0,1.459621787E-1,4.000799656E0,8.970691681E0
8.883281056E0,1.004985496E-1,3.974478483E0,8.891729355E0
8.888036160E0,9.092725813E-2,3.929014683E0,8.827122688E0
8.892791316E0,6.939185411E-2,3.895515203E0,8.798408508E0
8.897546473E0,2.392822690E-2,3.862015724E0,8.819944382E0
8.902301629E0,-3.828516230E-2,3.876372576E0,8.896514893E0
8.907056733E0,-5.024927482E-2,3.850051641E0,8.939585686E0
8.911811889E0,-5.982056633E-2,3.869194269E0,9.040083885E0
8.916567045E0,-3.589234129E-2,3.912265062E0,9.147761345E0
8.921322150E0,-3.828516230E-2,3.940979004E0,9.255437851E0
8.926077306E0,-7.657032460E-2,3.964907169E0,9.372686386E0
8.930832462E0,-9.810572863E-2,3.981656790E0,9.485149384E0
8.935587618E0,-9.332008660E-2,4.027120590E0,9.588040352E0
8.940342723E0,-9.332008660E-2,4.055834293E0,9.662218094E0
8.945097879E0,-4.067798331E-2,4.058227062E0,9.755537987E0
8.949853035E0,2.632104978E-2,4.053441525E0,9.805787086E0
8.954608191E0,6.460621208E-2,4.060619831E0,9.839286804E0
8.959363295E0,1.411765367E-1,4.053441525E0,9.932606697E0
8.964118452E0,2.057827413E-1,4.060619831E0,9.997213364E0
8.968873608E0,2.823530734E-1,4.077369690E0,1.002592659E1
8.973628764E0,3.469592929E-1,4.084548473E0,1.004028416E1
8.978383868E0,4.187439680E-1,4.084548473E0,1.001874828E1
8.983139025E0,5.096712112E-1,4.072584152E0,9.980463028E0
8.987894181E0,5.718846321E-1,4.060619831E0,9.946963310E0
8.992649285E0,6.149554253E-1,4.029513359E0,9.889535904E0
8.997404441E0,6.747759581E-1,4.000799656E0,9.836894035E0
9.002159598E0,6.867401004E-1,3.960121393E0,9.702896118E0
9.006914754E0,7.393822074E-1,3.986442566E0,9.588040352E0
9.011669858E0,7.728816867E-1,3.948157310E0,9.466006279E0
9.016425014E0,8.255237937E-1,3.952943087E0,9.312865257E0
9.021180170E0,8.398807645E-1,3.952943087E0,9.147761345E0
9.025935327E0,8.231309652E-1,3.960121393E0,9.037691116E0
9.030690431E0,8.015955687E-1,3.991228104E0,8.891729355E0
9.035445587E0,7.920243144E-1,4.031906128E0,8.642875671E0
9.040200743E0,8.279166222E-1,4.003192425E0,8.685946465E0
9.044955900E0,8.470591903E-1,3.991228104E0,8.724231720E0
9.049711004E0,9.020941257E-1,3.967299938E0,8.757730484E0
9.054466160E0,9.499505758E-1,3.957728624E0,8.805587769E0
9.059221316E0,9.092726111E-1,3.936193228E0,8.822337151E0
9.063976420E0,9.020941257E-1,3.926621914E0,8.834300995E0
9.068731577E0,8.757730722E-1,3.907479286E0,8.894122124E0
9.073486733E0,8.877372146E-1,3.885943890E0,8.939585686E0
9.078241889E0,8.685946465E-1,3.850051641E0,8.987442017E0
9.082996993E0,8.733802438E-1,3.833301783E0,9.008976936E0
9.087752150E0,8.470591903E-1,3.751945972E0,9.013762474E0
9.092507306E0,8.470591903E-1,3.730410576E0,9.044869423E0
9.097262410E0,8.207381964E-1,3.687339783E0,9.061619759E0
9.102017566E0,8.063812256E-1,3.651447296E0,9.071190834E0
9.106772723E0,8.063812256E-1,3.620340586E0,9.092725754E0
9.111527879E0,7.776673436E-1,3.589233875E0,9.052047729E0
9.116282983E0,7.633104324E-1,3.574877024E0,9.025727272E0
9.121038139E0,7.513462901E-1,3.579662561E0,9.001798630E0
9.125793295E0,7.202396393E-1,3.589233875E0,8.992227554E0
9.130548452E0,6.819544435E-1,3.582055569E0,9.023334503E0
9.135303556E0,6.628118753E-1,3.598805189E0,9.030512810E0
9.140058712E0,6.747759581E-1,3.591626883E0,9.087940216E0
9.144813868E0,6.771687865E-1,3.601198196E0,9.123832703E0
9.149568973E0,6.747759581E-1,3.570091486E0,9.186046600E0
9.154324129E0,6.532405615E-1,3.601198196E0,9.257830620E0
9.159079285E0,6.173482537E-1,3.598805189E0,9.334401131E0
9.163834441E0,5.862415433E-1,3.589233875E0,9.477970123E0
9.168589545E0,5.216353536E-1,3.605983734E0,9.607182503E0
9.173344702E0,4.642075896E-1,3.594019651E0,9.736394882E0
9.178099858E0,3.804588020E-1,3.586841106E0,9.834501266E0
9.182854962E0,3.206382394E-1,3.594019651E0,9.906285286E0
9.187610118E0,2.344966233E-1,3.543770313E0,9.908679008E0
9.192365275E0,1.746760458E-1,3.543770313E0,9.846465111E0
9.197120431E0,1.292124242E-1,3.594019651E0,9.741181374E0
9.201875535E0,9.571290761E-2,3.598805189E0,9.652647018E0
9.206630691E0,9.571290761E-2,3.608376503E0,9.552147865E0
9.211385848E0,4.785645381E-2,3.613162279E0,9.468399048E0
9.216140952E0,2.392822690E-2,3.574877024E0,9.425328255E0
9.220896108E0,-7.178467698E-3,3.637090445E0,9.454042435E0
9.225651264E0,-6.221338734E-2,3.653840065E0,9.461220741E0
9.230406420E0,-1.220339537E-1,3.689732552E0,9.494720459E0
9.235161525E0,-1.124626622E-1,3.682554007E0,9.571290970E0
9.239916681E0,-1.076770201E-1,3.661018610E0,9.652647018E0
9.244671837E0,-1.124626622E-1,3.672982693E0,9.688538551E0
9.249426993E0,-1.339980662E-1,3.651447296E0,9.690931320E0
9.254182098E0,-1.316052526E-1,3.598805189E0,9.664610863E0
9.258937254E0,-1.411765367E-1,3.584448338E0,9.623932838E0
9.263692410E0,-1.459621787E-1,3.548556089E0,9.571290970E0
9.268447514E0,-1.052841991E-1,3.488735437E0,9.499505997E0
9.273202670E0,-3.589234129E-2,3.433700562E0,9.444471359E0
9.277957827E0,4.546362907E-2,3.376272678E0,9.332008362E0
9.282712983E0,6.460621208E-2,3.323630571E0,9.226723671E0
9.287468087E0,9.332008660E-2,3.266202927E0,9.138189316E0
9.292223243E0,1.507478207E-1,3.177668571E0,9.092725754E0
9.296978400E0,1.986042857E-1,3.081955671E0,9.073583603E0
9.301733504E0,2.488535494E-1,3.002992392E0,9.054440498E0
9.306488660E0,2.943171859E-1,2.890529871E0,9.049654961E0
9.311243816E0,3.469592929E-1,2.778067112E0,9.066405296E0
9.315998973E0,3.708875179E-1,2.694318295E0,9.064012527E0
9.320754077E0,3.924229145E-1,2.605783939E0,9.061619759E0
9.325509233E0,3.924229145E-1,2.495713949E0,9.085547447E0
9.330264389E0,4.067798555E-1,2.414358139E0,9.054440498E0
9.335019493E0,4.187439680E-1,2.335394859E0,9.035298347E0
9.339774650E0,4.546363056E-1,2.282752752E0,8.992227554E0
9.344529806E0,4.857429862E-1,2.277967215E0,8.994620323E0
9.349284962E0,5.024927258E-1,2.268395901E0,8.994620323E0
9.354040066E0,5.072783828E-1,2.237289190E0,9.049654961E0
9.358795223E0,5.359922647E-1,2.215753794E0,9.123832703E0
9.363550379E0,5.790630579E-1,2.201396942E0,9.200403214E0
9.368305483E0,5.814558864E-1,2.177468538E0,9.276973724E0
9.373060639E0,5.623133183E-1,2.132004976E0,9.367900848E0
9.377815795E0,5.742774606E-1,2.115255117E0,9.454042435E0
9.382570952E0,5.694918036E-1,2.081755638E0,9.564111710E0
9.387326056E0,5.694918036E-1,2.062613010E0,9.640682220E0
9.392081212E0,5.718846321E-1,2.069791555E0,9.726823807E0
9.396836368E0,5.766702294E-1,2.038684845E0,9.824930191E0
9.401591473E0,5.694918036E-1,2.024327993E0,9.908679008E0
9.406346629E0,5.647061467E-1,2.041077614E0,9.968499184E0
9.411101785E0,5.886343718E-1,2.024327993E0,1.000678444E1
9.415856941E0,5.718846321E-1,2.029113531E0,1.001635551E1
9.420612045E0,5.647061467E-1,2.048256159E0,9.973284721E0
9.425367202E0,5.575276613E-1,2.072184324E0,9.951749802E0
9.430122358E0,5.503492355E-1,2.103291035E0,9.906285286E0
9.434877514E0,5.670989752E-1,2.139183521E0,9.848857880E0
9.439632618E0,5.407779217E-1,2.175075769E0,9.786644936E0
9.444387775E0,5.000999570E-1,2.220539331E0,9.791430473E0
9.449142931E0,5.000999570E-1,2.246860504E0,9.793823242E0
9.453898035E0,4.594219327E-1,2.277967215E0,9.793823242E0
9.458653191E0,4.426721931E-1,2.297109842E0,9.774680138E0
9.463408348E0,4.043870270E-1,2.294716835E0,9.748359680E0
9.468163452E0,3.828516304E-1,2.330609322E0,9.702896118E0
9.472918608E0,3.445664644E-1,2.325823545E0,9.647860527E0
9.477673764E0,3.110669553E-1,2.344966173E0,9.602396965E0
9.482428920E0,2.656033039E-1,2.368894339E0,9.547362328E0
9.487184025E0,2.632105052E-1,2.407179594E0,9.516255379E0
9.491939181E0,2.057827413E-1,2.414358139E0,9.497113228E0
9.496694337E0,3.110669367E-2,2.505285263E0,9.298508644E0
9.501449441E0,1.531406492E-1,2.567498684E0,9.327222824E0
9.506204598E0,1.268195957E-1,2.574677229E0,9.410971642E0
9.510959754E0,1.196411327E-1,2.562713146E0,9.415757179E0
9.515714910E0,1.316052526E-1,2.555534601E0,9.442078590E0
9.520470014E0,1.028913707E-1,2.567498684E0,9.530612946E0
9.525225170E0,1.914258115E-2,2.639283419E0,9.568898201E0
9.529980327E0,-4.546362907E-2,2.684746981E0,9.647860527E0
9.534735431E0,-7.657032460E-2,2.691925526E0,9.712467194E0
9.539490587E0,-9.092725813E-2,2.708675146E0,9.767501831E0
9.544245743E0,-9.092725813E-2,2.744567633E0,9.839286804E0
9.549000848E0,-1.268195957E-1,2.763710260E0,9.891928673E0
9.553756004E0,-1.818545163E-1,2.763710260E0,9.923035622E0
9.558511160E0,-2.297109663E-1,2.794816732E0,9.968499184E0
9.563266316E0,-2.679961324E-1,2.794816732E0,9.992427826E0
9.568021420E0,-2.943171859E-1,2.773281336E0,1.003789139E1
9.572776577E0,-3.038884699E-1,2.744567633E0,1.010728264E1
9.577531733E0,-2.847459018E-1,2.687139750E0,1.015035343E1
9.582286837E0,-2.727817893E-1,2.622533560E0,1.017188931E1
9.587041993E0,-2.632105052E-1,2.550748825E0,1.019103146E1
9.591797150E0,-2.703889608E-1,2.457428932E0,1.016710377E1
9.596552306E0,-2.273181528E-1,2.354537487E0,1.006181908E1
9.601307410E0,-2.608176768E-1,2.266003132E0,9.970891953E0
9.606062566E0,-2.799602449E-1,2.177468538E0,9.848857880E0
9.610817723E0,-2.608176768E-1,2.088934183E0,9.729216576E0
9.615572827E0,-2.584248483E-1,2.017149448E0,9.611968994E0
9.620327983E0,-2.464607358E-1,1.950150490E0,9.497113228E0
9.625083139E0,-2.344966233E-1,1.873580098E0,9.439684868E0
9.629838295E0,-1.962114573E-1,1.787438512E0,9.322437286E0
9.634593400E0,-1.842473447E-1,1.708475351E0,9.195617676E0
9.639348556E0,-2.177468538E-1,1.622333765E0,9.095118523E0
9.644103712E0,-3.110669367E-2,1.495514154E0,8.989834785E0
9.648858816E0,-3.445664644E-1,1.380658627E0,8.961120605E0
9.653613973E0,-3.469592929E-1,1.366301775E0,8.788837433E0
9.658369129E0,-3.230310678E-1,1.347159147E0,8.784051895E0
9.663124285E0,-4.067798555E-1,1.320838094E0,8.733802795E0
9.667879389E0,-4.259224236E-1,1.339980721E0,8.767302513E0
9.672634545E0,-4.163511395E-1,1.335195065E0,8.827122688E0
9.677389702E0,-4.498506486E-1,1.320838094E0,8.910871506E0
9.682144806E0,-4.331009090E-1,1.330409408E0,9.035298347E0
9.686899962E0,-4.426721931E-1,1.368694544E0,9.243474007E0
9.691655118E0,-4.211367965E-1,1.402194023E0,9.470791817E0
9.696410223E0,-4.402793646E-1,1.462014675E0,9.726823807E0
9.701165379E0,-4.474578202E-1,1.507478237E0,9.987641335E0
9.705920535E0,-4.115654826E-1,1.591227055E0,1.020060253E1
9.710675691E0,-3.661018610E-1,1.674975872E0,1.038724327E1
9.715430795E0,-3.182454109E-1,1.741974831E0,1.053320503E1
9.720185952E0,-3.230310678E-1,1.789831281E0,1.061934662E1
9.724941108E0,-2.919243574E-1,1.816152334E0,1.064088249E1
9.729696212E0,-2.799602449E-1,1.794616938E0,1.061216831E1
9.734451368E0,-2.560320199E-1,1.770688772E0,1.053081226E1
9.739206525E0,-2.488535494E-1,1.794616938E0,1.040399265E1
9.743961629E0,-2.105683982E-1,1.828116536E0,1.025563812E1
9.748716785E0,-1.387837082E-1,1.878365755E0,1.009292603E1
9.753471941E0,-9.332008660E-2,1.919043779E0,9.963713646E0
9.758227098E0,-4.067798331E-2,1.952543259E0,9.884750366E0
9.762982202E0,3.349951655E-2,1.988435626E0,9.834501266E0
9.767737358E0,1.148554832E-1,2.007578135E0,9.796216011E0
9.772492514E0,2.033899277E-1,2.043470621E0,9.801001549E0
9.777247670E0,2.368894368E-1,2.065006018E0,9.841679573E0
9.782002775E0,2.799602449E-1,2.067398787E0,9.882357597E0
9.786757931E0,2.943171859E-1,2.079362869E0,9.949356079E0
9.791513035E0,3.230310678E-1,2.072184324E0,1.003071213E1
9.796268191E0,3.038884699E-1,2.086541414E0,1.012403297E1
9.801023348E0,3.278166950E-1,2.103291035E0,1.021256733E1
9.805778504E0,3.828516304E-1,2.093719721E0,1.029392338E1
9.810533608E0,4.043870270E-1,2.088934183E0,1.035374355E1
9.815288764E0,4.043870270E-1,2.091326952E0,1.038006496E1
9.820043920E0,4.187439680E-1,2.074577332E0,1.038006496E1
9.824799025E0,4.235295951E-1,2.053041935E0,1.033699417E1
9.829554181E0,4.235295951E-1,2.019542217E0,1.026281643E1
9.834309337E0,4.283152521E-1,1.986042738E0,1.015035343E1
9.839064493E0,4.235295951E-1,1.957328916E0,1.004028416E1
9.843819598E0,4.378865361E-1,1.928615093E0,9.877572060E0
9.848574754E0,4.689932466E-1,1.904686809E0,9.667003632E0
9.853329910E0,5.000999570E-1,1.847259045E0,9.444471359E0
9.858085014E0,5.312066078E-1,1.789831281E0,9.241081238E0
9.862840170E0,5.312066078E-1,1.749153376E0,9.064012527E0
9.867595327E0,5.024927258E-1,1.732403636E0,8.920442581E0
9.872350483E0,5.000999570E-1,1.670190215E0,8.757730484E0
9.877105587E0,3.493520916E-1,1.708475351E0,8.575876236E0
9.881860743E0,4.809573591E-1,1.703689694E0,8.542376518E0
9.886615848E0,4.546363056E-1,1.677368641E0,8.657232285E0
9.891371004E0,4.426721931E-1,1.701296926E0,8.709874153E0
9.896126160E0,4.115654826E-1,1.722832322E0,8.851051331E0
9.900881316E0,3.206382394E-1,1.770688772E0,9.042476654E0
9.905636420E0,2.632105052E-1,1.804188251E0,9.257830620E0
9.910391577E0,1.292124242E-1,1.842473388E0,9.477970123E0
9.915146733E0,9.571290761E-2,1.892722726E0,9.712467194E0
9.919901837E0,3.349951655E-2,1.890329838E0,9.906285286E0
9.924656993E0,0.000000000E0,1.904686809E0,1.004028416E1
9.929412150E0,-5.264209956E-2,1.911865234E0,1.009053326E1
9.934167306E0,-6.699903309E-2,1.933400750E0,1.013360405E1
9.938922410E0,-9.571290761E-2,1.969292998E0,1.009292603E1
9.943677566E0,-6.699903309E-2,2.012363911E0,9.985248566E0
9.948432723E0,-1.052841991E-1,2.079362869E0,9.863214493E0
9.953187827E0,-9.092725813E-2,2.153540373E0,9.683753014E0
9.957942983E0,-5.742774159E-2,2.182254314E0,9.497113228E0
