Time (s),Acceleration x (m/s^2),Acceleration y (m/s^2),Acceleration z (m/s^2)
9.002206613,-0.4045784498561964,0.4567007763604774,0.6593818315707809
9.006960884,-0.4718819052051625,0.45106320000883593,0.45500833143334657
9.01171505,-0.5467942341744295,0.44854782532028675,0.25656164349693267
9.016469269,-0.6297988265262583,0.44972326567473525,0.06788910445675365
9.021223488,-0.7211783902908058,0.4550407573099103,-0.10735339823931551
9.025977707,-0.8209912329474481,0.46482028238118694,-0.265771103898052
9.030731925,-0.9290516755597117,0.47923864490124374,-0.40429584727585965
9.035486144,-1.0449152861871795,0.4983196999292339,-0.5202460937727347
9.040240363,-1.1678695391363463,0.5219269426867565,-0.6113803376805695
9.044994582,-1.296930406895253,0.5497586763558193,-0.6759427002923694
9.0497488,-1.4308452763597053,0.5813459929259238,-0.7126996314502885
9.054503019,-1.5681024567771094,0.6160538173659964,-0.720966719265633
9.059257238,-1.7069474167454084,0.6530852757346881,-0.7006247553449283
9.064011405,-1.8454057500572718,0.691489644074175,-0.6521243917179474
9.068765675,-1.981312722853704,0.7301741079334221,-0.5764789621292397
9.073519842,-2.1123490977969723,0.7679195049664974,-0.4752453213264281
9.078274061,-2.236082768230445,0.8034001318444927,-0.350492873190966
9.08302828,-2.3500155716827185,0.8352075728772719,-0.2047612986136386
9.087782498,-2.4516344926227926,0.8618783566432828,-0.041007839591761734
9.092536717,-2.5384663125995925,0.881925076845359,0.13745467215312632
9.097290936,-2.6081346238867984,0.8938704344386809,0.3270275545377287
9.102045155,-2.6584179930578835,0.8962834807488972,0.5239020444652944
9.106799373,-2.6873079481887188,0.8878171774752035,0.7241391692103681
9.111553592,-2.693065373904413,0.867246250786717,0.9237516701311955
9.116307811,-2.674273838789594,0.8335042136427817,1.1187858796564527
9.12106203,-2.6298883561024136,0.785718371302596,1.305401476625171
9.125816196,-2.559278097545506,0.7232416152642145,1.479947140443228
9.130570415,-2.4622616467135696,0.6456798531861763,1.6390302857977412
9.135324634,-2.3391334972349536,0.5529140164636955,1.7795792789287028
9.140078853,-2.1906806700959387,0.44511572996331195,1.8988968037934628
9.144833071,-2.0181885400050743,0.32275591407505316,1.9947033503658678
9.14958729,-1.8234352132611609,0.18660580953809874,2.0651701251143595
9.154341509,-1.6086740808714577,0.03773016012961779,2.10894102191861
9.159095728,-1.3766044751742768,-0.12252745536380119,2.1251436260871133
9.163849946,-1.1303306816830703,-0.2925668959201226,2.1133895404018457
9.168604165,-0.8733098924010113,-0.47056084826030736,2.0737646076780134
9.173358332,-0.6092900201364825,-0.6544906255555132,2.006809850093176
9.17811255,-0.3422386122890001,-0.8421874714050122,1.9134941458732242
9.182866769,-0.07626439600526734,-1.0313783007364081,1.795179815546642
9.187620988,0.18446675498818194,-1.219734677633388,1.6535823912502299
9.192375207,0.4358194272741389,-1.4049237338938168,1.4907258935012404
9.197129425,0.6737776827148293,-1.5846596726740592,1.3088949425270833
9.201883644,0.8945332164514639,-1.756754479402217,1.110584990198176
9.206637863,1.0945703611693667,-1.919166477182289,0.8984518807500939
9.211392082,1.2707456798357164,-2.0700454155775168,0.6752618422788986
9.2161463,1.4203599989126683,-2.207772868637985,0.44384288506171055
9.220900519,1.5412209120549998,-2.330996838143765,0.20703844453633677
9.225654738,1.6316940247725589,-2.4386596083219207,-0.032336037925585065
9.230408905,1.6907415048787349,-2.530018075281856,-0.27153305006163064
9.235163123,1.7179468416331172,-2.6046559744645994,-0.5079090585731674
9.239917342,1.7135250878743784,-2.6624876490408753,-0.7389564142263815
9.244671561,1.6783182535822543,-2.703753237780213,-0.9623309878966239
9.24942578,1.6137759252106283,-2.7290054077288355,-1.1758755396747307
9.254179998,1.52192159093652,-2.7390880084809885,-1.377638936867572
9.258934217,1.4053055442932194,-2.735107272002442,-1.5658914321349797
9.263688436,1.2669456024419692,-2.7183964137225085,-1.7391362827812793
9.268442655,1.1102571960928131,-2.6904746949366465,-1.8961180285041932
9.273196873,0.9389746557219065,-2.6530021727137516,-2.0358277420815902
9.277951092,0.7570657281738955,-2.6077314828989167,-2.157505525234532
9.282705311,0.568641504988253,-2.5564580683017226,-2.2606404464666934
9.287459478,0.377864024119935,-2.5009702758537826,-2.3449680206892225
9.292213696,0.18885381874633986,-2.4430007065445967,-2.410465226793182
9.296967915,0.005599635361187927,-2.384180115505528,-2.457342964977114
9.301722134,-0.16812756397223783,-2.325995031530871,-2.4860357856456115
9.306476353,-0.3288543564355475,-2.269750102191304,-2.4971886889591492
9.311230571,-0.4734766093173299,-2.216535983536065,-2.491640808429059
9.31598479,-0.5993216968993819,-2.1672033963262134,-2.4704058586394195
9.320739009,-0.7041999086296767,-2.1223437773868215,-2.4346493454921445
9.325493228,-0.7864440455222953,-2.0822767751887876,-2.3856626997992856
9.330247446,-0.8449364842464598,-2.047044678417304,-2.324834687826759
9.335001665,-0.8791232783819816,-2.016413725314499,-2.2536206566361257
9.339755884,-0.8890151607235899,-1.989882116759541,-2.17351036544523
9.34451005,-0.8751756048017115,-1.9666944426398922,-2.0859953138455425
9.349264269,-0.8386963921943056,-1.9458621244645613,-1.9925365840685472
9.354018488,-0.7811614083545761,-1.9261893743231335,-1.8945342549811557
9.358772707,-0.7045996468478734,-1.906304070809316,-1.7932994156603137
9.363526925,-0.6114286340464274,-1.8846928584407971,-1.690029708699658
9.368281144,-0.5043896897179039,-1.8597396912494122,-1.5857891756115001
9.373035363,-0.3864766123391863,-1.8297669656582793,-1.4814929719031502
9.377789582,-0.2608595209150199,-1.7930783238314978,-1.3778972859997938
9.3825438,-0.13080569540816472,-1.7480021582527174,-1.2755945550073609
9.387298019,0.0004006694371328374,-1.6929348147882881,-1.1750138402515973
9.392052238,0.1295378535268705,-1.6263824795874617,-1.0764260212831405
9.396806457,0.25352322110034115,-1.5470007491852802,-0.9799533002388896
9.401560675,0.36948519838340466,-1.4536309255158755,-0.8855823888904473
9.406314894,0.4748288876126489,-1.345332148842758,-0.7931806838677588
9.411069061,0.5672937559805523,-1.221408581442439,-0.7025147182734841
9.415823332,0.6450020553892296,-1.0814309809364582,-0.6132701983449884
9.420577498,0.7064968862165805,-0.9252521492084802,-0.5250729771524885
9.425331717,0.7507691040856846,-0.7530159038074956,-0.43751037169080464
9.430085936,0.7772725714388156,-0.5651593872106077,-0.35015228702395657
9.434840155,0.7859275668169998,-0.36240870090831623,-0.26257166473748933
9.439594373,0.7771124763394901,-0.1457680230975689,-0.17436381846518667
9.444348592,0.7516441949605376,0.08349746220118451,-0.08516425840550101
9.449102811,0.710747950836628,0.3238843351532177,0.0053353525798614625
9.45385703,0.6560175282961839,0.5736787717311737,0.09737341812803137
9.458611248,0.5893670994067115,0.830988670858767,0.1911070455263377
9.463365467,0.5129760769848692,1.09377920555195,0.2866032674052384
9.468119686,0.4292285673177865,1.3599108459685658,0.383832931210104
9.472873905,0.34064912121929125,1.6271788487254533,0.4826672558051225
9.477628123,0.24983655064501287,1.8933531837201099,0.5828769760923669
9.482382342,0.15939759261700392,2.1562178798370795,0.6841339280106815
9.487136509,0.07188216475771951,2.4136088144912056,0.7860148723550714
9.491890728,-0.010278128919368391,2.6634490458957463,0.8880073211147083
9.496644946,-0.08482671397556342,2.9037808861284455,0.989517114997807
9.501399165,-0.14973262875063795,3.1327940331859634,1.0898774998993574
9.506153384,-0.2032338333623278,3.348849219584975,1.1883594564667246
9.510907603,-0.2438723484233411,3.5504969921030787,1.2841830493042437
9.515661821,-0.2705205939309544,3.7364914062696877,1.3765295840163574
9.52041604,-0.2823985760894716,3.9057985907599373,1.464554390776659
9.525170259,-0.27908185016243076,4.057600302141511,1.5474000826553875
9.529924478,-0.260500462103939,4.191292743868259,1.6242101507952338
9.534678696,-0.22692932879527541,4.3064810613137565,1.6941427472703785
9.539432915,-0.17897074415730285,4.4029700433104395,1.756384472913334
9.544187134,-0.11752988643334446,4.480751655017301,1.8101639458183185
9.548941353,-0.04378434263174462,4.539990089488021,1.8547648961984922
9.553695571,0.040851244960392406,4.581005047623314,1.889538531348121
9.55844979,0.13476426561794255,4.60425393352378,1.9139149457135947
9.563203957,0.23618581589459425,4.6103135877212535,1.9274134047111575
9.567958175,0.3432338472711244,4.5998620853631484,1.929651385261852
9.572712394,0.4539567132840957,4.573661015366474,1.9203522913742217
9.577466613,0.5663760994339174,4.532538544749626,1.8993517731286913
9.582220832,0.6785283858804751,4.477373471433975,1.8666025709279177
9.58697505,0.788503573801619,4.409080386340155,1.8221778013971275
9.591729269,0.8944810046049916,4.328596005402715,1.7662726139089897
9.596483488,0.9947612174875787,4.236866694763167,1.6992041857731872
9.601237707,1.0877934219559913,4.134837195705843,1.621410084117154
9.605991925,1.1721982020230675,4.02344055566643,1.5334450848740053
9.610746144,1.2467852118119256,3.903589282394587,1.4359765819900399
9.615500363,1.3105657641441437,3.776167754026472,1.3297787302905453
9.620254582,1.3627603525704046,3.6420259324956845,1.2157254473970864
9.625008748,1.4028012817928894,3.5019744364079006,1.0947823708628766
9.629762967,1.4303307079786034,3.3567810288148223,0.9679978457212707
9.634517186,1.4451945024983215,3.2071685635932003,0.836493015588093
9.639271405,1.4474324421288138,3.0538144112486507,0.7014511045631204
9.644025623,1.437265289417971,2.8973513518351734,0.5641059954891131
9.648779842,1.4150793568049451,2.7383698807492607,0.4257302210445696
9.653534061,1.381409150001733,2.577421824149218,0.2876224836033137
9.65828828,1.336918665653664,2.415025106665899,0.1510948115333166
9.663042498,1.2823818814132815,2.2516694573501876,0.01745945065466718
9.667796717,1.2186629283561088,2.0878227837358434,-0.11198441493358027
9.672550936,1.1466963799120689,1.9239378929527267,-0.2359640187879225
9.677305103,1.0674680312876388,1.7604591982288034,-0.35324635227823864
9.682059321,0.9819964825653567,1.5978290236108033,-0.462651402976766
9.68681354,0.8913157825772006,1.4364931123233524,-0.5630652143487614
9.691567759,0.7964593443937045,1.2769049557114613,-0.6534526935166823
9.696321978,0.6984453088806533,1.1195285894115643,-0.7328700876369193
9.701076196,0.5982635074943842,0.9648395501148921,-0.8004770377055858
9.705830415,0.49686415289762975,0.8133237493887785,-0.8555481122265207
9.710584634,0.3951483592565371,0.6654741003006315,-0.8974837312179998
9.715338853,0.293960559484788,0.5217848273709836,-0.9258204128170989
9.720093071,0.19408284527367206,0.3827434985155981,-0.9402402971393412
9.72484729,0.09623121222373056,0.24882093475925837,-0.940579905582029
9.729601457,0.0010536521014544132,0.12045927290883345,-0.9268380643260495
9.734355675,-0.09087000005372349,-0.001941430011651197,-0.8991828583460356
9.739109894,-0.1790265857028942,-0.11803756151381632,-0.8579574004488785
9.743864113,-0.26296665964380495,-0.2275567173146249,-0.8036841189395771
9.748618332,-0.34230022519753667,-0.330312235029412,-0.7370672061800713
9.75337255,-0.4166913841582914,-0.42621683477689304,-0.6589928403630594
9.758126769,-0.4858521559661101,-0.5152946940957895,-0.5705267972048896
9.762880988,-0.5495357582926075,-0.5976912996927833,-0.47290910315877505
9.767635207,-0.6075296734699388,-0.6736804589916745,-0.3675454417011276
9.772389425,-0.6596488465271169,-0.7436679213273937,-0.2559951062356908
9.777143592,-0.7057293677205007,-0.8081911517694909,-0.13995539671377852
9.781897811,-0.7456229840694792,-0.8679149183527679,-0.02124248094994494
9.78665203,-0.7791927591750233,-0.9236224937857679,0.09823112043591128
9.791406248,-0.8063101566576334,-0.9762024325664447,0.2164821278553426
9.796160467,-0.826853759885556,-1.0266310585960776,0.331484755855766
9.800914686,-0.8407097632890183,-1.075950978201552,0.4412011153744531
9.805668905,-0.8477742856312996,-1.1252461075642326,0.5436132014951606
9.810423123,-0.8479574701705834,-1.1756138598956172,0.6367558824448102
9.815177342,-0.8411892554333422,-1.2281352659866176,0.7187503067574051
9.819931561,-0.82742662614966,-1.283843894786071,0.787837154992253
9.824685728,-0.8066620888412414,-1.3436944946541656,0.8424091685440097
9.829439946,-0.7789330624395695,-1.4085322901137896,0.8810423851205175
9.834194165,-0.7443318330571793,-1.479063844717194,0.9025255005779684
9.838948384,-0.7030156957299487,-1.555830341195833,0.9058867687421823
9.843702603,-0.6552168958782212,-1.639184040588586,0.8904178547642073
9.848456821,-0.6012519885401186,-1.7292685701770754,0.8556940797239116
9.85321104,-0.5415302513241669,-1.826003564798002,0.8015905354718681
9.857965259,-0.47656081395767774,-1.929074056296061,0.7282936067252657
9.862719478,-0.4069581987493908,-2.0379248798893235,0.6363075093495532
9.867473696,-0.333445996201186,-2.151760251803552,0.5264555374632479
9.872227863,-0.25685842317701507,-2.2695485751047584,0.3998758061304873
9.876982082,-0.17813952691795534,-2.3900324514472793,0.2580113798692048
9.8817363,-0.09833981102832172,-2.511743813179776,0.10259478893227535
9.886490519,-0.018610074593486233,-2.6330240390577915,-0.06437294574863563
9.891244738,0.0598077228139524,-2.7520488724945875,-0.24064853331390904
9.895998957,0.1355927238555478,-2.866857916484429,-0.4237775059898036
9.900753175,0.20736066475669823,-2.9753884256517664,-0.6111296855083999
9.905507394,0.27368261990056536,-3.0755130471049372,-0.7999384089930477
9.910261613,0.33310692715008716,-3.165081076163039,-0.9873428043011195
9.915015832,0.3841841108140611,-3.241962692385152,-1.1704323346313266
9.919769998,0.42549450223450463,-3.3040955287084626,-1.3462927914852774
9.924524217,0.4556781383393229,-3.3495328056743854,-1.5120529039059856
9.929278436,0.4734663988455105,-3.376492139267729,-1.6649307473391497
9.934032655,0.47771472724676095,-3.383404012387717,-1.802279172499019
9.938786873,0.4674356744724675,-3.36895879462698,-1.9216295276747692
9.943541092,0.44183141236238044,-3.3321511104015626,-2.020733011715142
9.948295311,0.40032479352975625,-3.2723202989483435,-2.0975990644857525
9.95304953,0.342587994513447,-3.1891856896928137,-2.1505302714238193
9.957803748,0.2685677795250247,-3.0828754406278276,-2.1781533223775633
9.962557967,0.17850646480684101,-2.953947758637077,-2.179445615523085
9.967312134,0.07295774344089258,-2.803403437326054,-2.153757130479954
9.972066353,-0.04720335927510277,-2.63268880761947,-2.100827211069656
9.976820571,-0.1807769938325706,-2.4436883990709193,-2.02079590281017
9.98157479,-0.3262418959996055,-2.238706854937806,-1.914209492881556
9.986329009,-0.4817659697544068,-2.020439926355094,-1.7820199135395274
9.991083228,-0.6452241508807617,-1.7919346796863624,-1.6255777068160977
9.995837446,-0.8142235039110386,-1.5565393733589843,-1.4466183188860375
10.00059166,-0.9861353629086483,-1.3178437850148648,-1.2472416012123237
10.00534588,-1.1581341927650741,-1.0796110882296073,-1.029884540981431
10.0101001,-1.3272427164955738,-0.8457026820521563,-0.797287418804078
10.01485427,-1.4903827209818568,-0.6199976554450299,-0.5524537865690032
10.01960849,-1.6444308154582188,-0.4063088098161636,-0.29860485906151757
10.02436271,-1.7862782715094467,-0.20829735414604728,-0.03912910479843039
10.02911692,-1.9128939207346698,-0.029388518569883133,0.22247200858783084
10.03387114,-2.021388931009158,0.12730960424736595,0.48264102078272214
10.03862536,-2.1090821330531493,0.2590816907488914,0.7378230427721033
10.04337958,-2.1735644367688973,0.3636730791172257,0.9845246245479146
10.0481338,-2.2127607725885574,0.43934787562652194,1.2193716555648324
10.05288802,-2.2249879263570422,0.4849354668261372,1.4391650515214636
10.05764224,-2.209006614363782,0.49986393697912707,1.6409330444601435
10.06239641,-2.1640661734492275,0.4841792550847586,1.821978990761918
10.06715062,-2.089940323618955,0.4385495047132038,1.979923737071141
10.07190484,-1.986952599824189,0.364253866469459,2.112741729988307
10.07665906,-1.8559902459503448,0.2631565090798466,2.2187902134657995
10.08141328,-1.6985056149612714,0.1376659824662468,2.2968310211762644
10.0861675,-1.5165044183066827,-0.009318882053050388,2.3460446354082434
10.09092172,-1.3125205062122078,-0.17447518700370576,2.3660363482769067
10.09567594,-1.0895772288614678,-0.3541325998229798,2.356834526176691
10.10043016,-0.8511358169354974,-0.5443584351215734,2.3188811453226243
10.10518432,-0.6010316160809753,-0.7410490185330725,2.2530149342586716
10.10993854,-0.3433993976465203,-0.940025016852476,2.1604476252999008
10.11469276,-0.08258933056094309,-1.137128330407687,2.0427339750788347
10.11944698,0.1769244776880229,-1.3283181099744332,1.9017363562437084
10.1242012,0.4306406893896095,-1.5097634816220469,1.7395848389469173
10.12895542,0.674130294815701,-1.677930639207779,1.5586337655752804
10.13370963,0.9031364632559139,-1.8296620962678192,1.3614158733270358
10.13846385,1.1136720379053202,-1.9622460761691438,1.1505950393599482
10.14321807,1.3021120072861674,-2.0734742593175524,0.9289187174341061
10.14797229,1.4652783505194105,-2.1616863948686205,0.6991711082041365
10.15272646,1.600514809144779,-2.225800616161858,0.46412806015334035
10.15748068,1.7057493874583403,-2.2653286674433617,0.22651463367698654
10.16223489,1.77954272310408,-2.280375647036792,-0.011033826874840962
10.16698911,1.8211208893169986,-2.2716242905080963,-0.24600638383585838
10.17174333,1.830391672223164,-2.2403042464482006,-0.476046375596006
10.17649755,1.8079438873984244,-2.1881472251747005,-0.6989760539878175
10.18125177,1.7550298315674908,-2.117329312615267,-0.9128157732867643
10.18600599,1.673531478705276,-2.030402121614256,-1.115797719468031
10.19076021,1.5659114984774067,-1.9302147840166752,-1.3063743712210958
10.19551437,1.4351505781763252,-1.8198290538014297,-1.4832220706108763
10.20026859,1.2846728538088683,-1.7024299824213984,-1.6452402372752226
10.20502281,1.11826149913259,-1.5812347351072034,-1.7915468741785154
10.20977703,0.939966692576366,-1.45940213865013,-1.9214710773293968
10.21453125,0.7540082963034216,-1.339945488313032,-2.034543272850395
10.21928547,0.5646756504505077,-1.2256509982660742,-2.1304838641843893
10.22403969,0.37622691269102027,-1.1190040646922466,-2.209190888254156
10.2287939,0.19279035859600663,-1.0221252370872078,-2.2707271649686747
10.23354812,0.01827000015426675,-0.9367174773304143,-2.3153072938118875
10.23830234,-0.1437422252850753,-0.8640259411003051,-2.343284717677614
10.24305656,-0.290045599181991,-0.8048111512216041,-2.355138949719607
10.24781073,-0.41789920898945065,-0.7593360552756293,-2.351462954188396
10.25256495,-0.525078340698939,-0.727367078208493,-2.332950593927858
10.25731916,-0.6099173328044277,-0.7081889016280631,-2.300384007216612
10.26207338,-0.6713378805616943,-0.7006323301320225,-2.254620752802763
10.2668276,-0.7088621499809616,-0.7031142461757671,-2.1965805616681413
10.27158182,-0.7226104643789414,-0.7136883151678506,-2.1272315573793565
10.27633604,-0.7132837517503856,-0.7301047910064813,-2.047575857067435
10.28109026,-0.6821313731221404,-0.7498775012888362,-1.9586345452759923
10.28584448,-0.6309053727618037,-0.7703558748933551,-1.8614321210900806
10.2905987,-0.5618025832305221,-0.788799726812784,-1.7569806445443035
10.29535292,-0.47739636548524583,-0.802454448891175,-1.646263933774949
10.30010708,-0.38056005097534057,-0.8086242801060096,-1.5302222711152975
10.3048613,-0.2743843650213643,-0.8047414503865012,-1.4097381508637739
10.30961552,-0.16209123973946515,-0.7884292047786589,-1.2856236376680097
10.31436974,-0.04694646876051067,-0.7575570103241348,-1.1586099006266168
10.31912396,0.0678263807879327,-0.7102866110813099,-1.0293394422728308
10.32387818,0.1791284940595581,-0.645108007435595,-0.898361450928491
10.32863239,0.2840626423495997,-0.5608648705975346,-0.7661305722203041
10.33338661,0.38000242481007235,-0.45676933701934275,-0.6330092342920834
10.33814083,0.464652290651691,-0.3324065375404008,-0.49927349201317406
10.34289505,0.5360970213308225,-0.18772958352152513,-0.3651221954676266
10.34764922,0.5928396832788574,-0.02304604158096555,-0.23068914464295345
10.35240344,0.6338274047895393,0.16100283280607677,-0.09605776623633384
10.35715766,0.658464674014437,0.3634686730176696,0.03872225983849606
10.36191187,0.6666141920660655,0.583126882264207,0.17361708470830484
10.36666609,0.658585643698458,0.8185103092983931,0.3085902089366609
10.37142031,0.6351130639192886,1.0679442805014163,0.4435841888795298
10.37617453,0.5973217733528459,1.3295816825515534,0.5785032735732661
10.38092875,0.5466861179614014,1.6014369747918973,0.7131976551408725
10.38568297,0.48497947262338503,1.8814182345011725,0.8474499106706712
10.39043719,0.4142181484524087,2.167356585863846,0.9809640786884963
10.3951914,0.33660097518806115,2.457032618513478,1.113357672299955
10.39994562,0.2544464053537801,2.7481996489526894,1.2441568054720782
10.40469984,0.17012900035207854,3.038603903784056,1.3727945104185557
10.40945401,0.08601710882658274,3.32600189476042,1.4986122524578755
10.41420823,0.004413436546133694,3.6081754022741346,1.6208645954747685
10.41896245,-0.07249996217920396,3.882944580665664,1.73872692466662
10.42371666,-0.14271096353670112,4.148179745028859,1.8513060832601107
10.42847088,-0.20441987826318775,4.401812397671382,1.9576537196495847
10.4332251,-0.25607441918192014,4.6418460076884696,2.056782069570243
10.43797932,-0.29639665532289977,4.866366976220004,2.1476818193496845
10.44273354,-0.32440174480997364,5.073556112237753,2.229341620439599
10.44748776,-0.33940848263142304,5.261700818918786,2.300768761881451
10.45224198,-0.3410419156186,5.429208057565636,2.361010461383334
10.4569962,-0.32922846808625245,5.574618023299419,2.409175207552795
10.46175036,-0.30418419059118496,5.696618343831541,2.444453574601426
10.46650458,-0.26639689017354373,5.794058508739824,2.4661379391361846
10.4712588,-0.21660301886608732,5.865964159349253,2.473640563420005
10.47601302,-0.15576028417283594,5.911550823602375,2.4665095772352332
10.48076724,-0.08501699972710813,5.930236668076058,2.444442490657631
10.48552146,-0.0056792180185512905,5.921653858328377,2.407296991761328
10.49027568,0.08082331861768006,5.885658162767852,2.3550989078700115
10.49502989,0.17297140784615117,5.822336495598908,2.288047316333218
10.49978411,0.26918986325218297,5.732012162446397,2.2065168659080925
10.50453833,0.3678793993599849,5.615247640851163,2.111057407467617
10.50929255,0.4674462172451278,5.47284479171794,2.002391039161106
10.51404672,0.5663287377526477,5.305842453374138,1.881406660871248
10.51880094,0.6630211046341039,5.115511414820235,1.7491521219199202
10.52355516,0.7560932641381015,4.903346797698744,1.6068240459147871
10.52830937,0.8442076076481817,4.671057897029305,1.4557554320395707
10.53306359,0.9261323268127603,4.420555539417812,1.2974011620035137
10.53781781,1.0007517650328406,4.153937016467094,1.1333215818035554
10.54257203,1.0670741463285245,3.8734686448612754,0.9651643709468036
10.54732625,1.1242371159155535,3.5815659988388013,0.7946449512340065
10.55208047,1.1715115326703007,3.2807718609502974,0.6235257150955841
10.55683469,1.2083039135293936,2.973731946992492,0.4535943650020385
10.5615889,1.234157852134754,2.6631684829694233,0.2866416517435072
10.56634307,1.2487546329104837,2.3518517463994084,0.12443878770278707
10.57109729,1.251913153285601,2.0425697302157517,-0.03128519917485247
10.57585151,1.243589164571396,1.738096142555105,-0.17886590847584033
10.58060573,1.22387375561805,1.4411570168193624,-0.3167255408092832
10.58535995,1.192990939361094,1.154396270264011,-0.4433941240869257
10.59011417,1.1512941653682358,0.880340612800156,-0.5575296998745528
10.59486838,1.0992615734764735,0.6213642675340546,-0.657937162896107
10.5996226,1.0374898225873574,0.3796540176383365,-0.7435854428085895
10.60437682,0.9666863695857684,0.15717513763650562,-0.8136227345406436
10.60913104,0.8876601308161189,-0.0443612006779015,-0.8673895276230652
10.61388521,0.8013105287800282,-0.22352843701142777,-0.9044292508907852
10.61863943,0.7086150064532566,-0.3792124259120063,-0.9244964212391429
10.62339364,0.6106151761202696,-0.5106359153701564,-0.9275622463310013
10.62814786,0.5084018522188641,-0.6173790923319846,-0.913817671578571
10.63290208,0.40309929109363385,-0.6993956086585055,-0.8836738824197372
10.6376563,0.29584901841106626,-0.757023535092009,-0.8377602810632749
10.64241052,0.18779366266196498,-0.7909907381380291,-0.7769199598539301
10.64716474,0.0800612280698043,-0.8024142364716869,-0.7022026961341118
10.6519189,-0.026249768395301833,-0.7927931705385335,-0.6148554981319634
10.65667312,-0.1300839027401172,-0.7639951122863534,-0.5163107375072655
10.66142734,-0.23044085212282592,-0.718235551828111,-0.40817190986652585
10.66618156,-0.3263855368028394,-0.6580505239567767,-0.2921970693427448
10.67093578,-0.41705621442420593,-0.5862624782532379,-0.17027999030802612
10.67569,-0.5016704448571524,-0.5059396490986627,-0.04442912448457683
10.68044422,-0.5795289519597571,-0.42034934252101935,0.08325554925188125
10.68519844,-0.650017519577129,-0.33290572142978747,0.21060764124916692
10.68995266,-0.7126071656827405,-0.24711283452934918,0.3354212393832706
10.69470687,-0.7668529323107675,-0.1665037912037139,0.4554793219145011
10.69946104,-0.8123917003278622,-0.09457712896906509,0.5685834018804594
10.70421526,-0.8489394789617679,-0.03473154601838693,0.6725840733300998
10.70896948,-0.8762886266807483,0.00979972663807337,0.7654120971603162
10.7137237,-0.8943054333442128,0.03601356594281174,0.8451096282118128
10.71847792,-0.902928435932315,0.04119922266832031,0.9098611407437321
10.72323213,-0.9021677542677595,0.022996819257990596,0.9580235592854257
10.72798635,-0.8921056235496848,-0.020549282363682912,0.988155056803205
10.73274057,-0.8728981751538623,-0.09094353644302391,0.9990419552137255
10.73749474,-0.844778385991423,-0.18919988032912607,0.989723163339496
10.74224896,-0.8080599893950355,-0.3158110599825139,0.9595116153660614
10.74700318,-0.7631420255801276,-0.47072748918542345,0.9080122224973665
10.75175739,-0.710513615368837,-0.6533463171442677,0.8351359119052106
10.75651161,-0.6507584745308336,-0.8625111541812116,0.7411093906942374
10.76126583,-0.5845586532137235,-1.0965226607046727,0.6264803323940197
10.76602005,-0.5126969884644114,-1.3531599473140534,0.492117738405787
10.77077427,-0.43605779814435824,-1.6297124716548106,0.3392072810696287
10.77552849,-0.3556254173904356,-1.92302185978782,0.16924149703048244
10.78028266,-0.27248027374096756,-2.229532837126003,-0.01599522064710452
10.78503687,-0.1877923004164132,-2.5453522372872532,-0.21444677858800107
10.78979109,-0.10281158762494233,-2.8663148754429217,-0.4238105050524869
10.79454531,-0.0188562633764077,-3.1880549314669975,-0.6415669093218941
10.79929953,0.0627023218325188,-3.5060813887774698,-0.8650136012399647
10.80405375,0.14045695355985416,-3.815856014450822,-1.091302757324652
10.80880797,0.2129842226097449,-4.112872339763866,-1.3174814097921785
10.81356219,0.2788661893468575,-4.392734102663185,-1.5405337604573326
10.81831635,0.336713645442453,-4.651231641946102,-1.7574246868785055
10.82307057,0.3851905035173996,-4.884414787538071,-1.965143611970746
10.82782479,0.42303879441029146,-5.088660874966739,-2.1607479448340867
10.83257901,0.4491037286658717,-5.260736627821682,-2.3414053609785133
10.83733323,0.46235828200339146,-5.397852799983051,-2.504434264675032
10.84208745,0.461926785748848,-5.497710646275611,-2.647341856665101
10.84684167,0.44710703203408814,-5.5585394896701805,-2.767859312684462
10.85159588,0.41739043265501063,-5.579124868489261,-2.8639736618704936
10.85635005,0.3724797981053242,-5.558826972502407,-2.9339560399305347
10.86110427,0.31230433158183196,-5.497589305562424,-2.976386078229429
10.86585849,0.23703146439335243,-5.395937733928734,-2.990172271043508
10.87061271,0.1470751962957666,-5.254970279887594,-2.974568231711093
10.87536692,0.04310064915914563,-5.076338186758683,-2.929184798391129
10.88012114,-0.07397540229311479,-4.862218905046454,-2.853997978826263
10.88487536,-0.20298819192848588,-4.615281726738223,-2.749352731447635
10.88962958,-0.34253290858821694,-4.338646827173989,-2.615962571294548
10.8943838,-0.4909769398474682,-4.035838468196337,-2.454904970511154
10.89913797,-0.6464763484141159,-3.710733083695874,-2.267612503455882
10.90389219,-0.8069964473208329,-3.3675029236920095,-2.0558596747260713
10.9086464,-0.9703362795356784,-3.0105558912591404,-1.8217453724168313
10.91340062,-1.1341567523007892,-2.644472181937759,-1.5676709148896124
10.91815484,-1.2960121229403119,-2.2739383377791165,-1.2963137119337356
10.92290906,-1.4533844810425702,-1.9036793620691888,-1.0105966424827013
10.92766328,-1.603720824758502,-1.5383896042175427,-0.7136533584397756
10.9324175,-1.7444722887036406,-1.182663210874924,-0.4087898506019336
10.93717167,-1.8731350462706382,-0.8409250400781633,-0.0994427487001397
10.94192588,-1.9872923751102076,-0.5173630397799964,0.2108650370641017
10.9466801,-2.084657334828228,-0.21586318930594195,0.5185706020108751
10.95143432,-2.1631154561716888,0.06005181957270778,0.8201184294369686
10.95618854,-2.2207667810651817,0.30727893749789437,1.112007972507426
10.96094276,-2.2559665272258993,0.5231849162860991,1.3908405138262352
10.96569698,-2.2673635866715687,0.7056490791048322,1.653364399515139
10.97045114,-2.2539360113530256,0.8530975994229817,1.8965178038562573
10.97520536,-2.2150225973754147,0.9645283253937009,2.1174682744521434
10.97995958,-2.1503496566404094,1.0395253703681668,2.3136484283664194
10.9847138,-2.060052065554885,1.078262911098057,2.4827873071063697
10.98946802,-1.944687709281283,1.0814978829891904,2.622937042025085
10.99422224,-1.8052445019648884,1.0505515259786073,2.7324946219442436
10.99897646,-1.643139263239294,0.9872800048413757,2.810218683547869
11.00373068,-1.4602078717107028,0.8940345945562155,2.855241356225208
11.00848489,-1.2586862961976553,0.7736121771550432,2.8670752823303656
11.01323906,-1.0411823210657756,0.6291970355193954,2.8456159995408923
11.01799328,-0.8106380264950764,0.4642951471172198,2.7911399148707168
11.0227475,-0.5702833497890278,0.2826623722245436,2.7042981223729514
11.02750172,-0.3235813306648395,0.0882280926138479,2.586106322225437
11.03225594,-0.07416592216918372,-0.11498401572538743,2.437931092215536
11.03701016,0.17422648037690697,-0.3229363023053552,2.2614727486622788
11.04176437,0.4178303871234898,-0.5316567324527437,2.058745017388244
11.04651854,0.652927807864369,-0.7373159235585577,1.8320517203509494
11.05127276,0.8759262751469971,-0.9362998483347993,1.583960672112355
11.05602698,1.0834363387902959,-1.125276521988539,1.317274972556231
11.0607812,1.2723464901875188,-1.301255135416749,1.035001876821349
11.06553542,1.439893454428911,-1.4616362872007613,0.740319419061213
11.07028963,1.5837258379343622,-1.6042521966333894,0.436540963726498
11.07504385,1.7019592423979724,-1.727396040182589,0.12707785940718289
11.07979807,1.7932211515943761,-1.8298398368980522,-0.1845996186742635
11.08455224,1.8566841601612245,-1.910840607466538,-0.4950028232914856
11.08930646,1.8920864325516729,-1.9701348404893146,-0.8006665205010309
11.09406068,1.8997386423657363,-2.0079216108375197,-1.098191559533247
11.09881489,1.88051703163358,-2.024834999493467,-1.3842879776285406
11.10356911,1.8358426298814825,-2.02190675086,-1.6558179730486144
11.10832333,1.7676470677997622,-2.000520359714308,-1.9098380645397286
11.11307755,1.6783257952372979,-1.9623579941761133,-2.1436396596236786
11.11783177,1.570679854753344,-1.9093418243346547,-2.3547871908956894
11.12258599,1.447847658743,-1.8435714333931277,-2.54115295665429
11.12734016,1.3132284644767973,-1.767259038946812,-2.7009478214821
11.13209437,1.1703994402752202,-1.6826642514687422,-2.83274699159468
11.13684859,1.0230283748827815,-1.5920300540501924,-2.935510174060636
11.14160281,0.8747842041206606,-1.4975216098812503,-3.008595551990255
11.14635703,0.729247610761705,-1.4011693963708678,-3.0517671520347154
11.15111125,0.5898239896142615,-1.3048180293493974,-3.0651953367713243
11.15586547,0.45966105453936557,-1.2100819785742372,-3.0494503110703106
11.16061969,0.341573291195177,-1.1183091867351982,-3.005488676448662
11.16537385,0.23797532082953166,-1.0305533872155563,-2.9346331935924668
11.17012807,0.15082602942099738,-0.9475556698014322,-2.8385460222052306
11.17488229,0.08158503189450342,-0.8697355692683735,-2.7191958086176022
11.17963651,0.031182692238212368,-0.797191655727382,-2.5788190973462144
11.18439073,4.5248178955112594e-06,-0.7297113014571125,-2.4198766615949365
11.18914495,-0.012109620649774786,-0.6667890051548586,-2.245005481521588
11.19389917,-0.005851621978118456,-0.6076523895100737,-2.0569672439683866
11.19865338,0.017583141617006765,-0.5512947664486282,-1.858594384791266
11.2034076,0.05653742506779768,-0.49651299608083976,-1.6527348327433882
11.20816177,0.10894589410973958,-0.44194925554157277,-1.4421967274321972
11.21291599,0.17239942551674337,-0.3861352843657195,-1.2296944582604024
11.21767021,0.24421801417731057,-0.3275376829902456,-1.0177973940802076
11.22242442,0.3215301289835427,-0.2646029068066431,-0.8088826379970666
11.22717864,0.40135618135789847,-0.19580071334200794,-0.6050930498329938
11.23193286,0.48069366004797526,-0.11966497584557077,-0.408301637477393
11.23668708,0.5566014499466797,-0.03483096253068543,-0.22008323559433518
11.2414413,0.6262808969147163,0.05993161484491108,-0.04169417269246098
11.24619552,0.6871513061855443,0.16569026937169012,0.12593961577899926
11.25094969,0.7369177657399343,0.283326407260164,0.2822258275825177
11.2557039,0.7736294630436399,0.4135170919909446,0.426900444195959
11.26045812,0.7957270058957839,0.5567218371811006,0.5600140961189646
11.26521234,0.8020776512062274,0.713174226006794,0.6819106726993245
11.26996656,0.7919977682009594,0.8828780494185634,0.7931988988708655
11.27472078,0.765262292589368,1.0656075778644511,0.8947177576868802
11.279475,0.7221013463917646,1.2609115296055957,0.9874967638264376
11.28422922,0.6631845885407732,1.4681202710785013,1.0727121995219253
11.28898344,0.5895942105156536,1.686355779538259,1.1516405158061693
11.2937376,0.5027877884468381,1.9145439134086315,1.2256101734897482
11.29849182,0.40455244237007837,2.1514285682779413,1.2959532376209113
11.30324604,0.2969519337457871,2.3955873422762823,1.3639580359005268
11.30800026,0.1822684553630442,2.6454483895850442,1.430824143231619
11.31275448,0.06294093386056257,2.8993082014807645,1.4976208666553184
11.3175087,-0.0584983260351892,3.1553501170057867,1.565250286483858
11.32226292,-0.17948687397458787,3.4116634259425656,1.63441576921257
11.32701713,-0.2974935417770431,3.6662629809679803,1.7055967119239486
11.33177135,-0.4100765317316588,3.9171092801705205,1.7790301103067208
11.33652557,-0.5149368161880652,4.1621290131860835,1.854699366179271
11.34127979,-0.6099657169656831,4.399236082672348,1.9323305684929113
11.34603396,-0.6932857758073249,4.626353116795512,2.0113962970186954
11.35078818,-0.7632842847279704,4.841433476744398,2.0911268125736164
11.35554239,-0.8186391041400768,5.042483734400319,2.1705283134791356
11.36029661,-0.8583366443574829,5.2275865478505565,2.248407758100064
11.36505083,-0.881682115359333,5.394923797172923,2.3234035840727674
11.36980505,-0.8883023569737957,5.542799764316425,2.3940215029730103
11.37455927,-0.8781417411805619,5.669664057364381,2.458674417866385
11.37931349,-0.8514517818280226,5.774133901190109,2.515725401623555
11.38406766,-0.808775189222477,5.855015352373529,2.5635325898322145
11.38882187,-0.7509251685612055,5.91132295221466,2.6004947897036335
11.39357609,-0.6789607886494156,5.942297311350462,2.62509659052136
11.39833031,-0.5941592502842138,5.947420124793916,2.6359517842864357
11.40308453,-0.49798587029539104,5.9264261470871515,2.6318439665288462
11.40783875,-0.3920625707703913,5.879311711122033,2.6117632813004836
11.41259297,-0.2781356216910224,5.806339446691969,2.5749383913714934
11.41734719,-0.15804332544812177,5.708038941250106,2.520862885307837
11.42210141,-0.033684251325648125,5.585203181212605,2.449315473780655
11.42685562,0.09301347218252283,5.438880713184623,2.360373480777282
11.43160979,0.22012141518683895,5.270363566430929,2.254419305785706
11.43636401,0.3457383849347104,5.081171076984377,2.132139720881319
11.44111823,0.4680160915912209,4.873029847625109,1.9945180650042726
11.44587245,0.5851828820757577,4.6478501659912475,1.8428195938236445
11.45062667,0.6955655446612491,4.407699285703557,1.6785704242994905
11.45538088,0.7976092143426244,4.154772052689747,1.503530670271308
11.4601351,0.8898954071996393,3.891359429666549,1.3196624973693971
11.46488927,0.9711581897408575,3.6198155330019652,1.1290939336233579
11.46964349,1.040298454122367,3.3425238434518927,0.9340793567630684
11.47439771,1.0963962277627162,3.061863280768096,0.7369576385623909
11.47915192,1.1387209008172143,2.7801748383803444,0.5401089578000955
11.48390614,1.166739212006191,2.499729456810027,0.34591129435977913
11.48866036,1.1801207980555517,2.2226977736609643,0.1566975877242379
11.49341458,1.1787410909991236,1.951122325845958,-0.025285513390635547
11.4981688,1.1626813470275017,1.6868926990397424,-0.19791646242051855
11.50292302,1.1322256145274572,1.4317240238369762,-0.35923443656515425
11.50767719,1.087854498307472,1.1871391117512242,-0.5074711310418454
11.51243141,1.030235650101686,0.9544544110633584,-0.6410782165440728
11.51718562,0.9602110095383306,0.7347698467421767,-0.7587500893673826
11.52193984,0.8787809312270788,0.5289624948024074,-0.8594416841568945
11.52669406,0.7870854567490619,0.3376839347303849,-0.9423812505149504
11.53144828,0.6863831163012001,0.16136102942454292,-1.0070781105711621
11.5362025,0.5780277623644372,0.0001998055020813718,-1.0533255160047124
11.54095667,0.4634440358042644,-0.14580794818382667,-1.081198813986217
11.54571088,0.34410213429602926,-0.27687577704275373,-1.0910492129959646
11.5504651,0.2214925882663694,-0.39341177229306146,-1.0834935068512357
11.55521932,0.09710174850272764,-0.4960063016462229,-1.059400161380224
11.55997354,-0.02761134658398912,-0.5854186273499109,-1.0198721887810724
11.56472776,-0.15123612301063563,-0.6625627276426502,-0.9662272323265112
11.56948198,-0.2724291327852425,-0.7284925734424025,-0.8999752676254228
11.5742362,-0.3899298240484282,-0.7843870403383234,-0.822794306874676
11.57899042,-0.5025731402274349,-0.8315345611016978,-0.7365044763696539
11.58374458,-0.6092987983573442,-0.8713175503067455,-0.6430408257273967
11.5884988,-0.7091572300077741,-0.9051965648100164,-0.5444252162084574
11.59325302,-0.8013122996822928,-0.9346941060757976,-0.44273762022630875
11.59800724,-0.8850410405209957,-0.9613779255942427,-0.34008714039459537
11.60276146,-0.959730761935888,-0.9868436645744018,-0.2385830236366349
11.60751568,-1.0248739840243641,-1.0126966455302582,-0.14030591005943516
11.61226989,-1.0800617331986162,-1.0405326391619,-0.04727952978998949
11.61702406,-1.1249757860854541,-1.0719174581033843,0.03855694382215501
11.62177828,-1.1593804702000745,-1.1083652813542202,0.11537565445215281
11.6265325,-1.1831146194762643,-1.1513156891859735,0.18148566353547022
11.63128672,-1.196084242311849,-1.2021094861154316,0.23535706760449382
11.63604094,-1.1982563922638045,-1.2619635061059573,0.2756432642323054
11.64079516,-1.1896546405000374,-1.3319447248043141,0.3012009745413886
11.64554932,-1.1703564393721035,-1.4129441414635118,0.31110763457468943
11.65030354,-1.140492544170891,-1.5056510294811807,0.30467580127418503
11.65505776,-1.1002485322029167,-1.6105282793920463,0.28146427470884217
11.65981198,-1.0498683315574555,-1.7277896615353079,0.2412857064514903
11.6645662,-0.98965955244846,-1.8573799074664332,0.18421053588445563
11.66932042,-0.9200003072072299,-1.9989585405337775,0.1105671669849645
11.67407463,-0.8413471150252607,-2.151888370562759,0.020938367263393397
11.67882885,-0.7542434164643406,-2.315229502952217,-0.08384605967646686
11.68358302,-0.6593281708854443,-2.487739600079642,-0.20272020313202058
11.68833724,-0.5573439774155893,-2.6678809765400127,-0.3343963733468303
11.69309146,-0.4491441469102865,-2.853834915455186,-0.4773825469995234
11.69784568,-0.3356981571085396,-3.04352336962386,-0.6300025739399358
11.70259989,-0.21809494360025042,-3.2346379687036753,-0.7904187258592368
11.70735411,-0.09754351525435408,-3.4246760015027142,-0.9566561222778803
11.71210833,0.024629563486293776,-3.6109827905237473,-1.1266285464772854
11.71686255,0.14698620772546175,-3.790799635049505,-1.2981651660069102
11.72161672,0.2679866548200271,-3.9613162801036186,-1.4690376983426265
11.72637094,0.38600328912665577,-4.1197266816139,-1.6369876088282322
11.73112516,0.4993384887526785,-4.263286693623789,-1.7997529904114589
11.73587937,0.6062463888561443,-4.38937221126763,-1.955094846970595
11.74063359,0.7049583082838502,-4.4955362682566244,-2.100822577136669
11.74538781,0.7937114431767679,-4.579563609349635,-2.2348185260814244
11.75014203,0.8707803010785254,-4.639521335068366,-2.3550615323661486
11.7548962,0.9345102420615149,-4.673804345095406,-2.4596494403619666
11.75965042,0.9833524143562238,-4.681174479979369,-2.5468205716325936
11.76440463,1.0158993173365796,-4.660792463096724,-2.614974148892001
11.76915885,1.030920187693206,-4.612241960646964,-2.662689645652242
11.77391307,1.027395381701972,-4.5355452952553215,-2.6887449993502432
11.77866729,1.0045489174270232,-4.431170560550784,-2.6921335829795336
11.78342151,0.9618783448200642,-4.300030082765895,-2.6720797865417287
11.78817568,0.8991811269809079,-4.143470354080539,-2.62805301983883
11.79292989,0.8165767416304445,-3.963253715970692,-2.5597799155567973
11.79768411,0.7145237509577874,-3.7615321976237333,-2.4672544876296834
11.80243833,0.5938311458349905,-3.540814017199739,-2.3507459838954623
11.80719255,0.45566335153979715,-3.3039233386250206,-2.210804162789565
11.81194677,0.3015383876077255,-3.053953951958196,-2.048261721530871
11.81670099,0.13331880149026676,-2.7942176193524366,-1.8642336106109951
11.82145516,-0.04680486061293371,-2.5281879072596776,-1.6601129901930367
11.82620937,-0.2363381275931038,-2.2594404110682107,-1.4375636210407023
11.83096359,-0.4325141430101162,-1.9915903690820123,-1.198508536305534
11.83571781,-0.6323324284777171,-1.7282287537993655,-0.9451149089818797
11.84047203,-0.8326044654826175,-1.4728580133143834,-0.6797751094726515
11.84522625,-1.0300055263608447,-1.228828707247438,-0.4050840340912662
11.84998047,-1.2211320201257796,-0.9992783328064998,-0.12381287396302955
11.85473463,-1.4025634528360238,-0.7870736605460693,0.16112041976853386
11.85948885,-1.5709279372432878,-0.5947578897727251,0.44668363898159524
11.86424307,-1.7229700268229633,-0.424503884937062,0.7297653867560745
11.86899729,-1.855619501058407,-0.2780746628468736,1.0072122561685568
11.87375151,-1.9660595993026175,-0.1567921641635943,1.2758676321157105
11.87850573,-2.051793097600154,-0.061515161749067904,1.5326116126601765
11.88325995,-2.11070455459806,0.007373063743104678,1.774401543314858
11.88801411,-2.1411170266161315,0.04996690734739043,1.998312661296159
11.89276833,-2.1418415741420476,0.06683038956888757,2.2015783502799584
11.89752255,-2.1122179564204746,0.05897907172609501,2.381629503212117
11.90227677,-2.0521450393412017,0.027852424628322818,2.5361324767800792
11.90703099,-1.962099625727296,-0.024722592325008966,2.663025094776571
11.91178521,-1.8431426580309362,-0.09657575070840206,2.760550120581652
11.91653937,-1.6969120411995766,-0.1852443958386151,2.8272855770340417
11.92129359,-1.5256016818802836,-0.28802960895856206,2.862171255213542
11.92604781,-1.3319267263488193,-0.40205631175152057,2.8645307347868822
11.93080203,-1.11907538771237,-0.5243359109442218,2.8340882485298544
11.93555625,-0.89064816713818,-0.6518300939939516,2.7709797686913054
11.94031047,-0.6505856785447859,-0.7815144278049456,2.675757774656956
11.94506469,-0.4030866656448122,-0.9104404709799407,2.549389278557478
11.9498189,-0.15251813869569644,-1.035795178046523,2.393246834855051
11.95457307,0.09668015886665107,-1.154956446016421,2.2090924366542857
11.95932729,0.3400945284253377,-1.2655437275604007,1.999054398864352
11.96408151,0.5734367736026136,-1.3654627124352217,1.7655975381732263
11.96883573,0.7926417124799362,-1.452943163870723,1.5114871723425702
11.97358995,0.9939601429760928,-1.5265690955396494,1.2397476650157104
11.97834417,1.1740447645718994,-1.585300593909696,0.9536164239533274
11.98309838,1.3300267426630568,-1.6284867352049168,0.6564944072820103
11.98785255,1.4595808561999135,-1.655869218086539,0.35189429276697803
11.99260677,1.560977484543773,-1.6675765313589785,0.04338751160253022
11.99736099,1.6331200527184702,-1.6641086964353566,-0.265448661839363
12.00211521,1.675566951267758,-1.6463128607345827,-0.5710828356845227
12.00686943,1.6885373625678985,-1.6153502625193217,-0.8700790190306849
12.01162364,1.6729008444743338,-1.5726553301357582,-1.1591430469696067
12.01637786,1.6301509332760455,-1.5198879088255899,-1.4351651798692817
12.02113203,1.5623634262840989,-1.4588798163699284,-1.695258305390532
12.02588625,1.4721403865620004,-1.3915771056512127,-1.9367913310715885
12.03064047,1.3625412692253465,-1.3199795503511422,-2.1574175072361914
12.03539469,1.2370028891041782,-1.2460789656948092,-2.355097559270751
12.0401489,1.0992502293871773,-1.1717980296478665,-2.528117628887601
12.04490312,0.9532003327646378,-1.0989312824155462,-2.6751021184046317
12.04965734,0.802861719524084,-1.0290899517138765,-2.7950215937978222
12.05441156,0.6522319319458758,-0.9636521737367414,-2.887195929646816
12.05916573,0.5051958989461142,-0.9037200525252954,-2.951292877517385
12.06391995,0.3654278388630657,-0.8500848258480761,-2.9873222198224063
12.06867417,0.23629936423625944,-0.8032011894563778,-2.9956256467612894
12.07342838,0.12079631546790257,-0.7631715795897456,-2.9768624765457434
12.0781826,0.02144662794279904,-0.7297409299018104,-2.9319913384601177
12.08293682,-0.05973876803570878,-0.7023021073059447,-2.8622479617464256
12.08769104,-0.12131039323605902,-0.6799118990642721,-2.7691192661912707
12.09244526,-0.16240882552997943,-0.6613170832918883,-2.6543140351726793
12.09719943,-0.18277675674716912,-0.6449897820305787,-2.5197305662627096
12.10195364,-0.18275429466580564,-0.6291709854430163,-2.367421828117704
12.10670786,-0.1632578191215574,-0.6119208621916739,-2.199558786967285
12.11146208,-0.12574320650412688,-0.5911742482603782,-2.0183926781237016
12.1162163,-0.07215470785815987,-0.564799545934489,-1.8262170661835682
12.12097052,-0.0048611787555895725,-0.5306591751415046,-1.6253305509016973
12.12572474,0.07341830159431238,-0.4866697060213903,-1.418000937117529
12.1304789,0.15969712459965868,-0.43085986516707775,-1.2064316097284566
12.13523312,0.25080968021642575,-0.36142474363809607,-0.9927307538375416
12.13998734,0.34350312892955537,-0.27677473188833535,-0.778883948083975
12.14474156,0.43452978664107256,-0.17557795061590123,-0.566730543388552
12.14949578,0.5207375194974977,-0.05679522221995519,-0.35794412272418946
12.15425,0.5991556482883534,0.0802930789718026,-0.1540172199653559
12.15900422,0.6670740404554074,0.23606866210103666,0.043749640587311525
12.16375844,0.7221133154587482,0.4105655179843672,0.23425463009220987
12.16851266,0.7622843944635064,0.6034684930923295,0.4165971621017339
12.17326682,0.786035976263726,0.8141198197546592,0.5900765046598171
12.17802104,0.7922889067921332,1.0415329864572471,0.7541867140395244
12.18277526,0.7804568161556911,1.2844131731925073,0.908608188529155
12.18752948,0.7504528110039728,1.5411833563623902,1.053196172592466
12.1922837,0.7026824208018534,1.8100151050471134,1.1879665610228909
12.19703792,0.6380233962917387,2.0888630430043085,1.3130793591362264
12.20179213,0.557793335999101,2.3755019351046527,1.4288201522090682
12.20654635,0.4637064562315611,2.667565370161214,1.5355799303040665
12.21130052,0.3578211064824793,2.9625850524883734,1.6338336079173736
12.21605474,0.242479856437889,3.258029781005796,1.7241175768684847
12.22080896,0.12024413892722359,3.5513432864193226,1.8070066427680407
12.22556318,-0.006174478242840074,3.8399802120280015,1.8830907264344285
12.23031739,-0.1339843035269366,4.121439657545451,1.9529517618117136
12.23507161,-0.2603827883411953,4.393295850897237,2.0171412829447637
12.23982583,-0.3826231552670671,4.653225661788701,2.076159250015704
12.24458005,-0.4980766927454224,4.8990328141695,2.130434703296197
12.24933427,-0.6042892722198435,5.128668784515717,2.180308843741867
12.25408844,-0.6990309300987565,5.340250482818676,2.2260211155411134
12.25884266,-0.7803376613141493,5.532074899078871,2.267698808792026
12.26359687,-0.8465448770701625,5.702630957548026,2.3053506113528788
12.26835109,-0.8963122716977344,5.850608853071566,2.3388644216055794
12.27310531,-0.9286401102366071,5.974907149195354,2.3680095936589742
12.27785953,-0.9428771829166461,6.074637899203763,2.392443629524418
12.28261375,-0.9387208762143276,6.149130016029142,2.4117231674047006
12.28736797,-0.9162099875397932,6.197931075344979,2.425318952986874
12.29212219,-0.8757110625063346,6.22080769761563,2.4326343328232807
12.29687635,-0.8178991525582243,6.217744623721419,2.4330266823472493
12.30163057,-0.7437339646983439,6.188942572369095,2.425831079129798
12.30638479,-0.6544323955150649,6.134814938085617,2.4103854583563566
12.31113901,-0.5514384080849761,6.0559833480576755,2.386056446206472
12.31589323,-0.4363911312753956,5.953272041037582,2.352265058762425
12.32064745,-0.3110919525067521,5.827700965889985,2.308511476596456
12.32540167,-0.17747125620004833,5.680477431273253,2.2543981553416326
12.33015583,-0.03755534730534188,5.512986084408905,2.1896506085908003
12.33491005,0.1065659982642245,5.326776967744739,2.1141352980389594
12.33966427,0.25277099548914916,5.123551405520996,2.0278741787625476
12.34441849,0.39893603184046506,4.905145510666477,1.9310555629425397
12.34917271,0.5429643361764014,4.673511173881738,1.8240410720383302
12.35392693,0.6828129570611415,4.430694495016167,1.7073685396335276
12.35868114,0.8165179216736128,4.178811733526793,1.5817508061551984
12.36343536,0.9422174883783011,3.9200229810891303,1.4480704192943963
12.36818953,1.0581734384355848,3.6565038870487316,1.3073703287570064
12.37294375,1.162790372582142,3.390415888844106,1.1608407458490808
12.37769797,1.254632984093606,3.123875508027618,1.0098024257494762
12.38245219,1.3324412712035232,2.8589233623658097,0.8556867170591487
12.3872064,1.395143631376452,2.597493611481122,0.7000128026009296
12.39196062,1.4418677537336888,2.3413845947476926,0.5443626215118335
12.39671484,1.4719492007647719,2.092231433781416,0.39035401036258804
12.40146906,1.484937552602559,1.851481356718073,0.2396126281658703
12.40622323,1.480599981744762,1.6203724572818134,0.09374323965872233
12.41097745,1.4589221371307728,1.399916529171481,-0.04569906978290439
12.41573167,1.4201062462420573,1.19088651723248,-0.1772371786009483
12.42048588,1.3645663923280424,0.9938090037555739,-0.2994991477747399
12.4252401,1.292920988178801,0.8089620045454264,-0.41124381367264173
12.42999432,1.205982542792587,0.6363781899031863,-0.5113842080408671
12.43474849,1.1047448958526567,0.4758534765257582,-0.5990082893711762
12.43950271,0.9903681697889598,0.32696076475962177,-0.6733965272733804
12.44425693,0.8641617540343541,0.18906842925916587,-0.7340359669998282
12.44901114,0.7275656863607053,0.06136301715321616,-0.7806305091847968
12.45376536,0.5821308291099464,-0.05712452729233041,-0.8131072578242182
12.45851958,0.42949825228346367,-0.1674899036397294,-0.831618902512182
12.4632738,0.27137823042738635,-0.27092463718038495,-0.8365421966333692
12.46802802,0.1095292367065664,-0.3686843294447402,-0.8284726657070439
12.47278219,-0.054262722523928685,-0.4620569244471719,-0.8082157303745318
12.4775364,-0.21820414260045073,-0.5523319227337036,-0.7767744620611668
12.48229062,-0.3805131967951386,-0.6407714243921606,-0.7353342126092721
12.48704484,-0.5394378910898419,-0.7285837948295827,-0.6852443774474345
12.49179906,-0.6932730974261485,-0.8169006245144786,-0.6279975689022275
12.49655328,-0.8403764211163047,-0.9067574994702202,-0.5652064944995383
12.5013075,-0.9791829047129293,-0.9990789186236605,-0.4985788554861495
12.50606166,-1.108218607745617,-1.094667495122622,-0.42989060348206615
12.51081588,-1.226113129100743,-1.1941973723585408,-0.36095791855296455
12.5155701,-1.3316111561913413,-1.2982115845613562,-0.2936082996471198
12.52032432,-1.4235831328441637,-1.4071229090077386,-0.22965118458734862
12.52507854,-1.5010351369011792,-1.521217602769371,-0.17084853524775262
12.52983276,-1.56311804939716,-1.640661300366339,-0.11888582950281147
12.53458698,-1.609136079655499,-1.7655062767059233,-0.07534389533127028
12.53934114,-1.6385546845714762,-1.8956992565156061,-0.04167200776915582
12.54409536,-1.6510078868534923,-2.031088977723425,-0.019162649534234306
12.54884958,-1.6463049589827001,-2.1714327893819645,-0.00892831268707856
12.5536038,-1.624436400594186,-2.316401680247545,-0.011880692859815046
12.55835802,-1.5855790996600483,-2.4655832855479103,-0.028712601138685855
12.56311224,-1.5301005345578726,-2.6184825980614304,-0.05988289300083084
12.5678664,-1.4585618463219345,-2.774520305599497,-0.10560468820357774
12.57262062,-1.3717195873478332,-2.9330288813549585,-0.16583712739143291
12.57737484,-1.2705259322430815,-3.093246758030788,-0.2402808766884575
12.58212906,-1.1561271175394048,-3.254311112110079,-0.3283775479882703
12.58688328,-1.0298598609000231,-3.4152499615285192,-0.429313149626465
12.5916375,-0.8932454983114404,-3.5749744296498966,-0.542025621114543
12.59639172,-0.7479815701766546,-3.732272142145467,-0.6652164385360586
12.60114588,-0.5959305871146879,-3.8858027910619395,-0.7973662053927818
12.6059001,-0.43910571812252347,-4.034096912517782,-0.9367540682996192
12.61065432,-0.2796531693953557,-4.1755588758501565,-1.0814807196245058
12.61540854,-0.11983106056853753,-4.308474971750002,-1.2294946719322633
12.62016276,0.03801534202340005,-4.431027315883107,-1.3786214139563941
12.62491698,0.1914821027115335,-4.541314056297873,-1.526594987752173
12.6296712,0.3381387751106885,-4.637376097442185,-1.6710914664748475
12.63442536,0.4755640913257201,-4.717230246305444,-1.8097637676469185
12.63917958,0.6013848861803838,-4.778908363128062,-1.9402772125386623
12.6439338,0.7133177923232695,-4.82050177545256,-2.060345240739833
12.64868802,0.8092130547649643,-4.840209907374956,-2.1677647096626234
12.65344224,0.8870996213922026,-4.836391805203796,-2.260450247568418
12.65819646,0.9452304871307331,-4.807619022928075,-2.336467178226243
12.66295068,0.9821271182468546,-4.7527281765493115,-2.3940625871045134
12.66770484,0.9966216710228649,-4.670871392214634,-2.4316941476930922
12.67245906,0.9878956565428549,-4.561562863601336,-2.4480563709266523
12.67721328,0.9555136992490678,-4.424719798551128,-2.442103981485684
12.6819675,0.8994510940885447,-4.260696165882343,-2.4130721625838967
12.68672172,0.8201139834497627,-4.070307838958348,-2.3604934458446674
12.69147594,0.7183511475930846,-3.8548479624249006,-2.2842110546191874
12.6962301,0.5954566264673299,-3.6160916344712315,-2.1843885358837336
12.70098432,0.4531626571494618,-3.356289290633564,-2.061515534857968
12.70573854,0.2936227039983013,-3.0781484856851655,-1.916409576076148
12.71049276,0.11938465916462072,-2.7848040850445535,-1.7502137168265421
12.71524698,-0.06664541926194266,-2.479777184559484,-1.564389939600103
12.7200012,-0.261248401510039,-2.1669233683619034,-1.3607081574571915
12.72475542,-0.46094515844986633,-1.8503711832766083,-1.1412307275690523
12.72950958,-0.6620565765595771,-1.5344519529334713,-0.9082924087258977
12.7342638,-0.8607693410138155,-1.2236222754016872,-0.6644757599374643
12.73901802,-1.0532062097894037,-0.9223807454623225,-0.4125820574652054
12.74377224,-1.2354994288928145,-0.6351806161215181,-0.15559790229852413
12.74852646,-1.4038658896363692,-0.36634026143863907,0.10334220609361103
12.75328068,-1.5546825980200787,-0.11995342048584216,0.3609969460678041
12.75803484,-1.6845610094235095,0.10019871447465017,0.6140624095369536
12.76278906,-1.7904187763905368,0.2907314591213677,0.8592189052677658
12.76754328,-1.8695474631280442,0.4487345431634965,1.093179646988051
12.7722975,-1.9196747996999735,0.5718419099856094,1.3127405668692393
12.77705172,-1.9390200857299633,0.6582914668796199,1.5148304354666737
12.78180594,-1.926341412430795,0.7069730105867295,1.696560428841929
12.78656016,-1.8809734580411108,0.7174627814373868,1.8552722626819524
12.79131432,-1.802854730631825,0.6900433863158915,1.9885840098090817
12.79606854,-1.692543288234763,0.6257081689145847,2.0944327281582393
12.80082276,-1.5512201609468959,0.5261494855844909,2.171113048841232
12.80557698,-1.380679930964137,0.39373075602705887,2.217310908800323
12.8103312,-1.1833081896166315,0.23144258865217143,2.232131661940333
12.81508542,-0.9620458793749952,0.04284371773428961,2.215121868615025
12.81983963,-0.7203408367848656,-0.16801208011597243,2.166284147498714
12.8245938,-0.46208717206746236,-0.39666151224217194,2.086084577559135
12.82934802,-0.19155344498606663,-0.6383277824845813,1.975452261853401
12.83410224,0.08669908325306454,-0.888024797595824,1.8357708083540991
12.83885646,0.3679065338307161,-1.1406669925433508,1.6688616427977998
12.84361068,0.6471989538409282,-1.3911819808575736,1.476959239347858
12.84836489,0.9197011867392911,-1.634623091400625,1.262678530410654
12.85311906,1.1806357229799318,-1.8662787918895951,1.0289749318058647
12.85787328,1.4254250256328218,-2.0817760303628297,0.7790975907032227
12.8626275,1.6497907359028272,-2.277174653874738,0.5165366307451132
12.86738172,1.8498471543781079,-2.4490502899751134,0.24496533125707856
12.87213594,2.022186474460062,-2.594563396073695,-0.0318216673796454
12.87689016,2.1639534184448688,-2.7115125837659515,-0.3099728989065831
12.88164432,2.272907192095113,-2.7983707946429153,-0.5856459964760637
12.88639854,2.347469023062923,-2.8543034245050896,-0.8550735761725888
12.89115276,2.386753969594657,-2.879168047315299,-1.1146276114916518
12.89590698,2.390586159521307,-2.8734959605134716,-1.3608808481489558
12.9006612,2.3594971206218056,-2.8384563387270814,-1.5906638774619835
12.90541542,2.294707364051195,-2.7758043196817694,-1.8011166027195993
12.91016963,2.1980918556662408,-2.687814829082177,-1.98973298883152
12.9149238,2.072130433852749,-2.5772043574917634,-2.1543981731111237
12.91967802,1.9198445944932165,-2.447043215125192,-2.2934172266320703
12.92443224,1.744722363628051,-2.3006610014538587,-2.405535083289658
12.92918646,1.5506332241091811,-2.1415481345640983,-2.489947388361746
12.93394068,1.3417352623538696,-1.9732562948611247,-2.546302249383057
12.93869489,1.122376858271966,-1.7993005574046053,-2.5746930883159087
12.94344911,0.8969953535630828,-1.6230658278155543,-2.5756429854326144
12.94820328,0.6700151961025373,-1.447719970689684,-2.550081065626991
12.9529575,0.4457480654988186,-1.2761357399829854,-2.499311605804513
12.95771172,0.2282974324513253,-1.1108233013573432,-2.4249766417751393
12.96246594,0.021469890113252125,-0.9538747899043887,-2.3290129327091775
12.96722016,-0.1713045798847687,-0.8069219846721517,-2.2136042094904673
12.97197437,-0.34704147803215646,-0.6711078140835016,-2.0811296966828428
12.97672859,-0.5032581540755073,-0.5470720417597303,-1.9341099585569217
12.98148276,-0.6380163684227371,-0.434951126003503,-1.7751511756133944
12.98623698,-0.7499501238488854,-0.3343919012369227,-1.6068890047641726
12.9909912,-0.8382782511604172,-0.24457839742401868,-1.4319332098515294
12.99574542,-0.9028016578386739,-0.16427079541712553,-1.252814268167912
13.00049963,-0.9438855809341327,-0.09185521577249638,-1.071933163299302
13.00525385,-0.9624276138050325,-0.025402762969012022,-0.8915155624503143
13.01000802,-0.9598126888662779,0.03726399331087668,-0.7135715380398636
13.01476224,-0.9378565819467639,0.09849911115782195,-0.5398619131020177
13.01951646,-0.8987398430875201,0.16075808980712689,-0.37187217228023817
13.02427068,-0.8449343376945516,0.22652161784304042,-0.21079467684291273
13.02902489,-0.779124785145497,0.2982204669082924,-0.05751965547082331
13.03377911,-0.7041277947223862,0.3781636632205168,0.08736487585070342
13.03853333,-0.6228109107764895,0.4684719177197756,0.22356446182156053
13.04328755,-0.5380140888393016,0.5710180775242006,0.35106137543108873
13.04804172,-0.4524758404162942,0.6873760868744279,0.47009048484041127
13.05279594,-0.3687660206359369,0.818779626894125,0.5811089724319985
13.05755016,-0.28922690620185715,0.9660912530352723,0.6847612577806598
13.06230437,-0.21592384094519612,1.1297824811151584,0.7818405887112891
13.06705859,-0.1506063368121414,1.3099249029930604,0.8732487843019471
13.07181281,-0.09468013298443356,1.5061920567623543,0.9599555432880875
13.07656703,-0.049190350680970864,1.7178714474082322,1.0429585868214843
13.08132125,-0.014815542527849022,1.9438858233898944,1.1232457121223978
13.08607542,0.008127873664438548,2.182822571996418,1.201759618812197
13.09082963,0.019671582200804123,2.4329699086067196,1.2793661503942035
13.09558385,0.02017276057318587,2.692358405501026,1.356826382476297
13.10033807,0.010284112623096081,2.958806334732016,1.4347728018786001
13.10509229,-0.009082087050503902,3.2299672848118117,1.5136896745347774
13.10984651,-0.036794464705302836,3.5033785489217384,1.5938976099129223
13.11460073,-0.07154600640757111,3.776508868168962,1.675542300833203
13.11935489,-0.1118989669927436,4.046804242579106,1.7585874418319176
13.12410911,-0.15632973242550693,4.311730691248654,1.842811884053802
13.12886333,-0.20327223332236255,4.568813046845135,1.9278111373308997
13.13361755,-0.25115865806617116,4.815669101696147,2.013003348224386
13.13837177,-0.2984564182286284,5.05003867424831,2.0976398458721452
13.14312599,-0.34370056776342534,5.2698074255657374,2.180820251668322
13.14788021,-0.3855211555964664,5.473025514254944,2.261512003243516
13.15263442,-0.4226652794270951,5.6579214215704114,2.338573963796763
13.15738859,-0.45401388532452547,5.822911492157888,2.410783593516774
13.16214281,-0.4785936018893778,5.966605905003643,2.476866971134983
13.16689703,-0.4955840906873829,6.087811898375261,2.535530791512471
13.17165125,-0.5043215231908056,6.1855351087494075,2.5854953501681943
13.17640547,-0.5042988534510807,6.258979841233836,2.625527475951699
13.18115969,-0.4951635483890489,6.307548972813092,2.6544723982238803
13.18591391,-0.4767133756539485,6.3308440146541125,2.671283628510628
13.19066807,-0.4488907535959447,6.328665647896284,2.675050075205613
13.19542229,-0.411776065954202,6.30101482548948,2.665019762576464
13.20017651,-0.3655802576628066,6.248094326342002,2.640619668651856
13.20493073,-0.31063696590093476,6.170310475403133,2.601471324510331
13.20968495,-0.24739439637826746,6.06827461223872,2.547401938714461
13.21443917,-0.17640711706864723,5.942803801213429,2.4784509363726777
13.21919338,-0.09832790037958292,5.7949202250911975,2.3948719355938737
13.2239476,-0.01389969596523186,5.6258486868023985,2.297130317430848
13.22870177,0.07605223816218425,5.437011658113032,2.185896665240531
13.23345599,0.17062807278828995,5.230021356617178,2.062036442155377
13.23821021,0.268861085478689,5.0066684022546095,1.9265963322132575
13.24296442,0.36972538307146413,4.768906700316951,1.7807876905564703
13.24771864,0.47214378584147915,4.518834318464427,1.6259675387560197
13.25247286,0.5749959882217212,4.258670268510032,1.4636175172365584
13.25722703,0.6771270979872639,3.9907272656934816,1.2953211833651737
13.26198125,0.7773566377433443,3.7173807127450282,1.1227400308307325
13.26673547,0.8744880737719135,3.441034335336839,0.9475886051325373
13.27148969,0.9673189202174832,3.1640830705943714,0.7716090967077711
13.27624391,1.0546514518686392,2.8888739718879184,0.5965457996686283
13.28099812,1.1353040463093207,2.6176660321757894,0.4241198224156191
13.28575234,1.208123166503601,2.3525899368425582,0.2560044226679917
13.29050656,1.2719959890235724,2.0956088291208084,0.09380131679701965
13.29526073,1.3258636807984885,1.8484812027615436,-0.060981710509632386
13.30001495,1.3687353246748737,1.6127270257784687,-0.20695158973298186
13.30476917,1.399702483957202,1.3895981461970213,-0.3428488532089457
13.30952338,1.4179543701661894,1.1800539384335824,-0.46756435526958223
13.3142776,1.4227935309459518,0.9847430218876927,-0.5801535856869472
13.31903182,1.4136519059338826,0.8039917273008134,-0.6798483761081644
13.32378599,1.3901070115999397,0.6377998070145503,-0.7660658463124989
13.32854021,1.351897918021938,0.4858436872551132,-0.838414488908639
13.33329442,1.2989405789741435,0.34748734832282907,-0.8966973468498184
13.33804864,1.2313419809361834,0.22180069693320745,-0.9409122963386748
13.34280286,1.1494124974993853,0.10758507030779021,-0.9712495031098406
13.34755708,1.053675783454669,0.0034052921267581733,-0.9880861662619783
13.35231125,0.9448755253052594,-0.0923725046433165,-0.9919786988286386
13.35706547,0.8239783866074752,-0.1815382547209125,-0.9836525231309804
13.36181969,0.6921725493957751,-0.2659916542654095,-0.9639896896363946
13.36657391,0.550861357228664,-0.347693400919012,-0.9340145647655342
13.37132812,0.40165170959018437,-0.4286152801306348,-0.8948778724341397
13.37608234,0.24633703694505826,-0.5106904246818219,-0.84783940676872
13.38083651,0.08687489153170451,-0.5957650584655415,-0.7942497496382361
13.38559073,-0.0746405924792076,-0.6855529790649643,-0.7355313216100541
13.39034495,-0.23601090008210196,-0.7815939394560133,-0.6731590711763087
13.39509917,-0.39496933085190555,-0.885216960796956,-0.6086410725406792
13.39985338,-0.5492203561955646,-0.9975094500296908,-0.5434992652729735
13.4046076,-0.6964811833814619,-1.119292812708475,-0.47925053369312515
13.40936177,-0.8345244985670699,-1.2511050483791304,-0.41738828867569533
13.41411599,-0.9612213398939343,-1.393190598957636,-0.35936467698027613
13.41887021,-1.0745830777593766,-1.545497496893807,-0.30657350372436387
13.42362443,-1.1728015429047505,-1.7076816372593926,-0.26033391748289636
13.42837864,-1.254286431775209,-1.879117784459429,-0.22187488232476904
13.43313286,-1.3176992207681746,-2.058916728225909,-0.19232045211203558
13.43788708,-1.3619829266213144,-2.2459478325963014,-0.17267586900876572
13.44264125,-1.3863871528833438,-2.4388660824474426,-0.16381452507364225
13.44739547,-1.3904879596503628,-2.6361426305613778,-0.16646584752296067
13.45214969,-1.3742021860906615,-2.8360977883637846,-0.1812041924170781
13.4569039,-1.3377959451348431,-3.036935387273599,-0.20843885877992838
13.46165812,-1.2818870994737062,-3.236777464653926,-0.24840536628602047
13.46641234,-1.2074416177321101,-3.433698296873865,-0.3011581726997479
13.47116651,-1.1157637969650738,-3.625756908845458,-0.36656503685386715
13.47592073,-1.0084804201301056,-3.8110273297607566,-0.44430325200725573
13.48067495,-0.8875189946278738,-3.987626032566682,-0.5338579764986916
13.48542917,-0.7550802920779435,-4.153736183039149,-0.6345228695364694
13.49018338,-0.6136054831965146,-4.307628524573566,-0.7454031986075617
13.4949376,-0.46573823818838145,-4.44767892620913,-0.8654215237063612
13.49969177,-0.3142822446774302,-4.572382811526451,-0.99332598797335
13.50444599,-0.1621546827091815,-4.680366851763609,-1.127701162164683
13.50920021,-0.012336289583848541,-4.770398434750283,-1.2669813102588914
13.51395443,0.1321812551484379,-4.841393500536324,-1.4094658741149768
13.51870864,0.2684497956178273,-4.892423357080888,-1.5533369246423703
13.52346286,0.3936200931192035,-4.922721052980528,-1.696678302030167
13.52821703,0.5049971389686463,-4.931687793292962,-1.8374961712713365
13.53297125,0.6000943086467404,-4.918899749120873,-1.9737407495671442
13.53772547,0.6766852298946129,-4.884115445682751,-2.1033290125132873
13.54247969,0.7328522154941507,-4.827283732526102,-2.2241682465378796
13.5472339,0.7670301238419002,-4.748552158732207,-2.3341803750812575
13.55198812,0.7780445636523969,-4.648275410553356,-2.4313270349520955
13.55674229,0.7651434571808651,-4.527023332493112,-2.513635407948318
13.56149651,0.7280211167274917,-4.385587954140815,-2.5792248143533514
13.56625073,0.6668341614177217,-4.224988886193238,-2.6263340457870132
13.57100495,0.5822087912916072,-4.04647642755524,-2.653349355234954
13.57575917,0.4752391318799483,-3.851531737443715,-2.6588329351701465
13.58051338,0.3474765572010955,-3.641863468356458,-2.641551606172736
13.58526755,0.20091008718666972,-3.4194003239945165,-2.6005053159920775
13.59002177,0.03793813182989293,-3.1862790972438852,-2.534954921850555
13.59477599,-0.1386679858018535,-2.944827854144479,-2.444448607268063
13.59953021,-0.3258081546126402,-2.697544058336699,-2.3288461795603697
13.60428443,-0.5201045529349256,-2.4470675757726843,-2.1883404162238564
13.60903864,-0.7179588758343062,-2.1961486609788388,-2.0234745876017635
13.61379286,-0.9156148148304002,-1.9476112023094871,-1.8351552869336802
13.61854703,-1.109224806328198,-1.7043116903472848,-1.6246597503521207
13.62330125,-1.2949199857662013,-1.4690945640159176,-1.393636947642765
13.62805547,-1.4688822137867699,-1.2447447744020395,-1.1441018655699706
13.63280969,-1.6274169815263646,-1.033938577027376,-0.8784225819934718
13.6375639,-1.7670259548420988,-0.8391937088372857,-0.5992999292012556
13.64231807,-1.884477879527898,-0.6628202158829222,-0.309739754037601
13.64707229,-1.9768765395016688,-0.5068732624902167,-0.013017986732117348
13.65182651,-2.041724438698571,-0.3731092664586013,0.28736107925158205
13.65658073,-2.0769808685589197,-0.2629466648430722,0.5877127211658505
13.66133495,-2.0811130315533752,-0.17743252199558704,0.884225203765184
13.66608916,-2.0531389234584365,-0.11721604992698838,1.1730178070036563
13.67084338,-1.9926607404289856,-0.08252992790457474,1.450202465053305
13.67559755,-1.8998876784876833,-0.07318009358752155,1.7119479033934715
13.68035177,-1.7756471384604964,-0.08854444425805492,1.9545450638469835
13.68510599,-1.621383541708452,-0.12758064695744206,2.174472531426561
13.68986021,-1.4391442011571847,-0.18884302233931494,2.368460626459511
13.69461443,-1.2315519744266163,-0.2705082471513838,2.5335528052393634
13.69936859,-1.0017647439934434,-0.370409418323509,2.66716302550534
13.70412281,-0.7534221127357595,-0.48607783741608424,2.7671277801404486
13.70887703,-0.49058005896148316,-0.6147917046226781,2.8317515821821004
13.71363125,-0.21763464911399474,-0.7536307525531751,2.8598447938267744
13.71838547,0.060763754495660495,-0.8995356984528088,2.8507528285383152
13.72313969,0.3398040405519599,-1.0493712487767213,2.8043759158982606
13.7278939,0.6146136218856261,-1.1999912553083352,2.7211788011147577
13.73264807,0.880361171630465,-1.348304504326179,2.6021899528661834
13.73740229,1.132360375413362,-1.4913395299090875,2.4489900717865747
13.74215651,1.3661721299078613,-1.6263067912098605,2.263689924060411
13.74691073,1.5777025667474516,-1.7506565524893134,2.048897766066243
13.75166495,1.763294309723003,-1.8621308613422145,1.807676872018674
13.75641911,1.91980848800115,-1.9588081371974297,1.5434939221390118
13.76117333,2.0446952306921204,-2.0391390566226404,1.2601592483951491
13.76592755,2.136050656583311,-2.1019726491864,0.9617601606660473
13.77068177,2.192658740681122,-2.14657179118575,0.6525887778443723
13.77543599,2.21401687379646,-2.1726175969348525,0.33706595336770223
13.78019021,2.200344413792928,-2.180202549507021,0.019663000662046317
13.78494437,2.1525740333130834,-2.169812573394683,-0.29517701838995514
13.78969859,2.072326172757719,-2.1422986159714523,-0.6031166840601325
13.79445281,1.9618673841420398,-2.0988386557988776,-0.8999985974331257
13.79920703,1.8240537799220937,-2.040891375778579,-1.1819151779555561
13.80396125,1.6622611654237498,-1.9701430111047047,-1.4452724765232703
13.80871547,1.4803037266283101,-1.8884490920212065,-1.6868467965762124
13.81346963,1.2823433678333547,-1.7977729401269795,-1.9038331266590123
13.81822385,1.0727919529962653,-1.7001228403192172,-2.09388460008782
13.82297807,0.8562088094877716,-1.5974897994446764,-2.2551423996210316
13.82773229,0.6371959119581158,-1.4917877226947052,-2.386255711241042
13.83248651,0.4202931823635848,-1.3847976985567565,-2.486391501649446
13.83724073,0.20987632148587243,-1.278117894092465,-2.555234055328223
13.84199495,0.010059526927883797,-1.173120337190301,-2.5929743693632243
13.84674911,-0.17539464857920492,-1.0709156139453235,-2.600289678526279
13.85150333,-0.34315618822053995,-0.9723262488856941,-2.5783135772803285
13.85625755,-0.49039732911677697,-0.8778692728324774,-2.5285974215052742
13.86101177,-0.6148494197514471,-0.78774822501283,-2.4530639256208118
13.86576599,-0.7148455128435178,-0.7018545879269557,-2.353954108171234
13.87052021,-0.7893476226532956,-0.6197784188374075,-2.2337689635608307
13.87527437,-0.8379579558965853,-0.5408277221558186,-2.0952074300374077
13.88002859,-0.8609138466135003,-0.4640559022153456,-1.9411023649644394
13.88478281,-0.8590665764122579,-0.38829644470292474,-1.7743563100936894
13.88953703,-0.8338447270797478,-0.31220379669610493,-1.5978788172656866
13.89429125,-0.7872031736223799,-0.23429925155973702,-1.4145270011974322
13.89904547,-0.7215592606542067,-0.1530205014007622,-1.2270507953531036
13.90379969,-0.6397180918883782,-0.06677340513096096,-1.0380441276606833
13.90855385,-0.5447891834274871,0.026015555620120014,-0.8499029331581234
13.91330807,-0.44009697471302,0.12684768877006258,-0.6647906108838473
13.91806229,-0.3290878496421522,0.23710290342578427,-0.4846112378162326
13.92281651,-0.2152363906902317,0.3579943726581002,-0.3109905898352902
13.92757073,-0.10195356771343621,0.490528366556777,-0.1452647958373502
13.93232495,0.007500552272776328,0.6354703919094913,0.01152373295689141
13.93707911,0.11009719580825053,0.7933185474978268,0.1586236022872286
13.94183333,0.20311028521021587,0.9642847425114925,0.29556557457314797
13.94658755,0.2841771169049351,1.1482841439088176,0.42214823209971725
13.95134177,0.351346978329193,1.3449329309251363,0.5384188867893175
13.95609599,0.40311678831243014,1.5535541546053886,0.6446504798171149
13.96085021,0.43845327368419557,1.7731912399588365,0.7413152251591079
13.96560442,0.4568016131105839,2.002628439195866,0.8290557565178046
13.97035859,0.4580808807559858,2.2404173535626613,0.9086545332005991
13.97511281,0.4426670037924398,2.4849084911867085,0.9810022396282593
13.97986703,0.41136430102217875,2.7342867191842646,1.0470658677522426
13.98462125,0.36536698164268544,2.9866093993725062,1.1078570993249275
13.98937547,0.30621224069005165,3.23984596819546,1.1644015127297787
13.99412969,0.23572678117465065,3.491917734567238,1.2177090435907658
13.99888391,0.15596871371812787,3.7407367264419458,1.2687460491182316
14.00363807,0.06916682559840484,3.984242517228923,1.3184092760275747
14.00839229,-0.022340828840752634,4.220436101050767,1.3675020124328858
14.01314651,-0.11616717951422866,4.447410053090028,1.4167127075739212
14.01790073,-0.20993357770573257,4.663374400546215,1.4665963587684865
14.02265495,-0.30132300131385525,4.8666778347228385,1.5175589843281614
14.02740917,-0.38812789503522976,5.055824107122943,1.5698455178768171
14.03216338,-0.4682918240619704,5.229483659972523,1.6235314639877745
14.03691755,-0.539944436206365,5.386500731133482,1.6785186349167835
14.04167177,-0.6014295295907744,5.525896335362604,1.7345352348612042
14.04642599,-0.6513262978560732,5.646867653766795,1.7911404703087712
14.05118021,-0.6884640608669768,5.748784459183228,1.8477337455127831
14.05593442,-0.711930976778678,5.831183265515894,1.903568354649711
14.06068864,-0.721077366258445,5.8937599120982105,1.9577694128749767
14.06544286,-0.7155143606200305,5.936361278026573,2.0093555902712144
14.07019703,-0.6951086129607434,5.95897676421819,2.057264046949191
14.07495125,-0.6599737876362959,5.96173008281638,2.1003778386905028
14.07970547,-0.6104594770809003,5.944871759795667,2.1375549881786315
14.08445969,-0.5471381018191777,5.908772598630505,2.1676584007606694
14.08921391,-0.4707902482401188,5.853918185615501,2.1895858354750826
14.09396812,-0.3823888044053563,5.780904355587862,2.202299203667297
14.09872234,-0.2830821747886903,5.690433392912393,2.2048525409013213
14.10347656,-0.17417679192111096,5.583310626564884,2.1964180700473586
14.10823073,-0.05711909350917969,5.4604409971417045,2.1763098376945904
14.11298495,0.06652290818982332,5.322825131558672,2.1440044621796845
14.11773917,0.19507837874678227,5.171554458550613,2.099158585099182
14.12249338,0.32679269378676723,5.007804932189498,2.0416226773571045
14.1272476,0.45984675643043543,4.832828996404019,1.9714509211951654
14.13200177,0.5923766514919119,4.647945514099598,1.8889069708167083
14.13675599,0.7224937261037183,4.4545274924014935,1.7944654803717068
14.14151021,0.8483052088487544,4.253987553848853,1.688809371695787
14.14626442,0.9679354796348492,4.047761226739306,1.5728228895689118
14.15101864,1.079548076571584,3.83728825215325,1.4475805575327363
14.15577286,1.181368473583171,3.6239922261231197,1.314332204802391
14.16052708,1.2717075864756384,3.409259007528749,1.1744842893939547
14.16528125,1.3489858715106042,3.1944144197344886,1.0295777988329826
14.17003547,1.4117577766446556,2.9807018516822974,0.8812630696849426
14.17478969,1.458736199386009,2.7692604184982943,0.7312719296665838
14.17954391,1.4888165045056614,2.5611043702478145,0.5813876284830627
14.18429812,1.501099566915213,2.35710443863145,0.43341308223075253
14.18905229,1.4949132362310114,2.1579717842530144,0.28913800724368005
14.19380651,1.4698315751895028,1.964245151926358,0.15030555952799493
14.19856073,1.425691208722648,1.7762817601949779,0.01857912527278948
14.20331495,1.3626041376235527,1.594252347089265,-0.10449007112692879
14.20806917,1.2809664212689367,1.418140671337232,-0.21749386140188592
14.21282338,1.181462215166639,1.2477476314307738,-0.3191958471568598
14.2175776,1.065062755920658,1.082700018997443,-0.40855726483614424
14.22233177,0.9330200126372727,0.9224637730069591,-0.48475937111313455
14.22708599,0.7868548638382155,0.7663614531520067,-0.5472217799897184
14.23184021,0.6283398059831194,0.613593510412326,-0.5956162700947787
14.23659443,0.4594763467148585,0.46326280640862527,-0.629875692078544
14.24134864,0.28246737698580004,0.3144017261987158,-0.6501977367116492
14.24610286,0.09968494773478943,0.16600114628977963,-0.6570434637589366
14.25085703,-0.08636600261200748,0.017040464175954968,-0.6511306261598551
14.25561125,-0.2730873142786134,-0.13348213063678435,-0.6334219419792737
14.26036547,-0.45782991299852527,-0.2865199611711355,-0.6051085632198497
14.26511969,-0.637937920341905,-0.44294952867176496,-0.5675890688669114
14.2698739,-0.810793661045296,-0.6035442669780826,-0.5224443774104176
14.27462812,-0.9738626102991693,-0.7689510314076052,-0.47140903960598796
14.27938229,-1.1247372969672735,-0.939669866362333,-0.41633943934119627
14.28413651,-1.2611791801741137,-1.116037478793942,-0.3591794978556331
14.28889073,-1.3811575488980474,-1.298214717822545,-0.30192453892673826
14.29364495,-1.4828845561777177,-1.4861782308917706,-0.24658402209341168
14.29839917,-1.5648455890324944,-1.6797163403580206,-0.1951438790961833
14.30315333,-1.6258242911803644,-1.8784290667307473,-0.14952919061287143
14.30790755,-1.6649216980805757,-2.081732120199145,-0.11156791837304336
14.31266177,-1.6815691109267288,-2.2888645939483094,-0.08295636972554736
14.31741599,-1.675534522705478,-2.498900022827624,-0.06522702520386586
14.32217021,-1.6469226074411532,-2.710760418671254,-0.05971930698067305
14.32692443,-1.596168483694738,-2.923232856875364,-0.06755380447362704
14.33167859,-1.5240256540359323,-3.1349881654010656,-0.08961039772146
14.33643281,-1.4315486918192406,-3.344601255098839,-0.12651062618533343
14.34118703,-1.3200713854621706,-3.550572626797473,-0.17860454198366263
14.34594125,-1.1911811518821362,-3.751350593898406,-0.24596216979187352
14.35069547,-1.0466905898856518,-3.945353768793383,-0.32836958210315165
14.35544969,-0.8886070578613126,-4.13099337814036,-0.4253294995730169
14.36020385,-0.7191011289380471,-4.306694996435663,-0.5360662497513097
14.36495807,-0.5404747063804608,-4.470919319787141,-0.6595348667788302
14.36971229,-0.35512947970872233,-4.622181644185121,-0.7944340876815036
14.37446651,-0.16553627532782578,-4.759069767532508,-0.9392229914803777
14.37922073,0.025794286731192023,-4.880260103190247,-1.0921410267040133
14.38397495,0.21633956671130464,-4.984531874082647,-1.2512311724266603
14.38872911,0.40359099442512325,-5.070779349302366,-1.4143659712254248
14.39348333,0.5850785009318945,-5.138022186198489,-1.579276155741456
14.39823755,0.7583934468993657,-5.185414041899413,-1.74358156256708
14.40299177,0.9212103027096296,-5.212249708184658,-1.9048239892670156
14.40774599,1.0713074020093523,-5.217971093198417,-2.0605016065759036
14.41250021,1.2065871212860186,-5.2021724155977545,-2.208104493850259
14.41725437,1.325095832872122,-5.164604984940377,-2.345150826978873
14.42200859,1.4250439359958458,-5.105181911493353,-2.4692232187146663
14.42676281,1.5048261896131778,-5.023983018068217,-2.578004696015119
14.43151703,1.5630424543520876,-4.921260119058726,-2.669313800395031
14.43627125,1.5985188043311684,-4.797442694072831,-2.741138315416303
14.44102542,1.6103288017438997,-4.653143826057528,-2.791667156897068
14.44577963,1.59781455217173,-4.489166112303995,-2.8193200009000887
14.45053385,1.560606994581677,-4.306507109475366,-2.822774266647194
14.45528807,1.4986447430234977,-4.106363756800936,-2.800989112260104
14.46004229,1.4121906977197445,-3.890135145186148,-2.753226138523145
14.46479651,1.301845587012558,-3.659422968523965,-2.679066528447122
14.46955073,1.168557590387816,-3.416029006241292,-2.578424377409785
14.47430489,1.0136272249705311,-3.1619490385416276,-2.45155599064689
14.47905911,0.8387067485436759,-2.8993626810878528,-2.2990649451400516
14.48381333,0.645793434790827,-2.6306187370969587,-2.1219027369988597
14.48856755,0.43721620571145897,-2.3582157972172437,-1.9213648689372742
14.49332177,0.21561525890595476,-2.084777968835959,-1.6990822787100766
14.49807594,-0.016085498413320222,-1.8130257847549112,-1.4570080677918102
14.50283016,-0.25471320454303625,-1.5457425225944312,-1.1973995562257245
14.50758437,-0.4968877783010798,-1.2857363541625892,-0.9227957598116817
14.51233859,-0.7390702130131633,-1.035798929801688,-0.635990456940434
14.51709281,-0.9776167960206819,-0.7986611775057394,-0.3400010843018379
14.52184703,-1.2088384120356448,-0.5769472522775723,-0.038033774295506084
14.5266012,-1.42906389081942,-0.37312770079596425,0.2665550780064176
14.53135542,-1.634706180072701,-0.189473004148307,0.5703002566617549
14.53610963,-1.8223299716044137,-0.028008722330905463,0.8696716459965977
14.54086385,-1.9887192896606762,0.10952651544826968,1.161120045840066
14.54561807,-2.130943469225838,0.22171895368267053,1.4411242558132653
14.55037224,-2.2464199122802344,0.30751243341643036,1.7062387796604346
14.55512646,-2.332972013941636,0.36623485346328,1.9531414884021574
14.55988068,-2.3888806997924394,0.39761748145075915,2.1786805756584777
14.56463489,-2.4129281109924734,0.4018064156779852,2.37992013673235
14.56938911,-2.4044321147205974,0.3793657174788086,2.554183704250404
14.57414333,-2.3632705035144737,0.33127197105441647,2.6990950778192073
14.5788975,-2.289893976348615,0.25890027033839463,2.8126157942608465
14.58365172,-2.1853272612474752,0.1640018671676122,2.8930786005255826
14.58840594,-2.0511580334746444,0.04867393148688536,2.9392163165779084
14.59316016,-1.889513591710367,-0.0846779338476794,2.9501855140593447
14.59791437,-1.7030255646295327,-0.23338361643573077,2.9255844912142788
14.60266854,-1.494783222125138,-0.3945579105042254,2.8654650968359907
14.60742276,-1.2682762521064286,-0.5651543660979684,2.770338045692267
14.61217698,-1.027328130331842,-0.7420224175405769,2.6411714733956595
14.6169312,-0.7760214531439594,-0.9219665621312979,2.479382596938808
14.62168542,-0.5186168176274385,-1.1018063041441846,2.286822473642885
14.62643963,-0.25946701700912356,-1.2784355455992555,2.065753980372525
14.6311938,-0.002928467413251154,-1.4488800981290848,1.818823260292268
14.63594802,0.24672810857717078,-1.6103520139193228,1.5490250002330488
14.64070224,0.48540565054187107,-1.760299491640047,1.25966200310991
14.64545646,0.7092652742102352,-1.8964512070140462,0.9542996042499765
14.65021068,0.9148052643484236,-2.0168540461009297,0.6367155491532579
14.65496484,1.098932581774763,-2.1199033790922286,0.3108460086881237
14.65971906,1.259025084888316,-2.2043651985202612,-0.019271535586698366
14.66447328,1.392982892625567,-2.2693896527750557,-0.3495577402479285
14.6692275,1.49926759731984,-2.314515727898461,-0.6759523126926616
14.67398172,1.5769283625342592,-2.339667061376019,-0.9944754307169696
14.67873594,1.625614299512044,-2.345139103680477,-1.3012886184268524
14.6834901,1.6455728909049816,-2.331578068312353,-1.5927539385798712
14.68824432,1.6376346047272274,-2.29995232000987,-1.8654902916759204
14.69299854,1.6031841977842534,-2.251517034243434,-2.116425577910018
14.69775276,1.5441195320939531,-2.1877731105411784,-2.342843492709508
14.70250698,1.4627990129585144,-2.1104214322135144,-2.542423797906813
14.7072612,1.3619790036143886,-2.0213136344053044,-2.713275040013337
14.71201536,1.2447427824061146,-1.9224005731191367,-2.8539588693759232
14.71676958,1.1144227864277212,-1.8156796848268855,-2.9635053378802296
14.7215238,0.974518029444496,-1.7031423978536266,-3.041418801897265
14.72627802,0.8286086892420034,-1.5867227132696653,-3.0876743129650506
14.73103224,0.6802699298945687,-1.468248023551649,-3.102704625742367
14.73578646,0.532987058586895,-1.3493931867961155,-3.08737818216239
14.74054062,0.3900741122747991,-1.231638823345362,-3.042968640584685
14.74529484,0.25459791946645266,-1.1162347470803864,-2.971116711784934
14.75004906,0.1293095773550668,-1.0041693793560391,-2.8737852436575664
14.75480328,0.016585116595765285,-0.8961459117351303,-2.753208665779894
14.7595575,-0.08162310827426852,-0.7925658757248393,-2.6118380624139492
14.76431172,-0.1638230626791445,-0.6935206366272075,-2.452283282446508
14.76906594,-0.2290068220998167,-0.5987911519915621,-2.2772536064268785
14.7738201,-0.27666101157033207,-0.5078561270269782,-2.0894985595647837
14.77857432,-0.3067638094099145,-0.41990846942131954,-1.8917504702354608
14.78332854,-0.31976884318204996,-0.33387970696210634,-1.6866703160674972
14.78808276,-0.3165767034339514,-0.24847179574445724,-1.4767982733766953
14.79283698,-0.29849516777948576,-0.16219552569248574,-1.2645101996731494
14.7975912,-0.2671895494276544,-0.07341453357311742,-1.0519810471876228
14.80234536,-0.22462484546776976,0.01960622929333803,-0.841155940627367
14.80709958,-0.17300155070695983,0.11864884997776182,-0.6337293651977463
14.8118538,-0.1146871203901481,0.22548898192468092,-0.43113261372620376
14.81660802,-0.05214511334815566,0.34184193789564826,-0.23452935193346117
14.82136224,0.01213596976045719,0.46930973093725514,-0.04481889815529892
14.82611646,0.07571221690039744,0.609330398543129,0.13735340655269207
14.83087062,0.13625040109064246,0.7631308591829704,0.3115795332665525
14.83562484,0.19158901637617234,0.9316844320186477,0.4776667236326436
14.84037906,0.2397928311596937,1.1156740077518281,0.635611071290007
14.84513328,0.27919975837752087,1.3154616990364207,0.7855677707575583
14.8498875,0.30845907795562066,1.531065629068662,0.9278190943991498
14.85464172,0.3265602984427513,1.762144340840338,1.062741150482318
14.85939588,0.3328522111282116,2.007989129103605,1.190770445947329
14.8641501,0.3270519651181662,2.2675244145900075,1.312371225002421
14.86890432,0.3092442653726681,2.539316100511721,1.428004478628767
14.87365854,0.27987105751088276,2.8215876819915526,1.5380994256712535
14.87841276,0.23971230539887933,3.112243725391692,1.6430281633131858
14.88316698,0.18985868242656828,3.4089001987841927,1.743084081650783
14.8879212,0.1316771765617445,3.70892101753062,1.8384645350452942
14.89267536,0.06677074661502881,4.00946007019958,1.9292581569558265
14.89742958,-0.003066739121514639,4.3075079090921955,2.015437089017128
14.9021838,-0.07589899969040842,4.599942224577862,2.0968542653884406
14.90693802,-0.14969798113376273,4.883581170503427,2.1732457474361575
14.91169224,-0.22239537208313637,5.15523856587727,2.2442379407472792
14.91644646,-0.29193378271321935,5.411779963324223,2.3093593511463495
14.92120068,-0.35631644834901655,5.650178547105681,2.368056363307242
14.92595489,-0.41365440359276756,5.867569804722152,2.4197123768483335
14.93070906,-0.46221016283350114,6.061303909865382,2.4636695316043644
14.93546328,-0.5004370390479377,6.228994766039917,2.4992522058916258
14.9402175,-0.5270133403396581,6.36856469625846,2.525791473096397
14.94497172,-0.5408708081352888,6.478283831373874,2.542649736488677
14.94972594,-0.5412168033881961,6.556803351420103,2.54924481334735
14.9544801,-0.5275499036731669,6.603181868750995,2.5450727973411373
14.95923432,-0.4996687385113601,6.6169044002113235,2.5297290889899404
14.96398854,-0.4576740564013899,6.597893545047785,2.5029270471659864
14.96874276,-0.4019641792184581,6.5465126529116064,2.464513780523259
14.97349698,-0.3332241531460584,6.4635609235660905,2.414482669619517
14.9782512,-0.25240904668191166,6.350260523615931,2.352982294538617
14.98300536,-0.1607219728514351,6.208235936206111,2.2803215445984084
14.98775958,-0.05958752122180476,6.039485879294942,2.1969708056307593
14.9925138,0.049378629036524194,5.846348239534268,2.103559247780764
14.99726802,0.16440308557235409,5.6314585751077555,2.000868360048245
15.00202224,0.28359025084768263,5.397702845298893,1.8898219853369953
15.00677646,0.4049591040732722,5.148165129791526,1.7714731934242955
15.01153068,0.5264804247422255,4.886071207975105,1.6469883833222947
15.01628484,0.6461136712194334,4.614728976686803,1.5176290279001197
15.02103906,0.7618427908560648,4.337466790110364,1.3847314653543676
15.02579328,0.8717103169663224,4.05757090195912,1.2496851165914147
15.0305475,0.9738492020289249,3.778223269925168,1.113909484276372
15.03530172,1.0665119429339591,3.5024410371266437,0.9788302853024129
15.04005594,1.1480966668004988,3.2330190267811836,0.8458550890787976
15.0448101,1.217169956582841,2.972476568549459,0.7163488718262299
15.04956432,1.272486296454537,2.7230099155281273,0.591609938531564
15.05431854,1.3130041015024085,2.4864514113822604,0.47284669711045496
15.05907276,1.3378983605393446,2.2642364323725195,0.3611557857381938
15.06382698,1.3465699642882132,2.0573789652696686,0.2575020512982658
15.06858114,1.3386518173191724,1.8664564954508767,0.1627008562507887
15.07333536,1.3140118470478304,1.691604674875578,0.07740315717751725
15.07808958,1.2727530326115584,1.532522020977218,0.0020837534683685556
15.0828438,1.2152105837642828,1.3884846679734062,-0.0629669529201991
15.08759802,1.1419464054015427,1.2583709552045697,-0.11764742212985646
15.09235224,1.053740985797828,1.1406953975381355,-0.16204550169031798
15.09710646,0.9515828455243489,1.0336513466301605,-0.196434971314912
15.10186062,0.8366556805357155,0.9351614255474665,-0.22126819792398206
15.10661484,0.7103233297612747,0.8429346091551975,-0.23716511485943212
15.11136906,0.5741126975965217,0.7545286342717007,-0.2448988405960324
15.11612328,0.4296947668077496,0.6674162621621357,-0.24537832781678645
15.1208775,0.27886384772845596,0.5790537869382016,-0.23962848741866183
15.12563166,0.12351522406544242,0.4869500921287567,-0.22876827135390704
15.13038588,-0.034378627394561954,0.38873450855193936,-0.21398723014381396
15.1351401,-0.19279304723202273,0.2822217230606672,-0.19652108822763759
15.13989432,-0.34967721716086786,0.165472032101106,-0.1776269002177748
15.14464854,-0.5029809553259604,0.036845327561707865,-0.15855835728936604
15.14940276,-0.6506820105138577,-0.10495265490249114,-0.14054179943939807
15.15415692,-0.7908135456573699,-0.2608331044900379,-0.12475345362873944
15.15891114,-0.9214914597773651,-0.43129696526328065,-0.11229836137429942
15.16366536,-1.0409411563121342,-0.6164185972689286,-0.1041913871549268
15.16841958,-1.1475233306536066,-0.8158407311117098,-0.10134061838414438
15.1731738,-1.2397583268360077,-1.0287808481267344,-0.10453338683671243
15.17792797,-1.3163486074787538,-1.254048776986666,-0.11442506672809116
15.18268219,-1.3761988947975794,-1.4900749573796621,-0.13153073865345602
15.18743641,-1.4184335737391656,-1.7349484947362435,-0.15621974999905774
15.19219062,-1.4424109983974744,-1.986463829595926,-0.18871314775326553
15.19694484,-1.4477344051028758,-2.2421745831784077,-0.2290839042876749
15.20169906,-1.4342592050100147,-2.4994529269563013,-0.2772597965190402
15.20645323,-1.4020965026698349,-2.7555526655359834,-0.3330287337453309
15.21120745,-1.3516127640837585,-3.007674123674956,-0.3960462659145315
15.21596167,-1.283425637914652,-3.253028892819931,-0.4658449531491236
15.22071588,-1.1983960169082142,-3.488902521254073,-0.5418452483855258
15.2254701,-1.097616513199285,-3.7127133243076784,-0.6233675409306491
15.23022427,-0.9823966090266858,-3.92206564606581,-0.7096450257519119
15.23497849,-0.8542448279747203,-4.114796119498687,-0.7998370936453006
15.23973271,-0.7148483439860047,-4.289011742721612,-0.8930429725683308
15.24448692,-0.5660504988243712,-4.443118906477156,-0.9883153832258894
15.24924114,-0.4098267257384711,-4.575842861214403,-1.0846739976464603
15.25399531,-0.24825937119827768,-4.686237487824867,-1.1811185057517637
15.25874953,-0.08351186700476854,-4.773685615601168,-1.2766411022596649
15.26350375,0.08219736173717944,-4.837890492400583,-1.3702382082641025
15.26825797,0.2466209523326037,-4.878859335641071,-1.4609212450722069
15.27301219,0.407508418167214,-4.8968801636553865,-1.5477262897528055
15.27776641,0.5626316080807944,-4.892493312631559,-1.6297224674165887
15.28252057,0.7098097763951965,-4.866459174067677,-1.7060189756861432
15.28727479,0.8469342758073026,-4.819723735489045,-1.7757706905979433
15.29202901,0.971992898177511,-4.75338347546552,-1.8381823679264373
15.29678323,1.0830938723662116,-4.668651062059348,-1.8925115268138086
15.30153745,1.1784894924336136,-4.56682314350343,-1.9380701796280635
15.30629161,1.2565992983006844,-4.449251312340309,-1.9742256475327198
15.31104583,1.3160326653120054,-4.317317080533285,-2.0004007686763225
15.31580005,1.3556105826219613,-4.172411436301538,-2.0160738587846896
15.32055427,1.3743863226624609,-4.015919279488456,-2.020778816962182
15.32530849,1.3716646367297483,-3.8492087673901225,-2.0141057783330236
15.33006271,1.347019061229956,-3.6736253601093964,-1.9957026962737905
15.33481692,1.3003068848182608,-3.490490142084109,-1.9652781887527757
15.33957109,1.2316813066192465,-3.30110182033397,-1.9226059068861667
15.34432531,1.1416003120276967,-3.106741665524504,-1.867530582741228
15.34907953,1.0308318104834107,-2.90868057301047,-1.7999757922606023
15.35383375,0.9004546218411535,-2.7081873772925316,-1.7199533333159276
15.35858792,0.7518549617294673,-2.50653754971332,-1.6275739749409708
15.36334213,0.5867181550410389,-2.3050214378549554,-1.5230591899628008
15.36809635,0.4070153926196228,-2.1049512576257223,-1.4067533491948672
15.37285057,0.21498543207718582,-1.907666118312428,-1.2791357414129183
15.37760479,0.013111225667752253,-1.7145344425860425,-1.1408316992659158
15.38235901,-0.19590846201333958,-1.5269532369578604,-0.992622065058761
15.38711318,-0.40919230087483827,-1.3463437756960486,-0.8354502275180465
15.39186739,-0.6237142713891861,-1.1741433853238181,-0.6704260041752158
15.39662161,-0.8363458377186987,-1.0117931586036806,-0.49882573428041915
15.40137583,-1.0439019831002823,-0.8607215857267005,-0.322088081568265
15.40613005,-1.243190564510063,-0.7223242643283269,-0.14180521787759584
15.41088427,-1.431064329661708,-0.5979400354585315,0.04029074415565825
15.41563844,-1.604474820874335,-0.4888240841635998,0.22234599359894935
15.42039266,-1.7605272712577447,-0.39611873303479467,0.4024076610628563
15.42514687,-1.8965354850841118,-0.3208228349471291,0.578450394575177
15.42990109,-2.0100755930560883,-0.26376082558323055,0.7484062547578749
15.43465531,-2.099037491771403,-0.22555261521504819,0.910197190218357
15.43940948,-2.1616727231361095,-0.2065855721753191,1.061769266032372
15.4441637,-2.196637531833884,-0.20698986977951234,1.20112776376185
15.44891792,-2.203029862506289,-0.22661842922665465,1.3263722501927
15.45367213,-2.1804191239059048,-0.26503259119988676,1.435730724456619
15.45842635,-2.1288676528449457,-0.32149448994646507,1.527591999619062
15.46318052,-2.0489429536745005,-0.39496689061577184,1.6005355532592975
15.46793474,-1.941719966900793,-0.48412099200606346,1.6533581872547563
15.47268896,-1.8087728303798458,-0.5873524040514522,1.6850969626761017
15.47744318,-1.6521558339607167,-0.7028051961062248,1.6950480129086283
15.48219739,-1.474373527392301,-0.8284035933027922,1.682780978432901
15.48695161,-1.2783402144997542,-0.9618905892892405,1.648148942505288
15.49170578,-1.0673293475086463,-1.100872459516253,1.5912938712406062
15.49646,-0.8449136192700016,-1.2428679133340965,1.512647667455343
15.50121422,-0.6148968330999655,-1.3853604256221592,1.412929028752919
15.50596844,-0.38123890170806946,-1.5258521462771721,1.293136352212764
15.51072266,-0.14797557667859296,-1.6619177036252542,1.1545369493857756
15.51547682,0.0808652739060146,-1.7912562000462173,0.9986528284810982
15.52023104,0.30134885042191,-1.9117397477395763,0.827243271152734
15.52498526,0.509717961496544,-2.0214570095293087,0.6422843869862096
15.52973948,0.702474753167313,-2.1187503898942266,0.4459457792875445
15.5344937,0.8764574713414284,-2.2022457572620318,0.2405644120879005
15.53924786,1.028910182517462,-2.2708738592753654,0.028615741935517122
15.54400208,1.1575435317244636,-2.3238829053941443,-0.18731782015954845
15.5487563,1.2605848409953893,-2.360842121596066,-0.4045810129118002
15.55351052,1.3368161395947626,-2.381636414909672,-0.6204822122009114
15.55826474,1.3855990573271941,-2.386452605346345,-0.8323320004766341
15.56301896,1.4068858884811628,-2.375757973506398,-1.037483367250269
15.56777312,1.401216526693041,-2.3502721182358965,-1.2333729227779073
15.57252734,1.369701360664164,-2.3109333071924105,-1.41756233979667
15.57728156,1.3139905919684463,-2.2588606258906623,-1.587779088604246
15.58203578,1.236230780060551,-2.1953132855173245,-1.7419554152110817
15.58679,1.139009731588649,-2.12164843982252,-1.8782644443918097
15.59154422,1.0252911289036413,-2.0392787948658575,-1.9951522795756491
15.59629838,0.8983405349456044,-1.9496311845727823,-2.091365025557881
15.6010526,0.7616446181138268,-1.8541071447142246,-2.1659697779548255
15.60580682,0.6188256103533737,-1.7540463626499716,-2.2183687986556158
15.61056104,0.4735531403368876,-1.650693721598482,-2.2483063173599414
15.61531526,0.3294556637875827,-1.5451705041302746,-2.25586765026517
15.62006942,0.19003373737278018,-1.4384501753054422,-2.241470590848336
15.62482364,0.05857734709878751,-1.3313390350411451,-2.2058492871656243
15.62957786,-0.06191059415869923,-1.2244619134734815,-2.150031060825935
15.63433208,-0.16878262163879199,-1.1182529813417659,-2.075306836819415
15.6390863,-0.259805222405496,-1.012951656718912,-1.9831960398624864
15.64384052,-0.3332059936395407,-0.9086035055167507,-1.8754069744625925
15.64859469,-0.38770829999160017,-0.8050659522354136,-1.753793842476195
15.65334891,-0.4225526325026707,-0.7020185374572658,-1.620311657463433
15.65810312,-0.43750425675295174,-0.5989773803131895,-1.476970379731507
15.66285734,-0.4328471357779125,-0.4953134305894156,-1.3257896109662226
15.66761156,-0.40936450758996706,-0.3902740306118973,-1.1687551487552363
15.67236578,-0.3683068716892755,-0.28300725561428125,-1.007778610018219
15.67711995,-0.31134848111363095,-0.17258846502205502,-0.8446611932246221
15.68187417,-0.240533738489722,-0.05804847516859888,-0.6810624705475533
15.68662838,-0.15821515052078036,0.06159724611913231,-0.5184748942158343
15.6913826,-0.06698469874793406,0.187318962950048,-0.3582044794889843
15.69613682,0.030399372100389288,0.3200432242014094,-0.2013579022869013
15.70089104,0.1310882681042957,0.4606241609599408,-0.04883603271202188
15.70564521,0.23221876878964168,0.6098160820981576,0.09866627524060383
15.71039942,0.33098771410564315,0.7682478959498226,0.24065449612062995
15.71515364,0.4247229211814904,0.9363998559358815,0.37682335835849323
15.71990786,0.5109487609940143,1.1145830917846933,0.5070410179047238
15.72466208,0.587444834458167,1.30292234556088,0.6313292120266251
15.7294163,0.6522964294783784,1.501342283586722,0.7498401941821149
15.73417052,0.703935706733056,1.7095577004750209,0.8628312957509184
15.73892469,0.7411728474988317,1.9270678675991586,0.9706379849895301
15.74367891,0.763216695090526,2.1531552037872843,1.0736462987202915
15.74843312,0.7696847220715801,2.3868883605977933,1.1722655047460149
15.75318734,0.7606024476835881,2.627129719193342,1.2669018090487
15.75794156,0.7363927066651448,2.8725471929676663,1.3579338513366037
15.76269578,0.6978554261548076,3.121630123401026,1.4456906401206147
15.76744995,0.64613879421781,3.372708950918916,1.5304324715394562
15.77220417,0.5827028927911136,3.6239782439081356,1.6123352613184163
15.77695838,0.5092770130662367,3.8735225847356785,1.6914786016285717
15.7817126,0.4278119700320092,4.119344748849186,1.767837738485359
15.78646682,0.3404287843785372,4.359395577560027,1.8412795531137822
15.79122104,0.24936510502611153,4.5916049392944664,1.9115625205361153
15.79597521,0.1569207092468856,4.813913194903119,1.9783405060218735
15.80072942,0.06540334869483863,5.024302621462711,2.041170145585985
15.80548364,-0.022923882625361193,5.220828294875847,2.0995214515887395
15.81023786,-0.10589259153217206,5.401647975232871,2.152791205080701
15.81499208,-0.18147559244011863,5.565050574682409,2.2003186537582784
15.8197463,-0.2478290540038251,5.709482812509838,2.241403029007505
15.82450052,-0.3033295876458868,5.833573675551768,2.275322420079525
15.82925469,-0.3466057084945184,5.936156306850404,2.3013535846896422
15.83400891,-0.3765632323953925,6.0162869486189186,2.318792316374304
15.83876312,-0.392404311853434,6.073260576443531,2.3269740142498048
15.84351734,-0.3936399597651818,6.106622888577063,2.325294102618264
15.84827156,-0.38009606151090247,6.116178362011103,2.313227929035331
15.85302573,-0.35191302824346005,6.101994155390318,2.290349740516878
15.85777995,-0.3095393872202694,6.064399722064226,2.2563503106588083
15.86253417,-0.25371972668188236,6.003982085666978,2.211052774910277
15.86728838,-0.1854775030917109,5.921576816825678,2.154426232714526
15.8720426,-0.10609327351275669,5.818254827334932,2.0865966965813803
15.87679682,-0.017078938638799928,5.69530516572622,2.007855009782707
15.88155104,0.07985141932878208,5.5542140567983385,1.9186614138006197
15.88630521,0.1828135356252119,5.396640479833869,1.8196465190889481
15.89105943,0.2897872527827321,5.224388628454671,1.7116085129271634
15.89581364,0.3986525793153311,5.03937764146421,1.5955065228453034
15.90056786,0.5072270172509505,4.843609040253582,1.4724501427656411
15.90532208,0.6133036763481629,4.639132355842579,1.3436852223032691
15.9100763,0.7146897035308526,4.428009478560139,1.2105761161671993
15.91483047,0.8092445577480674,4.212278316187725,1.0745846848838947
15.91958469,0.8949176535596731,3.9939164010357255,0.9372464224531796
15.9243389,0.9697848840181131,3.7748051396829068,0.8001441555009983
15.92909312,1.0320835187573132,3.556695445521548,0.664879812236533
15.93384734,1.080244960716152,3.341175526786213,0.5330448039644367
15.93860156,1.1129248384153394,3.1296416141978542,0.40618960443804275
15.94335573,1.1290299129626065,2.923272397016483,0.2857931564293576
15.94810995,1.12774129120147,2.723007891216276,0.1732327777693236
15.95286417,1.1085334586637297,2.5295333888773155,0.0697552738984408
15.95761838,1.0711886781073965,2.3432690365936275,-0.02355001665776045
15.9623726,1.0158063419530405,2.1643654673324466,-0.10577551930697285
15.96712682,0.9428069212820449,1.9927057701600455,-0.17621636578069955
15.97188099,0.8529302223338011,1.8279139310430763,-0.23438734144556647
15.97663521,0.7472277459928816,1.6693697204958948,-0.28003528491892893
15.98138943,0.6270490486085951,1.5162298442723354,-0.3131465046265767
15.98614364,0.4940221246602386,1.3674550147786053,-0.3339489171840501
15.99089786,0.3500279725805997,1.2218424458540973,-0.3429087666574342
15.99565208,0.19716966152268994,1.0780631239680543,-0.340721943281306
16.00040625,0.03773638366852677,0.9347030664890571,-0.328300077725573
16.00516047,-0.12583685374554987,0.7903076447048817,-0.30675173525327015
16.00991469,-0.2910130797670598,0.6434279289585286,-0.277359165869083
16.0146689,-0.45519979262463645,0.4926679101755905,-0.24155117609924875
16.01942312,-0.6157968968637499,0.3367313718010371,-0.20087277269647213
16.02417729,-0.7702449918202157,0.1744671348332603,-0.15695228943326633
16.02893151,-0.9160728304419826,0.004911381986562569,-0.11146674935147871
16.03368573,-1.0509427894167158,-0.172674210431787,-0.06610624151516786
16.03843995,-1.1726932608186647,-0.3587697397066487,-0.02253810847824514
16.04319417,-1.2793769858875823,-0.553570841784006,0.01762824692351343
16.04794838,-1.369294495425994,-0.7569699022306078,0.05287511698965435
16.05270255,-1.4410219898785157,-0.9685454701018412,0.08180798584736246
16.05745677,-1.4934331754859083,-1.1875604058830578,0.10318396447009594
16.06221099,-1.5257147608204713,-1.4129690413971647,0.11593641470201738
16.06696521,-1.5373755016653257,-1.6434333574744218,0.11919511030066421
16.07171942,-1.5282488549977726,-1.8773479035227112,0.11230141993089539
16.07647359,-1.4984894604357646,-2.112872901862311,0.09481815950920222
16.08122781,-1.4485638073063734,-2.3479747091133523,0.06653393205541877
16.08598203,-1.3792355660071676,-2.5804725569720786,0.027461938220817692
16.09073625,-1.2915461625933076,-2.808090274439455,-0.02216660718862977
16.09549047,-1.1867912545778332,-3.0285115113115753,-0.08191417758345795
16.10024469,-1.0664938224564993,-3.2394368464365653,-0.15115334762099972
16.10499885,-0.9323746238332893,-3.4386410809721153,-0.22908737604377083
16.10975307,-0.7863207643857953,-3.6240289914592254,-0.31477428346125397
16.11450729,-0.6303531237574062,-3.7936878517134303,-0.40715362014651363
16.11926151,-0.4665933387858588,-3.9459351257655855,-0.5050750056448943
16.12401573,-0.2972309967592816,-4.079359883628615,-0.607327442254379
16.12876989,-0.12449163369036971,-4.192856691430986,-0.7126683727518205
16.13352411,0.04939392825885008,-4.2856509683251955,-0.8198514764461862
16.13827833,0.22221843287749957,-4.357315074442621,-0.9276522755196216
16.14303255,0.39182482666661667,-4.407774686465662,-1.0348907474650133
16.14778677,0.5561303465991653,-4.437305318615734,-1.1404502970523964
16.15254099,0.7131478010816568,-4.446519146419462,-1.243292619855062
16.15729516,0.8610038685736429,-4.436342581658415,-1.3424681782350174
16.16204937,0.9979543304101842,-4.407985325293879,-1.4371222021712653
16.16680359,1.1223962567208035,-4.362901885485482,-1.5264963160668632
16.17155781,1.232877271408948,-4.302746781592929,-1.6099260742735613
16.17631203,1.3281021246855802,-4.229324852134225,-1.6868348578245074
16.18106625,1.4069368916116527,-4.144538236166868,-1.756724737208504
16.18582042,1.4684111894412615,-4.050331698434668,-1.8191650347163695
16.19057463,1.511718865913112,-3.9486380179577965,-1.8737794182990528
16.19532885,1.5362176542901418,-3.8413251584713755,-1.9202324200862757
16.20008307,1.5414283144985435,-3.7301468884618645,-1.9582162904788443
16.20483729,1.5270337773964813,-3.616698419904474,-1.987439069341365
16.20959146,1.4928787763421854,-3.5023784894901633,-2.0076146794409295
16.21434568,1.4389703838172432,-3.388359115288402,-2.0184557279230195
16.21909989,1.3654797698906198,-3.275564027129631,-2.0196695466984984
16.22385411,1.2727453659786767,-3.164656493871091,-2.010957822448092
16.22860833,1.1612774579602871,-3.056036961228903,-1.9920199735419326
16.2333625,1.0317640569979551,-2.9498505795455827,-1.9625602360841852
16.23811672,0.8850777162020935,-2.84600435414317,-1.9222982337448637
16.24287094,0.722282789533799,-2.744193305534888,-1.8709826324284853
16.24762516,0.5446424792308423,-2.643934696411906,-1.8084073256685107
16.25237937,0.3536249011157991,-2.5446090800980765,-1.7344294641622693
16.25713359,0.15090732194418324,-2.445506663610314,-1.6489885383622993
16.26188776,-0.06162230526238045,-2.34587726916658,-1.5521256529885938
16.26664198,-0.28186736142166136,-2.2449820303749637,-1.444002102813194
16.2713962,-0.5075289240762397,-2.1421448791779456,-1.3249163733567804
16.27615042,-0.736117153892883,-2.0368018686963074,-1.1953187470342295
16.28090463,-0.9649682497971251,-1.9285464348046735,-1.055822789253357
16.28565885,-1.1912673553561453,-1.8171688243736581,-0.9072131116016662
16.29041302,-1.4120776136506248,-1.7026881085092533,-0.7504489515137086
16.29516724,-1.6243753629532343,-1.5853754499051755,-0.5866632621497047
16.29992146,-1.825091247072928,-1.4657675962058359,-0.4171571670315433
16.30467568,-2.011156788335546,-1.3446699151211154,-0.24338979610038475
16.30942984,-2.179555742911682,-1.223148659406237,-0.06696367723777183
16.31418406,-2.327379333372168,-1.1025125368838569,0.11039399647397621
16.31893828,-2.451884239692928,-0.9842840475942284,0.2868537741995451
16.3236925,-2.5505520362122507,-0.8701614219550514,0.46050947266669684
16.32844672,-2.621148597968413,-0.7619723370759799,0.6294061808993983
16.33320094,-2.6617818770745734,-0.6616208924262863,0.7915700511748
16.3379551,-2.6709563794776505,-0.5710295819168217,0.9450391542785747
16.34270932,-2.647622659706229,-0.492078197760481,1.087894673856402
16.34746354,-2.591220194232577,-0.42654173282133645,1.2182917378097218
16.35221776,-2.501712090084598,-0.3760294059184727,1.3344892350774904
16.35697198,-2.3796102348479837,-0.3419269164244092,1.4348780417905642
16.3617262,-2.2259896973547773,-0.32534394145215434,1.5180071758285654
16.36648036,-2.04249143934655,-0.3270687236794468,1.582607504733626
16.37123458,-1.8313126859862643,-0.3475313648296097,1.6276127397558522
16.3759888,-1.5951846155090885,-0.38677714589797024,1.6521775505609937
16.38074302,-1.3373373559507653,-0.44445085030038656,1.6556927243596173
16.38549719,-1.0614526119397472,-0.5197926832568553,1.6377973651027207
16.3902514,-0.7716045802385981,-0.6116459754052523,1.5983881796205528
16.39500562,-0.4721901430240317,-0.7184764476160791,1.537625925800853
16.39975984,-0.16784964653637824,-0.8384024141541147,1.4559391014312806
16.40451406,0.136620127916483,-0.9692349290206713,1.3540249306897152
16.40926828,0.4363589229415013,-1.1085265505343316,1.232847660030814
16.41402245,0.726539785005965,-1.2536271250022786,1.0936341106725564
16.41877666,1.0024673752381463,-1.4017447821246356,0.9378663583038727
16.42353088,1.2596754008097457,-1.5500101997708806,0.7672713319429206
16.4282851,1.4940207071052902,-1.695542137448458,0.5838070548190277
16.43303932,1.7017715995749132,-1.8355122558029453,0.3896452035264377
16.43779354,1.879688074646997,-1.9672073301522366,0.18714965064638286
16.44254771,2.02509182969287,-2.0880871230493354,-0.02114930741257529
16.44730192,2.1359241859604388,-2.1958363956325555,-0.23258524281426
16.45205614,2.21079038437887,-2.2884097989926886,-0.4443904624164812
16.45681036,2.248989087474281,-2.3640686810570406,-0.6537352944821253
16.46156458,2.2505263245760534,-2.421409155310713,-0.857771394794782
16.4663188,2.2161135349313508,-2.4593810878061046,-1.0536784029614459
16.47107297,2.147149778063379,-2.4772979516864977,-1.2387130183363342
16.47582719,2.0456885781317222,-2.47483775939508,-1.4102593369550673
16.48058141,1.9143902371595194,-2.45203550139247,-1.5658791174603843
16.48533562,1.7564607827526362,-2.4092676917800215,-1.70336053805864
16.49008984,1.5755790068579791,-2.347229747479033,-1.8207639718136868
16.49484406,1.3758133059606774,-2.2669070161827802,-1.9164633405027705
16.49959823,1.1615302543617125,-2.1695403302777287,-1.9891817000358647
16.50435245,0.9372970327841107,-2.05658701084412,-2.0380198534659026
16.50910666,0.7077799929990741,-1.9296782873619278,-2.0624769704216486
16.51386088,0.47764176141945475,-1.7905741410900091,-2.0624624039541053
16.5186151,0.2514393638338065,-1.6411166246914566,-2.0382981290121958
16.52336927,0.03352587842215216,-1.4831827535901907,-1.9907114772255923
16.52812349,-0.17204192017652148,-1.3186380971253433,-1.9208181114659197
16.53287771,-0.36158759037645427,-1.1492922085511674,-1.8300954739599504
16.53763192,-0.5318886065329155,-0.9768570113464239,-1.7203472534705384
16.54238614,-0.6802376703482262,-0.8029091974866895,-1.5936597422466334
16.54714036,-0.804490285422551,-0.6288575890447448,-1.4523512748754417
16.55189453,-0.9030975354466523,-0.45591627123730927,-1.29891623467059
16.55664875,-0.9751234433214696,-0.28508413038108593,-1.1359653520604456
16.56140297,-1.020246743026569,-0.11713123285161758,-0.9661641797616107
16.56615719,-1.0387473555301798,0.047407731054551774,-0.7921716950568825
16.5709114,-1.0314783100068274,0.20823293413068877,-0.6165809434748748
16.57566562,-0.9998242754800696,0.36527204502902333,-0.4418635033835655
16.58041979,-0.9456482480642783,0.5186664312325133,-0.2703193303398324
16.58517401,-0.8712282584514689,0.6687515477799394,-0.10403325661021556
16.58992823,-0.7791862092225355,0.8160322919511582,0.055160895464272525
16.59468245,-0.6724111122915329,0.961154235123644,0.20570795037212236
16.59943667,-0.5539790688491971,1.104871734009724,0.3463504414212643
16.60419088,-0.42707231943465634,1.2480139705205509,0.47613906182144844
16.60894505,-0.2948995985441132,1.3914499728804364,0.5944347306366664
16.61369927,-0.1606198678194415,1.5360536346137368,0.7009027290628469
16.61845349,-0.02727128449619037,1.68266967894879,0.7954995579158328
16.62320771,0.10229300326429833,1.8320814210990664,0.8784533279148876
16.62796192,0.22546094329480626,1.9849810670881896,0.9502386178250307
16.63271614,0.3399085792251005,2.1419431618060405,1.0115468165565837
16.63747031,0.44363732156249774,2.3034016661103673,1.063253000187313
16.64222453,0.5350011702212828,2.4696310082444106,1.1063803855830936
16.64697875,0.6127238730770973,2.640731324629441,1.1420633563924811
16.65173297,0.6759062822353892,2.816617984826995,1.1715099842459276
16.65648719,0.7240244144715741,2.9970153891096754,1.1959648773237743
16.66124141,0.7569189349559597,3.1814549373468006,1.216673090145843
16.66599562,0.7747769644642721,3.369276996697221,1.2348457345249695
16.67074984,0.7781072557013509,3.5596366433397213,1.2516278537320351
16.67550401,0.7677098863657661,3.7515129189254677,1.2680690657771727
16.68025823,0.7446416697219269,3.9437213234136284,1.2850974437739349
16.68501245,0.7101784887348377,4.134929259941119,1.303497071234437
16.68976666,0.6657757226706569,4.323674151785999,1.3238896762290369
16.69452088,0.6130278611685869,4.508383963444171,1.346720701569846
16.6992751,0.5536282956669992,4.687399873479289,1.3722501030594354
16.70402927,0.4893301492674237,4.859000860486826,1.4005480822941847
16.70878349,0.42190886335981087,5.021429968331911,1.4314958552444395
16.71353771,0.3531271119626732,5.172922006826997,1.464791435996642
16.71829193,0.2847024699385211,5.311732416332584,1.4999602823461826
16.72304614,0.21827812415676986,5.436166979958518,1.5363705145546787
16.72780036,0.1553967909470303,5.544612008451534,1.5732522897053378
16.73255453,0.0974778919165509,5.635564555784177,1.6097207991166083
16.73730875,0.045797947169826464,5.707662154273955,1.6448022590978137
16.74206297,0.0014740745799648126,5.759711493554924,1.677462187611485
16.74681719,-0.03454956055877363,5.790715414781379,1.7066352033113201
16.7515714,-0.061512518705105323,5.799897556141656,1.7312555519698543
16.75632562,-0.07884624863232613,5.786723972335143,1.7502875594512064
16.76107984,-0.08617978032587484,5.750921061570085,1.762755226561604
16.76583401,-0.08334305108440732,5.692489170414589,1.7677702130125759
16.77058823,-0.0703679237845037,5.611711310515722,1.7645575011681598
16.77534245,-0.04748691239613908,5.5091565117921535,1.7524780865087595
16.78009667,-0.015129590252876893,5.385677452243849,1.7310481164011708
16.78485088,0.026083376078374125,5.242402140688183,1.6999539967556407
16.7896051,0.07534864824235728,5.08071957944621,1.6590631069584727
16.79435927,0.13169118639665012,4.902259492671439,1.6084299004258904
16.79911349,0.1939778606819733,4.708866366806767,1.5482973120942853
16.80386771,0.26093377790103534,4.502568208380407,1.4790935369996019
16.80862192,0.3311613585316633,4.285540578384661,1.4014243782141969
16.81337614,0.4031621363478915,4.060066609483837,1.3160614790141654
16.81813036,0.4753611651012893,3.8284938485903006,1.2239268450551464
16.82288453,0.5461338077616509,3.593188887403639,1.1260741245559514
16.82763875,0.6138345634721395,3.3564908408273104,1.0236671521193978
16.83239297,0.6768274690178718,3.1206648014167118,0.9179562828900852
16.83714719,0.7335175078073334,2.887856431615938,0.810253055538991
16.8419014,0.7823823782848053,2.660048850365667,0.701903728952599
16.84665562,0.8220039182010701,2.4390229251083797,0.5942622386581004
16.85140979,0.8510984504148081,2.2263219961172624,0.4886631128727037
16.85616401,0.8685453080742201,2.023221942336777,0.38639487336262496
16.86091823,0.873412811774656,1.8307073530712814,0.2886744252620029
16.86567245,0.8649810101799681,1.6494544046385857,0.19662291784627564
16.87042666,0.8427605605983799,1.4798208617528879,0.11124353922078108
16.87518088,0.8065072172814914,1.3218434355339634,0.03340169077351292
16.87993505,0.7562315098049802,1.1752425390168493,-0.036192036036475576
16.88468927,0.6922033259065999,1.0394342924580164,-0.09699569912153598
16.88944349,0.614951255324479,0.9135494505052008,-0.1486463477605705
16.89419771,0.5252566965434401,0.796458757010981,-0.19096664794145612
16.89895193,0.42414287099558046,0.6868040853324239,-0.22396768321628324
16.90370614,0.31285902407668753,0.5830345951143067,-0.2478479353755241
16.90846031,0.1928602147475852,0.4834470320195972,-0.2629885460371241
16.91321453,0.06578320118312742,0.38622921493596385,-0.2699450317843946
16.91796875,-0.06658098531057723,0.2895056961101256,-0.26943567145225833
16.92272297,-0.2023171258573621,0.1913845444529201,-0.26232681267824354
16.92747719,-0.3394178736320018,0.09000419249975772,-0.2496153679009186
16.93223135,-0.47581709534108874,-0.016420695684009032,-0.23240879829691705
16.93698557,-0.6094238194749311,-0.12955533493194613,-0.21190292310569575
16.94173979,-0.7381561539708689,-0.2509038377643212,-0.18935793979115287
16.94649401,-0.8599745901467473,-0.3817719784105559,-0.16607309100827577
16.95124823,-0.9729141749474106,-0.523234425801108,-0.14336046120339757
16.95600239,-1.0751151037740683,-0.6761070420279879,-0.12251842670711562
16.96075661,-1.1648513569802292,-0.8409247079840422,-0.10480531873587058
16.96551083,-1.2405570720550205,-1.017925001416933,-0.09141388776601794
16.97026505,-1.3008504090789523,-1.207037919671106,-0.08344717638994582
16.97501927,-1.3445547278260317,-1.407881714939659,-0.08189641063493507
16.97977349,-1.3707169492875684,-1.6197647982765733,-0.08762150111195842
16.98452771,-1.378623020089906,-1.8416935726299102,-0.10133469916018854
16.98928187,-1.3678104324588372,-2.072385975075802,-0.12358787339140956
16.99403609,-1.3380777734027314,-2.3102904420081236,-0.15476375487083113
16.99879031,-1.2894912854906957,-2.553609953694827,-0.19507134545621377
17.00354453,-1.2223884209914067,-2.8003307602998655,-0.24454550125285776
17.00829875,-1.1373783651480482,-3.04825533397553,-0.3030505067970619
17.01305297,-1.0353394968090073,-3.295039025838811,-0.3702872656226484
17.01780713,-0.9174137486125356,-3.538229829571713,-0.4458035700351612
17.02256135,-0.7849978264373408,-3.775310565164623,-0.5290067939223152
17.02731557,-0.6397312498634957,-4.003742700670369,-0.6191782868626972
17.03206979,-0.4834811827740789,-4.221010933695573,-0.7154887372708564
17.03682401,-0.3183240371514941,-4.424667567561895,-0.8170138117616687
17.04157818,-0.14652385461132234,-4.612375651901017,-0.9227494580008542
17.04633239,0.02949250013270282,-4.7819498268493525,-1.0316263678905422
17.05108661,0.20716326133961105,-4.931393824975376,-1.1425232260656304
17.05584083,0.38382267967287836,-5.058933652700696,-1.254278505828771
17.06059505,0.5567347574042453,-5.1630455954981125,-1.3657007130911651
17.06534927,0.7231295567646596,-5.2424783655841205,-1.4755771124853594
17.07010344,0.8802417616990137,-5.296268929205941,-1.5826810935578899
17.07485766,1.0253510935586805,-5.323751800765717,-1.6857784440019048
17.07961187,1.1558241017493844,-5.324561857681534,-1.783632885981755
17.08436609,1.2691567755638147,-5.298630996272695,-1.8750112956530143
17.08912031,1.363017356305571,-5.246179198336482,-1.9586890614946617
17.09387448,1.4352886705347068,-5.167700795076074,-2.0334560429624484
17.0986287,1.4841092556544608,-5.063946886480588,-2.098123568299887
17.10338292,1.507912507208725,-4.935904989588579,-2.151532861490731
17.10813713,1.5054630430457878,-4.784777040711586,-2.192565216591086
17.11289135,1.4758894556566402,-4.611956860859627,-2.220154147022096
