"Time (s)","Acceleration x (m/s^2)","Acceleration y (m/s^2)","Acceleration z (m/s^2)"
2.097619100E-2,-1.733402014E0,6.955455303E0,6.433519363E0
2.600219100E-2,-1.762132406E0,6.991368294E0,6.452672958E0
3.099219100E-2,-1.802833915E0,7.029675484E0,6.548440933E0
3.598669100E-2,-1.836352706E0,7.067982674E0,6.656179905E0
4.098335700E-2,-1.850717902E0,7.096713066E0,6.742371082E0
4.597960700E-2,-1.841141105E0,7.111078262E0,6.790255070E0
5.097960700E-2,-1.788468719E0,7.108684063E0,6.823774338E0
5.597960700E-2,-1.707065821E0,7.082347870E0,6.842927933E0
6.097960700E-2,-1.596932530E0,7.027281284E0,6.833351135E0
6.597960700E-2,-1.477222443E0,6.953061104E0,6.814197540E0
7.097971800E-2,-1.352723956E0,6.859687328E0,6.780678272E0
7.597971800E-2,-1.230619669E0,6.692092896E0,6.641814709E0
8.097971800E-2,-1.086967587E0,6.467038155E0,6.411971569E0
8.597971800E-2,-9.361328483E-1,6.373664379E0,6.213252544E0
9.097971800E-2,-7.757213712E-1,6.423942566E0,6.026504993E0
9.597971800E-2,-7.733271718E-1,6.565200329E0,5.789478779E0
1.009797180E-1,-9.959878922E-1,6.706458092E0,5.636250019E0
1.059797180E-1,-1.146822572E0,6.811803341E0,5.581183434E0
1.109797180E-1,-1.185129881E0,6.852504730E0,5.712864399E0
1.159797180E-1,-1.240196466E0,6.809409142E0,5.921160221E0
1.209797180E-1,-1.328781962E0,6.694487095E0,6.141426563E0
1.259797180E-1,-1.393425345E0,6.526893139E0,6.349722385E0
1.309797650E-1,-1.355118155E0,6.368875980E0,6.567594528E0
1.359797650E-1,-1.182735682E0,6.237194538E0,6.730400085E0
1.409797650E-1,-9.121908545E-1,6.060023785E0,6.730400085E0
1.459798060E-1,-6.655880809E-1,5.818209171E0,6.641814709E0
1.509798060E-1,-5.410895944E-1,5.595548630E0,6.565200329E0
1.559798060E-1,-5.410895944E-1,5.449502468E0,6.536469936E0
1.609798430E-1,-5.243301988E-1,5.432743073E0,6.601113319E0
1.659798430E-1,-4.620809257E-1,5.504569054E0,6.716034889E0
1.709798430E-1,-4.644751251E-1,5.602731228E0,6.842927933E0
1.759798430E-1,-5.650315881E-1,5.705681801E0,6.945878506E0
1.809801760E-1,-7.038952708E-1,5.832574844E0,6.996156693E0
1.859805420E-1,-7.972691655E-1,5.969044209E0,7.005733490E0
1.909808750E-1,-8.331822157E-1,6.086359978E0,7.005733490E0
1.959813750E-1,-8.140285611E-1,6.174945354E0,7.003339291E0
2.009813750E-1,-6.919242740E-1,6.172551155E0,7.156568050E0
2.059813750E-1,-4.357447028E-1,6.040870190E0,7.656956196E0
2.109813750E-1,-2.968810201E-1,5.691316605E0,8.506897926E0
2.159813750E-1,-3.998316824E-1,5.291484833E0,9.086295128E0
2.209813410E-1,-5.817909837E-1,4.893748283E0,9.459790230E0
2.259813410E-1,-6.224924326E-1,4.587290287E0,9.636960983E0
2.309813410E-1,-4.501099288E-1,4.450820923E0,9.605836868E0
2.359813410E-1,-1.197100878E-1,4.438849926E0,9.428665161E0
2.409813410E-1,2.202665508E-1,4.448426723E0,9.220370293E0
2.459813410E-1,4.860229492E-1,4.402936935E0,9.016862869E0
2.509813410E-1,6.895300746E-1,4.280832767E0,8.818143845E0
2.559813410E-1,8.523358107E-1,4.094084740E0,8.633790970E0
2.609813410E-1,1.039083481E0,3.900154591E0,8.492532730E0
2.659813410E-1,1.268926859E0,3.720589399E0,8.427888870E0
2.709813410E-1,1.486799240E0,3.557783842E0,8.461407661E0
2.759813410E-1,1.651999116E0,3.404554844E0,8.609848976E0
2.809813070E-1,1.762132406E0,3.268085241E0,8.866027832E0
2.859813400E-1,1.826775908E0,3.160346270E0,9.208398819E0
2.909813400E-1,1.879448295E0,3.078943491E0,9.634567261E0
2.959813060E-1,1.934514999E0,2.971204281E0,1.012059021E1
3.009813060E-1,1.996764183E0,2.774879694E0,1.063055515E1
3.059813060E-1,2.059013367E0,2.537853718E0,1.106151104E1
3.109812720E-1,2.075772762E0,2.310404539E0,1.138712215E1
3.159812720E-1,2.042253971E0,2.147598982E0,1.161935997E1
3.209813050E-1,1.932120800E0,2.094926596E0,1.179174232E1
3.259813050E-1,1.733402014E0,2.116474390E0,1.184441471E1
3.309813050E-1,1.482010841E0,2.188300371E0,1.172709942E1
3.359813050E-1,1.218648672E0,2.319981337E0,1.144937134E1
3.409813050E-1,9.289502501E-1,2.489969730E0,1.105432892E1
3.459813050E-1,5.674257874E-1,2.664746523E0,1.064492035E1
3.509813050E-1,8.619125932E-2,2.820369720E0,1.031930828E1
3.559813050E-1,-4.094084799E-1,2.920926094E0,1.001045704E1
3.609813050E-1,-8.283938169E-1,2.978386879E0,9.677662849E0
3.659813050E-1,-1.053448796E0,3.062183857E0,9.395146370E0
3.709813050E-1,-1.079784989E0,3.174711466E0,9.220370293E0
3.759813050E-1,-1.015141487E0,3.234566450E0,9.131784439E0
3.809813050E-1,-9.361328483E-1,3.210624456E0,9.110237122E0
3.859813050E-1,-8.858546019E-1,3.177105665E0,9.069535255E0
3.909813050E-1,-8.068459630E-1,3.157952070E0,9.055170059E0
3.959813380E-1,-8.403648138E-1,3.122039080E0,9.059958458E0
4.009813380E-1,-1.235408068E0,3.009511471E0,9.000102997E0
4.059813380E-1,-1.680729628E0,2.954444885E0,8.724770546E0
4.109813380E-1,-1.889025092E0,3.011905670E0,8.315361977E0
4.159813380E-1,-1.958456993E0,3.162740469E0,7.762300968E0
4.209813380E-1,-1.994369984E0,3.409343243E0,7.036858082E0
4.259813380E-1,-1.951274395E0,3.694253206E0,6.361693382E0
4.309813380E-1,-1.953668594E0,3.938461781E0,5.777507782E0
4.359813040E-1,-1.994369984E0,4.046200752E0,5.267542839E0
4.409813040E-1,-1.956062794E0,3.943250179E0,4.860229492E0
4.459813040E-1,-1.860294700E0,3.754108191E0,4.560954094E0
4.509813040E-1,-1.651999116E0,3.476380825E0,4.367023945E0
4.559813040E-1,-1.388636947E0,3.191470861E0,4.244919777E0
4.609813040E-1,-1.120486379E0,2.889801502E0,4.185064793E0
4.659813040E-1,-9.121908545E-1,2.489969730E0,4.271255970E0
4.709812700E-1,-6.919242740E-1,2.092532396E0,4.400542736E0
4.759812700E-1,-3.950432837E-1,1.800439715E0,4.474762917E0
4.809812700E-1,4.070143029E-2,1.659181833E0,4.539406300E0
4.859812700E-1,4.932055473E-1,1.565807939E0,4.659116745E0
4.909812700E-1,8.355764151E-1,1.436521053E0,4.855441093E0
4.959812700E-1,1.063025594E0,1.335964561E0,4.999392509E0
5.009812700E-1,1.256955862E0,1.316810966E0,5.150227070E0
5.059812700E-1,1.434126854E0,1.326387763E0,5.344157696E0
5.109812700E-1,1.587355733E0,1.300051570E0,5.542876244E0
5.159812700E-1,1.649604917E0,1.213860273E0,5.818209171E0
5.209812700E-1,1.589749932E0,1.067813993E0,6.184522152E0
5.259812700E-1,1.395819545E0,8.738836050E-1,6.610690117E0
5.309812700E-1,1.113303781E0,6.703764796E-1,7.034463882E0
5.359813030E-1,8.379706144E-1,4.788403511E-1,7.486968040E0
5.409806360E-1,5.410895944E-1,2.896983922E-1,7.934683800E0
5.459797020E-1,2.370259613E-1,8.140286058E-2,8.332120895E0
5.509788020E-1,-8.379705995E-2,-1.173158810E-1,8.686463356E0
5.559783350E-1,-3.639186621E-1,-2.609679997E-1,8.959402084E0
5.609778680E-1,-6.033388376E-1,-3.375824392E-1,9.148544312E0
5.659774010E-1,-8.116343617E-1,-3.782838583E-1,9.265859604E0
5.709769010E-1,-1.017535686E0,-4.118026793E-1,9.332897186E0
5.759764010E-1,-1.319205165E0,-4.860229492E-1,9.366415977E0
5.809759010E-1,-1.714248419E0,-6.129156351E-1,9.366415977E0
5.859754010E-1,-2.121262789E0,-7.709329724E-1,9.323320389E0
5.909749010E-1,-2.463633537E0,-9.193734527E-1,9.234735489E0
5.959744010E-1,-2.731784105E0,-1.036689281E0,9.093477249E0
6.009739340E-1,-2.987963676E0,-1.134851575E0,8.976161003E0
6.059739670E-1,-3.287238836E0,-1.211466074E0,8.913911819E0
6.109740000E-1,-3.653551817E0,-1.292868972E0,8.921094894E0
6.159740000E-1,-4.074931145E0,-1.398213744E0,8.990526199E0
6.209740000E-1,-4.479551315E0,-1.527500629E0,9.093477249E0
6.259740000E-1,-4.853046894E0,-1.668758631E0,9.208398819E0
6.309740000E-1,-5.198111057E0,-1.800439715E0,9.313743591E0
6.359740000E-1,-5.559635639E0,-1.912967205E0,9.383175850E0
6.409740000E-1,-6.043264389E0,-2.042253971E0,9.457395554E0
6.459740330E-1,-6.608295918E0,-2.185906172E0,9.550769806E0
6.509740660E-1,-7.245153427E0,-2.384624958E0,9.682451248E0
6.559740990E-1,-7.965808392E0,-2.628833532E0,9.852438927E0
6.609740990E-1,-8.727164268E0,-2.875436306E0,1.005834103E1
6.659740990E-1,-9.455001831E0,-3.081337690E0,1.024508858E1
6.709740990E-1,-1.008228302E1,-3.244143248E0,1.037437534E1
6.759740990E-1,-1.061140156E1,-3.394978046E0,1.045338345E1
6.809741320E-1,-1.107587624E1,-3.574543238E0,1.051563358E1
6.859737320E-1,-1.145894814E1,-3.775655985E0,1.056112289E1
6.909744320E-1,-1.177019501E1,-4.055777550E0,1.055633450E1
6.959753320E-1,-1.200961494E1,-4.412513733E0,1.051084518E1
7.009762320E-1,-1.219396877E1,-4.826710701E0,1.045098972E1
7.059766980E-1,-1.234480286E1,-5.231629848E0,1.038155746E1
7.109771640E-1,-1.244536018E1,-5.566818237E0,1.029057789E1
7.159776300E-1,-1.247409058E1,-5.808632374E0,1.020199299E1
7.209781300E-1,-1.241902351E1,-5.930737019E0,1.014692593E1
7.259786630E-1,-1.228734207E1,-5.940313816E0,1.010861874E1
7.309791960E-1,-1.210538292E1,-5.870882034E0,1.007749462E1
7.359797290E-1,-1.190905857E1,-5.772719383E0,1.004876423E1
7.409802290E-1,-1.169118595E1,-5.669768810E0,1.003439903E1
7.459807290E-1,-1.144937134E1,-5.559635639E0,1.002961063E1
7.509811950E-1,-1.115249062E1,-5.432743073E0,1.002721596E1
7.559811950E-1,-1.080054283E1,-5.293879032E0,1.002721596E1
7.609811950E-1,-1.038155746E1,-5.111919880E0,1.019959831E1
7.659812280E-1,-9.972148895E0,-4.932354927E0,1.039113426E1
7.709812280E-1,-9.634567261E0,-4.754884720E0,1.041507626E1
7.759812280E-1,-9.352050781E0,-4.560954094E0,1.038634586E1
7.809812280E-1,-9.115025520E0,-4.378994942E0,1.028818417E1
7.859812280E-1,-8.904335022E0,-4.225766182E0,1.016129112E1
7.909812280E-1,-8.715193748E0,-4.115632534E0,1.003679276E1
7.959811940E-1,-8.557176590E0,-4.017470360E0,9.890746117E0
8.009811600E-1,-8.439860344E0,-3.904942989E0,9.723152161E0
8.059811600E-1,-8.353669167E0,-3.756502390E0,9.560346603E0
8.109805260E-1,-8.272266388E0,-3.576937437E0,9.407117844E0
8.159805590E-1,-8.157344818E0,-3.402160645E0,9.253889084E0
8.209805590E-1,-7.984961987E0,-3.244143248E0,9.107842445E0
8.259805590E-1,-7.803002834E0,-3.098097086E0,8.921094894E0
8.309805250E-1,-7.642591000E0,-2.918531895E0,8.708010674E0
8.359809250E-1,-7.470208645E0,-2.736572504E0,8.600272179E0
8.409800910E-1,-6.821380138E0,-2.454056740E0,1.006552315E1
8.459792570E-1,-6.265924931E0,-2.209848166E0,1.137515163E1
8.509783900E-1,-5.820603371E0,-2.013523579E0,1.242381191E1
8.559783900E-1,-5.439925671E0,-1.838746905E0,1.335036755E1
8.609777230E-1,-5.205293655E0,-1.687912226E0,1.363048935E1
8.659770560E-1,-5.281908035E0,-1.616086125E0,1.252436829E1
8.709767220E-1,-5.583577633E0,-1.630451322E0,1.073350525E1
8.759760220E-1,-5.964255810E0,-1.742978811E0,8.866027832E0
8.809753550E-1,-6.273107529E0,-1.977610588E0,7.281066418E0
8.859751550E-1,-6.426336765E0,-2.267308950E0,6.215646744E0
8.909745210E-1,-6.433519363E0,-2.597708941E0,5.641038418E0
8.959747870E-1,-6.347328186E0,-2.932897091E0,5.375282288E0
9.009743870E-1,-6.234800339E0,-3.239354849E0,5.217264652E0
9.059734530E-1,-6.134243965E0,-3.488351822E0,4.994604111E0
9.109734190E-1,-6.040870190E0,-3.696647406E0,4.690241337E0
9.159733850E-1,-5.976226807E0,-3.857059002E0,4.362235546E0
9.209727180E-1,-5.995380402E0,-3.938461781E0,4.043806553E0
9.259727180E-1,-6.050446987E0,-3.981557369E0,3.780444384E0
9.309727510E-1,-6.191704750E0,-3.955221176E0,3.536235809E0
9.359727840E-1,-6.340145588E0,-3.902548790E0,3.337517262E0
9.409728170E-1,-6.462249756E0,-3.849876404E0,3.217807055E0
9.459728170E-1,-6.572382927E0,-3.811569214E0,3.205836058E0
9.509728170E-1,-6.704063892E0,-3.782838583E0,3.224989653E0
9.559727830E-1,-6.881235123E0,-3.737348795E0,3.253720045E0
9.609734490E-1,-7.132626057E0,-3.651157618E0,3.260902643E0
9.659734490E-1,-7.362469673E0,-3.620033026E0,3.325546265E0
9.709734820E-1,-7.458237648E0,-3.806780815E0,3.354276657E0
9.759734820E-1,-7.474997044E0,-3.950432777E0,3.306392431E0
9.809734820E-1,-7.436689854E0,-4.074931145E0,3.098097086E0
9.859734480E-1,-7.381623268E0,-4.173093796E0,2.796427488E0
9.909742480E-1,-7.360075474E0,-4.242525578E0,2.463633537E0
9.959750810E-1,-7.338527679E0,-4.288015366E0,2.152387381E0
1.000975947E0,-7.247547626E0,-4.309563160E0,1.845929503E0
1.005975980E0,-7.094318867E0,-4.295197964E0,1.534683347E0
1.010976680E0,-6.931513309E0,-4.252102375E0,1.276109457E0
1.015977380E0,-6.759130478E0,-4.209006786E0,1.154005170E0
1.020977713E0,-6.524498940E0,-4.175487995E0,1.163581967E0
1.025977979E0,-6.220435143E0,-4.110844135E0,1.304839969E0
1.030977712E0,-5.839757442E0,-4.043806553E0,1.479616642E0
1.035977012E0,-5.406406879E0,-3.957615376E0,1.589749932E0
1.040977678E0,-4.987421513E0,-3.895366192E0,1.651999116E0
1.045977444E0,-4.635174274E0,-3.859453201E0,1.647210717E0
1.050977877E0,-4.347870350E0,-3.825934410E0,1.623268723E0
1.055978777E0,-4.098873138E0,-3.806780815E0,1.611297727E0
1.060978777E0,-4.132391930E0,-3.821146011E0,1.429338455E0
1.065978110E0,-4.980238914E0,-3.919308186E0,8.212111592E-1
1.070978110E0,-6.148609161E0,-4.113238335E0,-1.747767180E-1
1.075978110E0,-7.501333237E0,-4.309563160E0,-1.055842996E0
1.080978076E0,-8.391976357E0,-4.510675907E0,-2.121262789E0
1.085977176E0,-9.342473984E0,-4.745307922E0,-2.420537949E0
1.090976276E0,-9.926659584E0,-5.097554684E0,-2.391807556E0
1.095976309E0,-1.002721596E1,-5.614702225E0,-1.958456993E0
1.100975409E0,-9.914688110E0,-6.213252544E0,-1.003170490E0
1.105975009E0,-9.409511566E0,-6.766313076E0,4.788403399E-3
1.110974275E0,-9.141361237E0,-7.163750648E0,1.403002143E0
1.115973375E0,-8.894758224E0,-7.343316078E0,2.454056740E0
1.120973108E0,-8.605060577E0,-7.386411667E0,3.114856482E0
1.125972474E0,-7.961019993E0,-7.295432091E0,3.095702887E0
1.130971807E0,-7.403171062E0,-7.127837658E0,2.746149302E0
1.135971807E0,-7.180510044E0,-6.907571316E0,2.382230759E0
1.140971773E0,-7.065588474E0,-6.613084316E0,1.908178806E0
1.145971106E0,-6.965032101E0,-6.342539787E0,1.501164436E0
1.150970439E0,-7.000945091E0,-6.141426563E0,1.379060149E0
1.155970839E0,-7.022492886E0,-5.995380402E0,1.362300754E0
1.160970839E0,-7.034463882E0,-5.969044209E0,1.352723956E0
1.165970839E0,-6.960243702E0,-6.033687592E0,1.309628367E0
1.170970872E0,-6.797437668E0,-6.146214962E0,1.254561663E0
1.175971305E0,-6.572382927E0,-6.361693382E0,1.259350061E0
1.180972205E0,-6.366481781E0,-6.593930721E0,1.304839969E0
1.185973071E0,-6.129455566E0,-6.783072472E0,1.285686255E0
1.190973037E0,-5.868487835E0,-6.883629322E0,1.130063176E0
1.195973037E0,-5.514145851E0,-6.988974094E0,8.619126081E-1
1.200973037E0,-5.145438671E0,-7.089530468E0,4.141969085E-1
1.205973070E0,-4.809951305E0,-7.407959461E0,-7.445967197E-1
1.210973070E0,-4.491522312E0,-7.803002834E0,-1.857900500E0
1.215973736E0,-4.204218388E0,-8.375216484E0,-2.703053713E0
1.220974402E0,-3.950432777E0,-9.016862869E0,-3.167528868E0
1.225974402E0,-3.768473387E0,-9.636960983E0,-3.327940464E0
1.230973968E0,-3.615244627E0,-1.021396351E1,-3.320757866E0
1.235974834E0,-3.418920040E0,-1.058267117E1,-3.191470861E0
1.240975734E0,-3.138798475E0,-1.053478718E1,-2.968810081E0
1.245975734E0,-2.940079689E0,-1.022114658E1,-2.638410330E0
1.250976667E0,-2.846705914E0,-9.866804123E0,-2.284068346E0
1.255977067E0,-2.762908697E0,-9.385569572E0,-1.831564307E0
1.260977767E0,-2.657563925E0,-8.882787704E0,-1.359906554E0
1.265978633E0,-2.509123325E0,-8.300996780E0,-8.451532125E-1
1.270978899E0,-2.286462545E0,-7.714416981E0,-4.022258818E-1
1.275979565E0,-1.975216389E0,-7.142202854E0,-9.337386489E-2
1.280980265E0,-1.628057122E0,-6.560411930E0,6.703764945E-2
1.285980265E0,-1.307234168E0,-6.004957199E0,1.029506698E-1
1.290980298E0,-9.983820915E-1,-5.538087845E0,8.619125932E-2
1.295980964E0,-6.584054828E-1,-5.164592266E0,1.173158810E-1
1.300981630E0,-3.423708379E-1,-4.862623692E0,2.274491638E-1
1.305981196E0,3.567360640E-1,-4.937143326E0,6.272808313E-1
1.310981162E0,1.213860273E0,-5.243600845E0,1.094150186E0
1.315981128E0,2.272097349E0,-5.844545841E0,1.568202138E0
1.320980794E0,3.102885485E0,-6.517316341E0,1.898601890E0
1.325980127E0,3.507505417E0,-7.168539047E0,2.154781580E0
1.330979493E0,3.555389643E0,-7.700051785E0,2.592920542E0
1.335979493E0,3.282450438E0,-8.056788445E0,3.471592426E0
1.340978826E0,2.896984100E0,-8.372822762E0,4.424484730E0
1.345979292E0,2.410961151E0,-8.648156166E0,5.164592266E0
1.350979258E0,1.922544003E0,-8.885181427E0,5.502174854E0
1.355979224E0,1.244984865E0,-9.548376083E0,5.071218491E0
1.360979224E0,6.224924326E-1,-1.013016701E1,4.072536945E0
1.365979257E0,3.423708379E-1,-1.051323891E1,2.841917515E0
1.370979290E0,3.591302633E-1,-1.076702404E1,1.728613615E0
1.375979323E0,6.847416759E-1,-1.083885002E1,5.219359994E-1
1.380979756E0,1.106121182E0,-1.108066463E1,-3.112462163E-1
1.385979356E0,1.271321058E0,-1.149007320E1,-8.690952063E-1
1.390980356E0,1.577778935E0,-1.182526112E1,-9.696516991E-1
1.395980356E0,1.704671621E0,-1.215087318E1,-6.607996821E-1
1.400980356E0,1.608903527E0,-1.241184044E1,-2.322375625E-1
1.405980389E0,1.223437071E0,-1.259858894E1,3.830722570E-1
1.410980389E0,7.757213712E-1,-1.263928986E1,9.481038451E-1
1.415980389E0,3.327940404E-1,-1.239747524E1,1.414973259E0
1.420980355E0,0.000000000E0,-1.216763210E1,1.963245392E0
1.425980321E0,-2.011129409E-1,-1.202637482E1,2.473210335E0
1.430980287E0,-3.016694188E-1,-1.175343513E1,2.822763920E0
1.435980287E0,-2.633621991E-1,-1.147331429E1,3.052607059E0
1.440980287E0,-1.532289088E-1,-1.123628807E1,3.208230257E0
1.445980320E0,7.661445439E-2,-1.098729134E1,3.248931646E0
1.450980353E0,3.208230138E-1,-1.074547672E1,3.213018656E0
1.455980386E0,6.320692301E-1,-1.052521038E1,2.827552319E0
1.460980386E0,9.121908545E-1,-1.036719227E1,2.334346771E0
1.465980386E0,1.204283476E0,-1.026903057E1,1.929726601E0
1.470980686E0,1.520318031E0,-1.020917511E1,1.668758631E0
1.475981352E0,1.821987510E0,-1.017326260E1,1.553836942E0
1.480982018E0,2.106897593E0,-1.015650272E1,1.570596337E0
1.485982051E0,2.389413357E0,-1.015650272E1,1.673547029E0
1.490982717E0,2.626439333E0,-1.013974380E1,1.781286120E0
1.495982217E0,2.784456491E0,-1.009904194E1,1.893813491E0
1.500982217E0,2.873042107E0,-1.000566864E1,1.975216389E0
1.505982217E0,2.911349297E0,-9.881169319E0,2.042253971E0
1.510982217E0,2.798821688E0,-9.739912033E0,2.061407566E0
1.515982183E0,2.346317768E0,-9.907505989E0,2.078166962E0
1.520982183E0,2.296039343E0,-1.029297256E1,2.339135170E0
1.525982183E0,3.009511471E0,-1.072871685E1,2.813186884E0
1.530982216E0,4.139574528E0,-1.102559853E1,3.248931646E0
1.535982616E0,4.951508522E0,-1.109263611E1,3.423708439E0
1.540981816E0,5.281908035E0,-1.101841545E1,3.380612850E0
1.545981782E0,4.956296921E0,-1.076941872E1,3.155557871E0
1.550981748E0,4.450820923E0,-1.049647999E1,2.901772499E0
1.555981748E0,3.799597979E0,-1.027381897E1,2.712630510E0
1.560981781E0,3.239354849E0,-1.008707142E1,2.628833532E0
1.565981814E0,2.901772499E0,-9.960178375E0,2.643198729E0
1.570981814E0,2.789244890E0,-9.912294388E0,2.741360903E0
1.575981814E0,2.877830505E0,-9.931447983E0,2.861071110E0
1.580981814E0,3.038241863E0,-9.950601578E0,2.961627483E0
1.585981814E0,3.239354849E0,-9.969755173E0,3.033453465E0
1.590981814E0,3.409343243E0,-9.981725693E0,3.076549292E0
1.595981780E0,3.533841610E0,-9.993697166E0,3.086126089E0
1.600981780E0,3.610456228E0,-9.986514091E0,3.071760893E0
1.605981780E0,3.646369219E0,-9.979331970E0,3.047818661E0
1.610981813E0,3.663128614E0,-9.964966774E0,3.023876667E0
1.615981813E0,3.677493811E0,-9.957783699E0,3.002328873E0
1.620981813E0,3.701435804E0,-9.955389977E0,2.985569477E0
1.625981779E0,3.730166197E0,-9.967360497E0,2.975992680E0
1.630981779E0,3.761290789E0,-9.984120369E0,2.966415882E0
1.635981779E0,3.799597979E0,-1.001285076E1,2.961627483E0
1.640981812E0,3.835511208E0,-1.003679276E1,2.961627483E0
1.645981812E0,3.878606796E0,-1.007031155E1,2.975992680E0
1.650980912E0,3.924096584E0,-1.009185982E1,2.995146275E0
1.655980912E0,3.962403774E0,-1.010383034E1,3.035847664E0
1.660980912E0,3.983951569E0,-1.011580181E1,3.098097086E0
1.665980912E0,3.988739967E0,-1.011819553E1,3.172317266E0
1.670980878E0,3.983951569E0,-1.010143661E1,3.253720045E0
1.675980844E0,3.971980572E0,-1.005834103E1,3.335123062E0
1.680980844E0,3.960009575E0,-1.001285076E1,3.404554844E0
1.685980877E0,3.952826977E0,-9.957783699E0,3.454833031E0
1.690980677E0,3.943250179E0,-9.897929192E0,3.488351822E0
1.695980677E0,3.926490784E0,-9.806949615E0,3.505111217E0
1.700980677E0,3.892971992E0,-9.694421768E0,3.517082214E0
1.705980643E0,3.861847401E0,-9.562741280E0,3.517082214E0
1.710980609E0,3.842693806E0,-9.416694641E0,3.512293816E0
1.715980575E0,3.837905407E0,-9.251494408E0,3.497928619E0
1.720980575E0,3.864241600E0,-9.076718330E0,3.476380825E0
1.725980608E0,3.914519787E0,-8.880393028E0,3.445256233E0
1.730980641E0,3.974374771E0,-8.698433876E0,3.404554844E0
1.735980674E0,4.046200752E0,-8.530839920E0,3.356670856E0
1.740980674E0,4.103661537E0,-8.380004883E0,3.313575268E0
1.745980674E0,4.146757126E0,-8.298602104E0,3.258508444E0
1.750980640E0,4.175487995E0,-8.281843185E0,3.208230257E0
1.755980640E0,4.173093796E0,-8.315361977E0,3.186682463E0
1.760980640E0,4.156333923E0,-8.391976357E0,3.193865061E0
1.765981840E0,4.137180328E0,-8.478167534E0,3.232172251E0
1.770981840E0,4.101267338E0,-8.557176590E0,3.296815634E0
1.775981173E0,4.058171749E0,-8.590695381E0,3.385401249E0
1.780980473E0,4.034229755E0,-8.602665901E0,3.466804028E0
1.785979773E0,4.036623955E0,-8.583512306E0,3.514688015E0
1.790979739E0,4.043806553E0,-8.559570312E0,3.538630009E0
1.795979072E0,4.058171749E0,-8.518868446E0,3.529053211E0
1.800979972E0,4.067748547E0,-8.475772858E0,3.495534420E0
1.805980005E0,4.072536945E0,-8.437465668E0,3.450044632E0
1.810980038E0,4.077325344E0,-8.411129951E0,3.406949043E0
1.815980071E0,4.079719543E0,-8.389581680E0,3.368641853E0
1.820980071E0,4.070142746E0,-8.375216484E0,3.342305660E0
1.825980071E0,4.060565948E0,-8.365639687E0,3.327940464E0
1.830980037E0,4.053383350E0,-8.363245964E0,3.318363667E0
1.835980037E0,4.050989151E0,-8.360851288E0,3.320757866E0
1.840980037E0,4.050989151E0,-8.363245964E0,3.330334663E0
1.845980070E0,4.058171749E0,-8.372822762E0,3.337517262E0
1.850980070E0,4.072536945E0,-8.382399559E0,3.344699860E0
1.855980070E0,4.086902142E0,-8.382399559E0,3.354276657E0
1.860980070E0,4.103661537E0,-8.375216484E0,3.356670856E0
1.865980070E0,4.115632534E0,-8.363245964E0,3.356670856E0
1.870980070E0,4.122815132E0,-8.344092369E0,3.354276657E0
1.875980036E0,4.122815132E0,-8.315361977E0,3.342305660E0
1.880980036E0,4.118026733E0,-8.286631584E0,3.330334663E0
1.885980036E0,4.106055737E0,-8.260294914E0,3.315969467E0
1.890980069E0,4.091690540E0,-8.236352921E0,3.299209833E0
1.895980069E0,4.072536945E0,-8.221987724E0,3.282450438E0
1.900980069E0,4.058171749E0,-8.210017204E0,3.270479441E0
1.905980035E0,4.041412354E0,-8.212410927E0,3.258508444E0
1.910980035E0,4.029441357E0,-8.219594002E0,3.251325846E0
1.915978668E0,4.022258759E0,-8.231564522E0,3.248931646E0
1.920978701E0,4.019864559E0,-8.243535995E0,3.244143248E0
1.925979401E0,4.012681961E0,-8.260294914E0,3.244143248E0
1.930980067E0,4.010287762E0,-8.274660110E0,3.246537447E0
1.935980733E0,4.010287762E0,-8.281843185E0,3.251325846E0
1.940980733E0,4.010287762E0,-8.291419983E0,3.258508444E0
1.945981399E0,4.007893562E0,-8.298602104E0,3.265691042E0
1.950981399E0,4.005499363E0,-8.305785179E0,3.280056238E0
1.955981365E0,3.998316765E0,-8.305785179E0,3.294421434E0
1.960981365E0,3.993528366E0,-8.308178902E0,3.306392431E0
1.965981365E0,3.988739967E0,-8.308178902E0,3.318363667E0
1.970981398E0,3.988739967E0,-8.303390503E0,3.325546265E0
1.975980731E0,3.991134167E0,-8.296208382E0,3.330334663E0
1.980980731E0,3.993528366E0,-8.293813705E0,3.330334663E0
1.985980697E0,3.991134167E0,-8.293813705E0,3.327940464E0
1.990980697E0,3.991134167E0,-8.293813705E0,3.323152065E0
1.995980697E0,3.998316765E0,-8.298602104E0,3.315969467E0
2.000980730E0,4.005499363E0,-8.300996780E0,3.303998232E0
2.005980730E0,4.015076160E0,-8.303390503E0,3.296815634E0
2.010980730E0,4.024652958E0,-8.303390503E0,3.284844637E0
2.015980730E0,4.031835556E0,-8.303390503E0,3.275267839E0
2.020980730E0,4.039018154E0,-8.305785179E0,3.268085241E0
2.025980063E0,4.043806553E0,-8.303390503E0,3.263296843E0
2.030980029E0,4.039018154E0,-8.305785179E0,3.263296843E0
2.035980029E0,4.034229755E0,-8.303390503E0,3.268085241E0
2.040979629E0,4.031835556E0,-8.305785179E0,3.272873640E0
2.045979262E0,4.019864559E0,-8.303390503E0,3.284844637E0
2.050979295E0,4.007893562E0,-8.300996780E0,3.299209833E0
2.055979295E0,3.993528366E0,-8.300996780E0,3.315969467E0
2.060979261E0,3.981557369E0,-8.300996780E0,3.327940464E0
2.065979394E0,3.971980572E0,-8.300996780E0,3.339911461E0
2.070979394E0,3.964797974E0,-8.298602104E0,3.347094059E0
2.075979394E0,3.969586372E0,-8.296208382E0,3.351882458E0
2.080979427E0,3.976768970E0,-8.296208382E0,3.354276657E0
2.085978760E0,3.991134167E0,-8.300996780E0,3.349488258E0
2.090978093E0,4.007893562E0,-8.298602104E0,3.339911461E0
2.095978093E0,4.022258759E0,-8.293813705E0,3.330334663E0
2.100978093E0,4.039018154E0,-8.289025307E0,3.315969467E0
2.105978093E0,4.050989151E0,-8.284236908E0,3.301604033E0
2.110978059E0,4.060565948E0,-8.274660110E0,3.289633036E0
2.115978059E0,4.060565948E0,-8.267477989E0,3.277662039E0
2.120978059E0,4.055777550E0,-8.260294914E0,3.265691042E0
2.125978759E0,4.041412354E0,-8.253112793E0,3.258508444E0
2.130978759E0,4.027047157E0,-8.253112793E0,3.256114244E0
2.135978759E0,4.010287762E0,-8.255506516E0,3.253720045E0
2.140978725E0,3.993528366E0,-8.262689590E0,3.256114244E0
2.145978725E0,3.979163170E0,-8.267477989E0,3.256114244E0
2.150978725E0,3.967192173E0,-8.277054787E0,3.258508444E0
2.155978758E0,3.952826977E0,-8.291419983E0,3.265691042E0
2.160978758E0,3.940855980E0,-8.305785179E0,3.272873640E0
2.165978758E0,3.933673382E0,-8.317755699E0,3.287238836E0
2.170978758E0,3.928884983E0,-8.329727173E0,3.301604033E0
2.175979424E0,3.931279182E0,-8.336909294E0,3.313575268E0
2.180979424E0,3.938461781E0,-8.344092369E0,3.323152065E0
2.185979390E0,3.945644379E0,-8.348880768E0,3.325546265E0
2.190979756E0,3.952826977E0,-8.351274490E0,3.318363667E0
2.195980156E0,3.960009575E0,-8.356062889E0,3.313575268E0
2.200980156E0,3.967192173E0,-8.353669167E0,3.311181068E0
2.205980189E0,3.969586372E0,-8.348880768E0,3.311181068E0
2.210980189E0,3.969586372E0,-8.341697693E0,3.315969467E0
2.215980222E0,3.969586372E0,-8.332120895E0,3.323152065E0
2.220980188E0,3.960009575E0,-8.317755699E0,3.332728863E0
2.225980154E0,3.955221176E0,-8.296208382E0,3.344699860E0
2.230980120E0,3.955221176E0,-8.281843185E0,3.356670856E0
2.235980786E0,3.948038578E0,-8.284236908E0,3.363853455E0
2.240981486E0,3.943250179E0,-8.293813705E0,3.363853455E0
2.245981519E0,3.940855980E0,-8.308178902E0,3.368641853E0
2.250981552E0,3.945644379E0,-8.320150375E0,3.371036053E0
2.255981552E0,3.952826977E0,-8.329727173E0,3.366247654E0
2.260981552E0,3.962403774E0,-8.339303970E0,3.361459255E0
2.265981518E0,3.969586372E0,-8.341697693E0,3.351882458E0
2.270981518E0,3.976768970E0,-8.341697693E0,3.342305660E0
2.275981518E0,3.988739967E0,-8.332120895E0,3.335123062E0
2.280981551E0,3.988739967E0,-8.329727173E0,3.323152065E0
2.285981551E0,3.998316765E0,-8.329727173E0,3.303998232E0
2.290981551E0,4.022258759E0,-8.322544098E0,3.294421434E0
2.295981517E0,4.027047157E0,-8.310573578E0,3.289633036E0
2.300981483E0,4.022258759E0,-8.310573578E0,3.284844637E0
2.305981449E0,4.024652958E0,-8.300996780E0,3.282450438E0
2.310981449E0,4.031835556E0,-8.296208382E0,3.282450438E0
2.315981449E0,4.034229755E0,-8.291419983E0,3.284844637E0
2.320981482E0,4.034229755E0,-8.289025307E0,3.284844637E0
2.325981515E0,4.041412354E0,-8.284236908E0,3.287238836E0
2.330981548E0,4.048594952E0,-8.277054787E0,3.294421434E0
2.335981548E0,4.046200752E0,-8.277054787E0,3.299209833E0
2.340981548E0,4.046200752E0,-8.284236908E0,3.301604033E0
2.345981514E0,4.043806553E0,-8.286631584E0,3.301604033E0
2.350981514E0,4.039018154E0,-8.289025307E0,3.303998232E0
2.355981514E0,4.029441357E0,-8.293813705E0,3.303998232E0
2.360981547E0,4.027047157E0,-8.296208382E0,3.299209833E0
2.365981547E0,4.031835556E0,-8.293813705E0,3.301604033E0
2.370981547E0,4.024652958E0,-8.286631584E0,3.303998232E0
2.375981547E0,4.007893562E0,-8.281843185E0,3.306392431E0
2.380981547E0,3.995922565E0,-8.281843185E0,3.303998232E0
2.385981547E0,3.998316765E0,-8.286631584E0,3.308786631E0
2.390981513E0,3.995922565E0,-8.291419983E0,3.315969467E0
2.395981513E0,3.988739967E0,-8.298602104E0,3.327940464E0
2.400981513E0,3.986345768E0,-8.300996780E0,3.342305660E0
2.405981546E0,3.995922565E0,-8.300996780E0,3.361459255E0
2.410981546E0,4.000710964E0,-8.303390503E0,3.380612850E0
2.415981546E0,4.003105164E0,-8.303390503E0,3.397372246E0
2.420981512E0,4.005499363E0,-8.298602104E0,3.404554844E0
2.425981478E0,4.005499363E0,-8.289025307E0,3.406949043E0
2.430981444E0,4.005499363E0,-8.286631584E0,3.402160645E0
2.435981444E0,4.003105164E0,-8.286631584E0,3.390189648E0
2.440981444E0,3.995922565E0,-8.284236908E0,3.375824451E0
2.445981477E0,3.998316765E0,-8.274660110E0,3.363853455E0
2.450981510E0,3.993528366E0,-8.260294914E0,3.349488258E0
2.455981543E0,3.988739967E0,-8.243535995E0,3.337517262E0
2.460981543E0,3.991134167E0,-8.238747597E0,3.330334663E0
2.465981543E0,3.988739967E0,-8.241141319E0,3.330334663E0
2.470981509E0,3.983951569E0,-8.243535995E0,3.335123062E0
2.475981509E0,3.979163170E0,-8.250718117E0,3.342305660E0
2.480981509E0,3.988739967E0,-8.257901192E0,3.351882458E0
2.485981542E0,4.007893562E0,-8.257901192E0,3.366247654E0
2.490981542E0,4.027047157E0,-8.257901192E0,3.390189648E0
2.495981542E0,4.022258759E0,-8.257901192E0,3.416525841E0
2.500981508E0,4.015076160E0,-8.265083313E0,3.433285236E0
2.505981474E0,4.012681961E0,-8.274660110E0,3.435679436E0
2.510981440E0,4.017470360E0,-8.277054787E0,3.433285236E0
2.515981440E0,4.017470360E0,-8.274660110E0,3.426102638E0
2.520981473E0,4.017470360E0,-8.277054787E0,3.416525841E0
2.525981506E0,4.027047157E0,-8.284236908E0,3.399766445E0
2.530981539E0,4.043806553E0,-8.291419983E0,3.383007050E0
2.535981539E0,4.065354347E0,-8.296208382E0,3.371036053E0
2.540981539E0,4.084507942E0,-8.298602104E0,3.366247654E0
2.545981505E0,4.110844135E0,-8.291419983E0,3.366247654E0
2.550981471E0,4.122815132E0,-8.286631584E0,3.366247654E0
2.555981471E0,4.134786129E0,-8.281843185E0,3.363853455E0
2.560981504E0,4.141968727E0,-8.279448509E0,3.356670856E0
2.565981537E0,4.158728123E0,-8.272266388E0,3.351882458E0
2.570981537E0,4.170699596E0,-8.255506516E0,3.354276657E0
2.575981537E0,4.173093796E0,-8.248324394E0,3.361459255E0
2.580981537E0,4.175487995E0,-8.241141319E0,3.363853455E0
2.585981537E0,4.182670593E0,-8.231564522E0,3.368641853E0
2.590981537E0,4.189853191E0,-8.224382401E0,3.371036053E0
2.595981503E0,4.185064793E0,-8.210017204E0,3.368641853E0
2.600981503E0,4.175487995E0,-8.198045731E0,3.361459255E0
2.605981503E0,4.163516521E0,-8.186075211E0,3.347094059E0
2.610981536E0,4.153939724E0,-8.181286812E0,3.332728863E0
2.615981536E0,4.137180328E0,-8.181286812E0,3.315969467E0
2.620981536E0,4.115632534E0,-8.183680534E0,3.301604033E0
2.625981502E0,4.094084740E0,-8.190863609E0,3.287238836E0
2.630981502E0,4.070142746E0,-8.205228806E0,3.275267839E0
2.635981502E0,4.048594952E0,-8.226776123E0,3.263296843E0
2.640981535E0,4.034229755E0,-8.241141319E0,3.256114244E0
2.645981535E0,4.031835556E0,-8.250718117E0,3.260902643E0
2.650981535E0,4.029441357E0,-8.257901192E0,3.275267839E0
2.655981535E0,4.019864559E0,-8.269871712E0,3.301604033E0
2.660981535E0,4.010287762E0,-8.281843185E0,3.327940464E0
2.665981535E0,4.003105164E0,-8.291419983E0,3.356670856E0
2.670981501E0,4.005499363E0,-8.298602104E0,3.378218651E0
2.675981467E0,4.012681961E0,-8.300996780E0,3.399766445E0
2.680981467E0,4.022258759E0,-8.300996780E0,3.418920040E0
2.685981500E0,4.029441357E0,-8.303390503E0,3.430891037E0
2.690981533E0,4.036623955E0,-8.305785179E0,3.438073635E0
2.695981533E0,4.043806553E0,-8.303390503E0,3.440467834E0
2.700981533E0,4.043806553E0,-8.303390503E0,3.435679436E0
2.705981499E0,4.036623955E0,-8.303390503E0,3.423708439E0
2.710981499E0,4.024652958E0,-8.305785179E0,3.404554844E0
2.715981499E0,4.007893562E0,-8.308178902E0,3.383007050E0
2.720981532E0,3.988739967E0,-8.305785179E0,3.363853455E0
2.725981532E0,3.964797974E0,-8.305785179E0,3.344699860E0
2.730981532E0,3.940855980E0,-8.305785179E0,3.327940464E0
2.735981532E0,3.926490784E0,-8.298602104E0,3.311181068E0
2.740981532E0,3.921702385E0,-8.286631584E0,3.301604033E0
2.745981532E0,3.924096584E0,-8.277054787E0,3.294421434E0
2.750981498E0,3.931279182E0,-8.269871712E0,3.289633036E0
2.755981498E0,3.936067581E0,-8.265083313E0,3.294421434E0
2.760981498E0,3.943250179E0,-8.267477989E0,3.301604033E0
2.765981531E0,3.945644379E0,-8.281843185E0,3.303998232E0
2.770981531E0,3.962403774E0,-8.289025307E0,3.308786631E0
2.775981531E0,3.991134167E0,-8.284236908E0,3.318363667E0
2.780981497E0,4.034229755E0,-8.272266388E0,3.337517262E0
2.785981463E0,4.074931145E0,-8.262689590E0,3.359065056E0
2.790981429E0,4.108449936E0,-8.262689590E0,3.383007050E0
2.795981429E0,4.137180328E0,-8.262689590E0,3.392583847E0
2.800981429E0,4.156333923E0,-8.262689590E0,3.394978046E0
2.805981462E0,4.165910721E0,-8.267477989E0,3.390189648E0
2.810981495E0,4.163516521E0,-8.274660110E0,3.375824451E0
2.815981528E0,4.158728123E0,-8.279448509E0,3.351882458E0
2.820981528E0,4.153939724E0,-8.277054787E0,3.323152065E0
2.825981528E0,4.144362926E0,-8.277054787E0,3.292027235E0
2.830981494E0,4.132391930E0,-8.272266388E0,3.258508444E0
2.835981494E0,4.118026733E0,-8.267477989E0,3.232172251E0
2.840981494E0,4.110844135E0,-8.267477989E0,3.208230257E0
2.845981527E0,4.118026733E0,-8.267477989E0,3.193865061E0
2.850981527E0,4.127603531E0,-8.272266388E0,3.184288263E0
2.855981527E0,4.137180328E0,-8.277054787E0,3.179499865E0
2.860981493E0,4.146757126E0,-8.281843185E0,3.186682463E0
2.865981459E0,4.153939724E0,-8.289025307E0,3.193865061E0
2.870981425E0,4.163516521E0,-8.293813705E0,3.205836058E0
2.875981425E0,4.175487995E0,-8.300996780E0,3.220201254E0
2.880981458E0,4.185064793E0,-8.305785179E0,3.236960649E0
2.885981491E0,4.182670593E0,-8.310573578E0,3.251325846E0
2.890981524E0,4.173093796E0,-8.312967300E0,3.265691042E0
2.895981524E0,4.165910721E0,-8.312967300E0,3.275267839E0
2.900981524E0,4.158728123E0,-8.315361977E0,3.282450438E0
2.905981490E0,4.146757126E0,-8.317755699E0,3.284844637E0
2.910981490E0,4.127603531E0,-8.317755699E0,3.284844637E0
2.915981490E0,4.108449936E0,-8.317755699E0,3.282450438E0
2.920981523E0,4.086902142E0,-8.317755699E0,3.280056238E0
2.925981556E0,4.070142746E0,-8.317755699E0,3.275267839E0
2.930981556E0,4.055777550E0,-8.322544098E0,3.270479441E0
2.935981556E0,4.050989151E0,-8.327332497E0,3.263296843E0
2.940981556E0,4.050989151E0,-8.329727173E0,3.256114244E0
2.945981556E0,4.050989151E0,-8.327332497E0,3.246537447E0
2.950981556E0,4.053383350E0,-8.327332497E0,3.239354849E0
2.955981522E0,4.055777550E0,-8.324938774E0,3.234566450E0
2.960981522E0,4.055777550E0,-8.324938774E0,3.229778051E0
2.965981522E0,4.053383350E0,-8.322544098E0,3.229778051E0
2.970981555E0,4.058171749E0,-8.315361977E0,3.229778051E0
2.975981555E0,4.065354347E0,-8.305785179E0,3.234566450E0
2.980981555E0,4.072536945E0,-8.296208382E0,3.239354849E0
2.985981521E0,4.074931145E0,-8.289025307E0,3.244143248E0
2.990981521E0,4.079719543E0,-8.279448509E0,3.253720045E0
2.995981521E0,4.084507942E0,-8.277054787E0,3.263296843E0
3.000981554E0,4.086902142E0,-8.277054787E0,3.272873640E0
3.005981554E0,4.091690540E0,-8.281843185E0,3.275267839E0
3.010981554E0,4.091690540E0,-8.284236908E0,3.280056238E0
3.015981554E0,4.089296341E0,-8.284236908E0,3.282450438E0
3.020981554E0,4.086902142E0,-8.286631584E0,3.280056238E0
3.025981554E0,4.082113743E0,-8.286631584E0,3.280056238E0
3.030980854E0,4.077325344E0,-8.289025307E0,3.272873640E0
3.035979954E0,4.070142746E0,-8.291419983E0,3.268085241E0
3.040979954E0,4.065354347E0,-8.289025307E0,3.263296843E0
3.045979987E0,4.062960148E0,-8.291419983E0,3.256114244E0
3.050979353E0,4.058171749E0,-8.298602104E0,3.248931646E0
3.055978686E0,4.058171749E0,-8.303390503E0,3.246537447E0
3.060978652E0,4.062960148E0,-8.310573578E0,3.244143248E0
3.065978618E0,4.070142746E0,-8.310573578E0,3.246537447E0
3.070978184E0,4.074931145E0,-8.310573578E0,3.246537447E0
3.075977250E0,4.082113743E0,-8.308178902E0,3.251325846E0
3.080976583E0,4.091690540E0,-8.305785179E0,3.258508444E0
3.085976616E0,4.098873138E0,-8.308178902E0,3.268085241E0
3.090976816E0,4.101267338E0,-8.303390503E0,3.275267839E0
3.095976849E0,4.098873138E0,-8.300996780E0,3.282450438E0
3.100976849E0,4.098873138E0,-8.300996780E0,3.284844637E0
3.105976849E0,4.096478939E0,-8.298602104E0,3.289633036E0
3.110976815E0,4.098873138E0,-8.303390503E0,3.292027235E0
3.115976815E0,4.103661537E0,-8.305785179E0,3.292027235E0
3.120976815E0,4.108449936E0,-8.308178902E0,3.296815634E0
3.125976848E0,4.108449936E0,-8.317755699E0,3.299209833E0
3.133860537E0,4.108449936E0,-8.324938774E0,3.301604033E0
3.138860537E0,4.108449936E0,-8.332120895E0,3.306392431E0
3.143860503E0,4.108449936E0,-8.334515572E0,3.308786631E0
3.148860469E0,4.106055737E0,-8.329727173E0,3.313575268E0
3.153860435E0,4.103661537E0,-8.327332497E0,3.313575268E0
3.158860435E0,4.101267338E0,-8.322544098E0,3.311181068E0
3.163860468E0,4.091690540E0,-8.317755699E0,3.306392431E0
3.168860501E0,4.089296341E0,-8.310573578E0,3.301604033E0
3.173860534E0,4.084507942E0,-8.305785179E0,3.296815634E0
3.178860567E0,4.082113743E0,-8.300996780E0,3.294421434E0
3.183861233E0,4.079719543E0,-8.296208382E0,3.294421434E0
3.188862099E0,4.072536945E0,-8.293813705E0,3.292027235E0
3.193862065E0,4.072536945E0,-8.289025307E0,3.292027235E0
3.198862065E0,4.072536945E0,-8.284236908E0,3.294421434E0
3.203862731E0,4.067748547E0,-8.284236908E0,3.292027235E0
3.208863431E0,4.062960148E0,-8.281843185E0,3.284844637E0
3.213863431E0,4.060565948E0,-8.269871712E0,3.268085241E0
3.218863431E0,4.048594952E0,-8.255506516E0,3.248931646E0
3.223864164E0,4.036623955E0,-8.238747597E0,3.232172251E0
3.228865064E0,4.024652958E0,-8.226776123E0,3.220201254E0
3.233865730E0,4.019864559E0,-8.219594002E0,3.213018656E0
3.238865696E0,4.015076160E0,-8.224382401E0,3.217807055E0
3.243865529E0,4.015076160E0,-8.236352921E0,3.229778051E0
3.248865529E0,4.019864559E0,-8.253112793E0,3.256114244E0
3.253865562E0,4.027047157E0,-8.272266388E0,3.287238836E0
3.258865562E0,4.039018154E0,-8.298602104E0,3.323152065E0
3.263865562E0,4.062960148E0,-8.324938774E0,3.363853455E0
3.268865528E0,4.086902142E0,-8.348880768E0,3.404554844E0
3.273865528E0,4.113238335E0,-8.375216484E0,3.438073635E0
3.278865528E0,4.149151325E0,-8.382399559E0,3.459621429E0
3.283865561E0,4.180276394E0,-8.377611160E0,3.473986626E0
3.288865561E0,4.204218388E0,-8.372822762E0,3.466804028E0
3.293865561E0,4.223371983E0,-8.363245964E0,3.447650433E0
3.298865561E0,4.228160381E0,-8.344092369E0,3.416525841E0
3.303865561E0,4.220977783E0,-8.322544098E0,3.378218651E0
3.308865561E0,4.218583584E0,-8.300996780E0,3.330334663E0
3.313865527E0,4.220977783E0,-8.279448509E0,3.280056238E0
3.318865493E0,4.218583584E0,-8.255506516E0,3.229778051E0
3.323865493E0,4.211400986E0,-8.238747597E0,3.186682463E0
3.328865493E0,4.204218388E0,-8.224382401E0,3.145981073E0
3.333865526E0,4.206612587E0,-8.210017204E0,3.105279684E0
3.338865526E0,4.225766182E0,-8.205228806E0,3.057395458E0
3.343865526E0,4.285621166E0,-8.193257332E0,2.997540474E0
3.348865492E0,4.371812344E0,-8.178892136E0,2.925714493E0
3.353865458E0,4.489128113E0,-8.159738541E0,2.846705914E0
3.358865424E0,4.635174274E0,-8.145373344E0,2.774879694E0
3.363865024E0,4.797980309E0,-8.133402824E0,2.731784105E0
3.368864390E0,4.951508522E0,-8.121431351E0,2.738966703E0
3.373864090E0,5.073612690E0,-8.111854553E0,2.786850691E0
3.378864123E0,5.133467674E0,-8.111854553E0,2.877830505E0
3.383864123E0,5.150227070E0,-8.121431351E0,2.975992680E0
3.388864123E0,5.116708279E0,-8.140584946E0,3.100491285E0
3.393864089E0,5.068824291E0,-8.171710014E0,3.227383852E0
3.398864089E0,5.013757706E0,-8.198045731E0,3.351882458E0
3.403864089E0,4.949114323E0,-8.224382401E0,3.473986626E0
3.408864122E0,4.881777287E0,-8.253112793E0,3.600879431E0
3.413864122E0,4.824316502E0,-8.274660110E0,3.734954596E0
3.418864122E0,4.769249916E0,-8.289025307E0,3.859453201E0
3.423864088E0,4.702212334E0,-8.296208382E0,3.955221176E0
3.428864054E0,4.630385876E0,-8.300996780E0,4.050989151E0
3.433864020E0,4.580107689E0,-8.298602104E0,4.137180328E0
3.438864020E0,4.544194698E0,-8.281843185E0,4.189853191E0
3.443864020E0,4.508281708E0,-8.255506516E0,4.187458992E0
3.448864053E0,4.469974518E0,-8.212410927E0,4.122815132E0
3.453864086E0,4.412513733E0,-8.152556419E0,3.998316765E0
3.458864119E0,4.316745758E0,-8.075942039E0,3.847482204E0
3.463864119E0,4.213795185E0,-7.980173588E0,3.689464808E0
3.468864119E0,4.096478939E0,-7.867646217E0,3.536235809E0
3.473864085E0,4.000710964E0,-7.759906769E0,3.399766445E0
3.478864085E0,3.933673382E0,-7.649773598E0,3.280056238E0
3.483864085E0,3.900154591E0,-7.556399822E0,3.186682463E0
3.488864118E0,3.904942989E0,-7.489362240E0,3.129221678E0
3.493864118E0,3.940855980E0,-7.439084053E0,3.110068083E0
3.498864118E0,4.003105164E0,-7.410353661E0,3.114856482E0
3.503864118E0,4.072536945E0,-7.393594265E0,3.129221678E0
3.508864118E0,4.151545525E0,-7.393594265E0,3.153163671E0
3.513864518E0,4.223371983E0,-7.403171062E0,3.179499865E0
3.518865151E0,4.307168961E0,-7.419930458E0,3.224989653E0
3.523865151E0,4.395754337E0,-7.443872452E0,3.280056238E0
3.528865151E0,4.503493309E0,-7.474997044E0,3.351882458E0
3.533865184E0,4.613626480E0,-7.503727436E0,3.426102638E0
3.538865184E0,4.740519524E0,-7.522881031E0,3.507505417E0
3.543865184E0,4.862623692E0,-7.525275230E0,3.593696833E0
3.548865150E0,4.975450516E0,-7.518092632E0,3.679888010E0
3.553865116E0,5.080795288E0,-7.506121635E0,3.775655985E0
3.558865116E0,5.193322659E0,-7.491756439E0,3.883395195E0
3.563865149E0,5.293879032E0,-7.484573841E0,3.981557369E0
3.568865182E0,5.406406879E0,-7.477391243E0,4.062960148E0
3.573865182E0,5.502174854E0,-7.479785442E0,4.122815132E0
3.578865182E0,5.585971832E0,-7.486968040E0,4.153939724E0
3.583865182E0,5.648221016E0,-7.489362240E0,4.170699596E0
3.588865182E0,5.674557209E0,-7.496544838E0,4.170699596E0
3.593865182E0,5.660192013E0,-7.508515835E0,4.146757126E0
3.598865148E0,5.614702225E0,-7.520486832E0,4.108449936E0
3.603865148E0,5.545270443E0,-7.537246227E0,4.067748547E0
3.608865148E0,5.447108269E0,-7.551611423E0,4.036623955E0
3.613865181E0,5.353734493E0,-7.563582420E0,4.012681961E0
3.618865181E0,5.245995045E0,-7.580341816E0,4.000710964E0
3.623865181E0,5.133467674E0,-7.599495411E0,3.995922565E0
3.628865147E0,5.006575108E0,-7.625831604E0,3.995922565E0
3.633865147E0,4.879383087E0,-7.652167797E0,3.998316765E0
3.638865147E0,4.750096321E0,-7.680898190E0,3.993528366E0
3.643865180E0,4.623203278E0,-7.714416981E0,3.991134167E0
3.648865180E0,4.501099110E0,-7.743147373E0,3.991134167E0
3.653865180E0,4.376600742E0,-7.759906769E0,4.000710964E0
3.658865180E0,4.266467571E0,-7.757512569E0,4.022258759E0
3.663865180E0,4.182670593E0,-7.747935772E0,4.043806553E0
3.668865180E0,4.113238335E0,-7.723993778E0,4.058171749E0
3.673865146E0,4.053383350E0,-7.697657585E0,4.070142746E0
3.678865112E0,4.015076160E0,-7.666532993E0,4.094084740E0
3.683865112E0,4.003105164E0,-7.623437405E0,4.122815132E0
3.688865145E0,3.995922565E0,-7.570765018E0,4.173093796E0
3.693865178E0,3.909731388E0,-7.556399822E0,4.220977783E0
3.698865178E0,3.794809580E0,-7.599495411E0,4.249708176E0
3.703865178E0,3.725377798E0,-7.666532993E0,4.276044369E0
3.708865144E0,3.732560396E0,-7.752724171E0,4.319139957E0
3.713865110E0,3.778050184E0,-7.826944828E0,4.347870350E0
3.718865076E0,3.857059002E0,-7.879617214E0,4.359841347E0
3.723865076E0,3.933673382E0,-7.910741806E0,4.371812344E0
3.728865109E0,4.015076160E0,-7.922712803E0,4.381389141E0
3.733865142E0,4.089296341E0,-7.903559208E0,4.398148537E0
3.738865175E0,4.151545525E0,-7.870040417E0,4.410119534E0
3.743865175E0,4.182670593E0,-7.836521626E0,4.422090530E0
3.748865175E0,4.182670593E0,-7.798214436E0,4.441244125E0
3.753865141E0,4.180276394E0,-7.759906769E0,4.462791920E0
3.758865141E0,4.185064793E0,-7.726387978E0,4.498704910E0
3.763865141E0,4.194641590E0,-7.695263386E0,4.539406300E0
3.768865174E0,4.204218388E0,-7.668927193E0,4.592078686E0
3.773865174E0,4.211400986E0,-7.644985199E0,4.639962673E0
3.778865174E0,4.232948780E0,-7.618649006E0,4.683058739E0
3.783865140E0,4.266467571E0,-7.589918613E0,4.709394932E0
3.788865106E0,4.290409565E0,-7.556399822E0,4.730942726E0
3.793865072E0,4.309563160E0,-7.515698433E0,4.762067318E0
3.798865072E0,4.295197964E0,-7.467814445E0,4.795586109E0
3.803865072E0,4.264073372E0,-7.427113056E0,4.826710701E0
3.808865105E0,4.223371983E0,-7.381623268E0,4.872200489E0
3.813865138E0,4.199429989E0,-7.333739281E0,4.927566528E0
3.818865171E0,4.206612587E0,-7.283460617E0,4.989815712E0
3.823865171E0,4.220977783E0,-7.218817234E0,5.059247494E0
3.828865171E0,4.218583584E0,-7.161356449E0,5.128679276E0
3.833865137E0,4.209006786E0,-7.125443459E0,5.190928459E0
3.838865137E0,4.199429989E0,-7.101501465E0,5.255571842E0
3.843865137E0,4.211400986E0,-7.075165272E0,5.298667431E0
3.848865170E0,4.206612587E0,-7.053617477E0,5.336975098E0
3.853865170E0,4.187458992E0,-7.046434879E0,5.370493889E0
3.858865170E0,4.146757126E0,-7.053617477E0,5.394435883E0
3.863865170E0,4.101267338E0,-7.072771072E0,5.413589478E0
3.868865170E0,4.055777550E0,-7.108684063E0,5.418377876E0
3.873865170E0,4.029441357E0,-7.146991253E0,5.404012680E0
3.878865136E0,3.993528366E0,-7.175721645E0,5.401618481E0
3.883865136E0,3.931279182E0,-7.211634636E0,5.411195278E0
3.888865136E0,3.866635799E0,-7.252336025E0,5.430348873E0
3.893865169E0,3.754108191E0,-7.288249016E0,5.494992256E0
3.898865169E0,3.275267839E0,-7.264307022E0,5.734412193E0
3.903865169E0,2.896984100E0,-7.237970829E0,5.882853031E0
3.908865135E0,2.703053713E0,-7.209240437E0,5.909189224E0
3.913865101E0,2.614468336E0,-7.185298443E0,5.890035629E0
3.918865067E0,2.664746523E0,-7.166144848E0,5.830180645E0
3.923865067E0,2.789244890E0,-7.168539047E0,5.746383190E0
3.928865067E0,2.966415882E0,-7.202057838E0,5.667374611E0
3.933865100E0,3.181894064E0,-7.261912823E0,5.593154430E0
3.938865133E0,3.421314240E0,-7.340921879E0,5.521328449E0
3.943865166E0,3.660734415E0,-7.436689854E0,5.473444462E0
3.948865166E0,3.904942989E0,-7.532457829E0,5.456685066E0
3.953865166E0,4.118026733E0,-7.611466408E0,5.449502468E0
3.958865132E0,4.249708176E0,-7.685686588E0,5.497386456E0
3.963865132E0,4.340687752E0,-7.747935772E0,5.554847240E0
3.968865132E0,4.412513733E0,-7.779060364E0,5.605125427E0
3.973865165E0,4.491522312E0,-7.791031837E0,5.643432617E0
3.978865165E0,4.572925091E0,-7.791031837E0,5.684134007E0
3.983865165E0,4.644751072E0,-7.774271965E0,5.741594791E0
3.988865131E0,4.745307922E0,-7.726387978E0,5.789478779E0
3.993865097E0,4.824316502E0,-7.666532993E0,5.844545841E0
3.998865063E0,4.888959885E0,-7.587524414E0,5.897218227E0
4.003865063E0,4.929960728E0,-7.510910034E0,5.959467411E0
4.008865096E0,4.985027313E0,-7.434295654E0,6.009745598E0
4.013865129E0,5.004180908E0,-7.360075474E0,6.074388981E0
4.018865162E0,5.008969307E0,-7.271489620E0,6.127061367E0
4.023865162E0,5.006575108E0,-7.194875240E0,6.189310551E0
4.028865162E0,5.023334503E0,-7.113472462E0,6.225223541E0
4.033864462E0,5.040093899E0,-7.022492886E0,6.282684326E0
4.038863562E0,5.066430092E0,-6.936301708E0,6.328174591E0
4.043863562E0,5.114314079E0,-6.852504730E0,6.356904984E0
4.048863495E0,5.123890877E0,-6.766313076E0,6.414365768E0
4.053863528E0,5.123890877E0,-6.694487095E0,6.467038155E0
4.058863528E0,5.104737282E0,-6.637026310E0,6.519710541E0
4.063863528E0,5.054459095E0,-6.601113319E0,6.531681538E0
4.068863528E0,4.989815712E0,-6.558017731E0,6.435913563E0
4.073863528E0,4.865017891E0,-6.500556946E0,6.320991993E0
4.078863294E0,4.683058739E0,-6.423942566E0,6.191704750E0
4.083863260E0,4.450820923E0,-6.340145588E0,6.129455566E0
4.088863260E0,4.189853191E0,-6.227617741E0,6.148609161E0
4.093863260E0,3.960009575E0,-6.110301971E0,6.203675747E0
4.098863293E0,3.715801001E0,-5.969044209E0,6.325780392E0
4.103863293E0,3.497928619E0,-5.830180645E0,6.457461357E0
4.108863293E0,3.303998232E0,-5.684134007E0,6.591536522E0
4.113863259E0,3.117250681E0,-5.554847240E0,6.694487095E0
4.118863259E0,2.973598480E0,-5.404012680E0,6.737582684E0
4.123863259E0,2.858676910E0,-5.260360241E0,6.723217487E0
4.128862625E0,2.765302896E0,-5.121496677E0,6.651391506E0
4.133862625E0,2.722207308E0,-4.985027313E0,6.529287338E0
4.138862625E0,2.624045134E0,-4.867412090E0,6.328174591E0
4.143862625E0,2.485181332E0,-4.788403511E0,6.127061367E0
4.148862625E0,2.391807556E0,-4.771644115E0,5.897218227E0
4.153862625E0,2.348711967E0,-4.771644115E0,5.672163010E0
4.158862591E0,2.343923569E0,-4.786009312E0,5.425560474E0
4.163862591E0,2.367865562E0,-4.797980309E0,5.188534260E0
4.168862591E0,2.444479942E0,-4.800374508E0,4.982633114E0
4.173862624E0,2.566584110E0,-4.783615112E0,4.817133904E0
4.178862657E0,2.748543501E0,-4.754884720E0,4.692635536E0
4.183863323E0,2.995146275E0,-4.716577530E0,4.596867085E0
4.188864189E0,3.292027235E0,-4.678270340E0,4.537012100E0
4.193864155E0,3.584120035E0,-4.654327869E0,4.498704910E0
4.198864255E0,3.902548790E0,-4.647145271E0,4.486733913E0
4.203864255E0,4.194641590E0,-4.649539471E0,4.498704910E0
4.208864288E0,4.462791920E0,-4.687847137E0,4.537012100E0
4.213864288E0,4.718971729E0,-4.750096321E0,4.575319290E0
4.218864288E0,4.973056316E0,-4.812345505E0,4.611232281E0
4.223864288E0,5.200505257E0,-4.876988888E0,4.659116745E0
4.228864521E0,5.408801079E0,-4.934749126E0,4.680664539E0
4.233864521E0,5.614702225E0,-4.982633114E0,4.654327869E0
4.238864487E0,5.806238174E0,-5.016151905E0,4.601655483E0
4.243864487E0,5.973832607E0,-5.040093899E0,4.558559895E0
4.248864487E0,6.110301971E0,-5.064035892E0,4.537012100E0
4.253864520E0,6.222829342E0,-5.090372086E0,4.532223701E0
4.258864520E0,6.311414719E0,-5.140650272E0,4.544194698E0
4.263864520E0,6.356904984E0,-5.200505257E0,4.594472885E0
4.268864486E0,6.366481781E0,-5.267542839E0,4.695029736E0
4.273864452E0,6.335357189E0,-5.356128693E0,4.833893299E0
4.278865085E0,6.280290127E0,-5.447108269E0,4.989815712E0
4.283865085E0,6.227617741E0,-5.540482044E0,5.150227070E0
4.288865118E0,6.153397560E0,-5.643432617E0,5.313032627E0
4.293865151E0,6.088754177E0,-5.743988991E0,5.442319870E0
4.298865184E0,6.019322395E0,-5.851728439E0,5.574000835E0
4.303865217E0,5.906795025E0,-5.945102215E0,5.748777390E0
4.308865217E0,5.820603371E0,-6.050446987E0,5.909189224E0
4.313865183E0,5.741594791E0,-6.170156956E0,6.119878769E0
4.318865149E0,5.660192013E0,-6.285078526E0,6.376058578E0
4.323865149E0,5.590760231E0,-6.383241177E0,6.627449512E0
4.328865149E0,5.535693645E0,-6.464643955E0,6.857293129E0
4.333865182E0,5.494992256E0,-6.546046734E0,7.058405876E0
4.338865182E0,5.459079266E0,-6.639420509E0,7.202057838E0
4.343865182E0,5.444714069E0,-6.725611687E0,7.283460617E0
4.348865148E0,5.471050262E0,-6.802226067E0,7.297826290E0
4.353865114E0,5.511751652E0,-6.869264126E0,7.295432091E0
4.358865080E0,5.590760231E0,-6.936301708E0,7.288249016E0
4.363865080E0,5.700893402E0,-7.005733490E0,7.297826290E0
4.368865113E0,5.825392246E0,-7.070376873E0,7.324162483E0
4.373865146E0,5.954679012E0,-7.115866661E0,7.345710278E0
4.378865179E0,6.103119373E0,-7.123049259E0,7.338527679E0
4.383865179E0,6.244377136E0,-7.113472462E0,7.305008888E0
4.388864779E0,6.395212173E0,-7.077559471E0,7.221211433E0
4.393864745E0,6.531681538E0,-7.041646481E0,7.115866661E0
4.398864745E0,6.648997307E0,-7.003339291E0,6.960243702E0
4.403864745E0,6.742371082E0,-6.972214699E0,6.763918877E0
4.408864778E0,6.828562737E0,-6.955455303E0,6.550835133E0
4.413864778E0,6.919542313E0,-6.955455303E0,6.332962990E0
4.418864778E0,7.022492886E0,-6.972214699E0,6.136638165E0
4.423864778E0,7.170933247E0,-6.998550892E0,5.976226807E0
4.428864778E0,7.312191486E0,-7.053617477E0,5.858911037E0
4.433864778E0,7.424718857E0,-7.137414455E0,5.772719383E0
4.438864744E0,7.508515835E0,-7.281066418E0,5.746383190E0
4.443864710E0,7.563582420E0,-7.453449249E0,5.736806393E0
4.448864710E0,7.594707012E0,-7.704840183E0,5.708076000E0
4.453864710E0,7.601889610E0,-7.992144585E0,5.631461620E0
4.458864743E0,7.570765018E0,-8.291419983E0,5.487809658E0
4.463864743E0,7.522881031E0,-8.576330185E0,5.279513836E0
4.468864743E0,7.458237648E0,-8.822932243E0,5.020940304E0
4.473864709E0,7.388805866E0,-9.004891396E0,4.714183331E0
4.478864675E0,7.312191486E0,-9.107842445E0,4.355052948E0
4.483864641E0,7.235576630E0,-9.158121109E0,4.010287762E0
4.488864641E0,7.146991253E0,-9.126996040E0,3.665522814E0
4.493864674E0,7.060800076E0,-9.062353134E0,3.363853455E0
4.498864707E0,6.977003098E0,-8.954613686E0,3.105279684E0
4.503864740E0,6.917148113E0,-8.851662636E0,2.920926094E0
4.508864740E0,6.876446724E0,-8.772654533E0,2.810792685E0
4.513864740E0,6.818985939E0,-8.731952667E0,2.772485495E0
4.518864706E0,6.759130478E0,-8.741529465E0,2.794033289E0
4.523864706E0,6.701669693E0,-8.796596527E0,2.858676910E0
4.528864706E0,6.656179905E0,-8.906729698E0,2.959233284E0
4.533864739E0,6.613084316E0,-9.028834343E0,3.057395458E0
4.538865139E0,6.586748123E0,-9.165303230E0,3.160346270E0
4.543865139E0,6.548440933E0,-9.277831078E0,3.244143248E0
4.548865105E0,6.507739544E0,-9.359233856E0,3.308786631E0
4.553865071E0,6.510133743E0,-9.390357971E0,3.394978046E0
4.558865037E0,6.550835133E0,-9.383175850E0,3.490746021E0
4.563865037E0,6.593930721E0,-9.366415977E0,3.557783842E0
4.568865037E0,6.569988728E0,-9.344868660E0,3.531447411E0
4.573865070E0,6.486191750E0,-9.344868660E0,3.459621429E0
4.578865103E0,6.287472725E0,-9.347262383E0,3.320757866E0
4.583865136E0,6.069600582E0,-9.330503464E0,3.169923067E0
4.588865136E0,5.832574844E0,-9.273042679E0,3.007117271E0
4.593865136E0,5.588366032E0,-9.198822021E0,2.827552319E0
4.598865102E0,5.305850029E0,-9.110237122E0,2.547430515E0
4.603865102E0,5.025728703E0,-9.004891396E0,2.190694571E0
4.608865102E0,4.762067318E0,-8.887576103E0,1.800439715E0
4.613865135E0,4.539406300E0,-8.758289337E0,1.412579060E0
4.618865135E0,4.357447147E0,-8.621819496E0,1.070208192E0
4.623865135E0,4.197035789E0,-8.490138054E0,7.781155705E-1
4.628865135E0,4.024652958E0,-8.322544098E0,5.027823448E-1
4.633865135E0,3.892971992E0,-8.152556419E0,2.489969730E-1
4.638865135E0,3.842693806E0,-7.968202591E0,2.394201607E-2
4.643865101E0,3.885789394E0,-7.807791233E0,-1.604115069E-1
4.648865101E0,4.024652958E0,-7.719205379E0,-2.681505978E-1
4.653865101E0,4.235342979E0,-7.704840183E0,-3.016694188E-1
4.658865134E0,4.481945515E0,-7.764695168E0,-2.418143749E-1
4.663865134E0,4.714183331E0,-7.915530205E0,-7.422025502E-2
4.668865134E0,4.915595531E0,-8.171710014E0,1.795651317E-1
4.673865100E0,5.076006889E0,-8.461407661E0,4.501099288E-1
4.678865066E0,5.183745861E0,-8.825326920E0,7.685387731E-1
4.683865032E0,5.257966042E0,-9.184456825E0,1.067813993E0
4.688865032E0,5.291484833E0,-9.567529678E0,1.383848548E0
4.693865032E0,5.279513836E0,-9.909899712E0,1.726219416E0
4.698865065E0,5.195716858E0,-1.022114658E1,2.070984364E0
4.703865098E0,5.030517101E0,-1.047732544E1,2.391807556E0
4.708865131E0,4.793191910E0,-1.068322754E1,2.664746523E0
4.713865131E0,4.520252705E0,-1.084124470E1,2.865859509E0
4.718865131E0,4.237737179E0,-1.095137787E1,2.961627483E0
4.723865097E0,4.005499363E0,-1.104235744E1,2.978386879E0
4.728865097E0,3.835511208E0,-1.108305931E1,2.892195702E0
4.733865097E0,3.713406801E0,-1.110460663E1,2.753331900E0
4.738865130E0,3.629609823E0,-1.106869411E1,2.516305923E0
4.743865130E0,3.531447411E0,-1.096334839E1,2.257732153E0
4.748865130E0,3.404554844E0,-1.081730270E1,1.999158382E0
4.753865096E0,3.253720045E0,-1.062816048E1,1.738190413E0
4.758865062E0,3.102885485E0,-1.037916374E1,1.474828243E0
4.763865028E0,2.978386879E0,-1.011101341E1,1.259350061E0
4.768865028E0,2.908955097E0,-9.804554939E0,1.120486379E0
4.773865061E0,2.873042107E0,-9.495702744E0,1.029506683E0
4.778865094E0,2.875436306E0,-9.162909508E0,9.935936928E-1
4.783865127E0,2.889801502E0,-8.851662636E0,9.792284966E-1
4.788865127E0,2.923320293E0,-8.557176590E0,1.007958889E0
4.793865127E0,2.935291290E0,-8.279448509E0,1.053448796E0
4.798865093E0,2.906560898E0,-8.040028572E0,1.127668977E0
4.803865059E0,2.861071110E0,-7.838915825E0,1.235408068E0
4.808865059E0,2.827552319E0,-7.676109791E0,1.371877551E0
4.813865092E0,2.791639090E0,-7.556399822E0,1.527500629E0
4.818865125E0,2.743755102E0,-7.472602844E0,1.680729628E0
4.823865125E0,2.688688517E0,-7.415142059E0,1.826775908E0
4.828865125E0,2.597708941E0,-7.388805866E0,1.977610588E0
4.833865125E0,2.501940727E0,-7.379229069E0,2.099714994E0
4.838865125E0,2.396595955E0,-7.400776863E0,2.197877169E0
4.843865125E0,2.303221941E0,-7.443872452E0,2.260126352E0
4.848865091E0,2.229001760E0,-7.501333237E0,2.267308950E0
4.853865091E0,2.145204782E0,-7.561188221E0,2.197877169E0
4.858865091E0,2.059013367E0,-7.628225803E0,2.042253971E0
4.863865124E0,1.987187386E0,-7.685686588E0,1.884236693E0
4.868865124E0,1.968033791E0,-7.738358974E0,1.735796213E0
4.873865124E0,1.963245392E0,-7.786243439E0,1.577778935E0
4.878865090E0,2.008735180E0,-7.843704224E0,1.391031146E0
4.883865056E0,2.075772762E0,-7.896376610E0,1.216254473E0
4.888865022E0,2.135627985E0,-7.939472198E0,1.094150186E0
4.893865022E0,2.190694571E0,-7.968202591E0,1.043871999E0
4.898865055E0,2.252943754E0,-7.977779388E0,1.077390790E0
4.903865088E0,2.288856745E0,-7.963414192E0,1.185129881E0
4.908865121E0,2.276885748E0,-7.951443195E0,1.381454349E0
4.913865121E0,2.260126352E0,-7.934683800E0,1.620874524E0
4.918865121E0,2.245761156E0,-7.920318604E0,1.965639591E0
4.923865087E0,2.245761156E0,-7.922712803E0,2.341529369E0
4.928865053E0,2.281674147E0,-7.958625793E0,2.789244890E0
4.933865053E0,2.331952572E0,-8.018480301E0,3.215412855E0
4.938865086E0,2.367865562E0,-8.116642952E0,3.622427225E0
4.943865119E0,2.396595955E0,-8.241141319E0,3.945644379E0
4.948865119E0,2.408566952E0,-8.399158478E0,4.192247391E0
4.953865119E0,2.401384354E0,-8.593089104E0,4.371812344E0
4.958865085E0,2.377442360E0,-8.832509041E0,4.493916512E0
4.963865051E0,2.343923569E0,-9.069535255E0,4.592078686E0
4.968865017E0,2.298433542E0,-9.308955193E0,4.675876141E0
4.973865017E0,2.248155355E0,-9.526827812E0,4.738125324E0
4.978865050E0,2.195482969E0,-9.699210167E0,4.764461517E0
4.983865083E0,2.126051188E0,-9.814131737E0,4.759673119E0
4.988865116E0,2.015917778E0,-9.869198799E0,4.721365929E0
4.993865116E0,1.879448295E0,-9.862015724E0,4.683058739E0
4.998865116E0,1.704671621E0,-9.802161217E0,4.644751072E0
5.003865082E0,1.520318031E0,-9.694421768E0,4.611232281E0
5.008865082E0,1.355118155E0,-9.541193008E0,4.575319290E0
5.013865082E0,1.206677675E0,-9.387964249E0,4.527435303E0
5.018865115E0,1.058237195E0,-9.217975616E0,4.436455727E0
5.023865115E0,9.169792533E-1,-9.059958458E0,4.345476151E0
5.028865115E0,8.020575643E-1,-8.894758224E0,4.244919777E0
5.033864215E0,7.302315235E-1,-8.751106262E0,4.151545525E0
5.038863315E0,6.943184733E-1,-8.607454300E0,4.039018154E0
5.043862415E0,6.799532771E-1,-8.490138054E0,3.909731388E0
5.048861481E0,7.398083210E-1,-8.389581680E0,3.742137194E0
5.053860547E0,8.786720037E-1,-8.298602104E0,3.552995205E0
5.058859880E0,1.120486379E0,-8.221987724E0,3.339911461E0
5.063859246E0,1.379060149E0,-8.166921616E0,3.141192675E0
5.068859279E0,1.675941229E0,-8.116642952E0,2.966415882E0
5.073859279E0,1.951274395E0,-8.073547363E0,2.832340717E0
5.078858612E0,2.195482969E0,-8.047211647E0,2.748543501E0
5.083858578E0,2.401384354E0,-8.006509781E0,2.710236311E0
5.088858578E0,2.559401512E0,-7.941866398E0,2.736572504E0
5.093858578E0,2.674323320E0,-7.862857819E0,2.829946518E0
5.098857944E0,2.760514498E0,-7.757512569E0,3.007117271E0
5.103857944E0,2.808398485E0,-7.640196800E0,3.292027235E0
5.108857944E0,2.861071110E0,-7.501333237E0,3.773261786E0
5.113857944E0,2.920926094E0,-7.379229069E0,4.309563160E0
5.118857944E0,2.985569477E0,-7.288249016E0,4.929960728E0
5.123857944E0,3.045424461E0,-7.233182430E0,5.516540051E0
5.128857910E0,3.100491285E0,-7.221211433E0,6.024110794E0
5.133857910E0,3.126827478E0,-7.261912823E0,6.383241177E0
5.138857910E0,3.119644880E0,-7.381623268E0,6.598719120E0
5.143857943E0,3.150769472E0,-7.537246227E0,6.742371082E0
5.148857943E0,3.256114244E0,-7.690474987E0,6.840533733E0
5.153857943E0,3.387795448E0,-7.814973831E0,6.902782917E0
5.158857909E0,3.552995205E0,-7.913136005E0,6.926724911E0
5.163857875E0,3.706224203E0,-7.994538784E0,6.917148113E0
5.168857841E0,3.811569214E0,-8.075942039E0,6.862081528E0
5.173857841E0,3.861847401E0,-8.178892136E0,6.768707275E0
5.178857841E0,3.792415380E0,-8.317755699E0,6.620266914E0
5.183858774E0,3.579331636E0,-8.461407661E0,6.450278759E0
5.188859707E0,3.234566450E0,-8.590695381E0,6.258742332E0
5.193860640E0,2.820369720E0,-8.696040154E0,6.021716595E0
5.198861540E0,2.391807556E0,-8.791808128E0,5.710470200E0
5.203862440E0,1.987187386E0,-8.877999306E0,5.406406879E0
5.208863073E0,1.572990537E0,-8.988132477E0,5.052064896E0
5.213863739E0,1.223437071E0,-9.105448723E0,4.692635536E0
5.218863739E0,9.983820915E-1,-9.277831078E0,4.431667328E0
5.223863772E0,8.978256583E-1,-9.502885818E0,4.357447147E0
5.228864438E0,8.738836050E-1,-9.747094154E0,4.386177540E0
5.233864438E0,9.241618514E-1,-9.988908768E0,4.412513733E0
5.238864404E0,1.012747288E0,-1.019959831E1,4.446032524E0
5.243864370E0,1.103726983E0,-1.037916374E1,4.522646904E0
5.248865003E0,1.158793569E0,-1.051323891E1,4.644751072E0
5.253865003E0,1.204283476E0,-1.059224796E1,4.800374508E0
5.258865036E0,1.218648672E0,-1.054436398E1,5.078401089E0
5.263865069E0,1.197100878E0,-1.044141293E1,5.423166275E0
5.268865102E0,1.127668977E0,-1.031212616E1,5.902006626E0
5.273865102E0,1.079784989E0,-1.019002151E1,6.397606373E0
5.278865102E0,1.043871999E0,-1.007509995E1,6.864475727E0
5.283865068E0,1.036689281E0,-9.950601578E0,7.252336025E0
5.288865068E0,1.065419793E0,-9.811738014E0,7.520486832E0
5.293865068E0,1.137245774E0,-9.672874451E0,7.635408401E0
5.298865101E0,1.228225470E0,-9.512462616E0,7.546823025E0
5.303865134E0,1.331176162E0,-9.371204376E0,7.374440670E0
5.308865134E0,1.477222443E0,-9.222764015E0,7.091924667E0
5.313865134E0,1.596932530E0,-9.064746857E0,6.785466671E0
5.318865134E0,1.613691926E0,-8.849268913E0,6.400000572E0
5.323865134E0,1.572990537E0,-8.621819496E0,5.981015205E0
5.328865134E0,1.517923832E0,-8.418312073E0,5.554847240E0
5.333865100E0,1.453280449E0,-8.231564522E0,5.140650272E0
5.338865100E0,1.340752959E0,-8.037634850E0,4.778826714E0
5.343865100E0,1.204283476E0,-7.819762230E0,4.484339714E0
5.348865133E0,1.084573388E0,-7.611466408E0,4.311957359E0
5.353865133E0,9.935936928E-1,-7.443872452E0,4.225766182E0
5.358865133E0,9.433154464E-1,-7.345710278E0,4.177882195E0
5.363865099E0,9.361328483E-1,-7.338527679E0,4.209006786E0
5.368865065E0,9.289502501E-1,-7.474997044E0,4.383783340E0
5.373865031E0,9.864110947E-1,-7.644985199E0,4.529829502E0
5.378865031E0,1.034295082E0,-7.798214436E0,4.587290287E0
5.383865064E0,1.079784989E0,-7.925107002E0,4.678270340E0
5.388865097E0,1.142034173E0,-8.020874977E0,4.908412933E0
5.393865130E0,1.235408068E0,-8.099884033E0,5.123890877E0
5.398865130E0,1.455674648E0,-8.198045731E0,5.305850029E0
5.403865130E0,1.719036818E0,-8.279448509E0,5.449502468E0
5.408865096E0,2.070984364E0,-8.257901192E0,5.542876244E0
5.413865096E0,2.375048161E0,-8.140584946E0,5.595548630E0
5.418865096E0,2.592920542E0,-7.872434616E0,5.595548630E0
5.423865129E0,2.731784105E0,-7.525275230E0,5.566818237E0
5.428865162E0,2.817975283E0,-7.115866661E0,5.576395035E0
5.433865162E0,2.853888512E0,-6.641814709E0,5.614702225E0
5.438865128E0,2.791639090E0,-6.091148376E0,5.590760231E0
5.443865094E0,2.674323320E0,-5.593154430E0,5.492598057E0
5.448865427E0,2.394201756E0,-5.250783443E0,5.253177643E0
5.453865393E0,2.047042370E0,-5.150227070E0,4.985027313E0
5.458865393E0,1.702277422E0,-5.461473465E0,4.711789131E0
5.463865426E0,1.412579060E0,-5.930737019E0,4.539406300E0
5.468865459E0,1.089361787E0,-6.400000572E0,4.592078686E0
5.473865492E0,7.374141216E-1,-6.828562737E0,4.901230335E0
5.478865492E0,4.141969085E-1,-7.180510044E0,5.468656063E0
5.483865492E0,1.221042871E-1,-7.477391243E0,6.215646744E0
5.488865458E0,-1.628057212E-1,-7.738358974E0,7.091924667E0
5.493865458E0,-4.333505034E-1,-7.956231594E0,7.910741806E0
5.498865458E0,-7.709329724E-1,-8.090307236E0,8.763077736E0
5.503865491E0,-1.158793569E0,-8.164526939E0,9.579500198E0
5.508865491E0,-1.642422318E0,-8.202834129E0,1.052760410E1
5.513865491E0,-2.087743998E0,-8.260294914E0,1.153077507E1
5.518865491E0,-2.341529369E0,-8.320150375E0,1.251957989E1
5.523865491E0,-2.262520552E0,-8.310573578E0,1.322347546E1
5.528865491E0,-1.869871497E0,-8.176498413E0,1.359936523E1
5.533865457E0,-1.223437071E0,-7.817368031E0,1.365443134E1
5.538865457E0,-5.075707436E-1,-7.142202854E0,1.341979980E1
5.543865457E0,9.576806426E-2,-6.428730965E0,1.304391003E1
5.548865490E0,5.363011956E-1,-5.696105003E0,1.236156273E1
5.553865523E0,7.900865674E-1,-5.099948883E0,1.159541798E1
5.558865523E0,8.020575643E-1,-4.718971729E0,1.064731407E1
5.563865489E0,6.847416759E-1,-4.560954094E0,9.696816444E0
5.568865455E0,5.243301988E-1,-4.596867085E0,8.765471458E0
5.573865455E0,3.327940404E-1,-4.738125324E0,7.889194012E0
5.578865455E0,9.816227108E-2,-4.922778130E0,7.135020256E0
5.583865488E0,-1.532289088E-1,-5.121496677E0,6.569988728E0
5.588865488E0,-4.046200812E-1,-5.329792023E0,6.268319130E0
5.593865488E0,-6.344634295E-1,-5.504569054E0,6.170156956E0
5.598865121E0,-8.140285611E-1,-5.621884823E0,6.361693382E0
5.603865121E0,-9.385270476E-1,-5.688922405E0,6.660968304E0
5.608865121E0,-1.041477680E0,-5.693710804E0,7.099107265E0
5.613865087E0,-1.115697980E0,-5.681739807E0,7.573159218E0
5.618865087E0,-1.127668977E0,-5.631461620E0,8.061576843E0
5.623865087E0,-1.051054597E0,-5.571606636E0,8.516474724E0
5.628865120E0,-9.074024558E-1,-5.511751652E0,8.897152901E0
5.633865120E0,-7.350199223E-1,-5.461473465E0,9.210793495E0
5.638865120E0,-5.363011956E-1,-5.442319870E0,9.419088364E0
5.643865086E0,-3.615244627E-1,-5.449502468E0,9.541193008E0
5.648865052E0,-2.489969730E-1,-5.480627060E0,9.560346603E0
5.653865018E0,-1.771709323E-1,-5.504569054E0,9.553164482E0
5.658865018E0,-9.337386489E-2,-5.504569054E0,9.481337547E0
5.663865051E0,-1.675941236E-2,-5.497386456E0,9.397541046E0
5.668865084E0,4.309562966E-2,-5.468656063E0,9.289801598E0
5.673865117E0,5.746084079E-2,-5.423166275E0,9.162909508E0
5.678865150E0,5.985504389E-2,-5.368099689E0,9.038411140E0
5.683865150E0,1.005564705E-1,-5.315426826E0,8.909123421E0
5.688865116E0,1.795651317E-1,-5.279513836E0,8.765471458E0
5.693865082E0,2.968810201E-1,-5.245995045E0,8.624214172E0
5.698865082E0,5.027823448E-1,-5.186140060E0,8.482955933E0
5.703865082E0,7.924807668E-1,-5.095160484E0,8.365639687E0
5.708865115E0,1.101332784E0,-4.968267918E0,8.291419983E0
5.713865115E0,1.395819545E0,-4.797980309E0,8.257901192E0
5.718865115E0,1.656787634E0,-4.606443882E0,8.274660110E0
5.723865081E0,1.865083098E0,-4.402936935E0,8.320150375E0
5.728865047E0,2.003946781E0,-4.213795185E0,8.363245964E0
5.733865013E0,2.121262789E0,-4.055777550E0,8.403946877E0
5.738865013E0,2.221819162E0,-3.945644379E0,8.430283546E0
5.743865046E0,2.312798738E0,-3.871424198E0,8.442254066E0
5.748865079E0,2.377442360E0,-3.835511208E0,8.423100471E0
5.753865112E0,2.403778553E0,-3.816357613E0,8.394370079E0
5.758865112E0,2.387019157E0,-3.813963413E0,8.360851288E0
5.763865112E0,2.312798738E0,-3.811569214E0,8.353669167E0
5.768865078E0,2.185906172E0,-3.809175014E0,8.396764755E0
5.773865078E0,2.042253971E0,-3.825934410E0,8.516474724E0
5.778865078E0,1.869871497E0,-3.845088005E0,8.724770546E0
5.783865111E0,1.680729628E0,-3.881000996E0,8.937853813E0
5.788865111E0,1.458068848E0,-3.926490784E0,9.148544312E0
5.793865111E0,1.237802267E0,-3.971980572E0,9.311349869E0
5.798865111E0,1.024718285E0,-3.983951569E0,9.414299965E0
5.803865111E0,8.571242094E-1,-3.974374771E0,9.462183952E0
5.808865111E0,7.733271718E-1,-3.955221176E0,9.481337547E0
5.813865077E0,8.164227605E-1,-3.928884983E0,9.474155426E0
5.818865043E0,9.457096457E-1,-3.904942989E0,9.440636635E0
5.823865043E0,1.139639974E0,-3.878606796E0,9.383175850E0
5.828865043E0,1.369483352E0,-3.830722809E0,9.275436401E0
5.833865076E0,1.589749932E0,-3.756502390E0,9.148544312E0
5.838865076E0,1.793257117E0,-3.622427225E0,9.014469147E0
5.843865076E0,1.975216389E0,-3.462015629E0,8.923488617E0
5.848865042E0,2.157175779E0,-3.258508444E0,8.899546623E0
5.853865042E0,2.329558372E0,-3.028665066E0,8.880393028E0
5.858865042E0,2.458845139E0,-2.779668093E0,8.825326920E0
5.863865075E0,2.559401512E0,-2.499546528E0,8.760683060E0
5.868865075E0,2.664746523E0,-2.197877169E0,8.731952667E0
5.873865075E0,2.782062292E0,-1.900996208E0,8.758289337E0
5.878865075E0,2.940079689E0,-1.616086125E0,8.837297440E0
5.883865075E0,3.098097086E0,-1.371877551E0,8.887576103E0
5.888865075E0,3.258508444E0,-1.173158884E0,8.794201851E0
5.893865041E0,3.366247654E0,-1.034295082E0,8.631396294E0
5.898865041E0,3.440467834E0,-9.720458984E-1,8.384793282E0
5.903865041E0,3.497928619E0,-9.959878922E-1,8.169315338E0
5.908865074E0,3.560178041E0,-1.108515382E0,8.032846451E0
5.913865074E0,3.622427225E0,-1.292868972E0,7.958625793E0
5.918865074E0,3.672705412E0,-1.544260144E0,7.963414192E0
5.923865040E0,3.708618402E0,-1.819593310E0,8.025663376E0
5.928865006E0,3.708618402E0,-2.092532396E0,8.104672432E0
5.933865006E0,3.667917013E0,-2.336740971E0,8.109460831E0
5.938865039E0,3.560178041E0,-2.537853718E0,7.972990990E0
5.943865072E0,3.450044632E0,-2.619256735E0,7.829339027E0
5.948865072E0,3.354276657E0,-2.573766708E0,7.759906769E0
5.953865072E0,3.284844637E0,-2.410961151E0,7.810185432E0
5.958865072E0,3.220201254E0,-2.169146776E0,7.946654797E0
5.963865072E0,3.134010077E0,-1.908178806E0,8.071153641E0
5.968865205E0,2.995146275E0,-1.673547029E0,8.102277756E0
5.973865171E0,2.825158119E0,-1.525106430E0,8.020874977E0
5.978865171E0,2.616862535E0,-1.479616642E0,7.843704224E0
5.983865171E0,2.398990154E0,-1.493981838E0,7.664138794E0
5.988865204E0,2.142810583E0,-1.549048543E0,7.551611423E0
5.993865204E0,1.896207690E0,-1.570596337E0,7.539640427E0
5.998865204E0,1.649604917E0,-1.505952835E0,7.664138794E0
6.003865170E0,1.426944256E0,-1.376665950E0,7.786243439E0
6.008865136E0,1.218648672E0,-1.213860273E0,7.781454563E0
6.013865102E0,1.060631394E0,-1.027112484E0,7.594707012E0
6.018865102E0,1.019929886E0,-8.355764151E-1,7.216423035E0
6.023865135E0,1.070208192E0,-6.799532771E-1,6.816591740E0
6.028865168E0,1.242590666E0,-5.243301988E-1,6.483797550E0
6.033864534E0,1.438915253E0,-3.758896589E-1,6.292261124E0
6.038863867E0,1.659181833E0,-2.011129409E-1,6.344933987E0
6.043862967E0,1.848323703E0,-1.197100803E-2,6.572382927E0
6.048862033E0,1.977610588E0,1.532289088E-1,6.902782917E0
6.053861099E0,2.047042370E0,2.681505978E-1,7.240365028E0
6.058860199E0,2.049436569E0,3.136404157E-1,7.486968040E0
6.063859565E0,1.989581585E0,2.729389966E-1,7.577947617E0
6.068859598E0,1.922544003E0,1.795651317E-1,7.479785442E0
6.073859198E0,1.891419291E0,8.379705995E-2,7.360075474E0
6.078859198E0,1.874659896E0,1.197100803E-2,7.360075474E0
6.083859164E0,1.874659896E0,-3.112462163E-2,7.479785442E0
6.088858264E0,1.807622313E0,-3.830722719E-2,7.781454563E0
6.093857564E0,1.702277422E0,-2.873042040E-2,8.097489357E0
6.098857430E0,1.544260144E0,-4.788403399E-3,8.332120895E0
6.103857463E0,1.343147159E0,1.675941236E-2,8.415918350E0
6.108857063E0,1.201889277E0,4.309562966E-2,8.332120895E0
6.113857096E0,1.084573388E0,9.097966552E-2,8.145373344E0
6.118856962E0,9.576807022E-1,1.484405100E-1,7.958625793E0
6.123856562E0,8.475474119E-1,2.059013397E-1,7.843704224E0
6.128856528E0,7.565677166E-1,2.226607651E-1,7.879617214E0
6.133856528E0,6.871358752E-1,2.106897533E-1,8.008903503E0
6.138857361E0,7.230489254E-1,1.532289088E-1,8.243535995E0
6.143857394E0,8.092401624E-1,5.267243832E-2,8.439860344E0
6.148857394E0,9.121908545E-1,-7.661445439E-2,8.518868446E0
6.153857394E0,9.864110947E-1,-2.154781520E-1,8.487744331E0
6.158857394E0,1.070208192E0,-3.136404157E-1,8.382399559E0
6.163857394E0,1.139639974E0,-3.567360640E-1,8.238747597E0
6.168857394E0,1.086967587E0,-3.543418646E-1,8.056788445E0
6.173857360E0,1.012747288E0,-3.303998411E-1,7.834127426E0
6.178857326E0,9.552865028E-1,-2.968810201E-1,7.561188221E0
6.183857992E0,9.576807022E-1,-2.489969730E-1,7.352892876E0
6.188858692E0,9.576807022E-1,-1.963245422E-1,7.240365028E0
6.193859625E0,9.289502501E-1,-1.508347094E-1,7.261912823E0
6.198860525E0,9.097966552E-1,-1.197100878E-1,7.405565262E0
6.203861425E0,8.667010069E-1,-1.532289088E-1,7.613860607E0
6.208862291E0,8.331822157E-1,-2.537853718E-1,7.829339027E0
6.213862957E0,7.972691655E-1,-3.926490843E-1,8.001721382E0
6.218862957E0,7.517793179E-1,-6.177040339E-1,8.142979622E0
6.223863390E0,6.919242740E-1,-8.595184088E-1,8.265083313E0
6.228863390E0,6.200982332E-1,-1.151610970E0,8.387187958E0
6.233863390E0,5.841852427E-1,-1.450886250E0,8.497321129E0
6.238864256E0,5.793967843E-1,-1.805228114E0,8.588300705E0
6.243864922E0,5.746083856E-1,-2.166752577E0,8.629002571E0
6.248865055E0,6.105214357E-1,-2.542642117E0,8.602665901E0
6.253865021E0,7.134721279E-1,-2.932897091E0,8.533234596E0
6.258865454E0,9.097966552E-1,-3.339911461E0,8.437465668E0
6.263865454E0,1.098938584E0,-3.711012602E0,8.346486092E0
6.268865487E0,1.323993564E0,-4.039018154E0,8.308178902E0
6.273865887E0,1.529894829E0,-4.295197964E0,8.312967300E0
6.278865887E0,1.735796213E0,-4.472368717E0,8.391976357E0
6.283865853E0,1.920149803E0,-4.592078686E0,8.521263123E0
6.288864986E0,2.001552582E0,-4.671087742E0,8.652944565E0
6.293864952E0,2.006340981E0,-4.723760128E0,8.722375870E0
6.298864952E0,1.941697598E0,-4.752490520E0,8.667309761E0
6.303864952E0,1.857900500E0,-4.762067318E0,8.485349655E0
6.308864985E0,1.788468719E0,-4.752490520E0,8.183680534E0
6.313865018E0,1.740584612E0,-4.726154327E0,7.884405613E0
6.318865051E0,1.704671621E0,-4.668693542E0,7.575553417E0
6.323865051E0,1.666364431E0,-4.606443882E0,7.290643215E0
6.328865051E0,1.642422318E0,-4.532223701E0,7.008127689E0
6.333865017E0,1.647210717E0,-4.458003521E0,6.749553680E0
6.338865017E0,1.687912226E0,-4.386177540E0,6.560411930E0
6.343865017E0,1.752555609E0,-4.299986362E0,6.481403351E0
6.348865050E0,1.831564307E0,-4.204218388E0,6.495768547E0
6.353865050E0,1.886630893E0,-4.108449936E0,6.555623531E0
6.358865050E0,1.903390408E0,-4.031835556E0,6.625055313E0
6.363865016E0,1.900996208E0,-3.979163170E0,6.665756702E0
6.368864982E0,1.893813491E0,-3.991134167E0,6.665756702E0
6.373864948E0,1.908178806E0,-4.055777550E0,6.665756702E0
6.378864948E0,1.970427990E0,-4.223371983E0,6.716034889E0
6.383864981E0,2.061407566E0,-4.474762917E0,6.807014942E0
6.388865014E0,2.197877169E0,-4.802768707E0,6.941090107E0
6.393864680E0,2.358288765E0,-5.224447250E0,7.137414455E0
6.398864680E0,2.523488522E0,-5.729623795E0,7.381623268E0
6.403864680E0,2.647987127E0,-6.318597794E0,7.666532993E0
6.408864646E0,2.719813108E0,-7.032069683E0,7.949048996E0
6.413864646E0,2.729389906E0,-7.743147373E0,8.210017204E0
6.418864646E0,2.604891539E0,-8.545205116E0,8.435071945E0
6.423864679E0,2.425326347E0,-9.320926666E0,8.605060577E0
6.428864712E0,2.224213362E0,-1.008946514E1,8.717587471E0
6.433864712E0,2.018311977E0,-1.079575443E1,8.775048256E0
6.438864712E0,1.831564307E0,-1.139669895E1,8.782231331E0
6.443864712E0,1.606509328E0,-1.184202099E1,8.798990250E0
6.448864712E0,1.307234168E0,-1.209820080E1,8.810961723E0
6.453864712E0,1.015141487E0,-1.215087318E1,8.822932243E0
6.458864678E0,7.158663273E-1,-1.192821217E1,8.854057312E0
6.463864678E0,5.171475410E-1,-1.155711079E1,8.933065414E0
6.468864678E0,5.458779931E-1,-1.091067600E1,9.134179115E0
6.473864711E0,5.770025849E-1,-1.027142429E1,9.299378395E0
6.478864711E0,5.985504389E-1,-9.680056572E0,9.383175850E0
6.483864711E0,6.416460276E-1,-9.222764015E0,9.359233856E0
6.488864677E0,8.116343617E-1,-8.899546623E0,9.270648003E0
6.493864677E0,1.158793569E0,-8.691251755E0,9.138967514E0
6.498864677E0,1.551442742E0,-8.600272179E0,8.921094894E0
6.503864710E0,1.879448295E0,-8.564358711E0,8.696040154E0
6.508864710E0,2.166752577E0,-8.640973091E0,8.456619263E0
6.513864710E0,2.430114746E0,-8.779836655E0,8.248324394E0
6.518864710E0,2.705447912E0,-9.093477249E0,8.056788445E0
6.523864710E0,2.937685490E0,-9.526827812E0,7.841310024E0
6.528864710E0,3.100491285E0,-1.003200436E1,7.597101212E0
6.533864676E0,3.184288263E0,-1.054915237E1,7.369652271E0
6.538864676E0,3.172317266E0,-1.102559853E1,7.240365028E0
6.543865042E0,3.081337690E0,-1.143740082E1,7.166144848E0
6.548865075E0,2.849100113E0,-1.173428154E1,7.079953671E0
6.553865108E0,2.535459518E0,-1.194018269E1,6.979397297E0
6.558865108E0,2.063801765E0,-1.198806763E1,6.936301708E0
6.563865074E0,1.594538331E0,-1.193778896E1,6.945878506E0
6.568865040E0,1.113303781E0,-1.176540661E1,7.008127689E0
6.573865040E0,7.158663273E-1,-1.153316879E1,7.091924667E0
6.578865040E0,4.836287498E-1,-1.119079781E1,7.190086842E0
6.583865073E0,3.974374831E-1,-1.080533123E1,7.297826290E0
6.588865073E0,3.998316824E-1,-1.041747093E1,7.384017467E0
6.593865073E0,4.548983276E-1,-1.005834103E1,7.441478252E0
6.598865073E0,5.770025849E-1,-9.730335236E0,7.520486832E0
6.603865073E0,7.278373241E-1,-9.450213432E0,7.592312813E0
6.608865073E0,9.504981041E-1,-9.201216698E0,7.664138794E0
6.613865039E0,1.173158884E0,-8.978555679E0,7.726387978E0
6.618865039E0,1.412579060E0,-8.741529465E0,7.767089367E0
6.623865039E0,1.632845521E0,-8.497321129E0,7.769483566E0
6.628865072E0,1.843535304E0,-8.265083313E0,7.712022781E0
6.633865072E0,2.051830769E0,-8.042423248E0,7.585130215E0
6.638865072E0,2.252943754E0,-7.843704224E0,7.407959461E0
6.643865038E0,2.427720547E0,-7.673715591E0,7.185298443E0
6.648865004E0,2.535459518E0,-7.522881031E0,6.917148113E0
6.653864970E0,2.573766708E0,-7.395988464E0,6.663362503E0
6.658864970E0,2.537853718E0,-7.307403088E0,6.426336765E0
6.663865003E0,2.461239338E0,-7.254730225E0,6.232406139E0
6.668865036E0,2.353500366E0,-7.240365028E0,6.088754177E0
6.673865069E0,2.217030764E0,-7.276278019E0,6.004957199E0
6.678865102E0,2.059013367E0,-7.336133480E0,5.976226807E0
6.683865102E0,1.903390408E0,-7.384017467E0,5.976226807E0
6.688865068E0,1.750161409E0,-7.419930458E0,5.997774601E0
6.693865034E0,1.584961534E0,-7.436689854E0,6.031293392E0
6.698865034E0,1.400607944E0,-7.472602844E0,6.098330975E0
6.703865034E0,1.218648672E0,-7.508515835E0,6.162974358E0
6.708865067E0,1.039083481E0,-7.549217224E0,6.253953934E0
6.713865067E0,8.786720037E-1,-7.597101212E0,6.349722385E0
6.718865067E0,7.086837292E-1,-7.659350395E0,6.467038155E0
6.723865033E0,5.554547906E-1,-7.723993778E0,6.565200329E0
6.728864999E0,3.591302633E-1,-7.791031837E0,6.653785706E0
6.733864965E0,1.244984865E-1,-7.841310024E0,6.742371082E0
6.738864965E0,-1.268926859E-1,-7.884405613E0,6.866869926E0
6.743864998E0,-3.591302633E-1,-7.913136005E0,7.024887085E0
6.748865031E0,-5.889736414E-1,-7.910741806E0,7.254730225E0
6.753865064E0,-7.852981687E-1,-7.874828815E0,7.474997044E0
6.758865064E0,-9.409212470E-1,-7.795820236E0,7.723993778E0
6.763865064E0,-1.015141487E0,-7.712022781E0,7.982567787E0
6.768865030E0,-1.027112484E0,-7.640196800E0,8.265083313E0
6.773865030E0,-9.504981041E-1,-7.558794022E0,8.538022995E0
6.778865030E0,-8.236053586E-1,-7.472602844E0,8.813355446E0
6.783865063E0,-6.440402865E-1,-7.412747860E0,9.083900452E0
6.788865063E0,-4.237737060E-1,-7.369652271E0,9.325715065E0
6.793865063E0,-1.963245422E-1,-7.333739281E0,9.522039413E0
6.798865063E0,7.182604820E-2,-7.295432091E0,9.629778862E0
6.803865063E0,3.256114423E-1,-7.266701221E0,9.682451248E0
6.808865063E0,6.177040339E-1,-7.245153427E0,9.665691376E0
6.813865029E0,9.002198577E-1,-7.225999832E0,9.603442192E0
6.818864995E0,1.108515382E0,-7.180510044E0,9.435848236E0
6.823864995E0,1.235408068E0,-7.130231857E0,9.222764015E0
6.828864995E0,1.295263171E0,-7.082347870E0,8.973767281E0
6.833865028E0,1.292868972E0,-7.051223278E0,8.719982147E0
6.838865028E0,1.249773264E0,-7.044040680E0,8.504503250E0
6.843865028E0,1.173158884E0,-7.041646481E0,8.317755699E0
6.848864994E0,1.070208192E0,-7.029675484E0,8.135796547E0
6.853864994E0,9.648633003E-1,-6.993762493E0,7.956231594E0
6.858864994E0,8.690952063E-1,-6.897994518E0,7.743147373E0
6.863865027E0,7.685387731E-1,-6.763918877E0,7.510910034E0
6.868865027E0,7.038952708E-1,-6.613084316E0,7.249941826E0
6.873865027E0,6.943184733E-1,-6.459855556E0,6.953061104E0
6.878865027E0,7.422025204E-1,-6.304232121E0,6.668150902E0
6.883865027E0,8.523358107E-1,-6.153397560E0,6.400000572E0
6.888865027E0,1.039083481E0,-5.976226807E0,6.162974358E0
6.893864993E0,1.223437071E0,-5.801449776E0,5.990592003E0
6.898864993E0,1.412579060E0,-5.585971832E0,5.990592003E0
6.903864993E0,1.568202138E0,-5.372888088E0,6.095936775E0
6.908865026E0,1.623268723E0,-5.169380665E0,6.330568790E0
6.913865026E0,1.606509328E0,-4.968267918E0,6.689698696E0
6.918865026E0,1.532289028E0,-4.750096321E0,7.185298443E0
6.923864992E0,1.391031146E0,-4.534617901E0,7.843704224E0
6.928864958E0,1.223437071E0,-4.347870350E0,8.674491882E0
6.933864924E0,1.019929886E0,-4.271255970E0,9.627384186E0
6.938864924E0,7.517793179E-1,-4.436455727E0,1.069519806E1
6.943864924E0,5.219359994E-1,-4.745307922E0,1.169118595E1
6.948864957E0,3.974374831E-1,-5.305850029E0,1.256267548E1
6.953864990E0,3.878606856E-1,-5.923554420E0,1.314925480E1
6.958865023E0,6.033388376E-1,-6.598719120E0,1.315883160E1
6.963865023E0,9.241618514E-1,-7.197269440E0,1.272308731E1
6.968865023E0,1.247379065E0,-7.659350395E0,1.199046135E1
6.973864989E0,1.486799240E0,-7.963414192E0,1.111418343E1
6.978864989E0,1.616086125E0,-8.071153641E0,1.024987698E1
6.983864989E0,1.726219416E0,-7.982567787E0,9.514857292E0
6.988865022E0,1.810016513E0,-7.678503990E0,8.954613686E0
6.993865022E0,1.860294700E0,-7.316979885E0,8.528446198E0
6.998865022E0,1.898601890E0,-6.816591740E0,8.344092369E0
7.003864988E0,1.915361404E0,-6.258742332E0,8.387187958E0
7.008864954E0,1.920149803E0,-5.700893402E0,8.633790970E0
7.013864920E0,1.951274395E0,-5.176563263E0,8.973767281E0
7.018864920E0,2.073378563E0,-4.683058739E0,9.241917610E0
7.023864953E0,2.312798738E0,-4.216189384E0,9.340080261E0
7.028864986E0,2.655169725E0,-3.761290789E0,9.213187218E0
7.033864486E0,2.964021683E0,-3.349488258E0,8.997709274E0
7.038863586E0,3.210624456E0,-2.952050686E0,8.664915085E0
7.043862686E0,3.392583847E0,-2.588132143E0,8.296208382E0
7.048861752E0,3.462015629E0,-2.286462545E0,7.757512569E0
7.053860818E0,3.414131641E0,-2.047042370E0,7.242759228E0
7.058860818E0,3.177105665E0,-1.831564307E0,6.847716331E0
7.063859951E0,2.894589901E0,-1.632845521E0,6.680121899E0
7.068859984E0,2.645592928E0,-1.479616642E0,6.634632111E0
7.073859717E0,2.427720547E0,-1.345541358E0,6.625055313E0
7.078859717E0,2.279279947E0,-1.216254473E0,6.639420509E0
7.083859050E0,2.219424963E0,-1.110909581E0,6.699275494E0
7.088859050E0,2.233790159E0,-1.031900883E0,6.799831867E0
7.093859050E0,2.269703150E0,-9.768342972E-1,6.826168537E0
7.098858350E0,2.322375536E0,-9.504981041E-1,6.684910297E0
7.103858350E0,2.365471363E0,-9.313444495E-1,6.500556946E0
7.108858350E0,2.413355350E0,-9.026140571E-1,6.364087582E0
7.113858383E0,2.430114746E0,-8.643068075E-1,6.332962990E0
7.118858383E0,2.410961151E0,-8.164227605E-1,6.397606373E0
7.123858383E0,2.348711967E0,-7.852981687E-1,6.476614952E0
7.128858349E0,2.269703150E0,-7.685387731E-1,6.457461357E0
7.133857415E0,2.229001760E0,-7.374141216E-1,6.383241177E0
7.138856948E0,2.252943754E0,-6.392518282E-1,6.258742332E0
7.143856281E0,2.274491549E0,-5.386953950E-1,6.127061367E0
7.148856314E0,2.305616140E0,-4.405331016E-1,5.976226807E0
7.153856347E0,2.346317768E0,-3.639186621E-1,5.825392246E0
7.158856380E0,2.377442360E0,-2.849099934E-1,5.693710804E0
7.163856380E0,2.389413357E0,-1.915361285E-1,5.595548630E0
7.168856380E0,2.348711967E0,-8.379705995E-2,5.538087845E0
7.173856346E0,2.272097349E0,2.873042040E-2,5.518934250E0
7.178856312E0,2.126051188E0,1.364694983E-1,5.530905247E0
7.183856845E0,1.970427990E0,2.322375625E-1,5.535693645E0
7.188857778E0,1.781286120E0,3.088520169E-1,5.459079266E0
7.193858711E0,1.611297727E0,3.734954596E-1,5.339369297E0
7.198859611E0,1.486799240E0,4.501099288E-1,5.171774864E0
7.203860511E0,1.393425345E0,5.410895944E-1,4.999392509E0
7.208860477E0,1.297657371E0,6.416460276E-1,4.874594688E0
7.213861343E0,1.218648672E0,7.469909191E-1,4.819528103E0
7.218861309E0,1.161187768E0,8.427590132E-1,4.831499100E0
7.223861575E0,1.118092179E0,9.241618514E-1,4.881777287E0
7.228861608E0,1.074996591E0,9.768342972E-1,4.963479519E0
7.233862308E0,1.048660398E0,1.003170490E0,5.056853294E0
7.238862341E0,1.036689281E0,1.000776291E0,5.166986465E0
7.243862341E0,1.031900883E0,9.792284966E-1,5.269937038E0
7.248863007E0,1.010353088E0,9.289502501E-1,5.353734493E0
7.253862973E0,9.720458984E-1,8.475474119E-1,5.415983677E0
7.258862973E0,9.385270476E-1,7.326257229E-1,5.475838661E0
7.263862973E0,9.050082564E-1,5.937620401E-1,5.547664642E0
7.268863006E0,8.451532125E-1,4.405331016E-1,5.703287601E0
7.273863006E0,7.541735172E-1,2.849099934E-1,5.906795025E0
7.278863006E0,6.057330370E-1,1.268926859E-1,6.172551155E0
7.283863906E0,4.596867263E-1,-1.675941236E-2,6.421548367E0
7.288864339E0,3.112462163E-1,-1.795651317E-1,6.651391506E0
7.293865005E0,1.843535304E-1,-3.375824392E-1,6.852504730E0
7.298864971E0,1.244984865E-1,-5.267243981E-1,7.036858082E0
7.303864937E0,1.364694983E-1,-7.302315235E-1,7.194875240E0
7.308864937E0,2.059013397E-1,-9.481038451E-1,7.314585686E0
7.313864970E0,2.968810201E-1,-1.187524080E0,7.381623268E0
7.318865003E0,4.309563041E-1,-1.465251446E0,7.398382664E0
7.323865003E0,5.746083856E-1,-1.735796213E0,7.400776863E0
7.328865003E0,7.158663273E-1,-2.027888775E0,7.419930458E0
7.333864969E0,8.188169599E-1,-2.288856745E0,7.451055050E0
7.338864969E0,8.930372596E-1,-2.545036316E0,7.484573841E0
7.343864969E0,9.169792533E-1,-2.808398485E0,7.522881031E0
7.348865002E0,9.193734527E-1,-3.081337690E0,7.589918613E0
7.353865002E0,8.930372596E-1,-3.363853455E0,7.678503990E0
7.358865002E0,8.834604025E-1,-3.658340216E0,7.769483566E0
7.363865002E0,9.792284966E-1,-3.967192173E0,7.862857819E0
7.368865002E0,1.177947283E0,-4.247313976E0,7.944260597E0
7.373865002E0,1.393425345E0,-4.481945515E0,8.020874977E0
7.378864968E0,1.697489023E0,-4.702212334E0,8.152556419E0
7.383864968E0,2.025494576E0,-4.910807133E0,8.312967300E0
7.388864968E0,2.418143749E0,-5.121496677E0,8.504503250E0
7.393865001E0,2.758120298E0,-5.320215225E0,8.648156166E0
7.398865001E0,3.011905670E0,-5.538087845E0,8.729558945E0
7.403865001E0,3.172317266E0,-5.753565788E0,8.746317863E0
7.408864967E0,3.236960649E0,-5.954679012E0,8.703222275E0
7.413864967E0,3.246537447E0,-6.131849766E0,8.633790970E0
7.418864967E0,3.241749048E0,-6.289866924E0,8.571541786E0
7.423865000E0,3.213018656E0,-6.421548367E0,8.511686325E0
7.428865033E0,3.162740469E0,-6.546046734E0,8.427888870E0
7.433865033E0,3.110068083E0,-6.660968304E0,8.327332497E0
7.438865033E0,3.007117271E0,-6.783072472E0,8.202834129E0
7.443865033E0,2.899378300E0,-6.902782917E0,8.068758965E0
7.448865033E0,2.810792685E0,-7.034463882E0,7.939472198E0
7.453865033E0,2.731784105E0,-7.170933247E0,7.831733227E0
7.458864999E0,2.674323320E0,-7.312191486E0,7.774271965E0
7.463864999E0,2.647987127E0,-7.458237648E0,7.769483566E0
7.468864999E0,2.640804529E0,-7.630620003E0,7.824550629E0
7.473865032E0,2.621650934E0,-7.793426037E0,7.874828815E0
7.478865032E0,2.561795712E0,-7.956231594E0,7.884405613E0
7.483865032E0,2.485181332E0,-8.109460831E0,7.874828815E0
7.488864998E0,2.410961151E0,-8.262689590E0,7.898770809E0
7.493864964E0,2.308010340E0,-8.427888870E0,7.963414192E0
7.498864930E0,2.154781580E0,-8.633790970E0,8.049605370E0
7.503864930E0,1.982398987E0,-8.844480515E0,8.157344818E0
7.508865163E0,1.817199111E0,-9.050381660E0,8.284236908E0
7.513865196E0,1.671152830E0,-9.241917610E0,8.420706749E0
7.518865229E0,1.510741234E0,-9.433453560E0,8.569147110E0
7.523865229E0,1.362300754E0,-9.603442192E0,8.691251755E0
7.528865229E0,1.233013868E0,-9.761459351E0,8.791808128E0
7.533865195E0,1.156399369E0,-9.897929192E0,8.882787704E0
7.538865195E0,1.134851575E0,-1.001524544E1,8.978555679E0
7.543865195E0,1.120486379E0,-1.010861874E1,9.055170059E0
7.548865228E0,1.096544385E0,-1.018283939E1,9.110237122E0
7.553864594E0,1.065419793E0,-1.023790550E1,9.141361237E0
7.558864594E0,1.029506683E0,-1.027860737E1,9.143755913E0
7.563864560E0,1.019929886E0,-1.031451988E1,9.124602318E0
7.568864526E0,1.055842996E0,-1.032888508E1,9.081506729E0
7.573864492E0,1.103726983E0,-1.033606815E1,9.033622742E0
7.578864458E0,1.158793569E0,-1.031451988E1,8.964190483E0
7.583864458E0,1.259350061E0,-1.028578949E1,8.918700218E0
7.588864491E0,1.374271750E0,-1.025705910E1,8.894758224E0
7.593864524E0,1.482010841E0,-1.021156979E1,8.875604630E0
7.598864557E0,1.577778935E0,-1.014213753E1,8.830115318E0
7.603864557E0,1.611297727E0,-1.003200436E1,8.722375870E0
7.608864557E0,1.632845521E0,-9.909899712E0,8.564358711E0
7.613864523E0,1.632845521E0,-9.780612946E0,8.406341553E0
7.618864523E0,1.594538331E0,-9.651326180E0,8.238747597E0
7.623864523E0,1.537077546E0,-9.562741280E0,8.080730438E0
7.628864556E0,1.443703651E0,-9.534010887E0,7.886799812E0
7.633864556E0,1.355118155E0,-9.519645691E0,7.690474987E0
7.638864556E0,1.300051570E0,-9.505280495E0,7.482179642E0
7.643864556E0,1.283292055E0,-9.495702744E0,7.297826290E0
7.648864556E0,1.288080573E0,-9.495702744E0,7.142202854E0
7.653864556E0,1.302445769E0,-9.495702744E0,7.012916088E0
7.658863656E0,1.312022567E0,-9.493309021E0,6.909965515E0
7.663863656E0,1.323993564E0,-9.493309021E0,6.852504730E0
7.668863656E0,1.333570361E0,-9.481337547E0,6.859687328E0
7.673863689E0,1.357512355E0,-9.443030357E0,6.907571316E0
7.678863722E0,1.460463047E0,-9.359233856E0,7.024887085E0
7.683863722E0,1.587355733E0,-9.239523888E0,7.197269440E0
7.688863688E0,1.716642618E0,-9.081506729E0,7.407959461E0
7.693863654E0,1.824381709E0,-8.894758224E0,7.635408401E0
7.698863654E0,1.915361404E0,-8.693645477E0,7.858069420E0
7.703864320E0,2.008735180E0,-8.502109528E0,8.054393768E0
7.708864353E0,2.135627985E0,-8.310573578E0,8.200440407E0
7.713864353E0,2.264914751E0,-8.135796547E0,8.296208382E0
7.718864353E0,2.406172752E0,-7.953837395E0,8.312967300E0
7.723864353E0,2.535459518E0,-7.783848763E0,8.284236908E0
7.728864353E0,2.616862535E0,-7.613860607E0,8.202834129E0
7.733864353E0,2.679111719E0,-7.467814445E0,8.080730438E0
7.738864319E0,2.710236311E0,-7.357681274E0,7.939472198E0
7.743864319E0,2.695871115E0,-7.278672218E0,7.786243439E0
7.748864319E0,2.602497339E0,-7.225999832E0,7.633014202E0
7.753864352E0,2.442085743E0,-7.192481041E0,7.477391243E0
7.758864352E0,2.212242365E0,-7.192481041E0,7.302614689E0
7.763864352E0,1.972822189E0,-7.214028835E0,7.137414455E0
7.768864318E0,1.644816518E0,-7.264307022E0,6.986579895E0
7.773864284E0,1.309628367E0,-7.326556683E0,6.857293129E0
7.778864250E0,9.457096457E-1,-7.429507256E0,6.783072472E0
7.783864250E0,6.224924326E-1,-7.537246227E0,6.756736279E0
7.788864283E0,3.399766386E-1,-7.633014202E0,6.778284073E0
7.793864316E0,1.029506698E-1,-7.719205379E0,6.857293129E0
7.798864349E0,-4.548983276E-2,-7.798214436E0,6.996156693E0
7.803864382E0,-1.244984865E-1,-7.858069420E0,7.154173851E0
7.808865048E0,-1.316810995E-1,-7.905953407E0,7.364863873E0
7.813865014E0,-9.816227108E-2,-7.941866398E0,7.582736015E0
7.818864980E0,1.915361360E-2,-7.965808392E0,7.843704224E0
7.823864980E0,1.484405100E-1,-7.975385189E0,8.135796547E0
7.828864980E0,2.489969730E-1,-7.977779388E0,8.461407661E0
7.833865013E0,3.064578176E-1,-7.972990990E0,8.813355446E0
7.838865013E0,3.327940404E-1,-7.951443195E0,9.167697906E0
7.843865013E0,3.471592367E-1,-7.893982410E0,9.481337547E0
7.848864979E0,3.567360640E-1,-7.824550629E0,9.768642426E0
7.853864945E0,3.902548850E-1,-7.762300968E0,1.000566864E1
7.858864911E0,4.979939461E-1,-7.654561996E0,1.011819553E1
7.863864911E0,5.602431893E-1,-7.539640427E0,1.019002151E1
7.868864944E0,6.200982332E-1,-7.405565262E0,1.019241619E1
7.873864977E0,6.871358752E-1,-7.271489620E0,1.013974380E1
7.878865010E0,7.254431248E-1,-7.132626057E0,1.001524544E1
7.883865010E0,7.422025204E-1,-6.996156693E0,9.830891609E0
7.888865010E0,7.350199223E-1,-6.869264126E0,9.596260071E0
7.893864976E0,7.469909191E-1,-6.771101475E0,9.330503464E0
7.898864976E0,8.116343617E-1,-6.725611687E0,9.014469147E0
7.903864976E0,8.786720037E-1,-6.658574104E0,8.715193748E0
7.908865009E0,9.744400978E-1,-6.558017731E0,8.396764755E0
7.913865009E0,1.072602391E0,-6.474220753E0,8.104672432E0
7.918865009E0,1.132457376E0,-6.390423775E0,7.853281021E0
7.923865009E0,1.161187768E0,-6.332962990E0,7.697657585E0
7.928865009E0,1.165976286E0,-6.297049522E0,7.659350395E0
7.933865009E0,1.189918280E0,-6.285078526E0,7.738358974E0
7.938864975E0,1.242590666E0,-6.299443722E0,7.901165009E0
7.943864941E0,1.300051570E0,-6.337751389E0,8.138191223E0
7.948864941E0,1.338358760E0,-6.390423775E0,8.449437141E0
7.953864941E0,1.355118155E0,-6.423942566E0,8.734347343E0
7.958864974E0,1.355118155E0,-6.421548367E0,8.971372604E0
7.963864974E0,1.355118155E0,-6.407183170E0,9.136572838E0
7.968864974E0,1.333570361E0,-6.376058578E0,9.206005096E0
7.973864940E0,1.290474772E0,-6.337751389E0,9.177274704E0
7.978864940E0,1.221042871E0,-6.285078526E0,9.052776337E0
7.983864940E0,1.139639974E0,-6.208464146E0,8.880393028E0
7.988864973E0,1.043871999E0,-6.088754177E0,8.684068680E0
7.993864973E0,9.959878922E-1,-5.887641430E0,8.466196060E0
7.998864973E0,9.864110947E-1,-5.533299446E0,8.212410927E0
8.003864973E0,9.935936928E-1,-5.126285076E0,7.972990990E0
8.008864973E0,9.768342972E-1,-4.649539471E0,7.750329971E0
8.013864973E0,9.193734527E-1,-4.199429989E0,7.597101212E0
8.018864939E0,8.571242094E-1,-3.756502390E0,7.506121635E0
8.023864939E0,8.619126081E-1,-3.351882458E0,7.453449249E0
8.028864272E0,9.385270476E-1,-2.978386879E0,7.410353661E0
8.033864305E0,9.864110947E-1,-2.597708941E0,7.393594265E0
8.038863638E0,1.098938584E0,-2.229001760E0,7.348104477E0
8.043863638E0,1.199495077E0,-1.893813491E0,7.336133480E0
8.048862704E0,1.276109457E0,-1.599326730E0,7.319374084E0
8.053862670E0,1.347935557E0,-1.364694953E0,7.235576630E0
8.058862003E0,1.472434044E0,-1.154005170E0,7.024887085E0
8.063861136E0,1.616086125E0,-9.576807022E-1,6.778284073E0
8.068860269E0,1.764526606E0,-7.733271718E-1,6.502951145E0
8.073859602E0,1.917755604E0,-6.057330370E-1,6.299443722E0
8.078859602E0,2.006340981E0,-4.716577232E-1,6.234800339E0
8.083858935E0,2.006340981E0,-3.974374831E-1,6.325780392E0
8.088858935E0,1.893813491E0,-3.806780577E-1,6.531681538E0
8.093859001E0,1.747767210E0,-4.261679053E-1,6.728005886E0
8.098858967E0,1.594538331E0,-6.057330370E-1,6.874052525E0
8.103858967E0,1.489193439E0,-8.212111592E-1,6.969820499E0
8.108858300E0,1.410184860E0,-1.051054597E0,7.017704487E0
8.113858333E0,1.381454349E0,-1.237802267E0,7.017704487E0
8.118857933E0,1.410184860E0,-1.355118155E0,6.897994518E0
8.123857266E0,1.441309452E0,-1.398213744E0,6.668150902E0
8.128857232E0,1.493981838E0,-1.374271750E0,6.380846977E0
8.133857232E0,1.551442742E0,-1.280897856E0,6.129455566E0
8.138857232E0,1.584961534E0,-1.103726983E0,5.961861610E0
8.143857265E0,1.592144132E0,-8.882488012E-1,5.851728439E0
8.148857265E0,1.498770237E0,-6.200982332E-1,5.763142586E0
8.153857265E0,1.412579060E0,-3.567360640E-1,5.693710804E0
8.158857265E0,1.335964561E0,-4.788403213E-2,5.631461620E0
8.163857265E0,1.283292055E0,2.753331959E-1,5.595548630E0
8.168857265E0,1.256955862E0,5.674257874E-1,5.557241440E0
8.173857231E0,1.204283476E0,7.876923680E-1,5.528511047E0
8.178857864E0,1.086967587E0,9.193734527E-1,5.533299446E0
8.183857864E0,9.313444495E-1,9.672574997E-1,5.535693645E0
8.188858564E0,7.422025204E-1,9.169792533E-1,5.530905247E0
8.193858597E0,5.674257874E-1,8.259995580E-1,5.514145851E0
8.198859497E0,3.998316824E-1,6.871358752E-1,5.471050262E0
8.203859497E0,2.873041928E-1,5.434837937E-1,5.418377876E0
8.208860130E0,2.466027737E-1,3.902548850E-1,5.341763496E0
8.213861030E0,2.633621991E-1,2.609679997E-1,5.257966042E0
8.218861930E0,4.812345505E-1,-2.729389966E-1,4.888959885E0
8.223861963E0,5.937620401E-1,-2.729389966E-1,5.044882298E0
8.228861963E0,7.134721279E-1,-2.825157940E-1,5.272331238E0
8.233862629E0,8.667010069E-1,-3.375824392E-1,5.473444462E0
8.238862629E0,1.070208192E0,-4.022258818E-1,5.636250019E0
8.243862562E0,1.029506683E0,-4.572925270E-1,5.653009415E0
8.248862562E0,7.757213712E-1,-5.674257874E-1,5.916371822E0
8.253862528E0,6.943184733E-1,-6.392518282E-1,6.268319130E0
8.258863194E0,5.913678408E-1,-7.996633649E-1,6.835745335E0
8.263863194E0,5.243301988E-1,-9.840168953E-1,7.079953671E0
8.268863627E0,4.046200812E-1,-1.209071875E0,7.283460617E0
8.273864293E0,2.346317619E-1,-1.477222443E0,7.372046471E0
8.278864293E0,2.633621916E-2,-1.807622313E0,7.264307022E0
8.283864259E0,-5.985504389E-2,-2.190694571E0,7.135020256E0
8.288864259E0,-1.221042871E-1,-2.583343744E0,7.099107265E0
8.293864259E0,-1.628057212E-1,-2.849100113E0,7.223605633E0
8.298864292E0,1.915361360E-2,-3.327940464E0,7.549217224E0
8.303864325E0,1.675941199E-1,-3.660734415E0,7.618649006E0
8.308864325E0,3.088520169E-1,-4.194641590E0,7.407959461E0
8.313864325E0,3.902548850E-1,-4.639962673E0,6.986579895E0
8.318864325E0,6.703764796E-1,-5.071218491E0,6.579565525E0
8.323864325E0,1.036689281E0,-5.483021259E0,6.450278759E0
8.328864325E0,1.312022567E0,-5.844545841E0,6.534075737E0
8.333864291E0,1.462857246E0,-6.086359978E0,6.802226067E0
8.338864291E0,1.580173135E0,-6.316203594E0,7.221211433E0
8.343864291E0,1.640028119E0,-6.471826553E0,7.417536259E0
8.348864324E0,1.592144132E0,-6.735188484E0,7.549217224E0
8.353864324E0,1.596932530E0,-6.905177116E0,7.491756439E0
8.358864324E0,1.833958507E0,-7.168539047E0,7.273883820E0
8.363864290E0,2.059013367E0,-7.439084053E0,7.194875240E0
8.368864256E0,2.387019157E0,-7.664138794E0,7.276278019E0
8.373864889E0,2.743755102E0,-7.862857819E0,7.546823025E0
8.378864889E0,3.009511471E0,-8.087912560E0,7.901165009E0
8.383864922E0,2.978386879E0,-8.092700958E0,8.004115105E0
8.388864955E0,2.722207308E0,-8.068758965E0,8.116642952E0
8.393864988E0,2.590526342E0,-8.095095634E0,8.116642952E0
8.398864988E0,2.207453966E0,-8.150161743E0,8.245929718E0
8.403864988E0,1.793257117E0,-8.324938774E0,8.327332497E0
8.408864954E0,1.539471745E0,-8.542811394E0,8.396764755E0
8.413864954E0,1.556231141E0,-8.818143845E0,8.552388191E0
8.418864954E0,1.764526606E0,-9.131784439E0,8.640973091E0
8.423864987E0,1.994369984E0,-9.407117844E0,8.700828552E0
8.428865020E0,2.284068346E0,-9.694421768E0,8.672098160E0
8.433865020E0,2.456450939E0,-9.924264908E0,8.724770546E0
8.438864986E0,2.844311714E0,-1.001045704E1,8.827720642E0
8.443864952E0,3.057395458E0,-9.962572098E0,8.830115318E0
8.448864918E0,3.253720045E0,-9.680056572E0,8.889969826E0
8.453864884E0,3.165134668E0,-9.455001831E0,9.057564735E0
8.458864884E0,2.834734917E0,-8.873210907E0,9.316138268E0
8.463864917E0,2.523488522E0,-8.430283546E0,9.644144058E0
8.468864950E0,2.221819162E0,-8.135796547E0,9.876380920E0
8.473864983E0,1.908178806E0,-8.061576843E0,1.009185982E1
8.478864983E0,1.587355733E0,-8.324938774E0,1.030973148E1
8.483864983E0,1.290474772E0,-8.602665901E0,1.033846188E1
8.488864949E0,8.044517636E-1,-9.186851501E0,1.033367348E1
8.493864949E0,5.578489900E-1,-9.584288597E0,1.025466537E1
8.498864949E0,2.011129409E-1,-1.028100109E1,1.014932060E1
8.503864982E0,1.077390760E-1,-1.078138924E1,1.012298393E1
8.508864982E0,2.082955539E-1,-1.132008457E1,1.010383034E1
8.513864982E0,3.687070608E-1,-1.162893677E1,1.015889740E1
8.518864982E0,5.554547906E-1,-1.184202099E1,1.017326260E1
8.523864982E0,8.954314590E-1,-1.179653072E1,1.004158115E1
8.528864982E0,1.383848548E0,-1.135839176E1,9.725546837E0
8.533864948E0,1.510741234E0,-1.103517532E1,9.529222488E0
8.538864948E0,1.608903527E0,-1.056830597E1,9.294589996E0
8.543864948E0,1.498770237E0,-1.029057789E1,9.179668427E0
8.548864981E0,1.496376038E0,-9.838073730E0,9.031228065E0
8.553865014E0,1.532289028E0,-9.538799286E0,9.086295128E0
8.558865014E0,1.431732655E0,-9.344868660E0,9.160514832E0
8.563864980E0,1.194706678E0,-9.160514832E0,9.036016464E0
8.568864946E0,9.935936928E-1,-9.119813919E0,8.803778648E0
8.573864946E0,1.022324085E0,-9.189245224E0,8.526051521E0
8.578864946E0,1.345541358E0,-9.476549149E0,8.248324394E0
8.583864979E0,1.752555609E0,-9.589076996E0,8.243535995E0
8.588864979E0,2.123656988E0,-9.548376083E0,8.300996780E0
8.593864979E0,2.056619167E0,-9.440636635E0,8.142979622E0
8.598864979E0,1.980004787E0,-9.244312286E0,7.714416981E0
8.603864979E0,1.934514999E0,-9.110237122E0,7.395988464E0
8.608864979E0,1.941697598E0,-8.940248489E0,7.091924667E0
8.613864945E0,1.862688899E0,-8.710405350E0,6.888417721E0
8.618864945E0,1.893813491E0,-8.502109528E0,6.718429089E0
8.623864945E0,1.984793186E0,-8.253112793E0,6.706458092E0
8.628864978E0,2.030282974E0,-8.006509781E0,6.739976883E0
8.633864978E0,2.023100376E0,-7.922712803E0,6.787860870E0
8.638864978E0,1.929726601E0,-7.817368031E0,6.821380138E0
8.643864944E0,1.867477298E0,-7.795820236E0,6.864475727E0
8.648864910E0,1.786074519E0,-7.788637638E0,6.921936512E0
8.653864876E0,1.733402014E0,-7.747935772E0,7.056011677E0
8.658864876E0,1.654393315E0,-7.714416981E0,7.237970829E0
8.663864909E0,1.584961534E0,-7.707234383E0,7.398382664E0
8.668864942E0,1.477222443E0,-7.623437405E0,7.556399822E0
8.673864975E0,1.438915253E0,-7.558794022E0,7.542034626E0
8.678865008E0,1.422155857E0,-7.465420246E0,7.427113056E0
8.683865008E0,1.331176162E0,-7.391200066E0,7.290643215E0
8.688864974E0,1.340752959E0,-7.350498676E0,7.008127689E0
8.693864940E0,1.362300754E0,-7.384017467E0,6.871658325E0
8.698864940E0,1.388636947E0,-7.496544838E0,6.694487095E0
8.703864940E0,1.285686255E0,-7.587524414E0,6.668150902E0
8.708864973E0,1.058237195E0,-7.666532993E0,6.847716331E0
8.713864973E0,9.552865028E-1,-7.860463619E0,7.276278019E0
8.718864973E0,1.027112484E0,-8.154950142E0,7.963414192E0
8.723864939E0,1.003170490E0,-8.303390503E0,8.346486092E0
8.728864905E0,1.106121182E0,-8.564358711E0,8.899546623E0
8.733864871E0,1.312022567E0,-8.844480515E0,9.239523888E0
8.738864871E0,1.498770237E0,-9.273042679E0,9.756670952E0
8.743864904E0,1.369483352E0,-9.399934769E0,1.004158115E1
8.748864937E0,8.427590132E-1,-9.378387451E0,1.016607952E1
8.753864970E0,2.633621991E-1,-9.332897186E0,1.018523312E1
8.758864970E0,-2.561795712E-1,-9.277831078E0,1.020917511E1
8.763864970E0,-6.105214357E-1,-9.342473984E0,1.030015469E1
8.768864936E0,-9.241618514E-1,-9.306561470E0,1.030015469E1
8.773864936E0,-9.504981041E-1,-9.227552414E0,1.017086792E1
8.778864936E0,-8.307880163E-1,-8.964190483E0,9.797372818E0
8.783864969E0,-5.722141862E-1,-8.743924141E0,9.522039413E0
8.788864969E0,-8.619125932E-2,-8.260294914E0,9.076718330E0
8.793864969E0,1.580173075E-1,-7.783848763E0,8.870816231E0
8.798864969E0,5.291185975E-1,-7.336133480E0,8.832509041E0
8.803864969E0,9.050082564E-1,-6.974608898E0,8.827720642E0
8.808864969E0,1.189918280E0,-6.601113319E0,8.798990250E0
8.813864935E0,1.386242747E0,-6.134243965E0,8.696040154E0
8.818864901E0,1.628057122E0,-5.760748386E0,8.581118584E0
8.823864901E0,1.714248419E0,-5.629067421E0,8.514080048E0
8.828864901E0,1.886630893E0,-5.494992256E0,8.425495148E0
8.833864934E0,1.896207690E0,-5.394435883E0,8.444648743E0
8.838864934E0,1.656787634E0,-5.277119637E0,8.597877502E0
8.843864934E0,1.312022567E0,-5.202899456E0,8.688857079E0
8.848864900E0,8.690952063E-1,-5.126285076E0,8.758289337E0
8.853864900E0,3.567360640E-1,-5.222053051E0,8.870816231E0
8.858864900E0,2.394201700E-3,-5.281908035E0,9.038411140E0
8.863864933E0,-8.379705995E-2,-5.281908035E0,8.988132477E0
8.868864933E0,1.412578970E-1,-5.296273232E0,8.748712540E0
8.873864933E0,3.734954596E-1,-5.348946095E0,8.595483780E0
8.878864933E0,9.121908545E-1,-5.322609425E0,8.061576843E0
8.883864933E0,1.371877551E0,-5.131073475E0,7.367258072E0
8.888864933E0,1.630451322E0,-4.850652695E0,6.596324921E0
8.893864899E0,1.889025092E0,-4.599261284E0,5.918766022E0
8.898864899E0,2.135627985E0,-4.477157116E0,5.471050262E0
8.903864899E0,1.896207690E0,-4.462791920E0,5.360917091E0
8.908864932E0,1.302445769E0,-4.587290287E0,6.038475990E0
8.913864932E0,1.012747288E0,-4.632780075E0,7.067982674E0
8.918864932E0,6.584054828E-1,-4.642356873E0,9.256282806E0
8.923864898E0,9.744400978E-1,-4.795586109E0,1.027621269E1
8.928864864E0,1.764526606E0,-4.917989731E0,1.082687950E1
8.933864864E0,1.848323703E0,-4.874594688E0,1.058506489E1
8.938864897E0,1.944091797E0,-4.939537525E0,9.720758438E0
8.943864930E0,1.982398987E0,-4.927566528E0,8.858845711E0
8.948864930E0,1.570596337E0,-4.635174274E0,8.370428085E0
8.953864930E0,1.058237195E0,-3.943250179E0,8.135796547E0
8.958864930E0,5.530605912E-1,-2.894589901E0,7.800608635E0
8.963864930E0,3.663128614E-1,-2.109291792E0,7.589918613E0
8.968864463E0,2.489969730E-1,-8.116343617E-1,6.962637901E0
8.973864429E0,3.040636182E-1,-1.532289088E-1,6.335357189E0
8.978864429E0,1.077390790E0,6.200982332E-1,5.166986465E0
8.983864429E0,1.798045516E0,1.007958889E0,4.417302132E0
8.988864462E0,2.492363930E0,1.261744261E0,4.017470360E0
8.993864462E0,2.566584110E0,1.460463047E0,4.211400986E0
8.998864462E0,2.303221941E0,1.486799240E0,4.848258495E0
9.003864428E0,1.860294700E0,1.278503656E0,5.272331238E0
9.008864394E0,1.738190413E0,8.116343617E-1,4.850652695E0
9.013864360E0,1.474828243E0,5.530605912E-1,4.149151325E0
9.018864360E0,9.313444495E-1,4.429273009E-1,3.306392431E0
9.023863993E0,7.230489254E-1,4.237737060E-1,3.215412855E0
9.028864026E0,3.112462163E-1,4.692635238E-1,3.892971992E0
9.033864059E0,1.867477298E-1,5.458779931E-1,4.946720123E0
9.038864059E0,3.160346150E-1,5.793967843E-1,6.210858345E0
9.043863392E0,3.567360640E-1,4.596867263E-1,7.623437405E0
9.048862458E0,1.915361285E-1,2.106897533E-1,8.844480515E0
9.053861524E0,-3.064578176E-1,-1.412578970E-1,9.615413666E0
9.058860624E0,-6.631938815E-1,-7.541735172E-1,9.368810654E0
9.063859990E0,-8.044517636E-1,-1.180341482E0,8.569147110E0
9.068859123E0,-1.051054597E0,-1.537077546E0,6.723217487E0
9.073858456E0,-1.149216771E0,-1.570596337E0,5.688922405E0
9.078857789E0,-9.600749016E-1,-1.276109457E0,4.278438568E0
9.083856855E0,-6.153098345E-1,-8.379706144E-1,3.519476414E0
9.088856388E0,-3.687070608E-1,-1.699883193E-1,3.110068083E0
9.093856354E0,-1.197100803E-2,5.219359994E-1,3.119644880E0
9.098856354E0,3.591302633E-1,1.094150186E0,3.442862034E0
9.103856387E0,5.889736414E-1,1.431732655E0,3.878606796E0
9.108856420E0,9.720458984E-1,1.553836942E0,4.326322556E0
9.113856453E0,1.247379065E0,1.438915253E0,4.350264549E0
9.118856919E0,1.412579060E0,1.154005170E0,4.175487995E0
9.123856919E0,1.434126854E0,9.289502501E-1,4.108449936E0
9.128856885E0,1.398213744E0,6.440402865E-1,4.223371983E0
9.133856485E0,1.233013868E0,5.051765442E-1,4.417302132E0
9.138856485E0,1.077390790E0,4.309563041E-1,4.668693542E0
9.143856518E0,8.834604025E-1,3.447650373E-1,4.797980309E0
9.148856518E0,3.758896589E-1,2.226607651E-1,4.821922302E0
9.153856518E0,3.160346150E-1,8.858546615E-2,4.869806290E0
9.158856518E0,4.070143029E-2,-1.221042871E-1,5.061641693E0
9.163856518E0,-2.130839527E-1,-2.585737705E-1,5.377676487E0
9.168856518E0,-6.871358752E-1,-5.937620401E-1,5.791872978E0
9.173856884E0,-9.504981041E-1,-8.140285611E-1,5.861305237E0
9.178856850E0,-1.156399369E0,-1.300051570E0,5.600337029E0
9.183856850E0,-1.357512355E0,-1.831564307E0,5.164592266E0
9.188856883E0,-1.589749932E0,-2.353500366E0,4.805162907E0
9.193857583E0,-1.589749932E0,-2.949656487E0,4.491522312E0
9.198858483E0,-1.228225470E0,-3.794809580E0,4.127603531E0
9.203859383E0,-7.685387731E-1,-4.288015366E0,4.039018154E0
9.208860249E0,1.915361360E-2,-4.927566528E0,4.462791920E0
9.213860915E0,3.950432837E-1,-5.178957462E0,5.147832870E0
9.218861815E0,1.218648672E0,-5.377676487E0,6.778284073E0
9.223862915E0,1.877054095E0,-5.494992256E0,8.370428085E0
9.228863581E0,2.044648170E0,-5.499780655E0,9.914688110E0
9.233864481E0,1.472434044E0,-5.408801079E0,1.126980686E1
9.238864914E0,4.094084799E-1,-5.473444462E0,1.213171959E1
9.243864914E0,-4.381389022E-1,-5.925948620E0,1.233043766E1
9.248864914E0,-5.674257874E-1,-7.328950882E0,1.159781265E1
9.253864880E0,2.154781483E-2,-8.447042465E0,1.107348251E1
9.258864880E0,6.368576288E-1,-9.955389977E0,1.050366211E1
9.263864880E0,1.039083481E0,-1.062097836E1,1.039352894E1
9.268864913E0,1.939303398E0,-1.150443840E1,1.044380665E1
9.273864913E0,2.590526342E0,-1.189708710E1,1.040071106E1
9.278864913E0,3.148375273E0,-1.240465832E1,1.018523312E1
9.283865279E0,3.643975019E0,-1.255309868E1,9.835680008E0
9.288865279E0,3.787626982E0,-1.242141724E1,9.304166794E0
9.293865279E0,3.682282209E0,-1.210538292E1,8.593089104E0
9.298865312E0,3.294421434E0,-1.150922680E1,7.927501202E0
9.303865345E0,3.229778051E0,-1.093940639E1,7.826944828E0
9.308865345E0,3.615244627E0,-9.747094154E0,7.944260597E0
9.313865345E0,3.797203779E0,-9.043199539E0,7.963414192E0
9.318865345E0,3.897760391E0,-7.989750385E0,8.104672432E0
9.323865345E0,4.113238335E0,-7.376834869E0,8.277054787E0
9.328865345E0,4.311957359E0,-7.067982674E0,8.202834129E0
9.333865311E0,4.244919777E0,-6.795043468E0,8.061576843E0
9.338865311E0,3.849876404E0,-6.476614952E0,7.865252018E0
9.343865311E0,3.620033026E0,-6.146214962E0,7.668927193E0
9.348865344E0,3.308786631E0,-6.028899193E0,7.278672218E0
9.353865344E0,2.918531895E0,-6.069600582E0,7.139808655E0
9.358865344E0,2.355894566E0,-6.158185959E0,7.520486832E0
9.363865310E0,1.977610588E0,-6.237194538E0,7.838915825E0
9.368865276E0,1.261744261E0,-6.476614952E0,8.547599792E0
9.373864842E0,6.727706790E-1,-6.912359715E0,9.452607155E0
9.378864842E0,9.576806426E-2,-7.771877766E0,1.036479855E1
9.383864875E0,-2.920926213E-1,-9.088688850E0,1.120276928E1
9.388864908E0,-7.972691655E-1,-1.064731407E1,1.186835670E1
9.393864941E0,-1.403002143E0,-1.236395645E1,1.225621796E1
9.398864941E0,-1.946485996E0,-1.446127796E1,1.248606110E1
9.403864941E0,-2.322375536E0,-1.561318779E1,1.251479149E1
9.408864907E0,-2.822763920E0,-1.704731560E1,1.236635113E1
9.413864907E0,-2.650381327E0,-1.750460625E1,1.223227596E1
9.418864907E0,-1.319205165E0,-1.710717010E1,1.184202099E1
9.423864940E0,3.687070608E-1,-1.534264278E1,1.127698898E1
9.428864973E0,1.604115129E0,-1.295293045E1,1.025466537E1
9.433864973E0,2.442085743E0,-1.075984192E1,9.038411140E0
9.438864939E0,3.277662039E0,-9.004891396E0,7.707234383E0
9.443864905E0,3.548206806E0,-7.781454563E0,7.106289864E0
9.448864871E0,3.835511208E0,-6.723217487E0,6.402394772E0
9.453864837E0,3.854664803E0,-6.249165535E0,6.218040943E0
9.458864837E0,3.562572241E0,-5.789478779E0,5.966650009E0
9.463864870E0,2.870647907E0,-5.473444462E0,5.796661377E0
9.468864903E0,2.025494576E0,-5.298667431E0,5.801449776E0
9.473864936E0,1.266532660E0,-5.301061630E0,5.964255810E0
9.478864936E0,5.985504389E-1,-5.399224281E0,6.253953934E0
9.483864936E0,7.422025502E-2,-5.550058842E0,6.677727699E0
9.488864902E0,-1.747767180E-1,-5.827786446E0,7.261912823E0
9.493864902E0,-1.508347094E-1,-6.007351398E0,7.549217224E0
9.498864902E0,1.604115069E-1,-6.285078526E0,7.786243439E0
9.503864935E0,5.458779931E-1,-6.404788971E0,7.812579632E0
9.508864935E0,1.388636947E0,-6.586748123E0,7.920318604E0
9.513864935E0,2.018311977E0,-6.749553680E0,8.025663376E0
9.518864935E0,2.636016130E0,-7.161356449E0,8.190863609E0
9.523864935E0,3.122039080E0,-7.723993778E0,8.181286812E0
9.528864935E0,3.371036053E0,-8.722375870E0,7.946654797E0
9.533864901E0,3.438073635E0,-1.002961063E1,7.621043205E0
9.538864901E0,3.531447411E0,-1.158584118E1,7.123049259E0
9.543864901E0,3.600879431E0,-1.220833397E1,6.943484306E0
9.548864934E0,3.521870613E0,-1.264886665E1,7.003339291E0
9.553864967E0,3.361459255E0,-1.251718616E1,7.199663639E0
9.558864967E0,2.746149302E0,-1.170555115E1,7.498939037E0
9.563864933E0,1.896207690E0,-1.092264748E1,7.862857819E0
9.568864899E0,8.092401624E-1,-1.029776096E1,8.368034363E0
9.573864899E0,-2.370259613E-1,-9.895534515E0,9.052776337E0
9.578864899E0,-1.357512355E0,-9.632172585E0,9.830891609E0
9.583864932E0,-2.387019157E0,-9.601048470E0,1.061858368E1
9.588864932E0,-3.222595453E0,-9.500492096E0,1.133684444E1
9.593864932E0,-3.536235809E0,-9.421483040E0,1.151880360E1
9.598864932E0,-3.457227230E0,-9.155726433E0,1.137754536E1
9.603864932E0,-2.940079689E0,-8.856451035E0,1.097292614E1
9.608864932E0,-1.635239720E0,-8.142979622E0,1.026903057E1
9.613864898E0,-3.758896589E-1,-7.400776863E0,9.749488831E0
9.618864898E0,7.134721279E-1,-6.625055313E0,9.275436401E0
9.623864898E0,1.426944256E0,-5.945102215E0,8.952219009E0
9.628864931E0,2.173935175E0,-5.056853294E0,8.454225540E0
9.633864931E0,2.789244890E0,-4.541800499E0,8.217199326E0
9.638864931E0,3.761290789E0,-4.146757126E0,7.795820236E0
9.643864897E0,4.390965939E0,-4.110844135E0,7.527669430E0
9.648864897E0,4.910807133E0,-4.378994942E0,7.067982674E0
9.653864897E0,4.949114323E0,-4.702212334E0,6.613084316E0
9.658864930E0,4.651933670E0,-5.102343082E0,5.741594791E0
9.663864930E0,4.065354347E0,-5.372888088E0,5.066430092E0
9.668864930E0,2.980781078E0,-5.564424038E0,4.594472885E0
9.673864930E0,1.733402014E0,-5.861305237E0,4.390965939E0
9.678864930E0,2.418143749E-1,-6.170156956E0,4.599261284E0
9.683864930E0,-5.458779931E-1,-6.519710541E0,5.581183434E0
9.688864896E0,-1.666364431E0,-7.008127689E0,7.958625793E0
9.693864862E0,-2.437297344E0,-7.376834869E0,9.988908768E0
9.698864862E0,-3.414131641E0,-8.080730438E0,1.331206036E1
9.703864862E0,-3.552995205E0,-8.851662636E0,1.512955952E1
9.708864895E0,-3.160346270E0,-9.560346603E0,1.616864204E1
9.713864895E0,-2.504334927E0,-1.006552315E1,1.659959984E1
9.718864895E0,-1.618480325E0,-1.033606815E1,1.636975479E1
9.723864861E0,-6.703764796E-1,-1.036240387E1,1.567064857E1
9.728864827E0,5.458779931E-1,-9.967360497E0,1.420749187E1
9.733864793E0,1.252167463E0,-9.632172585E0,1.313010120E1
9.738864793E0,2.205059767E0,-9.062353134E0,1.109502983E1
9.743864826E0,2.698265314E0,-8.755894661E0,9.826103210E0
9.748864859E0,3.268085241E0,-8.202834129E0,7.889194012E0
9.753864892E0,3.383007050E0,-7.786243439E0,6.842927933E0
9.758864892E0,2.959233284E0,-7.089530468E0,5.363311291E0
9.763864892E0,2.336740971E0,-6.488585949E0,4.680664539E0
9.768864858E0,1.496376038E0,-5.995380402E0,4.627991676E0
9.773864858E0,8.571242094E-1,-5.576395035E0,4.707000732E0
9.778864858E0,4.501099288E-1,-5.064035892E0,4.778826714E0
9.783864891E0,4.716577232E-1,-4.668693542E0,4.865017891E0
9.788864891E0,5.530605912E-1,-4.151545525E0,5.018546104E0
9.793864891E0,8.643068075E-1,-3.730166197E0,5.008969307E0
9.798864857E0,1.357512355E0,-3.043030262E0,4.980238914E0
9.803864823E0,1.467645645E0,-2.322375536E0,5.049670696E0
9.808864789E0,1.503558636E0,-1.685518026E0,5.102343082E0
9.813864789E0,1.541865945E0,-1.077390790E0,5.372888088E0
9.818864789E0,1.690306425E0,-4.094084799E-1,5.791872978E0
9.823864822E0,1.968033791E0,1.651999205E-1,6.179733753E0
9.828864855E0,2.262520552E0,9.241618514E-1,6.730400085E0
9.833864888E0,2.169146776E0,1.331176162E0,7.326556683E0
9.838864888E0,1.424550056E0,2.094926596E0,9.095871925E0
9.843864888E0,1.039083481E0,2.322375536E0,1.030494308E1
9.848864854E0,7.757213712E-1,2.358288765E0,1.203834534E1
9.853864854E0,7.829039693E-1,1.991975784E0,1.242860031E1
9.858864854E0,7.158663273E-1,1.173158884E0,1.154274559E1
9.863864887E0,4.453215301E-1,3.351882473E-2,9.845256805E0
9.868864887E0,-7.661445439E-2,-1.376665950E0,7.898770809E0
9.873864887E0,-6.248866320E-1,-3.272873640E0,5.976226807E0
9.878864887E0,-9.169792533E-1,-5.178957462E0,3.727771997E0
9.883864887E0,-8.906430602E-1,-5.727229595E0,2.197877169E0
9.888864887E0,-1.819593310E-1,-5.875670433E0,4.237737060E-1
9.893864853E0,5.482721925E-1,-5.499780655E0,-1.340752989E-1
9.898864853E0,1.441309452E0,-4.062960148E0,1.987187415E-1
9.903864853E0,2.056619167E0,-2.365471363E0,1.369483352E0
9.908864886E0,2.643198729E0,-7.038952708E-1,2.806004286E0
9.913864886E0,3.062183857E0,8.667010069E-1,4.355052948E0
9.918864886E0,3.387795448E0,2.118868589E0,5.483021259E0
9.923864852E0,3.579331636E0,2.729389906E0,5.794267178E0
9.928864818E0,3.378218651E0,3.122039080E0,5.425560474E0
9.933864784E0,3.043030262E0,3.167528868E0,5.135861874E0
9.938864784E0,2.250549555E0,2.789244890E0,4.496310711E0
9.943864784E0,1.434126854E0,2.489969730E0,3.828328609E0
9.948864817E0,5.506663918E-1,1.982398987E0,3.239354849E0
9.953864850E0,-2.394201756E-1,1.647210717E0,2.966415882E0
9.958864883E0,-7.398083210E-1,1.403002143E0,3.011905670E0
9.963864883E0,-8.523358107E-1,1.209071875E0,3.131615877E0
9.968864883E0,-8.571242094E-1,1.091755986E0,3.452438831E0
9.973864849E0,-6.847416759E-1,1.103726983E0,3.751713991E0
9.978864849E0,-4.596867263E-1,1.230619669E0,4.041412354E0
9.983864849E0,-4.046200812E-1,1.343147159E0,4.120420933E0
9.988864882E0,-2.298433632E-1,1.539471745E0,4.249708176E0
9.993864882E0,-1.604115069E-1,1.599326730E0,4.352658749E0
9.998864882E0,-2.178723514E-1,1.589749932E0,4.414907932E0
1.000386485E1,-4.285621047E-1,1.386242747E0,4.388571739E0
1.000886481E1,-7.134721279E-1,1.063025594E0,4.335899353E0
1.001386478E1,-9.169792533E-1,6.703764796E-1,4.426878929E0
1.001886478E1,-9.361328483E-1,7.422025502E-2,4.711789131E0
1.002386481E1,-8.954314590E-1,-2.561795712E-1,5.054459095E0
1.002886485E1,-9.361328483E-1,-7.326257229E-1,5.868487835E0
1.003386488E1,-9.816226959E-1,-9.313444495E-1,6.440701962E0
1.003886421E1,-1.247379065E0,-1.383848548E0,7.278672218E0
1.004386331E1,-1.467645645E0,-1.711854219E0,7.635408401E0
1.004886238E1,-1.738190413E0,-2.308010340E0,7.841310024E0
1.005386168E1,-1.867477298E0,-2.803610086E0,7.779060364E0
1.005886078E1,-1.625662923E0,-3.354276657E0,7.568370819E0
1.006386014E1,-1.115697980E0,-3.904942989E0,7.202057838E0
1.006885951E1,-4.740519226E-1,-4.503493309E0,6.850110531E0
1.007385861E1,-9.097966552E-2,-4.795586109E0,6.835745335E0
1.007885771E1,4.333505034E-1,-5.269937038E0,7.034463882E0
1.008385738E1,7.613561153E-1,-5.600337029E0,7.221211433E0
1.008885698E1,1.436521053E0,-6.110301971E0,7.554005623E0
1.009385698E1,2.135627985E0,-6.378452778E0,7.910741806E0
1.009885694E1,2.896984100E0,-6.780678272E0,8.210017204E0
1.010385694E1,3.447650433E0,-7.146991253E0,8.506897926E0
1.010885694E1,3.545812607E0,-7.501333237E0,8.820538521E0
1.011385631E1,3.390189648E0,-7.731176376E0,8.911518097E0
1.011885631E1,2.913743496E0,-7.994538784E0,8.487744331E0
1.012385631E1,2.786850691E0,-8.111854553E0,8.092700958E0
1.012885537E1,2.928108692E0,-8.358457565E0,7.700051785E0
1.013385537E1,3.004723072E0,-8.408735275E0,7.635408401E0
1.013885537E1,3.052607059E0,-8.415918350E0,7.769483566E0
1.014385541E1,2.892195702E0,-8.435071945E0,7.922712803E0
1.014885541E1,2.695871115E0,-8.482955933E0,8.193257332E0
1.015385541E1,2.602497339E0,-8.518868446E0,8.518868446E0
1.015885541E1,2.494758129E0,-8.549993515E0,8.866027832E0
1.016385601E1,2.245761156E0,-8.554781914E0,9.107842445E0
1.016885574E1,1.860294700E0,-8.585906982E0,8.957007408E0
1.017385571E1,1.750161409E0,-8.696040154E0,8.803778648E0
1.017885567E1,1.771709204E0,-8.866027832E0,8.684068680E0
1.018385567E1,1.742978811E0,-8.930671692E0,8.765471458E0
1.018885637E1,1.800439715E0,-8.911518097E0,9.079112053E0
1.019385730E1,1.821987510E0,-9.031228065E0,9.419088364E0
1.019885820E1,1.826775908E0,-9.119813919E0,9.859622002E0
1.020385887E1,1.671152830E0,-9.375992775E0,1.036240387E1
1.020885974E1,1.462857246E0,-9.723152161E0,1.072871685E1
1.021386037E1,1.060631394E0,-9.948206902E0,1.086758041E1
1.021886100E1,5.243301988E-1,-1.023551178E1,1.158823586E1
1.022386190E1,3.830722570E-1,-1.044859505E1,1.191624069E1
1.022886284E1,6.943184882E-2,-1.083406162E1,1.227537155E1
1.023386320E1,-9.816227108E-2,-1.095377159E1,1.251239777E1
1.023886364E1,-1.771709323E-1,-1.121234608E1,1.264168453E1
1.024386364E1,2.370259613E-1,-1.137754536E1,1.266083813E1
1.024886364E1,7.733271718E-1,-1.148289108E1,1.261295414E1
1.025386360E1,1.606509328E0,-1.147331429E1,1.244536018E1
1.025886360E1,2.918531895E0,-1.109742451E1,1.215326691E1
1.026386427E1,3.541024208E0,-1.082927322E1,1.190187550E1
1.026886430E1,4.350264549E0,-1.032409668E1,1.158344746E1
1.027386430E1,4.592078686E0,-9.972148895E0,1.117164421E1
1.027886520E1,5.023334503E0,-9.342473984E0,1.013734913E1
1.028386517E1,4.860229492E0,-8.930671692E0,9.232340813E0
1.028886513E1,4.299986362E0,-8.787019730E0,8.334515572E0
1.029386510E1,3.725377798E0,-8.976161003E0,7.712022781E0
1.029886510E1,3.167528868E0,-9.275436401E0,7.338527679E0
1.030386510E1,2.583343744E0,-9.505280495E0,7.225999832E0
1.030886513E1,1.563413739E0,-9.696816444E0,7.264307022E0
1.031386456E1,7.709329724E-1,-9.792584419E0,7.070376873E0
1.031886486E1,-3.543418646E-1,-9.957783699E0,6.586748123E0
1.032386486E1,-6.081272364E-1,-1.002242756E1,6.488585949E0
1.032886486E1,-6.200982332E-1,-9.936236382E0,6.519710541E0
1.033386483E1,-4.548983276E-1,-9.797372818E0,6.675333500E0
1.033886483E1,-9.337386489E-2,-9.677662849E0,7.156568050E0
1.034386483E1,4.860229492E-1,-9.636960983E0,7.683292389E0
1.034886486E1,9.002198577E-1,-9.510068893E0,8.202834129E0
1.035386486E1,1.261744261E0,-9.366415977E0,8.538022995E0
1.035886486E1,1.489193439E0,-9.131784439E0,8.686463356E0
1.036386486E1,1.663970232E0,-9.004891396E0,8.640973091E0
1.036886486E1,1.946485996E0,-8.842085838E0,8.351274490E0
1.037386486E1,2.173935175E0,-8.739135742E0,8.075942039E0
1.037886483E1,2.595314741E0,-8.624214172E0,7.609072208E0
1.038386483E1,2.861071110E0,-8.466196060E0,7.259518623E0
1.038886483E1,2.978386879E0,-8.248324394E0,7.020098686E0
1.039386486E1,3.038241863E0,-8.047211647E0,6.730400085E0
1.039886486E1,2.813186884E0,-7.776666164E0,6.213252544E0
1.040386486E1,2.573766708E0,-7.606678009E0,5.540482044E0
1.040886483E1,2.116474390E0,-7.436689854E0,4.805162907E0
1.041386483E1,1.754949808E0,-7.276278019E0,4.458003521E0
1.041886483E1,1.319205165E0,-6.977003098E0,4.139574528E0
1.042386486E1,1.319205165E0,-6.854898930E0,4.022258759E0
1.042886489E1,1.400607944E0,-6.716034889E0,3.926490784E0
1.043386489E1,1.417367458E0,-6.675333500E0,3.849876404E0
1.043886489E1,1.376665950E0,-6.696881294E0,3.837905407E0
1.044386489E1,1.168370485E0,-6.723217487E0,4.027047157E0
1.044886489E1,6.607996821E-1,-6.704063892E0,4.448426723E0
