Time (s),Acceleration x (m/s^2),Acceleration y (m/s^2),Acceleration z (m/s^2)
9.002896553,4.864628688679487e+106,-6.125949351802423e+105,-7.118397866750509e+105
9.007673064,4.817805501563341e+106,-6.066886014245729e+105,-7.053726029590043e+105
9.012449522,4.771427781501275e+106,-6.00838126486542e+105,-6.989629707213856e+105
9.017226032,4.725491340428992e+106,-5.95043000424186e+105,-6.926103761775779e+105
9.022002543,4.6799920309530636e+106,-5.893027176294589e+105,-6.863143102441758e+105
9.026779001,4.634925745894441e+106,-5.836167767938543e+105,-6.800742684992696e+105
9.031555512,4.5902884178386686e+106,-5.779846808742849e+105,-6.738897511429404e+105
9.036332022,4.546076018692707e+106,-5.724059370592186e+105,-6.677602629579631e+105
9.04110848,4.5022845592482844e+106,-5.668800567350674e+105,-6.616853132707203e+105
9.045884991,4.458910088751644e+106,-5.614065554528272e+105,-6.556644159123272e+105
9.050661501,4.41594869447953e+106,-5.559849528949729e+105,-6.496970891799665e+105
9.055437959,4.373396501321278e+106,-5.506147728426123e+105,-6.437828557984395e+105
9.06021447,4.331249671366845e+106,-5.452955431429039e+105,-6.379212428819262e+105
9.06499098,4.289504403500673e+106,-5.400267956767435e+105,-6.321117818959521e+105
9.069767439,4.248156933001233e+106,-5.348080663267204e+105,-6.263540086195555e+105
9.074543949,4.207203531146167e+106,-5.296388949453478e+105,-6.206474631076621e+105
9.079320459,4.166640504822944e+106,-5.245188253235641e+105,-6.149916896536588e+105
9.084096918,4.126464196144901e+106,-5.194474051594971e+105,-6.093862367521751e+105
9.088873428,4.086670982072526e+106,-5.144241860274889e+105,-6.03830657062074e+105
9.093649939,4.047257274039842e+106,-5.094487233473718e+105,-5.983245073696569e+105
9.098426397,4.00821951758573e+106,-5.045205763539943e+105,-5.928673485520838e+105
9.103202907,3.969554191990063e+106,-4.996393080669977e+105,-5.8745874554101e+105
9.107979418,3.931257809914509e+106,-4.94804485260841e+105,-5.8209826728644e+105
9.112755876,3.893326917047873e+106,-4.900156784350761e+105,-5.767854867208e+105
9.117532387,3.855758091755866e+106,-4.852724617848696e+105,-5.715199807232269e+105
9.122308897,3.81854794473518e+106,-4.805744131717786e+105,-5.66301330084067e+105
9.127085355,3.781693118671795e+106,-4.759211140947844e+105,-5.611291194695762e+105
9.131861866,3.745190287903461e+106,-4.713121496615893e+105,-5.560029373868186e+105
9.136638376,3.7090361580862884e+106,-4.667471085601791e+105,-5.509223761487531e+105
9.141414834,3.673227465865323e+106,-4.622255830306554e+105,-5.458870318395062e+105
9.146191345,3.6377609785489888e+106,-4.577471688373341e+105,-5.408965042798232e+105
9.150967855,3.6026334937872837e+106,-4.5331146524111313e+105,-5.359503969927021e+105
9.155744314,3.567841839253612e+106,-4.4891807497210346e+105,-5.310483171692077e+105
9.160520824,3.533382872330156e+106,-4.4456660420251924e+105,-5.261898756344692e+105
9.165297334,3.4992534797966922e+106,-4.402566625198202e+105,-5.213746868138614e+105
9.170073793,3.4654505775227768e+106,-4.3598786290010244e+105,-5.166023686993757e+105
9.174850303,3.431971110163269e+106,-4.31759821681734e+105,-5.118725428161808e+105
9.179626814,3.398812050857199e+106,-4.2757215853923213e+105,-5.071848341893799e+105
9.184403272,3.3659704009299887e+106,-4.2342449645737623e+105,-5.025388713109655e+105
9.189179782,3.3334431895990233e+106,-4.193164617055545e+105,-4.979342861069775e+105
9.193956293,3.3012274736825873e+106,-4.1524768381234594e+105,-4.933707139048701e+105
9.198732751,3.2693203373121755e+106,-4.1121779554033884e+105,-4.888477934010933e+105
9.203509262,3.237718891648172e+106,-4.0722643286118527e+105,-4.843651666288973e+105
9.208285772,3.2064202745988996e+106,-4.0327323493088573e+105,-4.799224789263617e+105
9.21306223,3.1754216505430403e+106,-3.9935784406529904e+105,-4.755193789046502e+105
9.217838741,3.144720210055416e+106,-3.9547990571587317e+105,-4.711555184164945e+105
9.222615251,3.1143131696361137e+106,-3.9163906844559185e+105,-4.668305525249078e+105
9.227391709,3.084197771442954e+106,-3.878349839051319e+105,-4.625441394721309e+105
9.23216822,3.054371283027284e+106,-3.8406730680922633e+105,-4.582959406488092e+105
9.23694473,3.0248309970730524e+106,-3.8033569491322854e+105,-4.54085620563398e+105
9.241721189,2.995574231139142e+106,-3.7663980898987066e+105,-4.4991284681179216e+105
9.246497699,2.966598327404936e+106,-3.7297931280620956e+105,-4.4577729004717824e+105
9.251274209,2.937900652419093e+106,-3.6935387310075457e+105,-4.4167862395010777e+105
9.256050668,2.9094785968515128e+106,-3.6576315956077047e+105,-4.3761652519879247e+105
9.260827178,2.8813295752484875e+106,-3.6220684479974907e+105,-4.335906734396218e+105
9.265603689,2.8534510257910398e+106,-3.5868460433504133e+105,-4.296007512578994e+105
9.270380147,2.8258404100564307e+106,-3.551961165656431e+105,-4.256464441487931e+105
9.275156657,2.7984952127828313e+106,-3.5174106275012577e+105,-4.217274404884904e+105
9.279933168,2.7714129416371397e+106,-3.4831912698470086e+105,-4.1784343150554965e+105
9.284709626,2.7445911269859007e+106,-3.449299961814113e+105,-4.139941112524414e+105
9.289486137,2.7180273216692995e+106,-3.415733600464473e+105,-4.1017917657727154e+105
9.294262647,2.691719100778228e+106,-3.382489110585802e+105,-4.0639832709568067e+105
9.299039105,2.6656640614344223e+106,-3.3495634444770723e+105,-4.0265126516291375e+105
9.303815616,2.6398598225736563e+106,-3.3169535817350495e+105,-3.9893769584605977e+105
9.308592126,2.6143040247319806e+106,-3.2846565290418993e+105,-3.9525732689645977e+105
9.313368584,2.588994329834998e+106,-3.2526693199538897e+105,-3.9160986872228177e+105
9.318145095,2.563928420990158e+106,-3.220989014691242e+105,-3.8799503436126075e+105
9.322921605,2.539104002282046e+106,-3.189612699929197e+105,-3.844125394536028e+105
9.327698064,2.5145187985706508e+106,-3.158537488590354e+105,-3.808621022150539e+105
9.332474574,2.490170555292603e+106,-3.1277605196383326e+105,-3.7734344341013577e+105
9.337251084,2.4660570382653876e+106,-3.097278957872797e+105,-3.7385628632554973e+105
9.342027543,2.4421760334945302e+106,-3.0670899937258876e+105,-3.7040035674375004e+105
9.346804053,2.418525346983738e+106,-3.037190843060053e+105,-3.669753829166872e+105
9.351580564,2.395102804547994e+106,-3.007578746967272e+105,-3.6358109553972125e+105
9.356357022,2.3719062516295775e+106,-2.9782509715696553e+105,-3.6021722772570674e+105
9.361133532,2.348933553116957e+106,-2.9492048078214423e+105,-3.568835149792501e+105
9.365910043,2.326182593166511e+106,-2.920437571312415e+105,-3.5357969517114377e+105
9.370686501,2.303651275027007e+106,-2.8919466020727415e+105,-3.503055085129777e+105
9.375463012,2.2813375208667748e+106,-2.8637292643792374e+105,-3.4706069753193196e+105
9.380239522,2.259239271603503e+106,-2.8357829465630376e+105,-3.438450070457565e+105
9.38501598,2.2373544867365755e+106,-2.8081050608186684e+105,-3.406581841379435e+105
9.389792491,2.2156811441818733e+106,-2.78069304301453e+105,-3.3749997813309983e+105
9.394569001,2.1942172401089803e+106,-2.7535443525048095e+105,-3.343701405725261e+105
9.399345459,2.1729607887807375e+106,-2.7266564719428095e+105,-3.312684251900078e+105
9.40412197,2.151909822395064e+106,-2.700026907095669e+105,-3.2819458788782416e+105
9.40889848,2.1310623909289986e+106,-2.6736531866604545e+105,-3.251483867129787e+105
9.413674939,2.110416561984928e+106,-2.6475328620816184e+105,-3.2212958183365805e+105
9.418451449,2.089970420638953e+106,-2.6216635073698156e+105,-3.191379355159261e+105
9.423227959,2.06972206929137e+106,-2.596042718922075e+105,-3.1617321210066324e+105
9.428004418,2.049669627519229e+106,-2.570668115343321e+105,-3.1323517798076015e+105
9.432780928,2.0298112319309055e+106,-2.545537337269244e+105,-3.1032360157857626e+105
9.437557439,2.010145036022634e+106,-2.5206480471905043e+105,-3.0743825332367215e+105
9.442333897,1.9906692100369625e+106,-2.4959979292782675e+105,-3.0457890563082053e+105
9.447110407,1.971381940823089e+106,-2.471584689211038e+105,-3.017453328783017e+105
9.451886918,1.9522814316990288e+106,-2.4474060540027877e+105,-2.989373113864872e+105
9.456663376,1.933365902315549e+106,-2.4234597718323523e+105,-2.961546193967185e+105
9.461439887,1.914633588521826e+106,-2.3997436118741024e+105,-2.9339703705048523e+105
9.466216397,1.896082742232764e+106,-2.3762553641298915e+105,-2.906643463689098e+105
9.470992855,1.877711631297902e+106,-2.3529928392622754e+105,-2.8795633123254046e+105
9.475769366,1.8595185393718268e+106,-2.329953868428979e+105,-2.8527277736145623e+105
9.480545876,1.8415017657860283e+106,-2.3071363031186073e+105,-2.826134722956835e+105
9.485322334,1.823659625422101e+106,-2.2845380149876129e+105,-2.799782053759278e+105
9.490098845,1.8059904485862277e+106,-2.2621568956985352e+105,-2.773667677246195e+105
9.494875355,1.7884925808848804e+106,-2.2399908567595006e+105,-2.7477895222727013e+105
9.499651814,1.7711643831016653e+106,-2.2180378293649704e+105,-2.7221455351413247e+105
9.504428324,1.7540042310752579e+106,-2.1962957642377287e+105,-2.696733679421598e+105
9.509204834,1.7370105155783792e+106,-2.1747626314721053e+105,-2.6715519357725955e+105
9.513981293,1.7201816421977422e+106,-2.1534364203784445e+105,-2.646598301768389e+105
9.518757803,1.7035160312149099e+106,-2.1323151393288176e+105,-2.6218707917263945e+105
9.523534314,1.687012117488007e+106,-2.1113968156039745e+105,-2.5973674365385493e+105
9.528310824,1.6706683503342338e+106,-2.090679495241517e+105,-2.5730862835052426e+105
9.533087282,1.6544831934131237e+106,-2.0701612428852662e+105,-2.549025396171932e+105
9.537863793,1.6384551246105029e+106,-2.0498401416357772e+105,-2.525182854168389e+105
9.542640251,1.622582635923106e+106,-2.0297142929019666e+105,-2.501556753050535e+105
9.547416762,1.606864233343816e+106,-2.0097818162538233e+105,-2.478145204144841e+105
9.552193272,1.5912984367475016e+106,-1.9900408492761814e+105,-2.4549463343952807e+105
9.55696973,1.5758837797774236e+106,-1.970489547423539e+105,-2.431958286212838e+105
9.561746241,1.5606188097321766e+106,-1.951126083875889e+105,-2.4091792173275526e+105
9.566522751,1.5455020874531439e+106,-1.9319486493955208e+105,-2.386607300643098e+105
9.571299209,1.5305321872124494e+106,-1.9129554521847635e+105,-2.3642407240938654e+105
9.57607572,1.5157076966013996e+106,-1.8941447177446463e+105,-2.3420776905045627e+105
9.58085223,1.5010272164194145e+106,-1.8755146887344565e+105,-2.320116417452347e+105
9.585628689,1.4864893605634312e+106,-1.857063624832161e+105,-2.2983551371314843e+105
9.590405199,1.4720927559177655e+106,-1.838789802595666e+105,-2.2767920962205226e+105
9.595181709,1.457836042244417e+106,-1.8206915153248792e+105,-2.255425555751964e+105
9.599958168,1.4437178720738051e+106,-1.8027670729245483e+105,-2.234253790984404e+105
9.604734678,1.4297369105959186e+106,-1.7850148017678318e+105,-2.213275091277112e+105
9.609511189,1.4158918355518716e+106,-1.7674330445605599e+105,-2.1924877599670183e+105
9.614287647,1.4021813371258723e+106,-1.7500201602061395e+105,-2.1718901142480632e+105
9.619064157,1.3886041178376056e+106,-1.7327745236710617e+105,-2.151480485052893e+105
9.623840668,1.375158892435038e+106,-1.7156945258509806e+105,-2.1312572169368664e+105
9.628617126,1.3618443877876664e+106,-1.6987785734373563e+105,-2.1112186679643233e+105
9.633393637,1.348659342780241e+106,-1.6820250887846513e+105,-2.0913632095970342e+105
9.638170147,1.3356025082069794e+106,-1.6654325097780648e+105,-2.0716892265847526e+105
9.642946605,1.3226726466662906e+106,-1.6489992897018002e+105,-2.0521951168577918e+105
9.647723116,1.3098685324560194e+106,-1.6327238971078512e+105,-2.0328792914215594e+105
9.652499626,1.2971889514692286e+106,-1.6166048156853037e+105,-2.0137401742529944e+105
9.657276084,1.2846327010905462e+106,-1.6006405441301609e+105,-1.994776202198866e+105
9.662052595,1.2721985900930963e+106,-1.5848295960157145e+105,-1.975985824875886e+105
9.666829105,1.2598854385360313e+106,-1.5691704996634845e+105,-1.957367504572584e+105
9.671605616,1.2476920776626788e+106,-1.5536617980147346e+105,-1.9389197161528991e+105
9.676382074,1.2356173497993117e+106,-1.5383020485025633e+105,-1.9206409469614212e+105
9.681158584,1.2236601082545418e+106,-1.5230898229245663e+105,-1.9025296967302183e+105
9.685935043,1.211819217219344e+106,-1.5080237073160699e+105,-1.8845844774871992e+105
9.690711553,1.20009355166772e+106,-1.4931023018239221e+105,-1.8668038134659559e+105
9.695488064,1.188481997258002e+106,-1.4783242205808326e+105,-1.8491862410170384e+105
9.700264522,1.1769834502348007e+106,-1.4636880915802326e+105,-1.8317303085206232e+105
9.705041032,1.1655968173315965e+106,-1.4491925565516355e+105,-1.814434576300538e+105
9.709817543,1.1543210156739666e+106,-1.4348362708364692e+105,-1.7972976165396042e+105
9.714594001,1.1431549726834342e+106,-1.4206179032643605e+105,-1.7803180131962556e+105
9.719370512,1.132097625981928e+106,-1.40653613602986e+105,-1.7634943619223923e+105
9.724147022,1.1211479232968591e+106,-1.3925896645695885e+105,-1.7468252699824271e+105
9.72892348,1.1103048223668173e+106,-1.3787771974397907e+105,-1.7303093561734786e+105
9.733699991,1.0995672908478726e+106,-1.3650974561942903e+105,-1.7139452507466739e+105
9.738476501,1.0889343062204702e+106,-1.351549175262842e+105,-1.6977315953295218e+105
9.743252959,1.0784048556969038e+106,-1.338131101829882e+105,-1.6816670428493223e+105
9.74802947,1.0679779361293629e+106,-1.324841995713677e+105,-1.6657502574575797e+105
9.75280598,1.057652553918557e+106,-1.3116806292458842e+105,-1.6499799144553825e+105
9.757582439,1.047427724922908e+106,-1.2986457871515181e+105,-1.6343547002197053e+105
9.762358949,1.0373024743683033e+106,-1.285736266429336e+105,-1.6188733121305887e+105
9.767135459,1.027275836758414e+106,-1.2729508762326445e+105,-1.6035344584991448e+105
9.771911918,1.017346855785576e+106,-1.2602884377505346e+105,-1.588336858496317e+105
9.776688428,1.0075145842422448e+106,-1.2477477840895503e+105,-1.5732792420823267e+105
9.781464939,9.977780839330357e+105,-1.235327760155795e+105,-1.5583603499367484e+105
9.786241397,9.88136425587366e+105,-1.2230272225374756e+105,-1.5435789333891844e+105
9.791017907,9.78588688772717e+105,-1.2108450393878881e+105,-1.528933754350496e+105
9.795794418,9.69133961808535e+105,-1.198780090308845e+105,-1.514423585244551e+105
9.800570876,9.597713416807954e+105,-1.186831266234555e+105,-1.5000472089404446e+105
9.805347387,9.50499933957245e+105,-1.174997469315967e+105,-1.4858034186851618e+105
9.810123897,9.413188527033482e+105,-1.163277612805604e+105,-1.4716910180366404e+105
9.814900355,9.322272203989571e+105,-1.151670620942907e+105,-1.457708820797196e+105
9.819676866,9.232241678557317e+105,-1.1401754288401177e+105,-1.443855650947301e+105
9.824453376,9.143088341353301e+105,-1.1287909823687038e+105,-1.4301303425797012e+105
9.829229834,9.0548036646839e+105,-1.1175162380463407e+105,-1.4165317398338556e+105
9.834006345,8.967379201743142e+105,-1.1063501629244749e+105,-1.403058696830683e+105
9.838782855,8.880806585818799e+105,-1.095291734476486e+105,-1.389710077607605e+105
9.843559314,8.795077529506909e+105,-1.0843399404864668e+105,-1.376484756053858e+105
9.848335824,8.710183823934945e+105,-1.0734937789386421e+105,-1.363381615846038e+105
9.853112334,8.626117337993763e+105,-1.0627522579074557e+105,-1.3503995503838488e+105
9.857888793,8.542870017578392e+105,-1.0521143954483606e+105,-1.3375374627260533e+105
9.862665303,8.460433884837779e+105,-1.0415792194893287e+105,-1.3247942655266156e+105
9.867441814,8.378801037433556e+105,-1.0311457677230903e+105,-1.3121688809710353e+105
9.872218272,8.29796364780789e+105,-1.0208130875001087e+105,-1.299660240712876e+105
9.876994782,8.21791396246047e+105,-1.0105802357223022e+105,-1.2872672858104946e+105
9.881771293,8.138644301234641e+105,-1.0004462787375307e+105,-1.274988966663977e+105
9.886547751,8.060147056612653e+105,-9.904102922348645e+104,-1.2628242429522869e+105
9.891324262,7.982414693019967e+105,-9.804713611406526e+104,-1.2507720835706398e+105
9.896100772,7.905439746138616e+105,-9.70628579515401e+104,-1.2388314665681003e+105
9.90087723,7.829214822229537e+105,-9.608810504514707e+104,-1.227001379085405e+105
9.905653741,7.753732597463745e+105,-9.512278859716005e+104,-1.215280817293015e+105
9.910430251,7.678985817262259e+105,-9.416682069282623e+104,-1.2036687863293872e+105
9.915206709,7.604967295644635e+105,-9.322011429038546e+104,-1.1921643002394498e+105
9.91998322,7.531669914585931e+105,-9.22825832111737e+104,-1.180766381913255e+105
9.92475973,7.45908662338189e+105,-9.13541421298101e+104,-1.1694740630247843e+105
9.929536189,7.387210438022164e+105,-9.043470656446682e+104,-1.1582863839708718e+105
9.934312699,7.316034440571504e+105,-8.95241928672207e+104,-1.14720239381022e+105
9.939089209,7.245551778558791e+105,-8.862251821448621e+104,-1.1362211502024767e+105
9.943865668,7.175755664373798e+105,-8.772960059752989e+104,-1.1253417193473512e+105
9.948642178,7.106639374671593e+105,-8.684535881306628e+104,-1.1145631759237334e+105
9.953418689,7.038196249784456e+105,-8.596971245393482e+104,-1.1038846030287843e+105
9.958195147,6.970419693141239e+105,-8.510258189985647e+104,-1.0933050921169748e+105
9.962971657,6.903303170694075e+105,-8.424388830826892e+104,-1.082823742939054e+105
9.967748168,6.83684021035242e+105,-8.339355360523922e+104,-1.0724396634809368e+105
9.972524626,6.771024401424349e+105,-8.255150047645288e+104,-1.0621519699025091e+105
9.977301137,6.705849394065055e+105,-8.171765235827843e+104,-1.0519597864763405e+105
9.982077647,6.641308898732525e+105,-8.089193342890729e+104,-1.041862245526297e+105
9.986854105,6.577396685650314e+105,-8.007426859956979e+104,-1.0318584873660352e+105
9.991630616,6.514106584277368e+105,-7.926458350582816e+104,-1.0219476602373752e+105
9.996407126,6.451432482784761e+105,-7.846280449894735e+104,-1.0121289202485397e+105
10.00118358,6.389368327539137e+105,-7.766885863734455e+104,-1.0024014313122481e+105
10.0059601,6.327908122592719e+105,-7.688267367811859e+104,-9.927643650836556e+104
10.0107366,6.267045929179801e+105,-7.610417806866125e+104,-9.832169008981377e+104
10.01551306,6.206775865219547e+105,-7.533330093835182e+104,-9.737582257089255e+104
10.02028957,6.147092104824964e+105,-7.456997209033624e+104,-9.643875340245892e+104
10.02506608,6.087988877817897e+105,-7.381412199339193e+104,-9.551040278463694e+104
10.02984254,6.029460469249858e+105,-7.306568177387959e+104,-9.459069166053479e+104
10.03461905,5.971501218928551e+105,-7.232458320778275e+104,-9.367954170994626e+104
10.03939556,5.914105520949965e+105,-7.15907587128359e+104,-9.277687534303675e+104
10.04417202,5.857267823235876e+105,-7.086414134074271e+104,-9.188261569401421e+104
10.04894853,5.800982627076621e+105,-7.01446647694849e+104,-9.099668661478599e+104
10.05372499,5.74524448667888e+105,-6.94322632957226e+104,-9.011901266860249e+104
10.0585015,5.69004800871827e+105,-6.872687182728669e+104,-8.924951912368938e+104
10.06327801,5.635387851896577e+105,-6.802842587576393e+104,-8.838813194687077e+104
10.06805452,5.581258726503459e+105,-6.733686154917444e+104,-8.753477779718543e+104
10.07283098,5.527655393982455e+105,-6.665211554474129e+104,-8.668938401949896e+104
10.07760749,5.474572666501186e+105,-6.597412514175267e+104,-8.585187863811463e+104
10.082384,5.422005406525566e+105,-6.530282819451679e+104,-8.502219035038512e+104
10.08716046,5.369948526397842e+105,-6.463816312540894e+104,-8.420024852032713e+104
10.09193697,5.318396987918145e+105,-6.398006891800998e+104,-8.338598317224009e+104
10.09671348,5.267345801929329e+105,-6.332848511033542e+104,-8.257932498433037e+104
10.10148994,5.216790027904833e+105,-6.268335178815454e+104,-8.178020528234328e+104
10.10626645,5.166724773539395e+105,-6.204460957839925e+104,-8.098855603320481e+104
10.11104296,5.117145194342396e+105,-6.141219964266253e+104,-8.02043098386761e+104
10.11581942,5.068046493233689e+105,-6.078606367078537e+104,-7.942739992902312e+104
10.12059593,5.019423920141733e+105,-6.016614387453213e+104,-7.86577601567036e+104
10.12537244,4.971272771603895e+105,-5.95523829813537e+104,-7.789532499007278e+104
10.1301489,4.923588390368786e+105,-5.894472422823846e+104,-7.71400295071102e+104
10.13492541,4.876366165000539e+105,-5.834311135565132e+104,-7.63918093891695e+104
10.13970187,4.829601529484951e+105,-5.77474886015614e+104,-7.565060091475358e+104
10.14447838,4.783289962837472e+105,-5.715780069555828e+104,-7.491634095331742e+104
10.14925489,4.737426988713017e+105,-5.6573992853057885e+104,-7.418896695910107e+104
10.15403134,4.692008175017622e+105,-5.599601076959827e+104,-7.346841696499519e+104
10.15880786,4.64702913352195e+105,-5.5423800615226443e+104,-7.275462957644167e+104
10.16358437,4.602485519476708e+105,-5.4857309028976956e+104,-7.204754396537122e+104
10.16836088,4.5583730312300606e+105,-5.429648311344297e+104,-7.134709986417993e+104
10.17313733,4.5146874098471453e+105,-5.374127042943957e+104,-7.065323755974682e+104
10.17791384,4.471424438731801e+105,-5.31916189907585e+104,-6.996589788749455e+104
10.18269036,4.4285799432505843e+105,-5.2647477259013635e+104,-6.928502222549536e+104
10.18746681,4.3861497903591263e+105,-5.210879413857744e+104,-6.861055248862415e+104
10.19224332,4.344129888230901e+105,-5.1575518971608355e+104,-6.794243112276071e+104
10.19701978,4.30251618588844e+105,-5.1047601533168665e+104,-6.7280601099043e+104
10.20179629,4.261304672837036e+105,-5.05249920264327e+104,-6.66250059081732e+104
10.2065728,4.2204913787009406e+105,-5.000764107798519e+104,-6.597558955477818e+104
10.21134926,4.180072372862023e+105,-4.949549973320988e+104,-6.533229655182524e+104
10.21612577,4.1400437641008774e+105,-4.8988519451768335e+104,-6.469507191509463e+104
10.22090228,4.1004017002403603e+105,-4.848665210316865e+104,-6.406386115770929e+104
10.22567874,4.061142367791543e+105,-4.7989849962423897e+104,-6.343861028472314e+104
10.23045525,4.0222619916020617e+105,-4.749806570579963e+104,-6.281926578776852e+104
10.23523176,3.9837568345068146e+105,-4.7011252406649585e+104,-6.22057746397638e+104
10.24000822,3.9456231969809447e+105,-4.6529363531338565e+104,-6.15980842896814e+104
10.24478473,3.9078574167950593e+105,-4.605235293525156e+104,-6.099614265737663e+104
10.24956124,3.8704558686726415e+105,-4.5580174858887785e+104,-6.039989812847765e+104
10.2543377,3.833414963949608e+105,-4.511278392403774e+104,-5.98092995493371e+104
10.25911421,3.796731150235921e+105,-4.465013513004126e+104,-5.922429622204603e+104
10.26389072,3.760400911079184e+105,-4.4192183850124366e+104,-5.864483789951061e+104
10.26866718,3.724420765630149e+105,-4.373888582781287e+104,-5.807087478059236e+104
10.27344369,3.688787268310087e+105,-4.3290197173420614e+104,-5.7502357505313e+104
10.2782202,3.6534970084799836e+105,-4.284607436061035e+104,-5.693923715012496e+104
10.28299666,3.6185466101115397e+105,-4.240647422302515e+104,-5.6381465223248146e+104
10.28777317,3.5839327314599597e+105,-4.197135395098869e+104,-5.582899366007329e+104
10.29254968,3.549652064738526e+105,-4.1540671088273065e+104,-5.528177481863205e+104
10.29732614,3.515701335794967e+105,-4.111438352893229e+104,-5.473976147513373e+104
10.30210265,3.4820773037896383e+105,-4.069244951420028e+104,-5.4202906819568286e+104
10.30687916,3.448776760875525e+105,-4.027482762945197e+104,-5.367116445137507e+104
10.31165562,3.415796531880068e+105,-3.986147680122631e+104,-5.314448837517712e+104
10.31643213,3.383133473988842e+105,-3.9452356294309826e+104,-5.262283299657996e+104
10.32120864,3.350784476431076e+105,-3.904742570887898e+104,-5.2106153118033956e+104
10.3259851,3.318746460167012e+105,-3.8646644977699435e+104,-5.1594403934759007e+104
10.33076161,3.287016377577062e+105,-3.824997436338029e+104,-5.108754103073023e+104
10.33553812,3.255591212152752e+105,-3.785737445568127e+104,-5.058552037472352e+104
10.34031457,3.2244679781894334e+105,-3.7468806168870945e+104,-5.008829831641974e+104
10.34509108,3.193643720480748e+105,-3.708423073913404e+104,-4.959583158256608e+104
10.3498676,3.163115514014838e+105,-3.6703609722026114e+104,-4.9108077273193855e+104
10.35464405,3.1328804636722675e+105,-3.632690498997395e+104,-4.862499285789185e+104
10.35942056,3.102935703925636e+105,-3.595407872982008e+104,-4.8146536172135143e+104
10.36419707,3.0732783985408645e+105,-3.558509344040965e+104,-4.767266541366866e+104
10.36897353,3.0439057402801656e+105,-3.521991193021813e+104,-4.720333913894473e+104
10.37375004,3.014814950606688e+105,-3.485849731501821e+104,-4.6738516259614025e+104
10.37852655,2.986003279390837e+105,-3.450081301558417e+104,-4.627815603906907e+104
10.38330301,2.957468004618275e+105,-3.414682275543242e+104,-4.582221808903989e+104
10.38807952,2.9292064320995725e+105,-3.379649055859703e+104,-4.5370662366240963e+104
10.39285603,2.901215895181509e+105,-3.344978074743849e+104,-4.4923449169069313e+104
10.39763249,2.873493754460001e+105,-3.3106657940484235e+104,-4.448053913435308e+104
10.402409,2.8460373974946267e+105,-3.2767087050299646e+104,-4.404189323414976e+104
10.40718551,2.8188442385247263e+105,-3.243103328138822e+104,-4.360747277259349e+104
10.41196197,2.791911718187047e+105,-3.20984621281195e+104,-4.317723938279101e+104
10.41673848,2.7652373032349294e+105,-3.1769339372683175e+104,-4.2751155023766e+104
10.42151494,2.7388184862590146e+105,-3.144363108306803e+104,-4.232918197745146e+104
10.42629145,2.7126527854094567e+105,-3.1121303611064545e+104,-4.191128284572993e+104
10.43106796,2.686737744119648e+105,-3.080232359029002e+104,-4.149742054752111e+104
10.43584442,2.661070930831493e+105,-3.048665793423523e+104,-4.108755831591666e+104
10.44062093,2.63564993872226e+105,-3.017427383433146e+104,-4.068165969536185e+104
10.44539744,2.610472385433051e+105,-2.986513875803704e+104,-4.0279688538883506e+104
10.4501739,2.585535912798885e+105,-2.955922044694258e+104,-3.988160900536362e+104
10.45495041,2.5608381865804526e+105,-2.925648691489439e+104,-3.9487385556857555e+104
10.45972692,2.53637689619759e+105,-2.89569064461357e+104,-3.909698295595576e+104
10.46450338,2.5121497544645275e+105,-2.8660447593465054e+104,-3.871036626318784e+104
10.46927989,2.488154497326958e+105,-2.836707917641162e+104,-3.83275008344681e+104
10.4740564,2.464388883600994e+105,-2.807677027942715e+104,-3.7948352318580884e+104
10.47883286,2.440850694714095e+105,-2.7789490250094695e+104,-3.757288665470424e+104
10.48360937,2.4175377344480555e+105,-2.7505208697354313e+104,-3.720107006997029e+104
10.48838588,2.3944478286841233e+105,-2.722389548974593e+104,-3.6832869077060825e+104
10.49316233,2.371578825150325e+105,-2.6945520753669558e+104,-3.646825047183639e+104
10.49793884,2.348928593171086e+105,-2.667005487166287e+104,-3.610718133099732e+104
10.50271536,2.3264950234192334e+105,-2.6397468480696445e+104,-3.574962900977475e+104
10.50749181,2.304276027670448e+105,-2.612773247048678e+104,-3.539556113964975e+104
10.51226832,2.2822695385602274e+105,-2.5860817981826925e+104,-3.5044945626098695e+104
10.51704483,2.260473509343397e+105,-2.5596696404934574e+104,-3.4697750646362884e+104
10.52182129,2.238885913656212e+105,-2.5335339377817488e+104,-3.435394464724118e+104
10.5265978,2.2175047452811005e+105,-2.507671878465625e+104,-3.4013496342904276e+104
10.53137431,2.1963280179140885e+105,-2.48208067542043e+104,-3.36763747127294e+104
10.53615077,2.1753537649349276e+105,-2.4567575658205044e+104,-3.334254899915448e+104
10.54092728,2.1545800391799394e+105,-2.4316998109825876e+104,-3.3011988705550894e+104
10.54570379,2.134004912717605e+105,-2.406904696210892e+104,-3.268466359411435e+104
10.55048025,2.1136264766269178e+105,-2.38236953064384e+104,-3.2360543683773223e+104
10.55525676,2.093442840778483e+105,-2.3580916471024266e+104,-3.2039599248114073e+104
10.56003327,2.0734521336183703e+105,-2.3340684019401683e+104,-3.172180081332406e+104
10.56480973,2.0536525019547215e+105,-2.310297174894604e+104,-3.1407119156150405e+104
10.56958624,2.0340421107471156e+105,-2.2867753689403052e+104,-3.1095525301876644e+104
10.57436275,2.0146191428986908e+105,-2.2635004101433615e+104,-3.078699052231564e+104
10.57913921,1.9953817990510254e+105,-2.240469747517328e+104,-3.0481486333819395e+104
10.58391572,1.9763282973817783e+105,-2.2176808528805914e+104,-3.017898449530583e+104
10.58869223,1.9574568734050907e+105,-2.1951312207151165e+104,-2.987945700630291e+104
10.59346869,1.9387657797747528e+105,-2.1728183680265358e+104,-2.9582876105010336e+104
10.5982452,1.9202532860901396e+105,-2.150739834205531e+104,-2.9289214266378573e+104
10.60302171,1.901917678704907e+105,-2.128893180890463e+104,-2.899844420020533e+104
10.60779817,1.8837572605384415e+105,-2.107275991831184e+104,-2.871053884924948e+104
10.61257468,1.865770350890056e+105,-2.0858858727539707e+104,-2.8425471387362398e+104
10.61735114,1.8479552852559214e+105,-2.064720451227547e+104,-2.814321521763673e+104
10.62212765,1.8303104151487403e+105,-2.043777376530162e+104,-2.786374397057242e+104
10.62690416,1.812834107920168e+105,-2.0230543195176913e+104,-2.7587031502260134e+104
10.63168067,1.795524746585988e+105,-2.0025489724927402e+104,-2.7313051892581847e+104
10.63645713,1.778380729654044e+105,-1.982259049074711e+104,-2.704177944342835e+104
10.64123364,1.761400470954925e+105,-1.9621822840708063e+104,-2.677318867693351e+104
10.6460101,1.744582399475387e+105,-1.9423164333479304e+104,-2.6507254333725308e+104
10.6507866,1.7279249591944998e+105,-1.9226592737054607e+104,-2.624395137119351e+104
10.65556312,1.7114266089224954e+105,-1.9032086027488533e+104,-2.598325496177375e+104
10.66033957,1.6950858221422798e+105,-1.883962238764035e+104,-2.5725140491247617e+104
10.66511608,1.6789010868535718e+105,-1.8649180205925203e+104,-2.5469583557058565e+104
10.6698926,1.662870905419624e+105,-1.8460738075071998e+104,-2.5216559966643477e+104
10.67466905,1.6469937944164903e+105,-1.8274274790887412e+104,-2.4966045735779716e+104
10.67944556,1.6312682844848154e+105,-1.808976935102532e+104,-2.4718017086947445e+104
10.68422207,1.615692920184123e+105,-1.790720095376098e+104,-2.4472450447707055e+104
10.68899853,1.6002662598495908e+105,-1.7726548996769348e+104,-2.4229322449091405e+104
10.69377504,1.5849868754513003e+105,-1.754779307590667e+104,-2.3988609924012458e+104
10.69855155,1.5698533524559535e+105,-1.7370912983994407e+104,-2.3750289905681936e+104
10.70332801,1.5548642896910246e+105,-1.719588870960457e+104,-2.3514339626045556e+104
10.70810452,1.540018299211326e+105,-1.7022700435845723e+104,-2.3280736514230323e+104
10.71288103,1.52531400616794e+105,-1.685132853914896e+104,-2.3049458195004455e+104
10.71765749,1.5107500486794642e+105,-1.6681753588053125e+104,-2.282048248724963e+104
10.722434,1.4963250777055157e+105,-1.6513956341988562e+104,-2.2593787402445363e+104
10.72721051,1.4820377569224134e+105,-1.63479177500588e+104,-2.2369351143165096e+104
10.73198697,1.4678867626009563e+105,-1.6183618949819706e+104,-2.2147152101583704e+104
10.73676348,1.4538707834862162e+105,-1.60210412660558e+104,-2.1927168857996157e+104
10.74153999,1.4399885206792752e+105,-1.5860166209553495e+104,-2.1709380179347032e+104
10.74631645,1.4262386875208498e+105,-1.570097547587086e+104,-2.1493765017770544e+104
10.75109296,1.4126200094767406e+105,-1.5543450944103776e+104,-2.1280302509140792e+104
10.75586947,1.3991312240250393e+105,-1.5387574675648202e+104,-2.10689719716319e+104
10.76064593,1.3857710805450308e+105,-1.5233328912958374e+104,-2.0859752904287874e+104
10.76542244,1.372538340207731e+105,-1.5080696078300773e+104,-2.065262498560188e+104
10.77019895,1.3594317758680158e+105,-1.4929658772503793e+104,-2.04475680721046e+104
10.77497541,1.3464501719582917e+105,-1.4780199773703136e+104,-2.024456219696115e+104
10.77975192,1.3335923243836597e+105,-1.463230203608304e+104,-2.0043587568576343e+104
10.78452838,1.3208570404185299e+105,-1.4485948688613484e+104,-1.984462456920811e+104
10.78930489,1.308243138604647e+105,-1.434112303378344e+104,-1.964765375358903e+104
10.7940814,1.2957494486504895e+105,-1.4197808546330305e+104,-1.9452655847555818e+104
10.79885786,1.2833748113320074e+105,-1.405598887196552e+104,-1.9259611746686876e+104
10.80363437,1.2711180783946582e+105,-1.391564782609643e+104,-1.9068502514947925e+104
10.80841088,1.2589781124567118e+105,-1.3776769392544259e+104,-1.8879309383345842e+104
10.81318733,1.24695378691379e+105,-1.3639337722258224e+104,-1.8692013748590727e+104
10.81796385,1.2350439858446176e+105,-1.35033371320258e+104,-1.8506597171766385e+104
10.82274036,1.2232476039179602e+105,-1.33687521031792e+104,-1.8323041377009333e+104
10.82751681,1.2115635463007293e+105,-1.3235567280298203e+104,-1.8141328250196464e+104
10.83229332,1.1999907285672266e+105,-1.3103767469909597e+104,-1.7961439837641445e+104
10.83706983,1.1885280766094975e+105,-1.2973337639183614e+104,-1.778335834479993e+104
10.84184629,1.1771745265487635e+105,-1.2844262914627657e+104,-1.7607066134983597e+104
10.8466228,1.1659290246479025e+105,-1.271652858077762e+104,-1.7432545728083295e+104
10.85139931,1.154790527224935e+105,-1.259012007888709e+104,-1.725977979930179e+104
10.85617577,1.1437580005674699e+105,-1.246502300561471e+104,-1.708875117789657e+104
10.86095228,1.1328304208480692e+105,-1.2341223111709957e+104,-1.6919442845933115e+104
10.86572879,1.1220067740404967e+105,-1.22187063006976e+104,-1.6751837937049118e+104
10.87050525,1.1112860558368195e+105,-1.2097458627561128e+104,-1.6585919735229935e+104
10.87528176,1.100667271565326e+105,-1.1977466297425443e+104,-1.6421671673595587e+104
10.88005827,1.0901494361092142e+105,-1.185871566423916e+104,-1.6259077333199388e+104
10.88483473,1.0797315738260048e+105,-1.1741193229456729e+104,-1.6098120441838295e+104
10.88961124,1.0694127184676372e+105,-1.1624885640720677e+104,-1.5938784872874966e+104
10.89438775,1.0591919131012176e+105,-1.1509779690544336e+104,-1.5781054644071706e+104
10.89916421,1.049068210030396e+105,-1.139586231499543e+104,-1.5624913916436285e+104
10.90394072,1.0390406707173531e+105,-1.1283120592380816e+104,-1.5470346993079672e+104
10.90871723,1.0291083657053884e+105,-1.1171541741932514e+104,-1.5317338318085653e+104
10.91349369,1.0192703745421052e+105,-1.1061113122495189e+104,-1.51658724753923e+104
10.9182702,1.0095257857031914e+105,-1.0951822231215206e+104,-1.501593418768517e+104
10.92304666,9.998736965167908e+104,-1.0843656702231528e+104,-1.4867508315302197e+104
10.92782317,9.903132130884684e+104,-1.0736604305368614e+104,-1.472057985515026e+104
10.93259968,9.808434502267664e+104,-1.0630652944831607e+104,-1.4575133939633516e+104
10.93737614,9.714635313693451e+104,-1.0525790657904062e+104,-1.4431155835593382e+104
10.94215265,9.621725885096925e+104,-1.0422005613648587e+104,-1.4288630943260218e+104
10.94692916,9.529697621243886e+104,-1.0319286111610716e+104,-1.4147544795216603e+104
10.95170562,9.438542011009072e+104,-1.021762058052642e+104,-1.4007883055372153e+104
10.95648213,9.348250626659474e+104,-1.0116997577033648e+104,-1.386963151794971e+104
10.96125864,9.258815123142783e+104,-1.00174057843883e+104,-1.3732776106482844e+104
10.9660351,9.170227237380788e+104,-9.918834011185065e+103,-1.359730287282446e+104
10.97081161,9.082478787567463e+104,-9.821271190083554e+103,-1.3463197996166263e+104
10.97558812,8.995561672471555e+104,-9.724706376540187e+103,-1.3330447782068783e+104
10.98036457,8.909467870743456e+104,-9.629128747546295e+103,-1.3199038661501754e+104
10.98514108,8.82418944022613e+104,-9.534527600372942e+103,-1.3068957189894726e+104
10.9899176,8.73971851726993e+104,-9.440892351322943e+103,-1.2940190046197674e+104
10.99469405,8.656047316051145e+104,-9.348212534490643e+103,-1.2812724031951411e+104
10.99947056,8.573168127894137e+104,-9.256477800529952e+103,-1.2686546070367547e+104
11.00424707,8.491073320596857e+104,-9.165677915431125e+103,-1.2561643205417778e+104
11.00902353,8.409755337759513e+104,-9.075802759306591e+103,-1.2438002600932273e+104
11.01380004,8.32920669811609e+104,-8.986842325186192e+103,-1.2315611539706981e+104
11.01857655,8.249419994868539e+104,-8.898786717822102e+103,-1.2194457422619641e+104
11.02335301,8.170387895023447e+104,-8.811626152503695e+103,-1.2074527767754284e+104
11.02812952,8.092103138731005e+104,-8.725350953882566e+103,-1.1955810209533908e+104
11.03290603,8.014558538626174e+104,-8.639951554807934e+103,-1.1838292497861107e+104
11.03768249,7.937746979171881e+104,-8.555418495172588e+103,-1.1721962497266386e+104
11.042459,7.86166141600412e+104,-8.471742420769493e+103,-1.160680818606391e+104
11.04723546,7.786294875278915e+104,-8.388914082159189e+103,-1.1492817655514371e+104
11.05201197,7.711640453021094e+104,-8.306924333548095e+103,-1.1379979108994707e+104
11.05678848,7.637691314474852e+104,-8.225764131677817e+103,-1.1268280861174337e+104
11.06156494,7.564440693456071e+104,-8.145424534725505e+103,-1.115771133719758e+104
11.06634145,7.491881891706409e+104,-8.065896701215296e+103,-1.104825907187198e+104
11.07111796,7.420008278249183e+104,-7.987171888940893e+103,-1.0939912708862192e+104
11.07589442,7.348813288747042e+104,-7.90924145389921e+103,-1.0832660999889203e+104
11.08067093,7.278290424861459e+104,-7.832096849234908e+103,-1.0726492803934588e+104
11.08544744,7.208433253614078e+104,-7.75572962419559e+103,-1.0621397086449553e+104
11.0902239,7.139235406749983e+104,-7.680131423097453e+103,-1.0517362918568411e+104
11.09500041,7.070690580102994e+104,-7.605293984301275e+103,-1.041437947632617e+104
11.09977692,7.002792532963127e+104,-7.531209139198628e+103,-1.0312436039879876e+104
11.10455338,6.935535087446366e+104,-7.45786881120822e+103,-1.021152199273339e+104
11.10932989,6.86891212786693e+104,-7.385265014782245e+103,-1.0111626820965228e+104
11.1141064,6.802917600112222e+104,-7.313389854422628e+103,-1.0012740112459097e+104
11.11888286,6.73754551102068e+104,-7.242235523707064e+103,-9.914851556136793e+103
11.12365937,6.67278992776277e+104,-7.171794304324752e+103,-9.817950941193184e+103
11.12843588,6.608644977225287e+104,-7.1020585651217194e+103,-9.722028156333034e+103
11.13321233,6.545104845399159e+104,-7.033020761155674e+103,-9.627073189009491e+103
11.13798884,6.482163776770827e+104,-6.964673432760276e+103,-9.533076124664101e+103
11.14276536,6.419816073717319e+104,-6.897009204618765e+103,-9.440027145968134e+103
11.14754181,6.35805609590512e+104,-6.830020784846829e+103,-9.347916532065012e+103
11.15231832,6.296878259692944e+104,-6.763700964084558e+103,-9.25673465781354e+103
11.15709483,6.236277037538527e+104,-6.698042614597378e+103,-9.166471993031716e+103
11.16187129,6.176246957409491e+104,-6.633038689385835e+103,-9.077119101741005e+103
11.1666478,6.116782602198311e+104,-6.5686822213040746e+103,-8.98866664141088e+103
11.17142426,6.057878609141486e+104,-6.504966322186869e+103,-8.901105362203499e+103
11.17620077,5.999529669242961e+104,-6.4418841819850615e+103,-8.814426106218414e+103
11.18097728,5.941730526701825e+104,-6.379429067909318e+103,-8.728619806737222e+103
11.18575374,5.884475978344371e+104,-6.317594323582102e+103,-8.643677487468119e+103
11.19053025,5.827760873060495e+104,-6.2563733681977585e+103,-8.55959026179035e+103
11.19530676,5.77158011124448e+104,-6.195759695690612e+103,-8.476349331998623e+103
11.20008322,5.715928644240142e+104,-6.135746873910973e+103,-8.393945988547595e+103
11.20485973,5.660801473790376e+104,-6.076328543809032e+103,-8.312371609296542e+103
11.20963624,5.6061936514911287e+104,-6.017498418626569e+103,-8.231617658754393e+103
11.2144127,5.55210027824989e+104,-5.959250283096443e+103,-8.151675687325278e+103
11.21918921,5.4985165037487926e+104,-5.901577992649786e+103,-8.072537330554885e+103
11.22396572,5.4454375259124494e+104,-5.844475472630899e+103,-7.994194308377815e+103
11.22874218,5.392858590380613e+104,-5.7879367175197735e+103,-7.916638424366098e+103
11.23351869,5.3407749899856733e+104,-5.731955790162148e+103,-7.83986156497907e+103
11.2382952,5.2891820642350604e+104,-5.676526821007021e+103,-7.763855698814762e+103
11.24307166,5.23807519879858e+104,-5.621644007351545e+103,-7.68861287586287e+103
11.24784817,5.187449825000762e+104,-5.567301612593202e+103,-7.614125226759486e+103
11.25262463,5.13730141931833e+104,-5.513493965489147e+103,-7.540384962043654e+103
11.25740114,5.087625502882904e+104,-5.4602154594225904e+103,-7.467384371415904e+103
11.26217765,5.0384176409889874e+104,-5.407460551676086e+103,-7.395115822998957e+103
11.26695416,4.989673442607319e+104,-5.355223762711601e+103,-7.323571762600855e+103
11.27173062,4.9413885599036496e+104,-5.303499675457323e+103,-7.252744712980827e+103
11.27650713,4.8935586877629825e+104,-5.25228293460112e+103,-7.182627273118167e+103
11.28128358,4.8461795633193325e+104,-5.201568245890584e+103,-7.11321211748444e+103
11.2860601,4.799246965491079e+104,-5.151350375439581e+103,-7.044491995319282e+103
11.2908366,4.752756714521971e+104,-5.101624149041287e+103,-6.97645972991013e+103
11.29561306,4.706704671527804e+104,-5.05238445148764e+103,-6.909108217876079e+103
11.30038957,4.661086738048762e+104,-5.003626225895146e+103,-6.842430428456054e+103
11.30516608,4.615898855607376e+104,-4.95534447303699e+103,-6.776419402801493e+103
11.30994254,4.5711370052720215e+104,-4.907534250681421e+103,-6.711068253273698e+103
11.31471905,4.5267972072259226e+104,-4.860190672936334e+103,-6.646370162745945e+103
11.31949556,4.482875520341657e+104,-4.8133089096e+103,-6.5823183839104294e+103
11.32427202,4.43936804176115e+104,-4.766884185517881e+103,-6.518906238590172e+103
11.32904853,4.3962709064811396e+104,-4.720911779945542e+103,-6.456127117055988e+103
11.33382504,4.3535802869441035e+104,-4.675387025917641e+103,-6.393974477348621e+103
11.3386015,4.3112923926346224e+104,-4.630305309622953e+103,-6.332441844606164e+103
11.34337801,4.269403469681186e+104,-4.5856620697854e+103,-6.271522810396863e+103
11.34815452,4.2279098004633966e+104,-4.541452797051002e+103,-6.211211032057437e+103
11.35293098,4.1868077032245e+104,-4.4976730333806495e+103,-6.1515002320369864e+103
11.35770749,4.146093531689139e+104,-4.454318371448582e+103,-6.0923841972466546e+103
11.36248395,4.1057636746862295e+104,-4.411384454046418e+103,-6.03385677841514e+103
11.36726046,4.0658145557767964e+104,-4.368866973492641e+103,-5.975911889450181e+103
11.37203697,4.026242632886621e+104,-4.326761671047439e+103,-5.918543506806108e+103
11.37681343,3.987044397943562e+104,-4.285064336332787e+103,-5.861745668857574e+103
11.38158994,3.94821637651945e+104,-4.2437708067576455e+103,-5.8055124752795336e+103
11.38636645,3.909755127476461e+104,-4.2028769669481834e+103,-5.749838086433508e+103
11.39114291,3.87165724261786e+104,-4.162378748182978e+103,-5.694716722760149e+103
11.39591942,3.83391934634303e+104,-4.12227212783316e+103,-5.6401426641780945e+103
11.40069593,3.796538095306741e+104,-4.0825531288074685e+103,-5.586110249489157e+103
11.40547239,3.7595101780825676e+104,-4.0432178190021565e+103,-5.5326138757898285e+103
11.4102489,3.7228323148304e+104,-4.0042623107557e+103,-5.4796479978890564e+103
11.41502541,3.6865012569680074e+104,-3.965682760308304e+103,-5.427207127732255e+103
11.41980187,3.650513786846635e+104,-3.92747536726623e+103,-5.375285833831487e+103
11.42457838,3.61486671743061e+104,-3.889636374070979e+103,-5.3238787407017664e+103
11.42935489,3.579556891980859e+104,-3.852162065473366e+103,-5.272980528303413e+103
11.43413134,3.544581183742253e+104,-3.815048768012508e+103,-5.222585931490364e+103
11.43890786,3.5099364956347136e+104,-3.778292849499749e+103,-5.172689739464367e+103
11.44368437,3.475619759947999e+104,-3.741890718507568e+103,-5.123286795234977e+103
11.44846082,3.441627938040096e+104,-3.7058388238635226e+103,-5.074371995085331e+103
11.45323733,3.4079580200391256e+104,-3.670133654149268e+103,-5.02594028804365e+103
11.45801379,3.374607024548674e+104,-3.634771737204696e+103,-4.977986675360428e+103
11.4627903,3.341571998356508e+104,-3.5997496396372135e+103,-4.9305062099913074e+103
11.46756681,3.3088500161466864e+104,-3.5650639663362135e+103,-4.883493996085689e+103
11.47234327,3.276438180215055e+104,-3.530711359992798e+103,-4.836945188481163e+103
11.47711978,3.2443336201881014e+104,-3.496688500624796e+103,-4.790854992203836e+103
11.48189629,3.2125334927451506e+104,-3.46299210510707e+103,-4.745218661974596e+103
11.48667275,3.181034981343907e+104,-3.4296189267071015e+103,-4.700031501721327e+103
11.49144926,3.149835295949363e+104,-3.3965657546258363e+103,-4.655288864097067e+103
11.49622577,3.118931672766086e+104,-3.36382941354375e+103,-4.6109861500040465e+103
11.50100223,3.0883213739739165e+104,-3.3314067631721075e+103,-4.567118808123524e+103
11.50577874,3.0580016874670824e+104,-3.2992946978093904e+103,-4.5236823344513285e+103
11.5105552,3.027969926596711e+104,-3.267490145902849e+103,-4.480672271838957e+103
11.51533171,2.998223429916724e+104,-3.2359900696151616e+103,-4.438084209540071e+103
11.52010822,2.968759560933089e+104,-3.204791464396199e+103,-4.395913782762257e+103
11.52488468,2.939575707856412e+104,-3.1738913585599e+103,-4.3541566722239384e+103
11.52966119,2.9106692833578524e+104,-3.14328681286629e+103,-4.3128086037163126e+103
11.5344377,2.882037724328346e+104,-3.112974920108674e+103,-4.271865347670228e+103
11.53921416,2.853678491641098e+104,-3.082952804706027e+103,-4.231322718727943e+103
11.54399067,2.8255890699173105e+104,-3.0532176223005898e+103,-4.191176575319681e+103
11.54876718,2.7977669672950616e+104,-3.0237665593606594e+103,-4.1514228192448865e+103
11.55354364,2.7702097152012867e+104,-2.9945968327885865e+103,-4.112057395258104e+103
11.55832015,2.7429148681267925e+104,-2.9657056895339763e+103,-4.073076290659411e+103
11.56309666,2.7158800034042483e+104,-2.9370904062121134e+103,-4.03447553488936e+103
11.56787312,2.689102720989115e+104,-2.9087482887276166e+103,-3.99625119912835e+103
11.57264963,2.6625806432434576e+104,-2.8806766719033097e+103,-3.9583993959003624e+103
11.57742614,2.6363114147226188e+104,-2.852872919114303e+103,-3.920916278680968e+103
11.5822026,2.6102927019647296e+104,-2.8253344219272922e+103,-3.883798041509528e+103
11.58697911,2.5845221932830335e+104,-2.79805859974505e+103,-3.847040918605474e+103
11.59175562,2.5589975985609888e+104,-2.771042899456088e+103,-3.810641183988559e+103
11.59653207,2.5337166490501002e+104,-2.744284795089476e+103,-3.77459515110298e+103
11.60130858,2.5086770971704345e+104,-2.7177817874747848e+103,-3.738899172445271e+103
11.6060851,2.4838767163137566e+104,-2.6915314039071367e+103,-3.703549639195842e+103
11.61086155,2.459313300649216e+104,-2.6655311978173405e+103,-3.668542980854058e+103
11.61563806,2.4349846649315075e+104,-2.6397787484470998e+103,-3.633875664876729e+103
11.62041457,2.4108886443114278e+104,-2.614271660529271e+103,-3.599544196319899e+103
11.62519103,2.3870230941487447e+104,-2.589007563973142e+103,-3.5655451174837905e+103
11.62996754,2.3633858898272947e+104,-2.5639841135546683e+103,-3.531875007560793e+103
11.634744,2.339974926572243e+104,-2.539198988611602e+103,-3.498530482286389e+103
11.63952051,2.316788119269444e+104,-2.514649892743447e+103,-3.465508193592911e+103
11.64429702,2.2938234022868376e+104,-2.490334553516176e+103,-3.432804829266071e+103
11.64907348,2.2710787292978164e+104,-2.46625072217163e+103,-3.4004171126041877e+103
11.65384999,2.2485520731065153e+104,-2.4423961733415204e+103,-3.3683418020800472e+103
11.6586265,2.2262414254749657e+104,-2.4187687047659406e+103,-3.3365756910053626e+103
11.66340296,2.204144796952054e+104,-2.3953661370162544e+103,-3.305115607197775e+103
11.66817947,2.1822602167042074e+104,-2.372186313222271e+103,-3.273958412650339e+103
11.67295598,2.1605857323477337e+104,-2.3492270988036073e+103,-3.243101003203419e+103
11.67773244,2.1391194097827443e+104,-2.3264863812051345e+103,-3.2125403082189428e+103
11.68250895,2.1178593330285996e+104,-2.303962069636406e+103,-3.1822732902569663e+103
11.68728546,2.096803604060806e+104,-2.2816520948149463e+103,-3.1522969447545335e+103
11.69206192,2.0759503426493168e+104,-2.259554408713283e+103,-3.122608299706793e+103
11.69683843,2.0552976861981703e+104,-2.2376669843096045e+103,-3.093204415350326e+103
11.70161489,2.0348437895864034e+104,-2.21598781534193e+103,-3.064082383848636e+103
11.7063914,2.014586825010166e+104,-2.194514916065671e+103,-3.0352393289797327e+103
11.71116791,1.9945249818259652e+104,-2.1732463210144718e+103,-3.006672405825719e+103
11.71594437,1.9746564663949783e+104,-2.1521800847642355e+103,-2.978378800464294e+103
11.72072088,1.9549795019283618e+104,-2.131314281700261e+103,-2.9503557296621e+103
11.72549739,1.935492328333489e+104,-2.110647005787391e+103,-2.922600440569862e+103
11.73027385,1.9161932020610573e+104,-2.090176370343103e+103,-2.8951102104192963e+103
11.73505036,1.897080395953016e+104,-2.0699005078134627e+103,-2.867882346221766e+103
11.73982687,1.878152199091253e+104,-2.049817569551875e+103,-2.840914184468663e+103
11.74460332,1.859406916646973e+104,-2.0299257256005596e+103,-2.8142030908334982e+103
11.74937983,1.840842869730714e+104,-2.0102231644747112e+103,-2.787746459875656e+103
11.75415634,1.8224583952429684e+104,-1.9907080929493118e+103,-2.761541714745791e+103
11.7589328,1.8042518457253902e+104,-1.9713787358485575e+103,-2.7355863068928583e+103
11.76370931,1.7862215892125578e+104,-1.952233335837878e+103,-2.7098777157727533e+103
11.76848577,1.7683660090842527e+104,-1.933270153218517e+103,-2.6844134485585302e+103
11.77326228,1.750683503918223e+104,-1.9144874657246302e+103,-2.659191039852175e+103
11.77803879,1.7331724873434068e+104,-1.895883568322855e+103,-2.6342080513979138e+103
11.7828153,1.715831387893605e+104,-1.8774567730142896e+103,-2.6094620717970386e+103
11.78759176,1.69865864886156e+104,-1.8592054086388285e+103,-2.5849507162242303e+103
11.79236827,1.681652728153433e+104,-1.841127820681798e+103,-2.5606716261453748e+103
11.79714473,1.6648120981436572e+104,-1.823222371082861e+103,-2.5366224690368887e+103
11.80192124,1.6481352455301503e+104,-1.8054874380471485e+103,-2.5128009381065686e+103
11.80669775,1.6316206711898738e+104,-1.7879214158585698e+103,-2.4892047520159816e+103
11.81147421,1.6152668900347326e+104,-1.7705227146952655e+103,-2.4658316546044146e+103
11.81625072,1.5990724308678346e+104,-1.7532897604471665e+103,-2.442679414614397e+103
11.82102723,1.583035836240121e+104,-1.7362209945356246e+103,-2.419745825418782e+103
11.82580369,1.567155662307377e+104,-1.7193148737350759e+103,-2.3970287047493885e+103
11.8305802,1.5514304786876416e+104,-1.7025698699967067e+103,-2.3745258944272107e+103
11.83535666,1.5358588683190327e+104,-1.6859844702741107e+103,-2.352235260094224e+103
11.84013317,1.520439427318008e+104,-1.6695571763509377e+103,-2.330154690946826e+103
11.84490968,1.5051707648380877e+104,-1.653286504670539e+103,-2.3082820994709606e+103
11.84968619,1.4900515029290667e+104,-1.6371709861675997e+103,-2.286615421178979e+103
11.85446265,1.4750802763967297e+104,-1.6212091661017415e+103,-2.2651526143482674e+103
11.85923916,1.4602557326631116e+104,-1.6053996038930785e+103,-2.2438916597616784e+103
11.86401562,1.4455765316273383e+104,-1.589740872959717e+103,-2.2228305604498046e+103
11.86879213,1.4310413455270804e+104,-1.574231560557204e+103,-2.2019673414351265e+103
11.87356864,1.4166488588006622e+104,-1.558870267619931e+103,-2.1813000494780965e+103
11.8783451,1.4023977679498841e+104,-1.5436556086045102e+103,-2.1608267528252175e+103
11.88312161,1.3882867814036176e+104,-1.5285862113351323e+103,-2.1405455409591722e+103
11.88789812,1.3743146193822287e+104,-1.5136607168509222e+103,-2.120454524351049e+103
11.89267457,1.3604800137628858e+104,-1.4988777792553053e+103,-2.1005518342147115e+103
11.89745108,1.3467817079458024e+104,-1.4842360655674035e+103,-2.0808356222633425e+103
11.9022276,1.3332184567214622e+104,-1.469734255575465e+103,-2.061304060468206e+103
11.90700405,1.3197890261388645e+104,-1.4553710416923453e+103,-2.041955340819646e+103
11.91178056,1.3064921933748307e+104,-1.4411451288130426e+103,-2.0227876750903457e+103
11.91655702,1.293326746604398e+104,-1.4270552341742975e+103,-2.003799294600877e+103
11.92133353,1.2802914848723242e+104,-1.413100087216251e+103,-1.9849884499875307e+103
11.92611004,1.2673852179657313e+104,-1.3992784294461634e+103,-1.966353410972428e+103
11.9308865,1.2546067662879195e+104,-1.3855890143041976e+103,-1.9478924661359004e+103
11.93566301,1.2419549607333993e+104,-1.372030607031257e+103,-1.9296039226911373e+103
11.94043952,1.2294286425641797e+104,-1.3586019845388603e+103,-1.9114861062611008e+103
11.94521598,1.2170266632873535e+104,-1.3453019352810242e+103,-1.8935373606577113e+103
11.94999249,1.2047478845340113e+104,-1.3321292591281236e+103,-1.8757560476632834e+103
11.954769,1.1925911779395079e+104,-1.319082767242688e+103,-1.858140546814202e+103
11.95954546,1.1805554250251156e+104,-1.3061612819570807e+103,-1.8406892551868236e+103
11.96432197,1.1686395170811012e+104,-1.2933636366530175e+103,-1.823400587185592e+103
11.96909848,1.1568423550512566e+104,-1.2806886756428776e+103,-1.806272974333378e+103
11.97387494,1.1451628494189262e+104,-1.268135254052754e+103,-1.7893048650640168e+103
11.97865145,1.1335999200945667e+104,-1.2557022377071953e+103,-1.7724947245170213e+103
11.98342791,1.1221524963048662e+104,-1.2433885030156029e+103,-1.7558410343344329e+103
11.98820442,1.1108195164834417e+104,-1.2311929368602479e+103,-1.739342292459788e+103
11.99298093,1.0995999281631346e+104,-1.219114436485875e+103,-1.7229970129391807e+103
11.99775739,1.0884926878699198e+104,-1.2071519093908647e+103,-1.7068037257244087e+103
12.0025339,1.0774967610184382e+104,-1.1953042732199092e+103,-1.6907609764781977e+103
12.00731041,1.0666111218091664e+104,-1.183570455658164e+103,-1.6748673263814788e+103
12.01208687,1.055834753127233e+104,-1.1719493943268378e+103,-1.6591213519426868e+103
12.01686338,1.0451666464428927e+104,-1.1604400366801907e+103,-1.643521644809064e+103
12.02163989,1.0346058017136664e+104,-1.1490413399039e+103,-1.6280668115799573e+103
12.02641635,1.0241512272881467e+104,-1.137752270814767e+103,-1.6127554736221126e+103
12.03119286,1.0138019398114733e+104,-1.126571805761732e+103,-1.5975862668869757e+103
12.03596937,1.0035569641324734e+104,-1.115498930528177e+103,-1.5825578417300106e+103
12.04074582,9.934153332124662e+103,-1.1045326402354942e+103,-1.5676688627320452e+103
12.04552233,9.83376088035721e+103,-1.0936719392479003e+103,-1.5529180085226442e+103
12.05029884,9.734382775215697e+103,-1.0829158410784705e+103,-1.5383039716055131e+103
12.0550753,9.636009584381605e+103,-1.072263368296374e+103,-1.5238254581859436e+103
12.05985181,9.538631953178441e+103,-1.0617135524352963e+103,-1.5094811880003309e+103
12.06462832,9.44224060374183e+103,-1.0512654339030329e+103,-1.4952698941477814e+103
12.06940478,9.346826334205821e+103,-1.040918061892237e+103,-1.4811903229238074e+103
12.07418129,9.252380017905329e+103,-1.0306704942923048e+103,-1.467241233656112e+103
12.07895775,9.158892602594697e+103,-1.0205217976023883e+103,-1.4534213985424582e+103
12.08373426,9.066355109682421e+103,-1.0104710468455239e+103,-1.4397296024906141e+103
12.08851077,8.974758633481994e+103,-1.0005173254838793e+103,-1.4261646429603693e+103
12.09328723,8.88409434047884e+103,-9.906597253351127e+102,-1.4127253298076234e+103
12.09806374,8.794353468613235e+103,-9.808973464898374e+102,-1.3994104851305475e+103
12.10284025,8.705527326579139e+103,-9.712292972301965e+102,-1.3862189431178212e+103
12.10761671,8.61760729313877e+103,-9.616546939495428e+102,-1.3731495498989395e+103
12.11239322,8.530584816452785e+103,-9.521726610732176e+102,-1.3602011633965751e+103
12.11716968,8.444451413425992e+103,-9.427823309804253e+102,-1.3473726531809785e+103
12.12194619,8.359198669068436e+103,-9.334828439272015e+102,-1.3346629003263967e+103
12.1267227,8.274818235871743e+103,-9.24273347970475e+102,-1.3220707972695076e+103
12.13149916,8.191301833200566e+103,-9.15152998893224e+102,-1.309595247669859e+103
12.13627567,8.108641246699003e+103,-9.06120960130732e+102,-1.2972351662723016e+103
12.14105218,8.026828327711853e+103,-8.971764026979397e+102,-1.2849894787714056e+103
12.14582864,7.945854992720457e+103,-8.883185051178833e+102,-1.2728571216778436e+103
12.15060515,7.86571322279284e+103,-8.795464533512104e+102,-1.2608370421867279e+103
12.15538166,7.786395063047813e+103,-8.708594407267664e+102,-1.2489281980478883e+103
12.16015812,7.707892622132775e+103,-8.622566678732439e+102,-1.2371295574380828e+103
12.16493463,7.630198071714863e+103,-8.537373426518844e+102,-1.225440098835125e+103
12.16971108,7.553303645985187e+103,-8.453006800902148e+102,-1.2138588108939142e+103
12.1744876,7.477201641175827e+103,-8.369459023168026e+102,-1.2023846923243564e+103
12.17926411,7.40188441508932e+103,-8.286722384970071e+102,-1.1910167517711544e+103
12.18404056,7.327344386640249e+103,-8.204789247697044e+102,-1.179754007695436e+103
12.18881707,7.253574035408519e+103,-8.123652041849505e+102,-1.1685954882581886e+103
12.19359358,7.180565901203907e+103,-8.043303266425545e+102,-1.1575402312054604e+103
12.19837004,7.108312583641438e+103,-7.963735488315309e+102,-1.146587283755304e+103
12.20314655,7.036806741726993e+103,-7.884941341704001e+102,-1.1357357024864405e+103
12.20792306,6.966041093452531e+103,-7.806913527483046e+102,-1.1249845532286278e+103
12.21269952,6.8960084154003205e+103,-7.72964481266912e+102,-1.1143329109547054e+103
12.21747603,6.826701542355669e+103,-7.653128029830787e+102,-1.1037798596742912e+103
12.22225254,6.7581133669276195e+103,-7.577356076522508e+102,-1.0933244923291133e+103
12.227029,6.6902368391771166e+103,-7.502321914725792e+102,-1.082965910689961e+103
12.23180551,6.623064966252178e+103,-7.428018570297237e+102,-1.0727032252552438e+103
12.23658202,6.556590812029632e+103,-7.35443913242326e+102,-1.06253555515114e+103
12.24135848,6.490807496763015e+103,-7.281576753081297e+102,-1.0524620280333063e+103
12.24613499,6.4257081967363275e+103,-7.209424646507307e+102,-1.0424817799901226e+103
12.25091145,6.361286143923389e+103,-7.137976088669404e+102,-1.0325939554474387e+103
12.25568796,6.297534625652517e+103,-7.06722441674743e+102,-1.0227977070747951e+103
12.26046447,6.234446984276256e+103,-6.997163028618185e+102,-1.0130921956930893e+103
12.26524093,6.1720166168458804e+103,-6.92778538234614e+102,-1.0034765901836699e+103
12.27001744,6.110236974790398e+103,-6.85908499567938e+102,-9.93950067398839e+102
12.27479395,6.049101563599748e+103,-6.791055445550648e+102,-9.845118120737362e+102
12.27957041,5.9886039425119264e+103,-6.723690367583314e+102,-9.751610167395816e+102
12.28434692,5.9287377242038594e+103,-6.656983455602112e+102,-9.65896881638262e+102
12.28912343,5.869496574485799e+103,-6.590928461148453e+102,-9.56718614638247e+102
12.29389989,5.810874211999046e+103,-6.525519193000107e+102,-9.476254311518191e+102
12.2986764,5.7528644079167516e+103,-6.46074951669502e+102,-9.38616554053595e+102
12.30345286,5.695460985647587e+103,-6.396613354059099e+102,-9.296912136003095e+102
12.30822937,5.638657820542115e+103,-6.333104682737809e+102,-9.20848647351828e+102
12.31300588,5.582448839601632e+103,-6.270217535731461e+102,-9.120881000933553e+102
12.31778233,5.526828021189279e+103,-6.207946000934039e+102,-9.034088237588036e+102
12.32255885,5.471789394743163e+103,-6.146284220675404e+102,-8.94810077355277e+102
12.32733536,5.41732704049124e+103,-6.085226391266737e+102,-8.862911268886348e+102
12.33211181,5.363435089167758e+103,-6.024766762549054e+102,-8.778512452900936e+102
12.33688832,5.310107721731001e+103,-5.964899637444662e+102,-8.694897123438331e+102
12.34166478,5.257339169082126e+103,-5.905619371511477e+102,-8.61205814615577e+102
12.34644129,5.205123711784843e+103,-5.846920372500103e+102,-8.529988453821216e+102
12.3512178,5.15345567978579e+103,-5.788797099913558e+102,-8.448681045617904e+102
12.35599426,5.102329452135478e+103,-5.731244064569488e+102,-8.368128986457936e+102
12.36077077,5.051739456709669e+103,-5.674255828164786e+102,-8.288325406304715e+102
12.36554728,5.0016801699310775e+103,-5.617827002842595e+102,-8.209263499503983e+102
12.37032374,4.952146116491322e+103,-5.561952250761681e+102,-8.130936524123227e+102
12.37510025,4.903131869073017e+103,-5.506626283668168e+102,-8.053337801299276e+102
12.37987676,4.8546320480719455e+103,-5.451843862469595e+102,-7.976460714593893e+102
12.38465322,4.806641321319253e+103,-5.397599796811249e+102,-7.900298709357179e+102
12.38942973,4.759154403803595e+103,-5.343888944654768e+102,-7.824845292098615e+102
12.39420624,4.712166057393183e+103,-5.29070621185904e+102,-7.750094029865559e+102
12.3989827,4.665671090557679e+103,-5.238046551763391e+102,-7.676038549629029e+102
12.40375921,4.619664358089918e+103,-5.185904964773051e+102,-7.602672537676576e+102
12.40853567,4.574140760827449e+103,-5.134276497946922e+102,-7.529989739012054e+102
12.41331218,4.529095245373903e+103,-5.083156244587629e+102,-7.457983956762177e+102
12.41808869,4.4845228038201794e+103,-5.032539343833869e+102,-7.386649051589747e+102
12.42286515,4.440418473465491e+103,-4.982420980255015e+102,-7.315978941113434e+102
12.42764166,4.396777336538364e+103,-4.932796383447943e+102,-7.245967599333995e+102
12.43241817,4.353594519917642e+103,-4.883660827636069e+102,-7.17660905606681e+102
12.43719463,4.3108651948536e+103,-4.835009631270615e+102,-7.107897396380692e+102
12.44197114,4.268584576689253e+103,-4.786838156634131e+102,-7.039826760042904e+102
12.44674765,4.2267479245819034e+103,-4.739141809446243e+102,-6.97239134097037e+102
12.4515241,4.18535054122501e+103,-4.691916038471615e+102,-6.905585386687008e+102
12.45630062,4.1443877725703756e+103,-4.645156335130029e+102,-6.839403197787184e+102
12.46107707,4.103855007550701e+103,-4.598858233108533e+102,-6.773839127405233e+102
12.46585358,4.063747677802557e+103,-4.553017307975561e+102,-6.708887580691033e+102
12.4706301,4.024061257389847e+103,-4.507629176796978e+102,-6.644543014291601e+102
12.47540655,3.984791262527848e+103,-4.4626894977539877e+102,-6.580799935838748e+102
12.48018306,3.945933251307907e+103,-4.418193969762905e+102,-6.517652903442768e+102
12.48495957,3.907482823422887e+103,-4.374138332096782e+102,-6.455096525192124e+102
12.48973603,3.869435619893481e+103,-4.3305183640089394e+102,-6.393125458659004e+102
12.49451254,3.831787322795469e+103,-4.2873298843584226e+102,-6.331734410410654e+102
12.499289,3.7945336549880545e+103,-4.2445687512373867e+102,-6.270918135526359e+102
12.50406551,3.757670379843343e+103,-4.202230861600456e+102,-6.210671437119992e+102
12.50884202,3.721193300977072e+103,-4.160312150896104e+102,-6.150989165868059e+102
12.51361848,3.685098261980701e+103,-4.118808592700065e+102,-6.091866219543155e+102
12.51839499,3.649381146154958e+103,-4.0777161983508114e+102,-6.033297542552719e+102
12.5231715,3.614037876244922e+103,-4.0370310165871084e+102,-5.975278125482919e+102
12.52794796,3.5790644141767117e+103,-3.9967491331876767e+102,-5.917803004647501e+102
12.53272447,3.544456760795798e+103,-3.956866670613003e+102,-5.860867261641455e+102
12.53750098,3.5102109556069938e+103,-3.9173797876493756e+102,-5.804466022899455e+102
12.54227744,3.476323076516138e+103,-3.8782846790552133e+102,-5.748594459258969e+102
12.54705395,3.442789239573499e+103,-3.839577575209739e+102,-5.693247785527951e+102
12.55183041,3.409605598718882e+103,-3.8012547417640547e+102,-5.638421260057089e+102
12.55660692,3.3767683455284007e+103,-3.7633124792946575e+102,-5.584110184316566e+102
12.56138343,3.3442737089628527e+103,-3.725747122959448e+102,-5.530309902477259e+102
12.56615989,3.3121179551176508e+103,-3.6885550421562873e+102,-5.477015800996378e+102
12.5709364,3.2802973869742758e+103,-3.651732640184181e+102,-5.424223308207448e+102
12.57571291,3.2488083441532226e+103,-3.615276353907173e+102,-5.371927893914643e+102
12.58048937,3.217647202668378e+103,-3.5791826534210293e+102,-5.320125068991393e+102
12.58526588,3.1868103746827513e+103,-3.543448041722791e+102,-5.268810384983208e+102
12.59004239,3.1562943082654753e+103,-3.508069054383252e+102,-5.217979433714722e+102
12.59481884,3.126095487150004e+103,-3.473042259222453e+102,-5.167627846900953e+102
12.59959536,3.096210430493448e+103,-3.438364255988305e+102,-5.117751295762758e+102
12.60437181,3.0666356926369997e+103,-3.404031676038441e+102,-5.068345490646463e+102
12.60914832,3.0373678628673676e+103,-3.370041182025376e+102,-5.019406180647615e+102
12.61392483,3.0084035651791618e+103,-3.336389467585072e+102,-4.970929153238773e+102
12.61870129,2.979739458038176e+103,-3.303073257028984e+102,-4.922910233901207e+102
12.6234778,2.9513722341455037e+103,-3.270089305039703e+102,-4.8753452857604215e+102
12.62825431,2.9232986202024045e+103,-3.2374343963702987e+102,-4.8282302092254e+102
12.63303077,2.8955153766758435e+103,-3.205105345547421e+102,-4.781560941631511e+102
12.63780728,2.86801929756461e+103,-3.173098996578206e+102,-4.735333456886957e+102
12.64258379,2.840807210165956e+103,-3.1414122226609844e+102,-4.689543765122656e+102
12.64736025,2.813875974842686e+103,-3.110041925899775e+102,-4.644187912345431e+102
12.65213676,2.7872224847906436e+103,-3.0789850370225253e+102,-4.599261980094394e+102
12.65691327,2.760843665806542e+103,-3.0482385151030744e+102,-4.554762085100393e+102
12.66168973,2.734736476056099e+103,-3.0177993472867834e+102,-4.510684378948426e+102
12.66646624,2.708897905842423e+103,-2.9876645485197685e+102,-4.4670250477429203e+102
12.6712427,2.6833249773745828e+103,-2.957831161281655e+102,-4.4237803117758336e+102
12.67601921,2.6580147445363e+103,-2.928296255321769e+102,-4.3809464251975083e+102
12.68079572,2.632964292654687e+103,-2.8990569273987037e+102,-4.3385196756902387e+102
12.68557218,2.6081707382689775e+103,-2.8701103010231916e+102,-4.2964963841444894e+102
12.69034869,2.5836312288991916e+103,-2.841453526204206e+102,-4.254872904337736e+102
12.6951252,2.5593429428146784e+103,-2.8130837791982155e+102,-4.213645622615927e+102
12.69990166,2.5353030888024693e+103,-2.7849982622615126e+102,-4.17281095757757e+102
12.70467817,2.5115089059353906e+103,-2.757194203405531e+102,-4.1323653597604343e+102
12.70945463,2.487957663339873e+103,-2.729668856155063e+102,-4.0923053113308713e+102
12.71423114,2.4646466599634017e+103,-2.7024194993093045e+102,-4.052627325775726e+102
12.71900765,2.4415732243415875e+103,-2.6754434367056803e+102,-4.0133279475968024e+102
12.7237841,2.4187347143648312e+103,-2.6487379969863986e+102,-3.9744037520078503e+102
12.72856062,2.3961285170445574e+103,-2.622300533367702e+102,-3.935851344634011e+102
12.73333713,2.3737520482789807e+103,-2.596128423411775e+102,-3.89766736121367e+102
12.73811358,2.3516027526183823e+103,-2.570219068801293e+102,-3.8598484673026775e+102
12.7428901,2.32967810302988e+103,-2.5445698951166183e+102,-3.8223913579809143e+102
12.74766661,2.3079756006616854e+103,-2.5191783516156287e+102,-3.7852927575611685e+102
12.75244306,2.286492774606856e+103,-2.494041911016168e+102,-3.7485494193002533e+102
12.75721957,2.2652271816665596e+103,-2.469158069281088e+102,-3.7121581251123103e+102
12.76199608,2.244176406112874e+103,-2.444524345405859e+102,-3.6761156852842574e+102
12.76677254,2.2233380594511226e+103,-2.420138281208735e+102,-3.6404189381933165e+102
12.77154905,2.2027097801817636e+103,-2.395997441123465e+102,-3.6050647500265796e+102
12.77632551,2.1822892335618597e+103,-2.372099411994526e+102,-3.570050014502571e+102
12.78110202,2.1620741113661367e+103,-2.3484418028748627e+102,-3.5353716525947793e+102
12.78587853,2.1420621316476703e+103,-2.3250222448261473e+102,-3.5010266122571514e+102
12.79065499,2.1222510384982447e+103,-2.3018383907215225e+102,-3.467011868151555e+102
12.7954315,2.102638601808437e+103,-2.2788879150508185e+102,-3.433324421377218e+102
12.80020801,2.08322261702748e+103,-2.2561685137282146e+102,-3.399961299202165e+102
12.80498447,2.0640009049229428e+103,-2.233677903902315e+102,-3.366919554796647e+102
12.80976098,2.0449713113402512e+103,-2.2114138237686182e+102,-3.334196266968623e+102
12.81453744,2.0261317069620838e+103,-2.1893740323843403e+102,-3.3017885399012843e+102
12.81931395,2.007479987067682e+103,-2.1675563094855542e+102,-3.2696935028926573e+102
12.82409046,1.98901407129213e+103,-2.1459584553066202e+102,-3.237908310097303e+102
12.82886692,1.970731903385648e+103,-2.1245782904018618e+102,-3.2064301402701224e+102
12.83364343,1.952631450972956e+103,-2.1034136554694392e+102,-3.1752561965122966e+102
12.83841994,1.934710705312775e+103,-2.08246241117738e+102,-3.1443837060193626e+102
12.8431964,1.91696768105751e+103,-2.0617224379917323e+102,-3.113809919831422e+102
12.84797291,1.8994004160131626e+103,-2.0411916360068e+102,-3.0835321125854977e+102
12.85274937,1.8820069708995215e+103,-2.020867924777402e+102,-3.0535475822700627e+102
12.85752588,1.8647854291106737e+103,-2.0007492431530882e+102,-3.023853649981794e+102
12.86230239,1.8477338964758822e+103,-1.98083354911425e+102,-2.99444765968459e+102
12.86707884,1.8308505010208866e+103,-1.96111881961007e+102,-2.9653269779708736e+102
12.87185536,1.814133392729694e+103,-1.9416030503982592e+102,-2.936488993825234e+102
12.87663187,1.7975807433069296e+103,-1.9222842558865436e+102,-2.9079311183904613e+102
12.88140832,1.7811907459408114e+103,-1.9031604689758824e+102,-2.8796507847360686e+102
12.88618483,1.7649616150668208e+103,-1.8842297409054065e+102,-2.8516454476294275e+102
12.89096135,1.748891586132152e+103,-1.8654901410990539e+102,-2.8239125833096375e+102
12.8957378,1.7329789153610037e+103,-1.8469397570138722e+102,-2.796449689264212e+102
12.90051431,1.717221879520785e+103,-1.8285766939899506e+102,-2.76925428400868e+102
12.90529077,1.7016187756892883e+103,-1.8103990751019525e+102,-2.7423239068691895e+102
12.91006728,1.6861679210228874e+103,-1.7924050410122165e+102,-2.715656117768211e+102
12.91484379,1.6708676525258288e+103,-1.7745927498253947e+102,-2.6892484970134557e+102
12.91962025,1.6557163268206882e+103,-1.756960376944599e+102,-2.66309864509008e+102
12.92439676,1.64071231992006e+103,-1.7395061149290276e+102,-2.6372041824562473e+102
12.92917327,1.6258540269995357e+103,-1.7222281733530388e+102,-2.611562749342097e+102
12.93394973,1.6111398621720217e+103,-1.7051247786666468e+102,-2.5861720055521415e+102
12.93872624,1.5965682582634451e+103,-1.6881941740574063e+102,-2.561029630271117e+102
12.94350275,1.5821376665899135e+103,-1.6714346193136533e+102,-2.5361333218733037e+102
12.94827921,1.5678465567363985e+103,-1.6548443906890634e+102,-2.5114807977353086e+102
12.95305572,1.5536934163370278e+103,-1.6384217807684844e+102,-2.487069794052319e+102
12.95783218,1.539676750857069e+103,-1.6221650983349877e+102,-2.462898065657816e+102
12.96260869,1.525795083376688e+103,-1.6060726682380935e+102,-2.438963385846755e+102
12.9673852,1.512046954376537e+103,-1.5901428312631221e+102,-2.4152635462022146e+102
12.97216166,1.4984309215252263e+103,-1.5743739440016335e+102,-2.391796356425503e+102
12.97693817,1.484945559468727e+103,-1.5587643787229044e+102,-2.368559644169685e+102
12.98171463,1.4715894596217442e+103,-1.5433125232463974e+102,-2.34555125487649e+102
12.98649114,1.4583612299611037e+103,-1.528016780815182e+102,-2.3227690516165576e+102
12.99126765,1.4452594948211976e+103,-1.5128755699702825e+102,-2.3002109149330013e+102
12.99604411,1.4322828946915293e+103,-1.4978873244259066e+102,-2.2778747426882477e+102
13.00082062,1.4194300860164116e+103,-1.4830504929455092e+102,-2.255758449914142e+102
13.00559713,1.4066997409968627e+103,-1.468363539218644e+102,-2.2338599686653142e+102
13.01037358,1.3940905473947422e+103,-1.4538249417385386e+102,-2.2121772478758107e+102
13.0151501,1.381601208339158e+103,-1.439433193680339e+102,-2.1907082532189525e+102
13.0199266,1.3692304421351693e+103,-1.4251868027799884e+102,-2.1694509669703857e+102
13.02470306,1.3569769820747947e+103,-1.4110842912136993e+102,-2.1484033878742709e+102
13.02947957,1.344839576250317e+103,-1.3971241954779915e+102,-2.1275635310125414e+102
13.03425603,1.3328169873698802e+103,-1.3833050662702768e+102,-2.1069294276771526e+102
13.03903254,1.3209079925753689e+103,-1.3696254683699986e+102,-2.086499125245248e+102
13.04380905,1.3091113832625713e+103,-1.3560839805203307e+102,-2.0662706870571554e+102
13.04858551,1.2974259649036157e+103,-1.3426791953104473e+102,-2.0462421922971298e+102
13.05336202,1.2858505568716872e+103,-1.3294097190583867e+102,-2.026411735876732e+102
13.05813853,1.2743839922680254e+103,-1.316274171694545e+102,-2.0067774283207254e+102
13.06291499,1.2630251177512122e+103,-1.303271186645826e+102,-1.987337395655375e+102
13.0676915,1.251772793368754e+103,-1.2903994107204696e+102,-1.968089779299048e+102
13.07246801,1.2406258923909637e+103,-1.2776575039935798e+102,-1.9490327359550173e+102
13.07724447,1.229583301147137e+103,-1.2650441396933655e+102,-1.930164437506381e+102
13.08202098,1.2186439188640165e+103,-1.2525580040881217e+102,-1.9114830709130082e+102
13.08679744,1.2078066575065496e+103,-1.2401977963739654e+102,-1.8929868381104324e+102
13.09157395,1.1970704416209372e+103,-1.2279622285633457e+102,-1.874673955910611e+102
13.09635046,1.1864342081799627e+103,-1.2158500253743397e+102,-1.856542655904482e+102
13.10112692,1.175896906430599e+103,-1.203859924120742e+102,-1.8385911843662384e+102
13.10590343,1.165457497743881e+103,-1.1919906746029519e+102,-1.8208178021592423e+102
13.11067994,1.1551149554670419e+103,-1.1802410389996567e+102,-1.8032207846435092e+102
13.1154564,1.144868264777897e+103,-1.1686097917603123e+102,-1.7857984215847207e+102
13.12023291,1.1347164225414603e+103,-1.1570957194984194e+102,-1.7685490170647197e+102
13.12500942,1.1246584371687623e+103,-1.145697620885594e+102,-1.7514708893934268e+102
13.12978588,1.1146933284778373e+103,-1.1344143065464315e+102,-1.7345623710221132e+102
13.13456239,1.104820127556844e+103,-1.1232445989541677e+102,-1.717821808457976e+102
13.13933885,1.0950378766292976e+103,-1.1121873323271277e+102,-1.7012475621799637e+102
13.14411536,1.085345628921388e+103,-1.101241352525967e+102,-1.6848380065557969e+102
13.14889187,1.0757424485313593e+103,-1.0904055169517006e+102,-1.668591529760136e+102
13.15366832,1.066227410300934e+103,-1.0796786944445181e+102,-1.652506533693841e+102
13.15844483,1.0567995996887581e+103,-1.0690597651833791e+102,-1.6365814339042573e+102
13.16322129,1.0474581126458317e+103,-1.058547620586391e+102,-1.6208146595064603e+102
13.1679978,1.0382020554928817e+103,-1.0481411632119685e+102,-1.6052046531053844e+102
13.17277431,1.0290305447996447e+103,-1.0378393066607532e+102,-1.5897498707187518e+102
13.17755077,1.0199427072660273e+103,-1.0276409754782794e+102,-1.5744487817007055e+102
13.18232728,1.0109376796051202e+103,-1.0175451050583763e+102,-1.5592998686660552e+102
13.18710379,1.0020146084280356e+103,-1.0075506415472869e+102,-1.5443016274150518e+102
13.19188025,9.931726501305365e+102,-9.976565417484825e+101,-1.5294525668586082e+102
13.19665676,9.844109707814281e+102,-9.8786177302815e+101,-1.5147512089438999e+102
13.20143322,9.757287460126815e+102,-9.781653132213335e+101,-1.5001960885802892e+102
13.20620973,9.671251609112596e+102,-9.685661505387108e+101,-1.485785753565517e+102
13.21098624,9.585994099126147e+102,-9.59063283474002e+101,-1.4715187645121123e+102
13.2157627,9.501506966958278e+102,-9.496557207120071e+101,-1.457393694773978e+102
13.22053921,9.417782340803495e+102,-9.403424810372661e+101,-1.443409130373111e+102
13.22531572,9.334812439243094e+102,-9.31122593243331e+101,-1.4295636699264176e+102
13.23009218,9.252589570243522e+102,-9.219950960426368e+101,-1.415855924572594e+102
13.23486869,9.171106130169726e+102,-9.129590379769578e+101,-1.4022845178990475e+102
13.23964515,9.090354602813085e+102,-9.040134773284294e+101,-1.3888480858688405e+102
13.24442166,9.010327558433487e+102,-8.951574820311219e+101,-1.375545276747649e+102
13.24919817,8.931017652815011e+102,-8.863901295831616e+101,-1.3623747510307237e+102
13.25397463,8.852417626334669e+102,-8.777105069593878e+101,-1.34933518136984e+102
13.25875114,8.774520303043678e+102,-8.691177105245373e+101,-1.3364252525002282e+102
13.26352765,8.697318589760666e+102,-8.606108459469488e+101,-1.323643661167477e+102
13.2683041,8.620805475176257e+102,-8.521890281127803e+101,-1.3109891160543968e+102
13.27308062,8.544974028968404e+102,-8.438513810407295e+101,-1.2984603377078494e+102
13.27785707,8.469817400927961e+102,-8.35597037797244e+101,-1.2860560584655346e+102
13.28263358,8.395328820094018e+102,-8.274251404122181e+101,-1.273775022382722e+102
13.2874101,8.321501593898511e+102,-8.19334839795171e+101,-1.2616159851589182e+102
13.29218655,8.248329107319691e+102,-8.11325295651909e+101,-1.2495777140644552e+102
13.29696306,8.175804822044083e+102,-8.033956764016749e+101,-1.237658987866987e+102
13.30173957,8.103922275636657e+102,-7.955451590947912e+101,-1.225858596757883e+102
13.30651603,8.032675080719018e+102,-7.877729293308082e+101,-1.214175342278517e+102
13.31129254,7.962056924155403e+102,-7.800781811771635e+101,-1.2026080372464463e+102
13.316069,7.892061566246256e+102,-7.724601170883535e+101,-1.1911555056814786e+102
13.32084551,7.82268283992915e+102,-7.649179478256277e+101,-1.179816582731623e+102
13.32562202,7.753914649986835e+102,-7.574508923772115e+101,-1.1685901145989245e+102
13.33039848,7.685750972262119e+102,-7.500581778790571e+101,-1.157474958465169e+102
13.33517499,7.618185852879332e+102,-7.42739039536124e+101,-1.1464699824174668e+102
13.3399515,7.551213407472096e+102,-7.354927205441779e+101,-1.1355740653737226e+102
13.34472796,7.48482782041717e+102,-7.283184720121108e+101,-1.1247860970080088e+102
13.34950447,7.419023344074175e+102,-7.212155528847817e+101,-1.1141049776758549e+102
13.35428098,7.353794298030974e+102,-7.14183229866383e+101,-1.1035296183394564e+102
13.35905744,7.289135068354538e+102,-7.072207773443338e+101,-1.0930589404928032e+102
13.36383395,7.225040106847081e+102,-7.003274773136989e+101,-1.0826918760867228e+102
13.36861041,7.161503930307275e+102,-6.935026193021411e+101,-1.0724273674538325e+102
13.37338692,7.098521119796333e+102,-6.867455002954105e+101,-1.0622643672333837e+102
13.37816343,7.036086319908836e+102,-6.800554246633749e+101,-1.0522018382959882e+102
13.38293989,6.974194238048227e+102,-6.734317040866029e+101,-1.0422387536682278e+102
13.3877164,6.912839643706934e+102,-6.668736574835012e+101,-1.0323740964571509e+102
13.39249291,6.852017367751057e+102,-6.603806109380164e+101,-1.0226068597746662e+102
13.39726937,6.791722301709549e+102,-6.539518976278966e+101,-1.0129360466618353e+102
13.40204588,6.731949397067808e+102,-6.47586857753514e+101,-1.003360670013067e+102
13.40682233,6.672693664565602e+102,-6.412848384672484e+101,-9.93879752500227e+101
13.41159884,6.613950173499295e+102,-6.350451938034417e+101,-9.844923264966806e+101
13.41637536,6.555714051028372e+102,-6.288672846089337e+101,-9.751974340012832e+101
13.42115181,6.497980481486251e+102,-6.227504784741846e+101,-9.659941265623332e+101
13.42592832,6.440744705695372e+102,-6.166941496649897e+101,-9.568814652015015e+101
13.43070483,6.384002020286547e+102,-6.106976790547937e+101,-9.47858520337769e+101
13.43548129,6.327747777022609e+102,-6.047604540576106e+101,-9.38924371711392e+101
13.4402578,6.271977382126421e+102,-5.988818685615587e+101,-9.300781083079205e+101
13.44503426,6.21668629561329e+102,-5.930613228630168e+101,-9.213188282822869e+101
13.44981077,6.161870030627838e+102,-5.872982236014034e+101,-9.126456388829858e+101
13.45458728,6.107524152785343e+102,-5.81591983694579e+101,-9.040576563763678e+101
13.45936374,6.053644279517644e+102,-5.75942022274871e+101,-8.955540059710647e+101
13.46414025,6.000226079423725e+102,-5.703477646257173e+101,-8.871338217425663e+101
13.46891676,5.947265271625105e+102,-5.6480864211893e+101,-8.787962465579696e+101
13.47369322,5.894757625126145e+102,-5.593240921525791e+101,-8.705404320009265e+101
13.47846973,5.842698958179357e+102,-5.538935580894945e+101,-8.623655382968068e+101
13.48324619,5.791085137655767e+102,-5.4851648919638386e+101,-8.542707342380974e+101
13.4880227,5.739912078420383e+102,-5.4319234058356324e+101,-8.462551971100503e+101
13.49279921,5.689175742712794e+102,-5.379205731452974e+101,-8.383181126165971e+101
13.49757567,5.63887213953292e+102,-5.327006535007497e+101,-8.304586748065465e+101
13.50235218,5.588997324031885e+102,-5.2753205393553634e+101,-8.226760860000758e+101
13.50712864,5.539547396908014e+102,-5.224142523438755e+101,-8.149695567155321e+101
13.51190515,5.490518503807891e+102,-5.1734673217131627e+101,-8.073383055965544e+101
13.51668166,5.441906834732489e+102,-5.123289823580362e+101,-7.997815593395308e+101
13.52145812,5.393708623448378e+102,-5.073604972826971e+101,-7.922985526214006e+101
13.52623463,5.345920146904039e+102,-5.024407767068448e+101,-7.848885280278136e+101
13.53101114,5.2985377246513e+102,-4.9756932571983796e+101,-7.77550735981659e+101
13.5357876,5.251557718271955e+102,-4.9274565468429277e+101,-7.702844346719679e+101
13.54056411,5.204976530809638e+102,-4.879692791820274e+101,-7.63088889983184e+101
13.54534062,5.158790606206983e+102,-4.832397199604889e+101,-7.559633754248064e+101
13.55011707,5.112996428748112e+102,-4.7855650287964586e+101,-7.489071720614093e+101
13.55489358,5.0675905225064e+102,-4.7391915885933405e+101,-7.419195684430464e+101
13.55967004,5.022569450797529e+102,-4.693272238270423e+101,-7.349998605360475e+101
13.56444655,4.977929815637792e+102,-4.647802386661317e+101,-7.281473516542176e+101
13.56922306,4.933668257207639e+102,-4.602777491644806e+101,-7.213613523904555e+101
13.57399952,4.889781453320444e+102,-4.5581930596354476e+101,-7.146411805488017e+101
13.57877603,4.84626611889651e+102,-4.5140446450782376e+101,-7.079861610769298e+101
13.58355249,4.803119005442282e+102,-4.470327849947259e+101,-7.013956259990892e+101
13.588329,4.760336900534823e+102,-4.4270383232482206e+101,-6.948689143495128e+101
13.59310551,4.71791662731154e+102,-4.3841717605248064e+101,-6.884053721062918e+101
13.59788197,4.675855043965186e+102,-4.3417239033687996e+101,-6.820043521257267e+101
13.60265848,4.63414904324413e+102,-4.2996905389339134e+101,-6.75665214077162e+101
13.60743499,4.592795551957918e+102,-4.258067499453303e+101,-6.69387324378314e+101
13.61221145,4.551791530488126e+102,-4.2168506617607136e+101,-6.631700561310934e+101
13.61698796,4.51113397230456e+102,-4.176035946815202e+101,-6.570127890579202e+101
13.62176442,4.470819903486843e+102,-4.135619319229406e+101,-6.509149094385303e+101
13.62654093,4.4308463822514313e+102,-4.095596786801337e+101,-6.44875810047266e+101
13.63131744,4.3912104984840663e+102,-4.055964400049678e+101,-6.388948900908348e+101
13.6360939,4.3519093732776735e+102,-4.016718251752601e+101,-6.32971555146523e+101
13.64087041,4.3129401584756807e+102,-3.977854476490157e+101,-6.271052171008374e+101
13.64564692,4.2743000362207113e+102,-3.9393692501902746e+101,-6.212952940885594e+101
13.65042338,4.235986218508628e+102,-3.901258789678371e+101,-6.155412104321929e+101
13.65519989,4.197995946747921e+102,-3.863519352230601e+101,-6.098423965817884e+101
13.65997634,4.1603264913244386e+102,-3.826147235130737e+101,-6.041982890551308e+101
13.66475286,4.1229751511714843e+102,-3.78913877523068e+101,-5.986083303782762e+101
13.66952937,4.0859392533453427e+102,-3.752490348514581e+101,-5.930719690264276e+101
13.67430582,4.049216152606294e+102,-3.71619836966656e+101,-5.875886593651411e+101
13.67908233,4.0128032310051864e+102,-3.680259291642004e+101,-5.821578615918583e+101
13.68385885,3.9766978974756213e+102,-3.644669605242432e+101,-5.76779041677763e+101
13.6886353,3.9408975874317916e+102,-3.6094258386939584e+101,-5.714516713099605e+101
13.69341181,3.9053997623720287e+102,-3.5745245572293437e+101,-5.661752278339874e+101
13.69818827,3.870201909488109e+102,-3.5399623626736713e+101,-5.609491941966505e+101
13.70296478,3.8353015412803697e+102,-3.505735893033633e+101,-5.5577305888920124e+101
13.70774129,3.8006961951786727e+102,-3.4718418220903957e+101,-5.5064631589084595e+101
13.71251775,3.766383433169253e+102,-3.4382768589960316e+101,-5.455684646125936e+101
13.71729426,3.732360841427484e+102,-3.405037747873514e+101,-5.405390098414453e+101
13.72207072,3.6986260299565843e+102,-3.372121267420263e+101,-5.3555746168493364e+101
13.72684723,3.6651766322323046e+102,-3.3395242305152495e+101,-5.306233355160215e+101
13.73162374,3.6320103048536376e+102,-3.307243483829621e+101,-5.257361519183708e+101
13.7364002,3.5991247271996263e+102,-3.2752759074408615e+101,-5.2089543663199004e+101
13.74117671,3.5665176010923456e+102,-3.243618414450449e+101,-5.161007204992642e+101
13.74595322,3.5341866504661266e+102,-3.212267950604998e+101,-5.1135153941137054e+101
13.75072968,3.502129621043083e+102,-3.1812214939208684e+101,-5.066474342550764e+101
13.75550619,3.470344280014988e+102,-3.150476054312198e+101,-5.0198795085992037e+101
13.7602827,3.438828415731527e+102,-3.1200286732223696e+101,-4.973726399457766e+101
13.76505916,3.4075798373949303e+102,-3.08987642325892e+101,-4.9280105707080246e+101
13.76983567,3.3765963747609857e+102,-3.0600164078319205e+101,-4.882727625797681e+101
13.77461213,3.345875877846422e+102,-3.030445760795841e+101,-4.837873215527691e+101
13.77938864,3.315416216642625e+102,-3.001161646094893e+101,-4.793443037543218e+101
13.78416515,3.285215280835634e+102,-2.972161257411869e+101,-4.749432835828399e+101
13.78894161,3.2552709795323375e+102,-2.943441817820515e+101,-4.7058384002048674e+101
13.79371812,3.2255812409927964e+102,-2.915000579441448e+101,-4.6626555658340373e+101
13.79849457,3.196144012368574e+102,-2.886834823101625e+101,-4.619880212723153e+101
13.80327108,3.1669572594469746e+102,-2.858941857997371e+101,-4.577508265235085e+101
13.8080476,3.138018966401075e+102,-2.83131902136094e+101,-4.535535691601853e+101
13.81282405,3.109327135545429e+102,-2.803963678130619e+101,-4.493958503441828e+101
13.81760056,3.080879787097296e+102,-2.7768732206243818e+101,-4.4527727552806127e+101
13.82237707,3.052674958943221e+102,-2.750045068217084e+101,-4.4119745440755654e+101
13.82715353,3.0247107064107593e+102,-2.7234766670211964e+101,-4.371560008743968e+101
13.83193004,2.9969851020451513e+102,-2.69716548957104e+101,-4.331525329694819e+101
13.8367065,2.9694962353907817e+102,-2.671109034510511e+101,-4.2918667283642654e+101
13.84148301,2.942242212777248e+102,-2.6453048262842464e+101,-4.252580466754683e+101
13.84625952,2.9152211571098665e+102,-2.6197504148321818e+101,-4.213662846977421e+101
13.85103598,2.888431207664463e+102,-2.5944433752874516e+101,-4.175110210799222e+101
13.85581249,2.8618705198863136e+102,-2.5693813076776127e+101,-4.136918939192325e+101
13.86058895,2.8355372651931205e+102,-2.5445618366291842e+101,-4.099085451888267e+101
13.86536546,2.809429630781909e+102,-2.5199826110755103e+101,-4.061606206935373e+101
13.87014197,2.783545819439701e+102,-2.4956413039679518e+101,-4.02447770025994e+101
13.87491843,2.757884049357844e+102,-2.471535611990393e+101,-3.987696465231155e+101
13.87969494,2.732442553949862e+102,-2.447663255277046e+101,-3.951259072229789e+101
13.88447145,2.707219581672734e+102,-2.4240219771335255e+101,-3.915162128220723e+101
13.88924791,2.682213395851474e+102,-2.400609543761162e+101,-3.879402276329318e+101
13.89402442,2.657422274506879e+102,-2.3774237439845024e+101,-3.843976195421651e+101
13.89880088,2.6328445101863055e+102,-2.3544623889819573e+101,-3.8088805996886246e+101
13.90357739,2.6084784097973323e+102,-2.3317233120195618e+101,-3.7741122382339485e+101
13.9083539,2.584322294444194e+102,-2.3092043681878415e+101,-3.739667894666021e+101
13.91313036,2.5603744992668794e+102,-2.2869034341417824e+101,-3.705544386693746e+101
13.91790687,2.536633373282786e+102,-2.264818407843901e+101,-3.671738565726334e+101
13.92268332,2.5130972792308274e+102,-2.2429472083104228e+101,-3.638247316477153e+101
13.92745983,2.489764593417927e+102,-2.2212877753606172e+101,-3.605067556571695e+101
13.93223635,2.4666337055677945e+102,-2.1998380693693386e+101,-3.572196236159756e+101
13.9370128,2.443703018671907e+102,-2.178596071022831e+101,-3.53963033753189e+101
13.94178931,2.4209709488426126e+102,-2.1575597810778276e+101,-3.5073668747402284e+101
13.94656582,2.398435925168279e+102,-2.1367272201239536e+101,-3.475402893223738e+101
13.95134228,2.3760963895704053e+102,-2.116096428349433e+101,-3.4437354694379494e+101
13.95611879,2.3539507966626364e+102,-2.095665465310085e+101,-3.41236171048914e+101
13.96089525,2.3319976136116293e+102,-2.0754324097015978e+101,-3.381278753772969e+101
13.96567176,2.3102353199997234e+102,-2.0553953591350787e+101,-3.350483766617585e+101
13.97044827,2.28866240768939e+102,-2.0355524299158635e+101,-3.3199739459312356e+101
13.97522473,2.2672773806894056e+102,-2.01590175682558e+101,-3.289746517854415e+101
13.98000124,2.2460787550226893e+102,-1.9964414929074427e+101,-3.2597987374165824e+101
13.9847777,2.2250650585957734e+102,-1.9771698092547653e+101,-3.2301278881974455e+101
13.98955421,2.2042348310698563e+102,-1.9580848948026652e+101,-3.200731281992788e+101
13.99433072,2.1835866237333985e+102,-1.9391849561229358e+101,-3.1716062584848286e+101
13.99910718,2.1631189993762143e+102,-1.9204682172220486e+101,-3.142750184917078e+101
14.00388369,2.1428305321650237e+102,-1.9019329193422537e+101,-3.1141604557736374e+101
14.0086602,2.1227198075204362e+102,-1.883577320765759e+101,-3.0858344924628985e+101
14.01343666,2.1027854219953417e+102,-1.865399696621955e+101,-3.0577697430055456e+101
14.01821317,2.0830259831546657e+102,-1.847398338697661e+101,-3.029963681726779e+101
14.02298963,2.0634401094564648e+102,-1.8295715552503635e+101,-3.002413808952657e+101
14.02776614,2.0440264301343483e+102,-1.8119176708244097e+101,-2.975117650710487e+101
14.03254265,2.0247835850812053e+102,-1.7944350260701217e+101,-2.948072758433183e+101
14.03731911,2.005710224734228e+102,-1.777121977565774e+101,-2.921276708667534e+101
14.04209562,1.9868050099612193e+102,-1.7599768976423653e+101,-2.894727102786305e+101
14.04687207,1.9680666119481944e+102,-1.7429981742111078e+101,-2.8684215667041264e+101
14.05164858,1.9494937120882858e+102,-1.7261842105935557e+101,-2.8423577505970973e+101
14.0564251,1.931085001871957e+102,-1.7095334253543072e+101,-2.816533328626054e+101
14.06120155,1.9128391827785141e+102,-1.693044252136209e+101,-2.7909459986634337e+101
14.06597806,1.8947549661689028e+102,-1.6767151394980135e+101,-2.7655934820236882e+101
14.07075457,1.8768310731797846e+102,-1.660544550754443e+101,-2.7404735231971958e+101
14.07553103,1.8590662346188858e+102,-1.6445309638186167e+101,-2.7155838895876528e+101
14.08030754,1.8414591908616166e+102,-1.628672871046791e+101,-2.6909223712529353e+101
14.085084,1.824008691748954e+102,-1.6129687790853753e+101,-2.6664867806494454e+101
14.08986051,1.8067134964865907e+102,-1.597417208720183e+101,-2.6422749523799584e+101
14.09463702,1.7895723735453597e+102,-1.582016694727877e+101,-2.618284742944991e+101
14.09941348,1.7725841005629445e+102,-1.566765785729582e+101,-2.5945140304977176e+101
14.10418999,1.7557474642468959e+102,-1.551663044046655e+101,-2.570960714602451e+101
14.1089665,1.739061260278972e+102,-1.5367070455586273e+101,-2.5476227159967147e+101
14.11374296,1.7225242932208263e+102,-1.521896379563307e+101,-2.524497976356922e+101
14.11851947,1.7061353764210643e+102,-1.5072296486390554e+101,-2.5015844580676532e+101
14.12329593,1.6898933319236917e+102,-1.492705468509227e+101,-2.4788801439945368e+101
14.12807244,1.6737969903779656e+102,-1.4783224679087788e+101,-2.4563830372607613e+101
14.13284895,1.6578451909496526e+102,-1.4640792884530265e+101,-2.434091161027245e+101
14.13762541,1.6420367812337103e+102,-1.4499745845085265e+101,-2.4120025582764726e+101
14.14240192,1.626370617168408e+102,-1.4360070230660426e+101,-2.3901152915999832e+101
14.14717838,1.6108455629509006e+102,-1.4221752836155533e+101,-2.368427442989498e+101
14.15195489,1.5954604909542655e+102,-1.4084780580232568e+101,-2.3469371136316812e+101
14.1567314,1.5802142816459992e+102,-1.3949140504105259e+101,-2.325642423706517e+101
14.16150786,1.56510582350797e+102,-1.3814819770347594e+101,-2.3045415121892684e+101
14.16628437,1.5501340129578115e+102,-1.3681805661720772e+101,-2.2836325366559936e+101
14.17106082,1.5352977542717472e+102,-1.355008558001796e+101,-2.2629136730925795e+101
14.17583733,1.520595959508849e+102,-1.3419647044926255e+101,-2.2423831157072545e+101
14.18061385,1.506027548436721e+102,-1.3290477692905255e+101,-2.2220390767465114e+101
14.1853903,1.4915914484585952e+102,-1.3162565276081748e+101,-2.20187978631437e+101
14.19016681,1.4772865945418353e+102,-1.3035897661160041e+101,-2.1819034921948806e+101
14.19494332,1.4631119291478215e+102,-1.2910462828347502e+101,-2.1621084596777587e+101
14.19971978,1.4490664021631946e+102,-1.278624887029499e+101,-2.1424929713870414e+101
14.20449629,1.4351489708324233e+102,-1.2663243991051705e+101,-2.1230553271126427e+101
14.20927275,1.421358599691652e+102,-1.2541436505033977e+101,-2.1037938436446784e+101
14.21404926,1.4076942605038016e+102,-1.2420814836007554e+101,-2.0847068546104158e+101
14.21882577,1.3941549321948796e+102,-1.2301367516082812e+101,-2.065792710313716e+101
14.22360223,1.3807396007914553e+102,-1.2183083184722368e+101,-2.0470497775768342e+101
14.22837874,1.367447259359259e+102,-1.2065950587760677e+101,-2.0284764395844683e+101
14.23315525,1.3542769079428627e+102,-1.1949958576435124e+101,-2.010071095729945e+101
14.23793171,1.3412275535064044e+102,-1.1835096106428175e+101,-1.9918321614634505e+101
14.24270822,1.3282982098753347e+102,-1.1721352236920198e+101,-1.9737580681421887e+101
14.24748468,1.3154878976791562e+102,-1.1608716129652691e+101,-1.9558472628823733e+101
14.25226119,1.302795644295129e+102,-1.1497177048001595e+101,-1.938098208412975e+101
14.2570377,1.2902204837929e+102,-1.1386724356060407e+101,-1.9205093829311362e+101
14.26181416,1.277761456880025e+102,-1.1277347517732783e+101,-1.9030792799591626e+101
14.26659067,1.265417610848349e+102,-1.1169036095834454e+101,-1.8858064082029858e+101
14.27136713,1.2531879995212118e+102,-1.1061779751204156e+101,-1.868689291412001e+101
14.27614364,1.241071683201449e+102,-1.095556824182332e+101,-1.8517264682401816e+101
14.28092015,1.2290677286201703e+102,-1.0850391421944315e+101,-1.8349164921083937e+101
14.2856966,1.2171752088863064e+102,-1.0746239241227004e+101,-1.8182579310678322e+101
14.29047312,1.2053932034369036e+102,-1.0643101743883353e+101,-1.8017493676644966e+101
14.29524957,1.1937207979881477e+102,-1.0540969067829853e+101,-1.7853893988046095e+101
14.30002608,1.182157084487094e+102,-1.0439831443847455e+101,-1.7691766356209014e+101
14.3048026,1.1707011610640832e+102,-1.033967919474886e+101,-1.7531097033396943e+101
14.30957905,1.159352131985836e+102,-1.0240502734552997e+101,-1.7371872411487295e+101
14.31435556,1.1481091076092173e+102,-1.0142292567666405e+101,-1.7214079020656912e+101
14.31913202,1.1369712043356628e+102,-1.0045039288071248e+101,-1.7057703528073926e+101
14.32390853,1.1259375445662558e+102,-9.948733578519714e+100,-1.6902732736595966e+101
14.32868504,1.1150072566574476e+102,-9.853366209734625e+100,-1.6749153583474384e+101
14.3334615,1.1041794748774127e+102,-9.758928039616237e+100,-1.6596953139064197e+101
14.33823801,1.0934533393630273e+102,-9.66541001245512e+100,-1.6446118605539528e+101
14.34301452,1.0828279960774653e+102,-9.572803158151059e+100,-1.629663731561436e+101
14.34779098,1.0723025967684176e+102,-9.481098591437965e+100,-1.6148496731268284e+101
14.35256749,1.0618762989269392e+102,-9.390287511114798e+100,-1.600168444247706e+101
14.35734395,1.0515482657469314e+102,-9.300361199282456e+100,-1.585618816594787e+101
14.36212046,1.0413176660852685e+102,-9.211311020586729e+100,-1.5711995743859016e+101
14.36689697,1.0311836744225808e+102,-9.123128421467389e+100,-1.5569095142603928e+101
14.37167343,1.0211454708246923e+102,-9.03580492941346e+100,-1.5427474451539233e+101
14.37644994,1.0112022409047104e+102,-8.949332152224667e+100,-1.5287121881736672e+101
14.3812264,1.001353175785764e+102,-8.863701777279047e+100,-1.5148025764738672e+101
14.38600291,9.915974720643809e+101,-8.778905570806737e+100,-1.5010174551317247e+101
14.39077942,9.819343317744992e+101,-8.694935377169928e+100,-1.4873556810236043e+101
14.39555588,9.723629623521072e+101,-8.611783118148984e+100,-1.4738161227015257e+101
14.40033239,9.628825766005134e+101,-8.529440792234786e+100,-1.4603976602699244e+101
14.4051089,9.534923926562444e+101,-8.447900473927382e+100,-1.4470991852626814e+101
14.40988536,9.441916339555633e+101,-8.367154313041093e+100,-1.4339196005204232e+101
14.41466187,9.349795292016036e+101,-8.287194534016163e+100,-1.4208578200680988e+101
14.41943832,9.25855312332111e+101,-8.20801343523703e+100,-1.4079127689928438e+101
14.42421483,9.168182224877943e+101,-8.129603388357261e+100,-1.3950833833221618e+101
14.42899134,9.07867503981281e+101,-8.051956837631225e+100,-1.3823686099024567e+101
14.4337678,8.990024062666736e+101,-7.975066299252536e+100,-1.369767406277969e+101
14.43854431,8.902221839096892e+101,-7.898924360699232e+100,-1.3572787405701577e+101
14.44332077,8.81526096558363e+101,-7.823523680085628e+100,-1.3449015913575797e+101
14.44809728,8.729134089143031e+101,-7.748856985520748e+100,-1.3326349475563067e+101
14.45287379,8.643833907044837e+101,-7.674917074473341e+100,-1.320477808300917e+101
14.45765025,8.559353166535712e+101,-7.601696813143405e+100,-1.3084291828260944e+101
14.46242676,8.475684664567793e+101,-7.529189135840202e+100,-1.2964880903488568e+101
14.46720327,8.392821247532355e+101,-7.457387044366683e+100,-1.2846535599514379e+101
14.47197973,8.310755810998613e+101,-7.38628360741024e+100,-1.2729246304648388e+101
14.47675624,8.229481299457556e+101,-7.315871959939717e+100,-1.2613003503530764e+101
14.4815327,8.148990706070764e+101,-7.246145302608631e+100,-1.2497797775981659e+101
14.48630921,8.069277072424159e+101,-7.177096901164582e+100,-1.2383619795858818e+101
14.49108572,7.990333488286665e+101,-7.108720085864766e+100,-1.2270460329923365e+101
14.49586218,7.912153091373763e+101,-7.04100825089753e+100,-1.2158310236714116e+101
14.50063869,7.834729067116033e+101,-6.973954853809849e+100,-1.2047160465430809e+101
14.50541515,7.758054648432757e+101,-6.907553414940624e+100,-1.1937002054826511e+101
14.51019166,7.682123115510595e+101,-6.8417975168597545e+100,-1.1827826132109445e+101
14.51496817,7.606927795587384e+101,-6.776680803812921e+100,-1.1719623911854483e+101
14.51974463,7.532462062741051e+101,-6.712196981171987e+100,-1.1612386694924541e+101
14.52452114,7.458719337683551e+101,-6.6483398148909134e+100,-1.1506105867402104e+101
14.5292976,7.385693087559724e+101,-6.585103130967103e+100,-1.140077289953122e+101
14.5340741,7.313376825750958e+101,-6.522480814908113e+100,-1.1296379344670214e+101
14.53885062,7.24176411168352e+101,-6.460466811203594e+100,-1.1192916838255413e+101
14.54362707,7.170848550641438e+101,-6.399055122802325e+100,-1.10903770967762e+101
14.54840358,7.100623793583758e+101,-6.338239810594225e+100,-1.0988751916761761e+101
14.5531801,7.031083536965942e+101,-6.278014992897236e+100,-1.0888033173779702e+101
14.55795655,6.962221522565134e+101,-6.218374844948913e+100,-1.0788212821446746e+101
14.56273306,6.894031537309041e+101,-6.159313598402601e+100,-1.0689282890451687e+101
14.56750952,6.826507413108219e+101,-6.100825540828026e+100,-1.0591235487590805e+101
14.57228603,6.759643026691554e+101,-6.042905015216162e+100,-1.0494062794815995e+101
14.57706249,6.693432299444797e+101,-5.985546419488186e+100,-1.039775706829583e+101
14.581839,6.62786919725199e+101,-5.928744206008358e+100,-1.0302310637489753e+101
14.58661551,6.562947730339721e+101,-5.87249288110065e+100,-1.0207715904235595e+101
14.59139197,6.498661953124034e+101,-5.8167870045689755e+100,-1.0113965341850547e+101
14.59616848,6.435005964059852e+101,-5.7616211892208195e+100,-1.0021051494245703e+101
14.60094499,6.371973905492732e+101,-5.706990100394113e+100,-9.92896697505425e+100
14.60572145,6.309559963512763e+101,-5.6528884554871976e+100,-9.837704466773338e+100
14.61049796,6.247758367810384e+101,-5.59931102349181e+100,-9.74725671991959e+100
14.61527442,6.186563391533928e+101,-5.54625262452901e+100,-9.657616552198231e+100
14.62005093,6.125969351148689e+101,-5.493708129387975e+100,-9.56877684768582e+100
14.62482744,6.065970606297289e+101,-5.441672459067581e+100,-9.480730556026467e+100
14.6296039,6.006561559661119e+101,-5.39014058432073e+100,-9.39347069164142e+100
14.63438041,5.947736656822631e+101,-5.3391075252013914e+100,-9.306990332951757e+100
14.63915687,5.88949038612827e+101,-5.2885683506143684e+100,-9.221282621614061e+100
14.64393338,5.831817278551782e+101,-5.23851817786782e+100,-9.136340761768935e+100
14.64870989,5.774711907557706e+101,-5.188952172228583e+100,-9.052158019302155e+100
14.65348635,5.718168888964786e+101,-5.139865546480228e+100,-8.968727721118402e+100
14.65826286,5.66218288080915e+101,-5.091253560483878e+100,-8.886043254427484e+100
14.66303931,5.606748583207074e+101,-5.043111520741742e+100,-8.804098066043039e+100
14.66781582,5.551860738217146e+101,-4.995434779963344e+100,-8.722885661693556e+100
14.67259233,5.4975141297017007e+101,-4.948218736634455e+100,-8.642399605345628e+100
14.67736879,5.4437035831873615e+101,-4.9014588345887515e+100,-8.562633518539293e+100
14.6821453,5.390423965724562e+101,-4.855150562582233e+100,-8.48358107973525e+100
14.68692176,5.337670185745973e+101,-4.809289453870451e+100,-8.405236023673753e+100
14.69169827,5.285437192923779e+101,-4.763871085788574e+100,-8.327592140745057e+100
14.69647478,5.233719978025739e+101,-4.718891079334319e+100,-8.25064327637134e+100
14.70125124,5.1825135727699546e+101,-4.674345098753746e+100,-8.174383330400083e+100
14.70602775,5.131813049678316e+101,-4.630228851129919e+100,-8.098806256508746e+100
14.71080426,5.0816135219285764e+101,-4.5865380859744385e+100,-8.023906061620555e+100
14.71558072,5.031910143204957e+101,-4.543268594821847e+100,-7.949676805331232e+100
14.72035723,4.982698107547224e+101,-4.5004162108269346e+100,-7.876112599346526e+100
14.72513369,4.9339726491981455e+101,-4.4579768083649494e+100,-7.803207606930421e+100
14.7299102,4.8857290424492694e+101,-4.415946302634699e+100,-7.730956042363907e+100
14.73468666,4.837962601484912e+101,-4.374320649264599e+100,-7.659352170414193e+100
14.73946317,4.790668680224277e+101,-4.3330958439216875e+100,-7.588390305814203e+100
14.74423968,4.7438426721615936e+101,-4.2922679219236326e+100,-7.51806481275219e+100
14.74901614,4.6974800102041643e+101,-4.251832957853756e+100,-7.448370104371214e+100
14.75379265,4.651576166508222e+101,-4.211787065179125e+100,-7.379300642278335e+100
14.75856916,4.606126652312473e+101,-4.172126395871759e+100,-7.310850936063355e+100
14.76334562,4.561127017769229e+101,-4.1328471400329606e+100,-7.243015542826956e+100
14.76812213,4.516572851773036e+101,-4.09394552552078e+100,-7.175789066718138e+100
14.77289858,4.4724597817866834e+101,-4.055417817580642e+100,-7.109166158480801e+100
14.7776751,4.4287834736644847e+101,-4.017260318479162e+100,-7.043141515009234e+100
14.7824516,4.3855396314727825e+101,-3.9794693671411405e+100,-6.97770987891232e+100
14.78722806,4.3427239973076456e+101,-3.942041338789778e+100,-6.912866038086212e+100
14.79200457,4.3003323511097156e+101,-3.904972644590117e+100,-6.848604825295295e+100
14.79678103,4.258360510476198e+101,-3.868259731295737e+100,-6.784921117761188e+100
14.80155754,4.216804330470026e+101,-3.831899080898746e+100,-6.721809836759613e+100
14.80633405,4.175659703426216e+101,-3.795887210283115e+100,-6.659265947224928e+100
14.81111051,4.13492255875545e+101,-3.760220670881381e+100,-6.597284457362134e+100
14.81588702,4.0945888627449343e+101,-3.724896048334721e+100,-6.535860418266149e+100
14.82066348,4.054654618356563e+101,-3.6899099621564015e+100,-6.474988923548108e+100
14.82543999,4.015115865022437e+101,-3.6552590653986074e+100,-6.414665108968506e+100
14.8302165,3.975968678437804e+101,-3.62094004432265e+100,-6.354884152076929e+100
14.83499296,3.937209170351486e+101,-3.586949618072531e+100,-6.295641271858205e+100
14.83976947,3.898833488353848e+101,-3.553284538351846e+100,-6.236931728384724e+100
14.84454598,3.860837815662393e+101,-3.5199415891040246e+100,-6.178750822474732e+100
14.84932244,3.823218370905047e+101,-3.4869175861958462e+100,-6.121093895356319e+100
14.85409895,3.7859714079011894e+101,-3.4542093771041896e+100,-6.063956328336817e+100
14.85887541,3.749093215440497e+101,-3.421813840605916e+100,-6.007333542477383e+100
14.86365192,3.712580117059702e+101,-3.3897278864708537e+100,-5.951220998272518e+100
14.86842838,3.6764284708173666e+101,-3.35794845515782e+100,-5.895614195334273e+100
14.87320489,3.640634669066794e+101,-3.3264725175136372e+100,-5.840508672080899e+100
14.8779814,3.6051951382271564e+101,-3.295297074475113e+100,-5.785900005429664e+100
14.88275786,3.5701063385529244e+101,-3.264419156773948e+100,-5.731783810493602e+100
14.88753437,3.5353647639016645e+101,-3.2338358246445315e+100,-5.6781557402818976e+100
14.89231082,3.500966941500298e+101,-3.2035441675346e+100,-5.625011485403584e+100
14.89708733,3.4669094317099315e+101,-3.1735413038187332e+100,-5.572346773774266e+100
14.90186385,3.43318882778939e+101,-3.1438243805146665e+100,-5.520157370325592e+100
14.9066403,3.399801755657572e+101,-3.1143905730023947e+100,-5.468439076717238e+100
14.91141681,3.3667448736547104e+101,-3.085237084746042e+100,-5.417187731051194e+100
14.91619327,3.3340148723026587e+101,-3.056361147018447e+100,-5.36639920758811e+100
14.92096978,3.301608474064321e+101,-3.0277600186284184e+100,-5.316069416465524e+100
14.92574629,3.269522433102393e+101,-2.999430985650624e+100,-5.266194303417773e+100
14.93052275,3.237753535037562e+101,-2.971371361158082e+100,-5.216769849497454e+100
14.93529926,3.206298596706332e+101,-2.943578484957238e+100,-5.167792070798264e+100
14.94007577,3.1751544659185975e+101,-2.9160497233255957e+100,-5.119257018179022e+100
14.94485223,3.1443180212150734e+101,-2.8887824687518907e+100,-5.071160776988737e+100
14.94962874,3.1137861716246624e+101,-2.8617741396787934e+100,-5.023499466792548e+100
14.9544052,3.0835558564218254e+101,-2.835022180248137e+100,-4.976269241098432e+100
14.95918171,3.0536240448840067e+101,-2.8085240600486845e+100,-4.929466287084582e+100
14.96395822,3.0239877360491594e+101,-2.7822772738664348e+100,-4.88308682532737e+100
14.96873468,2.9946439584734146e+101,-2.7562793414374907e+100,-4.837127109529904e+100
14.97351119,2.965589769988935e+101,-2.730527807203497e+100,-4.7915834262511794e+100
14.97828765,2.936822257461972e+101,-2.7050202400696647e+100,-4.7464520946358856e+100
14.98306416,2.9083385365511566e+101,-2.679754233165378e+100,-4.701729466144882e+100
14.98784067,2.880135751466063e+101,-2.6547274036073854e+100,-4.6574119242863326e+100
14.99261713,2.8522110747260835e+101,-2.6299373922655716e+100,-4.6134958843474795e+100
14.99739364,2.8245617069196325e+101,-2.6053818635313055e+100,-4.569977793127091e+100
15.0021701,2.797184876463717e+101,-2.5810585050883537e+100,-4.52685412866861e+100
15.00694661,2.770077839363922e+101,-2.556965027686378e+100,-4.484121399994053e+100
15.01172312,2.7432378789748794e+101,-2.533099164917016e+100,-4.4417761468387295e+100
15.01649957,2.716662305761274e+101,-2.509458672992531e+100,-4.3998149393868416e+100
15.02127608,2.6903484570594645e+101,-2.486041330527e+100,-4.358234378008074e+100
15.02605254,2.6642936968397605e+101,-2.4628449383200273e+100,-4.3170310929952486e+100
15.03082905,2.6384954154694445e+101,-2.4398673191429823e+100,-4.276201744303111e+100
15.03560556,2.612951029476615e+101,-2.4171063175277436e+100,-4.235743021288363e+100
15.04038202,2.5876579813149406e+101,-2.3945597995579283e+100,-4.1956516424510206e+100
15.04515853,2.5626137391294122e+101,-2.3722256526625932e+100,-4.155924355177182e+100
15.04993504,2.5378157965231693e+101,-2.350101785412379e+100,-4.116557935483322e+100
15.0547115,2.513261672325453e+101,-2.328186127318072e+100,-4.077549187762253e+100
15.05948801,2.4889489103607546e+101,-2.3064766286315703e+100,-4.038894944530889e+100
15.06426447,2.4648750792192124e+101,-2.2849712601492287e+100,-4.000592066179917e+100
15.06904098,2.441037772028334e+101,-2.263668013017555e+100,-3.9626374407254856e+100
15.07381744,2.417434606226105e+101,-2.2425648985412213e+100,-3.92502798356299e+100
15.07859395,2.394063223335552e+101,-2.2216599479933447e+100,-3.887760637223045e+100
15.08337046,2.3709212887408346e+101,-2.200951212427962e+100,-3.850832371129682e+100
15.08814692,2.3480064914649313e+101,-2.1804367624946217e+100,-3.8142401813608495e+100
15.09292343,2.3253165439489828e+101,-2.1601146882550267e+100,-3.777981090411236e+100
15.09769989,2.3028491818333663e+101,-2.1399830990016734e+100,-3.742052146957484e+100
15.1024764,2.2806021637405566e+101,-2.1200401230784357e+100,-3.7064504256258426e+100
15.10725291,2.2585732710598296e+101,-2.100283907703043e+100,-3.671173026762328e+100
15.11202937,2.2367603077338315e+101,-2.0807126187913812e+100,-3.636217076205471e+100
15.11680588,2.2151611000470094e+101,-2.0613244407835455e+100,-3.601579725061748e+100
15.12158233,2.193773496415901e+101,-2.0421175764715638e+100,-3.567258149483762e+100
15.12635884,2.1725953671812623e+101,-2.0230902468287065e+100,-3.533249550451261e+100
15.13113536,2.1516246044020075e+101,-2.0042406908403187e+100,-3.49955115355499e+100
15.13591181,2.1308591216509085e+101,-1.9855671653361322e+100,-3.4661602087834112e+100
15.14068832,2.1102968538120224e+101,-1.9670679448240196e+100,-3.4330739903122763e+100
15.14546478,2.0899357568798128e+101,-1.9487413213251658e+100,-3.4002897962970574e+100
15.15024129,2.0697738077599423e+101,-1.9305856042106384e+100,-3.3678049486681964e+100
15.1550178,2.0498090040716906e+101,-1.912599120039338e+100,-3.3356167929291475e+100
15.15979426,2.030039363951962e+101,-1.8947802123973223e+100,-3.303722697957147e+100
15.16457077,2.0104629258608648e+101,-1.877127241738498e+100,-3.2721200558066206e+100
15.16934723,1.991077748388843e+101,-1.8596385852266706e+100,-3.240806281515154e+100
15.17412374,1.9718819100653508e+101,-1.8423126365789444e+100,-3.209778812911966e+100
15.17890025,1.9528735091690492e+101,-1.8251478059104543e+100,-3.1790351104288344e+100
15.18367671,1.934050663539524e+101,-1.808142519580407e+100,-3.148572656913386e+100
15.18845322,1.915411510390517e+101,-1.7912952200394186e+100,-3.1183889574446534e+100
15.19322968,1.8969542061246596e+101,-1.7746043656781356e+100,-3.088481539150794e+100
15.19800619,1.878676926149708e+101,-1.758068430677144e+100,-3.058847951028861e+100
15.2027827,1.8605778646962998e+101,-1.7416859048581552e+100,-3.029485763766529e+100
15.20755916,1.8426552346372544e+101,-1.7254552935364448e+100,-3.000392569565655e+100
15.21233567,1.824907267308429e+101,-1.7093751173745252e+100,-2.9715659819675784e+100
15.21711213,1.8073322123311295e+101,-1.693443912237017e+100,-2.94300363568002e+100
15.22188864,1.789928337436074e+101,-1.677660229046682e+100,-2.9147031864054676e+100
15.22666515,1.7726939282888956e+101,-1.6620226336415838e+100,-2.8866623106709535e+100
15.2314416,1.7556272883171868e+101,-1.6465297066333337e+100,-2.8588787056591335e+100
15.23621812,1.7387267385390842e+101,-1.6311800432663951e+100,-2.831350089040569e+100
15.24099457,1.721990617393373e+101,-1.6159722532784132e+100,-2.8040741988071198e+100
15.24577108,1.7054172805710783e+101,-1.6009049607615458e+100,-2.77704879310638e+100
15.2505476,1.6890051008485216e+101,-1.5859768040247821e+100,-2.750271650077091e+100
15.25532405,1.672752467921806e+101,-1.5711864354572386e+100,-2.723740567685482e+100
15.26010056,1.6566577882427006e+101,-1.5565325213924265e+100,-2.6974533635624873e+100
15.26487702,1.6407194848558872e+101,-1.5420137419734882e+100,-2.6714078748417864e+100
15.26965353,1.624935997237531e+101,-1.527628791019388e+100,-2.645601957998612e+100
15.27443004,1.6093057811351118e+101,-1.5133763758920347e+100,-2.6200334886892823e+100
15.2792065,1.5938273084084794e+101,-1.4992552173643066e+100,-2.5947003615913965e+100
15.28398301,1.5784990668720807e+101,-1.4852640494889503e+100,-2.569600490244647e+100
15.28875947,1.5633195601383176e+101,-1.4714016194683287e+100,-2.544731806892232e+100
15.29353598,1.5482873074620042e+101,-1.4576666875249884e+100,-2.5200922623228824e+100
15.29831249,1.5334008435858905e+101,-1.4440580267730205e+100,-2.4956798257135003e+100
15.30308895,1.5186587185872264e+101,-1.4305744230901957e+100,-2.4714924844724013e+100
15.30786546,1.5040594977253338e+101,-1.417214674990861e+100,-2.447528244083139e+100
15.31264192,1.489601761290145e+101,-1.4039775934995866e+100,-2.4237851279489137e+100
15.31741843,1.475284104451665e+101,-1.3908620020255537e+100,-2.4002611772375826e+100
15.32219494,1.461105137110307e+101,-1.3778667362376853e+100,-2.376954450727284e+100
15.3269714,1.4470634837480546e+101,-1.3649906439405317e+100,-2.353863024652711e+100
15.33174791,1.4331577832803967e+101,-1.3522325849509232e+100,-2.3309849925520613e+100
15.33652437,1.4193866889089898e+101,-1.3395914309754083e+100,-2.308318465114713e+100
15.34130088,1.4057488679749966e+101,-1.3270660654884836e+100,-2.28586157002968e+100
15.34607733,1.3922430018130697e+101,-1.314655383611622e+100,-2.2636124518349e+100
15.35085385,1.37886778560595e+101,-1.3023582919931052e+100,-2.2415692717673638e+100
15.35563036,1.3656219282396656e+101,-1.2901737086886659e+100,-2.219730207614107e+100
15.36040681,1.352504152159307e+101,-1.2781005630429511e+100,-2.198093453564053e+100
15.36518332,1.3395131932253676e+101,-1.2661377955718166e+100,-2.1766572200607253e+100
15.36995983,1.3266478005706433e+101,-1.2542843578454711e+100,-2.155419733655856e+100
15.37473629,1.313906736457705e+101,-1.2425392123724826e+100,-2.1343792368639054e+100
15.3795128,1.3012887761369485e+101,-1.2309013324846535e+100,-2.113533988017497e+100
15.38428926,1.2887927077052355e+101,-1.2193697022227906e+100,-2.0928822611237888e+100
15.38906577,1.2764173319651463e+101,-1.2079433162233926e+100,-2.072422345721773e+100
15.39384228,1.2641614622848503e+101,-1.1966211796062901e+100,-2.0521525467405255e+100
15.39861874,1.25202392445861e+101,-1.1854023078632645e+100,-2.0320711843584078e+100
15.40339525,1.2400035565679391e+101,-1.1742857267476722e+100,-2.0121765938632414e+100
15.40817171,1.2280992088434319e+101,-1.163270472165088e+100,-1.9924671255134525e+100
15.41294822,1.2163097435272933e+101,-1.1523555900649908e+100,-1.9729411444001915e+100
15.41772473,1.2046340347366e+101,-1.1415401363335162e+100,-1.9535970303104174e+100
15.42250119,1.1930709683273257e+101,-1.1308231766872827e+100,-1.9344331775909263e+100
15.4272777,1.1816194417591692e+101,-1.1202037865682944e+100,-1.915447995013328e+100
15.43205416,1.1702783639612132e+101,-1.1096810510399201e+100,-1.8966399056399867e+100
15.43683067,1.1590466551984479e+101,-1.0992540646839301e+100,-1.8780073466909276e+100
15.44160718,1.1479232469391921e+101,-1.0889219314985853e+100,-1.8595487694117136e+100
15.44638364,1.1369070817234483e+101,-1.0786837647977834e+100,-1.8412626389422892e+100
15.45116015,1.125997113032229e+101,-1.068538687111272e+100,-1.823147434186784e+100
15.45593661,1.1151923051578907e+101,-1.058485830085948e+100,-1.8052016476842772e+100
15.46071312,1.1044916330755026e+101,-1.0485243343882427e+100,-1.787423785480522e+100
15.46548957,1.0938940823152877e+101,-1.03865334960758e+100,-1.769812367000635e+100
15.47026608,1.0833986488361595e+101,-1.0288720341608849e+100,-1.752365924922736e+100
15.4750426,1.0730043389003878e+101,-1.0191795551981362e+100,-1.7350830050525391e+100
15.47981905,1.0627101689494281e+101,-1.0095750885089456e+100,-1.7179621661988917e+100
15.48459556,1.052515165480949e+101,-1.000057818430144e+100,-1.7010019800502607e+100
15.48937202,1.0424183649270932e+101,-9.906269377543584e+99,-1.6842010310521628e+100
15.49414853,1.0324188135340147e+101,-9.81281647639559e+99,-1.6675579162855331e+100
15.49892504,1.0225155672427316e+101,-9.720211575195636e+99,-1.6510712453460186e+100
15.5037015,1.012707691571331e+101,-9.628446850154762e+99,-1.6347396402241682e+100
15.50847801,1.0029942614985572e+101,-9.537514558480369e+99,-1.6185617351865074e+100
15.51325447,9.933743613488167e+100,-9.44740703750855e+99,-1.6025361766574984e+100
15.51803098,9.838470846786329e+100,-9.358116703844987e+99,-1.5866616231023898e+100
15.52280749,9.74411534164582e+100,-9.269636052514198e+99,-1.5709367449109559e+100
15.52758395,9.650668214927272e+100,-9.181957656116872e+99,-1.5553602242821118e+100
15.53236046,9.558120672495683e+100,-9.095074163995169e+99,-1.5399307551093952e+100
15.53713692,9.466464008145293e+100,-9.008978301405696e+99,-1.5246470428673067e+100
15.54191343,9.375689602539963e+100,-8.92366286870003e+99,-1.5095078044984994e+100
15.54668994,9.285788922169174e+100,-8.839120740512597e+99,-1.494511768301811e+100
15.5514664,9.196753518319677e+100,-8.755344864955737e+99,-1.4796576738211271e+100
15.55624291,9.108575026062911e+100,-8.672328262821784e+99,-1.4649442717350502e+100
15.56101937,9.021245163258363e+100,-8.590064026791989e+99,-1.4503703237473683e+100
15.56579588,8.934755729572977e+100,-8.508545320652224e+99,-1.435934602478315e+100
15.57057239,8.849098605516686e+100,-8.427765378515275e+99,-1.421635891356624e+100
15.57534884,8.764265751494051e+100,-8.347717504049532e+99,-1.4074729845123755e+100
15.58012536,8.680249206871945e+100,-8.268395069713881e+99,-1.3934446866706244e+100
15.58490181,8.597041089063171e+100,-8.189791515998595e+99,-1.379549813045796e+100
15.58967832,8.514633592625922e+100,-8.1119003506720585e+99,-1.3657871892368573e+100
15.59445483,8.433018988378966e+100,-8.034715148033232e+99,-1.352155651123276e+100
15.59923129,8.352189622532478e+100,-7.958229548169704e+99,-1.3386540447617755e+100
15.6040078,8.27213791583437e+100,-7.882437256221164e+99,-1.3252812262838904e+100
15.60878426,8.19285636273198e+100,-7.807332041648178e+99,-1.3120360617943294e+100
15.61356077,8.114337530548872e+100,-7.732907737506184e+99,-1.2989174272701494e+100
15.61833723,8.036574058676434e+100,-7.659158239724648e+99,-1.2859242084607435e+100
15.62311374,7.959558657779869e+100,-7.586077506391324e+99,-1.2730553007886547e+100
15.62789025,7.883284109018268e+100,-7.513659557041585e+99,-1.2603096092512178e+100
15.63266671,7.807743263278429e+100,-7.441898471952823e+99,-1.2476860483230217e+100
15.63744322,7.732929040422061e+100,-7.370788391443968e+99,-1.2351835418591958e+100
15.64221968,7.658834428546074e+100,-7.300323515180162e+99,-1.2228010229995152e+100
15.64699619,7.585452483255535e+100,-7.230498101482582e+99,-1.21053743407332e+100
15.6517727,7.512776326948922e+100,-7.1613064666434335e+99,-1.1983917265052418e+100
15.65654916,7.440799148115226e+100,-7.092742984246098e+99,-1.1863628607217379e+100
15.66132567,7.369514200642552e+100,-7.024802084490511e+99,-1.1744498060584273e+100
15.66610218,7.298914803137828e+100,-6.957478253523823e+99,-1.1626515406682277e+100
15.67087864,7.22899433825731e+100,-6.890766032776459e+99,-1.1509670514302907e+100
15.67565515,7.159746252047537e+100,-6.824660018303671e+99,-1.1393953338597285e+100
15.6804316,7.091164053296471e+100,-6.759154860132709e+99,-1.1279353920181328e+100
15.68520812,7.023241312894494e+100,-6.694245261615714e+99,-1.1165862384248899e+100
15.68998457,6.955971663204971e+100,-6.629925978788431e+99,-1.1053468939692987e+100
15.69476108,6.889348797444055e+100,-6.566191819734816e+99,-1.0942163878234896e+100
15.6995376,6.823366469069459e+100,-6.503037643957625e+99,-1.0831937573561515e+100
15.70431405,6.75801849117796e+100,-6.440458361755066e+99,-1.0722780480470694e+100
15.70909056,6.693298735911465e+100,-6.378448933603587e+99,-1.0614683134024776e+100
15.71386702,6.629201133871413e+100,-6.317004369546875e+99,-1.0507636148712228e+100
15.71864353,6.565719673541316e+100,-6.256119728591111e+99,-1.040163021761744e+100
15.72342004,6.5028484007172464e+100,-6.195790118106452e+99,-1.0296656111598713e+100
15.7281965,6.440581417946167e+100,-6.136010693234704e+99,-1.0192704678474574e+100
15.73297301,6.3789128839720395e+100,-6.076776656303128e+99,-1.0089766842218611e+100
15.73774947,6.3178370131896674e+100,-6.018083256244282e+99,-9.987833602163071e+99
15.74252598,6.257348075106203e+100,-5.959925788021808e+99,-9.886896032211413e+99
15.7473126,6.197440393810209e+100,-5.902299592062117e+99,-9.786945280059915e+99
15.75207895,6.138108347448167e+100,-5.845200053691886e+99,-9.68797256642843e+99
15.75685546,6.0793463677083136e+100,-5.788622602581404e+99,-9.589969184300313e+99
15.76163192,6.021148939311684e+100,-5.732562712193687e+99,-9.492926498171628e+99
15.76640843,5.963510599510174e+100,-5.677015899239369e+99,-9.396835943309659e+99
15.77118494,5.906425937591511e+100,-5.62197772313737e+99,-9.301689025020845e+99
15.7759614,5.849889594391031e+100,-5.567443785481331e+99,-9.20747731792824e+99
15.78073791,5.793896261810128e+100,-5.513409729511835e+99,-9.114192465258617e+99
15.78551437,5.7384406823412306e+100,-5.459871239594398e+99,-9.021826178139383e+99
15.79029088,5.683517648599189e+100,-5.406824040703233e+99,-8.930370234905455e+99
15.79506733,5.6291220028589726e+100,-5.354263897910759e+99,-8.839816480416276e+99
15.79984385,5.575248636599513e+100,-5.302186615882864e+99,-8.750156825383028e+99
15.80462036,5.521892490053513e+100,-5.250588038379934e+99,-8.661383245706142e+99
15.80939681,5.469048551763032e+100,-5.199464047763733e+99,-8.573487781823132e+99
15.81417332,5.4167118581406445e+100,-5.148810564510183e+99,-8.486462538066865e+99
15.81894978,5.364877493035989e+100,-5.09862354672811e+99,-8.40029968203422e+99
15.82372629,5.313540587307511e+100,-5.048898989683997e+99,-8.31499144396507e+99
