"Time (s)","Acceleration x (m/s^2)","Acceleration y (m/s^2)","Acceleration z (m/s^2)"
5.252673000E-3,-2.540579557E0,5.474180222E0,7.386045456E0
1.002887100E-2,-2.666800737E0,5.468796253E0,7.732406139E0
1.480506900E-2,-2.464607239E0,5.455037594E0,8.163114548E0
1.956798500E-2,-2.176272154E0,5.435894966E0,8.689535141E0
2.435746400E-2,-2.072782516E0,5.431109428E0,9.230911255E0
2.913366200E-2,-2.188834429E0,5.401797295E0,9.702297211E0
3.389657900E-2,-2.477169752E0,5.362315655E0,1.001097202E1
3.868605800E-2,-2.852244616E0,5.298905849E0,1.012821960E1
4.346230800E-2,-3.261417150E0,5.283352375E0,1.004865837E1
4.823850600E-2,-3.628715515E0,5.297111034E0,9.863214493E0
5.301470400E-2,-3.939782381E0,5.320441246E0,9.649057388E0
5.779085000E-2,-4.170091629E0,5.387440205E0,9.404989243E0
6.256710000E-2,-4.304687977E0,5.444868088E0,9.165707588E0
6.734329800E-2,-4.316053867E0,5.435296535E0,8.907281876E0
7.211949600E-2,-3.997210264E0,5.383252621E0,8.848059654E0
7.689569400E-2,-3.409772158E0,5.312664509E0,9.113663673E0
8.167189200E-2,-2.769093990E0,5.222335339E0,9.652647018E0
8.644808900E-2,-2.317448616E0,4.982454777E0,1.022632599E1
9.121095400E-2,-1.951945066E0,4.660620213E0,1.076710415E1
9.600048500E-2,-1.585843205E0,4.299304008E0,1.132642555E1
1.007766830E-1,-1.341775298E0,3.847060680E0,1.200239849E1
1.055395480E-1,-1.211964726E0,3.360719442E0,1.275075340E1
1.103290790E-1,-1.106680512E0,2.931207657E0,1.345125294E1
1.151052770E-1,-1.006780148E0,2.502892494E0,1.402253914E1
1.198681420E-1,-8.835497499E-1,2.093121529E0,1.448255920E1
1.246576730E-1,-7.280163169E-1,1.765903115E0,1.490848160E1
1.294338710E-1,-6.065805554E-1,1.496112347E0,1.514417458E1
1.341967350E-1,-6.622136831E-1,1.260419369E0,1.526441383E1
1.389862670E-1,-8.662018180E-1,1.153938770E0,1.532782364E1
1.437624640E-1,-9.044869542E-1,1.596610904E0,1.552882099E1
1.485253290E-1,-1.152144074E0,1.572084427E0,1.542951870E1
1.533148600E-1,-8.177471161E-1,1.303490162E0,1.478943825E1
1.580910580E-1,-7.603194118E-1,9.900303483E-1,1.383889008E1
1.628672560E-1,-1.807179332E0,9.828519225E-1,1.384487152E1
1.676434540E-1,-2.444866419E0,1.275972724E0,1.392443275E1
1.724196520E-1,-2.510071039E0,1.381855130E0,1.335374451E1
1.771958500E-1,-2.191825628E0,1.392622828E0,1.260359478E1
1.819720480E-1,-1.767099500E0,1.456032634E0,1.210229874E1
1.867482460E-1,-1.444666624E0,1.423729420E0,1.175055408E1
1.915111620E-1,-1.204786181E0,1.299302697E0,1.133659554E1
1.963006420E-1,-9.738788009E-1,1.208375454E0,1.089870930E1
2.010768390E-1,-7.531409264E-1,1.088734269E0,1.040279675E1
2.058397560E-1,-4.127618968E-1,9.445667267E-1,9.907482147E0
2.106292350E-1,-8.075776696E-1,1.661815286E0,9.582656860E0
2.154054330E-1,-6.735795736E-1,2.134397745E0,9.163912773E0
2.201683500E-1,2.003988922E-1,1.722832322E0,8.718249321E0
2.249578290E-1,1.256231904E0,1.152144074E0,8.347960472E0
2.297340270E-1,2.173281193E0,7.884350419E-1,7.921439171E0
2.344969440E-1,3.119044304E0,8.871390224E-1,7.743772507E0
2.392864230E-1,3.277568817E0,6.897311211E-1,7.954340458E0
2.440626210E-1,3.047857761E0,4.145565331E-1,8.353343964E0
2.488255370E-1,3.084348440E0,3.134597540E-1,8.022536278E0
2.536150170E-1,3.153740168E0,3.720839322E-1,6.903891563E0
2.583912140E-1,3.265006542E0,5.461617708E-1,5.770890236E0
2.631541310E-1,3.036491871E0,7.148557901E-1,5.028516769E0
2.679436100E-1,2.395813704E0,7.902296782E-1,4.570291042E0
2.727198080E-1,1.552343726E0,7.884350419E-1,4.435695171E0
2.774827250E-1,7.351947427E-1,7.716853023E-1,4.483551502E0
2.822722040E-1,1.166501045E-1,7.076773047E-1,4.491328239E0
2.870484020E-1,-2.477767944E0,5.958128572E-1,3.415156126E0
2.918113190E-1,-5.888138294E0,6.891329288E-1,2.795415163E0
2.966008500E-1,-5.415555954E0,2.566302419E-1,2.869592667E0
3.013770480E-1,-3.702893019E0,-3.655036688E-1,2.525026083E0
3.061399120E-1,-1.792822361E0,-9.284151793E-1,1.887338877E0
3.109294440E-1,3.050848842E-1,-1.265803218E0,1.665404558E0
3.157056420E-1,1.933400750E0,-1.232901812E0,1.771885157E0
3.204685060E-1,3.068794966E0,-9.020941257E-1,1.718046665E0
3.252580370E-1,3.830909014E0,-4.235295951E-1,1.338784218E0
3.300342350E-1,4.141377926E0,6.400800496E-2,9.385846853E-1
3.347971000E-1,4.039084435E0,4.444667995E-1,9.056833982E-1
3.395866310E-1,3.760320902E0,6.891329288E-1,1.304686546E0
3.443628290E-1,3.477967739E0,6.735795736E-1,1.767697692E0
3.491256940E-1,3.337987661E0,4.660021961E-1,2.118246317E0
3.539152250E-1,3.278765202E0,1.531406492E-1,2.344367981E0
3.586914230E-1,3.332603693E0,-1.172483116E-1,2.425724030E0
3.634676210E-1,3.203391314E0,-3.098705411E-1,2.191825628E0
3.682438190E-1,3.030509949E0,-4.546363056E-1,1.880758643E0
3.730200170E-1,2.824128866E0,-5.946164131E-1,1.560120344E0
3.777962140E-1,2.679363251E0,-7.058826685E-1,1.172483087E0
3.825724120E-1,2.464009047E0,-8.165507317E-1,9.050851464E-1
3.873486100E-1,2.487937450E0,-1.100698471E0,7.950153351E-1
3.921248080E-1,2.703291416E0,-1.457229018E0,7.890332937E-1
3.969010060E-1,2.857030153E0,-1.770090580E0,9.038887620E-1
4.016772040E-1,2.782852650E0,-2.020738840E0,1.119840980E0
4.064400690E-1,2.490330219E0,-2.281556368E0,1.347159147E0
4.112296000E-1,2.093719721E0,-2.663211584E0,1.618146300E0
4.160057980E-1,1.964507341E0,-3.121437073E0,1.984248161E0
4.207687140E-1,2.248655081E0,-3.511467218E0,2.366501570E0
4.255581940E-1,2.864806890E0,-3.774677753E0,2.694916487E0
4.303343920E-1,3.567100286E0,-4.095914364E0,2.927020311E0
4.350973080E-1,4.306482315E0,-4.262813568E0,3.119642496E0
4.398867870E-1,4.977669239E0,-4.304687977E0,3.226721287E0
4.446629850E-1,5.412564754E0,-4.246063709E0,3.531208038E0
4.494259020E-1,5.562116146E0,-4.188037872E0,3.933800459E0
4.542153810E-1,5.635097504E0,-4.096512318E0,4.259822369E0
4.589915790E-1,5.949753284E0,-4.153341770E0,4.310669899E0
4.637544960E-1,6.481558323E0,-4.296313286E0,4.006183147E0
4.685439750E-1,6.929614544E0,-4.328616142E0,3.370290756E0
4.733201730E-1,7.047461033E0,-4.289732933E0,2.476571321E0
4.780830890E-1,6.894918442E0,-4.313661098E0,1.589432478E0
4.828725690E-1,6.991229534E0,-4.510470867E0,8.889335990E-1
4.876487670E-1,7.431509018E0,-4.784449100E0,3.726821244E-1
4.924116830E-1,8.072187424E0,-5.057230473E0,6.281159073E-2
4.972011620E-1,8.739784241E0,-5.257629395E0,7.417750359E-2
5.019774120E-1,9.479166985E0,-5.482554913E0,3.529413342E-1
5.067402770E-1,1.030469036E1,-5.634499073E0,7.094719410E-1
5.115298080E-1,1.081735325E1,-5.633302689E0,1.205384374E0
5.163059540E-1,1.104945660E1,-5.584847927E0,1.857428551E0
5.210688710E-1,1.134915733E1,-5.632704735E0,2.637488842E0
5.258584020E-1,1.187737370E1,-5.796014786E0,3.436691523E0
5.306346000E-1,1.244387436E1,-6.002395630E0,4.106083870E0
5.353974640E-1,1.285185051E1,-6.194419384E0,4.631308079E0
5.401869960E-1,1.295354557E1,-6.275775433E0,4.909473896E0
5.449631940E-1,1.271067429E1,-6.238088608E0,4.886143684E0
5.497260580E-1,1.256231880E1,-6.079564095E0,4.791028976E0
5.545155890E-1,1.315274811E1,-6.284748554E0,4.668396950E0
5.592917870E-1,1.396570969E1,-5.854638577E0,4.903491974E0
5.640546520E-1,1.464168167E1,-5.794818401E0,4.957928658E0
5.688441830E-1,1.524108410E1,-6.308676720E0,4.715056896E0
5.736203810E-1,1.596551132E1,-6.870990276E0,4.558327198E0
5.783832460E-1,1.650808334E1,-7.345965385E0,4.368695736E0
5.831727770E-1,1.657867241E1,-7.697112083E0,3.989433527E0
5.879489750E-1,1.643988800E1,-8.131409645E0,3.635295868E0
5.927118390E-1,1.635793304E1,-8.507082939E0,3.376870871E0
5.975013710E-1,1.637707710E1,-8.733204842E0,3.256631613E0
6.022775690E-1,1.647338676E1,-8.872586250E0,3.251846075E0
6.070404330E-1,1.644586945E1,-8.868398666E0,3.405584812E0
6.118299640E-1,1.638006783E1,-8.796015739E0,3.712464333E0
6.166061620E-1,1.635374641E1,-8.777471542E0,4.101896286E0
6.213823600E-1,1.656670761E1,-8.849256516E0,4.570889473E0
6.261585580E-1,1.715594101E1,-9.050253868E0,5.163113117E0
6.309347560E-1,1.787378693E1,-9.179466248E0,5.783452511E0
6.356976730E-1,1.841396713E1,-9.091529846E0,6.332605362E0
6.404871520E-1,1.865863228E1,-8.772686005E0,6.690930367E0
6.452633500E-1,1.868196297E1,-8.455039024E0,6.820142746E0
6.500262670E-1,1.872862244E1,-8.276773453E0,6.747759819E0
6.548157460E-1,1.874656868E1,-8.262416840E0,6.622735023E0
6.595919440E-1,1.866102600E1,-8.295916557E0,6.561119556E0
6.643681420E-1,1.862214279E1,-8.330014229E0,6.513263226E0
6.691443390E-1,1.865504265E1,-8.305487633E0,6.373881340E0
6.739205370E-1,1.865324974E1,-8.228319168E0,6.104688644E0
6.786967350E-1,1.847976875E1,-8.175676346E0,5.870192051E0
6.834729330E-1,1.814178276E1,-8.191229820E0,5.757131100E0
6.882491310E-1,1.792224121E1,-8.239685059E0,5.667400360E0
6.930253290E-1,1.813460541E1,-8.243872643E0,5.344967365E0
6.978015270E-1,1.844746590E1,-7.799405575E0,4.675575256E0
7.025777250E-1,1.848275948E1,-7.539186001E0,4.377668858E0
7.073406420E-1,1.829611969E1,-7.765905857E0,4.062414646E0
7.121301730E-1,1.826381683E1,-7.770691395E0,4.197010994E0
7.169063710E-1,1.846122551E1,-7.389634609E0,4.003790379E0
7.216825690E-1,1.797308922E1,-6.880561352E0,4.571487427E0
7.264587670E-1,1.806880188E1,-6.220142365E0,4.225724697E0
7.312349640E-1,1.803231239E1,-5.458626747E0,4.095315933E0
7.359978290E-1,1.766142464E1,-4.886742115E0,4.442275047E0
7.407873600E-1,1.788216209E1,-3.926023722E0,2.098505497E0
7.455635580E-1,1.851506424E1,-3.349951744E0,-6.646065116E-1
7.503264230E-1,1.832064629E1,-3.206382275E0,1.121635556E0
7.551159540E-1,1.773620033E1,-2.526820660E0,6.216553211E0
7.598921520E-1,1.783729553E1,-1.465603828E0,3.814757586E0
7.646550170E-1,1.789591980E1,-1.202991605E0,3.014956415E-1
7.694445480E-1,1.715474319E1,-1.380658627E0,5.129015446E0
7.742207460E-1,1.719960976E1,-1.323230863E0,5.517251015E0
7.789836100E-1,1.724507332E1,-1.452443361E0,4.356133461E0
7.837731420E-1,1.711107445E1,-1.606780410E0,3.358326674E0
7.885493390E-1,1.701715660E1,-1.712064624E0,1.919641972E0
7.933122040E-1,1.690230179E1,-1.480558991E0,1.137188911E0
7.981017350E-1,1.626700592E1,-1.284945726E0,8.626125455E-1
8.028779330E-1,1.571067524E1,-1.492523074E0,-2.751746029E-2
8.076407980E-1,1.568674660E1,-1.670788407E0,-9.391828775E-1
8.124303290E-1,1.600379562E1,-1.789831281E0,-2.092523336E0
8.172065270E-1,1.620778465E1,-1.634297848E0,-3.667000771E0
8.219694440E-1,1.490967751E1,-1.294517040E0,-6.468397617E0
8.267589230E-1,1.196590805E1,-8.751748800E-1,-1.084487057E1
8.315351210E-1,1.022453117E1,-1.360917926E0,-1.264427280E1
8.362980370E-1,1.065882874E1,-2.574677229E0,-1.061097240E1
8.410875170E-1,1.135155106E1,-3.485744476E0,-5.987440586E0
8.458637140E-1,9.675976753E0,-3.794418573E0,-2.465803623E0
8.506266310E-1,6.845267296E0,-4.399204254E0,-1.077966571E0
8.554161100E-1,6.458826542E0,-5.037489891E0,7.238288522E-1
8.601923080E-1,6.647261143E0,-5.678168297E0,2.446063042E0
8.649552250E-1,3.751347780E0,-6.239284992E0,2.365903378E0
8.697447040E-1,1.783251047E0,-6.734599113E0,1.588834286E0
8.745209020E-1,9.601200819E-1,-7.266404152E0,4.851447940E-1
8.792838190E-1,2.596212626E-1,-7.619345665E0,-6.723831892E-1
8.840733500E-1,-3.092723191E-1,-7.692924976E0,-1.220937729E0
8.888495480E-1,-2.679961324E-1,-7.504489899E0,-1.326820135E0
8.936124120E-1,4.947160780E-1,-7.036095142E0,-7.938188910E-1
8.984019440E-1,2.076970100E0,-6.444469452E0,-9.690931439E-2
9.031781420E-1,3.437887907E0,-5.805585861E0,3.750749528E-1
9.079543390E-1,5.191228867E0,-5.208576679E0,2.793620527E-1
9.127305370E-1,6.869195461E0,-4.322634220E0,-2.530409992E-1
9.175067350E-1,7.580461979E0,-3.617349625E0,-1.063609719E0
9.222696000E-1,8.276175499E0,-3.239283562E0,-2.238485575E0
9.270591310E-1,9.352347374E0,-2.816950560E0,-3.400799274E0
9.318353290E-1,1.034656525E1,-2.616551638E0,-4.140181541E0
9.365981940E-1,1.091366386E1,-2.711666346E0,-4.057030678E0
9.413877250E-1,1.255573845E1,-2.432902336E0,-5.351547718E0
9.461639230E-1,1.424088383E1,-1.551745534E0,-5.519643784E0
9.509267870E-1,1.539183140E1,-2.365305185E0,-1.354337573E0
9.557163190E-1,1.488634777E1,-3.662813187E0,-5.874379873E-1
9.604925170E-1,1.618864250E1,-2.236690998E0,-2.423929453E0
9.652553810E-1,1.478884029E1,-9.218349457E-1,1.191027522E0
9.700449120E-1,1.389691544E1,-2.070987940E0,1.816152334E0
9.748211100E-1,1.270229912E1,-1.863410592E0,5.061418056E0
9.795840270E-1,1.152323532E1,-3.528815269E0,5.039882660E0
9.843735060E-1,1.049611664E1,-4.252644062E0,3.164507866E0
9.891497040E-1,9.382855415E0,-4.587040901E0,2.181656122E0
9.939126210E-1,8.213961601E0,-4.773082733E0,1.606780410E0
9.987021000E-1,6.696314335E0,-5.721837044E0,1.875374794E0
1.003478298E0,6.426523209E0,-5.273781300E0,1.515853167E0
1.008241214E0,6.612565517E0,-4.642673969E0,2.762513638E0
1.013030694E0,6.444469452E0,-3.757329702E0,4.442275047E0
1.017806892E0,5.679364681E0,-3.581457376E0,5.492724419E0
1.022569808E0,4.987838745E0,-4.518845558E0,7.896314621E0
1.027359287E0,6.000600815E0,-3.966701746E0,7.290930748E0
1.032135485E0,4.354339123E0,-2.307279348E0,5.014159679E0
1.036898402E0,3.635295868E0,-2.684746981E0,3.184248686E0
1.041687881E0,3.944568157E0,-2.698505640E0,4.003790379E0
1.046464131E0,3.726821184E0,-2.453839540E0,4.229912281E0
1.051226996E0,2.297708035E0,-2.037488461E0,4.127020836E0
1.056016527E0,-4.695914388E-1,-5.383851007E-2,3.242274761E0
1.060792725E0,1.153938770E0,-7.148557901E-1,2.975475073E0
1.065555589E0,2.624926329E0,-2.248056889E0,3.122035265E0
1.070345121E0,3.285345554E0,-3.543172121E0,3.047857761E0
1.075121319E0,4.405784607E0,-4.320241451E0,3.056830883E0
1.079884183E0,5.715256691E0,-4.380061626E0,3.155534744E0
1.084673714E0,6.482156754E0,-5.292923450E0,2.082353830E0
1.089449912E0,6.281159401E0,-5.697908878E0,1.694716692E0
1.094212777E0,5.833701611E0,-5.752345562E0,1.600798368E0
1.099002308E0,4.983651161E0,-5.527420521E0,1.255035520E0
1.103778506E0,3.686741590E0,-4.910071850E0,2.633899450E0
1.108541371E0,3.229712248E0,-4.250849247E0,2.108076811E0
1.113330902E0,2.771486759E0,-3.914657831E0,2.062014818E0
1.118107100E0,2.719442844E0,-3.890729666E0,1.385444283E0
1.122869964E0,2.863012314E0,-4.178466320E0,6.077769399E-1
1.127659496E0,3.387040377E0,-4.354937077E0,-2.440679073E-1
1.132435694E0,3.900300980E0,-4.348955154E0,-1.086939692E0
1.137198558E0,4.409373760E0,-4.106681824E0,-1.804786444E0
1.141988089E0,4.966303349E0,-3.676572084E0,-2.244467735E0
1.146764287E0,5.555535793E0,-3.235694408E0,-2.973082066E0
1.151527152E0,6.064609051E0,-2.882753134E0,-3.455235958E0
1.156316683E0,6.932007313E0,-2.509472847E0,-3.800998688E0
1.161092881E0,7.808976650E0,-2.275574446E0,-4.266402721E0
1.165855746E0,9.112466812E0,-1.978266120E0,-4.868197441E0
1.170645277E0,9.833903313E0,-1.214955688E0,-5.616552830E0
1.175421475E0,1.046800041E1,-7.076773047E-1,-6.585047722E0
1.180184392E0,1.118584728E1,-4.552344978E-1,-6.632306099E0
1.184973871E0,1.204786205E1,-3.038884699E-1,-6.454638958E0
1.189750069E0,1.213340569E1,-5.802594870E-2,-6.248856544E0
1.194512985E0,1.158784199E1,3.984049559E-1,-5.703890800E0
1.199302464E0,1.064327526E1,1.271785259E0,-4.077369690E0
1.204078662E0,1.075334454E1,1.267597795E0,-3.962514400E0
1.208841579E0,1.212742329E1,7.268198729E-1,-6.061617851E0
1.213631058E0,1.515314770E1,-1.022931710E-1,-9.570094109E0
1.218407256E0,1.757229042E1,-1.053440213E0,-1.294158173E1
1.223170173E0,1.689272881E1,-1.816152334E0,-1.321615791E1
1.227959652E0,1.549771404E1,-2.691327333E0,-1.390409374E1
1.232735850E0,1.452503204E1,-4.031308174E0,-1.727618027E1
1.237498767E0,1.417926884E1,-5.140381336E0,-1.758126450E1
1.242288298E0,1.176491070E1,-5.111069202E0,-1.006301594E1
1.247064496E0,9.401998520E0,-4.936991215E0,-2.674577475E0
1.251827360E0,8.310871124E0,-4.984847546E0,1.750947952E0
1.256616839E0,7.325028419E0,-5.065605640E0,4.683351994E0
1.261393089E0,6.092724800E0,-5.295914650E0,6.954739094E0
1.266155954E0,4.683351994E0,-5.444868088E0,8.196015358E0
1.270945485E0,3.391227961E0,-5.592624664E0,9.244071960E0
1.275721683E0,3.373879910E0,-6.171687603E0,1.078504944E1
1.280484548E0,3.366701365E0,-6.986443996E0,1.067557812E1
1.285274079E0,3.439084291E0,-7.442874908E0,9.058030128E0
1.290050277E0,4.387240410E0,-7.998608112E0,7.436294556E0
1.294813142E0,4.993820667E0,-8.555537224E0,5.940780640E0
1.299602673E0,5.451447964E0,-8.880961418E0,4.287938118E0
1.304378871E0,6.256632805E0,-9.254241943E0,2.796611547E0
1.309141735E0,7.218547821E0,-9.568898201E0,1.241276741E0
1.313931267E0,8.302495956E0,-9.536594391E0,-4.342973232E-1
1.318707464E0,8.665607452E0,-9.107083321E0,-8.638089895E-1
1.323470329E0,8.551948547E0,-8.143971443E0,-1.962114573E-1
1.328259860E0,7.911868095E0,-7.148557663E0,6.747759581E-1
1.333036058E0,6.958328247E0,-6.654439926E0,6.604190469E-1
1.337812256E0,6.757331371E0,-6.110671043E0,7.328019142E-1
1.342588454E0,6.908677101E0,-5.768496990E0,7.369893789E-1
1.347364652E0,7.125825882E0,-5.291129112E0,7.543373108E-1
1.352127517E0,7.095317364E0,-4.847858906E0,6.681957245E-1
1.356917048E0,6.812964439E0,-4.549354076E0,5.347958803E-1
1.361693246E0,6.521637917E0,-4.333401680E0,4.444667995E-1
1.366456110E0,5.964110374E0,-4.036093712E0,4.666004181E-1
1.371245642E0,5.298307419E0,-3.739383698E0,6.287141442E-1
1.376021839E0,6.153143406E0,-4.599603176E0,7.926225066E-1
1.380784756E0,1.003489971E1,-7.110272408E0,9.182456732E-1
1.385574235E0,1.155494022E1,-7.351947784E0,1.207777262E0
1.390350433E0,1.192642593E1,-7.264609337E0,1.244267821E0
1.395113350E0,1.059063339E1,-6.655636311E0,1.049252748E0
1.399902829E0,8.564510345E0,-5.653641701E0,8.285148144E-1
1.404679027E0,6.357729912E0,-4.604389191E0,7.004988194E-1
1.409441944E0,4.207778454E0,-3.491726398E0,5.670989752E-1
1.414231423E0,2.516651154E0,-2.536990166E0,8.051848412E-1
1.419007621E0,1.253839016E0,-1.893919110E0,8.303094506E-1
1.423770537E0,2.243271172E-1,-1.496710539E0,7.393822074E-1
1.428560017E0,-2.620140910E-1,-1.415952802E0,5.694918036E-1
1.433336214E0,-5.192425251E-1,-1.441077471E0,5.659025311E-1
1.438099131E0,-7.477570772E-1,-1.431506157E0,4.755735099E-1
1.442888610E0,-8.410771489E-1,-1.494317770E0,2.991028316E-2
1.447664860E0,-1.082752228E0,-1.658824325E0,7.896314561E-2
1.452427725E0,-1.591825247E0,-1.751546144E0,7.926225066E-1
1.457217256E0,-1.765304923E0,-1.761715651E0,1.225125194E0
1.461993454E0,-2.203191519E0,-1.849651933E0,1.884945989E0
1.466756319E0,-2.710469961E0,-2.140379906E0,2.862414122E0
1.471545850E0,-3.315854073E0,-2.619542599E0,3.926023722E0
1.476322048E0,-3.759722471E0,-3.213560820E0,4.907679081E0
1.481084912E0,-4.074378967E0,-3.739981890E0,5.399404526E0
1.485874444E0,-4.007379532E0,-4.009174347E0,5.279164791E0
1.490650642E0,-3.660420418E0,-4.114458561E0,5.186442852E0
1.495413506E0,-3.410370588E0,-4.426722050E0,5.420341492E0
1.500203037E0,-3.149552822E0,-4.975874901E0,5.769693375E0
1.504979235E0,-2.584248543E0,-5.461019516E0,6.151348591E0
1.509742100E0,-2.296511650E0,-6.063412666E0,6.975078106E0
1.514531631E0,-2.287538528E0,-6.564110756E0,7.460222721E0
1.519307829E0,-2.176272154E0,-7.181458950E0,8.943174362E0
1.524070694E0,-2.109273195E0,-8.246863365E0,1.080538845E1
1.528860225E0,-1.864008784E0,-8.757132530E0,1.103509998E1
1.533636423E0,-2.115853310E0,-8.497511864E0,1.045005512E1
1.538399287E0,-1.549950838E0,-8.404191017E0,1.036092186E1
1.543188819E0,2.501097918E0,-1.009053326E1,1.071565819E1
1.547965017E0,8.513064384E0,-1.519203091E1,1.004985523E1
1.552727933E0,8.819944382E0,-1.894696808E1,5.218147755E0
1.557517412E0,7.134799004E0,-2.213002014E1,2.680559635E0
1.562293610E0,7.073781967E0,-2.634497643E1,1.354337573E0
1.567056527E0,4.015156269E0,-3.180121040E1,8.751748800E-1
1.571846006E0,-1.214955688E0,-3.448296738E1,1.494317770E0
1.576622204E0,-2.291725874E0,-3.418206787E1,1.456630826E0
1.581385121E0,-1.137188911E0,-3.392424393E1,2.117648125E0
1.586174600E0,8.727820516E-1,-3.200220871E1,2.696112871E0
1.590950798E0,4.122833252E0,-2.875694275E1,2.979662418E0
1.595713714E0,6.265605927E0,-2.451207542E1,3.253042459E0
1.600503194E0,6.222535133E0,-2.007518387E1,3.236292601E0
1.605279392E0,5.572285652E0,-1.628973770E1,3.078366280E0
1.610042308E0,5.071587563E0,-1.351107311E1,2.834298372E0
1.614831787E0,4.496711731E0,-1.144068336E1,2.451446772E0
1.619607985E0,3.879961967E0,-9.905089378E0,2.017149448E0
1.624370902E0,3.431905985E0,-8.831310272E0,1.659422517E0
1.629160381E0,3.160918713E0,-8.037490845E0,1.352542996E0
1.633936631E0,2.966501951E0,-7.512266636E0,8.781659007E-1
1.638699496E0,3.158525944E0,-7.295117855E0,5.605186820E-1
1.643489027E0,3.305086374E0,-7.424928665E0,3.433700502E-1
1.648265225E0,3.482155085E0,-7.780262947E0,2.997010350E-1
1.653028089E0,3.480958700E0,-8.565108299E0,-1.057627559E0
1.657817621E0,3.936791420E0,-9.508479118E0,-1.688136339E0
1.662593819E0,4.130012035E0,-1.047577763E1,-2.585444927E0
1.667356683E0,4.451248169E0,-1.143829060E1,-3.436093330E0
1.672146214E0,4.721039295E0,-1.202453232E1,-4.723432064E0
1.676922412E0,5.089533806E0,-1.276511097E1,-6.361319065E0
1.681685277E0,5.027320385E0,-1.325563908E1,-8.285148621E0
1.686474808E0,4.816154003E0,-1.356790257E1,-1.032323551E1
1.691251006E0,4.311866283E0,-1.374736404E1,-1.202931786E1
1.696013871E0,3.780659676E0,-1.383470249E1,-1.328375530E1
1.700803402E0,3.547957659E0,-1.376291752E1,-1.398784256E1
1.705579600E0,3.390629768E0,-1.319940758E1,-1.297029495E1
1.710342517E0,3.640679598E0,-1.225603771E1,-1.046201897E1
1.715131996E0,4.359124660E0,-1.145623684E1,-7.697710514E0
1.719908194E0,5.170291424E0,-1.103569794E1,-5.532804012E0
1.724671110E0,5.818746567E0,-1.085683441E1,-3.631108284E0
1.729460589E0,6.317649841E0,-1.089452171E1,-2.155334949E0
1.734236787E0,6.633502483E0,-1.102911758E1,-1.187438250E0
1.738999704E0,6.893722057E0,-1.122114182E1,-6.466603279E-1
1.743789183E0,7.164111137E0,-1.154895878E1,-2.159522474E-1
1.748565381E0,7.525427341E0,-1.185165024E1,2.961117923E-1
1.753328298E0,7.794619560E0,-1.196172047E1,7.651050687E-1
1.758117777E0,7.987242222E0,-1.200000572E1,1.167099237E0
1.762893975E0,7.780262947E0,-1.189950657E1,1.570888042E0
1.767656892E0,7.324429989E0,-1.169851017E1,1.899901152E0
1.772446371E0,6.645466805E0,-1.150289631E1,2.143370867E0
1.777222569E0,5.956932068E0,-1.133659554E1,2.463410854E0
1.781985485E0,5.355136871E0,-1.120738316E1,2.874378204E0
1.786774964E0,4.870590687E0,-1.106919765E1,3.111865759E0
1.791551162E0,4.647459984E0,-1.102134132E1,3.199203968E0
1.796314079E0,4.551148891E0,-1.099741268E1,3.017947674E0
1.801103558E0,4.563112736E0,-1.093460083E1,2.738585472E0
1.805879808E0,4.622933388E0,-1.081914711E1,2.411965132E0
1.810655954E0,4.862215519E0,-1.078923702E1,1.873580098E0
1.815432204E0,5.178068161E0,-1.092323494E1,1.257428288E0
1.820208402E0,5.555535793E0,-1.106620693E1,6.993024349E-1
1.824984600E0,5.837290764E0,-1.107996559E1,1.746760458E-1
1.829760798E0,5.952744484E0,-1.095912743E1,-4.061816335E-1
1.834536996E0,5.952146530E0,-1.075155067E1,-1.102493048E0
1.839299860E0,6.072385788E0,-1.052901745E1,-2.350948334E0
1.844089392E0,6.494719028E0,-1.033938694E1,-4.896911621E0
1.848865589E0,7.261618614E0,-9.983454704E0,-8.337192535E0
1.853628454E0,7.901100159E0,-9.388837814E0,-1.089452171E1
1.858417985E0,7.794619560E0,-8.723632812E0,-1.166142082E1
1.863194183E0,7.261618614E0,-8.320442200E0,-1.142393398E1
1.867957048E0,6.332605362E0,-8.115856171E0,-1.081017494E1
1.872746579E0,5.542375565E0,-8.041080475E0,-9.966106415E0
1.877522777E0,4.788636208E0,-8.120641708E0,-8.810373306E0
1.882285642E0,3.875176191E0,-8.282156944E0,-7.313064098E0
1.887075173E0,2.830709219E0,-8.646464348E0,-5.556134224E0
1.891851371E0,2.295913219E0,-9.058030128E0,-3.810570002E0
1.896614235E0,2.191227436E0,-9.363115311E0,-2.336591244E0
1.901403767E0,1.992024899E0,-9.729815483E0,-9.678967595E-1
1.906179964E0,1.475773335E0,-1.015573788E1,9.092725813E-2
1.910942881E0,8.865407705E-1,-1.052841949E1,6.753742099E-1
1.915732360E0,3.714857101E-1,-1.084307575E1,1.167697430E0
1.920508558E0,-2.715853751E-1,-1.121097183E1,1.588235974E0
1.925271475E0,-9.589236975E-1,-1.158843994E1,1.794018745E0
1.930060954E0,-1.527219057E0,-1.195633698E1,2.051845312E0
1.934837152E0,-2.084746838E0,-1.235713387E1,2.453241348E0
1.939600069E0,-2.771486759E0,-1.280758286E1,2.851048231E0
1.944389548E0,-3.655036688E0,-1.333938789E1,3.488735437E0
1.949165746E0,-4.347160339E0,-1.400220013E1,4.304089546E0
1.953928662E0,-5.212165833E0,-1.493958855E1,5.590231895E0
1.958718142E0,-5.295914650E0,-1.715414619E1,1.258445263E1
1.963494339E0,-3.920639992E0,-1.989751625E1,2.524427795E1
1.968257256E0,-2.501097918E0,-2.141396713E1,3.014238739E1
1.973046735E0,-2.419143677E0,-2.189851379E1,2.618764877E1
1.977822933E0,-3.294916868E0,-2.198345947E1,1.746341705E1
1.982585850E0,-9.888339639E-1,-2.282214355E1,-1.192822099E0
1.987375381E0,1.683948994E0,-2.393600273E1,-1.685504341E1
1.992151579E0,3.657429457E0,-2.531486702E1,-2.481656265E1
1.996914444E0,4.622933388E0,-2.673740005E1,-2.722493744E1
2.001703975E0,9.503094673E0,-2.914936638E1,-2.635574532E1
2.006480173E0,1.386281776E1,-3.204707336E1,-1.970130539E1
2.011243037E0,1.858924103E1,-3.310589600E1,-8.216953278E0
2.016032569E0,2.010330009E1,-3.146202850E1,-1.703689694E0
2.020808767E0,1.640818214E1,-2.798944473E1,2.771486759E0
2.025571631E0,1.116311550E1,-2.490090942E1,4.878965378E0
2.030361162E0,6.279364586E0,-2.225384903E1,6.664011002E0
2.035137360E0,1.746760488E0,-1.976052666E1,7.448856831E0
2.039900225E0,-1.369292736E0,-1.758066559E1,7.026523590E0
2.044689756E0,-3.081357241E0,-1.537747478E1,6.025725842E0
2.049465954E0,-2.425724030E0,-1.355952740E1,6.054439545E0
2.054228819E0,-1.582852125E0,-1.224227905E1,6.141179085E0
2.059018350E0,-7.537391186E-1,-1.131027412E1,5.991627693E0
2.063794548E0,-3.774677813E-1,-1.046680450E1,5.725426197E0
2.068557464E0,-4.606183469E-1,-9.560523033E0,5.106283665E0
2.073346944E0,-3.170489967E-1,-8.784051895E0,4.773681164E0
2.078123142E0,1.950150430E-1,-8.166703224E0,4.899902344E0
2.082886058E0,1.830509305E-1,-7.530810833E0,4.770092010E0
2.087675537E0,3.230310604E-2,-6.827321053E0,4.679164886E0
2.092451735E0,-8.315058798E-2,-6.114858150E0,4.804189682E0
2.097214652E0,-1.016949639E-1,-5.310271740E0,4.554139614E0
2.102004131E0,-5.204389095E-1,-4.472783566E0,4.244269371E0
2.106780329E0,-3.846462369E-1,-3.744767427E0,4.141975880E0
2.111543246E0,-4.157529473E-1,-3.162115097E0,4.026522160E0
2.116332725E0,-6.765705943E-1,-2.608774900E0,3.787240028E0
2.121108923E0,-7.082754970E-1,-1.943570137E0,3.638286829E0
2.125871839E0,-1.100100160E0,-1.376471281E0,3.611367464E0
2.130661371E0,-1.701895118E0,-9.774680734E-1,3.494119167E0
2.135437517E0,-2.011765718E0,-7.423732281E-1,3.485744476E0
2.140200433E0,-2.088934183E0,-5.401797295E-1,3.366103172E0
2.144989964E0,-2.499901533E0,-2.907279432E-1,3.157329559E0
2.149766162E0,-3.026920557E0,-1.196411345E-2,2.776272535E0
2.154529027E0,-3.542573929E0,1.268195957E-1,2.528615236E0
2.159318558E0,-3.683152199E0,2.997010350E-1,2.140379906E0
2.164094756E0,-3.650849104E0,6.951149702E-1,1.458425403E0
2.168857621E0,-4.030111313E0,1.171884894E0,1.177268744E0
2.173647152E0,-5.479563713E0,1.765304923E0,2.243271172E-1
2.178423350E0,-7.022934437E0,2.393420935E0,-5.880361795E-1
2.183186214E0,-7.432106972E0,2.763710260E0,-1.095314622E0
2.187975746E0,-7.342376232E0,3.043072224E0,-1.129412293E0
2.192751944E0,-7.095317364E0,2.874976397E0,-5.545366406E-1
2.197514808E0,-6.380461693E0,2.823530674E0,-3.230310678E-1
2.202304339E0,-5.007579803E0,2.961716175E0,2.165504545E-1
2.207080537E0,-4.174279213E0,2.698505640E0,1.023529887E0
2.211843402E0,-2.914458036E0,2.277369022E0,2.188236237E0
2.216632933E0,-1.523629785E0,2.251047850E0,3.102294445E0
2.221409131E0,-1.381256819E0,2.005783558E0,2.166102648E0
2.226172048E0,-9.918249846E-1,1.462612867E0,1.809572101E0
2.230961527E0,-6.675975323E-1,1.131805062E0,9.966106415E-1
2.235737725E0,-3.720839322E-1,6.652047038E-1,-3.170489892E-2
2.240500642E0,-2.380858511E-1,4.205385745E-1,-1.625324726E0
2.245290121E0,-7.896314561E-2,3.541377485E-1,-2.811566591E0
2.250066319E0,1.621137410E-1,2.494517565E-1,-4.694119930E0
2.254829235E0,9.385846853E-1,4.654040039E-1,-9.127422333E0
2.259618714E0,3.317050457E0,5.575276613E-1,-1.854616928E1
2.264394912E0,6.986443996E0,-3.194418252E-1,-3.132025337E1
2.269157829E0,8.073982239E0,-2.910868645E0,-3.691048431E1
2.273947308E0,4.890331268E0,-5.850451469E0,-3.083510971E1
2.278723506E0,1.348953724E0,-7.807182312E0,-1.648116493E1
2.283486423E0,-1.902294040E0,-1.005105114E1,-3.845864296E0
2.288275902E0,-3.081955671E0,-1.166201973E1,3.196810961E0
2.293052100E0,-2.337787628E0,-1.273280716E1,9.945767403E0
2.297815017E0,-1.018744230E0,-1.298764324E1,1.627897072E1
2.302604548E0,-3.535395563E-1,-1.039501953E1,1.832722664E1
2.307380746E0,2.189432681E-1,-7.930412292E0,1.599003696E1
2.312143610E0,-4.085744619E-1,-6.692126751E0,1.274357510E1
2.316933142E0,-1.462612867E0,-6.698707104E0,1.073420238E1
2.321709339E0,-3.335594654E0,-7.893323898E0,1.040339470E1
2.326472204E0,-6.152545452E0,-1.043031406E1,1.142273712E1
2.331261735E0,-1.082094193E1,-1.416132259E1,1.312523079E1
2.336037933E0,-1.613241005E1,-1.863111496E1,1.429292774E1
2.340800798E0,-1.973779488E1,-2.298605347E1,1.530808258E1
2.345590329E0,-2.015594101E1,-2.705325317E1,1.472722530E1
2.350366527E0,-1.621137428E1,-2.963869858E1,1.118166065E1
2.355129392E0,-9.470791817E0,-3.053062248E1,5.047659397E0
2.359918923E0,-2.390429735E0,-2.964826965E1,-6.526423693E-1
2.364695121E0,3.068794966E0,-2.682892609E1,-4.325624943E0
2.369457985E0,5.012365341E0,-2.320559311E1,-5.806184292E0
2.374247517E0,3.664009571E0,-1.939382744E1,-4.866403103E0
2.379023714E0,5.156532526E-1,-1.584706593E1,-1.973480463E0
2.383786631E0,-2.669193745E0,-1.302772331E1,6.478567123E-1
2.388576110E0,-5.255835056E0,-1.112722397E1,2.771486759E0
2.393352308E0,-6.926024914E0,-9.994820595E0,4.098905087E0
2.398115225E0,-7.630711555E0,-9.495916367E0,4.279563427E0
2.402904704E0,-7.456035137E0,-9.774680138E0,3.943371773E0
2.407680902E0,-6.528218269E0,-1.082692432E1,3.353540897E0
2.412443819E0,-5.480162144E0,-1.203829098E1,2.950350285E0
2.417233298E0,-4.275375843E0,-1.336989689E1,2.378465652E0
2.422009496E0,-2.816950560E0,-1.454656696E1,2.242672920E0
2.426772412E0,-1.189831018E0,-1.570349693E1,2.340180635E0
2.431561892E0,3.678964674E-1,-1.663490295E1,2.995215654E0
2.436338089E0,2.135594130E0,-1.754656792E1,3.692125320E0
2.441101006E0,3.964308977E0,-1.867418671E1,4.240081787E0
2.445890485E0,5.435894966E0,-1.939382744E1,4.765306473E0
2.450666683E0,5.980261803E0,-2.008116531E1,4.797011375E0
2.455429600E0,6.299703598E0,-2.039821434E1,3.869194269E0
2.460219131E0,6.101697922E0,-2.056212234E1,3.419343472E0
2.464995277E0,6.214758396E0,-2.054776573E1,3.207578659E0
2.469758194E0,6.331408501E0,-2.036890221E1,2.895315409E0
2.474547725E0,6.333801746E0,-1.985803604E1,2.749951363E0
2.479323923E0,6.341578007E0,-1.935195351E1,2.740380049E0
2.484086787E0,6.138786316E0,-1.862991905E1,2.663809776E0
2.488876319E0,5.934798241E0,-1.796052742E1,2.338385820E0
2.493652517E0,5.352146149E0,-1.711406517E1,2.407777786E0
2.498415381E0,4.217947960E0,-1.579203129E1,3.540779352E0
2.503204912E0,4.474578381E0,-1.500180149E1,3.174677372E0
2.507981110E0,4.926821709E0,-1.521655750E1,2.361117840E0
2.512743975E0,5.041079044E0,-1.525962830E1,1.621137381E0
2.517533506E0,5.537590027E0,-1.541217041E1,8.943174481E-1
2.522309704E0,6.123233318E0,-1.562692642E1,1.908276081E-1
2.527072569E0,6.787241459E0,-1.572622871E1,-2.829512656E-1
2.531862100E0,7.037291527E0,-1.565324783E1,-5.144568682E-1
2.536638298E0,7.474579811E0,-1.554616833E1,-6.227321029E-1
2.541401162E0,7.844270706E0,-1.532902050E1,-6.969096065E-1
2.546190694E0,8.028517723E0,-1.483250904E1,-6.311069727E-1
2.550966892E0,8.135597229E0,-1.425823212E1,-7.088736892E-1
2.555729808E0,8.060821533E0,-1.359422398E1,-8.811569214E-1
2.560519287E0,8.009973526E0,-1.291944790E1,-1.145563841E0
2.565295485E0,7.928617954E0,-1.211964703E1,-1.539183140E0
2.570058402E0,7.713861942E0,-1.126181984E1,-2.008774519E0
2.574847881E0,7.336992264E0,-1.047757244E1,-2.496910334E0
2.579624079E0,6.897909641E0,-9.736394882E0,-3.142972469E0
2.584386996E0,5.803791523E0,-8.191229820E0,-6.199803352E0
2.589176475E0,2.598007202E0,-4.733601570E0,-2.069791603E1
2.593952673E0,-1.128814101E0,-2.484348059E0,-3.858546066E1
2.598715589E0,-4.643870354E0,-1.703689694E0,-4.742215729E1
2.603505069E0,-4.339384079E0,-1.908874273E0,-3.885285950E1
2.608281267E0,-1.937588096E0,-2.361716032E0,-2.753421021E1
2.613044183E0,-1.651047617E-1,-2.775076151E0,-1.866521263E1
2.617833662E0,1.192822099E0,-3.314059258E0,-1.233200932E1
2.622609912E0,2.747558594E0,-3.842873096E0,-8.063812256E0
2.627372777E0,4.365106583E0,-4.962714195E0,-4.850849628E0
2.632162308E0,5.632106304E0,-6.208178520E0,-2.831307411E0
2.636938506E0,6.199803352E0,-6.467201233E0,-1.928016901E0
2.641701371E0,6.454041004E0,-6.105885029E0,-1.415354609E0
2.646490902E0,6.527021885E0,-5.739783287E0,-9.750752449E-1
2.651267100E0,6.502495766E0,-5.137390137E0,-7.980063558E-1
2.656029964E0,6.548557281E0,-4.520640373E0,-7.501499057E-1
2.660819496E0,6.738188744E0,-4.197608948E0,-6.460621357E-1
2.665595694E0,6.845267296E0,-3.725026608E0,-7.477570772E-1
2.670358558E0,6.734599113E0,-3.368496180E0,-8.338986635E-1
2.675148089E0,7.095915318E0,-3.146561861E0,-6.484549642E-1
2.679924287E0,7.262216568E0,-2.717648268E0,-4.289134443E-1
2.684687152E0,6.989434719E0,-2.212164640E0,-4.947160780E-1
2.689476683E0,6.123233318E0,-1.766501307E0,-2.841476798E-1
2.694252881E0,5.832505226E0,-1.275972724E0,-9.631111473E-2
2.699015746E0,5.177470207E0,-9.254241586E-1,2.572284341E-1
2.703805277E0,4.476971149E0,-7.010970116E-1,1.048056364E0
2.708581475E0,3.673580885E0,-5.108676553E-1,2.011765718E0
2.713344392E0,2.974876642E0,-4.504488707E-1,2.898904562E0
2.718133871E0,2.281556368E0,-2.309073806E-1,3.247658491E0
2.722910069E0,1.429113269E0,-2.327020019E-1,3.141776085E0
2.727672985E0,1.046261668E0,-6.089733839E-1,2.591426849E0
2.732462464E0,1.185643673E0,-1.124028444E0,2.495115757E0
2.737238662E0,1.907677889E0,-1.488933921E0,2.900100946E0
2.742001579E0,2.341975212E0,-1.521835208E0,3.089732170E0
2.746791058E0,2.536990166E0,-1.453639746E0,3.141177893E0
2.751567256E0,2.617748022E0,-1.554736495E0,3.059821844E0
2.756343454E0,2.614158630E0,-2.190030813E0,2.172084808E0
2.761119652E0,3.157927752E0,-3.026920557E0,1.137787223E0
2.765895850E0,3.413361549E0,-4.253242016E0,-1.343569875E0
2.770658767E0,4.526023865E0,-6.259026051E0,-3.262613773E0
2.775448246E0,6.884150982E0,-8.541778564E0,-2.400001049E0
2.780224444E0,8.702097893E0,-1.173799133E1,-1.758724600E-1
2.784987360E0,1.011147022E1,-1.696810341E1,2.723630428E0
2.789776839E0,1.330947781E1,-2.353400803E1,-2.158924341E0
2.794553089E0,1.263888931E1,-2.855295372E1,-8.664410591E0
2.799315954E0,8.593224525E0,-3.180061340E1,-8.367102623E0
2.804105485E0,7.801199913E0,-3.883072662E1,7.932206988E-1
2.808881683E0,8.301898003E0,-4.854977417E1,6.114858150E0
2.813644548E0,7.957331657E0,-5.399404144E1,5.146363258E0
2.818434079E0,1.173559856E1,-5.450311661E1,1.134197950E0
2.823210277E0,1.491147232E1,-4.779124832E1,-5.111667156E0
2.827973142E0,1.265085316E1,-3.830669785E1,-3.311666489E0
2.832762673E0,7.590033531E0,-3.116053200E1,-9.050851464E-1
2.837538871E0,4.304687977E0,-2.630908585E1,2.866601467E0
2.842301735E0,1.532004714E0,-2.248595238E1,4.336990833E0
2.847091267E0,3.443870068E0,-1.974138451E1,6.398407936E0
2.851867464E0,5.117649555E0,-1.708236122E1,5.365904808E0
2.856630329E0,4.776672363E0,-1.492403507E1,4.386641979E0
2.861419860E0,3.160918713E0,-1.354935837E1,3.803989887E0
2.866196058E0,1.334596872E0,-1.249472141E1,3.774079561E0
2.870958923E0,1.722832322E-1,-1.161117172E1,3.996013880E0
2.875748454E0,-8.081758618E-1,-1.111226845E1,4.173680782E0
2.880524652E0,-1.615753531E0,-1.083948612E1,3.769293785E0
2.885287569E0,-1.962114573E0,-1.042134094E1,3.367897987E0
2.890077048E0,-1.584646821E0,-1.001037312E1,3.144767046E0
2.894853246E0,-8.572286963E-1,-9.531210899E0,2.487937450E0
2.899616162E0,2.991028363E-3,-8.791828156E0,1.911865234E0
2.904405642E0,6.568298340E-1,-7.957331657E0,1.941775560E0
2.909181839E0,5.862415433E-1,-7.118647575E0,1.716252089E0
2.913944756E0,-1.944168359E-1,-6.108876228E0,1.368694544E0
2.918734235E0,-5.479564071E-1,-5.261816978E0,1.619342685E0
2.923510433E0,-1.537388563E0,-4.724628448E0,1.850250125E0
2.928273350E0,-2.267797709E0,-3.936193228E0,1.858026743E0
2.933062829E0,-3.408575773E0,-3.379862070E0,1.618146300E0
2.937839027E0,-4.905286312E0,-2.988635540E0,1.304686546E0
2.942601944E0,-6.142375946E0,-2.639881611E0,7.304090858E-1
2.947391475E0,-7.388438225E0,-2.203789711E0,3.092723191E-1
2.952167673E0,-8.687142372E0,-1.797608018E0,5.461617708E-1
2.956930537E0,-9.708877563E0,-1.347757339E0,9.972088337E-1
2.961720017E0,-1.035434151E1,-8.817551732E-1,1.379462242E0
2.966496267E0,-1.040877819E1,-4.145565331E-1,1.297508121E0
2.971259131E0,-9.759127617E0,4.486542568E-2,1.198205948E0
2.976048662E0,-9.110671997E0,4.654040039E-1,9.116654396E-1
2.980824860E0,-8.431110382E0,6.981059909E-1,9.463613629E-1
2.985587725E0,-7.614559650E0,9.170492887E-1,7.453642488E-1
2.990377256E0,-6.929614544E0,7.740781307E-1,5.928218365E-1
2.995153454E0,-6.051448345E0,4.396811724E-1,9.870393574E-2
2.999916319E0,-5.337789059E0,1.040877849E-1,-8.195417374E-2
3.004705850E0,-4.826323509E0,-6.759724021E-2,-5.545366406E-1
3.009482048E0,-4.171886444E0,-3.170489967E-1,-9.852447510E-1
3.014244912E0,-3.684946775E0,-3.535395563E-1,-1.635494232E0
3.019034444E0,-3.360719442E0,-1.118644550E-1,-2.895315409E0
3.023810642E0,-2.830111027E0,-3.589233849E-3,-3.972683907E0
3.028573506E0,-2.240280151E0,3.696911037E-1,-5.420939922E0
3.033363037E0,-1.173679471E0,7.674978375E-1,-7.370491982E0
3.038139235E0,3.020938635E-1,8.344969153E-1,-8.760123253E0
3.042902152E0,1.789831281E0,6.418746710E-1,-1.056670475E1
3.047691631E0,3.150151014E0,-1.878365725E-1,-1.194138145E1
3.052467829E0,4.235296249E0,-1.569093466E0,-1.026161957E1
3.057230746E0,5.480162144E0,-3.253042459E0,-7.526623726E0
3.062020225E0,7.174280643E0,-5.229514122E0,-6.943373203E0
3.066796423E0,9.648459435E0,-7.184450150E0,-7.146762848E0
3.071559339E0,1.123669529E1,-9.050253868E0,-5.152943611E0
3.076348819E0,1.033639526E1,-1.059182930E1,1.363908947E-1
3.081125017E0,7.395018578E0,-1.138684464E1,5.076373100E0
3.085887933E0,4.601397991E0,-1.187079334E1,6.166304111E0
3.090677412E0,2.670390129E0,-1.201496029E1,5.446662426E0
3.095453610E0,1.870589137E0,-1.184806156E1,4.601397991E0
3.100216527E0,2.099103689E0,-1.172662544E1,3.947559118E0
3.105006006E0,3.039483070E0,-1.177208900E1,3.573082447E0
3.109782204E0,4.111467361E0,-1.182712460E1,2.996412039E0
3.114545121E0,4.922036171E0,-1.170449162E1,2.665604353E0
3.119334652E0,5.401797295E0,-1.138086224E1,2.643470764E0
3.124110850E0,5.047659397E0,-1.101057339E1,2.578266382E0
3.128887048E0,4.213162422E0,-1.053081226E1,2.419143677E0
3.133663246E0,3.323630571E0,-9.949356079E0,2.044068813E0
3.138439444E0,2.345564365E0,-9.634101868E0,1.780260086E0
3.143202308E0,9.188438654E-1,-1.005643559E1,1.562513232E0
3.147991839E0,-1.124028444E0,-1.118405342E1,1.525424480E0
3.152768037E0,-3.800400496E0,-1.288654613E1,1.713859200E0
3.157530902E0,-6.874579430E0,-1.474935913E1,2.148754835E0
3.162320433E0,-9.839286804E0,-1.660618973E1,2.649452925E0
3.167096631E0,-1.184327602E1,-1.797009850E1,3.414557934E0
3.171859496E0,-1.241037464E1,-1.858864212E1,4.392624378E0
3.176649027E0,-1.169192982E1,-1.811546135E1,4.752744198E0
3.181425225E0,-9.777072906E0,-1.668874168E1,4.305285931E0
3.186188089E0,-7.606184959E0,-1.522852135E1,3.659224033E0
3.190977621E0,-5.955137253E0,-1.431805229E1,2.632703066E0
3.195753819E0,-4.549952030E0,-1.391904926E1,1.521237016E0
3.200516735E0,-3.361915827E0,-1.401236916E1,4.450650215E-1
3.205306214E0,-2.026122570E0,-1.447597885E1,5.443671346E-2
3.210082412E0,-7.962117195E-1,-1.500299835E1,2.021935135E-1
3.214845329E0,-1.328016520E-1,-1.523809242E1,1.153938770E0
3.219634808E0,6.885347366E-1,-1.565564060E1,2.210369825E0
3.224411006E0,1.671386600E0,-1.664626884E1,3.036491871E0
3.229173923E0,2.794816732E0,-1.812742615E1,3.079562664E0
3.233963402E0,4.415356159E0,-2.007877350E1,2.481955290E0
3.238739600E0,6.746563435E0,-2.230349922E1,2.039881229E0
3.243502517E0,9.115457535E0,-2.413819695E1,1.827518344E0
3.248291996E0,9.550353050E0,-2.433022118E1,2.060220242E0
3.253068194E0,7.384849072E0,-2.213899422E1,3.087339401E0
3.257831110E0,5.833103180E0,-2.025464630E1,4.015754700E0
3.262620589E0,5.115256786E0,-1.916292000E1,4.714458942E0
3.267396839E0,4.644468784E0,-1.863889122E1,4.994419098E0
3.272159704E0,4.524827480E0,-1.848036766E1,4.870590687E0
3.276949235E0,4.234099865E0,-1.850070572E1,4.747360229E0
3.281725433E0,3.985844374E0,-1.872742653E1,4.561318398E0
3.286501631E0,3.800998688E0,-1.896371841E1,4.596014023E0
3.291277829E0,3.020938635E0,-1.850848389E1,5.583651543E0
3.296054027E0,2.069193363E0,-1.768714714E1,6.739983082E0
3.300816892E0,1.657627940E0,-1.699502373E1,6.803991318E0
3.305606423E0,2.069791555E0,-1.698844337E1,5.669195175E0
3.310382621E0,2.240280151E0,-1.758963966E1,4.435695171E0
3.315145485E0,2.575873613E0,-1.777627945E1,3.200400352E0
3.319935017E0,3.243471146E0,-1.760040665E1,1.949552298E0
3.324711214E0,3.744169235E0,-1.710269928E1,9.242277741E-1
3.329474079E0,4.104289055E0,-1.657627869E1,1.393819153E-1
3.334263610E0,3.923032761E0,-1.591167259E1,-2.871387303E-1
3.339039808E0,3.667598963E0,-1.509811306E1,-4.157529473E-1
3.343802673E0,3.555136204E0,-1.424088383E1,-5.545366406E-1
3.348592204E0,3.494119167E0,-1.334477234E1,-6.705885530E-1
3.353368402E0,3.433102369E0,-1.251147175E1,-8.488538265E-1
3.358131319E0,3.272783279E0,-1.167338562E1,-1.049850941E0
3.362920798E0,3.135794163E0,-1.087837029E1,-1.236491084E0
3.367696996E0,2.849253654E0,-9.929615974E0,-1.590628862E0
3.372459912E0,2.600399971E0,-8.966505051E0,-2.146960020E0
3.377249392E0,1.344168067E0,-6.929614544E0,-7.334001541E0
3.382025589E0,-3.330809116E0,-3.455834150E0,-3.183052254E1
3.386788506E0,-1.016829967E1,-1.274178028E0,-5.751029587E1
3.391577985E0,-1.168953705E1,-1.734796405E0,-4.808137894E1
3.396354183E0,-8.950352669E0,-2.880958557E0,-3.400021362E1
3.401117100E0,-5.120042324E0,-3.786641836E0,-2.425843620E1
3.405906579E0,-1.945364833E0,-4.398606300E0,-1.731566048E1
3.410682777E0,4.917250574E-1,-4.901697159E0,-1.183250809E1
3.415445694E0,2.302493572E0,-5.452644825E0,-7.834699631E0
3.420235225E0,3.775874138E0,-6.057430744E0,-5.255835056E0
3.425011423E0,5.075775146E0,-7.495516777E0,-3.480958700E0
3.429774287E0,6.019743443E0,-7.729415417E0,-3.312862873E0
3.434563819E0,6.583851337E0,-7.568498135E0,-4.390829563E0
3.439340017E0,6.972086906E0,-7.008577347E0,-5.880959988E0
3.444102881E0,6.968497753E0,-6.058627129E0,-6.778866768E0
3.448892412E0,7.188637257E0,-5.676971912E0,-7.144968510E0
3.453668610E0,6.547360897E0,-5.548955917E0,-6.993024349E0
3.458431475E0,5.810371399E0,-5.353342533E0,-5.995815277E0
3.463221006E0,5.462215900E0,-5.239683151E0,-4.487140656E0
3.467997204E0,5.076373100E0,-5.067998409E0,-2.834298372E0
3.472760069E0,4.995017052E0,-4.924428940E0,-1.245464206E0
3.477549600E0,4.625326157E0,-4.636692047E0,-1.016949639E-1
3.482325798E0,4.204787731E0,-4.382454872E0,1.191027522E0
3.487088662E0,3.643072367E0,-4.071387768E0,2.187039852E0
3.491878194E0,3.075375319E0,-3.716651678E0,2.818745136E0
3.496654392E0,2.885744095E0,-3.269193888E0,3.265604734E0
3.501417308E0,2.681157827E0,-2.850450039E0,3.424727440E0
3.506206787E0,2.432304144E0,-2.446661234E0,3.377469063E0
3.510982985E0,2.172683001E0,-2.143370867E0,3.081357241E0
3.515745902E0,1.974078655E0,-1.893320918E0,2.688336134E0
3.520535381E0,1.853839397E0,-1.777867198E0,2.472982168E0
3.525311579E0,1.734198213E0,-1.696511269E0,2.526222467E0
3.530074496E0,1.651047587E0,-1.764108539E0,2.872583628E0
3.534863975E0,1.577468276E0,-1.957328916E0,3.214159012E0
3.539640173E0,1.375274777E0,-2.246262312E0,3.368496180E0
3.544403089E0,1.335195065E0,-2.651845694E0,3.628117323E0
3.549192569E0,1.417747378E0,-3.075973511E0,4.434498787E0
3.553968767E0,1.740778446E0,-3.610769272E0,5.733801365E0
3.558731683E0,1.870589137E0,-4.304089546E0,6.256632805E0
3.563521214E0,1.563111424E0,-5.157729149E0,6.143572330E0
3.568297360E0,1.084546804E0,-6.454638958E0,6.555137634E0
3.573060277E0,5.647061467E-1,-9.131608963E0,9.631111145E0
3.577849808E0,2.739782035E-1,-1.567298794E1,6.858428001E0
3.582626006E0,-4.666004330E-2,-2.516651154E1,-1.188814068E1
3.587388871E0,-1.188634634E0,-3.435554886E1,-2.462693024E1
3.592178402E0,-2.999403238E0,-3.830250931E1,-2.173520470E1
3.596954600E0,-1.908874273E0,-4.400221252E1,-1.442333698E1
3.601717464E0,-1.562513232E0,-5.041378021E1,-3.934398651E0
3.606506996E0,8.291130662E-1,-5.611528015E1,3.044268608E0
3.611283194E0,8.865407705E-1,-5.291188812E1,3.171686411E0
3.616046058E0,3.702892959E-1,-4.153222275E1,1.116850019E0
3.620835589E0,-4.187439568E-3,-3.142972565E1,4.013960063E-1
3.625611787E0,6.729813814E-1,-2.484766769E1,1.141974568E0
3.630374652E0,8.129615188E-1,-2.063689804E1,2.050648928E0
3.635164183E0,1.154536903E-1,-1.734796333E1,1.764108539E0
3.639940381E0,1.262812138E0,-1.545703602E1,2.898904562E0
3.644703246E0,4.465006828E0,-1.435633755E1,4.325624943E0
3.649492777E0,3.221935749E0,-1.344885921E1,4.537988186E0
3.654268975E0,1.567897081E0,-1.287996578E1,4.392624378E0
3.659031839E0,-2.865405083E-1,-1.244028473E1,3.912863255E0
3.663821371E0,-2.015354872E0,-1.213639641E1,3.911666870E0
3.668597569E0,-2.286342144E0,-1.196351528E1,3.966103554E0
3.673360433E0,-1.371087432E0,-1.160040379E1,3.653241873E0
3.678149964E0,-6.855437160E-1,-1.112124157E1,3.284747362E0
3.682926162E0,-4.606183618E-2,-1.063310528E1,3.041277647E0
3.687689079E0,3.361915946E-1,-1.015454102E1,2.832503796E0
3.692478558E0,9.152546525E-2,-9.515059471E0,2.804986238E0
3.697254756E0,-4.624129832E-1,-8.928219795E0,2.793022156E0
3.702017673E0,-4.839483798E-1,-8.282755852E0,2.696112871E0
3.706807152E0,-5.240281820E-1,-7.815557003E0,2.633301258E0
3.711583350E0,-4.683950245E-1,-7.290332317E0,2.695514679E0
3.716346267E0,-4.079762697E-1,-6.731009960E0,2.612962246E0
3.721135746E0,-4.929214716E-1,-6.220740795E0,2.368296146E0
3.725911944E0,-5.515456200E-1,-5.700301647E0,2.330011129E0
3.730674860E0,-8.548358679E-1,-5.142175674E0,2.053041935E0
3.735464392E0,-1.477568030E0,-4.739583492E0,2.295913219E0
3.740240589E0,-1.444666624E0,-4.122235298E0,2.602194548E0
3.745003454E0,-1.397408366E0,-3.437887907E0,2.136192322E0
3.749792985E0,-1.860419631E0,-2.779263496E0,1.437488198E0
3.754569183E0,-2.789433002E0,-2.154138565E0,8.087740541E-1
3.759332048E0,-3.607778311E0,-1.587637782E0,3.176472187E-1
3.764121579E0,-4.826323509E0,-8.967102766E-1,-2.087737769E-1
3.768897777E0,-6.226124287E0,-2.452643216E-1,3.290131316E-2
3.773660642E0,-7.147361279E0,4.845465720E-1,5.700899959E-1
3.778450173E0,-7.281359196E0,1.293918848E0,1.006780148E0
3.783226371E0,-6.940980434E0,2.098505497E0,9.421738982E-1
3.787989235E0,-6.092724800E0,2.794816732E0,9.038887620E-1
3.792778767E0,-5.157729149E0,3.274577856E0,7.836494446E-1
3.797554964E0,-4.580460548E0,3.386442184E0,1.015154958E0
3.802317829E0,-4.033700943E0,3.344567776E0,1.003190875E0
3.807107360E0,-3.534198999E0,3.248854876E0,8.997012973E-1
3.811883558E0,-3.275774240E0,2.879163742E0,1.160518974E-1
3.816646423E0,-3.068794966E0,2.456232548E0,-4.791627228E-1
3.821435954E0,-2.633899450E0,1.951346874E0,-1.225125194E0
3.826212152E0,-1.784447432E0,1.395015597E0,-1.834098577E0
3.830975069E0,-9.601200819E-1,1.239482164E0,-4.074976921E0
3.835764548E0,3.355933726E-1,1.162313581E0,-8.544769287E0
3.840540746E0,2.274976015E0,1.101894855E0,-1.278664589E1
3.845303662E0,3.580859184E0,9.607182741E-1,-1.481396484E1
3.850093142E0,4.298107624E0,2.829512656E-1,-1.304207993E1
3.854869339E0,4.905884743E0,-6.514459848E-1,-1.135513973E1
3.859632256E0,5.629115105E0,-1.560120344E0,-1.186720371E1
3.864421735E0,6.754340172E0,-2.264806747E0,-1.263529968E1
3.869197933E0,7.289135933E0,-3.232703447E0,-1.042971611E1
3.873960850E0,5.590830326E0,-4.501497746E0,-5.645267010E0
3.878750329E0,3.493520975E0,-5.828916073E0,-1.486541033E0
3.883526527E0,2.306082726E0,-7.099504948E0,-2.991028428E-1
3.888289444E0,1.607976794E0,-8.411369324E0,8.434699476E-2
3.893078975E0,-1.172483116E-1,-9.620343208E0,1.226919770E0
3.897855173E0,-2.279761791E0,-1.028674412E1,2.769692183E0
3.902618037E0,-3.875774384E0,-1.071446133E1,3.017947674E0
3.907407569E0,-4.974678040E0,-1.173380375E1,2.539382935E0
3.912183767E0,-5.557330608E0,-1.348355579E1,2.020738840E0
3.916946631E0,-5.650052547E0,-1.497727489E1,1.609173179E0
3.921736162E0,-5.684150219E0,-1.584945869E1,1.744965911E0
3.926512360E0,-6.273382664E0,-1.668395615E1,2.280958176E0
3.931275225E0,-7.578069210E0,-1.836910057E1,2.783450842E0
3.936064756E0,-9.439684868E0,-2.069612122E1,2.852244616E0
3.940840954E0,-1.125224876E1,-2.285923386E1,3.290131092E0
3.945603819E0,-1.230867958E1,-2.405205536E1,4.194019794E0
3.950393350E0,-1.177687454E1,-2.392104721E1,4.829314232E0
3.955169548E0,-1.033938694E1,-2.297767830E1,4.672584534E0
3.959932412E0,-8.520841599E0,-2.148934174E1,4.062414646E0
3.964721944E0,-5.888138294E0,-1.930469513E1,3.111267567E0
3.969498142E0,-3.330809116E0,-1.732283974E1,2.309672117E0
3.974261058E0,-1.288534999E0,-1.563589954E1,1.779661894E0
3.979050537E0,4.420739710E-1,-1.428275871E1,1.563111424E0
3.983826735E0,1.540977836E0,-1.323948765E1,1.369292736E0
3.988589652E0,1.390828133E0,-1.263290691E1,1.220937729E0
3.993379131E0,-4.707878530E-1,-1.217946720E1,1.278365493E0
3.998155329E0,-3.488735437E0,-1.205683517E1,1.731207132E0
4.002918246E0,-5.874977589E0,-1.239541912E1,1.944766641E0
4.007707725E0,-7.307680130E0,-1.307378483E1,2.288734913E0
4.012483923E0,-7.585247993E0,-1.367199039E1,2.463410854E0
4.017246839E0,-6.266802311E0,-1.423191071E1,2.346760750E0
4.022036319E0,-4.279563427E0,-1.517647743E1,2.350948334E0
4.026812517E0,-2.133799553E0,-1.650569153E1,2.422732830E0
4.031575433E0,-1.890329868E-1,-1.787378693E1,2.250449657E0
4.036364964E0,1.278963685E0,-1.883390617E1,2.181057930E0
4.041141110E0,2.457428932E0,-1.934716797E1,2.491526604E0
4.045904027E0,3.323032379E0,-1.946082687E1,3.120838881E0
4.050693558E0,4.089334011E0,-1.945424652E1,3.890131474E0
4.055469756E0,4.797609329E0,-1.942912102E1,4.643870354E0
4.060232621E0,5.438885689E0,-1.947099686E1,5.226522923E0
4.065022152E0,6.034698486E0,-1.961396790E1,5.386841774E0
4.069798350E0,6.471388817E0,-1.971925163E1,5.163711071E0
4.074561214E0,6.901498795E0,-1.978983879E1,4.614558697E0
4.079350746E0,7.169494629E0,-1.977967072E1,4.123431683E0
4.084126944E0,7.215556622E0,-1.969711685E1,3.950550079E0
4.088889808E0,6.955935478E0,-1.914377785E1,3.816552162E0
4.093679339E0,6.823731899E0,-1.858505440E1,3.418745279E0
4.098455537E0,5.933003902E0,-1.778285980E1,3.672384501E0
4.103231735E0,4.970490932E0,-1.721217155E1,3.825525284E0
4.108007933E0,4.386641979E0,-1.663490295E1,3.458825111E0
4.112784131E0,3.825525284E0,-1.624606895E1,3.005983353E0
4.117546996E0,3.469592810E0,-1.602054596E1,2.455634356E0
4.122336527E0,3.147160053E0,-1.574596977E1,1.948355794E0
4.127112725E0,2.767299414E0,-1.539482307E1,1.580459356E0
4.131875589E0,2.910270452E0,-1.488874054E1,1.066002488E0
4.136665121E0,3.119044304E0,-1.446401501E1,4.211367965E-1
4.141441319E0,3.431307554E0,-1.371147156E1,-2.476571500E-1
4.146204235E0,3.681955814E0,-1.281416321E1,-7.776673436E-1
4.150993714E0,3.833899975E0,-1.189352512E1,-1.081555843E0
4.155769912E0,3.777070522E0,-1.084307575E1,-1.326221943E0
4.160532829E0,3.346960783E0,-9.692726135E0,-1.838884234E0
4.165322308E0,2.577069998E0,-8.470592499E0,-2.602792740E0
4.170098506E0,1.845464468E0,-6.702894211E0,-5.470590591E0
4.174861423E0,1.818545163E-1,-4.456632137E0,-1.652543068E1
4.179650902E0,-3.076571703E0,-2.539981127E0,-4.355236435E1
4.184427100E0,-6.613163471E0,-1.320239902E0,-6.438128662E1
4.189190017E0,-4.325026989E0,-1.695913076E0,-5.127759171E1
4.193979496E0,3.547359705E-1,-2.134397745E0,-3.686143112E1
4.198755694E0,3.467798233E0,-2.304886341E0,-2.660758972E1
4.203518610E0,4.909473896E0,-2.599203587E0,-1.884527206E1
4.208308142E0,5.860022545E0,-2.883949518E0,-1.288893890E1
4.213084339E0,6.311069489E0,-3.332603693E0,-8.649456024E0
4.217847204E0,5.694917679E0,-4.284348965E0,-5.563910961E0
4.222636735E0,5.184648514E0,-5.863013744E0,-2.757728100E0
4.227412933E0,5.264808178E0,-7.101897717E0,-4.007977843E-1
4.232175798E0,5.553741455E0,-7.429116249E0,1.569691658E0
4.236965329E0,6.467201233E0,-7.133602619E0,2.520240545E0
4.241741527E0,7.043871880E0,-6.993024349E0,2.781058073E0
4.246504392E0,7.107281685E0,-6.510870457E0,3.356531858E0
4.251293923E0,7.262216568E0,-5.769095421E0,3.373879910E0
4.256070121E0,7.375277519E0,-4.823930264E0,2.960519791E0
4.260832985E0,7.738986492E0,-3.979862213E0,2.127219439E0
4.265622517E0,7.747361660E0,-3.208176851E0,1.521835208E0
4.270398714E0,6.998407841E0,-2.520838737E0,4.725824669E-2
4.275161579E0,6.308078766E0,-1.899901152E0,-1.365105271E0
4.279951110E0,5.544768333E0,-1.473380566E0,-2.163111687E0
4.284727308E0,4.670789719E0,-1.021735311E0,-2.441875458E0
4.289490225E0,3.943371773E0,-5.084748268E-1,-2.121835470E0
4.294279704E0,3.079562664E0,-5.162515044E-1,-1.032503009E0
4.299055902E0,2.154138565E0,-7.112665176E-1,-1.495514158E-2
4.303818819E0,1.668395638E0,-1.170090318E0,5.012963414E-1
4.308608298E0,1.195813060E0,-1.749751568E0,7.489534616E-1
4.313384496E0,8.817551732E-1,-2.232503414E0,1.250249863E0
4.318147412E0,6.245267391E-1,-2.401795626E0,1.146162033E0
4.322936892E0,4.025924206E-1,-2.450250387E0,6.000002623E-1
4.327713089E0,1.950150430E-1,-2.595016241E0,-2.273181453E-2
4.332476006E0,8.195417374E-2,-2.912663460E0,-7.609176040E-1
4.337265485E0,1.950150430E-1,-3.562912941E0,-2.114656925E0
4.342041683E0,8.991031051E-1,-4.630111694E0,-3.494717360E0
4.346804600E0,2.023131609E0,-5.744568825E0,-4.607978344E0
4.351594079E0,3.355335474E0,-6.912266254E0,-3.640081406E0
4.356370277E0,4.758127689E0,-8.167302132E0,-1.319043517E0
4.361133194E0,5.528616905E0,-1.069113159E1,1.947159410E0
4.365922725E0,7.689933777E0,-1.695075607E1,5.169693470E0
4.370698923E0,1.259581852E1,-2.504328156E1,-2.965305567E0
4.375461787E0,1.324367523E1,-3.176591682E1,-7.172485828E0
4.380251319E0,6.863811970E0,-3.445006561E1,-6.245266914E0
4.385027517E0,-1.252642632E0,-3.793461227E1,-5.000401020E0
4.389790381E0,-4.725824833E0,-4.567898560E1,2.681756020E0
4.394579912E0,-3.851248026E0,-5.284249878E1,6.589235306E0
4.399356110E0,-1.387837082E-1,-5.493801117E1,4.051646709E0
4.404118975E0,7.732406139E0,-5.312604523E1,2.271985054E0
4.408908506E0,1.270947742E1,-4.486063766E1,2.106282234E0
4.413684704E0,9.914660454E0,-3.508296585E1,2.209771633E0
4.418447569E0,8.506484032E0,-2.761437035E1,3.166900873E0
4.423237100E0,7.543373585E0,-2.341077805E1,3.399602890E0
4.428013298E0,5.405386448E0,-2.066561317E1,3.826123476E0
4.432776162E0,3.396013498E0,-1.866102600E1,3.781856298E0
4.437565694E0,1.320838094E0,-1.712961960E1,3.729214191E0
4.442341892E0,-1.208973646E0,-1.571366596E1,3.847060680E0
4.447104756E0,-2.869592667E0,-1.424866104E1,3.922434568E0
4.451894287E0,-3.934996843E0,-1.297926807E1,3.888935089E0
4.456670485E0,-4.091128349E0,-1.159262753E1,3.970290899E0
4.461433402E0,-3.422334671E0,-1.002473068E1,3.624528170E0
4.466222881E0,-3.232703447E0,-8.824131966E0,3.373281717E0
4.470999079E0,-3.005983353E0,-7.730013371E0,2.944368362E0
4.475761996E0,-2.490928411E0,-6.822535515E0,2.768495798E0
4.480551475E0,-1.705484390E0,-5.983253002E0,2.575873613E0
4.485327673E0,-1.303490162E0,-5.398806095E0,2.420340061E0
4.490090589E0,-1.363310695E0,-4.734199524E0,2.309672117E0
4.494880069E0,-1.447059512E0,-4.310071945E0,2.079362869E0
4.499656267E0,-1.181456208E0,-3.914657831E0,2.197807550E0
4.504419183E0,-1.493719578E0,-3.461816072E0,1.853839397E0
4.509208662E0,-1.594218135E0,-3.178266764E0,2.021935225E0
4.513984860E0,-1.823929071E0,-2.928216696E0,1.912463546E0
4.518747777E0,-1.621137381E0,-2.392822742E0,1.181456208E0
4.523537308E0,-1.840080619E0,-1.949552298E0,6.017948985E-1
4.528313506E0,-2.383251429E0,-1.353739381E0,-9.152546525E-2
4.533076371E0,-3.244667530E0,-7.818548083E-1,-5.718846321E-1
4.537865902E0,-4.392025948E0,-3.804588020E-1,-4.701896608E-1
4.542642100E0,-5.602794170E0,-2.632105052E-1,-8.075776696E-2
4.547404964E0,-6.712465763E0,-4.199403822E-1,5.204389095E-1
4.552194496E0,-7.235297680E0,-6.430711150E-1,1.295713425E0
4.556970694E0,-6.693921566E0,-6.418746710E-1,1.816152334E0
4.561733558E0,-5.907878876E0,-5.437689424E-1,1.994417667E0
4.566523089E0,-4.870590687E0,-1.274178028E-1,2.305484533E0
4.571299287E0,-4.271188259E0,8.673982322E-2,2.426920414E0
4.576062152E0,-3.870988846E0,3.960121572E-1,1.959123492E0
4.580851683E0,-3.265604734E0,4.025924206E-1,1.341775298E0
4.585627881E0,-2.882753134E0,3.888336718E-1,8.745766878E-1
4.590390746E0,-2.627917528E0,4.618147612E-1,5.467599630E-1
4.595180277E0,-2.212762833E0,4.390829504E-1,-4.127619043E-2
4.599956475E0,-2.106282234E0,5.742774606E-1,-4.301098585E-1
4.604719392E0,-1.952543259E0,5.946164131E-1,-9.595218897E-1
4.609508871E0,-1.946561217E0,5.754738450E-1,-1.539781332E0
4.614285069E0,-1.750349760E0,7.549355626E-1,-3.619144201E0
4.619047985E0,3.469592705E-2,2.020738840E0,-1.217647648E1
4.623837464E0,1.949552298E0,2.494517565E0,-1.627478409E1
4.628613662E0,2.553740025E0,2.335993052E0,-1.397468281E1
4.633376579E0,2.483749866E0,1.722832322E0,-1.173260784E1
4.638166058E0,2.964707375E0,8.943174481E-1,-9.820143700E0
4.642942256E0,3.794418573E0,2.117647976E-1,-8.225327492E0
4.647705173E0,4.499702930E0,-4.863412082E-1,-6.112465382E0
4.652494652E0,4.694717884E0,-1.194616675E0,-4.121636868E0
4.657270850E0,4.131806374E0,-1.919043779E0,-3.211168051E0
4.662033767E0,3.171088219E0,-2.215753794E0,-1.718046665E0
4.666823246E0,2.213959217E0,-2.638685226E0,2.309073806E-1
4.671599444E0,1.090528965E0,-4.125226021E0,9.433703423E-1
4.676362360E0,2.099701911E-1,-6.945765972E0,9.595218897E-1
4.681151892E0,-4.570291340E-1,-8.388039589E0,1.660020709E0
4.685928089E0,-1.215553880E0,-8.318049431E0,2.047657967E0
4.690690954E0,-1.810768485E0,-8.772088051E0,2.511267424E0
4.695480485E0,-2.303091764E0,-9.775876999E0,2.423331022E0
4.700256683E0,-3.038286448E0,-1.147837067E1,1.891526341E0
4.705019548E0,-4.694119930E0,-1.423789310E1,1.877767563E0
4.709809079E0,-7.875377655E0,-1.809990883E1,2.429313183E0
4.714585277E0,-1.185882950E1,-2.255654144E1,2.328814745E0
4.719348142E0,-1.615035629E1,-2.690788841E1,3.011367321E0
4.724137673E0,-2.006979942E1,-3.070470047E1,4.349553585E0
4.728913871E0,-2.074756622E1,-3.237847900E1,5.410171986E0
4.733676735E0,-1.779362679E1,-3.114737320E1,5.211567879E0
4.738466267E0,-1.173081303E1,-2.803430939E1,3.992424488E0
4.743242464E0,-5.949753284E0,-2.471008110E1,3.436691523E0
4.748005329E0,-2.769692183E0,-2.218266296E1,2.842673302E0
4.752794860E0,-8.847461939E-1,-2.036232185E1,2.375474691E0
4.757571058E0,1.214357495E0,-1.911805534E1,1.572084427E0
4.762333923E0,3.678964853E0,-1.792164421E1,7.046862841E-1
4.767123454E0,5.970092297E0,-1.684128380E1,1.633101404E-1
4.771899652E0,7.734200954E0,-1.611446381E1,-4.025924206E-1
4.776662569E0,7.578667641E0,-1.496830177E1,-3.499503136E-1
4.781452048E0,5.462215900E0,-1.351825142E1,4.947160780E-1
4.786228246E0,1.663609982E0,-1.247378445E1,1.555334687E0
4.790991162E0,-1.199402332E0,-1.242712402E1,2.496312141E0
4.795780642E0,-2.553141832E0,-1.314437294E1,3.214159012E0
4.800556839E0,-2.915056229E0,-1.437847137E1,3.409173965E0
4.805319756E0,-2.377867460E0,-1.579322720E1,3.277568817E0
4.810109235E0,-1.599003673E0,-1.714577103E1,3.169293642E0
4.814885433E0,-8.189435601E-1,-1.829073715E1,3.276372433E0
4.819648350E0,-2.608176768E-1,-1.944587135E1,3.715455294E0
4.824437829E0,6.436693072E-1,-2.046999931E1,4.086342812E0
4.829214027E0,1.680359721E0,-2.151745796E1,4.196412563E0
4.833976944E0,2.877369165E0,-2.260858536E1,4.095315933E0
4.838766475E0,4.331008911E0,-2.338984108E1,3.997210264E0
4.843542673E0,5.579464436E0,-2.383071899E1,4.168296814E0
4.848305537E0,6.357131481E0,-2.358724976E1,4.629513741E0
4.853095069E0,6.658029079E0,-2.275873375E1,5.294718266E0
4.857871267E0,6.551548481E0,-2.170409775E1,5.543571949E0
4.862634131E0,6.830910206E0,-2.113400841E1,4.884349346E0
4.867423662E0,6.703492641E0,-2.072961998E1,3.675375462E0
4.872199860E0,5.686542988E0,-2.028276062E1,2.509472847E0
4.876962725E0,4.760520458E0,-1.966840363E1,1.597209096E0
4.881752256E0,4.485944271E0,-1.883988953E1,6.526423693E-1
4.886528454E0,4.492524624E0,-1.787139320E1,-8.733802289E-2
4.891291319E0,4.281357765E0,-1.685982895E1,-6.723831892E-1
4.896080850E0,3.558127165E0,-1.584527111E1,-9.044869542E-1
4.900857048E0,3.049054146E0,-1.494556999E1,-1.214357495E0
4.905619912E0,2.976671457E0,-1.371207047E1,-1.512263894E0
4.910409444E0,2.816352367E0,-1.273460197E1,-1.482951880E0
4.915185642E0,2.465205431E0,-1.159322548E1,-1.520638824E0
4.919948506E0,2.063809633E0,-1.008574772E1,-1.826920033E0
4.924738037E0,1.372283816E0,-8.449056625E0,-2.779263496E0
4.929514235E0,-4.384847581E-1,-6.138786316E0,-7.580461979E0
4.934277152E0,-3.010769129E0,-3.869792461E0,-2.093899345E1
4.939066631E0,-8.111668587E0,-2.008774519E0,-5.144987488E1
4.943842829E0,-9.763913155E0,-1.880160451E0,-5.618227768E1
4.948605746E0,-6.192625046E0,-3.177668571E0,-4.538287354E1
4.953395225E0,-3.134597540E-1,-4.147359848E0,-3.213919830E1
4.958171423E0,3.497110367E0,-4.643870354E0,-2.216710854E1
4.962934339E0,5.350949764E0,-4.883750916E0,-1.480020618E1
4.967723819E0,6.176473618E0,-5.221138954E0,-9.050253868E0
4.972500017E0,6.424130440E0,-6.152545452E0,-4.851448059E0
4.977262933E0,6.717849731E0,-7.420143127E0,-1.834098577E0
4.982052412E0,6.379265308E0,-7.946564198E0,-6.801598072E-1
4.986828610E0,6.448657036E0,-7.893323898E0,-9.343972206E-1
4.991591527E0,7.123433113E0,-7.448258877E0,-1.557129383E0
4.996381058E0,7.653443336E0,-6.955935478E0,-1.800599098E0
5.001157256E0,8.264211655E0,-6.482156754E0,-1.204187989E0
5.005920121E0,8.642276764E0,-6.004788399E0,-6.400800347E-1
5.010709652E0,8.938388824E0,-5.647061348E0,-2.434697002E-1
5.015485850E0,8.848658562E0,-5.161318302E0,5.862415582E-2
5.020248714E0,7.921439171E0,-4.744369030E0,4.037888348E-1
5.025038246E0,7.397411346E0,-4.244867325E0,6.658028960E-1
5.029814444E0,6.655037880E0,-3.668795347E0,8.374879360E-1
5.034577308E0,5.900102615E0,-3.227319479E0,1.310668588E0
5.039366839E0,5.292325497E0,-2.771486759E0,1.774876237E0
5.044143037E0,4.615755081E0,-2.358724833E0,1.888535261E0
5.048905902E0,4.031308174E0,-1.998605132E0,2.222334146E0
5.053695433E0,3.623331785E0,-1.710868239E0,2.507079840E0
5.058471631E0,3.081357241E0,-1.490728498E0,2.620140791E0
5.063234496E0,2.780459881E0,-1.265205026E0,2.673979282E0
5.068024027E0,2.436491728E0,-1.058225870E0,2.502892494E0
5.072800225E0,2.125424623E0,-1.006181955E0,2.240878344E0
5.077563089E0,2.080559254E0,-9.918249846E-1,1.895713687E0
5.082352621E0,1.550549030E0,-1.113260746E0,1.548156261E0
5.087128819E0,9.631111026E-1,-1.312463164E0,1.037886858E0
5.091891683E0,3.565305769E-1,-1.525424480E0,5.712863803E-1
5.096681214E0,-2.608176768E-1,-1.791625977E0,-2.225325108E-1
5.101457412E0,-7.363911867E-1,-2.355135679E0,-2.844467878E0
5.106220329E0,-9.930213690E-1,-3.601796389E0,-6.542575359E0
5.111009808E0,-7.645068169E-1,-5.069792747E0,-8.855836868E0
5.115786006E0,-2.949153781E-1,-6.166902065E0,-9.010771751E0
5.120548923E0,2.123630047E-1,-5.540580750E0,-5.774479389E0
5.125338402E0,1.027717352E0,-5.892325878E0,-1.757528186E0
5.130114600E0,1.098903775E0,-6.862615108E0,2.437688112E0
5.134877517E0,1.217348576E0,-1.021914768E1,9.949954987E0
5.139666996E0,1.592423439E0,-1.581595993E1,8.483154297E0
5.144443194E0,3.887738705E0,-2.453361130E1,-3.716651678E0
5.149206110E0,3.885345697E0,-3.361257935E1,-9.709476471E0
5.153995642E0,1.325623751E0,-4.128516388E1,-6.763313293E0
5.158771787E0,-1.009172916E0,-4.963910675E1,7.603194118E-1
5.163534704E0,-3.350549936E0,-5.427639771E1,5.196014404E0
5.168324235E0,-4.012165546E0,-5.401378250E1,5.324030399E0
5.173100433E0,-2.321037948E-1,-5.141218567E1,5.523232937E0
5.177863298E0,6.620940208E0,-4.650989151E1,4.567300320E0
5.182652829E0,1.013898754E1,-3.841198349E1,2.926422119E0
5.187429027E0,1.010548782E1,-3.120420265E1,3.607180119E0
5.192191892E0,9.087940216E0,-2.617807770E1,4.770689964E0
5.196981423E0,5.288736343E0,-2.216292191E1,2.541177750E0
5.201757621E0,2.900699139E0,-1.892662811E1,2.864208698E0
5.206520485E0,2.093719877E-2,-1.719960976E1,3.549154282E0
5.211310017E0,-2.196611166E0,-1.581835270E1,4.183850288E0
5.216086214E0,-2.408375978E0,-1.437308788E1,4.509872437E0
5.220849079E0,-2.177468538E0,-1.294636726E1,4.182055950E0
5.225638610E0,-1.376471281E0,-1.151844978E1,3.605385542E0
5.230414808E0,-1.074975610E0,-1.016770172E1,3.094517946E0
5.235177673E0,-1.367498159E0,-8.896514893E0,2.566900492E0
5.239967204E0,-1.746760488E0,-7.890332699E0,2.563311338E0
5.244743402E0,-1.959123492E0,-7.038487911E0,2.525624275E0
5.249506319E0,-1.869990945E0,-6.363711834E0,2.658426046E0
5.254295798E0,-1.737787485E0,-6.050251961E0,2.667398930E0
5.259071996E0,-1.815554142E0,-5.742774487E0,2.633899450E0
5.263834912E0,-1.868196249E0,-5.409573555E0,2.672184706E0
5.268624392E0,-1.987239242E0,-4.952544689E0,2.894119024E0
5.273400589E0,-2.527418852E0,-4.356133461E0,2.814557552E0
5.278163506E0,-2.871387243E0,-3.735794306E0,2.926422119E0
5.282952985E0,-2.910270452E0,-2.931207657E0,2.417349100E0
5.287729183E0,-3.044866800E0,-2.145763636E0,1.798206210E0
5.292492100E0,-3.609572887E0,-1.236491084E0,9.367900491E-1
5.297281579E0,-4.153341770E0,-2.548356056E-1,4.923232496E-1
5.302057777E0,-4.801198483E0,6.687939167E-1,2.991028316E-2
5.306820694E0,-5.781059742E0,1.462014675E0,-3.349951804E-1
5.311610225E0,-6.979863644E0,2.176870346E0,6.400800496E-2
5.316386371E0,-6.726224422E0,2.600399971E0,1.410568953E0
5.321149287E0,-5.992824078E0,2.572882652E0,3.005385160E0
5.325938819E0,-5.255236626E0,2.617149830E0,3.927818298E0
5.330715017E0,-4.467998028E0,2.705684185E0,4.278964996E0
5.335477881E0,-4.089334011E0,2.803191662E0,4.046263218E0
5.340267412E0,-3.684946775E0,2.736790895E0,4.001397610E0
5.345043610E0,-3.550350666E0,2.583052158E0,3.381058455E0
5.349806475E0,-3.527020693E0,2.299502611E0,2.306082726E0
5.354596006E0,-3.506681681E0,2.160718918E0,9.290133715E-1
5.359372204E0,-3.390629768E0,1.978266120E0,-4.247260094E-1
5.364135069E0,-3.133999348E0,1.733600020E0,-2.158325911E0
5.368924600E0,-2.986242771E0,1.672582984E0,-3.728017569E0
5.373700798E0,-2.466402054E0,1.987837434E0,-6.562914371E0
5.378463662E0,-3.702892959E-1,2.670988321E0,-1.354696560E1
5.383253194E0,1.684547186E0,2.933002472E0,-1.737308884E1
5.388029392E0,2.375474691E0,2.499901533E0,-1.430070496E1
5.392792256E0,2.609373093E0,1.688734531E0,-9.828518867E0
5.397581787E0,3.507279873E0,8.267202377E-1,-6.611967087E0
5.402357985E0,4.682155609E0,2.566302419E-1,-6.987041950E0
5.407120902E0,6.292525291E0,-2.644068897E-1,-7.730013371E0
5.411910381E0,7.613363266E0,-1.002592683E0,-7.625925541E0
5.416686579E0,8.086544037E0,-1.984846354E0,-6.955337048E0
5.421449496E0,7.616952896E0,-3.016751051E0,-7.292725086E0
5.426238975E0,6.139384747E0,-4.099503517E0,-7.486543655E0
5.431015173E0,2.757129908E0,-5.386841774E0,-2.592025042E0
5.435778089E0,-2.662015259E-1,-7.477570534E0,2.123630047E0
5.440567569E0,-1.186840057E0,-1.074138069E1,2.385046005E0
5.445343767E0,-1.966302037E0,-1.089751244E1,3.205185890E0
5.450106683E0,-3.098705292E0,-1.115533924E1,3.009572744E0
5.454896162E0,-4.068396568E0,-1.246840096E1,2.496910334E0
5.459672360E0,-5.428716183E0,-1.423490238E1,2.443071842E0
5.464435277E0,-8.105088234E0,-1.720439529E1,2.688934565E0
5.469224756E0,-1.186600780E1,-2.167957115E1,2.366501570E0
5.474000954E0,-1.654696655E1,-2.717349243E1,1.871785522E0
5.478763871E0,-2.117528343E1,-3.282653427E1,2.154138565E0
5.483553402E0,-2.287957191E1,-3.613640594E1,3.211168051E0
5.488329600E0,-2.077029800E1,-3.624229050E1,4.304089546E0
5.493092464E0,-1.486660671E1,-3.337090302E1,4.156332970E0
5.497881996E0,-7.767102242E0,-2.878625488E1,3.679563046E0
5.502658194E0,-3.262015581E0,-2.452583313E1,3.518645763E0
5.507421058E0,-8.494520187E-1,-2.078106689E1,3.263810158E0
5.512210589E0,4.791627228E-1,-1.793480301E1,2.568096876E0
5.516986787E0,2.015953064E0,-1.630289841E1,1.863410592E0
5.521749652E0,4.387838364E0,-1.586321735E1,1.010967612E0
5.526539183E0,6.156732559E0,-1.539123344E1,3.008974493E-1
5.531315381E0,6.004190445E0,-1.447597885E1,3.589233849E-3
5.536078246E0,4.180859566E0,-1.309771252E1,-2.949153781E-1
5.540867777E0,9.942178130E-1,-1.151067352E1,-6.400800496E-2
5.545643975E0,-1.848455548E0,-1.097827053E1,6.705885530E-1
5.550406839E0,-3.775275946E0,-1.116132164E1,1.299302697E0
5.555196371E0,-4.664807796E0,-1.183370399E1,1.722832322E0
5.559972569E0,-4.841278553E0,-1.273998642E1,1.925624013E0
5.564735433E0,-4.183252335E0,-1.379821205E1,1.707278967E0
5.569524964E0,-3.148356438E0,-1.495155239E1,1.462014675E0
5.574301162E0,-2.004587173E0,-1.578186131E1,1.389631748E0
5.579064079E0,-8.404789567E-1,-1.639621925E1,1.532602906E0
5.583853558E0,2.823530734E-1,-1.701536179E1,2.002792597E0
5.588629756E0,1.619342685E0,-1.749871254E1,2.547757864E0
5.593392673E0,2.866003275E0,-1.818545151E1,3.036491871E0
5.598182152E0,4.159324169E0,-1.873580170E1,3.346362352E0
5.602958350E0,5.575276852E0,-1.945544243E1,3.440280676E0
5.607721267E0,6.614958286E0,-1.988615036E1,3.588635683E0
5.612510746E0,7.240083218E0,-1.994297981E1,3.950550079E0
5.617286944E0,7.417750359E0,-1.968754578E1,4.261617184E0
5.622049860E0,7.268198967E0,-1.911386681E1,4.319045067E0
5.626839339E0,6.914659023E0,-1.857548141E1,4.306482315E0
5.631615537E0,6.321837425E0,-1.811964989E1,4.030709743E0
5.636391735E0,5.270191669E0,-1.768774414E1,3.503092289E0
5.641167933E0,4.465006828E0,-1.728993797E1,2.763710260E0
5.645944131E0,4.106083870E0,-1.664925957E1,1.948953986E0
5.650707048E0,3.685544968E0,-1.604806328E1,1.173081279E0
5.655496579E0,3.090330362E0,-1.529791355E1,7.154539824E-1
5.660272777E0,2.320439816E0,-1.460519123E1,4.492524564E-1
5.665035642E0,1.859821439E0,-1.380239964E1,1.537388563E-1
5.669825173E0,1.740180254E0,-1.283390427E1,-8.135596663E-2
5.674601371E0,1.816750646E0,-1.194197941E1,-3.888336718E-1
5.679364235E0,2.121835470E0,-1.103091240E1,-5.688936114E-1
5.684153767E0,2.265404940E0,-9.970293999E0,-7.052844763E-1
5.688929964E0,2.084746838E0,-8.838488579E0,-8.536394835E-1
5.693692829E0,1.370489120E0,-7.515257835E0,-1.037886858E0
5.698482360E0,1.920240223E-1,-6.014957905E0,-2.280359983E0
5.703258558E0,-9.457631707E-1,-4.773082733E0,-5.711667538E0
5.708021423E0,-2.310868502E0,-3.992424488E0,-1.307677555E1
5.712810954E0,-4.709673405E0,-3.647858143E0,-3.189513016E1
5.717587152E0,-7.777271748E0,-3.238685369E0,-5.733861160E1
5.722350017E0,-4.555934429E0,-4.268197536E0,-5.388516998E1
5.727139548E0,2.599203587E0,-5.456233978E0,-4.124747849E1
5.731915746E0,7.506882668E0,-5.937789440E0,-2.703829765E1
5.736678610E0,8.559724808E0,-5.776872158E0,-1.495514107E1
5.741468142E0,8.092526436E0,-5.772086620E0,-6.401398659E0
5.746244339E0,7.533802032E0,-6.045466423E0,-1.440479279E0
5.751007256E0,6.633502483E0,-6.833901405E0,1.045663476E0
5.755796735E0,5.825326920E0,-7.009773731E0,1.856830359E0
5.760572933E0,5.458626747E0,-6.634698868E0,2.021337032E0
5.765335850E0,5.288137913E0,-6.168098450E0,1.541576028E0
5.770125329E0,5.729613781E0,-5.342574596E0,1.073180914E0
5.774901527E0,6.978068829E0,-4.679762840E0,1.013958573E0
5.779664444E0,8.767900467E0,-4.386044025E0,1.282552958E0
5.784453923E0,9.936196327E0,-4.224528313E0,1.007378340E0
5.789230121E0,1.019701385E1,-3.905684710E0,2.955136001E-1
5.793993037E0,9.492925644E0,-3.526422262E0,-2.715853751E-1
5.798782517E0,8.425726891E0,-3.114258766E0,-2.135594189E-1
5.803558714E0,7.397411346E0,-2.664407969E0,-1.274178028E-1
5.808321631E0,6.305087566E0,-2.319841623E0,2.811566591E-1
5.813111162E0,5.185246468E0,-1.942373753E0,9.972088337E-1
5.817887360E0,4.026522160E0,-1.497906923E0,1.718046665E0
5.822650225E0,2.761317253E0,-1.105484009E0,1.935195327E0
5.827439756E0,2.023729801E0,-7.465606928E-1,2.020738840E0
5.832215954E0,1.393221021E0,-5.455635786E-1,1.793420553E0
5.836978819E0,7.674978375E-1,-6.861419082E-1,1.278365493E0
5.841768350E0,2.141576260E-1,-1.168893814E0,7.824530005E-1
5.846544548E0,-1.477568001E-1,-1.579861164E0,4.725824594E-1
5.851307412E0,-2.626122832E-1,-1.892722726E0,2.093719840E-1
5.856096944E0,-2.500499785E-1,-2.123630047E0,-1.884347796E-1
5.860873142E0,-1.064806059E-1,-2.465205431E0,-1.071984529E0
5.865636006E0,3.020938635E-1,-3.084946632E0,-2.935993433E0
5.870425537E0,9.206385016E-1,-3.896711588E0,-4.258625984E0
5.875201735E0,1.655235052E0,-4.814957142E0,-5.125426292E0
5.879964600E0,2.707478762E0,-5.645864964E0,-4.616353035E0
5.884754131E0,4.007977962E0,-6.376274109E0,-2.395813704E0
5.889530329E0,5.623731613E0,-7.969295979E0,1.853241086E0
5.894293246E0,8.062616348E0,-1.208554935E1,8.806783676E0
5.899082725E0,1.077847004E1,-1.822971916E1,5.389832973E0
5.903858923E0,1.061755180E1,-2.464368057E1,-2.532802820E0
5.908621787E0,4.683950424E0,-2.948495865E1,-3.746562004E0
5.913411319E0,-6.843472719E-1,-3.504887009E1,-2.270190477E0
5.918187517E0,-1.066600680E0,-4.260061646E1,2.046461582E0
5.922950433E0,-1.145563841E0,-4.956492996E1,5.746961594E0
5.927739912E0,-1.252642632E0,-5.294658661E1,4.325026989E0
5.932516110E0,2.049452543E0,-5.326004410E1,2.551347256E0
5.937279027E0,8.151748657E0,-5.021458054E1,1.649253011E0
5.942068506E0,7.863413334E0,-4.152923203E1,2.594418049E0
5.946844704E0,7.785048485E0,-3.342115021E1,3.361915827E0
5.951607621E0,6.120242119E0,-2.739363098E1,2.819343328E0
5.956397100E0,4.086941242E0,-2.243570328E1,2.759522676E0
5.961173298E0,1.328614831E0,-1.867538261E1,2.660220623E0
5.965936214E0,-1.211366415E0,-1.602712631E1,2.547159672E0
5.970725694E0,-2.037488461E0,-1.349910927E1,2.645265341E0
5.975501892E0,-2.106880426E0,-1.130249786E1,2.591426849E0
5.980264808E0,-1.931007862E0,-9.635298729E0,2.661417007E0
5.985054287E0,-2.158924341E0,-8.489136696E0,2.493919373E0
5.989830537E0,-2.781656265E0,-7.738986492E0,2.261217356E0
5.994593402E0,-3.466003656E0,-7.282555580E0,1.770688772E0
5.999382933E0,-3.886542082E0,-6.922435760E0,1.777269006E0
6.004159131E0,-3.437289715E0,-6.835097790E0,2.062613010E0
6.008921996E0,-3.404986620E0,-6.863811970E0,1.928615093E0
6.013711527E0,-3.100499868E0,-6.997809887E0,1.831107497E0
6.018487725E0,-2.792423964E0,-6.997211456E0,1.637288928E0
6.023250589E0,-2.583052158E0,-6.769295216E0,1.688734531E0
6.028040121E0,-2.961716175E0,-6.491129398E0,1.465005636E0
6.032816319E0,-2.973082066E0,-6.134599209E0,1.311266780E0
6.037579183E0,-2.679961443E0,-5.440082073E0,1.356730461E0
6.042368714E0,-2.933600664E0,-4.539184570E0,8.446664214E-1
6.047144912E0,-3.140579700E0,-3.446262836E0,3.020938635E-1
6.051907777E0,-3.479762316E0,-2.377867460E0,-1.764706671E-1
6.056697308E0,-3.750151396E0,-1.337587833E0,-3.577269912E-1
6.061473506E0,-4.033700943E0,-3.505485058E-1,-2.470589429E-1
6.066236371E0,-4.402793884E0,4.384847581E-1,5.318048596E-1
6.071025902E0,-4.793421745E0,1.188634634E0,1.617548108E0
6.075802100E0,-4.715056896E0,1.347159147E0,2.817548752E0
6.080565017E0,-4.231706619E0,1.618146300E0,3.457628727E0
6.085354496E0,-3.667598963E0,1.874178290E0,4.035495281E0
6.090130694E0,-3.096910715E0,2.063211441E0,4.089931965E0
6.094893610E0,-2.630908489E0,2.402393818E0,3.381656647E0
6.099683089E0,-2.328216314E0,2.629712105E0,2.472383976E0
6.104459287E0,-2.078166485E0,2.717648268E0,1.400997639E0
6.109222204E0,-2.191825628E0,2.636292458E0,-6.699903309E-2
6.114011683E0,-2.401197433E0,2.540579557E0,-2.527418852E0
6.118787881E0,-2.606980324E0,2.579462767E0,-5.055436134E0
6.123550798E0,-2.483749866E0,2.605185747E0,-7.503891945E0
6.128340277E0,-1.369890928E0,2.782852650E0,-1.045125103E1
6.133116475E0,1.079761267E0,2.833101988E0,-1.283450222E1
6.137879392E0,3.158525944E0,2.283949137E0,-1.157827091E1
6.142668871E0,4.433301926E0,9.643075466E-1,-6.847660065E0
6.147445121E0,4.996213913E0,-5.204389095E-1,-2.630908489E0
6.152207985E0,4.511667252E0,-1.933998942E0,-2.374876440E-1
6.156997517E0,4.308875561E0,-2.634497643E0,2.048256159E0
6.161773714E0,4.822135925E0,-3.192025423E0,2.453839540E0
6.166536579E0,5.362315655E0,-3.883551121E0,9.547362328E-1
6.171326110E0,5.344369411E0,-4.301696777E0,-1.516451359E0
6.176102308E0,4.957330227E0,-4.726422787E0,-2.694916487E0
6.180865173E0,4.622334957E0,-5.603392601E0,-3.474976778E0
6.185654704E0,4.499104977E0,-6.739983082E0,-4.874777794E0
6.190430902E0,3.234498024E0,-8.005785942E0,-4.622334957E0
6.195193767E0,4.666004330E-2,-8.968298912E0,-2.018944025E0
6.199983298E0,-1.491924882E0,-1.085503960E1,-3.372085333E0
6.204759496E0,-1.642074585E0,-1.555574036E1,-6.962515831E0
6.209522360E0,-2.763710260E0,-1.922991943E1,-7.923832417E0
6.214311892E0,-3.705285788E0,-1.925683784E1,-6.402595043E0
6.219088089E0,-3.473181963E0,-1.588056564E1,-3.151945591E0
6.223850954E0,-2.557329178E0,-1.369711494E1,-8.691928387E-1
6.228640485E0,-2.861217737E0,-1.362114334E1,1.064806059E-1
6.233416683E0,-4.423730850E0,-1.529133320E1,4.851447940E-1
6.238179600E0,-6.614958286E0,-1.772004890E1,3.206382394E-1
6.242969079E0,-9.032905579E0,-2.027438545E1,2.679961324E-1
6.247745277E0,-1.121336555E1,-2.187458611E1,7.555337548E-1
6.252508194E0,-1.271067429E1,-2.252423859E1,1.426122308E0
6.257297673E0,-1.294816113E1,-2.232742882E1,2.463410854E0
6.262073871E0,-1.111226845E1,-2.142294121E1,3.547359467E0
6.266836787E0,-7.932207108E0,-1.980120468E1,3.947559118E0
6.271626267E0,-4.661218643E0,-1.798624992E1,3.765704632E0
6.276402464E0,-2.276770830E0,-1.648236084E1,3.138785124E0
6.281165381E0,-8.572286963E-1,-1.535593891E1,2.472383976E0
6.285954860E0,-2.500499785E-1,-1.453998661E1,1.788036704E0
6.290731058E0,2.350948304E-1,-1.417747402E1,1.199402332E0
6.295493975E0,1.026520967E0,-1.401177120E1,7.824530005E-1
6.300283454E0,1.738385677E0,-1.394237900E1,1.320838094E0
6.305059704E0,2.127817631E0,-1.380718517E1,2.000399828E0
6.309822569E0,2.153540373E0,-1.390828133E1,2.321636200E0
6.314612048E0,1.657627940E0,-1.429472256E1,2.736790895E0
6.319388298E0,7.788637877E-1,-1.496232033E1,3.327818155E0
6.324151162E0,2.315055877E-1,-1.578246021E1,3.690928936E0
6.328940694E0,1.328016520E-1,-1.661635780E1,4.191627026E0
6.333716892E0,3.140579760E-1,-1.748375702E1,4.608576298E0
6.338479756E0,6.993024349E-1,-1.809512329E1,5.044070244E0
6.343269287E0,1.384846091E0,-1.858505440E1,5.650052547E0
6.348045485E0,2.093719721E0,-1.907438660E1,6.102295876E0
6.352808350E0,3.088535786E0,-1.950150490E1,6.764509678E0
6.357597881E0,4.497908592E0,-2.018704796E1,7.405786037E0
6.362374079E0,5.736792088E0,-2.088814545E1,8.114660263E0
6.367136944E0,6.725626469E0,-2.176272202E1,8.277970314E0
6.371926475E0,7.454240799E0,-2.219881439E1,7.344171047E0
6.376702673E0,7.724031448E0,-2.225504494E1,5.552545071E0
6.381465537E0,7.646862984E0,-2.177289200E1,4.064807415E0
6.386255069E0,7.466803074E0,-2.106940079E1,3.033500910E0
6.391031267E0,6.674778938E0,-2.032942200E1,2.292922258E0
6.395794183E0,5.916254044E0,-1.934776497E1,1.721037745E0
6.400583662E0,5.201996326E0,-1.824646950E1,1.339382529E0
6.405359860E0,4.387838364E0,-1.721695709E1,1.045663476E0
6.410122777E0,3.634099483E0,-1.632263947E1,1.211964726E0
6.414912256E0,2.779263496E0,-1.542353630E1,1.205982566E0
6.419688454E0,2.072782516E0,-1.435573959E1,1.310070395E0
6.424451371E0,1.579861164E0,-1.305165100E1,1.555932879E0
6.429240850E0,1.185643673E0,-1.173739338E1,1.533201098E0
6.434017048E0,5.527420044E-1,-1.066959572E1,1.401595831E0
6.438779964E0,1.830509305E-1,-9.879964828E0,1.182054400E0
6.443569444E0,-1.890329868E-1,-8.907281876E0,7.710871100E-1
6.448345642E0,-5.353940725E-1,-8.175676346E0,-1.591227055E-1
6.453108558E0,-7.268198729E-1,-7.813762188E0,-1.746760488E0
6.457898037E0,-1.086341500E0,-7.485945702E0,-5.210371494E0
6.462674235E0,-2.533999205E0,-6.713063717E0,-1.603909111E1
6.467437152E0,-8.607581139E0,-5.184648514E0,-6.189215088E1
6.472226683E0,-1.310548973E1,-4.842474937E0,-7.688976288E1
6.477002881E0,-6.765107632E0,-6.426523209E0,-5.524967575E1
6.481765746E0,1.788634896E0,-6.702894211E0,-3.670709610E1
6.486555277E0,6.029912949E0,-6.413960934E0,-2.444388008E1
6.491331475E0,7.540382385E0,-6.126224041E0,-1.455613804E1
6.496094339E0,7.386643410E0,-5.951548100E0,-7.525427341E0
6.500883871E0,6.557530403E0,-5.935994625E0,-3.105883837E0
6.505660069E0,5.907878876E0,-6.497709751E0,-7.166503668E-1
6.510422933E0,5.594419479E0,-7.462615490E0,4.899304509E-1
6.515212464E0,5.724828243E0,-7.317849636E0,8.063812256E-1
6.519988662E0,5.832505226E0,-6.888936520E0,8.440681696E-1
6.524751527E0,6.024528980E0,-6.320042610E0,1.432104349E0
6.529541058E0,6.454638958E0,-5.707480431E0,2.764308453E0
6.534317256E0,7.089933395E0,-5.205585480E0,3.485146284E0
6.539080121E0,8.056035995E0,-4.668396950E0,3.033500910E0
6.543869652E0,8.423932076E0,-4.237689018E0,2.042872429E0
6.548645850E0,8.242675781E0,-3.853042603E0,1.342373490E0
6.553408767E0,7.661220074E0,-3.449253798E0,1.272981644E0
6.558198246E0,6.994220734E0,-3.026920557E0,1.467996716E0
6.562974444E0,5.932405472E0,-2.567498684E0,1.521237016E0
6.567737360E0,5.097908497E0,-2.164308071E0,1.453639746E0
6.572526839E0,4.192225456E0,-1.814955950E0,1.338186026E0
6.577303037E0,3.401995659E0,-1.523031592E0,1.384846091E0
6.582065954E0,2.601596355E0,-1.255633712E0,1.403390527E0
6.586855433E0,1.972882271E0,-1.063609719E0,1.358525038E0
6.591631631E0,1.429113269E0,-9.397810698E-1,1.174277663E0
6.596394548E0,8.141579032E-1,-1.076171994E0,8.703892231E-1
6.601184027E0,5.222335458E-1,-1.327418327E0,5.748756528E-1
6.605960225E0,4.031906128E-1,-1.573280931E0,3.493520916E-1
6.610723142E0,3.152543902E-1,-1.876571178E0,-1.244267747E-1
6.615512673E0,3.846462369E-1,-2.261217356E0,-1.434497118E0
6.620288819E0,8.327022791E-1,-3.034697294E0,-4.133601189E0
6.625051735E0,1.319043517E0,-4.111467361E0,-6.914061069E0
6.629841267E0,2.254039049E0,-5.168497086E0,-8.626724243E0
6.634617464E0,2.845664263E0,-5.952146530E0,-8.691927910E0
6.639380329E0,2.892922640E0,-6.256632805E0,-6.589833736E0
6.644169860E0,3.132204771E0,-6.397211552E0,-3.366103172E0
6.648946058E0,3.652643681E0,-7.293921471E0,1.200598717E0
6.653708923E0,5.435894966E0,-1.052064323E1,7.945965767E0
6.658498454E0,7.006783009E0,-1.548754501E1,5.493920803E0
6.663274652E0,9.196813583E0,-2.360998154E1,-4.129413605E0
6.668037517E0,8.047660828E0,-3.326262665E1,-4.999204636E0
6.672827048E0,3.412763357E0,-4.173561096E1,-2.565105915E0
6.677603246E0,-8.685946465E-1,-4.883511734E1,3.163311481E0
6.682366110E0,-1.264606714E0,-5.500022507E1,8.242077827E0
6.687155642E0,-3.625724554E0,-5.642694473E1,6.528218269E0
6.691931839E0,-2.710469961E0,-5.403831100E1,2.648256540E0
6.696694704E0,2.250449657E0,-4.857130814E1,5.509474277E-1
6.701484235E0,5.796612740E0,-4.036691666E1,-2.458625287E-1
6.706260433E0,3.809373617E0,-3.197947693E1,-2.177468538E-1
6.711023350E0,4.700101852E0,-2.606202698E1,1.500898004E0
6.715812829E0,4.911866665E0,-2.210609245E1,2.480758905E0
6.720589027E0,2.700898647E0,-1.899901199E1,2.063211441E0
6.725351944E0,-5.383851007E-3,-1.678983879E1,3.270988464E0
6.730141423E0,-1.182652593E0,-1.491446400E1,3.981058598E0
6.734917621E0,-1.186241865E0,-1.336271763E1,3.437887907E0
6.739680537E0,-2.012962103E0,-1.204008579E1,3.508476257E0
6.744470017E0,-2.183450699E0,-1.070130062E1,3.537189960E0
6.749246214E0,-1.656431437E0,-9.582057953E0,3.288934708E0
6.754009131E0,-1.555334687E0,-8.622536659E0,3.124428272E0
6.758798610E0,-9.343972206E-1,-7.594819069E0,2.553740025E0
6.763574808E0,-9.266205430E-1,-6.712465763E0,1.925025821E0
6.768337725E0,-1.138983607E0,-6.019743443E0,1.728814363E0
6.773127204E0,-1.718644857E0,-5.568098068E0,1.429113269E0
6.777903402E0,-1.883749604E0,-5.149354458E0,1.031306505E0
6.782666319E0,-2.044667006E0,-4.744967461E0,6.484549642E-1
6.787455850E0,-1.998605132E0,-4.383052826E0,6.095715761E-1
6.792231996E0,-2.198405743E0,-4.089931965E0,6.867401004E-1
6.796994912E0,-2.359323025E0,-3.815953970E0,1.013958573E0
6.801784444E0,-2.355135679E0,-3.305086374E0,1.147358418E0
6.806560642E0,-2.536990166E0,-2.737389088E0,1.229910851E0
6.811323506E0,-2.806182861E0,-2.091925144E0,1.201795220E0
6.816113037E0,-3.264408350E0,-1.423729420E0,1.266401410E0
6.820889235E0,-3.872185230E0,-5.240281820E-1,1.244866014E0
6.825652100E0,-4.634897232E0,3.990031779E-1,1.468594909E0
6.830441631E0,-5.479563713E0,1.403390527E0,2.312064886E0
6.835217829E0,-5.988636971E0,1.917249203E0,3.408575773E0
6.839980694E0,-6.014359951E0,2.259422779E0,4.052245140E0
6.844770225E0,-5.382056236E0,2.472383976E0,4.120440483E0
6.849546423E0,-4.714458942E0,2.493321180E0,4.280161381E0
6.854309287E0,-4.054637909E0,2.379662037E0,4.104289055E0
6.859098819E0,-3.443870068E0,2.115255117E0,4.182653904E0
6.863875017E0,-3.092125177E0,1.654038668E0,3.960719585E0
6.868637933E0,-2.934198856E0,1.178465128E0,3.062214851E0
6.873427412E0,-2.670988321E0,8.991031051E-1,2.327019930E0
6.878203610E0,-2.384447813E0,6.550351977E-1,1.619940877E0
6.882966527E0,-2.032702923E0,5.647061467E-1,7.692924738E-1
6.887756006E0,-1.945364833E0,6.370890141E-1,2.644068897E-1
6.892532204E0,-1.786840320E0,6.472585201E-1,-2.931207716E-1
6.897295121E0,-1.887937069E0,7.004988194E-1,-1.180259824E0
6.902084600E0,-1.847259045E0,1.030110121E0,-3.757927895E0
6.906860798E0,-6.813562512E-1,1.805982947E0,-1.036750221E1
6.911623714E0,1.360319614E0,2.730808735E0,-1.995314980E1
6.916413194E0,3.229114056E0,2.678765059E0,-2.168555260E1
6.921189392E0,3.998406649E0,2.009372711E0,-1.913600159E1
6.925952308E0,3.736990690E0,1.029511929E0,-1.570289898E1
6.930741787E0,3.692125320E0,-8.554340899E-2,-1.039860916E1
6.935517985E0,4.136591911E0,-1.060618639E0,-5.117051125E0
6.940280902E0,3.878765583E0,-1.645663738E0,-1.635494232E0
6.945070433E0,2.959921598E0,-2.057827473E0,-4.067798555E-1
6.949846631E0,2.419741869E0,-2.373081923E0,-1.351944804E-1
6.954609496E0,1.810170293E0,-2.846860647E0,9.864411354E-1
6.959399027E0,9.900303483E-1,-4.294518471E0,2.330609322E0
6.964175225E0,-6.364908218E-1,-9.169894218E0,2.184048891E0
6.968938089E0,-3.684946895E-1,-1.207837009E1,1.565504193E0
6.973727621E0,-1.009172916E0,-1.137667561E1,1.486541033E0
6.978503819E0,-7.537391186E-1,-1.208913803E1,1.707278967E0
6.983266683E0,-1.308874011E0,-1.386820221E1,1.735394597E0
6.988056214E0,-2.504687071E0,-1.622154236E1,9.990034699E-1
6.992832412E0,-4.368097782E0,-1.882732582E1,6.269195080E-1
6.997595277E0,-8.058428764E0,-2.368834686E1,6.448656917E-1
7.002384808E0,-1.364447308E1,-2.976731110E1,5.150550604E-1
7.007161006E0,-1.868256187E1,-3.460260773E1,1.873580098E0
7.011923871E0,-2.059801483E1,-3.630390549E1,3.592823267E0
7.016713402E0,-1.900379753E1,-3.483590698E1,4.538586140E0
7.021489600E0,-1.444367599E1,-3.122095108E1,4.416552544E0
7.026252517E0,-8.994620323E0,-2.642872620E1,4.116253376E0
7.031041996E0,-5.447260857E0,-2.261396790E1,3.495315790E0
7.035818194E0,-3.159124136E0,-2.007338905E1,2.483151674E0
7.040581110E0,-3.337987661E-1,-1.854856300E1,1.545763373E0
7.045370589E0,2.967100143E0,-1.786541176E1,9.912267923E-1
7.050146787E0,6.157330990E0,-1.705843353E1,3.547359705E-1
7.054909704E0,7.440482140E0,-1.639023781E1,3.523431420E-1
7.059699183E0,6.899106026E0,-1.537508202E1,3.637090325E-1
7.064475381E0,4.459024906E0,-1.365703487E1,1.287338614E0
7.069238298E0,1.173081279E0,-1.226740360E1,2.321038008E0
7.074027777E0,-1.122233868E0,-1.196531010E1,2.947359324E0
7.078803975E0,-2.152343988E0,-1.231944752E1,3.120838881E0
7.083566892E0,-2.221137524E0,-1.306182098E1,3.131008387E0
7.088356423E0,-1.686341763E0,-1.388435364E1,3.056830883E0
7.093132569E0,-7.950153351E-1,-1.453221035E1,3.014358282E0
7.097908819E0,4.007977992E-2,-1.499282837E1,3.087339401E0
7.102685017E0,8.225327730E-1,-1.528953838E1,3.256033421E0
7.107461214E0,1.633699656E0,-1.551924992E1,3.601796389E0
7.112224079E0,2.496910334E0,-1.569512177E1,3.866203070E0
7.117013610E0,3.526422262E0,-1.593918991E1,4.043870449E0
7.121789808E0,4.527220249E0,-1.628794289E1,4.101297855E0
7.126552673E0,5.266004562E0,-1.675813293E1,4.045066833E0
7.131342204E0,5.732006550E0,-1.719123459E1,3.855435371E0
7.136118402E0,6.193821430E0,-1.756032753E1,3.762115479E0
7.140881267E0,6.300900459E0,-1.791207123E1,3.814757586E0
7.145670798E0,6.294320107E0,-1.823031807E1,4.107878208E0
7.150446996E0,5.553741455E0,-1.824706650E1,4.462016106E0
7.155223194E0,4.737788677E0,-1.780977821E1,4.355535507E0
7.159999392E0,4.319643021E0,-1.733420563E1,3.848257065E0
7.164775589E0,3.944568157E0,-1.707458496E1,3.365504980E0
7.169551787E0,3.653241873E0,-1.682872200E1,2.531606436E0
7.174327985E0,3.271586657E0,-1.657926941E1,1.651047587E0
7.179104183E0,3.208775282E0,-1.630888176E1,8.111668825E-1
7.183867100E0,3.410968781E0,-1.591825294E1,-1.118644550E-1
7.188656579E0,3.757329702E0,-1.553121376E1,-7.812566161E-1
7.193432777E0,3.905086517E0,-1.502513123E1,-1.247258782E0
7.198195694E0,3.820739508E0,-1.420140266E1,-1.405783296E0
7.202985173E0,3.556332588E0,-1.345962715E1,-1.476969719E0
7.207761371E0,3.320639610E0,-1.246361542E1,-1.409372568E0
7.212524287E0,2.938386202E0,-1.118285656E1,-1.033699393E0
7.217313767E0,2.201995134E0,-9.551549911E0,-7.435696125E-1
7.222089964E0,1.341177106E0,-7.640282631E0,-1.987837434E0
7.226852881E0,-3.290131316E-2,-6.566503525E0,-7.572685242E0
7.231642360E0,-2.526820660E0,-5.596213818E0,-2.518206596E1
7.236418558E0,-7.366902828E0,-4.407579422E0,-6.871408844E1
7.241181475E0,-4.969892502E0,-3.891327858E0,-6.931229401E1
7.245971006E0,2.274976015E0,-4.566701889E0,-4.951946640E1
7.250747204E0,6.420541286E0,-4.823930264E0,-3.448176956E1
7.255510069E0,7.173682213E0,-4.865804672E0,-2.327020073E1
7.260299600E0,6.886543751E0,-5.294120312E0,-1.436650753E1
7.265075798E0,5.945566177E0,-6.007779598E0,-8.342576027E0
7.269838662E0,5.127819061E0,-7.080960274E0,-4.033700943E0
7.274628194E0,4.628915310E0,-8.355736732E0,-7.663014531E-1
7.279404392E0,4.877768993E0,-8.321639061E0,3.266202807E-1
7.284167256E0,5.648257732E0,-7.881359577E0,1.219741344E0
7.288956787E0,6.713063717E0,-7.262814999E0,2.168495417E0
7.293732985E0,7.762316704E0,-6.518647194E0,2.263610125E0
7.298495850E0,7.863413334E0,-5.776273727E0,2.041675806E0
7.303285381E0,7.104888439E0,-5.084748268E0,2.145763636E0
7.308061579E0,5.973681927E0,-4.383651257E0,2.664407969E0
7.312824444E0,5.190032482E0,-3.731008768E0,3.177070379E0
7.317613975E0,4.649852753E0,-3.019144058E0,3.189034462E0
7.322390173E0,4.086342812E0,-2.456830740E0,3.133999348E0
7.327153089E0,3.524029493E0,-2.048854351E0,3.203989506E0
7.331942569E0,3.137588739E0,-1.635494232E0,3.205784082E0
7.336718767E0,2.797807932E0,-1.226919770E0,3.183052301E0
7.341481683E0,2.628515720E0,-8.751748800E-1,2.938984394E0
7.346271162E0,2.325823545E0,-6.544370055E-1,2.513062000E0
7.351047360E0,2.156531334E0,-5.437689424E-1,2.067996979E0
7.355810277E0,2.197209358E0,-5.096712112E-1,1.760519266E0
7.360599756E0,1.980658889E0,-6.209374666E-1,1.276570916E0
7.365375954E0,1.525424480E0,-8.141579032E-1,7.322037220E-1
7.370138871E0,1.256830096E0,-1.026520967E0,1.818545163E-1
7.374928350E0,9.762716293E-1,-1.388435364E0,-7.573283911E-1
7.379704548E0,9.296116233E-1,-2.186441660E0,-3.381058455E0
7.384467464E0,1.113260746E0,-3.273979664E0,-5.852844238E0
7.389256944E0,1.245464206E0,-4.337589264E0,-7.316653252E0
7.394033194E0,1.359123230E0,-4.786243439E0,-6.913462639E0
7.398796058E0,2.097309113E0,-4.953741074E0,-4.527818680E0
7.403585589E0,3.790829182E0,-5.385047436E0,-6.819544733E-2
7.408361787E0,6.155536175E0,-7.164709091E0,5.300700188E0
7.413124652E0,9.069993973E0,-1.109192944E1,1.301456261E1
7.417914183E0,9.970293999E0,-1.710569000E1,8.435895920E0
7.422690381E0,9.257232666E0,-2.326541519E1,-9.634700775E0
7.427453246E0,5.472385406E0,-2.878505898E1,-1.225005531E1
7.432242777E0,-8.237292171E-1,-3.387997437E1,-8.873783112E0
7.437018975E0,-4.349553585E0,-4.066123581E1,-8.267202377E-1
7.441781839E0,-1.085743308E0,-4.863591385E1,8.184051514E0
7.446571371E0,1.509272933E0,-5.344787979E1,9.186644554E0
7.451347569E0,2.142174482E0,-5.280780029E1,4.024129391E0
7.456110433E0,6.581458569E0,-4.630171585E1,2.033301115E0
7.460899964E0,9.981060982E0,-3.806502151E1,2.903092146E0
7.465676162E0,7.850851059E0,-3.063650513E1,2.395215511E0
7.470439079E0,8.601598740E0,-2.526342201E1,3.495913982E0
7.475228558E0,9.943374634E0,-2.152164459E1,3.232105255E0
7.480004756E0,6.488736629E0,-1.844088554E1,2.350350142E0
7.484767673E0,3.252444267E0,-1.609831238E1,2.687139750E0
7.489557152E0,8.063812256E-1,-1.407099342E1,2.880958557E0
7.494333350E0,-2.817548811E-1,-1.223809147E1,3.293122053E0
7.499096267E0,-9.529415965E-1,-1.095852947E1,3.943969965E0
7.503885746E0,-1.180259824E0,-9.692128181E0,3.991826296E0
7.508661944E0,-1.788036704E0,-8.734400749E0,3.168695450E0
7.513424860E0,-1.823330879E0,-7.881359577E0,2.553740025E0
7.518214339E0,-1.421336651E0,-7.191628456E0,2.407777786E0
7.522990537E0,-8.805587292E-1,-6.881757736E0,2.389831543E0
7.527753454E0,-7.770691514E-1,-6.905686378E0,2.169093609E0
7.532542933E0,-1.086939692E0,-6.973881721E0,2.045863390E0
7.537319183E0,-1.543968797E0,-7.013363361E0,1.875374794E0
7.542082048E0,-1.780260086E0,-7.028318405E0,2.198405743E0
7.546871579E0,-2.340180635E0,-6.952944279E0,2.455035925E0
7.551647777E0,-2.734996319E0,-6.664609432E0,2.648854733E0
7.556410642E0,-2.557927370E0,-5.985047817E0,2.364706993E0
7.561200173E0,-2.667398930E0,-5.267200947E0,1.966302037E0
7.565976371E0,-2.831905603E0,-4.414159775E0,1.232303619E0
7.570739235E0,-3.193221807E0,-3.369094372E0,2.063809484E-1
7.575528767E0,-3.245863914E0,-2.236690998E0,2.392822690E-2
7.580304964E0,-3.728017569E0,-1.009172916E0,-4.444667995E-1
7.585067829E0,-4.916652203E0,1.375873014E-2,-5.210371017E-1
7.589857360E0,-6.409175396E0,7.806583643E-1,-5.952146053E-1
7.594633558E0,-7.835896015E0,1.321436286E0,4.767699242E-1
7.599396423E0,-7.935198307E0,1.840678811E0,1.701296926E0
7.604185954E0,-7.331010342E0,2.521436930E0,2.105085611E0
7.608962152E0,-6.597012043E0,3.212364435E0,1.880160451E0
7.613725017E0,-6.019743443E0,3.652643681E0,1.463809252E0
7.618514548E0,-5.758925915E0,4.077369690E0,8.530412912E-1
7.623290746E0,-5.535795212E0,4.058825493E0,-1.674975827E-2
7.628053662E0,-5.238486767E0,4.060021877E0,-1.217946768E0
7.632843142E0,-5.221138954E0,4.022335052E0,-3.022733212E0
7.637619339E0,-4.649852753E0,3.875774384E0,-5.468197823E0
7.642382256E0,-3.434298754E0,3.557528973E0,-9.154939651E0
7.647171735E0,-5.581258535E-1,3.504288673E0,-1.344108295E1
7.651947933E0,3.046063185E0,3.253042459E0,-1.555215073E1
7.656710850E0,5.288736343E0,2.218146563E0,-1.423849106E1
7.661500329E0,6.499504566E0,1.232303619E0,-1.198385429E1
7.666276527E0,6.719644070E0,4.606183618E-2,-9.281759262E0
7.671039444E0,6.856633186E0,-7.106683254E-1,-8.245666504E0
7.675828975E0,6.576074600E0,-1.517049551E0,-6.338587284E0
7.680605173E0,5.183452129E0,-2.644068956E0,-2.836691141E0
7.685368037E0,2.288734913E0,-3.577269793E0,-4.791627228E-1
7.690157569E0,-1.998006850E-1,-3.814757586E0,-6.969096065E-1
7.694933767E0,-1.178465128E0,-3.556930780E0,-1.066002488E0
7.699696631E0,-2.027917147E0,-3.437887907E0,-5.910272002E-1
7.704486162E0,-2.715255499E0,-3.743571043E0,-2.895315289E-1
7.709262360E0,-3.532404423E0,-4.429712772E0,2.428714931E-1
7.714025225E0,-4.477569580E0,-5.694917679E0,1.361516118E0
7.718814756E0,-4.573282242E0,-7.170093060E0,2.040479422E0
7.723590954E0,-4.201796532E0,-8.388039589E0,2.303091764E0
7.728353819E0,-4.152743816E0,-8.946166039E0,2.250449657E0
7.733143350E0,-4.508676052E0,-1.054217815E1,1.547558069E0
7.737919548E0,-5.913262844E0,-1.336331654E1,1.384247899E0
7.742682412E0,-8.723632812E0,-1.746581078E1,1.862812400E0
7.747471944E0,-1.325205040E1,-2.348974228E1,2.672184706E0
7.752248142E0,-1.918565178E1,-3.081297493E1,3.279363394E0
7.757011058E0,-2.402872467E1,-3.720420456E1,4.748556614E0
7.761800537E0,-2.443909454E1,-4.103092575E1,5.559723377E0
7.766576735E0,-1.991486549E1,-4.169912338E1,5.215754986E0
7.771339652E0,-1.114576817E1,-3.818885040E1,4.054039955E0
7.776129131E0,-4.146761417E0,-3.352703476E1,2.713460922E0
7.780905329E0,1.615155339E-1,-2.964767075E1,1.987837434E0
7.785668246E0,3.930211306E0,-2.606381989E1,1.755135417E0
7.790457725E0,6.796214581E0,-2.269412804E1,1.392024517E0
7.795233923E0,7.652844906E0,-1.943988991E1,1.586441398E0
7.799996839E0,6.318846226E0,-1.608036613E1,1.557727575E0
7.804786319E0,2.943171740E0,-1.298106289E1,2.014756680E0
7.809562517E0,-4.725824669E-2,-1.115294647E1,2.518445730E0
7.814325433E0,-1.932204247E0,-1.029093170E1,2.854039192E0
7.819114964E0,-2.715255499E0,-1.024965572E1,3.280559778E0
7.823891162E0,-2.563311338E0,-1.075035381E1,3.672982693E0
7.828654027E0,-1.765304923E0,-1.151904774E1,3.837489367E0
7.833443558E0,-7.250252366E-1,-1.237388420E1,3.948157310E0
7.838219756E0,4.725824594E-1,-1.325264835E1,4.024129391E0
7.842982621E0,1.531406522E0,-1.399262905E1,4.057629108E0
7.847772152E0,2.574677229E0,-1.455793285E1,3.932604074E0
7.852548350E0,3.646063566E0,-1.493181133E1,3.946960926E0
7.857311214E0,4.616951466E0,-1.509811306E1,3.873979807E0
7.862100746E0,5.607579708E0,-1.544686699E1,3.797409534E0
7.866876944E0,6.222535133E0,-1.592782402E1,3.789632797E0
7.871639808E0,6.533003807E0,-1.645663834E1,3.730410576E0
7.876429339E0,6.589833736E0,-1.694776535E1,3.423531055E0
7.881205537E0,6.546762943E0,-1.730429459E1,3.117249727E0
7.885968454E0,6.337390900E0,-1.760339737E1,2.941377163E0
7.890757933E0,6.013163090E0,-1.788814354E1,2.784647465E0
7.895534131E0,5.310271740E0,-1.790429497E1,2.918047190E0
7.900310329E0,4.463810444E0,-1.764168358E1,3.157329559E0
7.905086527E0,3.684348583E0,-1.726301956E1,3.491726398E0
7.909862725E0,2.676970243E0,-1.681735611E1,3.160918713E0
7.914625642E0,2.123630047E0,-1.634597015E1,2.309073925E0
7.919415121E0,1.860419631E0,-1.622573090E1,1.317248821E0
7.924191319E0,2.081157446E0,-1.608036613E1,1.495514214E-1
7.928954235E0,2.455035925E0,-1.591526127E1,-7.692924738E-1
7.933743714E0,2.978466034E0,-1.549412441E1,-1.357328653E0
7.938519912E0,3.388236761E0,-1.519442368E1,-1.859223247E0
7.943282829E0,3.826123476E0,-1.478405476E1,-2.336591244E0
7.948072360E0,3.997808456E0,-1.420020580E1,-2.726621389E0
7.952848506E0,4.156332970E0,-1.353440285E1,-3.030509949E0
7.957611423E0,4.130012035E0,-1.248933792E1,-3.640081406E0
7.962400954E0,3.692125320E0,-1.145384407E1,-5.404788017E0
7.967177152E0,1.751546144E0,-9.137591362E0,-1.270528984E1
7.971940017E0,-1.797009826E0,-6.925426960E0,-3.421676636E1
7.976729548E0,-5.622535229E0,-5.755336761E0,-5.246802139E1
7.981505746E0,-3.270988464E0,-6.053841114E0,-5.080440903E1
7.986268610E0,2.861217737E0,-6.515655994E0,-4.091188431E1
7.991058142E0,7.782057285E0,-6.466004848E0,-2.892563629E1
7.995834339E0,9.181859016E0,-5.879165173E0,-1.901396751E1
8.000597204E0,9.454042435E0,-5.896512985E0,-1.180199909E1
8.005386735E0,8.316255569E0,-5.934798241E0,-7.232306480E0
8.010162933E0,6.766902447E0,-6.431309223E0,-4.157529354E0
8.014925850E0,5.453242779E0,-7.770093441E0,-1.831705689E0
8.019715329E0,5.486144066E0,-8.560921669E0,-7.274180651E-1
8.024491527E0,5.934798241E0,-8.280363083E0,-1.113858938E0
8.029254444E0,6.644868374E0,-7.801199913E0,-1.453639746E0
8.034043923E0,7.439285755E0,-7.130013466E0,-1.170688510E0
8.038820121E0,7.506882668E0,-6.286543369E0,-5.569294691E-1
8.043583037E0,7.506882668E0,-5.486742496E0,-1.543370634E-1
8.048372517E0,6.753143787E0,-4.641477585E0,-2.632104978E-2
8.053148714E0,5.971288681E0,-4.055236340E0,5.383851007E-2
8.057911631E0,5.085944653E0,-3.638885021E0,2.644068897E-1
8.062701162E0,4.227519512E0,-3.105883837E0,9.020941257E-1
8.067477308E0,3.671786308E0,-2.606980324E0,1.403390527E0
8.072240225E0,3.063411236E0,-2.073380709E0,1.709073544E0
8.077029756E0,2.462812662E0,-1.569093466E0,1.836491346E0
8.081805954E0,1.920240164E0,-1.160519004E0,1.978266120E0
8.086568819E0,1.504487276E0,-8.099704385E-1,1.917847395E0
8.091358350E0,1.069591761E0,-4.935196638E-1,1.756929994E0
8.096134548E0,7.298108935E-1,-2.386840582E-1,1.556531072E0
8.100897412E0,5.324030519E-1,-6.520441920E-2,1.264606714E0
8.105686944E0,4.540380836E-1,3.589234129E-2,1.001396298E0
8.110463142E0,4.438686073E-1,9.870393574E-2,8.763712645E-1
8.115226006E0,5.294120312E-1,1.034895778E-1,8.805587292E-1
8.120015537E0,6.239284873E-1,4.127619043E-2,7.363911867E-1
8.124791735E0,6.323033571E-1,-1.663011760E-1,4.384847581E-1
8.129554600E0,3.421736360E-1,-4.941178858E-1,2.769692242E-1
8.134344131E0,3.140579760E-1,-7.495517135E-1,2.249253243E-1
8.139120329E0,4.851447940E-1,-9.708877802E-1,8.973085135E-2
8.143896527E0,7.022934556E-1,-1.157527924E0,-4.097708762E-1
8.148672725E0,9.421738982E-1,-1.489532113E0,-1.711466432E0
8.153448923E0,1.064806104E0,-2.143370867E0,-3.041277647E0
8.158211839E0,8.721838593E-1,-2.915056229E0,-3.111865759E0
8.163001319E0,7.232306600E-1,-4.351946354E0,-1.633101404E-1
8.167777517E0,-1.351944804E-1,-8.434102058E0,9.125029564E0
8.172540433E0,1.175474167E0,-1.545165253E1,1.122532940E1
8.177329912E0,4.702494621E0,-2.824786949E1,-2.355733871E0
8.182106110E0,5.673382282E0,-4.172544479E1,-1.338425350E1
8.186869027E0,3.273979664E0,-5.194698334E1,-8.152944565E0
8.191658506E0,5.297709465E0,-6.197889328E1,4.743172646E0
8.196434756E0,6.717849731E0,-6.717071533E1,9.480961800E0
8.201197621E0,8.784051895E0,-6.663472748E1,6.868597507E0
8.205987152E0,1.361575890E1,-5.885506058E1,2.831307411E0
8.210763350E0,1.334297752E1,-4.599124908E1,1.590030670E0
8.215526214E0,7.678567886E0,-3.613341522E1,8.261220455E-1
8.220315746E0,3.867997885E0,-2.927678299E1,6.921239495E-1
8.225091944E0,2.661417007E0,-2.415434837E1,1.414158225E0
8.229854808E0,4.759324074E0,-2.041616058E1,3.349353552E0
8.234644339E0,3.569493294E0,-1.736949921E1,3.324826956E0
8.239420537E0,1.073180914E0,-1.478345680E1,3.364308596E0
8.244183402E0,-5.964110494E-1,-1.253779221E1,3.126821041E0
8.248972933E0,-1.637288928E0,-1.045364380E1,2.790629387E0
8.253749131E0,-2.081157446E0,-8.643473625E0,2.742773056E0
8.258512048E0,-1.966302037E0,-7.029514790E0,2.947957516E0
8.263301527E0,-1.663609982E0,-5.790032387E0,2.532802820E0
8.268077725E0,-1.392024517E0,-4.945964336E0,2.151745796E0
8.272840642E0,-1.102493048E0,-4.333401680E0,1.679761529E0
8.277630121E0,-7.423732281E-1,-4.202394962E0,1.447059512E0
8.282406319E0,-8.338986635E-1,-4.284348965E0,1.269990563E0
8.287169235E0,-1.424327731E0,-4.410570145E0,1.042672515E0
8.291958714E0,-2.298904419E0,-4.571487427E0,1.138385415E0
8.296734912E0,-2.434098721E0,-4.519443989E0,1.575673699E0
8.301497829E0,-2.632703066E0,-4.360919476E0,1.850848317E0
8.306287308E0,-2.831905603E0,-4.154538155E0,2.163111687E0
8.311063506E0,-2.784049034E0,-3.764508247E0,2.411965132E0
8.315826423E0,-2.638685226E0,-3.175873756E0,2.324627161E0
8.320615902E0,-2.757129908E0,-2.333002090E0,2.127817631E0
8.325392152E0,-3.662214994E0,-1.526022673E0,1.565504193E0
8.330155017E0,-4.800002098E0,-6.903293133E-1,1.033699393E0
8.334944548E0,-6.117250919E0,-4.247260094E-2,8.386843204E-1
8.339720746E0,-7.092924595E0,3.882354796E-1,1.683350682E0
8.344483610E0,-7.635497093E0,7.280163169E-1,2.664407969E0
8.349273142E0,-7.545766354E0,1.152144074E0,3.575475216E0
8.354049339E0,-6.886543751E0,1.755733609E0,4.296911240E0
8.358812204E0,-5.962913990E0,2.263610125E0,4.617549419E0
8.363601735E0,-5.076971531E0,2.757129908E0,4.353740692E0
8.368377933E0,-4.531407833E0,2.931805849E0,4.182653904E0
8.373140798E0,-4.134199142E0,3.049054146E0,3.058027267E0
8.377930329E0,-3.644268990E0,2.973680258E0,2.205584288E0
8.382706527E0,-3.525225878E0,2.858824968E0,1.355534077E0
8.387469392E0,-3.397209883E0,2.778067112E0,-2.907279432E-1
8.392258923E0,-3.359523058E0,2.557329178E0,-2.095514536E0
8.397035121E0,-3.580260992E0,2.383849621E0,-3.312862873E0
8.401798037E0,-3.762713671E0,2.563311338E0,-6.551548481E0
8.406587517E0,-4.048057556E0,3.525824070E0,-1.692144394E1
8.411363714E0,-1.710269928E0,5.112265587E0,-2.916731071E1
8.416126631E0,1.211964726E0,4.378865242E0,-2.235793686E1
8.420916110E0,2.357528448E0,3.010170937E0,-1.459801292E1
8.425692308E0,2.756531715E0,1.067198873E0,-8.633902550E0
8.430455225E0,2.703889608E0,-8.183453679E-1,-5.080560684E0
8.435244704E0,3.002394199E0,-1.984846354E0,-2.806182861E0
8.440020902E0,3.400201082E0,-2.533999205E0,-1.037886858E0
8.444783819E0,3.265604734E0,-2.684746981E0,1.074975610E0
8.449573350E0,2.354537487E0,-3.053241730E0,2.798406124E0
8.454349548E0,9.499505758E-1,-4.690530777E0,3.300898790E0
8.459112412E0,5.982056726E-3,-6.291927338E0,2.894119024E0
8.463901944E0,-2.177468538E-1,-7.140182972E0,2.458625317E0
8.468678142E0,-1.806581169E-1,-7.785048485E0,1.950748682E0
8.473441006E0,1.022931710E-1,-8.815756798E0,1.743769526E0
8.478230537E0,5.904290080E-1,-1.011984539E1,1.593021631E0
8.483006735E0,1.003789067E0,-1.142991543E1,1.548156261E0
8.487769600E0,8.871390224E-1,-1.300499153E1,1.103689432E0
8.492559131E0,1.489532143E-1,-1.490967751E1,7.256234884E-1
8.497335329E0,-8.518448472E-1,-1.627119446E1,1.340578914E0
8.502098194E0,-1.950150490E0,-1.805145454E1,2.029113531E0
8.506887725E0,-4.666602135E0,-2.102573204E1,2.035693884E0
8.511663923E0,-8.986245155E0,-2.466940308E1,2.545365095E0
8.516426839E0,-1.356550980E1,-2.789851761E1,2.768495798E0
8.521216319E0,-1.767578125E1,-2.991865730E1,4.897509575E0
8.525992517E0,-1.852583122E1,-3.004667473E1,6.658627033E0
8.530755433E0,-1.528176212E1,-2.826701164E1,7.475776196E0
8.535544912E0,-1.118166065E1,-2.583291245E1,7.044469833E0
8.540321110E0,-6.645466805E0,-2.348435783E1,5.488536835E0
8.545084027E0,-2.633899450E0,-2.204327965E1,4.007977962E0
8.549873506E0,1.223330617E0,-2.113699913E1,2.797209740E0
8.554649756E0,4.768895626E0,-2.008774567E1,1.947757602E0
8.559412621E0,6.589235306E0,-1.876331902E1,1.582253933E0
8.564202152E0,7.122236729E0,-1.729711723E1,1.592423439E0
8.568978350E0,5.225326538E0,-1.506162167E1,1.394417405E0
8.573741214E0,9.930213690E-1,-1.286979675E1,1.381256819E0
8.578530746E0,-2.402992249E0,-1.148136139E1,1.436291814E0
8.583306944E0,-4.785645485E0,-1.048953629E1,1.381256819E0
8.588069808E0,-6.414559364E0,-9.978070259E0,1.345962763E0
8.592859339E0,-7.177271366E0,-9.792028427E0,1.172483087E0
8.597635537E0,-7.216753006E0,-9.796813965E0,9.756734371E-1
8.602398402E0,-6.708278179E0,-1.005523872E1,7.142575383E-1
8.607187933E0,-5.855835438E0,-1.072283649E1,4.845465720E-1
8.611964131E0,-4.788038254E0,-1.152981567E1,3.738785386E-1
8.616740329E0,-3.529413462E0,-1.242233849E1,3.439682424E-1
8.621516527E0,-2.008176327E0,-1.350748348E1,3.942175210E-1
8.626292725E0,-3.571287692E-1,-1.471825218E1,5.359922647E-1
8.631055642E0,1.194018483E0,-1.605404472E1,6.681957245E-1
8.635845121E0,2.233101845E0,-1.741017723E1,1.018744230E0
8.640621319E0,3.210569859E0,-1.867478371E1,1.469791293E0
8.645384235E0,4.117449760E0,-1.996870232E1,2.013560295E0
8.650173714E0,5.053043365E0,-2.131586266E1,2.657229662E0
8.654949912E0,5.960521221E0,-2.238844490E1,3.416352510E0
8.659712829E0,6.863213539E0,-2.327319145E1,4.286143780E0
8.664502308E0,7.467999458E0,-2.384986115E1,4.815555573E0
8.669278558E0,7.833503246E0,-2.386362076E1,4.688735962E0
8.674041423E0,7.790432453E0,-2.327558327E1,4.199403763E0
8.678830954E0,7.588238716E0,-2.222034836E1,3.609572887E0
8.683607152E0,7.286743164E0,-2.088216400E1,3.346362352E0
8.688370017E0,6.351747513E0,-1.929452515E1,3.608974695E0
8.693159548E0,5.294718266E0,-1.780319786E1,3.565305710E0
8.697935746E0,4.603790760E0,-1.633580017E1,3.395415306E0
8.702698610E0,4.084548473E0,-1.507478237E1,3.119044304E0
8.707488142E0,3.740580082E0,-1.425105381E1,2.577668190E0
8.712264339E0,3.263211966E0,-1.345244884E1,1.941775560E0
8.717027204E0,3.042474031E0,-1.277827072E1,1.217348576E0
8.721816735E0,2.955136061E0,-1.205025482E1,4.923232496E-1
8.726592933E0,2.986242771E0,-1.119242764E1,-1.268195957E-1
8.731355850E0,3.237488985E0,-1.048833942E1,-7.100701332E-1
8.736145329E0,3.159722328E0,-9.573084831E0,-1.295115232E0
8.740921527E0,2.951546669E0,-8.431110382E0,-2.067996979E0
8.745684444E0,2.388036966E0,-7.241877556E0,-3.299104214E0
8.750473923E0,1.082752228E0,-5.537590027E0,-8.159524918E0
8.755250121E0,-1.050449133E0,-3.594019651E0,-2.462992096E1
8.760013037E0,-5.215754986E0,-9.918249846E-1,-6.751348877E1
8.764802517E0,-3.434298754E0,-1.321436286E0,-6.506982422E1
8.769578714E0,2.938386202E0,-3.198007345E0,-4.610729980E1
8.774341631E0,6.072983742E0,-3.863212109E0,-3.007060242E1
8.779131162E0,6.953542709E0,-4.005585194E0,-1.906601143E1
8.783907360E0,6.869195461E0,-4.259822369E0,-1.038843918E1
8.788670225E0,6.757331371E0,-5.207380295E0,-4.259224415E0
8.793459756E0,6.661019802E0,-6.832705021E0,-6.340979934E-1
8.798235954E0,7.281957626E0,-7.357331276E0,2.650051117E-1
8.802998819E0,7.948956966E0,-7.071389198E0,-1.603191197E-1
8.807788350E0,8.140382767E0,-6.174678802E0,-2.721835673E-1
8.812564548E0,8.922835350E0,-5.478965759E0,1.186241865E0
8.817327412E0,9.842277527E0,-4.899902344E0,2.404786825E0
8.822116944E0,1.047458076E1,-4.643272400E0,3.346960783E0
8.826893142E0,1.024068260E1,-4.181457520E0,3.405584812E0
8.831656006E0,8.539385796E0,-3.660420418E0,3.241078377E0
8.836445537E0,7.739584923E0,-2.963510752E0,2.760719061E0
8.841221735E0,6.548557281E0,-2.305484533E0,2.036292076E0
8.845984652E0,5.285745144E0,-1.716252089E0,1.198205948E0
8.850774131E0,4.153341770E0,-1.217348576E0,7.190431952E-1
8.855550329E0,3.338585854E0,-8.099704385E-1,7.663014531E-1
8.860313246E0,2.745764017E0,-4.360919297E-1,1.281954765E0
8.865102725E0,2.234896421E0,-1.627119333E-1,1.861017823E0
8.869878923E0,1.855633974E0,1.256231815E-1,2.265404940E0
8.874641839E0,1.698904037E0,2.404786795E-1,2.381456852E0
8.879431319E0,1.727019787E0,2.500499785E-1,2.342573404E0
8.884207517E0,1.811964989E0,2.219343036E-1,2.136192322E0
8.888970433E0,2.000998020E0,1.112662554E-1,1.880758643E0
8.893759964E0,2.122433662E0,8.315058798E-2,1.529611826E0
8.898536162E0,1.870589137E0,-9.092725813E-2,1.463809252E0
8.903299027E0,1.448255897E0,-5.449653864E-1,1.389631748E0
8.908088558E0,1.228116274E0,-9.499505758E-1,9.930213690E-1
8.912864756E0,1.380658627E0,-1.234098315E0,1.573280841E-1
8.917627621E0,1.837687731E0,-1.727617979E0,-1.682154298E0
8.922417152E0,2.574677229E0,-2.544168711E0,-3.759124279E0
8.927193350E0,3.500101328E0,-3.582055569E0,-5.486144066E0
8.931956214E0,4.399204254E0,-4.610371113E0,-6.046662807E0
8.936745746E0,5.249852657E0,-5.336592674E0,-3.512065411E0
8.941521944E0,6.389434814E0,-6.911668301E0,8.219345808E-1
8.946284860E0,7.872984886E0,-1.170568848E1,9.911669731E0
8.951074339E0,1.074556828E1,-1.913360786E1,2.702693224E0
8.955850537E0,9.153742790E0,-2.817787933E1,-4.993820667E0
8.960613454E0,2.712862730E0,-3.490470123E1,-4.438087940E0
8.965402933E0,-1.644467354E0,-4.260600281E1,1.298106313E-1
8.970179131E0,-2.665006161E0,-4.971268463E1,4.560121536E0
8.974942048E0,-2.445464849E0,-5.554698563E1,6.290730953E0
8.979731527E0,-7.956135273E-1,-5.878926086E1,4.379463673E0
8.984507725E0,3.387040377E0,-5.699942780E1,7.429714203E-1
8.989270642E0,6.116652966E0,-4.994897461E1,3.535395563E-1
8.994060121E0,5.070391178E0,-3.932364655E1,5.970092416E-1
8.998836319E0,2.857628345E0,-2.998745155E1,2.572284266E-2
9.003599235E0,3.870988846E0,-2.416990089E1,8.374879360E-1
9.008388767E0,3.567698479E0,-1.991665840E1,8.883354068E-1
9.013164964E0,2.675773859E0,-1.659960938E1,1.533799291E0
9.017927829E0,-4.426721856E-2,-1.462074471E1,1.162911773E0
9.022717360E0,-3.280559778E0,-1.294816113E1,1.893320918E0
9.027493558E0,-4.944767952E0,-1.133839035E1,2.188834429E0
9.032256423E0,-5.583651543E0,-1.012104130E1,2.551347256E0
9.037045954E0,-5.065007210E0,-9.344570160E0,3.013760090E0
9.041822152E0,-3.893720627E0,-8.719446182E0,2.781656265E0
9.046585017E0,-3.100499868E0,-8.072187424E0,2.095514536E0
9.051374548E0,-2.045863390E0,-7.683951855E0,1.989033818E0
9.056150746E0,-2.061416626E0,-7.664809227E0,1.787438512E0
9.060913662E0,-2.015953064E0,-7.630711555E0,1.503889084E0
9.065703142E0,-2.097309113E0,-7.476972580E0,1.441675663E0
9.070479339E0,-2.392822742E0,-7.202994347E0,1.486541033E0
9.075242256E0,-3.007179976E0,-6.881757736E0,1.643270969E0
9.080031735E0,-3.460021496E0,-6.386443615E0,1.707877159E0
9.084807933E0,-3.602394581E0,-5.785246849E0,2.101496458E0
9.089570850E0,-3.586841106E0,-4.913063049E0,1.975873351E0
9.094360329E0,-3.521636724E0,-3.756133318E0,1.604985833E0
9.099136579E0,-3.638286829E0,-2.561516523E0,1.009771109E0
9.103899444E0,-3.816552162E0,-1.395613790E0,5.593222976E-1
9.108688975E0,-3.756133318E0,-3.308077157E-1,8.267202377E-1
9.113465173E0,-3.628715515E0,8.255237937E-1,4.935196638E-1
9.118228037E0,-4.098307133E0,1.619940877E0,4.091726840E-1
9.123017569E0,-4.835296154E0,2.239681959E0,7.393822074E-1
9.127793767E0,-5.580062389E0,2.858226538E0,2.206182480E0
9.132556631E0,-5.723631859E0,3.358326674E0,3.943969965E0
9.137346162E0,-5.571089268E0,3.917050600E0,5.104488850E0
9.142122360E0,-4.886143684E0,4.347160339E0,5.273182869E0
9.146885225E0,-4.320241451E0,4.878965378E0,4.750949383E0
9.151674756E0,-4.057030678E0,5.385645390E0,2.955136061E0
9.156450954E0,-4.100699902E0,5.859424591E0,-9.272187948E-2
9.161213871E0,-4.426123619E0,6.072385788E0,-3.460021496E0
9.166003350E0,-4.302893162E0,6.377470493E0,-6.455835342E0
9.170779548E0,-2.979662418E0,5.891129494E0,-9.759127617E0
9.175542464E0,1.866401732E-1,4.639084816E0,-1.550967789E1
9.180331944E0,5.584847927E0,2.662015200E0,-2.629054070E1
9.185108142E0,1.005882835E1,-2.015953064E-1,-1.973719788E1
9.189871058E0,1.283689499E1,-2.691925526E0,-5.367101192E0
9.194660537E0,1.281117249E1,-4.710271358E0,3.397209883E0
9.199436735E0,1.166441250E1,-6.482156754E0,6.327221394E0
9.204199652E0,1.097527885E1,-7.962715626E0,5.587839127E0
9.208989183E0,9.926026344E0,-8.763712883E0,3.194418192E0
9.213765381E0,8.781061172E0,-8.370093346E0,5.850451589E-1
9.218528246E0,6.990033150E0,-7.664809227E0,-1.714457393E0
9.223317777E0,4.040879250E0,-6.853044033E0,-2.712264538E0
9.228093975E0,7.651050687E-1,-6.186044693E0,-2.917448997E0
9.232856839E0,-9.080761671E-1,-5.810371399E0,-2.375474691E0
9.237646371E0,-1.986042738E0,-5.933601856E0,-1.338186026E0
9.242422569E0,-2.807977438E0,-6.205785751E0,-4.504488707E-1
9.247185433E0,-2.862414122E0,-7.135995388E0,-5.072783828E-1
9.251974964E0,-3.153740168E0,-1.064746284E1,-2.590828657E0
9.256751162E0,-4.670789719E0,-1.678864098E1,-3.495315790E0
9.261514079E0,-5.956333637E0,-2.015354919E1,-4.628915310E0
9.266303558E0,-5.462215900E0,-1.797907066E1,-6.686742783E0
9.271079756E0,-4.511667252E0,-1.400279808E1,-5.552545071E0
9.275842673E0,-4.222733974E0,-1.220160103E1,-2.368296146E0
9.280632152E0,-5.082355499E0,-1.302832127E1,-9.577272534E-1
9.285408350E0,-6.709474564E0,-1.562393570E1,-8.751748800E-1
9.290171267E0,-9.196813583E0,-1.832842255E1,-6.209374666E-1
9.294960746E0,-1.192582798E1,-2.056571198E1,1.393819153E-1
9.299736996E0,-1.365942764E1,-2.199183464E1,1.368096352E0
9.304499860E0,-1.372762394E1,-2.236332130E1,2.515454769E0
9.309289339E0,-1.252403355E1,-2.210070801E1,3.368496180E0
9.314065589E0,-1.022632599E1,-2.106940079E1,3.946362734E0
9.318828454E0,-7.568498135E0,-1.954038811E1,4.435096741E0
9.323617985E0,-4.953142643E0,-1.779482460E1,4.453640938E0
9.328394183E0,-2.445464849E0,-1.646381569E1,4.305285931E0
9.333157048E0,2.632104978E-2,-1.537388515E1,3.826123476E0
9.337946579E0,8.961120844E-1,-1.452802277E1,3.297907829E0
9.342722777E0,5.120640397E-1,-1.364327621E1,3.309273720E0
9.347485642E0,-1.045663476E0,-1.256770229E1,3.494119167E0
9.352275173E0,-3.669393539E0,-1.150469112E1,3.636492252E0
9.357051371E0,-5.560919762E0,-1.081017494E1,3.621536970E0
9.361814287E0,-5.948556900E0,-1.059900761E1,3.345165968E0
9.366603767E0,-5.706283569E0,-1.069472122E1,3.209971666E0
9.371379964E0,-5.124229908E0,-1.130010509E1,3.211766243E0
9.376156162E0,-4.582255363E0,-1.228176022E1,3.343969584E0
9.380932360E0,-3.902693748E0,-1.353739452E1,3.403790236E0
9.385708558E0,-3.017349243E0,-1.488993740E1,3.506083488E0
9.390471475E0,-1.922034740E0,-1.613001823E1,3.846462488E0
9.395260954E0,-6.831508875E-1,-1.739941025E1,4.186841488E0
9.400037152E0,5.509474277E-1,-1.873101616E1,4.655834675E0
9.404800069E0,1.889133453E0,-1.985564232E1,5.672185898E0
9.409589600E0,2.995813847E0,-2.103829575E1,7.140182972E0
9.414365798E0,4.087539196E0,-2.219223404E1,7.639684677E0
9.419128662E0,4.793421745E0,-2.293700027E1,6.859025955E0
9.423918194E0,5.283352375E0,-2.349871445E1,5.652445316E0
9.428694392E0,5.288137913E0,-2.355614281E1,4.850849628E0
9.433457256E0,4.724628448E0,-2.307159615E1,4.872385025E0
9.438246787E0,4.335794449E0,-2.207558441E1,5.507679462E0
9.443022985E0,4.122235298E0,-2.089053726E1,5.431109428E0
9.447785902E0,4.144967079E0,-1.945484543E1,4.441078663E0
9.452575381E0,4.156930923E0,-1.808136368E1,3.273979664E0
9.457351579E0,3.894917011E0,-1.686162376E1,2.382055044E0
9.462114496E0,3.616153240E0,-1.569631863E1,1.734796405E0
9.466903975E0,3.239283562E0,-1.473859119E1,1.227517962E0
9.471680173E0,3.254238844E0,-1.381376553E1,1.039681435E0
9.476443089E0,3.269193888E0,-1.293679523E1,8.327022791E-1
9.481232569E0,3.027518749E0,-1.195872974E1,7.657032609E-1
9.486008767E0,1.696511269E0,-9.751350403E0,2.196611166E0
9.490771683E0,6.245267391E-1,-7.470990658E0,3.184248686E0
9.495561214E0,3.170489967E-1,-6.420541286E0,1.591825247E0
9.500337360E0,6.939185858E-1,-6.538986206E0,-7.088736892E-1
9.505100277E0,1.197009563E0,-7.100701332E0,-2.678166628E0
9.509889808E0,1.944766641E0,-7.690532207E0,-4.462614059E0
9.514666006E0,2.285743713E0,-8.136793137E0,-7.299903870E0
9.519428871E0,1.648056626E0,-7.801798344E0,-1.572443390E1
9.524218402E0,-8.458628058E-1,-6.697510719E0,-4.201557159E1
9.528994600E0,-2.228316069E0,-6.229115486E0,-6.262076569E1
9.533757464E0,2.285145521E0,-7.733603001E0,-5.662016678E1
9.538546996E0,7.709674358E0,-8.855836868E0,-3.903531265E1
9.543323194E0,1.064148045E1,-8.316853523E0,-2.282992172E1
9.548086058E0,1.079222870E1,-7.353144169E0,-1.171167088E1
9.552875589E0,9.862616539E0,-6.669394970E0,-4.537988186E0
9.557651787E0,9.407979965E0,-6.238088608E0,-1.569691658E0
9.562414704E0,9.053842545E0,-6.595815659E0,-5.934200287E-1
9.567204183E0,8.224131584E0,-6.833303452E0,-1.784447432E0
9.571980381E0,8.133802414E0,-6.683752060E0,-2.503490686E0
9.576743298E0,8.461020470E0,-6.862017155E0,-1.939382792E0
9.581532777E0,9.996016502E0,-6.863811970E0,-6.466603279E-1
9.586308975E0,1.099442196E1,-6.798607349E0,1.076770201E-2
9.591071892E0,1.069531918E1,-6.226124287E0,-2.811566591E-1
9.595861371E0,9.817152977E0,-5.669195175E0,-5.264210105E-1
9.600637621E0,8.879166603E0,-4.958526611E0,-2.434697002E-1
9.605400485E0,7.863413334E0,-4.368097782E0,-2.961117923E-1
9.610190017E0,6.348756790E0,-3.769891977E0,-2.937189937E-1
9.614966214E0,5.517251015E0,-3.275774240E0,1.854437590E-1
9.619729079E0,4.730610371E0,-2.787040234E0,9.092726111E-1
9.624518610E0,3.800998688E0,-2.399402857E0,1.667199135E0
9.629294808E0,2.974876642E0,-2.025524378E0,2.078764677E0
9.634057725E0,2.498705149E0,-1.588235974E0,2.254039049E0
9.638847204E0,1.978864312E0,-1.204187989E0,2.256431818E0
9.643623402E0,1.515254974E0,-8.584251404E-1,2.095514536E0
9.648386319E0,1.247258782E0,-6.424728632E-1,1.976471543E0
9.653175798E0,1.108475089E0,-5.653043389E-1,1.838286042E0
9.657951996E0,8.931210637E-1,-5.898307562E-1,1.603789330E0
9.662714912E0,5.162515044E-1,-7.639086246E-1,1.360917926E0
9.667504392E0,2.775674164E-1,-1.000798106E0,1.113260746E0
9.672280589E0,1.531406492E-1,-1.237089276E0,8.691928387E-1
9.677043506E0,4.845465720E-2,-1.400997639E0,7.405785918E-1
9.681832985E0,2.518445849E-1,-1.487139225E0,5.330012441E-1
9.686609235E0,5.688936114E-1,-1.703091502E0,1.328016520E-1
9.691372100E0,7.399803996E-1,-2.087139606E0,-9.140582681E-1
9.696161631E0,9.828519225E-1,-2.895913601E0,-2.056631088E0
9.700937829E0,1.017547846E0,-3.979264021E0,-3.169293642E0
9.705700694E0,7.184450030E-1,-5.487938881E0,-3.128615618E0
9.710490225E0,-2.506481707E-1,-7.847859859E0,5.258227587E-1
9.715266423E0,2.835494876E-1,-1.266580868E1,3.765106440E0
9.720029287E0,2.961716175E0,-2.220718956E1,1.656431437E0
9.724818819E0,7.200601578E0,-3.531806183E1,-4.489533424E0
9.729595017E0,8.414958954E0,-4.671746826E1,-6.431907177E0
9.734357933E0,4.652245522E0,-5.468556976E1,4.275974274E0
9.739147412E0,2.445464849E0,-6.031587982E1,1.002652550E1
9.743923610E0,2.885744095E0,-6.304608917E1,8.197212219E0
9.748686527E0,4.585246563E0,-6.305865479E1,2.857030153E0
9.753476006E0,8.560921669E0,-5.637430191E1,-1.770688772E0
9.758252204E0,5.683551788E0,-4.283451462E1,-6.233302951E-1
9.763015121E0,4.564309120E0,-3.325066376E1,2.754138947E0
9.767804600E0,4.446462631E0,-2.706102943E1,3.863810301E0
9.772580798E0,3.219542980E0,-2.209652138E1,3.421138287E0
9.777343714E0,1.752742529E-1,-1.835593987E1,3.189632654E0
9.782133246E0,-1.271187067E0,-1.542533112E1,3.963112593E0
9.786909444E0,-2.057827473E0,-1.310070419E1,4.219742775E0
9.791672308E0,-2.727219582E0,-1.129053402E1,4.619942188E0
9.796461839E0,-2.303091764E0,-9.652048111E0,4.736592293E0
9.801238037E0,-2.644667149E0,-8.298309326E0,4.061218262E0
9.806000902E0,-2.099701881E0,-7.237092018E0,3.529413462E0
9.810790433E0,-1.261615753E0,-6.382256031E0,3.303889751E0
9.815566631E0,-1.018744230E0,-5.691926956E0,2.922832966E0
9.820329496E0,-1.521835208E0,-5.201996326E0,2.569891453E0
9.825119027E0,-2.514856577E0,-4.939383984E0,2.219941139E0
9.829895225E0,-3.240479946E0,-4.734199524E0,1.945364833E0
9.834658142E0,-3.891926050E0,-4.750350952E0,2.030309916E0
9.839447621E0,-4.134797573E0,-4.620540619E0,1.973480463E0
9.844223819E0,-4.678566456E0,-4.447659016E0,1.808375716E0
9.848986735E0,-4.322634220E0,-4.153341770E0,1.849651933E0
9.853776214E0,-4.214358807E0,-3.652045488E0,1.949552298E0
9.858552412E0,-3.981656790E0,-3.010170937E0,1.520638824E0
9.863315329E0,-3.961317778E0,-2.263011932E0,1.280160069E0
