Time (s),Acceleration x (m/s^2),Acceleration y (m/s^2),Acceleration z (m/s^2)
9.00420915,-0.08411976636953826,0.2419759938154717,0.1281506243202089
9.00920915,-0.04455496563581163,0.3311682272153733,-0.03573089047706324
9.01420915,-0.006938976871618085,0.41955178358053385,-0.19812301354443207
9.019209183,0.027730882902854092,0.5062050660980649,-0.356533626707142
9.024208516,0.05853969792819676,0.5902506450895995,-0.5085700914033553
9.029208516,0.0846801151142209,0.6708718611416853,-0.6519836969132401
9.034208516,0.10547434297794017,0.7473274441338981,-0.784710605782866
9.039208516,0.12039229030893278,0.818963735210105,-0.904908414210572
9.044208516,0.12906529093346478,0.8852241826282842,-1.0109875316039016
9.049208482,0.1312950244001573,0.9456558826651471,-1.1016366926420995
9.054208448,0.12705741545711094,0.9999130504320409,-1.1758420490198498
9.059208448,0.11650146898499034,1.0477574268849796,-1.2328994461815628
9.064208481,0.09994316545791161,1.0890557496807909,-1.2724196693427767
9.069208514,0.07785470096639134,1.123774528465367,-1.294326636711624
9.074208514,0.050849500884720136,1.1519724622351724,-1.2988487177515737
9.079208514,0.0196635613140723,1.1737909123120522,-1.2865035512808205
9.08420848,-0.01486622880058745,1.1894428971019912,-1.258076923387665
9.08920848,-0.051826063593529544,1.199201105342205,-1.2145964311472344
9.09420848,-0.09025073536003354,1.2033854358244302,-1.157300798576748
9.099208513,-0.1291499199660716,1.2023505652979416,-1.0876058201874732
9.104208513,-0.16753447637993046,1.196474021074497,-1.0070679797868094
9.109208513,-0.2044420347233556,1.186145187568466,-0.9173468247723371
9.114208513,-0.23896119362232252,1.171755605116312,-0.820167168480086
9.119208513,-0.27025371001788706,1.1536908285679437,-0.7172821470352728
9.124208513,-0.2975741435574669,1.1323240116282556,-0.6104380764402938
9.129208479,-0.32028651208150344,1.1080112824776776,-0.501341945166555
9.134208479,-0.33787762127144594,1.081088885909674,-0.39163224174043115
9.139208479,-0.3499668454605506,1.051871990263318,-0.28285365928596584
9.144208512,-0.3563122523842194,1.0206549916058527,-0.1764360437531107
9.149208512,-0.35681307678255864,0.9877130889002849,-0.07367776645230924
9.154208512,-0.3515086516597367,0.9533048504066184,0.02426648484769349
9.159208478,-0.34057399837822333,0.9176754455913971,0.11639367580767011
9.164208444,-0.3243123559590031,0.88106018378847,0.20185648542397436
9.16920841,-0.3031449958008658,0.8436879866442247,0.27996390208295935
9.174209076,-0.27759872070303826,0.8057844299366904,0.3501788827546324
9.179209076,-0.2482914857266431,0.7675740225297066,0.4121136459876183
9.184209109,-0.21591660130622436,0.729281443823451,0.4655231762534936
9.189209142,-0.181225985019146,0.6911315319500982,0.5102974886977809
9.194209175,-0.1450129181498196,0.6533478986610124,0.5464531427281217
9.199209175,-0.10809473866336645,0.6161501398310556,0.5741244059565148
9.204209175,-0.07129586616716113,0.579749710261636,0.59355436501404
9.209209141,-0.03543151003349987,0.5443446348880381,0.6050861662662282
9.214209141,-0.001292362094938585,0.5101133294136131,0.6091544575369544
9.219209141,0.03036947794115737,0.47720789177345163,0.6062770010829186
9.224208507,0.05885315251349972,0.44574729022284754,0.5970463457670095
9.229208507,0.08352013848630602,0.41581090534709164,0.5821213873789035
9.234208507,0.10380370674392385,0.38743287814111804,0.56221861266008
9.239208473,0.119216727193444,0.36059767612731974,0.5381028155285211
9.244208439,0.12935784059272823,0.33523721994183425,0.5105770927290785
9.249208405,0.13391604982971025,0.3112298218442199,0.4804719688383663
9.254208405,0.13267380240176704,0.2884010836808687,0.4486335641366312
9.259208438,0.1255086448123799,0.26652679290110864,0.41591079900792544
9.264208471,0.112393531247277,0.24533774840456746,0.38314171967732275
9.269208504,0.09339586551142653,0.2245263497693941,0.3511391255604411
9.274208504,0.06867534763369129,0.2037546994689523,0.32067577108774276
9.279208504,0.03848068510394702,0.18266390230354007,0.29246949760112273
9.28420847,0.0031452155729771118,0.16088420179882892,0.2671687175427012
9.28920847,-0.036918522437953655,0.13804557009218751,0.24533871868634996
9.29420847,-0.08122523751054168,0.11378836425998758,0.22744927755458708
9.299208503,-0.1292243133908623,0.08777367505841421,0.21386406695607324
9.304208536,-0.18030816514296313,0.05969302030195793,0.2048323116316408
9.309208536,-0.2338214505064692,0.02927707228390413,0.20048308718201047
9.314208536,-0.28907103592417993,-0.003696844324197357,0.20082257095217843
9.319208536,-0.3453365838125661,-0.03939869155673444,0.20573444239656116
9.324208536,-0.401881591765237,-0.07794123785143109,0.2149835011898465
9.329208536,-0.45796467829179666,-0.11937723241815656,0.2282224336815392
9.334208502,-0.5128508774881027,-0.16369823548572224,0.2450015237808127
9.339208502,-0.5658226830947244,-0.21083503250901653,0.2647809843851999
9.344208502,-0.6161905781874603,-0.26065949100374386,0.2869454890025516
9.349208535,-0.6633028051405102,-0.3129876583832104,0.3108204156137349
9.354208535,-0.7065541706199571,-0.36758385490533263,0.33568927826954786
9.359208535,-0.7453937352863111,-0.42416549493298417,0.3608118162347686
9.364208501,-0.7793312975116804,-0.48240837725896313,0.3854422328757837
9.369208501,-0.8079426355822237,-0.5419522208053663,0.4088471208566523
9.374209167,-0.8308735180083887,-0.6024062781934163,0.43032266806845043
9.3792092,-0.8478425247972512,-0.6633549244241839,0.44921080184714546
9.3842092,-0.8586427443846055,-0.7243631790297403,0.4649139919954317
9.3892092,-0.8631424235688134,-0.7849821688695587,0.47690849334583396
9.3942092,-0.8612846543076936,-0.8447545711213332,0.48475586436672014
9.3992092,-0.8530861840117713,-0.9032200915943859,0.48811264702864515
9.4042092,-0.8386354352572248,-0.9599210342918516,0.4867381313383748
9.409209166,-0.8180898149835011,-1.0144080070911612,0.4805001521944823
9.414209166,-0.7916723802991386,-1.0662457882958876,0.46937887424783376
9.419209166,-0.7596679075287751,-1.115019351810401,0.4534685125613638
9.424208532,-0.7224183846121123,-1.160340016148239,0.43297691735762334
9.429208565,-0.6803179172682894,-1.2018516449975725,0.4082229284165154
9.434208565,-0.6338070103402662,-1.2392367852114523,0.3796313897208531
9.439208531,-0.5833661631980716,-1.2722225836303775,0.34772571918748973
9.444208497,-0.5295087099672273,-1.3005862808047841,0.3131179610617456
9.449208497,-0.4727728490449188,-1.3241600430831586,0.2764963137974157
9.454208497,-0.4137128441380776,-1.342834871604603,0.23861022081647618
9.45920853,-0.3528894366238698,-1.3565633248091404,0.20025322614987623
9.46420853,-0.29085957919517336,-1.3653608160297803,0.16224391939619803
9.46920853,-0.22816567768741555,-1.3693053012979768,0.12540541260768992
9.47420853,-0.1653246071917591,-1.3685352506492345,0.09054389502777362
9.47920853,-0.10281684342754777,-1.3632458902196085,0.05842689114772991
9.48420853,-0.04107611026944607,-1.3536838015614645,0.029761896456268613
9.489208496,0.019520022797007573,-1.3401400585544243,0.005176079471271223
9.494208496,0.07865816193007216,-1.3229421625317574,-0.014802282558531363
9.499208496,0.13609533534626578,-1.3024450966572698,-0.02976002086326427
9.504208529,0.19166313672815566,-1.279021857386978,-0.03941241302001125
9.509208529,0.24526951963482505,-1.2530538329527352,-0.043613210285619354
9.514208529,0.2968980881942527,-1.2249213885883916,-0.04236103692047811
9.519208495,0.34660482698799744,-1.1949949905645163,-0.035801964786611254
9.524208495,0.39451231577681234,-1.1636271605718569,-0.024228190212098148
9.529208495,0.44080157891699456,-1.1311455012507432,-0.008072862317305104
9.534208528,0.48570181914150523,-1.0978469742659587,0.012098773610318221
9.539208528,0.5294783752759569,-1.0639935458834884,0.03560165410351516
9.544208528,0.572419319539801,-1.0298092439205917,0.061646250896704745
9.549208528,0.6148211700883015,-0.9954785985316644,0.08935658729087667
9.554208528,0.6569742370580663,-0.961146373760202,0.11779045021925151
9.559208528,0.6991481440477687,-0.9269184427618314,0.14596128440470202
9.564208494,0.7415780690827185,-0.8928636198884025,0.17286121843165556
9.56920846,0.7844522267350335,-0.8590162378788005,0.19748465069884122
9.574209126,0.8279010652866338,-0.8253792482613548,0.21885182037206585
9.579209126,0.8719885823603346,-0.7919276281445434,0.23603180355118383
9.584209159,0.9167060744403956,-0.7586118966591184,0.2481644014926188
9.589209159,0.9619685349685817,-0.7253615772654429,0.2544804192011959
9.594209159,1.0076138057000368,-0.6920884839002309,0.25431986711785404
9.599209125,1.0534044705360894,-0.6586897549075843,0.24714765928736296
9.604209091,1.0990323663061679,-0.6250506049056636,0.23256643317841497
9.609209057,1.1441254788799156,-0.5910468080152053,0.21032618227931502
9.614209057,1.1882569020884053,-0.5565469633856803,0.1803304732420204
9.61920909,1.2309554644240743,-0.5214146228593031,0.14263911340631857
9.624208456,1.2717175756848458,-0.48551037848793316,0.09746723832416414
9.629208489,1.3100198146576534,-0.44869401326028635,0.04518089508144446
9.634208489,1.3453317729340755,-0.4108268121022318,-0.013710704251007384
9.639207822,1.3771286915187255,-0.3717741135046353,-0.07856600255095403
9.644207122,1.4049034746665845,-0.3314081573790889,-0.14862467205987562
9.649206488,1.4281777331287082,-0.28961125448471836,-0.22302357873110967
9.654205821,1.446511587787845,-0.24627926890970406,-0.3008147363602835
9.659204954,1.459512045910552,-0.20132536895259598,-0.3809848181357392
9.664204287,1.466839838469869,-0.1546839652106196,-0.4624757605657242
9.66920362,1.4682146716321267,-0.10631472100109292,-0.5442059617541423
9.67420292,1.463418894116839,-0.056206493569233185,-0.6250915478607366
9.679201986,1.4522996149017573,-0.004381048505539972,-0.7040671687970128
9.684201052,1.4347693284021055,0.0491036141274148,-0.7801057997958206
9.689200152,1.4108051258067695,0.10415047705769842,-0.852237078277844
9.694199485,1.380446599441191,0.1606214094224061,-0.9195637933081143
9.699199518,1.3437925847818177,0.21833588728574505,-0.9812762530469097
9.704198884,1.3009969294513593,0.27707065255475455,-1.0366643612365072
9.709199517,1.2522635228119796,0.33656042574063605,-1.0851273154903185
9.714199517,1.197840853285355,0.3964997799551185,-1.1261808868017247
9.719199517,1.138016373790926,0.45654626589984065,-1.159462255056122
9.724199483,1.0731109446368536,0.516324843995764,-1.184732376362687
9.729199483,1.0034735901420035,0.5754336279745579,-1.2018758667107534
9.734199483,0.9294767558774897,0.6334508770505927,-1.2108984185030178
9.739199516,0.851512193730605,0.6899430980953032,-1.2119218237824763
9.744199916,0.769987537828763,0.7444740438597817,-1.2051767502850497
9.749199016,0.6853235713159533,0.7966143267284203,-1.1909934899429684
9.754199016,0.5979521265823234,0.8459513164129006,-1.169790963163936
9.759199016,0.508314512720051,0.8920989587902283,-1.1420643092462666
9.764199016,0.41686032569724535,0.9347071440217313,-1.1083714198158396
9.769198982,0.3240464708147215,0.9734702658368742,-1.069318777745779
9.774199648,0.2303362144873447,1.00813464987405,-1.0255469530583918
9.779199648,0.13619808238775713,1.0385045851103558,-0.9777160888171892
9.784199681,0.042104430972268465,1.0644467641770352,-0.926491694336418
9.789200347,-0.051470462855195,1.0858930188928981,-0.872531057048817
9.794201013,-0.14405292407667605,1.1028413189828399,-0.8164705878964301
9.799201613,-0.2351731100895434,1.1153550782617,-0.7589144206693342
9.804202246,-0.32436900041308075,1.123560879583132,-0.7004245817739132
9.809203146,-0.41119113803665674,1.1276447859056926,-0.6415130221578603
9.814203846,-0.49520804386437184,1.1278474493971784,-0.5826357494284308
9.819204546,-0.57601214827848,1.1244582627941964,-0.5241892124975543
9.824204546,-0.6532260114188672,1.1178088152818384,-0.4665089777848493
9.829205446,-0.7265085494479514,1.1082659159068882,-0.4098706090625099
9.834206346,-0.7955609570364263,1.0962244281355151,-0.3544925437099947
9.839207246,-0.8601320184465046,1.082100119069385,-0.3005406672693716
9.844207912,-0.9200225257258697,1.0663226696357875,-0.2481342374223205
9.849207878,-0.9750885632902012,1.049328925818831,-0.19735279669140066
9.854208544,-1.025243464427529,1.0315564066235612,-0.14824372877102018
9.859207944,-1.0704582922184265,1.0134370327864057,-0.1008301402744971
9.864207977,-1.1107607457441155,0.9953910090260315,-0.05511877328459949
9.869207977,-1.1462324460048574,0.9778207850734539,-0.011107666408444012
9.874207977,-1.177004617517907,0.9611050354884211,0.031206716015218978
9.879207943,-1.2032522504372525,0.9455926302549562,0.0718231668269124
9.884207943,-1.2251869004982445,0.93159660998269,0.11073050140281644
9.889207509,-1.2430483551624474,0.9193882237247445,0.14790364549913795
9.894207142,-1.2570954583908212,0.9091911281955432,0.1833012286284055
9.899208042,-1.2675964370422201,0.901175881355185,0.21686478234125767
9.904208042,-1.2748191030619718,0.8954548900999189,0.24851954096446804
9.909208042,-1.2790213147282359,0.892077991567148,0.27817673846458174
9.914208042,-1.2804420692215397,0.8910288604291322,0.3057372070377199
9.919208042,-1.279293572599668,0.8922224393421846,0.3310960224773801
9.924208008,-1.2757545961771841,0.8955035843065569,0.35414790934847906
9.929207974,-1.2699653813262644,0.9006470993084017,0.3747931081230692
9.934207974,-1.2620242960746366,0.907359305266239,0.39294340829043906
9.939208007,-1.2519863753936236,0.9152812493429073,0.4085280629247326
9.94420804,-1.2398637956587235,0.923993616031645,0.4214993239640709
9.94920804,-1.2256282501650828,0.9330233547575794,0.4318373768891332
9.95420804,-1.2092151165055012,0.9418519917029178,0.4395545064779946
9.959208006,-1.1905292452590528,0.9499255450728791,0.4446983823752491
9.964208006,-1.1694521539062157,0.9566659100365235,0.4473544013454348
9.969208006,-1.1458503748108353,0.9614835193818428,0.4476470521950133
9.974208706,-1.119584673397824,0.9637910188814286,0.44574027682565825
9.979208706,-1.0905198172944583,0.9630176272734113,0.4418367917652297
9.984208706,-1.058534540782528,0.9586237876440381,0.43617631838363397
9.989208706,-1.0235313186920478,0.9501156685254686,0.4290326582880626
9.994208706,-0.9854455489721332,0.9370590464044362,0.4207095557426003
9.999208706,-0.9442537507639231,0.9190921008552456,0.4115353232774768
10.00420867,-0.8999804180813732,0.8959366793452653,0.40185627590037626
10.00920867,-0.8527032272033186,0.8674076368869225,0.39202911821358905
10.01420867,-0.8025563738726217,0.8334199195182498,0.38241253972784767
10.0192087,-0.7497319065796505,0.7939931333235609,0.3733583715147791
10.02420804,-0.6944790152579682,0.7492534172585452,0.36520271784475616
10.02920804,-0.6371013222166485,0.6994325156358222,0.3582574852873782
10.034208,-0.5779522983529223,0.6448640239602181,0.35280268895597455
10.03920844,-0.5174289899929354,0.5859768602158056,0.3490798341309338
10.04420844,-0.4559642901754423,0.5232860932662384,0.34728657149393666
10.04920847,-0.39401802503392325,0.4573813407323393,0.34757272565895203
10.0542085,-0.3320671543892514,0.388913029239767,0.35003771425638636
10.0592085,-0.2705954083652631,0.31857688713869253,0.35472931604018415
10.0642085,-0.21008269942852895,0.24709710880003494,0.36164371201232426
10.0692085,-0.1509946601716937,0.17520868468385228,0.3707267080114904
10.0742085,-0.09377265852357934,0.10363942757000787,0.3818760411418651
10.0792085,-0.03882463078865802,0.03309223972731,0.39494466595635114
10.08420847,0.013482953578678649,-0.035771842075635024,0.40974490282804055
10.08920847,0.06283172485166523,-0.10234931530655436,0.4260533088373479
10.09420847,0.10895643315975115,-0.16610813157269155,0.44361610397233164
10.0992085,0.1516482208488295,-0.22659946382492302,0.462154959287403
10.1042085,0.1907560985449719,-0.2834669836656733,0.48137293771721623
10.1092085,0.22618666744548185,-0.33645338180542345,0.500960381111267
10.11420847,0.25790221756082005,-0.3854039359380695,0.5206005639911176
10.11920843,0.2859174060991715,-0.4302670026483121,0.5399749846634069
10.1242084,0.31029477419994117,-0.47109138613599016,0.5587682300651289
10.1292084,0.3311393889403076,-0.5080206205190415,0.5766724194990528
10.13420843,0.34859290062509396,-0.541284297461134,0.5933912899473824
10.13920847,0.36282728730850894,-0.5711866771787026,0.6086440202273625
10.1442085,0.37403852659327164,-0.5980929348238193,0.622168897468037
10.1492085,0.38244039611991465,-0.6224135086031422,0.6337269090151257
10.154209,0.38825856403652476,-0.6445871214447069,0.6431053028809783
10.1592081,0.3917250926335341,-0.665063134401046,0.6501211097276993
10.16420723,0.3930734446504759,-0.6842839472215606,0.6546245692337788
10.16920636,0.3925340540808032,-0.70266818082226,0.6565023629183364
10.17420707,0.3903305022087217,-0.7205953524992975,0.6556805304818147
10.1792071,0.38667632446450667,-0.7383926887509761,0.6521269384149684
10.18420643,0.3817724628275632,-0.7563246196640087,0.6458531735692475
10.1892075,0.37580537029604194,-0.7745853725459636,0.636915743982239
10.19420746,0.3689457676285164,-0.7932949395251008,0.6254164792603543
10.19920743,0.3613480479272123,-0.8124985413426193,0.6115020308797894
10.2042074,0.3531503207875,-0.8321695533932945,0.595362379709759
10.2092074,0.344475082520182,-0.8522157048694137,0.5772282673445344
10.21420743,0.33543048951338095,-0.8724882117143972,0.5573674838105266
10.21920746,0.32611219592092333,-0.892793363746234,0.5360799699810876
10.22420683,0.3166056942989531,-0.9129059620577874,0.5136917290280274
10.22920683,0.3069890708593671,-0.9325839026055277,0.49054758526818193
10.23420683,0.2973360595108099,-0.9515831345138538,0.46700287715968863
10.23920679,0.2877192543635149,-0.9696721943238578,0.4434142204597857
10.24420679,0.27821332136239146,-0.9866455335053331,0.42012952556509514
10.24920679,0.2688980380623767,-1.0023349150270142,0.39747749935565097
10.25420743,0.2598609877225497,-1.0166182522304101,0.3757569068680688
10.25920743,0.25119974051025273,-1.0294253952262795,0.35522591177786567
10.26420743,0.24302337036101954,-1.0407405305838389,0.33609185528506547
10.26920743,0.23545317969557095,-1.0506010410798432,0.31850186692903276
10.27420743,0.22862253360056353,-1.0590928637425847,0.3025347230940139
10.27920743,0.22267573766225507,-1.0663425754869065,0.2881943739360544
10.28420739,0.21776592752115975,-1.0725066155529843,0.2754055418341827
10.28920739,0.21405197350077868,-1.07775821308867,0.2640117503572793
10.29420739,0.21169444305524196,-1.0822727185779022,0.253776071152391
10.29920742,0.21085071118591445,-1.0862121333776285,0.244384779735889
10.30420696,0.21166936624203533,-1.0897096882117667,0.23545399575960116
10.30920782,0.21428412283839146,-1.092855336085624,0.22653925685587512
10.31420866,0.218807517628026,-1.0956829953556984,0.21714784616110758
10.31920949,0.2253247173887703,-1.0981603037502072,0.20675356969815226
10.32420949,0.23388780198257123,-1.1001815264244388,0.19481356662659283
10.32920949,0.24451088858243616,-1.1015641071952897,0.1807866366269755
10.33421019,0.25716643307982306,-1.1020491714874152,0.16415248718920183
10.33920909,0.2717829800525399,-1.1013060929259537,0.14443124248122985
10.34420909,0.288244540646546,-1.0989410336303878,0.12120251829805528
10.34920909,0.30639166989078687,-1.0945091714782187,0.09412335729653783
10.35420909,0.3260242046560367,-1.0875301454480402,0.06294433722569456
10.35920909,0.3469055217777012,-1.0775060907553298,0.027523213352976923
10.36420906,0.3687680894866881,-1.0639415056389707,-0.012164464952076367
10.36920906,0.3913200171996562,-1.0463640971610684,-0.056018216574849275
10.37420972,0.4142522607556781,-1.0243456993342575,-0.10380929355974723
10.37920976,0.4372461148087186,-0.9975223469831737,-0.15518132850095662
10.38420976,0.459980623777955,-0.9656126236101354,-0.20965499574129706
10.38920976,0.4821395684759977,-0.9284334778845309,-0.2666365725828287
10.39420972,0.5034177353937216,-0.8859128152048589,-0.3254301515329893
10.39920972,0.5235262441957544,-0.8380983110156797,-0.38525313336762984
10.40420912,0.5421967881082745,-0.7851620538475048,-0.4452545261380593
10.40920915,0.5591847231980484,-0.727400801173675,-0.5045354898941279
10.41420915,0.5742710201562672,-0.6652318130735936,-0.5621715035389991
10.41920915,0.5872631630123708,-0.5991844097976782,-0.6172354903867899
10.42420849,0.5979951401675275,-0.5298875713186274,-0.6688212224106003
10.42920849,0.6063267188186544,-0.45805405139304584,-0.7160663284224944
10.43420849,0.6121422183118284,-0.3844616080935537,-0.7581742569353023
10.43920845,0.6153489991268051,-0.3099320518571091,-0.7944345889885591
10.44420842,0.6158758646865476,-0.23530887831638223,-0.824241158558227
10.44920842,0.6136715371983624,-0.1614342864647658,-0.8471075163732642
10.45420842,0.608703320053904,-0.08912638424131185,-0.8626793640490266
10.45920845,0.6009560030088783,-0.019157355043095826,-0.870743685678781
10.46420845,0.590431010553519,0.04776669804779117,-0.8712344094325123
10.46920845,0.5771457479366372,0.11102359588705382,-0.8642345384014235
10.47420842,0.5611330694974125,0.17009008492579908,-0.849974793840863
10.47920838,0.5424407808051093,0.22455358918514526,-0.828828910469661
10.48420835,0.5211310856319383,0.2741204376365728,-0.8013058076342688
10.48920835,0.4972798964951135,0.3186204272886132,-0.7680389278233316
10.49420838,0.47097594215899696,0.3580077117555622,-0.7297730831512411
10.49920842,0.44231962972214767,0.3923581227930242,-0.6873491815539274
10.50420845,0.41142165569280015,0.42186313549705773,-0.6416872204550766
10.50920845,0.37840140822677565,0.4468207770528939,-0.5937679408190029
10.51420845,0.343385253731182,0.46762385613508595,-0.5446135328265351
10.51920842,0.3065048442019412,0.48474595647080787,-0.49526777829872415
10.52420842,0.26789560703298126,0.49872569243003273,-0.44677600506974746
10.52920842,0.22769558136683787,0.5101497635746541,-0.4001652146500936
10.53420845,0.18604474506172927,0.5196353653484196,-0.3564247269570038
10.53920845,0.1430849395359841,0.527812512088099,-0.3164876653422807
10.54420845,0.09896045365206935,0.5353068055256704,-0.2812135821672055
10.54920841,0.053819279263812934,0.5427231379210252,-0.2513724996259695
10.55420838,0.007815004417389075,0.5506307566062684,-0.22763061173680638
10.55920835,-0.038890733331840135,0.5595500401928045,-0.2105378608191671
10.56420835,-0.08612535239729256,0.5699412509477522,-0.20051756543255947
10.56920835,-0.13370215049860606,0.5821954378828782,-0.19785823754448847
10.57420905,-0.18141704297575198,0.5966275756846862,-0.20270768598619257
10.57920908,-0.22904544564821766,0.6134719402743256,-0.21506946259455553
10.58420911,-0.2763395527144298,0.6328796465208888,-0.23480166858121573
10.58920911,-0.3230262630545481,0.65491821070689,-0.26161810360252674
10.59420911,-0.3688059892910504,0.6795729524831953,-0.29509171056090616
10.59920908,-0.4133525445210656,0.7067500202350377,-0.3346602463834693
10.60420908,-0.45631424805758125,0.7362808101519546,-0.37963409265839143
10.60920908,-0.49731633197060005,0.7679275503731072,-0.4292061085524844
10.61420911,-0.535964671242139,0.8013898331017654,-0.48246341964183126
10.61920911,-0.5718508048539332,0.8363118951731112,-0.5384010279202845
10.62420844,-0.6045581629772888,0.8722904676842215,-0.5959371184609041
10.62920844,-0.6336693658873547,0.9088830353954673,-0.6539299253620812
10.63420844,-0.6587744141414016,0.9456163651635131,-0.7111960019033756
10.63920778,-0.6794795497016286,0.9819951792094224,-0.7665297153872936
10.64420774,-0.6954165372516344,1.0175108637715757,-0.8187237548402954
10.64920774,-0.7062520959602799,1.0516501167696624,-0.8665904000184214
10.65420708,-0.7116972045355612,1.0839034490400767,-0.9089832549285016
10.65920621,-0.7115160052448111,1.1137734615306893,-0.9448191010581739
10.66420531,-0.7055340438150957,1.1407828246275298,-0.9730994775890791
10.66920531,-0.6936456004667786,1.164481885132643,-0.9929315509069998
10.67420438,-0.6758198922901916,1.1844558217658074,-1.0035477967882713
10.67920368,-0.6521059580722257,1.2003312625830898,-1.0043239893055707
10.68420301,-0.6226360712920923,1.211782268809393,-0.9947949749000393
10.68920237,-0.5876275620010397,1.2185355809149336,-0.9746677124804205
10.69420151,-0.5473829617744183,1.2203750168372491,-0.9438310841923216
10.69920151,-0.5022884191579018,1.2171449125107678,-0.9023620281167838
10.70420061,-0.4528103691848926,1.208752504363993,-0.8505276131290145
10.70919994,-0.39949048177936886,1.195169173256793,-0.7887827659507699
10.71419927,-0.3429389596257809,1.1764304982983074,-0.7177634695330675
10.71919927,-0.28382630327486,1.152635104608656,-0.6382753791412062
10.72419924,-0.22287370540636212,1.123942328440345,-0.5512779464870515
10.72919924,-0.1608422730505997,1.090568763187335,-0.4578643001491919
10.73419857,-0.09852130344919795,1.0527837877177224,-0.3592372970482066
10.7391986,-0.036715855279800785,1.0109042113789375,-0.2566823269209202
10.74419861,0.0237661369777287,0.9652881957381152,-0.15153760957554172
10.7491986,0.08212695910708792,0.916328630447831,-0.045162862303877796
10.75419817,0.1375921815578517,0.8644461496104809,0.061092678332251925
10.75919747,0.1894234524579652,0.8100819767037039,0.16592182879261794
10.76419677,0.23693077722756273,0.7536907817901559,0.26808955179798255
10.76919677,0.27948403733653904,0.6957337249762064,0.3664605251869208
10.77419747,0.3165234968386955,0.6366718446971675,0.460023219261088
10.7791975,0.3475690479439621,0.5769599278748082,0.547909642427447
10.78419754,0.37222795916586043,0.517040970981861,0.6294100863180068
10.7891982,0.3902009125635754,0.45734130663746414,0.7039824103544258
10.7941982,0.4012861500798459,0.39826643037926235,0.7712556418097952
10.79919817,0.40538159187701445,0.34019751888940997,0.8310279175826611
10.8041988,0.40248484018489994,0.28348858792874526,0.8832590429889504
10.8091997,0.39269103894824725,0.2284642001249901,0.9280581756322034
10.81420064,0.37618862185305824,0.17541760379881616,0.9656673447583026
10.81920067,0.3532530491211536,0.12460916722221309,0.9964416765712925
10.8242009,0.3242387065050661,0.07626496943092188,1.0208273054192667
10.82920077,0.28956921657448026,0.030575418619370957,1.039338005433416
10.83420053,0.249726487920903,-0.012306208894056822,1.0525315766623853
10.8392003,0.20523889267514264,-0.05226538273279103,1.0609869662353255
10.84420027,0.15666900472031822,-0.08922811449617245,1.0652830035802356
10.84920026,0.10460134331818169,-0.12316291068968702,1.0659794874790864
10.8542012,0.0496305519858909,-0.15408279908641231,1.0636011925248583
10.8592019,-0.007649592503448067,-0.18204728887885732,1.0586251744988202
10.8642026,-0.06665599591284943,-0.20716407724440303,1.0514715588007941
10.8692026,-0.12682460417341782,-0.2295902809458991,1.0424978040204769
10.8742026,-0.18761709188939293,-0.2495329554611263,1.0319962554834383
10.87920256,-0.24852574893747661,-0.2672486679723991,1.0201946522734453
10.88420323,-0.3090765132051228,-0.28304191379406146,1.0072591347834314
10.88920323,-0.36883017851076244,-0.2972622058013307,0.9932992238238071
10.89420326,-0.4273818857585383,-0.31029971976310994,0.9783742084663931
10.89920326,-0.48435907912010107,-0.3225794425135113,0.9625003863006442
10.90420366,-0.5394181728969337,-0.33455384301297086,0.9456586421153199
10.90920433,-0.592240224069413,-0.3466941664826973,0.9278019231797995
10.914205,-0.6425259377580507,-0.3594805343904064,0.9088622643607829
10.919205,-0.6899903484411372,-0.37339111096588357,0.8887571262174297
10.92420496,-0.7343575211911726,-0.3888906624204148,0.8673949243868417
10.92920493,-0.77535560590619,-0.40641888201142173,0.8446797383078744
10.93420493,-0.8127125531449512,-0.4263788790279893,0.820515281686732
10.93920496,-0.8461527622918461,-0.44912623186358586,0.794808289177006
10.94420499,-0.8753948826487516,-0.4749589857889837,0.767471520351467
10.94920499,-0.9001509285122724,-0.5041089371956751,0.7384266022270337
10.95420499,-0.9201268042150309,-0.5367344913245855,0.7076069247141121
10.95920496,-0.935024269197317,-0.5729153145837195,0.6749607687947538
10.96420496,-0.9445443105934136,-0.6126489312673888,0.6404547858279961
10.96920496,-0.9483918330231871,-0.6558493429762048,0.604077861843597
10.97420566,-0.9462815209445448,-0.7023476799554347,0.5658453004265979
10.97920646,-0.9379446769089218,-0.7518948268277824,0.5258031532155226
10.98420732,-0.9231367918042155,-0.8041658998472683,0.48403243239232274
10.98920819,-0.9016455668203381,-0.858766389291206,0.44065286898497097
10.99420909,-0.8732990877182263,-0.9152397217598376,0.3958258452532887
10.99920909,-0.8379738524168805,-0.9730759479366172,0.3497561349927509
11.00420906,-0.7956023702386956,-1.0317212278311505,0.3026921332493273
11.00920906,-0.7461800796129646,-1.0905877730834153,0.2549243422508996
11.01420906,-0.6897713650805491,-1.1490639175454296,0.2067819933219593
11.01920909,-0.6265144908115758,-1.2065240225623488,0.15862781108503907
11.02420842,-0.5566253055475927,-1.2623379778487067,0.1108510517041897
11.02920842,-0.4803996130633604,-1.315880125233172,0.06385905959006458
11.03420839,-0.3982141433750612,-1.36653750219183,0.018067679640482774
11.03920839,-0.3105261029622346,-1.4137173671155125,-0.026109068866641213
11.04420839,-0.21787132502704423,-1.4568540226909799,-0.06826960707641415
11.04920842,-0.12086107787358975,-1.4954149938681405,-0.10803523375206579
11.05420846,-0.020177614183748607,-1.5289066410671228,-0.1450599295828981
11.05920846,0.083431447439844,-1.5568792979033808,-0.17903911181891582
11.06420846,0.18915982284136038,-1.5789320175198578,-0.20971698696536714
11.06920846,0.29615027150489265,-1.594716995064302,-0.23689223694718414
11.07420846,0.4035032523031299,-1.60394370831816,-0.26042188020949875
11.07920846,0.5102864642676336,-1.6063827857757662,-0.2802232660998567
11.08420776,0.6155451973301427,-1.6018695733231487,-0.29627427766371284
11.08920776,0.7183133918784318,-1.5903073298222126,-0.3086119211988412
11.09420776,0.8176252731465466,-1.5716699421212033,-0.31732955688932657
11.09920779,0.9125273932852848,-1.5460040148514018,-0.3225730631722003
11.10420779,1.002090886045548,-1.5134301627277427,-0.32453622530570453
11.10920779,1.0854237219337062,-1.4741433158583643,-0.3234556039881222
11.11420775,1.161682749260668,-1.4284118449802967,-0.319605090257171
11.11920772,1.2300853176014606,-1.3765753264203868,-0.3132903064670034
11.12420769,1.2899202994580912,-1.3190407978292078,-0.3048429786774773
11.12920769,1.340558348239676,-1.256277405817401,-0.2946153798207292
11.13420772,1.3814612545267564,-1.18880941376865,-0.2829749165022506
11.13920775,1.4121902890835076,-1.1172076178311867,-0.27029890021572567
11.14420778,1.432413449784845,-1.0420793049595425,-0.2569695092641273
11.14920779,1.4419115557628304,-0.9640569720422073,-0.2433689190245914
11.15420778,1.4405831484284883,-0.8837861034500873,-0.229874562832663
11.15920775,1.4284481605095793,-0.8019123703298585,-0.2168544868939925
11.16420775,1.4056503006286818,-0.7190686635192121,-0.20466277908590563
11.16920775,1.3724580762663028,-0.635862398577084,-0.19363507924920756
11.17420845,1.3292643487528262,-0.552863533316235,-0.18408421232206856
11.17920848,1.276584287976518,-0.4705937150704294,-0.17629601976376807
11.18420848,1.2150515799386827,-0.3895169287228735,-0.17052549302614767
11.18920845,1.1454127447952973,-0.3100319513196751,-0.16699332901556344
11.19420842,1.0685194521555266,-0.23246684071234555,-0.16588302660635346
11.19920838,0.9853187750536304,-0.15707560054278344,-0.16733862412556333
11.20420835,0.8968413984376473,-0.08403707728358607,-0.17146314407192037
11.20920835,0.804187880704568,-0.013456060430639136,-0.1783177704264599
11.21420838,0.7085131443755833,0.054633523038381634,-0.18792174352387667
11.21920841,0.6110094343247643,0.12026350093327101,-0.2002529236750774
11.22420778,0.5128880259333858,0.183524675984471,-0.21524895134223457
11.22920778,0.4153599951786382,0.24455865939626398,-0.23280891997644185
11.23420845,0.319616385441218,0.30354863040416313,-0.25279547660874996
11.23920841,0.22680812794632513,0.360709345588443,-0.27503727239839226
11.24420841,0.13802609696951548,0.4162767213563911,-0.2993316972205769
11.24920841,0.05428170670698837,0.4704973064671795,-0.3254478445442797
11.25420845,-0.02351151894016608,0.5236179525387757,-0.35312965983786754
11.25920844,-0.09455495390416889,0.5758759797988301,-0.3820992236863243
11.26420845,-0.15817999696405016,0.6274901204344018,-0.41206011146918325
11.26920844,-0.21386086675224192,0.6786524985072225,-0.44270076316422563
11.27420845,-0.26122463786411926,0.7295218695575977,-0.47369779967335024
11.27920844,-0.30005813802735437,0.7802182930550765,-0.5047192402687989
11.28420841,-0.3303113988555586,0.8308193485256624,-0.5354276037897867
11.28920774,-0.35209745178123236,0.8813579362386604,-0.5654829019279101
11.29420774,-0.36568838252501323,0.931821631944033,-0.5945455458748309
11.29920778,-0.37150769296657715,0.9821534985061996,-0.6222791861148993
11.30420781,-0.37011915570962806,1.0322542011561557,-0.6483534963974978
11.30920781,-0.36221247077200913,1.081985232649809,-0.6724469060602933
11.31420778,-0.3485861367483776,1.1311730332696845,-0.6942492838248174
11.31920774,-0.3301280282360526,1.179613788156736,-0.7134645783511234
11.32420774,-0.30779422988171073,1.2270786965230789,-0.7298134213024807
11.32920774,-0.2825867183492747,1.2733195268702562,-0.7430356948625813
11.33420778,-0.25553050757492124,1.3180742927911904,-0.7528930588606787
11.33920778,-0.2276508776985534,1.3610729015491958,-0.7591714265971696
11.34420778,-0.19995129065984074,1.402042642232299,-0.7616833765828006
11.34920778,-0.17339255342875742,1.4407133940495433,-0.7602704906018188
11.35420778,-0.1488737244003856,1.4768224510335848,-0.7548056142044802
11.35920778,-0.12721517509116517,1.5101188791329703,-0.7451950390428292
11.36420774,-0.10914412634870684,1.5403673460362526,-0.7313806028100789
11.36920774,-0.09528288440073335,1.5673513916040747,-0.7133416898566136
11.37420841,-0.08613991335635457,1.5908761338900494,-0.6910970950212093
11.37920844,-0.08210379961461918,1.6107704276686048,-0.6647066892457683
11.38420844,-0.08344008896588996,1.6268885052898436,-0.6342728050857139
11.38920844,-0.09029090641356013,1.6391111326955194,-0.5999412503231649
11.39420841,-0.10267720048113704,1.6473463095403145,-0.5619018617380488
11.39920837,-0.12050338945780964,1.6515295369471985,-0.5203885255648801
11.40420834,-0.14356413071383275,1.651623674454512,-0.47567860825706104
11.40920834,-0.17155289079047048,1.6476184115857235,-0.4280917526347536
11.41420837,-0.2040719672847456,1.6395293885505557,-0.37798799625839613
11.4192084,-0.24064360511518104,1.627397012046224,-0.3257651626248764
11.42420777,-0.2807218584503945,1.6112850224421023,-0.27185546730018006
11.4292078,-0.3237048723192132,1.591278874984238,-0.2167212774205734
11.4342078,-0.368947290742453,1.5674839985869367,-0.16084997007369714
11.43920844,-0.41577253706880957,1.5400239909238918,-0.10474785630734798
11.4442084,-0.4634847531532099,1.5090387981874207,-0.04893317310109459
11.4492084,-0.5113802237656658,1.4746829129801045,0.006071807193859298
11.4542084,-0.5587581491861309,1.4371236060262236,0.05974944656086639
11.45920844,-0.6049306618634203,1.3965391889625318,0.11159603208134725
11.46420844,-0.6492320124420503,1.3531172885578626,0.1611314797566118
11.46920844,-0.6910268760341759,1.3070530989104474,0.20790920209996155
11.4742084,-0.7297177502392334,1.2585475684518734,0.2515258586219516
11.47920837,-0.7647514311150964,1.2078054737212514,0.291630685762607
11.48420833,-0.7956245623791923,1.1550333328204954,0.32793408954433045
11.48920833,-0.8218882583930297,1.1004371192657603,0.36021518300430355
11.49420837,-0.843151805455289,1.044219752290452,0.3883279650126427
11.4992084,-0.8590854507968362,0.9865783624384333,0.41220586913735396
11.50420843,-0.869422295910572,0.927701360390508,0.43186445932053985
11.50920843,-0.8739593209394874,0.8677653700744176,0.44740210931838303
11.51420843,-0.8725575788437118,0.8069321207511992,0.458998569896408
11.5192084,-0.8651416095280823,0.7453454228329991,0.46691139626411504
11.5242084,-0.8516981321670573,0.6831283749069048,0.4714702739665388
11.5292084,-0.8322740772774451,0.6203809624381187,0.4730693428529802
11.53420843,-0.8069740199082217,0.5571782111632408,0.4721576772387273
11.53920843,-0.7759570743500749,0.4935690505960184,0.46922813886561493
11.54420843,-0.7394333111959585,0.42957602616776414,0.464804879607108
11.54920843,-0.6976597603857816,0.36519597329732395,0.4594298319356879
11.55420843,-0.6509360695431979,0.30040173411179943,0.4536485824286017
11.55920843,-0.5995998959234545,0.235144958620938,0.44799606999006664
11.5642084,-0.5440221223809549,0.16935998814232836,0.442982578344848
11.56920836,-0.48460200112362806,0.10296877139663708,0.4390804955870302
11.57420903,-0.4217623405629378,0.0358867152064495,0.43671228931183514
11.57920903,-0.35594485703104606,-0.03197067504842068,0.43624009531944186
11.58420906,-0.2876058118319854,-0.10068055209920847,0.43795724572969685
11.58920906,-0.21721204331165656,-0.17030510219283662,0.4420819749819578
11.59420906,-0.1452374833508298,-0.24088378684248957,0.44875344587257143
11.59920903,-0.07216021993584244,-0.3124257155290663,0.45803013797997905
11.60420819,0.001539864660122603,-0.384902422494,0.46989054298582056
11.60920816,0.07538288449158732,-0.4582413217545849,0.4842360216359891
11.61420816,0.14889020823157648,-0.5323201087188522,0.5008956014901905
11.61920819,0.22158525853325695,-0.6069623644494768,0.5196324375719299
11.62420756,0.2929939597064408,-0.6819345990301848,0.5401516210269909
11.62920759,0.3626449723932427,-0.7569449422686105,0.5621090024108333
11.63420759,0.43006987996749074,-0.8316436516936432,0.5851206928157013
11.63920759,0.49480350859922306,-0.9056255587836237,0.608772914347985
11.64420756,0.5563845690357222,-0.9784345153033513,0.6326318898722357
11.64920689,0.6143568028466022,-1.0495698346866449,0.6562534904168253
11.65420622,0.6682707997326569,-1.1184946517753498,0.67919239690583
11.65920536,0.7176866251669668,-1.1846460517983965,0.7010105790406669
11.66420446,0.7621773578709077,-1.247446750458971,0.721284945016346
11.66920379,0.801333584331165,-1.3063180451946559,0.7396140680887189
11.67420286,0.8347688356070333,-1.3606937055484898,0.7556239471587777
11.67920266,0.8621258855839755,-1.4100344289893474,0.7689728060051086
11.68420172,0.8830837657433416,-1.4538424574176005,0.7793549767376332
11.68920082,0.8973652940552326,-1.4916759290871682,0.7865039448680053
11.69419992,0.904744866998312,-1.5231625313219133,0.7901946549168595
11.69919929,0.9050562246758217,-1.548012021774879,0.7902451870161246
11.70419932,0.898199870297288,-1.5660272001992432,0.7865179169328108
11.70919935,0.8841498087096014,-1.5771129385520328,0.7789202639359889
11.71419935,0.8629592669558774,-1.5812829146751566,0.7674051125874867
11.71919935,0.8347650762366855,-1.5786637440700286,0.7519709670516652
11.72419932,0.7997904319236908,-1.5694962654765838,0.7326618631527863
11.72919932,0.7583458073102505,-1.5541338081916354,0.7095670287849628
11.73419932,0.7108278751554638,-1.5330373503814618,0.6828202521322727
11.73919869,0.6577163828253255,-1.5067675658783777,0.6525988930472442
11.74419869,0.5995690234045074,-1.475973850236559,0.6191224574148209
11.74919869,0.5370144368529761,-1.4413805130378519,0.5826506471591113
11.75419949,0.4707435529939039,-1.4037704193156244,0.5434807989699476
11.75919949,0.40149954496878343,-1.363966454207437,0.5019446325666322
11.76419909,0.3300666943805884,-1.322811267225521,0.45840424442721794
11.76919839,0.25725847834317944,-1.281145822336216,0.4132473052167851
11.77419905,0.18390517822853303,-1.2397873350007749,0.36688144829051833
11.77919905,0.11084128594666166,-1.1995072161157971,0.31972787222780075
11.78419909,0.03889295228598569,-1.161009664516677,0.2722142214088927
11.78919908,-0.031134310957170522,-1.1249115531573832,0.2247668527494481
11.79419908,-0.09846749280682375,-1.0917242373115759,0.17780263949651975
11.79919972,-0.1623773496677329,-1.0618378738559293,0.13172049872712832
11.80420035,-0.22218893227725095,-1.0355087773214435,0.0868928526222193
11.80920125,-0.27729123480313084,-1.0128502512897382,0.043657242425716024
11.81420218,-0.32714582597692704,-0.9938272259227708,0.002308310187632938
11.81920288,-0.3712943150621458,-0.978254909620853,-0.03690964823594726
11.82420312,-0.4093644974554352,-0.9658015320748309,-0.07380937013553635
11.82920328,-0.4410750212446649,-0.9559951241134576,-0.10826637912751343
11.83420418,-0.4662384233521221,-0.9482341526842817,-0.14022364559384734
11.83920508,-0.4847624080602009,-0.9418017125610295,-0.16969501010751303
11.84420598,-0.4966492855142715,-0.9358828750561375,-0.1967672407408918
11.84920662,-0.501993552110686,-0.929584712168709,-0.22160061152353133
11.85420662,-0.5009776712949917,-0.9219584545490417,-0.24442790743880202
11.85920662,-0.4938661907516306,-0.9120232036908302,-0.26555178119802975
11.86420665,-0.48099839919438137,-0.8987906010385143,-0.2853404081824128
11.86920665,-0.46277977646371815,-0.8812898556874138,-0.3042214085561264
11.87420665,-0.43967252308430554,-0.8585925436560058,-0.3226740311904202
11.87920662,-0.412185471401291,-0.8298366112139751,-0.34121962526404226
11.88420662,-0.38086368190526687,-0.7942490398483315,-0.36041046443469554
11.88920728,-0.3462780168804569,-0.7511666605584013,-0.38081703624074376
11.89420731,-0.3090149604578229,-0.7000546414032879,-0.40301396560330427
11.89920731,-0.26966692133615017,-0.6405222169179096,-0.42756480447892087
11.90420731,-0.2288232141276681,-0.5723352842896894,-0.45500598647061485
11.90920731,-0.18706187020878293,-0.4954255618937768,-0.48583030988113185
11.91420771,-0.14494238232363907,-0.40989609165801894,-0.5204703685711664
11.91920838,-0.10299944221628705,-0.316022965049158,-0.5592823912539957
11.92423603,-0.061737689529582765,-0.21425325746844107,-0.602530972796803
11.929236,-0.021627453991858357,-0.1051992605352516,-0.6503751842319452
11.934236,0.016898558539400445,0.010370800180589026,-0.7028565318518301
11.93923603,0.05344771251670869,0.13154528751694758,-0.7598892014764405
11.94423606,0.08766912021849822,0.25728456767872754,-0.8212529738679227
11.94923606,0.11925466595224431,0.38643891227474947,-0.8865891337623866
11.95423606,0.14793950332300404,0.5177684388268345,-0.9553996205770708
11.95923603,0.1735021553018383,0.6499646122895649,-1.0270495858121491
11.96423603,0.19576434208762974,0.7816728145909121,-1.10077343261152
11.96923603,0.2145906491057355,0.9115154862242963,-1.1756843190144064
11.97423673,0.2298881275615194,1.0381153528497378,-1.2507870103373735
11.97923673,0.24160589336262386,1.1601182701961728,-1.324993870113524
11.98423673,0.2497347579943953,1.2762152519514933,-1.3971436853759474
11.98923673,0.25430688941451307,1.3851632872653272,-1.4660229332103718
11.99423673,0.25539546567586247,1.4858046055899488,-1.5303890139961442
11.99923673,0.25311425214003663,1.5770841041729013,-1.5889949056420651
12.00423669,0.24761700690273233,1.6580647139501015,-1.6406146361074332
12.00923669,0.239096599458952,1.7279405389411486,-1.6840689324789344
12.01423669,0.22778371637218692,1.7860476589273868,-1.718250387022495
12.01923673,0.21394502810252286,1.8318725326668048,-1.7421474856830255
12.02423606,0.19788070618501896,1.8650579783816121,-1.7548668725033532
12.02923606,0.17992120873046272,1.885406740665651,-1.755653272917577
12.03423603,0.16042328893306032,1.8928826800169927,-1.743906567389053
12.03923599,0.13976521856927765,1.8876096444182577,-1.7191955913183072
12.04423596,0.11834125240782868,1.869868102672376,-1.6812683339776864
12.04923596,0.09655539122730046,1.8400896370536861,-1.6300583147148149
12.05423596,0.0748145343515132,1.7988494088320706,-1.5656870252953263
12.05923599,0.05352114930716842,1.7468567253789475,-1.4884624398160238
12.06423602,0.03306562528871285,1.6849438530597245,-1.398873705165537
12.06923606,0.013818515043013489,1.614053236619013,-1.2975822328630369
12.07423606,-0.003877098372074003,1.535223302968556,-1.1854095144952295
12.07923606,-0.01971285329250133,1.4495730442869588,-1.0633220742866634
12.08423602,-0.03342171939243208,1.3582855913364802,-0.932414048870701
12.08923602,-0.04478372144771989,1.262591002301763,-0.7938879410358697
12.09423602,-0.053630566479468296,1.1637485042874223,-0.649034127013906
12.09923606,-0.05984901093779271,1.0630284323702992,-0.4992097035249127
12.10423606,-0.06338285802112117,0.9616941137242879,-0.34581724104427025
12.10923606,-0.0642335290856927,0.8609839424431512,-0.1902839650426092
12.11423602,-0.06245920357116224,0.7620938865026858,-0.03404182026873808
12.11923599,-0.05817256739329869,0.6661606637909953,0.12149121116268696
12.12423595,-0.05153725096450206,0.5742458189658479,0.27492826387504743
12.12923595,-0.04276307709976701,0.48732092453049064,0.4249290449389831
12.13423599,-0.032100278220489234,0.40625411555582536,0.5702135237958821
12.13923602,-0.019832881745686388,0.33179814773584626,0.7095738839231307
12.14423605,-0.006271499789601722,0.26458014477822195,0.8418848426653863
12.14923605,0.008254210524292102,0.2050931758324444,0.966112503133903
12.15423605,0.023403131877488735,0.15368977856648605,1.0813219358062214
12.15923602,0.03883003030698188,0.11057751977439817,1.1866836974004915
12.16423602,0.05419238539585034,0.07581666358214835,1.2814794819130582
12.16923602,0.06915646370447136,0.04931999729833535,1.3651070653741542
12.17423672,0.08340243228283006,0.030854845892508472,1.437084655145981
12.17923675,0.09662835910947556,0.020047286624554263,1.497054691599043
12.18423675,0.10855300668817339,0.016388553969061668,1.5447870817775655
12.18923675,0.11891739349998018,0.019243600245965845,1.5801817791662178
12.19423675,0.12748517370730886,0.02786174821839505,1.6032705681986419
12.19923675,0.13404196401711763,0.0413893379189547,1.6142178719511096
12.20423675,0.13839382095136277,0.05888423124538329,1.6133203793630384
12.20923672,0.14036513381515278,0.0793319947956014,1.6010052851270213
12.21423672,0.1397962415079326,0.10166353471533365,1.5778269502493618
12.21923672,0.13654110118265705,0.12477390876497098,1.5444618218147992
12.22423608,0.13046533318431164,0.1475419935150126,1.5017014931554926
12.22923608,0.12144494191354104,0.16885064248529116,1.450443836560352
12.23423608,0.10936597021650855,0.18760693793094424,1.3916821964417088
12.23923605,0.09412529006995694,0.202762117965058,1.326492688758578
12.24423602,0.07563266829852104,0.21333075407771837,1.256019710338507
12.24923598,0.05381417490153738,0.21840876300953727,1.18145981788515
12.25423598,0.028616924513673238,0.21718986123152045,1.1040441894465853
12.25923602,1.5060101825164142e-05,0.20898010891862365,1.0250199294572866
12.26423605,-0.03198319551926465,0.19321024150550256,0.9456305210865099
12.26923608,-0.0673276774200049,0.16944554779560775,0.8670957666175018
12.27423608,-0.10591794038991102,0.13739312010160576,0.790591588937108
12.27923608,-0.1475948471787809,0.09690636984262596,0.7172300955432304
12.28423605,-0.19213253634993072,0.047986768522311526,0.6480403298758501
12.28923605,-0.23923125216052524,-0.009217162031324007,0.5839501505543646
12.29423605,-0.2885115236739178,-0.07441352486353442,0.5257696833000697
12.29923608,-0.3395101602800233,-0.14717324453271582,0.47417677878523784
12.30423611,-0.3916784871590215,-0.22693858667025313,0.4297048792428724
12.30923611,-0.4443831789705265,-0.3130337542751986,0.3927336462582738
12.31423608,-0.49690996535047105,-0.40467727654944746,0.36348263317679574
12.31923604,-0.5484703800682968,-0.5009958794178023,0.34200820164759804
12.32423601,-0.5982116102807548,-0.6010395118250175,0.3282037874215967
12.32923598,-0.6452293779833026,-0.7037971974573499,0.32180351961803644
12.33423598,-0.6885836586962577,-0.8082133857494532,0.32238909401843396
12.33923601,-0.7273169196300417,-0.9132044866024054,0.3293996993084718
12.34423604,-0.7604744475601478,-1.017675288216051,0.34214470202030867
12.34923608,-0.7871262403799639,-1.1205349756914522,0.35981871836318907
12.35423608,-0.8063898595250323,-1.2207124892288983,0.38151864480217323
12.35923608,-0.8174535863907109,-1.3171709849015645,0.40626218648664886
12.36423604,-0.8195991966575364,-1.4089211883060646,0.43300741214211114
12.36923604,-0.8122236620294295,-1.4950334621523524,0.46067287198901946
12.37423671,-0.794859106990183,-1.574648443301764,0.48815783715223565
12.37923674,-0.7671903856451782,-1.6469861424299244,0.5143622513851658
12.38423674,-0.7290696981950788,-1.7113534385587483,0.5382060268860791
12.38923674,-0.6805277375619236,-1.7671499384811127,0.5586473647961878
12.39423674,-0.6217809448992547,-1.8138722055139387,0.5746998369306134
12.39923674,-0.5532345581526116,-1.8511163926324605,0.5854480266601951
12.40423674,-0.47548125808223446,-1.878579342923495,0.5900615904016051
12.40923671,-0.3892953463717209,-1.8960582470558207,0.5878076622554768
12.41423671,-0.29562252410610773,-1.9034489741509983,0.5780615774441741
12.41923671,-0.19556546879968503,-1.900743218667024,0.5603159302941424
12.42423607,-0.09036552790901671,-1.88802462944049,0.5341880067491612
12.42923611,0.01861904772452783,-1.8654641040940838,0.4994256397528703
12.43423611,0.12993781730380657,-1.8333144386181361,0.45591153017332076
12.43923607,0.24207522282428812,-1.7919045156346673,0.40366605912827735
12.44423604,0.3534793736887831,-1.7416331958342037,0.3428485934954333
12.449236,0.4625918500969214,-1.682963048091458,0.2737572605800183
12.45423597,0.5678778020633045,-1.6164140190470806,0.19682714764190198
12.45923597,0.6678556088750266,-1.5425571066125745,0.11262687468224965
12.464236,0.7611253718772649,-1.4620080670467805,0.02185349892531993
12.46923604,0.8463955421013678,-1.375421154572477,-0.07467426473526866
12.47423607,0.9225070322886313,-1.283482868749348,-0.1760244893877059
12.47923607,0.9884542291928695,-1.1869056706219205,-0.2811621001162799
12.48423607,1.043402406701031,-1.0864216253368255,-0.38896049259966103
12.48923604,1.086701143952435,-0.9827759358569693,-0.4982146422595202
12.49423604,1.1178934750152512,-0.876720347544575,-0.6076556476066275
12.49923604,1.1367206351153358,-0.7690064244414492,-0.7159666539234327
12.50423607,1.1431224167009877,-0.6603787232610635,-0.8218000910229487
12.50923607,1.137233296997434,-0.5515679187000848,-0.9237961310685545
12.51423607,1.119374635618416,-0.4432839609418094,-1.0206022360329094
12.51923603,1.0900433560676765,-0.33620936946426244,-1.1108936255391992
12.524236,1.0498976121144399,-0.23099278357829733,-1.1933944543297694
12.52923597,0.9997399966634867,-0.1282428991854952,-1.2668994386318113
12.53423597,0.9404988780152579,-0.028522925054480158,-1.3302956075520187
12.539236,0.8732084505930222,0.06765430776320147,-1.3825837823518201
12.54423603,0.7989880697331185,0.15983045399946103,-1.4228993144476672
12.54923606,0.7190214059200366,0.2476048631753076,-1.450531556393781
12.5542361,0.6345359016667285,0.3306367987498099,-1.4649415088887998
12.5592361,0.54678294183116,0.4086466165341664,-1.4657770842712012
12.56423606,0.45701905778962326,0.4814159017460008,-1.452885452342972
12.56923603,0.3664883871411685,0.5487866164076056,-1.4263219867609818
12.5742367,0.2764065176583191,0.6106593540184884,-1.3863554094442676
12.5792367,0.18794576947476582,0.6669908304563238,-1.3334688352047055
12.58423673,0.10222191845397027,0.7177907574601884,-1.268356544041818
12.58923673,0.020282333731025344,0.7631182498726178,-1.1919164429568367
12.59423673,-0.05690451409010204,0.8030779132063002,-1.1052383059686968
12.59923673,-0.12845822929049155,0.8378157467839256,-1.0095879845806461
12.60423673,-0.19359442044772765,0.8675149822491355,-0.9063878557973881
12.60923673,-0.25163146843586726,0.8923919608024444,-0.7971938290622507
12.6142367,-0.3019962358984384,0.9126921380041978,-0.6836692832161613
12.6192367,-0.34422883086864864,0.9286862932409381,-0.567556364604031
12.62423603,-0.3779865310389235,0.9406670099537889,-0.45064515519121007
12.62923606,-0.4030469488928902,0.9489454789814503,-0.3347413127881415
12.63423606,-0.4193104735603092,0.953848658274083,-0.22163288246284993
12.63923539,-0.4268019694742816,0.955716797540951,-0.11305705997143217
12.64423469,-0.4256716530063958,0.954901307854054,-0.010667733900904433
12.64923403,-0.4161950142236527,0.9517629262034859,0.08399537135820777
12.65423313,-0.39877160845444465,0.9466700955661989,0.16953518710587726
12.65923249,-0.37392251617306577,0.9399974543633399,0.24472276146188282
12.66423183,-0.3422862622576392,0.9321243083547773,0.3085191490672161
12.66923183,-0.3046129974400597,0.9234329469233327,0.36009331578055104
12.67423116,-0.26175677440529765,0.9143066673581309,0.39883576062514425
12.67923026,-0.2146657953188815,0.9051273860109353,0.4243676561244045
12.68422936,-0.1643705625105295,0.8962727428922075,0.4365453964110072
12.68922866,-0.11196992646476574,0.888112643968693,0.43546053331373213
12.69422773,-0.05861509386552308,0.8810052299497593,0.4214351849534662
12.69922772,-0.0054917332293734095,0.8752923078223577,0.3950131199780862
12.70422706,0.046199603535076746,0.8712943268579844,0.35694684238409025
12.70922642,0.09526444081528274,0.8693050184023122,0.3081811094638927
12.71422576,0.14053633515355438,0.8695858435119862,0.2498333936787758
12.71922576,0.18089937074015813,0.8723604029431212,0.18317184188985977
12.72422572,0.2153106847010449,0.8778089630434361,0.10959129611260182
12.72922532,0.24282247984644378,0.8860632443372454,0.03058792934758149
12.73422529,0.26260296911717423,0.8972016119754811,-0.05226697014579268
12.73922529,0.27395569891683935,0.9112448003199721,-0.13735355511194614
12.74422532,0.2763367169385444,0.9281522955862145,-0.22302982921298412
12.74922536,0.26936908453436403,0.9478194872947259,-0.3076574547089783
12.75422539,0.2528542841008574,0.9700756799678194,-0.38962654590523915
12.75922499,0.2267801367318215,0.9946830330952569,-0.4673790956048232
12.76422432,0.19132492240273574,1.0213364739561768,-0.5394307532266469
12.76922429,0.14685748324434725,1.0496646085420107,-0.6043907491486883
12.77422495,0.09393319020228393,1.0792316434471114,-0.6609798311153346
12.77922495,0.033285763868246075,1.1095403271459587,-0.7080461377043931
12.78422499,-0.034184942143651455,1.1400359213718783,-0.7445789764383618
12.78922565,-0.10742896915524686,1.1701112192735739,-0.7697204992284631
12.79422632,-0.18526575733989517,1.1991126323702483,-0.7827752784204965
12.79922675,-0.26640669711016596,1.2263473685613409,-0.7832177894835388
12.80422762,-0.3494802263545988,1.2510917150489986,-0.7706978101536546
12.80922825,-0.4330589174359843,1.2726004215409457,-0.7450437582065477
12.81422892,-0.5156879573669693,1.2901171517549133,-0.7062640137668831
12.81922892,-0.595914393445494,1.3028859386090779,-0.6545463033169345
12.82422895,-0.6723164930798508,1.3101635448900186,-0.5902552521689208
12.82922988,-0.7435325522305737,1.3112325998856307,-0.5139282295340032
12.83423082,-0.8082884859072903,1.305415354656639,-0.42626960782702145
12.83923082,-0.8654235510911755,1.2920878735437027,-0.32814353349322045
12.84423172,-0.9139135904568169,1.2706944551337116,-0.2205652645326525
12.84923168,-0.9528912445405614,1.2407620500343006,-0.10469107927476365
12.85423235,-0.9816626577254606,1.2019144142860012,0.01819328573476208
12.85923301,-0.9997202953270755,1.15388570662762,0.14668574142896096
12.86423371,-1.0067515914512615,1.0965332071877492,0.27928257493124475
12.86923371,-1.002643257604722,1.029848807548148,0.41439486271276277
12.87423371,-0.9874811979726782,0.9539689010186312,0.5503665910054844
12.87923408,-0.9615460957694482,0.8691822908638522,0.6854944526013524
12.88423408,-0.925304852055716,0.7759357360545445,0.8180492251593676
12.88923408,-0.8793981690346888,0.6748367707318028,0.9462985658224434
12.89423405,-0.8246246688649003,0.5666534656337214,1.0685309844587696
12.89923404,-0.761922021821568,0.4523108471213593,1.1830806874779156
12.90423404,-0.6923456210657876,0.3328837518052136,1.2883529196085313
12.90923448,-0.6170453837688213,0.2095859716976742,1.3828493746730464
12.91423514,-0.5372412793682774,0.08375563545525323,1.4651931992913152
12.91923514,-0.45419818575005266,-0.0431631261787687,1.5341530758053705
12.92423511,-0.369200654990528,-0.16964207101669143,1.5886658432046743
12.92923508,-0.28352813528302206,-0.2940940152813162,1.6278570998257162
12.93423508,-0.19843114889585417,-0.41490088698000627,1.6510592331342748
12.93923511,-0.11510887122493556,-0.5304441509223571,1.6578263440004821
12.94423514,-0.0346884960167325,-0.6391369845795523,1.6479455776936611
12.94923534,0.04179329135748931,-0.7394574870043983,1.6214444410102793
12.95423534,0.11340647517505943,-0.8299821226766867,1.5785937725138277
12.95923534,0.1793413110275856,-0.9094185430710352,1.5199061384436459
12.96423534,0.23891923308131396,-0.9766368952985095,1.4461295480600185
12.96923534,0.29160098619142827,-1.0306987226010682,1.3582365157439211
12.97423598,0.3369919510785222,-1.0708825873483858,1.2574086377562923
12.97923598,0.3748446752412795,-1.0967056036317786,1.145016991881187
12.98423598,0.40505866266872464,-1.107940152987211,1.0225988003370874
12.98923668,0.42767751266414855,-1.1046251720493108,0.8918309135881128
12.99423668,0.4428835338744217,-1.0870715426607374,0.7545007699575121
12.99923668,0.4509899950165763,-1.055861278995163,0.6124755590525941
13.00423664,0.45243120818907473,-1.0118403868067627,0.467670362094656
13.00923661,0.4477506724271646,-0.9561054600043875,0.3220160567541578
13.01423657,0.4375875334198754,-0.8899842716928354,0.17742775826703983
13.01923657,0.42266164040374327,-0.8150108028915884,0.03577452543366367
13.02423594,0.4037575031228206,-0.7328953250618259,-0.1011490066890851
13.02923597,0.38170746825091767,-0.6454903056704027,-0.23164849320851535
13.034236,0.3573744425274669,-0.5547530330876405,-0.354152776736265
13.03923601,0.33163448719423694,-0.46270595243475615,-0.46723346769992324
13.044236,0.30535959573342253,-0.371395762640272,-0.569620987353402
13.04923597,0.27940094643064944,-0.28285234339446047,-0.6602169801272997
13.05423594,0.25457289515163817,-0.19904855761662035,-0.7381031209911999
13.05923594,0.23163794394447193,-0.1218619121784735,-0.8025464502725038
13.06423597,0.21129288957452588,-0.05303896187392089,-0.8530014611042253
13.069236,0.19415632502966707,0.005836783389871549,-0.8891092422364728
13.074236,0.18075763896067848,0.0533728314660614,-0.9106940387065755
13.079236,0.1715276354414615,0.08839109688458134,-0.9177576306321045
13.08423597,0.16679088103109882,0.10994639630922191,-0.9104719431923213
13.08923594,0.16675987796815947,0.11733989136820572,-0.8891702898556773
13.0942359,0.17153115908160807,0.1101274615459776,-0.8543376211919587
13.0992359,0.18108339735572976,0.0881231202073298,-0.8066001090283182
13.10423593,0.19527761709837282,0.051397703048440484,-0.7467143442388118
13.10923597,0.21385958241102,0.0002731573281489251,-0.6755563685342899
13.114236,0.23646442105692606,-0.06468716079653941,-0.594110699021952
13.119236,0.26262351573273157,-0.14269171683775253,-0.5034594428441843
13.124236,0.29177365726955395,-0.2327370593993901,-0.40477154173278507
13.12923597,0.3232684033710895,-0.333626605983507,-0.29929213557602186
13.13423597,0.3563915217720978,-0.44399145886811126,-0.18833199175262738
13.13923597,0.39037231978593584,-0.5623127864734482,-0.07325691434737511
13.144236,0.4244025774196143,-0.6869453482754844,0.04452297432838183
13.149236,0.4576547158415934,-0.8161417926393619,0.16356419730352426
13.154236,0.4893007559399739,-0.9480774128746979,0.28240124645275266
13.1592356,0.5185315616544109,-1.080875102728553,0.3995583659976132
13.1642356,0.5445758266944738,-1.212630303089307,0.5135618701025686
13.1692356,0.5667182558237225,-1.3414357715535694,0.6229530334708681
13.17423623,0.5843164147834277,-1.465406031672016,0.7263015511295899
13.1792362,0.5968157740252855,-1.5827013674462256,0.8222195144535892
13.1842362,0.603762544359,-1.691551221686385,0.9093757966297005
13.18923623,0.6048139882410165,-1.7902768364857207,0.9865106860566479
13.19423626,0.5997459800502446,-1.877312943893749,1.0524505565800344
13.19923626,0.5884576766821425,-1.9512282799202632,1.106122325368259
13.20423626,0.5709732435002033,-2.0107446617174363,1.1465674271900241
13.20923623,0.5474406589186779,-2.05475434303179,1.1729550290416695
13.21423623,0.5181276926800188,-2.0823353524814507,1.1845942193345262
13.21923623,0.4834152169065955,-2.0927645260994625,1.1809449270539687
13.2242356,0.4437880639908183,-2.0855279705726524,1.1616273545486473
13.2292356,0.3998236914196747,-2.060328735875535,1.1264297412371633
13.2342356,0.3521789521629936,-2.0170915338119197,1.0753143149273077
13.2392356,0.3015753011785959,-1.9559644091594357,1.0084213323979956
13.2442356,0.2487827929926254,-1.877317347127668,0.92607115794696
13.2492356,0.19460324124109976,-1.7817378764673029,0.828764371343373
13.25423556,0.13985292038027208,-1.6700237920265426,0.7171799286212608
13.25923556,0.08534519685722398,-1.543173165230473,0.5921714170895327
13.26423556,0.03187348422268701,-1.4023718315493758,0.45476145054325157
13.2692356,-0.019805079268512615,-1.2489785424304982,0.3061342453055016
13.2742356,-0.06898483780390023,-1.0845079534467057,0.14762640640665006
13.2792356,-0.11502533782972947,-0.9106116024772393,-0.019284060142919075
13.28423556,-0.1573632250362108,-0.7290570232138772,-0.19299050382822946
13.28923553,-0.19552203384401007,-0.5417051476703237,-0.37177215295472177
13.29423549,-0.229119647640012,-0.35048617868487264,-0.5538103955993051
13.29923549,-0.25787328023869005,-0.1573741569233607,-0.7372067915535265
13.30423549,-0.2816019060500855,0.03563949973208275,-0.920002763418728
13.30923593,-0.30022614230274164,0.22657315165863576,-1.1002008831900976
13.31423596,-0.31376565653885896,0.41348240654303475,-1.2757876319098025
13.31923599,-0.3223342348746186,0.5944874832056708,-1.4447574643636751
13.32423599,-0.32613270283000445,0.767800025791703,-1.605137960096037
13.32923599,-0.32543994354350797,0.9317489087724333,-1.7550157890478615
13.33423596,-0.320602308948001,1.0848045670038338,-1.8925631675937344
13.33923596,-0.3120217660954074,1.2256013874896692,-2.0160644309523135
13.34423596,-0.300143158978023,1.3529577110599815,-2.1239423032887736
13.34923599,-0.2854409910157198,1.4658930138109934,-2.214783410102305
13.35423599,-0.26840614150628306,1.5636418708753415,-2.2873625510366944
13.35923599,-0.24953292013604603,1.6456643498711314,-2.340665235836776
13.36423596,-0.229306838687657,1.7116525389084647,-2.3739079810051167
13.36923592,-0.20819344086192074,1.761532984621544,-2.3865558687340096
13.37423656,-0.18662848242270078,1.7954648992115352,-2.3783368829365386
13.37923656,-0.16500969752427674,1.8138340912004212,-2.349252561251226
13.38423659,-0.14369032562504958,1.817242680887091,-2.2995845392694996
13.38923662,-0.12297450872019446,1.8064947751640308,-2.2298966161459517
13.39423666,-0.10311460214984662,1.7825783916873035,-2.141032039920328
13.39923666,-0.08431037536419615,1.746644031340554,-2.0341057954029527
13.40423666,-0.06671001355441881,1.6999803922347303,-1.910491775819869
13.40923662,-0.050412769435065154,1.6439877922584356,-1.7718048302969618
13.41423662,-0.03547305971946927,1.5801499178887373,-1.6198778013059048
13.41923662,-0.021905756006348174,1.5100045446946109,-1.4567337967894942
13.42423599,-0.009692387235157715,1.4351138813684756,-1.2845540762619563
13.42923602,0.001212048066279867,1.3570351764747373,-1.1056420626371566
13.43423602,0.010871966310008549,1.2772921978527896,-0.9223841156296093
13.43923602,0.019364077485532656,1.1973481514862812,-0.7372078133130697
13.44423602,0.026770532658783062,1.1185805527038093,-0.5525385825747826
13.44923602,0.03317258055880359,1.0422585006959257,-0.370755594846249
13.45423602,0.038644929324990085,0.9695227396241309,-0.19414789917933836
13.45923599,0.04325095904878658,0.901368817241242,-0.02487179873354412
13.46423599,0.04703887838914513,0.8386335756572814,0.1350895133655715
13.46923559,0.05003886901785285,0.7819851295043192,0.2839630598135513
13.47423562,0.05226121865417754,0.7319164054640757,0.4202189737148919
13.47923562,0.053695408607248876,0.6887422356180446,0.5425983056421784
13.48423562,0.05431009492945325,0.6525999179634373,0.6501349738460145
13.48923559,0.05405390260263618,0.6234530843451129,0.7421712248167398
13.49423555,0.05285693868968019,0.6010986528462416,0.8183661348300972
13.49923552,0.05063292232315901,0.5851765909870953,0.8786968685626837
13.50423552,0.04728182623760957,0.5751821781968119,0.923452611344149
13.50923555,0.04269292602785689,0.5704804290465437,0.9532212991339573
13.51423558,0.036748159244005575,0.5703223199890483,0.9688694769829093
13.51923562,0.029325706117743343,0.5738624500852758,0.9715158152553115
13.52423562,0.020303715594727836,0.5801777602585195,0.9624989966448032
13.52923562,0.009564112501784997,0.5882869368480761,0.9433408501260241
13.53423558,-0.0030035671493887895,0.5971701344884058,0.9157057450329159
13.53923558,-0.01749835566936098,0.6057886707986121,0.8813573642169591
13.54423558,-0.03400408169341722,0.6131043701738241,0.8421140450569118
13.54923562,-0.05258567208106474,0.618098264202542,0.7998039080019854
13.55423565,-0.07328554704005884,0.6197883894570592,0.7562209836898708
13.55923565,-0.09612012611865413,0.6172464574593765,0.7130835024315495
13.56423561,-0.12107646794655332,0.6096132050146701,0.67199542547873
13.56923558,-0.14810908039899032,0.5961122648959528,0.6344121781513806
13.57423621,-0.1771369595693144,0.5760624264643175,0.6016113945228947
13.57923618,-0.20804094227334635,0.54888818287451,0.5746693081261571
13.58423618,-0.24066148289278624,0.514128486089416,0.5544432308554065
13.58923621,-0.27479698637958966,0.47144365366836327,0.5415603612049763
13.59423625,-0.3102028416588685,0.4206203934355643,0.5364129612198061
13.59923628,-0.3465913015535148,0.3615749349622261,0.5391597464961511
13.60423628,-0.38363234591658557,0.2943542808674545,0.5497331523708678
13.60923628,-0.4209556436728033,0.21913561558689562,0.5678519789639322
13.61423624,-0.45815369723784405,0.1362239327666674,0.5930387841485484
13.61923664,-0.49478621051690946,0.04604796289063916,0.6246412910738205
13.62423598,-0.5303856717669064,-0.05084550113395971,0.6618570069091158
13.62923601,-0.5644640885513511,-0.15379877120822144,0.7037602105263341
13.63423601,-0.5965207582911923,-0.26205180741400563,0.7493304555954763
13.63923601,-0.6260509093613245,-0.3747520162805269,0.7974817480724281
13.64423601,-0.6525550082385049,-0.4909651795769447,0.8470915894581664
13.64923534,-0.6755484996218557,-0.6096873863169971,0.8970291264539945
13.65423468,-0.6945717280090178,-0.729857837061558,0.9461817118630756
13.65923398,-0.7091997786219489,-0.8503723849386741,0.993479259831405
13.66423398,-0.7190519705528838,-0.9700976719149924,1.0379158699227016
13.66923308,-0.7238007347638736,-1.0878857116936822,1.0785682974760642
13.67423221,-0.7231796151011185,-1.2025887620718696,1.1146109593277345
13.67923134,-0.7169901435016515,-1.313074319575793,1.145327280451268
13.68423134,-0.7051073626002742,-1.4182400581260695,1.1701173047385056
13.68923041,-0.6874838009412189,-1.5170285226426858,1.188501609512378
13.69422947,-0.6641517477928437,-1.608441379599166,1.2001216769507572
13.69922877,-0.6352237244196243,-1.6915530211378578,1.2047369849611824
13.70422807,-0.6008911040418844,-1.7655233187214014,1.2022191825685566
13.70922924,-0.56142089146985,-1.8296093271417042,1.192543805965298
13.71422861,-0.5171507335401558,-1.8831757495096473,1.1757800647990195
13.71922864,-0.46848228997805025,-1.9257039866802474,1.1520792777080362
13.724228,-0.41587314740164166,-1.9567996083802364,1.121662556536056
13.72922801,-0.35982750412226455,-1.976198097691159,1.084808327078025
13.73422761,-0.3008858890110426,-1.983768737272595,1.0418402306375556
13.73922757,-0.23961420341850587,-1.9795165274483781,0.9931158791438524
13.74422757,-0.1765923905978805,-1.963582054571973,0.9390168446278361
13.74922757,-0.11240304322746726,-1.9362392624175266,0.879940160200388
13.7542276,-0.04762025933902332,-1.897891117907753,0.8162915016807701
13.7592276,0.01720094624419293,-1.8490632036123147,0.7484801119863512
13.7642276,0.08153437233665062,-1.790395312114215,0.6769154291330185
13.76922757,0.1448912086133426,-1.7226311608396967,0.6020052898827472
13.7742282,0.2068271799494817,-1.6466063896929197,0.524155513464891
13.77922817,0.26694800733634855,-1.5632350473973524,0.4437706310295372
13.78422817,0.3249129820920923,-1.4734948150419014,0.3612555184181965
13.7892282,0.3804365160958536,-1.3784112550731122,0.27701770615261506
13.79422824,0.43328761213247863,-1.2790414078201855,0.19147016874019987
13.79922894,0.48328728927846243,-1.1764570821818776,0.10503442142897193
13.80422964,0.5303040918548904,-1.071728199627705,0.018143765233680595
13.8092303,0.5742479002690728,-0.965906549838167,-0.06875348510233692
13.81423027,0.615062342745611,-0.8600103020654121,-0.15519097939877963
13.81923113,0.652716175094654,-0.7550095891023084,-0.24068174073717188
13.82423137,0.6871940492212806,-0.6518134411842783,-0.3247162654763515
13.82923227,0.7184871279361438,-0.5512582964297833,-0.40676160443057013
13.8342323,0.7465840207340004,-0.4540982552693927,-0.4862617274645605
13.83923253,0.7714625092522083,-0.3609971829875395,-0.5626394622420205
13.84423343,0.7930825006047185,-0.27252270178419064,-0.6353002570911639
13.8492341,0.8113805939777022,-0.18914205575983797,-0.7036379462780298
13.85423476,0.826266576681787,-0.11121978186182824,-0.7670425966116997
13.8592336,0.8376220870848489,-0.03901707893960609,-0.8249103943110584
13.86423423,0.8453015978353529,0.027307263310864114,-0.8766553990275285
13.86923423,0.8491357842748213,0.08769453288866735,-0.9217228572146788
13.8742349,0.8489372488602037,0.1421825260704533,-0.9596036413947424
13.87923493,0.8445084725186686,0.19090089920053924,-0.9898492797896549
13.88423533,0.8356517601370449,0.2340655838082817,-1.0120869761069389
13.88923466,0.8221808444049158,0.2719723821030448,-1.0260340006409845
13.89423463,0.8039337167595908,0.3049898326436047,-1.0315108625646876
13.89923463,0.7807861736751188,0.3335514125082946,-1.0284527428907408
13.90423463,0.7526655068069273,0.35814712671575,-1.016918763903202
13.90923466,0.719563729475157,0.37931452929939846,-0.9970987742840564
13.91423466,0.6815497201916624,0.39762922202139794,-0.9693174204936442
13.91923466,0.6387796759431915,0.4136948833516517,-0.9340353427356448
13.92423466,0.591505303663816,0.4281328892962596,-0.8918473791962174
13.92923466,0.5400792386611452,0.44157159794233336,-0.8434776979868197
13.93423466,0.4849572646019001,0.4546353825557887,-0.789771819368484
13.93923463,0.42669702024992895,0.46793351651583864,-0.7316855534306081
13.94423459,0.3659530102123393,0.4820490393221689,-0.6702709623727962
13.94923459,0.3034678848100079,0.497527765399943,-0.6066595543151182
13.95423459,0.24006011015970471,0.5148676317910733,-0.5420430143719766
13.95923463,0.17660830450521797,0.5345086102955894,-0.4776518663421805
13.96423463,0.11403266112638046,0.5568234281556761,-0.4147325277600112
13.96923463,0.05327400301603643,0.5821093456082141,-0.3545232711374369
13.97423526,-0.004728886399159705,0.6105812282871914,-0.2982296365328413
13.97923522,-0.05906294175335033,0.6423661295274133,-0.24699985569153424
13.98423519,-0.10886474646179845,0.6774995652054929,-0.20190084522475235
13.98923586,-0.15334394291748188,0.7159236251291123,-0.1638953053308404
13.99423589,-0.19180535952366928,0.7574870229861227,-0.1338204225474924
13.99923592,-0.22366912892269572,0.8019471431696138,-0.11236862280995288
14.00423596,-0.24848813642251316,0.848974097328153,-0.10007075961256207
14.00923596,-0.2659622284046383,0.8981567548050106,-0.09728205825404908
14.01423596,-0.2759487236179781,0.9490106576706323,-0.10417107856454552
14.01923592,-0.27846890061941915,1.0009876722321696,-0.12071191095246511
14.02423529,-0.27371027579011364,1.0534871656914955,-0.1466797857165562
14.02923529,-0.2620246294212983,1.1058684322179992,-0.1816502501060344
14.03423532,-0.2439218714278035,1.157464033207074,-0.22500204425354892
14.03923599,-0.22005995455625593,1.2075936703649692,-0.2759237753420477
14.04423599,-0.1912311391196235,1.2555781856360098,-0.33342443735134664
14.04923595,-0.15834499237740032,1.300753282935593,-0.396347743237097
14.05423592,-0.12240857114149961,1.3424825910206797,-0.4633901287746016
14.05923589,-0.08450428854398447,1.3801697277614446,-0.5331221648642174
14.06423588,-0.04576600384105758,1.4132690760686781,-0.6040129963059737
14.06923589,-0.007353897066230836,1.4412950357913106,-0.6744573272573404
14.07423592,0.029571300930430547,1.46382957189016,-0.7428044070762466
14.07923595,0.0638741569174867,1.4805279364540018,-0.8073884354968854
14.08423598,0.09446991245803968,1.4911225001287922,-0.8665597951863175
14.08923598,0.12034886624798612,1.4954246862617053,-0.9187165211410764
14.09423598,0.1405992702365268,1.4933250570990089,-0.9623354204720215
14.09923595,0.1544282832681891,1.4847916544525475,-0.99600225935491
14.10423595,0.16118056364863823,1.4698667465394615,-1.0184404398708453
14.10923595,0.16035412397082274,1.4486621774865645,-1.0285376056196895
14.11423598,0.15161311900960608,1.4213535551790561,-1.0253696471639207
14.11923598,0.1347972898730048,1.3881735450414099,-1.0082216268793764
14.12423598,0.10992784301251798,1.3494045597389748,-0.9766052031293747
14.12923598,0.07720959968879335,1.305371145279698,-0.930272200079436
14.13423598,0.037029310452784,1.256432360749302,-0.8692240381749744
14.13923598,-0.010049907572465273,1.2029744313445623,-0.7937168103614464
14.14423595,-0.06329798263845568,1.1454039232648272,-0.7042618613266951
14.14923595,-0.12183104308750521,1.0841416463326976,-0.6016218026244696
14.15423595,-0.18462812243195623,1.0196174388286772,-0.48680197611705195
14.15923598,-0.2505511317831318,0.9522659324635591,-0.36103746081162313
14.16423598,-0.318367725579112,0.8825233374690306,-0.22577580108966178
14.16923598,-0.3867766006115786,0.8108252321490661,-0.08265571383387398
14.17423658,-0.45443469399049646,0.7376052908399622,0.06651789505665671
14.17923655,-0.5199856886107151,0.6632948404868839,0.21980220905522263
14.18423655,-0.5820891972269705,0.5883230987684998,0.37514762039299004
14.18923658,-0.6394499766410766,0.5131179151342413,0.5304311837461034
14.19423661,-0.6908465180902083,0.43810681038128985,0.6834918494195511
14.19923661,-0.7351583661680429,0.36371809203059147,0.8321668788904356
14.20423661,-0.7713915364338731,0.29038181380531863,0.9743288112869726
14.20923661,-0.7987014326313552,0.21853034921966172,1.1079223249630565
14.21423661,-0.8164127090447146,0.14859836186457284,1.2310003242643168
14.21923661,-0.8240355816803867,0.08102197820021481,1.3417585778055576
14.22423591,-0.8212781632821013,0.01623700216413476,1.4385682420670662
14.22923591,-0.8080544822764744,-0.04532394605920641,1.5200056253108807
14.23423591,-0.7844879453598709,-0.10323543365987169,1.5848785840872417
14.23923595,-0.750910116079147,-0.1570843710073482,1.6322489979673813
14.24423595,-0.707854802397699,-0.20647627026589,1.6614508341642478
14.24923595,-0.656047567768839,-0.2510424994173572,1.6721033866577941
14.25423591,-0.5963908962250888,-0.2904483701908446,1.6641193494815711
14.25923588,-0.5299453483703966,-0.3244018493874174,1.637707460608881
14.26423585,-0.4579071402952204,-0.35266263875632775,1.5933695376047985
14.26923584,-0.38158266083716397,-0.37505132813514613,1.5318918304698275
14.27423588,-0.3023605128022215,-0.39145829043967073,1.4543307527336482
14.27923591,-0.22168171711947665,-0.4018519580006871,1.3619932233017924
14.28423594,-0.1410087516706676,-0.40628610253401914,1.2564120495653275
14.28923594,-0.061794108741490335,-0.4049057412134363,1.1393169832823868
14.29423594,0.014550947905436849,-0.397951313124604,1.012602253458666
14.29923591,0.08668675549007926,-0.3857608153724035,0.8782914970916277
14.30423588,0.1533740953377701,-0.3687696548041318,0.7385010545667068
14.30923588,0.21350086216985154,-0.34750805537744545,0.5954025731917606
14.31423591,0.26610593792768816,-0.3225959560270557,0.4511857835197683
14.31923594,0.3103996880855553,-0.2947354316700957,0.3080221979887189
14.32423594,0.34578056141251395,-0.26470076339805887,0.1680303491324859
14.32923594,0.37184736343248487,-0.2333263673166213,0.03324305105510457
14.33423591,0.38840688774586585,-0.20149286121911644,-0.09442295477530759
14.33923587,0.39547672207162715,-0.1701116020966778,-0.21319471045249916
14.34423584,0.39328318854023425,-0.1401080642614448,-0.3214679243855755
14.34923584,0.38225452037005275,-0.11240444743096399,-0.41782888294393083
14.35423587,0.36300950978919866,-0.08790190762439573,-0.5010732596934017
14.35923591,0.3363419765547114,-0.06746279411531865,-0.5702216811752872
14.36423594,0.3032014973063005,-0.05189325771381118,-0.624531890913302
14.36923594,0.2646709022162623,-0.041926574731872605,-0.6635073424797484
14.3742366,0.2219410895180384,-0.0382075116321581,-0.6869020577681613
14.37923657,0.17628373430776462,-0.041278039921866405,-0.6947216123881521
14.38423657,0.1290224789876648,-0.051564698967855586,-0.6872201564163997
14.38923657,0.08150319229560757,-0.06936789322334037,-0.6648934432821958
14.3942366,0.03506387629440996,-0.09485339545847152,-0.6284679184155176
14.3992366,-0.008995209067455805,-0.12804630421922858,-0.5788860073244455
14.4042366,-0.04944064234711896,-0.1688276678581291,-0.5172878343905771
14.4092366,-0.08513360285676559,-0.2169339366958209,-0.4449896933680417
14.4142366,-0.11505575196876357,-0.27195933931914756,-0.36345967318204686
14.4192366,-0.13833270067891754,-0.33336120150509496,-0.27429091390642985
14.4242359,-0.15425455091033752,-0.40046814111282425,-0.1791730253486908
14.42923587,-0.16229302304455734,-0.47249098376892107,-0.0798622438775265
14.43423587,-0.16211471211162803,-0.5485361559531013,0.021849068398284613
14.4392359,-0.15359005369299747,-0.6276212281110847,0.12416296605362219
14.44423594,-0.13679763364789593,-0.7086922059076695,0.22530589581212646
14.44923594,-0.11202354889624606,-0.790642108975836,0.3235575250300997
14.45423594,-0.0797556240354037,-0.8723303392932601,0.41727789102015184
14.4592359,-0.04067241280056282,-0.9526023292810383,0.5049324012548484
14.4642359,0.004372936870693187,-1.030308973678907,0.5851142851142183
14.4692359,0.05437370585588378,-1.1043253871669567,0.6565641717693206
14.47423594,0.10819508680530002,-1.1735685873274537,0.7181865423838478
14.47923594,0.1646035196765492,-1.2370137744643013,0.7690628756042025
14.48423594,0.22229910398917777,-1.2937089599712275,0.8084613715156707
14.48923594,0.279950163145022,-1.342787776535715,0.8358431997118204
14.49423594,0.3362289155998781,-1.3834803794166863,0.8508652721714328
14.49923594,0.3898471239110066,-1.415122412745901,0.8533795935540472
14.5042359,0.4395905538004546,-1.437162065457286,0.8434292929700904
14.5092359,0.48435108792639214,-1.449165277519651,0.8212414929038083
14.5142359,0.5231554067380411,-1.4508191792065985,0.7872172213106021
14.51923593,0.5551892704999206,-1.4419338556851253,0.7419186201650021
14.52423593,0.5798166051683942,-1.4224425293488012,0.6860537466492332
14.52923593,0.5965927988410695,-1.3924002479587798,0.6204593013627008
14.5342359,0.605271842969039,-1.3519811635730605,0.5460816529449859
14.53923587,0.6058071924191789,-1.301474490242416,0.4639565634756765
14.54423583,0.5983464591002056,-1.2412792391252636,0.3751880550023931
14.54923583,0.5832202822269127,-1.1718978452852868,0.2809268901991524
14.55423583,0.5609259232210192,-1.0939288150206719,0.18234916127356887
14.55923587,0.532106308312243,-1.0080585297971925,0.08063548366190858
14.5642359,0.4975253841912309,-0.9150523389857923,-0.023048728073449855
14.56923593,0.45804075891932866,-0.8157450590286729,-0.12757146389076246
14.5742366,0.4145746681374759,-0.7110309752979773,-0.23185041814408364
14.5792366,0.3680843321162094,-0.6018534202988953,-0.3348670681716967
14.58423656,0.31953275083427574,-0.48919398333267944,-0.435678287484219
14.58923656,0.26986092330011496,-0.37406139627530743,-0.5334253301266296
14.59423656,0.21996237823368536,-0.25748013974741507,-0.6273401121028099
14.5992366,0.1706607735187498,-0.140478823479794,-0.716748813359641
14.6042366,0.12269117039011536,-0.02407841228258151,-0.8010729251262794
14.6092366,0.07668542305634685,0.09071960787127634,-0.8798279639069966
14.61423656,0.03316195147600525,0.20294500299036516,-0.9526201557467964
14.61923653,-0.007480010063541204,0.31167035550266564,-1.0191414552723128
14.62423583,-0.04496176610267423,0.4160222454523257,-1.0791632994773328
14.62923583,-0.07912234938806326,0.5151918505998108,-1.132529505230014
14.63423586,-0.10991191680993478,0.6084447510202438,-1.1791487033451906
14.63923523,-0.13738183174723428,0.6951297171717841,-1.218986663980758
14.64423459,-0.1616719940350437,0.7746862652057753,-1.2520588126216043
14.64923369,-0.18299603293933783,0.8466507791472151,-1.2784231685772296
14.65423369,-0.2016250077518297,0.9106610249956782,-1.2981738653327515
14.65923366,-0.2178702670062609,0.9664589150068162,-1.3114353416084428
14.66423299,-0.23206610244007095,1.013891419829077,-1.3183572305528317
14.66923209,-0.24455279962604176,1.052909570455516,-1.3191099270615014
14.67423146,-0.2556606365695117,1.0835655397846633,-1.31388078190719
14.67923059,-0.2656953175539577,1.1060078433143732,-1.302870855852312
14.68422969,-0.2749252545965213,1.1204747480173052,-1.286292165015812
14.68922902,-0.28357102558171554,1.1272860256712374,-1.2643653568972297
14.69422812,-0.2917972499878665,1.1268332304660291,-1.2373177703373124
14.69922812,-0.29970703428544676,1.119568719945165,-1.2053818484895906
14.70422746,-0.3073390532347387,1.105993672523934,-1.16879388908396
14.70922676,-0.31466725297983433,1.0866453825273852,-1.1277931294530918
14.71422636,-0.3216030886455306,1.0620841332438968,-1.0826211736719382
14.71922636,-0.3280001440644472,1.0328799590275217,-1.033521774163626
14.72422639,-0.3336609248870964,0.9995996096570668,-0.9807409788766474
14.72922639,-0.3383455690700543,0.9627940257374273,-0.9245276470016986
14.73422572,-0.3417821802564289,0.9229866239846692,-0.8651343213687349
14.73922569,-0.34367845811935266,0.8806626744722795,-0.802818425064295
14.74422569,-0.34373427316304805,0.8362600253371092,-0.7378437251396877
14.74922529,-0.34165481122891045,0.7901613922309453,-0.6704819801125748
14.75422466,-0.3371638968731821,0.7426883815465398,-0.6010146632886644
14.75922466,-0.3300170975374492,0.6940973625554822,-0.5297346332080635
14.76422399,-0.32001421335976377,0.6445772487906359,-0.45694760705572923
14.76922399,-0.3070107700630075,0.5942491965392803,-0.3829732831415777
14.77422465,-0.29092815350991846,0.543168180096974,-0.3081459552110162
14.77922465,-0.27176205366328293,0.49132636087974063,-0.23281446596043448
14.78422462,-0.24958892272147584,0.43865813162031686,-0.1573413618337979
14.78922529,-0.22457019687955534,0.3850466876911687,-0.08210113758718586
14.79422595,-0.19695408294991767,0.33033195376219354,-0.007477497683513142
14.79922689,-0.16707476949726804,0.27431967342317015,0.06614038829069972
14.80422692,-0.13534898713831497,0.2167914504446256,0.13836259880138396
14.80922692,-0.10226991395753424,0.15751551268682257,0.208804037127758
14.81422755,-0.06839849803425085,0.09625795422330863,0.2770906959129865
14.81922842,-0.0343523469900425,0.032794199548647804,0.34286636576658946
14.82422842,-0.0007924113454897759,-0.03307957286273001,0.40579948625607837
14.82922932,0.03159223754254063,-0.10153531123272927,0.4655897969519483
14.83423025,0.06210116423350586,-0.17270253399757282,0.5219744287627532
14.83923092,0.09004042558908358,-0.2466585838484552,0.5747330853777167
14.84423182,0.11474103598435915,-0.32341992274244147,0.6236920024146098
14.84923182,0.13557750738831903,-0.40293467475024647,0.6687264366200526
14.85423248,0.15198590387379923,-0.48507659456101976,0.7097615256669619
14.85923315,0.16348084333740368,-0.5696406065993003,0.7467714646910031
14.86423351,0.16967089360902068,-0.6563400247166816,0.7797770598291257
14.86923351,0.17027184566874556,-0.74480552651084,0.8088418305150299
14.87423351,0.1651174024154782,-0.8345859202976179,0.8340669295648186
14.87923355,0.15416689640139808,-0.9251507075189711,0.8555852236311727
14.88423421,0.1375097435995187,-1.015894410383354,0.8735549207499522
14.88923421,0.11536645134062,-1.1061426054800048,0.8881531446146237
14.89423418,0.08808612309700303,-1.1951595794584327,0.8995698375476959
14.89923458,0.05614053343970018,-1.2821575009573736,0.9080023281490675
14.90423524,0.020114973975175688,-1.366306981051177,0.913650829368457
14.90923528,-0.019303813561350604,-1.44674887089046,0.9167150445827665
14.91423594,-0.06134220491276944,-1.5226071205842258,0.9173919613391833
14.91923594,-0.1051562779346686,-1.5930025001386738,0.9158748135125688
14.92423594,-0.1498498857071801,-1.6570669643019451,0.9123531005067832
14.92923594,-0.1944936708971869,-1.7139584305152977,0.907013472768123
14.93423594,-0.23814447961685112,-1.7628757331961107,0.9000412304971093
14.93923591,-0.2798646599493849,-1.8030735165236773,0.8916221399646564
14.94423588,-0.31874077561694475,-1.83387682849493,0.8819442511462773
14.94923588,-0.35390132524109424,-1.8546951783026544,0.8711994022206849
14.95423588,-0.3845331275034873,-1.8650358163374006,0.8595841202021464
14.95923591,-0.409896106482612,-1.8645159931098194,0.847299670621444
14.96423591,-0.42933628378899175,-1.8528739527546414,0.8345510696321347
14.96923591,-0.4422968502777439,-1.8299784199727953,0.8215449451271757
14.97423654,-0.44832724708633986,-1.7958363458727054,0.8084862147477129
14.97923651,-0.4470902319177056,-1.7505986866547045,0.795573633301581
14.98423647,-0.43836694129122183,-1.6945639982542546,0.7829943452683462
14.98923647,-0.4220599828980331,-1.628179640134944,0.7709176545770791
14.99423651,-0.39819460426145153,-1.5520403941536114,0.7594882887055415
14.99923654,-0.36691798493123035,-1.4668843224970496,0.748819484057684
15.00423657,-0.3284966913506319,-1.373585715022461,0.7389862537268972
15.00923657,-0.28331232121464783,-1.273145013979801,0.7300192175298357
15.01423657,-0.23185535527615453,-1.1666756567777248,0.7218993763913523
15.01923654,-0.17471723747060083,-1.0553878491913151,0.7145541939340074
15.02423587,-0.11258072456065243,-0.9405693742718447,0.7078552999409076
15.02923587,-0.04620858492972426,-0.8235636537863933,0.7016180477529673
15.03423591,0.023569221093198204,-0.7057454018063453,0.6956030435919042
15.03923591,0.09586968581606502,-0.5884943333779045,0.6895196344036714
15.0442359,0.1697719669659218,-0.4731675041005173,0.6830312128762404
15.04923587,0.24433335370574147,-0.36107095014834684,0.675762092035712
15.05423584,0.3186056244425656,-0.2534313670474816,0.6673056261280869
15.0592358,0.39165140537915144,-0.15136860623555787,0.6572332092409188
15.0642358,0.4625601273395457,-0.05586977994116051,0.6451037653182768
15.0692358,0.5304631831633184,0.032234252462672516,0.6304733526052341
15.07423584,0.5945479064881609,0.11228928837319382,0.6129045449997067
15.07923587,0.6540700243096531,0.18383441753025992,0.5919753242808021
15.0842359,0.7083642810688723,0.24661432024788993,0.5672873171059295
15.0892359,0.75685299192214,0.3005867627948882,0.5384733273000429
15.0942359,0.7990523565398202,0.34592493677806396,0.505204228283377
15.09923587,0.8345764489331665,0.3830144087428716,0.4671953698162542
15.10423587,0.863138887350127,0.4124445739574461,0.4242126967386908
15.10923587,0.8845522735965554,0.43499464775355867,0.37607876285607766
15.1142359,0.8987255665268814,0.4516143817360317,0.3226787527747869
15.1192359,0.9056596163921731,0.4633998605924809,0.26396651530161463
15.1242359,0.9054411350631135,0.47156491340578516,0.1999704898263149
15.1292359,0.8982354131019726,0.4774088515968952,0.13079929845581242
15.1342359,0.8842781185915841,0.4822814102898084,0.056646702050437786
15.1392359,0.8638665226736484,0.48754590565920236,-0.022204412287137015
15.14423587,0.8373504890756013,0.4945417140375156,-0.10537933326187056
15.14923587,0.8051235358684049,0.5045472207279418,-0.19241039631451928
15.15423587,0.767614227256962,0.5187443759219693,-0.28273764772803855
15.1592359,0.7252780875479727,0.5381859364845832,-0.3757114726446207
15.1642359,0.6785901602348294,0.5637663749345927,-0.47059731175556285
15.1692359,0.6280382747506182,0.5961973120928716,-0.5665825480373581
15.17423653,0.5741170389887038,0.6359881874965754,-0.6627855929967708
15.1792365,0.5173225465246751,0.6834327272759142,-0.7582671338069011
15.1842365,0.4581477676942229,0.7386016034498993,-0.8520434206363015
15.18923653,0.3970785770307735,0.8013414992158413,-0.9431013873930165
15.19423656,0.3345903533466625,0.8712805993300268,-1.0304153194540648
15.19923657,0.27114507497040174,0.9478403137823437,-1.1129647147037032
15.20423656,0.20718882564906202,1.0302528231271761,-1.189752931514522
15.20923657,0.14314962856874236,1.1175838177473596,-1.2598261792297052
15.21423656,0.07943553459486477,1.208759607695645,-1.3222923809366065
15.21923657,0.016432901481029133,1.3025976213049706,-1.3763394207705075
15.22423586,-0.04549519027753769,1.397839202057038,-1.4212522764054776
15.22923587,-0.10601043318246227,1.4931835600705008,-1.4564285349430288
15.23423586,-0.1648007438406808,1.5873217361270386,-1.4813918052922175
15.2392359,-0.22158170765546054,1.6789694868434748,-1.4958025813567124
15.2442359,-0.2760980455059762,1.7668980916312094,-1.499466182647292
15.2492359,-0.3281251145681635,1.8499622069193737,-1.492337499703888
15.25423586,-0.37747043219532544,1.9271240419043216,-1.4745223912935908
15.25923583,-0.42397518271162443,1.9974732938353434,-1.4462757051670125
15.2642358,-0.46751563467801477,2.060242450768297,-1.4079960106123681
15.2692358,-0.5080043641039201,2.1148172377814354,-1.36021722931067
15.27423583,-0.5453911503874023,2.160742142380686,-1.3035974280995937
15.27923586,-0.5796633889888634,2.197721102093517,-1.238905097391713
15.28423666,-0.6108458507529084,2.2256135703963373,-1.1670032894197642
15.28923666,-0.63899961630955,2.2444262961780446,-1.0888320358422474
15.29423666,-0.6642200292455006,2.2543012574583763,-1.005389503974831
15.29923663,-0.6866335459102415,2.255500282320299,-0.9177123806028223
15.30423659,-0.706393411937476,2.2483869688155025,-0.8268559863661982
15.30923659,-0.7236741626126939,2.2334065801863234,-0.7338746176684078
15.31423663,-0.7386650212395116,2.211064640290462,-0.6398025861836008
15.31923666,-0.751562349934099,2.1819049837850413,-0.5456363828162972
15.32423666,-0.7625613825870732,2.1464880233925956,-0.45231834160240086
15.32923666,-0.7718475320398627,2.1053699800663352,-0.36072212688272814
15.33423663,-0.7795876068806729,2.0590837798952135,-0.2716403163472383
15.33923659,-0.7859212947569124,2.008122254345652,-0.1857742998242524
15.34423656,-0.7909532688196024,1.9529241894932545,-0.10372665375918895
15.34923656,-0.7947462545041271,1.8938636579743242,-0.025996082272675296
15.35423659,-0.7973153596997683,1.831242938290952,0.04702505869709262
15.35923662,-0.7986239273644942,1.7652891848556724,0.11505070978958527
15.36423666,-0.7985811199606854,1.6961548651051706,0.1778986478184427
15.36923666,-0.797041392485056,1.623921834519284,0.23548578656853136
15.37423732,-0.7938059565672386,1.5486087838285114,0.28782144993537456
15.37923729,-0.7886262817643394,1.470181671080162,0.33499886259913797
15.38423729,-0.7812096201697939,1.3885666484300025,0.37718513281679045
15.38923729,-0.7712264751355888,1.3036649117316588,0.41461002817497006
15.39423732,-0.7583198644025653,1.2153688418996633,0.4475538700020679
15.39923732,-0.7421161554859171,1.1235787725899586,0.4763348975633088
15.40423732,-0.7222371830732973,1.0282197110210216,0.5012964791865523
15.40923732,-0.6983133020846234,0.9292573589063045,0.522794569821716
15.41423732,-0.669996992274133,0.8267128277080549,0.5411858247804509
15.41923732,-0.636976613793568,0.7206755135537847,0.5568167676662273
15.42423662,-0.5989899165753724,0.6113136866514762,0.5700143691645612
15.42923659,-0.5558369244517396,0.49888245061192893,0.5810783198652096
15.43423582,-0.5073918406174115,0.3837288309301557,0.5902751782604094
15.43923585,-0.453613648757243,0.2662938522568643,0.5978344540137077
15.44423589,-0.3945551118102869,0.14711155638487447,0.6039465605211221
15.44923589,-0.3303698992091501,0.026804994850585604,0.6087624552903605
15.45423589,-0.261317605737042,-0.09392069829401628,0.612394695012463
15.45923585,-0.18776646154364324,-0.2142879850443023,0.6149195724869678
15.46423585,-0.11019357248242476,-0.33345912841973635,0.6163799776081167
15.46923585,-0.029182572545137897,-0.45055064696153313,0.6167886338174464
15.47423589,0.0545813826227944,-0.5646496926524567,0.6161314022423746
15.47923589,0.1403192980891832,-0.6748319784892516,0.6143704137032752
15.48423589,0.2271686529609608,-0.78018083534514,0.611446876907442
15.48923589,0.31419623123153195,-0.8798069330789959,0.6072835101422365
15.49423589,0.400413284714403,-0.972868160630813,0.6017866429983847
15.49923589,0.48479277094333406,-1.0585891282763893,0.5948481235692388
15.50423585,0.5662883401873903,-1.1362797374109859,0.5863472362367719
15.50923585,0.6438546806222787,-1.2053522642576284,0.5761528791612373
15.51423585,0.7164687691464269,-1.265336427886947,0.5641262651000292
15.51923588,0.7831515186675212,-1.3158919622947614,0.5501243926683823
15.52423589,0.8429892646505859,-1.3568182869028478,0.5340044887994181
15.52923588,0.8951544995604956,-1.3880609667717623,0.5156295514662053
15.53423585,0.9389252486457588,-1.4097147677388704,0.4948750320000149
15.53923585,0.9737024881616559,-1.4220232358183453,0.4716365968550325
15.54423585,0.9990250400172954,-1.425374856766395,0.44583880683429195
15.54923588,1.014581435990963,-1.4202959724424262,0.4174444533211884
15.55423592,1.0202183296911627,-1.407440737362729,0.38646420035811024
15.55923592,1.0159451430839161,-1.3875784845243915,0.35296610269627604
15.56423592,1.0019347621715595,-1.3615789288257647,0.31708450816958955
15.56923592,0.9785202367841171,-1.3303956662633667,0.2790278134567063
15.57423658,0.9461875847438868,-1.2950484273702418,0.23908453041855746
15.57923658,0.9055649431131758,-1.2566045167808206,0.1976271387235648
15.58423655,0.8574084417085641,-1.2161598226421237,0.15511324973876625
15.58923655,0.8025852901884236,-1.174819717166595,0.11208368456952279
15.59423655,0.7420546637657781,-1.1336801015305984,0.06915717200496943
15.59923658,0.6768470377800715,-1.093808783182141,0.027021495481698785
15.60423658,0.6080426520556224,-1.0562273187587872,-0.013578943138021903
15.60923658,0.5367497785157707,-1.0218934167103082,-0.051859026925925776
15.61423655,0.4640834206259135,-0.9916839742895756,-0.0870120264804965
15.61923651,0.39114499617038123,-0.9663788263983295,-0.11823148413312896
15.62423581,0.31900345403225616,-0.9466453094460935,-0.1447353202160959
15.62923581,0.24867816141151985,-0.9330237895006082,-0.16579147365651473
15.63423585,0.18112378163718132,-0.9259143650091591,-0.1807442808187342
15.63923498,0.11721725496675996,-0.9255650223720956,-0.1890407131150164
15.64423435,0.057746903299111134,-0.9320615885135493,-0.1902555389570526
15.64923345,0.0034036084369116664,-0.9453198788598213,-0.18411445214251682
15.65423278,-0.04522603723201175,-0.9650804732455547,-0.17051422024742235
15.65923184,-0.08766474009076963,-0.9909065600355128,-0.14953895590346142
15.66423118,-0.12354781925224533,-1.0221852670863727,-0.12147170177425168
15.66923028,-0.1526249625528216,-1.0581328460195931,-0.08680064574638811
15.67422964,-0.17476053834493385,-1.0978039925591847,-0.046219444462439314
15.67922878,-0.18993254303873755,-1.140105469166954,-0.0006213264237905351
15.68422788,-0.1982302280407593,-1.1838140484260504,0.04891313833894745
15.68922718,-0.1998504176228775,-1.2275986238697798,0.1011344885740867
15.69422624,-0.1950925068601305,-1.2700461516738446,0.15464870315472626
15.69922621,-0.1843521205805959,-1.3096909059257449,0.2079468591346116
15.70422551,-0.16811342310231153,-1.345046364534489,0.25943936391423394
15.70922511,-0.14694009519099677,-1.374638901861081,0.30749383421603593
15.71422448,-0.12146503784274075,-1.3970423551677382,0.35047555045136375
15.71922451,-0.09237891868667501,-1.4109124611623622,0.38678930906301595
15.72422454,-0.06041774080589899,-1.41502013149056,0.4149214342242831
15.72922454,-0.02634967919568115,-1.4082825555274645,0.4334806976776173
15.73422454,0.009038510920084637,-1.3897911859149459,0.4412369312437245
15.73922411,0.04495516615797947,-1.3588357734923986,0.4371561967622914
15.74422411,0.08061709966007369,-1.3149237650946153,0.4204314970723891
15.74922411,0.11526233855026642,-1.2577945478887786,0.3905081628988783
15.75422414,0.14816188992924686,-1.1874282051560958,0.34710322841231483
15.75922414,0.17863026972711768,-1.104048631890102,0.2902183066462481
15.76422414,0.20603460207735963,-1.0081210396186182,0.22014568667772785
15.76922414,0.22980217643926,-0.9003440550266741,0.13746758662852973
15.77422481,0.24942642979698357,-0.7816367802290833,0.04304869830022594
15.77922481,0.26447139923300456,-0.6531213242143578,-0.06197765932330175
15.78422477,0.2745747632193162,-0.5161014248900972,-0.17622930543581902
15.78922567,0.2794496525516194,-0.37203785371172565,-0.2981002826077685
15.79422634,0.27888545606166604,-0.22252133165755178,-0.42579056335718046
15.79922684,0.27274786459221934,-0.06924369316955765,-0.5573396056068172
15.80422754,0.2609783854969372,0.08603197873218787,-0.6906629346210856
15.80922844,0.2435935211545944,0.24150155251726166,-0.8235909025770431
15.81422907,0.22068374570843574,0.3953497334543793,-0.953908773166876
15.81922994,0.19241234392467757,0.545779041676225,-1.079397295757455
15.82422994,0.15901410412694233,0.6910373609528498,-1.1978729689274181
15.82923084,0.12079379147829619,0.8294436171263758,-1.3072272436607042
15.83423177,0.07812427384967839,0.9594112326451681,-1.4054639792750985
15.83923244,0.03144413308248729,1.0794690930113384,-1.4907345377964876
15.84423334,-0.018745428371415563,1.18827984843159,-1.5613699827043908
15.84923334,-0.07188457918150631,1.2846554569772641,-1.6159099334555547
15.854234,-0.127359925316507,1.3675699519888407,-1.6531277149397177
15.8592344,-0.1845107874614866,1.4361694835228758,-1.6720515269760845
15.86423504,-0.2426367684116285,1.4897797377363347,-1.6719814385426968
15.86923504,-0.3010066175964894,1.5279108758011033,-1.6525020808417465
15.87423504,-0.3588683215593357,1.5502601533099047,-1.6134909706674418
15.87923507,-0.41546027182982176,1.5567123825706461,-1.5551224413109161
15.88423507,-0.47002329268431725,1.5473383863907864,-1.4778671948578548
15.88923547,-0.5218132564147456,1.5223915672140103,-1.3824875207758933
15.89423543,-0.5701139755621486,1.4823026846989862,-1.27002825458161
15.89923543,-0.6142500402205325,1.4276729028395385,-1.1418035793284937
15.90423543,-0.6535992630808203,1.3592651388933994,-0.9993798023661489
15.90923547,-0.6876044045718656,1.2779937244877493,-0.8445542699743284
15.91423547,-0.7157838746279221,1.1849123773746497,-0.6793306125209704
15.91923547,-0.7377411452686355,1.081200482733841,-0.5058905426577784
15.92423547,-0.7531726571822861,0.9681476970798817,-0.3265624597069719
15.92923547,-0.7618740597926631,0.8471369157889245,-0.14378714705326903
15.93423547,-0.7637446819306117,0.7196256852220557,0.0399191107164276
15.93923543,-0.7587901826441463,0.5871261889456488,0.22200361470869984
15.9442354,-0.7471233731877356,0.4511839906778908,0.3999181053288267
15.94923583,-0.7289632283772589,0.31335577095040645,0.5711608723953069
15.95423583,-0.7046321182507757,0.17518634761646748,0.7333195289686318
15.95923586,-0.674551293198932,0.03818532071586428,0.8841137679726092
15.96423587,-0.6392346539983238,-0.0961962709305798,1.021437333134654
15.96923587,-0.5992808394404351,-0.22658885120341182,1.143398356448041
15.9742365,-0.5553636737715574,-0.35172629852531345,1.2483571519289909
15.97923646,-0.5082210365293379,-0.47046653065958366,1.3349605184613111
15.98423643,-0.4586422484269321,-0.5818101668765826,1.4021715998121855
15.98923643,-0.4074541067169284,-0.6849167492867151,1.44929438147215
15.99423646,-0.355505749545238,-0.7791180218719266,1.4759919731350253
15.9992365,-0.3036525789858554,-0.8639278045852943,1.4822979317981708
16.00423653,-0.2527395242532352,-0.9390480618958446,1.4686200217992245
16.00923653,-0.2035839766640161,-1.00437084927992,1.435735981832797
16.01423653,-0.15695877226675725,-1.059975924640089,1.384781071450651
16.0192365,-0.11357563259604186,-1.1061239310699773,1.3172273961485486
16.02423583,-0.07406949485582484,-1.1432451893569353,1.2348552550004563
16.02923583,-0.0389841666912167,-1.1719242792003506,1.1397170099937681
16.03423586,-0.008759725583669112,-1.1928807319297086,1.0340942311135082
16.03923586,0.01627795116320949,-1.2069462973311587,0.9204491126602706
16.04423586,0.035925190784178065,-1.2150393749506205,0.801371369700376
16.04923583,0.05010579309186926,-1.2181373087987653,0.6795219946327838
16.05423579,0.05887336605413907,-1.2172473289570727,0.557575370779155
16.05923576,0.06241061490005269,-1.2133769814691266,0.43816129536941656
16.06423576,0.061025558847982594,-1.2075049168170362,0.3238084560812806
16.06923576,0.05514474173406033,-1.2005529043752694,0.21689083534861195
16.07423579,0.045303595290563714,-1.1933599031948952,0.11957839040672338
16.07923582,0.03213420103286831,-1.186658948779727,0.03379318347829218
16.08423586,0.01635077374636027,-1.1810575155326966,-0.03882807181003319
16.08923586,-0.0012667461245492867,-1.1770218924610065,-0.09696430967054973
16.09423586,-0.019890553192158652,-1.174865973316744,-0.1396327515943686
16.09923582,-0.03866381683391767,-1.1747447182797037,-0.1662036063231798
16.10423582,-0.05672000610735802,-1.1766523978418515,-0.17640676374509381
16.10923582,-0.07320220521090638,-1.180425585405172,-0.17033061502354402
16.11423586,-0.08728194404263,-1.1857507278024175,-0.14841331528830418
16.11923586,-0.09817710619763804,-1.1921759964395222,-0.11142697100357415
16.12423586,-0.10516852844411112,-1.1991270088346722,-0.06045537580119409
16.12923586,-0.1076149650341037,-1.2059259127523958,0.0031339695479412175
16.13423586,-0.10496615143460669,-1.2118132440096265,0.07772273799453953
16.13923586,-0.09677376160585688,-1.2159719051348008,0.1614786954501502
16.14423582,-0.08270010966511042,-1.2175525662813802,0.2523957782235841
16.14923582,-0.0625245011888119,-1.2156997634616602,0.34833645775051975
16.15423582,-0.036147192034845406,-1.2095779635306025,0.4470755538647845
16.15923586,-0.0035909626352933943,-1.1983968805371783,0.5463447057936884
16.16423586,0.03499963804413201,-1.1814353626218619,0.643876764182561
16.16923586,0.07936128222480615,-1.1580632200991943,0.7374494179360195
16.17423649,0.1291169501784546,-1.1277604309746228,0.8249274086231371
16.17923646,0.18378294024435446,-1.0901332371580248,0.9043027084965659
16.18423646,0.24277759548124123,-1.0449267302654222,0.9737320473697553
16.18923649,0.30543151684998165,-0.9920336174562948,1.0315711766882893
16.19423652,0.3709990211080873,-0.931498953178602,1.0764052685833216
16.19923652,0.4386706017751774,-0.8635207211033408,1.1070748762474465
16.20423652,0.5075861610925744,-0.7884462520678434,1.1226969378350824
16.20923652,0.5768487966681263,-0.7067645686653801,1.1226803889261303
16.21423652,0.6455389458028292,-0.6190948542209975,1.1067360489141438
16.21923652,0.7127287102355202,-0.5261713507957634,1.0748805507644281
16.22423582,0.7774961991691074,-0.42882509428299753,1.0274341816571455
16.22923582,0.8389397332401739,-0.32796299119138855,0.9650125936352009
16.23423582,0.8961917442453128,-0.22454482734706302,0.8885124358309512
16.23923585,0.9484321886763606,-0.11955886821593982,0.7990910617411259
16.24423585,0.9949012757144066,-0.013996758225863081,0.6981405807534532
16.24923585,1.034911300836338,0.09117155182038439,0.5872566523443375
16.25423582,1.0678573792800015,0.19502212638865865,0.46820256190240905
16.25923579,1.0932268889139276,0.29669992681607993,0.34286926709407767
16.26423575,1.1106074565799158,0.39543962136638533,0.2132322599902357
16.26923575,1.1196933525078674,0.49058376681419735,0.0813062450866696
16.27423579,1.1202901899067612,0.5815978886633035,-0.05090122690130438
16.27923582,1.1123178559781381,0.668082075338756,-0.18143592188099328
16.28423585,1.0958116221954375,0.7497787921064185,-0.30844157347354295
16.28923585,1.0709213953876473,0.8265767131606081,-0.43020170971517663
16.29423585,1.0379090804335798,0.8985104662483403,-0.5451773991781254
16.29923582,0.9971440356965848,0.965756284765497,-0.652039776993929
16.30423578,0.9490966192637017,1.028623668920861,-0.7496963835347468
16.30923578,0.894329851806956,1.0875432702148295,-0.8373105674511173
16.31423582,0.8334892623378917,1.1430513280892665,-0.9143134566009258
16.31923585,0.7672910349482867,1.1957710959578218,-0.9804082665267606
16.32423585,0.6965086332183458,1.2463917871030321,-1.0355669749929537
16.32923585,0.6219581383566302,1.2956456446384241,-1.080019622687403
16.33423582,0.5444825920611233,1.3442837949992907,-1.1142366920937445
16.33923578,0.46493568075671005,1.3930515830264558,-1.1389051676870205
16.34423575,0.38416512975411377,1.4426641046078545,-1.154899000151205
16.34923575,0.30299619275620143,1.4937826406715473,-1.1632447999285402
16.35423578,0.22221562820087093,1.5469926472802036,-1.1650836855057503
16.35923581,0.14255655532370895,1.6027838730219337,-1.1616303172771612
16.36423585,0.06468458190827399,1.6615330679875717,-1.1541302551178396
16.36923585,-0.010814410866894953,1.7234896329067504,-1.1438168726230622
16.37423651,-0.08344445962062506,1.7887644441881756,-1.131869123865422
16.37923648,-0.15280735517926794,1.857321986591782,-1.119371472071959
16.38423648,-0.2186078492112288,1.9289758319428199,-1.1072772439544551
16.38923648,-0.2806560298816355,2.003387421119525,-1.0963765683075792
16.39423651,-0.3388667512463884,2.080068040270141,-1.0872699009190343
16.39923651,-0.39325609123707445,2.1583838339717456,-1.0803479428953309
16.40423651,-0.4439349011079804,2.237563668635715,-1.0757785410669158
16.40923651,-0.4910995929013132,2.3167096450052522,-1.0735009309232268
16.41423651,-0.5350203913595835,2.394810051025289,-1.0732274554229981
16.41923651,-0.5760273525573503,2.470754537538724,-1.0744526750947099
16.42423581,-0.6144945205051976,2.5433512856429608,-1.0764695818780228
16.42923578,-0.6508226510258004,2.6113459186245076,-1.07839244411191
16.43423578,-0.6854209772508568,2.6734418988595743,-1.0791856418399273
16.43923581,-0.7186885248204902,2.7283221452755377,-1.0776976957775966
16.44423584,-0.7509955107451906,2.7746716098435065,-1.0726995464384692
16.44923584,-0.7826653794596704,2.811200557534073,-1.0629260045511864
16.45423584,-0.8139580408212043,2.836668296635749,-1.0471191795234793
16.45923581,-0.8450548732809462,2.849907099956617,-1.0240726119604495
16.46423581,-0.8760460365126689,2.849846040118771,-0.9926747996944044
16.46923581,-0.906920597852878,2.8355344352527863,-0.9519508199680049
16.47423584,-0.9375599141306697,2.8061645685086116,-0.9011008132013663
16.47923584,-0.967734625031059,2.761093310396589,-0.8395342004221518
16.48423584,-0.9971055087050259,2.6998622413500417,-0.7668986462941383
16.48923584,-1.0252283301012597,2.622215846251722,-0.6831029399931963
16.49423584,-1.051562683773619,2.528117334460289,-0.5883331368044111
16.49923584,-1.0754847008130204,2.417761628109078,-0.48306148009025784
16.50423581,-1.0963033568281657,2.2915850577874335,-0.3680478069617671
16.50923581,-1.113279986245074,2.1502713089496814,-0.24433333268828886
16.51423581,-1.1256504803911962,1.9947531776340597,-0.11322690619523472
16.51923584,-1.1326495277877016,1.8262097256766423,0.023715974607491325
16.52423584,-1.1335361512824562,1.6460584795335578,0.1647209121940392
16.52923584,-1.127619715067659,1.4559423974425463,0.30782847920686046
16.53423581,-1.1142855218460235,1.2577114383417487,0.4509334186790769
16.53923581,-1.0930191019828983,1.053398700896332,0.5918282631643292
16.54423581,-1.0634283159177909,0.8451912577815526,0.7282503623458891
16.54923584,-1.025262449262894,0.6353959830168755,0.8579312315889724
16.55423587,-0.9784275755310802,0.4264008516644398,0.9786470802979338
16.55923587,-0.9229975914017975,0.2206323741007468,1.0882693526645912
16.56423587,-0.8592204889143079,0.020510003567129603,1.1848141178898066
16.56923587,-0.7875196099255469,-0.17160148251266588,1.2664891821910542
16.57423654,-0.7084898195334548,-0.3534404892877004,1.3317378557875843
16.57923654,-0.6228887248256045,-0.522896757806662,1.3792783861419589
16.5842365,-0.531623242677529,-0.6780578637100084,1.4081381564462525
16.58923651,-0.43573197782255074,-0.8172527500874744,1.417681842379876
16.5942365,-0.33636400504132824,-0.9390910246740135,1.4076328216786846
16.59923654,-0.23475475320355,-1.0424968420984488,1.3780872434803506
16.60423654,-0.13219976061088592,-1.1267363268857586,1.3295202917944102
16.60923654,-0.03002710841707284,-1.1914376659446266,1.2627843239885788
16.6142365,0.07043065815418734,-1.2366032026222178,1.1790987345203363
16.61923647,0.167864340424423,-1.262613089690066,1.080031587283614
16.62423577,0.2610149065475328,-1.2702202975869439,0.9674732726077372
16.62923577,0.34869868127302533,-1.260537018819344,0.8436026659994361
16.6342358,0.42983036308621503,-1.235012751227829,0.7108464783854721
16.63923584,0.5034434313920967,-1.1954045731494667,0.5718326741102422
16.64423587,0.5687076093254496,-1.1437403338570957,0.4293389803749769
16.64923497,0.6249431439380764,-1.082275665308656,0.2862376154055461
16.65423407,0.6716317538101615,-1.0134458696151385,0.14543742456289552
16.65923314,0.7084241748972313,-0.9398138459581045,0.009824639608287559
16.66423247,0.7351443080264971,-0.8640152887320771,-0.1177965266287923
16.66923157,0.751790033918642,-0.788702416009396,-0.23476226259084243
16.6742307,0.7585308123194693,-0.7164874770030791,-0.3386053691732631
16.67922983,0.7557022213478035,-0.6498872439070794,-0.4271082000328389
16.68422893,0.7437976243259221,-0.5912696236594813,-0.49835128521627675
16.689228,0.7234571774702647,-0.5428034360511204,-0.5507566510925183
16.6942273,0.6954544146593461,-0.5064123033258873,-0.5831249160709043
16.69922727,0.6606806649241791,-0.48373348899601737,-0.594665321278772
16.70422723,0.6201275737418531,-0.47608241462167933,-0.5850179543490844
16.70922723,0.5748680111853112,-0.48442347594786095,-0.5542675467503184
16.71422726,0.5260356602446361,-0.5093476753678077,-0.5029483709666813
16.7192273,0.47480358899850095,-0.5510574856116974,-0.4320399302045219
16.72422666,0.4223621216444563,-0.6093592584129068,-0.3429533150213085
16.72922666,0.3698963360858289,-0.6836633902170176,-0.23750829234582754
16.73422666,0.3185635309666597,-0.7729923526687753,-0.11790138710240071
16.73922596,0.2694710242285406,-0.8759965852988313,0.013334589088398992
16.74422596,0.2236546680970054,-0.9909781279264362,0.15337891627560696
16.74922596,0.18205848894420146,-1.1159217384047946,0.29917841880422247
16.75422566,0.14551588089581843,-1.2485330967952273,0.44750897886224705
16.75922566,0.11473279596232763,-1.3862835408083134,0.5950419269534869
16.76422566,0.09027337698881435,-1.5264606120244946,0.7384139701081638
16.76922566,0.07254846741872759,-1.666223522767189,0.8742991861063572
16.77422633,0.061807397891357835,-1.802662486979303,0.9994815090901997
16.77922633,0.058133390264522376,-1.9328607047003035,1.1109260636829654
16.7842263,0.06144283496826311,-2.0539576585836383,1.2058476738815087
16.7892263,0.07148859166643318,-2.1632122802444123,1.2817748812069352
16.7942263,0.08786734211127034,-2.258064479792653,1.3366078557963186
16.79922723,0.11003089424262373,-2.336193508276881,1.3686686768108627
16.80422816,0.13730120386481032,-2.3955716442615884,1.3767425967541835
16.80922906,0.1688887494047571,-2.434511766205773,1.3601090879582223
16.8142297,0.20391376983662382,-2.4517074936792587,1.3185616958273914
16.81923056,0.24142975893124807,-2.4462647516433402,1.2524159877260173
16.82423079,0.2804485048575558,-2.417723829009119,1.1625051828379662
16.82923169,0.31996587953079536,-2.366071259497996,1.0501633700034065
16.83423263,0.3589875255831933,-2.2917411414472166,0.9171965590870029
16.83923353,0.3965535692241474,-2.1956058227050974,0.7658421569656395
16.84423419,0.4317615118405937,-2.0789561941442813,0.5987178005361072
16.84923419,0.46378652602738385,-1.9434721482530488,0.41876080424219314
16.85423419,0.49189850145314445,-1.7911840572618019,0.2291597763121397
16.85923419,0.5154753445092461,-1.624426397111353,0.033280213888397456
16.86423416,0.5340122200544986,-1.445784874177267,-0.16541391000683167
16.86923416,0.5471266193321543,-1.2580385837279295,-0.3634404171577041
16.87423483,0.554559331878367,-1.0640988301183432,-0.5573788389027118
16.87923486,0.5561715791804871,-0.8669462671269365,-0.7439477775078441
16.88423486,0.5519387244329047,-0.6695679812215306,-0.9200776116935343
16.88923552,0.5419410997450778,-0.47489605360409115,-1.0829766120589706
16.89423549,0.526352586439711,-0.2857490103192688,-1.2301887634626305
16.89923546,0.5054276435089552,-0.10477741315670334,-1.3596418730925153
16.90423576,0.4794875011471649,0.06558533353825852,-1.4696848622019003
16.90923576,0.4489062179729429,0.22316607468015057,-1.5591134844879435
16.91423579,0.4140972418395472,0.3660882025682715,-1.6271840732775187
16.91923582,0.3755010188611038,0.49280065862827993,-1.6736152807704079
16.92423586,0.33357407196861977,0.6020993171936007,-1.6985781227915586
16.92923589,0.2887798312160012,0.6931405992610489,-1.702674969845178
16.93423589,0.2415813566369882,0.7654473204264496,-1.6869084198963842
16.93923585,0.19243596218191292,0.8189069199551647,-1.6526412429169601
16.94423582,0.14179163382060522,0.8537623482907504,-1.6015487964272181
16.94923582,0.09008504056095763,0.8705960100517816,-1.5355654707614452
16.95423582,0.037740866163523006,0.8703072697320368,-1.4568268293610267
16.95923585,-0.014827857187329313,0.854084127306886,-1.3676091616563957
16.96423585,-0.06721875416298968,0.823369759094534,-1.2702681651096634
16.96923585,-0.11903879058264773,0.7798246940011564,-1.167178422093836
16.97423649,-0.16990295539043818,0.725285455990911,-1.0606752411118758
16.97923645,-0.21943322087410064,0.6617205501064755,-0.9530002953827987
16.98423642,-0.26725801213395745,0.5911847014096975,-0.8462523201405988
16.98923642,-0.31301236156674517,0.5157722733197189,-0.7423439288015143
16.99423645,-0.356338867565732,0.4375707932886354,-0.642965384227083
16.99923648,-0.3968895208636194,0.35861549883465005,-0.5495559223805553
17.00423652,-0.4343284074114382,0.28084578536990334,-0.4632829799680984
17.00923652,-0.46833524372490903,0.20606438986592748,-0.38502943363368997
17.01423652,-0.4986096508618551,0.13590008336951265,-0.3153887245410263
17.01923648,-0.5248760297225574,0.07177457340602854,-0.2546675270072234
17.02423582,-0.5468888664452752,0.014874236280562973,-0.20289543035174426
17.02920248,-0.5644382741774978,-0.033872790144895575,-0.15984094465753268
17.03416918,-0.5773555666159416,-0.07381372019441576,-0.12503301743194614
17.03913588,-0.5855186584798042,-0.1045821124942792,-0.09778716139352654
17.04410255,-0.5888570966265613,-0.12610252306140343,-0.07723524410654478
17.04906921,-0.5873565395546252,-0.1385887175371882,-0.06235797589102414
17.05403588,-0.5810625180858189,-0.142535461007434,-0.05201914882215948
17.05900255,-0.5700833224370663,-0.13870402895786285,-0.04500072035863649
17.06396918,-0.5545918705088898,-0.12810171160519643,-0.04003789369522093
17.06893581,-0.5348264226392998,-0.11195571246818746,-0.03585341819796642
17.07390248,-0.5110900236817082,-0.0916819656117685,-0.031190413687689187
17.07886914,-0.4837485758810842,-0.06884951009854666,-0.024843109100784827
17.08383584,-0.45322747433946736,-0.045141161774498395,-0.015684976670741327
17.08880251,-0.420006768363314,-0.022311309431147626,-0.0026938351060098622
17.09376918,-0.3846148447061922,-0.0021417327380011462,0.015026412332381748
17.09873581,-0.3476206618588366,0.013603608541253906,0.03822764778503197
17.10370248,-0.3096245987241961,0.023223831849847405,0.06750317142930708
17.10866914,-0.2712480182471936,0.025125440714997564,0.10327716824912762
17.11363584,-0.23312168915423617,0.01786469731817508,0.14579800487078862
17.11860251,-0.19587325799443536,0.00018709740901711545,0.19513528685859927
17.12356917,-0.160114018175656,-0.028936967668587218,0.2511805525277287
17.12853584,-0.12642527939158754,-0.0702812107241526,0.31365143569036164
17.13350251,-0.09534469434376765,-0.1243378720548357,0.38209909449832297
17.13846917,-0.06735294331696011,-0.1912982207856994,0.4559186732694714
17.1434358,-0.04286120490472235,-0.271039662431243,0.534362535646556
17.14840247,-0.022199849221331915,-0.3631198384250252,0.6165559787753717
17.15336914,-0.005608776955379118,-0.4667779483233091,0.7015151094592944
17.15833584,0.006770206333772126,-0.5809433623434952,0.7881665360867091
17.16330254,0.01489864576150753,-0.7042514252275085,0.8753685067904476
17.1682692,0.018844061618050145,-0.8350661854818954,0.961933106628322
17.1732365,0.018779773131735338,-0.9715096195667288,1.0466491153704356
17.17823647,0.014981856086789093,-1.1114967617497888,1.1283051224365421
17.18323643,0.007823280784661164,-1.2527760014180342,1.2057124958516876
17.1882364,-0.002234610392435063,-1.3929736758087254,1.277727807364516
17.1932364,-0.014653021141500001,-1.5296419722348158,1.3432743261959956
17.19823643,-0.02882866158088534,-1.660309063602248,1.4013622090849467
17.20323647,-0.044108332957319765,-1.7825303372086367,1.4511070332865577
17.2082365,-0.05980468318877663,-1.893939542196221,1.4917463403074007
17.2132365,-0.07521267094227171,-1.9922986779094438,1.522653880253632
17.2182365,-0.08962628818864121,-2.0755454747771185,1.5433512700523762
17.22323646,-0.10235511731338429,-2.1418373804474515,1.5535168056604747
17.22823647,-0.11274033291416859,-2.1895910542304025,1.5529912019463152
17.23323646,-0.12016979597963529,-2.2175164880905602,1.5417800767767906
17.2382365,-0.124091926306756,-2.224645006518773,1.5200530484067578
17.2432365,-0.12402807683419902,-2.210350544031147,1.4881393760423784
17.2482365,-0.11958317212959889,-2.1743637519804055,1.4465201406982493
17.25323646,-0.11045441433828991,-2.1167786415726293,1.3958170372556038
17.25823643,-0.09643790418775235,-2.038051624810972,1.3367779312168129
17.2632364,-0.07743307122380544,-1.9389929678787574,1.2702594273321535
17.2682364,-0.05344485468729683,-1.8207508209693317,1.1972068011904535
17.27323643,-0.024583623154042483,-1.684788133796827,1.1186317535567816
17.27823646,0.008937133074231095,-1.532852906428585,1.035588551977389
17.2832365,0.046805257659061975,-1.3669423606454008,0.9491492156812719
17.28823756,0.08861640836351391,-1.1892617481713026,0.8603784701779374
17.29323756,0.13388239535982285,-1.0021786387250011,0.7703092405015718
17.29823753,0.1820411726932878,-0.8081736506811372,0.6799194601499272
17.30323749,0.23246824470844796,-0.6097886951380378,0.5901109401840559
17.30823749,0.2844892217573581,-0.409573893691382,0.5016909668181626
17.31323749,0.337393237263713,-0.21003439453052156,0.415357179701938
17.31823753,0.3904469214360176,-0.01357834500518263,0.33168613714988776
17.32323753,0.4429086163470947,0.17753272212959897,0.2511258127553251
17.32823753,0.4940425133295353,0.3612298684828938,0.17399210415581437
17.33323753,0.5431323974097998,0.5356779482763916,0.10046928035190772
17.33823753,0.5894946957356066,0.6993109852169547,0.03061415585462821
17.34323753,0.6324905473761052,0.8508608292302478,-0.03563633885521986
17.34823749,0.671536638240801,0.9893783667889904,-0.09845461927625491
17.35323749,0.7061145749224188,1.114246759061576,-0.15810944537238789
17.35823749,0.735778605217313,1.225186404189061,-0.21495100841883538
17.36323753,0.7601615326077121,1.322251553829679,-0.26939467148129415
17.36823752,0.7789787171673411,1.405818748143191,-0.32190390364022314
17.37323752,0.7920301037046766,1.476567456860948,-0.37297288607234785
17.37823749,0.7992002665699257,1.5354535183463363,-0.42310917854440294
17.38323749,0.8004565080784021,1.5836761469876788,-0.4728167329831313
17.38823749,0.7958450939145898,1.6226394274002243,-0.52257944507783
17.39323752,0.785485753913997,1.6539093306085009,-0.5728453642365092
17.39823752,0.7695646193507589,1.6791673756331618,-0.6240116516549357
17.40323752,0.7483258077285468,1.7001621247356713,-0.6764103913656986
17.40823752,0.7220619033120125,1.718659744691454,-0.730295412363293
17.41323752,0.6911036163176477,1.7363948876916901,-0.7858303525066611
17.41823752,0.6558089348561662,1.755023138331648,-0.8430782649357216
17.42323749,0.6165521094748142,1.7760762326799546,-0.9019931186041836
17.42823746,0.5737128279711184,1.8009211798085765,-0.9624135675750707
17.43323746,0.5276659453117851,1.8307243064892098,-1.0240593547975425
17.43823642,0.4787721279575295,1.8664211042208105,-1.0865306718636272
17.44323646,0.4273697531416615,1.9086925865293876,-1.1493107146849464
