"Time (s)","Acceleration x (m/s^2)","Acceleration y (m/s^2)","Acceleration z (m/s^2)"
3.074439000E-3,1.263410330E0,2.373680115E0,8.882157326E0
7.924595000E-3,1.241874933E0,2.385644197E0,8.870193481E0
1.277516800E-2,1.409372568E0,2.402393818E0,8.882157326E0
1.762558500E-2,1.502692580E0,2.364108801E0,8.951549530E0
2.247605300E-2,1.627119422E0,2.328216314E0,9.135796547E0
2.732647000E-2,1.684547186E0,2.328216314E0,9.320044518E0
3.217693900E-2,1.689332843E0,2.354537487E0,9.544969559E0
3.702735500E-2,1.665404558E0,2.373680115E0,9.731609344E0
4.187782400E-2,1.655833244E0,2.404786825E0,9.879964828E0
4.672829300E-2,1.627119422E0,2.426322222E0,9.992427826E0
5.157871000E-2,1.548156261E0,2.433500528E0,1.005703354E1
5.642917800E-2,1.536192179E0,2.443071842E0,1.010488987E1
6.127959500E-2,1.500299811E0,2.407179594E0,1.013599682E1
6.613006400E-2,1.435693622E0,2.366501570E0,1.013360405E1
7.098048000E-2,1.368694544E0,2.335394859E0,1.007139015E1
7.583094900E-2,1.280160069E0,2.333002090E0,9.987641335E0
8.068141800E-2,1.234696507E0,2.328216314E0,9.875179291E0
8.553183500E-2,1.210768223E0,2.323430777E0,9.815358162E0
9.038230300E-2,1.244267821E0,2.299502611E0,9.767501831E0
9.523272000E-2,1.323230863E0,2.311466694E0,9.738788605E0
1.000831890E-1,1.392622828E0,2.344966173E0,9.753145218E0
1.049336050E-1,1.442872047E0,2.337787628E0,9.793823242E0
1.097840740E-1,1.464407444E0,2.366501570E0,9.844072342E0
1.146345430E-1,1.462014675E0,2.378465652E0,9.930213928E0
1.194849600E-1,1.469193101E0,2.428714991E0,9.994820595E0
1.243354280E-1,1.526620865E0,2.445464849E0,1.001874828E1
1.291858450E-1,1.596012712E0,2.488535643E0,1.008335495E1
1.340363140E-1,1.569691658E0,2.624926329E0,1.017428207E1
1.388867300E-1,1.643869162E0,2.627319336E0,1.014556789E1
1.437371990E-1,1.641476393E0,2.524427891E0,1.018146038E1
1.485876680E-1,1.639083505E0,2.498106956E0,9.982855797E0
1.534380850E-1,1.629512191E0,2.541177750E0,9.767501831E0
1.582885530E-1,1.622333765E0,2.557927370E0,9.628718376E0
1.631389700E-1,1.600798368E0,2.495713949E0,9.585647583E0
1.679894390E-1,1.497906923E0,2.474178553E0,9.489934921E0
1.728398550E-1,1.344766378E0,2.443071842E0,9.322437286E0
1.776903240E-1,1.234696507E0,2.426322222E0,9.037691116E0
1.825407930E-1,1.122233868E0,2.438286304E0,8.664410591E0
1.873912100E-1,1.033699393E0,2.450250387E0,8.405985832E0
1.922416780E-1,9.212366939E-1,2.467000246E0,8.226524353E0
1.970920950E-1,9.068797827E-1,2.411965132E0,8.324629784E0
2.019425640E-1,9.451649189E-1,2.376072884E0,8.602197647E0
2.067929800E-1,1.028913736E0,2.359323025E0,8.839086533E0
2.116434490E-1,1.115055323E0,2.294716835E0,9.097511292E0
2.164939180E-1,1.201196909E0,2.232503414E0,9.365508080E0
2.213443350E-1,1.227517962E0,2.210968018E0,9.592825890E0
2.261948030E-1,1.229910851E0,2.165504456E0,9.820143700E0
2.310452200E-1,1.217946768E0,2.184647083E0,1.004267693E1
2.358956890E-1,1.136590719E0,2.201396942E0,1.020299530E1
2.407461050E-1,1.045663476E0,2.218146563E0,1.033699417E1
2.455023550E-1,9.236295223E-1,2.254039049E0,1.037527943E1
2.502577200E-1,8.685946465E-1,2.218146563E0,1.037767220E1
2.550130320E-1,8.662018180E-1,2.160718918E0,1.033460140E1
2.597683970E-1,8.949156404E-1,2.103291035E0,1.029392338E1
2.645237100E-1,8.398807645E-1,2.079362869E0,1.022692394E1
2.692790740E-1,7.657032609E-1,2.009970903E0,1.012164021E1
2.740343870E-1,7.274180651E-1,2.021935225E0,1.000917721E1
2.787897510E-1,7.130611539E-1,2.024327993E0,9.894321442E0
2.835451160E-1,6.891329288E-1,2.014756680E0,9.765109062E0
2.883004280E-1,6.747759581E-1,1.976471543E0,9.647860527E0
2.930557930E-1,6.508477330E-1,1.921436548E0,9.547362328E0
2.978111050E-1,6.317051649E-1,1.868794441E0,9.463613510E0
3.025664700E-1,5.958128572E-1,1.844866276E0,9.382257462E0
3.073217820E-1,5.096712112E-1,1.823330879E0,9.288937569E0
3.120771470E-1,4.019941986E-1,1.794616938E0,9.190832138E0
3.168325120E-1,2.895315289E-1,1.792224169E0,9.138189316E0
3.215878240E-1,2.033899277E-1,1.797009826E0,9.097511292E0
3.263431890E-1,1.004985496E-1,1.787438512E0,9.047262192E0
3.310985010E-1,2.632104978E-2,1.780260086E0,9.004191399E0
3.358538660E-1,-5.982056633E-2,1.773081541E0,8.999405861E0
3.406091780E-1,-1.292124242E-1,1.782652855E0,8.980263710E0
3.453645430E-1,-1.842473447E-1,1.785045743E0,8.968298912E0
3.501198550E-1,-2.416750938E-1,1.753939033E0,8.980263710E0
3.548752200E-1,-2.177468538E-1,1.746760488E0,9.040083885E0
3.596305850E-1,-2.153540403E-1,1.710868239E0,9.109476089E0
3.643858970E-1,-2.201396823E-1,1.696511269E0,9.152546883E0
3.691412620E-1,-2.201396823E-1,1.646261930E0,9.224330902E0
3.738965740E-1,-2.081755698E-1,1.581655741E0,9.276973724E0
3.786519390E-1,-2.009970993E-1,1.526620865E0,9.293723106E0
3.834073030E-1,-1.938186288E-1,1.509871125E0,9.303294182E0
3.881626160E-1,-1.818545163E-1,1.454836130E0,9.281759262E0
3.929179800E-1,-1.962114573E-1,1.462014675E0,9.276973724E0
3.976732930E-1,-5.982056633E-2,1.435693622E0,9.276973724E0
4.024286570E-1,1.746760458E-1,1.390229940E0,9.224330902E0
4.071839700E-1,2.799602449E-1,1.378265858E0,9.212367058E0
4.119393350E-1,3.421736360E-1,1.383051515E0,9.212367058E0
4.166946990E-1,3.254238665E-1,1.397408366E0,9.236295700E0
4.214500120E-1,2.727817893E-1,1.430907965E0,9.274580956E0
4.262053760E-1,1.316052526E-1,1.445264935E0,9.320044518E0
4.309606890E-1,-1.196411345E-2,1.445264935E0,9.329615593E0
4.357160530E-1,-1.483550072E-1,1.452443361E0,9.336793900E0
4.404713660E-1,-2.895315289E-1,1.409372568E0,9.310472488E0
4.452267300E-1,-3.780659735E-1,1.323230863E0,9.298508644E0
4.499820950E-1,-5.024927258E-1,1.237089276E0,9.317651749E0
4.547374070E-1,-5.312066078E-1,1.138983607E0,9.310472488E0
4.594927720E-1,-5.623133183E-1,1.079162955E0,9.284152031E0
4.642480850E-1,-5.551348329E-1,1.081555843E0,9.238688469E0
4.690034490E-1,-5.479564071E-1,1.081555843E0,9.147761345E0
4.737587620E-1,-5.383850932E-1,1.100698471E0,9.011369705E0
4.785141260E-1,-5.407779217E-1,1.124626637E0,8.836693764E0
4.832694910E-1,-5.982056856E-1,1.148554921E0,8.666803360E0
4.880248030E-1,-6.149554253E-1,1.162911773E0,8.554341316E0
4.927801680E-1,-6.317051649E-1,1.184447169E0,8.480163574E0
4.975354800E-1,-6.269195080E-1,1.179661512E0,8.386843681E0
5.022908450E-1,-6.125625968E-1,1.198804140E0,8.264809608E0
5.070461570E-1,-5.383850932E-1,1.189232826E0,8.171489716E0
5.118015220E-1,-9.571290612E-1,1.165304661E0,9.707681656E0
5.165568350E-1,-9.044869542E-1,1.026520967E0,1.434736443E1
5.213121990E-1,-8.614161611E-1,9.619147182E-1,1.435932827E1
5.260675640E-1,-6.675975323E-1,1.170090318E0,1.171765232E1
5.308228760E-1,-1.938186288E-1,1.138983607E0,1.058106136E1
5.355782410E-1,4.785645306E-1,7.968099117E-1,1.106201935E1
5.403335530E-1,9.882357717E-1,7.680960894E-1,1.153579807E1
5.450889180E-1,1.004985496E-1,7.609176040E-1,1.063370419E1
5.498442300E-1,-4.905286431E-1,1.071984529E0,9.956535339E0
5.545995950E-1,-5.742774606E-1,1.397408366E0,9.248259544E0
5.593549600E-1,-3.684946895E-1,1.567298889E0,8.451449394E0
5.641102720E-1,-3.349951655E-2,1.658226132E0,7.893921852E0
5.688656370E-1,1.794617027E-1,1.694118381E0,7.676175117E0
5.736209490E-1,1.746760458E-1,1.722832322E0,7.700103283E0
5.783763140E-1,1.651047617E-1,1.732403636E0,7.989634991E0
5.831316260E-1,4.283152521E-1,1.698904037E0,8.389236450E0
5.878869910E-1,5.455635786E-1,1.663011789E0,8.580661774E0
5.926423550E-1,5.694918036E-1,1.828116536E0,8.743373871E0
5.973976680E-1,6.867401004E-1,1.416550994E0,8.985049248E0
6.021530320E-1,-9.571290761E-2,1.009771109E0,9.109476089E0
6.069083450E-1,-8.805587292E-1,6.077769399E-1,9.238688469E0
6.116637100E-1,-1.607976794E0,6.125625968E-1,9.262616158E0
6.164190740E-1,-1.988435626E0,6.604190469E-1,9.609575272E0
6.211743870E-1,-2.103291035E0,7.034898400E-1,9.994820595E0
6.259297510E-1,-1.615155339E0,7.465606928E-1,1.030588722E1
6.306850640E-1,-1.258624673E0,8.829515576E-1,1.025803089E1
6.354404280E-1,-1.234696507E0,9.571290612E-1,1.010967541E1
6.401957410E-1,-1.435693622E0,1.143769264E0,9.829715729E0
6.449511050E-1,-1.457229018E0,1.335195065E0,9.875179291E0
6.497064700E-1,-1.416550994E0,1.416550994E0,9.915857315E0
6.544617820E-1,-1.272981644E0,1.380658627E0,9.877572060E0
6.592171470E-1,-1.335195065E0,1.734796405E0,9.566504478E0
6.639724600E-1,-1.966900229E0,2.366501570E0,9.272188187E0
6.687278240E-1,-1.785045743E0,2.098505497E0,9.028120041E0
6.734831370E-1,-1.543370605E0,1.837687731E0,8.508877754E0
6.782385010E-1,-1.406979680E0,1.746760488E0,8.446663857E0
6.829938140E-1,-1.143769264E0,1.600798368E0,8.437092781E0
6.877491780E-1,-5.958128572E-1,1.564906001E0,8.384450912E0
6.925045430E-1,-8.853443712E-2,1.531406522E0,8.575876236E0
6.972598550E-1,-3.062812984E-1,1.440479279E0,8.568697929E0
7.020152200E-1,-6.987041831E-1,1.337587833E0,8.767302513E0
7.067705320E-1,-9.284151793E-1,1.256231904E0,9.293723106E0
7.115258970E-1,-9.236295223E-1,1.411765337E0,9.997213364E0
7.162812100E-1,-1.189232826E0,1.648654819E0,1.050927734E1
7.210365740E-1,-1.639083505E0,1.854437590E0,1.040399265E1
7.257919390E-1,-1.971685886E0,1.904686809E0,9.530612946E0
7.305472510E-1,-1.691725612E0,1.880758643E0,8.456234932E0
7.353026160E-1,-1.205982566E0,1.873580098E0,7.558926582E0
7.400579280E-1,-8.757730722E-1,1.911865234E0,7.290930748E0
7.448132930E-1,-7.034898400E-1,2.041077614E0,7.424928665E0
7.495686050E-1,-5.838487148E-1,2.110469580E0,7.774280548E0
7.543239700E-1,-5.862415433E-1,2.072184324E0,8.051848412E0
7.590793350E-1,-7.298108935E-1,1.861616015E0,8.209774017E0
7.638346470E-1,-9.355936646E-1,1.526620865E0,8.236095428E0
7.685900120E-1,-1.086341500E0,1.177268744E0,8.319844246E0
7.733453240E-1,-1.036092162E0,8.757730722E-1,8.516056061E0
7.781006890E-1,-8.973084688E-1,6.963114142E-1,8.767302513E0
7.828560010E-1,-8.255237937E-1,5.718846321E-1,9.025727272E0
7.876113660E-1,-8.494520187E-1,5.958128572E-1,9.109476089E0
7.923667300E-1,-9.595218897E-1,6.652047038E-1,9.269794464E0
7.971220430E-1,-1.124626637E0,7.657032609E-1,9.298508644E0
8.018774070E-1,-1.311266780E0,8.733802438E-1,9.243474007E0
8.066327200E-1,-1.485942841E0,9.260223508E-1,9.260223389E0
8.113880850E-1,-1.629512191E0,1.019342422E0,9.260223389E0
8.161433970E-1,-1.823330879E0,1.055234790E0,9.317651749E0
8.208987620E-1,-2.158325911E0,1.060020447E0,9.391828537E0
8.256541260E-1,-2.474178553E0,1.062413216E0,9.384650230E0
8.304094390E-1,-2.694318295E0,1.024128079E0,9.444471359E0
8.351648030E-1,-2.713460922E0,1.045663476E0,9.499505997E0
8.399201160E-1,-2.560320139E0,1.024128079E0,9.571290970E0
8.446754800E-1,-2.467000246E0,1.043270707E0,9.497113228E0
8.494307930E-1,-2.423929453E0,1.004985452E0,9.688538551E0
8.541861570E-1,-2.553141832E0,1.339980721E0,9.274580956E0
8.589415220E-1,-2.646461725E0,1.392622828E0,9.332008362E0
8.636968350E-1,-2.708675146E0,1.435693622E0,9.274580956E0
8.684521990E-1,-2.809173822E0,1.406979680E0,9.284152031E0
8.732075120E-1,-2.804388046E0,1.383051515E0,9.332008362E0
8.779628760E-1,-2.761317253E0,1.311266780E0,9.468399048E0
8.827181890E-1,-2.780459881E0,1.208375454E0,9.456435204E0
8.874735530E-1,-3.005385160E0,1.033699393E0,9.466006279E0
8.922288660E-1,-2.988635540E0,8.662018180E-1,9.358329773E0
8.969842300E-1,-2.763710260E0,8.159525394E-1,9.248259544E0
9.017395950E-1,-2.744567633E0,7.657032609E-1,9.217152596E0
9.064949070E-1,-2.852244616E0,7.824530005E-1,9.171689034E0
9.112502720E-1,-3.058027267E0,8.111668825E-1,9.193224907E0
9.160055850E-1,-3.333201885E0,1.174875975E0,8.714659691E0
9.207609490E-1,-3.467200041E0,1.473978758E0,8.609375954E0
9.255162620E-1,-3.534198999E0,1.617548108E0,8.482556343E0
9.302716260E-1,-3.720839262E0,1.665404558E0,8.504091263E0
9.350269910E-1,-3.893122435E0,1.782652855E0,8.537590981E0
9.397823030E-1,-3.979264021E0,1.878365755E0,8.465806961E0
9.445376680E-1,-4.089334011E0,1.928615093E0,8.200202942E0
9.492929800E-1,-4.158725739E0,1.844866276E0,8.090133667E0
9.540483450E-1,-4.204189301E0,1.682154298E0,8.006384850E0
9.588036570E-1,-4.252045631E0,1.526620865E0,7.891529083E0
9.635590220E-1,-4.292723656E0,1.397408366E0,7.848458290E0
9.683143870E-1,-4.321437836E0,1.249053478E0,7.812565804E0
9.730696990E-1,-4.266402721E0,1.136590719E0,7.896314621E0
9.778250640E-1,-4.206582069E0,1.043270707E0,8.085348129E0
9.825803760E-1,-4.208974838E0,1.000199914E0,8.324629784E0
9.873357410E-1,-4.352544308E0,9.499505758E-1,8.542376518E0
9.920910530E-1,-4.627718925E0,9.499505758E-1,8.743373871E0
9.968464180E-1,-4.972285271E0,1.004985452E0,8.927620888E0
1.001601782E0,-4.972285271E0,9.451649189E-1,8.989834785E0
1.006357095E0,-5.178068161E0,9.523434043E-1,9.128618240E0
1.011112460E0,-5.505885124E0,9.140582681E-1,9.119047165E0
1.015867772E0,-5.871986866E0,9.332008362E-1,9.174081802E0
1.020623137E0,-6.104090691E0,1.081555843E0,9.116654396E0
1.025378449E0,-6.223731518E0,1.304088354E0,9.032905579E0
1.030133814E0,-6.400800705E0,1.440479279E0,8.872586250E0
1.034889178E0,-6.613761902E0,1.509871125E0,8.621339798E0
1.039644491E0,-6.508477688E0,1.426122308E0,8.238488197E0
1.044399855E0,-6.348158360E0,1.342373490E0,7.822137356E0
1.049155168E0,-6.283552170E0,1.227517962E0,7.451249599E0
1.053910532E0,-6.273981094E0,1.062413216E0,7.116254330E0
1.058665845E0,-6.163911343E0,8.566305041E-1,6.783652306E0
1.063421210E0,-6.226124287E0,7.585247755E-1,6.690331936E0
1.068176574E0,-6.300302029E0,6.675975323E-1,6.752545357E0
1.072931887E0,-6.348158360E0,6.747759581E-1,6.829115868E0
1.077687251E0,-6.367300987E0,7.369893789E-1,6.862615108E0
1.082442564E0,-6.396014690E0,7.513462901E-1,6.867401123E0
1.087197928E0,-6.398407936E0,7.657032609E-1,6.888936520E0
1.091953241E0,-6.331408501E0,6.939185858E-1,6.778866768E0
1.096708605E0,-6.608976364E0,7.704889178E-1,6.510870457E0
1.101463918E0,-7.137789726E0,1.024128079E0,6.128018856E0
1.106219282E0,-7.618747234E0,1.351944804E0,5.668596745E0
1.110974647E0,-7.369893551E0,1.459621787E0,5.072783947E0
1.115729960E0,-7.594819069E0,1.481157184E0,4.797609329E0
1.120485324E0,-8.118846893E0,1.366301775E0,4.345366001E0
1.125240637E0,-8.618947029E0,1.232303619E0,4.067798615E0
1.129996001E0,-8.865407944E0,1.150947690E0,3.924229145E0
1.134751314E0,-8.815158844E0,1.086341500E0,4.005585194E0
1.139506678E0,-8.224131584E0,8.901300430E-1,4.204189301E0
1.144262043E0,-7.578069210E0,5.910272002E-1,4.366901398E0
1.149017355E0,-7.432106972E0,2.321037948E-1,4.438685894E0
1.153772720E0,-7.415357590E0,-5.264209956E-2,4.625326157E0
1.158528032E0,-7.307680130E0,-2.416750938E-1,4.950749874E0
1.163283397E0,-7.171289444E0,-3.684946895E-1,5.302495003E0
1.168038710E0,-7.336394310E0,-3.876372576E-1,5.505885124E0
1.172794074E0,-7.575676441E0,-2.967100143E-1,5.374279499E0
1.177549439E0,-7.683353424E0,-9.092725813E-2,5.060820103E0
1.182304751E0,-7.716853142E0,2.177468538E-1,4.744967461E0
1.187060116E0,-7.668996811E0,4.905286431E-1,4.187439442E0
1.191815428E0,-7.623532772E0,6.675975323E-1,3.639483213E0
1.196570793E0,-7.532605648E0,6.987041831E-1,3.148954630E0
1.201326105E0,-7.542177200E0,5.455635786E-1,2.854637384E0
1.206081470E0,-7.750352383E0,4.450650215E-1,2.677568436E0
1.210836835E0,-8.001599312E0,3.230310678E-1,2.577069998E0
1.215592147E0,-8.240880966E0,2.656033039E-1,2.555534601E0
1.220347512E0,-7.623532772E0,1.722832322E-1,2.895315409E0
1.225102824E0,-8.338987350E0,4.067798331E-2,2.749353170E0
1.229858189E0,-9.248259544E0,-7.896314561E-2,2.794816732E0
1.234613501E0,-9.918250084E0,-8.374879509E-2,3.065205812E0
1.239368866E0,-1.023649502E1,-1.196411345E-2,3.335594654E0
1.244124178E0,-9.836894035E0,1.196411345E-2,3.665804386E0
1.248879543E0,-9.829715729E0,-8.853443712E-2,3.596412420E0
1.253634907E0,-1.016231823E1,-2.368894368E-1,3.424129248E0
1.258390220E0,-1.029870892E1,-2.392822653E-1,3.452843189E0
1.263145585E0,-1.022453117E1,-1.004985496E-1,3.515056372E0
1.267900897E0,-1.026760197E1,5.982056633E-2,3.515056372E0
1.272656262E0,-1.042313576E1,1.938186288E-1,3.433700562E0
1.277411626E0,-1.062652493E1,2.823530734E-1,3.290131092E0
1.282166939E0,-1.092802143E1,3.134597540E-1,3.067598581E0
1.286922303E0,-1.115533924E1,2.536391914E-1,2.797209740E0
1.291677616E0,-1.126301575E1,1.818545163E-1,2.553141832E0
1.296432980E0,-1.119601727E1,8.853443712E-2,2.383251429E0
1.301188293E0,-1.110269737E1,2.392822690E-2,2.244467735E0
1.305943657E0,-1.102851963E1,-5.503492057E-2,2.124826431E0
1.310698970E0,-1.100219822E1,-1.435693651E-1,1.966900229E0
1.315454335E0,-1.107398319E1,-2.177468538E-1,1.820937991E0
1.320209699E0,-1.115773201E1,-2.656033039E-1,1.828116536E0
1.324965012E0,-1.127737331E1,-2.656033039E-1,1.849651933E0
1.329720376E0,-1.141376400E1,-2.321037948E-1,1.808973908E0
1.334475689E0,-1.151426220E1,-1.746760458E-1,1.694118381E0
1.339231053E0,-1.159801102E1,-9.332008660E-2,1.540977836E0
1.343986366E0,-1.169851017E1,4.785645287E-3,1.308874011E0
1.348741730E0,-1.183250809E1,1.627119333E-1,1.127019525E0
1.353497043E0,-1.209093285E1,4.235295951E-1,8.901300430E-1
1.358252407E0,-1.228475189E1,6.795616150E-1,6.388836503E-1
1.363007772E0,-1.226082325E1,6.891329288E-1,5.934200287E-1
1.367763085E0,-1.248574829E1,8.422735929E-1,5.383850932E-1
1.372518449E0,-1.272742367E1,8.853443861E-1,4.857429862E-1
1.377273762E0,-1.293559933E1,8.470591903E-1,4.689932466E-1
1.382029126E0,-1.404108334E1,1.320838094E0,3.421736360E-1
1.386784439E0,-1.351944828E1,1.009771109E0,2.632105052E-1
1.391539803E0,-1.325623703E1,7.154539824E-1,2.153540403E-2
1.396295168E0,-1.353380489E1,5.742774606E-1,-2.033899277E-1
1.401050480E0,-1.332562923E1,4.235295951E-1,-4.785645381E-2
1.405805845E0,-1.291645622E1,2.105683982E-1,-6.460621208E-2
1.410561157E0,-1.319402409E1,2.368894368E-1,1.962114573E-1
1.415316522E0,-1.338544941E1,2.201396823E-1,2.488535494E-1
1.420071835E0,-1.351705551E1,1.938186288E-1,-4.067798331E-2
1.424827199E0,-1.336870003E1,2.081755698E-1,-1.938186288E-1
1.429582512E0,-1.330887985E1,2.297109663E-1,-3.948157430E-1
1.434337876E0,-1.312223911E1,3.469592929E-1,-5.455635786E-1
1.439093241E0,-1.289970684E1,4.498506486E-1,-7.274180651E-1
1.443848553E0,-1.268674564E1,5.048855543E-1,-9.188438654E-1
1.448603918E0,-1.244746304E1,4.618147612E-1,-1.148554921E0
1.453359230E0,-1.249532032E1,3.900300860E-1,-1.277767301E0
1.458114595E0,-1.244028473E1,2.847459018E-1,-1.301695466E0
1.462869907E0,-1.237807178E1,1.794617027E-1,-1.158126116E0
1.467625272E0,-1.222971630E1,1.268195957E-1,-9.332008362E-1
1.472380637E0,-1.201436234E1,7.417750359E-2,-5.862415433E-1
1.477135949E0,-1.213400364E1,-1.052841991E-1,-5.144568682E-1
1.481891314E0,-1.216750336E1,-2.895315289E-1,-2.943171859E-1
1.486646626E0,-1.229193020E1,-5.096712112E-1,-3.254238665E-1
1.491401991E0,-1.227996540E1,-5.958128572E-1,-3.038884699E-1
1.496157303E0,-1.222253799E1,-6.556333899E-1,-2.871387303E-1
1.500912668E0,-1.209811115E1,-6.675975323E-1,-3.278166950E-1
1.505668032E0,-1.195454216E1,-7.130611539E-1,-3.804588020E-1
1.510423345E0,-1.176550865E1,-7.250252366E-1,-4.259224236E-1
1.515178710E0,-1.164347458E1,-7.561319470E-1,-4.522434771E-1
1.519934022E0,-1.163629627E1,-7.274180651E-1,-5.694918036E-1
1.524689387E0,-1.170329571E1,-5.814558864E-1,-6.460621357E-1
1.529444699E0,-1.182054424E1,-3.924229145E-1,-6.891329288E-1
1.534200064E0,-1.195214939E1,-2.153540403E-1,-7.130611539E-1
1.538955376E0,-1.202154064E1,-1.052841991E-1,-6.987041831E-1
1.543710741E0,-1.206221867E1,-3.589234129E-2,-6.484549642E-1
1.548466105E0,-1.208854008E1,-2.392822690E-2,-6.293123364E-1
1.553221418E0,-1.205743313E1,3.828516230E-2,-6.771687865E-1
1.557976782E0,-1.198086262E1,1.148554832E-1,-7.513462901E-1
1.562732095E0,-1.189472103E1,2.368894368E-1,-8.231309652E-1
1.567487460E0,-1.183729362E1,3.110669553E-1,-8.853443861E-1
1.572242772E0,-1.186361504E1,3.780659735E-1,-8.901300430E-1
1.576998137E0,-1.192343521E1,3.972085714E-1,-8.590233326E-1
1.581753501E0,-1.207657623E1,4.546363056E-1,-8.015955687E-1
1.586508814E0,-1.231825066E1,4.833501875E-1,-8.494520187E-1
1.591264178E0,-1.253121185E1,5.814558864E-1,-9.523434043E-1
1.596019491E0,-1.261735344E1,7.058826685E-1,-1.028913736E0
1.600774855E0,-1.254317665E1,8.566305041E-1,-1.117448211E0
1.605530168E0,-1.246899891E1,9.427721500E-1,-1.304088354E0
1.610285532E0,-1.234457207E1,9.714859724E-1,-1.548156261E0
1.615040845E0,-1.223689461E1,9.762716293E-1,-1.820937991E0
1.619796210E0,-1.216989613E1,9.882357717E-1,-2.151147604E0
1.624551522E0,-1.199282742E1,9.379864931E-1,-2.562713146E0
1.629306887E0,-1.175833035E1,8.757730722E-1,-2.840280533E0
1.634062251E0,-1.156929779E1,8.590233326E-1,-2.957528830E0
1.638817564E0,-1.149033451E1,8.255237937E-1,-3.218346357E0
1.643572928E0,-1.129651546E1,8.063812256E-1,-3.486342669E0
1.648328241E0,-1.107637596E1,7.680960894E-1,-3.706482172E0
1.653083605E0,-1.094477081E1,6.604190469E-1,-4.125226021E0
1.657838918E0,-1.071745300E1,5.910272002E-1,-4.393222332E0
1.662594282E0,-1.051884842E1,4.857429862E-1,-4.862215519E0
1.667349595E0,-1.031785107E1,3.996013701E-1,-5.230710506E0
1.672104960E0,-1.012642574E1,3.948157430E-1,-5.448457241E0
1.676860272E0,-9.820143700E0,2.823530734E-1,-5.599205017E0
1.681615637E0,-9.633503914E0,1.531406492E-1,-5.651846886E0
1.686371001E0,-9.406186104E0,5.264209956E-2,-5.553741455E0
1.691126314E0,-9.267401695E0,-3.349951655E-2,-5.419743061E0
1.695881678E0,-9.166903496E0,-1.172483116E-1,-4.967499733E0
1.700636991E0,-9.138189316E0,-3.206382394E-1,-4.689932346E0
1.705392355E0,-9.071190834E0,-5.024927258E-1,-4.223331928E0
1.710147668E0,-8.894122124E0,-6.963114142E-1,-3.981656790E0
1.714903032E0,-8.851051331E0,-1.000199914E0,-3.739981890E0
1.719658345E0,-8.535198212E0,-1.275374413E0,-3.280559778E0
1.724413710E0,-8.477770805E0,-1.531406522E0,-2.866601467E0
1.729169074E0,-8.470592499E0,-1.775474429E0,-2.586641312E0
1.733924387E0,-8.305487633E0,-2.057827473E0,-2.172683001E0
1.738679751E0,-8.264809608E0,-2.416750908E0,-2.187039852E0
1.743435064E0,-8.149953842E0,-2.356930256E0,-1.627119422E0
1.748190428E0,-8.274380684E0,-2.431107759E0,-1.349551916E0
1.752945741E0,-8.389236450E0,-2.900100946E0,-1.744367719E0
1.757701105E0,-8.365307808E0,-3.361915827E0,-1.911865234E0
1.762456418E0,-8.331808090E0,-3.299702406E0,-1.356730461E0
1.767211782E0,-8.264809608E0,-3.163311481E0,-9.930213690E-1
1.771967095E0,-8.185846329E0,-3.120240688E0,-1.167697430E0
1.776722460E0,-8.238488197E0,-3.177668571E0,-1.864008784E0
1.781477824E0,-8.456234932E0,-3.292523861E0,-2.323430777E0
1.786233137E0,-8.365307808E0,-3.383451223E0,-2.648854733E0
1.790988501E0,-8.556734085E0,-3.409772158E0,-2.756531715E0
1.795743814E0,-8.669196129E0,-3.273381472E0,-2.940778971E0
1.800499178E0,-8.772088051E0,-3.170490026E0,-3.136990547E0
1.805254491E0,-9.049654961E0,-3.005385160E0,-2.943171740E0
1.810009855E0,-8.518448830E0,-2.933600664E0,-2.823530674E0
1.814765168E0,-7.298109055E0,-2.555534601E0,-3.163311481E0
1.819520532E0,-8.647661209E0,-2.596212626E0,-3.751945972E0
1.824275897E0,-9.217152596E0,-2.945564747E0,-3.960121393E0
1.829031210E0,-9.647860527E0,-3.359523058E0,-3.893122435E0
1.833786574E0,-9.832108498E0,-3.699303865E0,-3.682554007E0
1.838541887E0,-1.042074299E1,-3.940979004E0,-3.622733593E0
1.843297251E0,-1.107876873E1,-4.010370731E0,-3.608376503E0
1.848052564E0,-1.185165024E1,-4.110869408E0,-3.479164124E0
1.852807928E0,-1.247139168E1,-4.319045067E0,-3.385843992E0
1.857563241E0,-1.261496067E1,-4.232903481E0,-3.132204771E0
1.862318605E0,-1.246182060E1,-4.017549038E0,-2.849851847E0
1.867073918E0,-1.223689461E1,-3.905086517E0,-2.811566591E0
1.871829282E0,-1.153579807E1,-3.742374659E0,-2.904886723E0
1.876584595E0,-1.108833981E1,-4.170690060E0,-3.857230186E0
1.881339960E0,-9.956535339E0,-4.252045631E0,-3.500699520E0
1.886095324E0,-9.324830055E0,-4.639683247E0,-3.235096216E0
1.890850637E0,-8.932407379E0,-5.211567879E0,-3.656233072E0
1.895606001E0,-8.688339233E0,-5.742774487E0,-3.180061340E0
1.900361314E0,-8.819944382E0,-6.424728870E0,-3.608376503E0
1.905116678E0,-8.563912392E0,-6.582654953E0,-3.294916868E0
1.909871991E0,-8.595019341E0,-6.762116909E0,-2.950350285E0
1.914627355E0,-9.085547447E0,-6.984649181E0,-3.077169895E0
1.919382668E0,-9.566504478E0,-7.089933395E0,-3.072384357E0
1.924138032E0,-9.482755661E0,-6.841079712E0,-2.787638426E0
1.928893345E0,-9.595218658E0,-6.836294174E0,-3.050848961E0
1.933648710E0,-9.657432556E0,-6.762116909E0,-3.510270834E0
1.938404022E0,-9.142974854E0,-6.331408501E0,-3.617947817E0
1.943159387E0,-9.296115875E0,-6.214160442E0,-4.067798615E0
1.947914751E0,-8.831908226E0,-5.871986866E0,-4.127619267E0
1.952670064E0,-8.705088615E0,-5.869594097E0,-4.271188259E0
1.957425428E0,-8.784051895E0,-5.958128452E0,-4.539184570E0
1.962180741E0,-8.865407944E0,-6.099305153E0,-4.723432064E0
1.966936105E0,-8.779266357E0,-6.183053493E0,-4.646861553E0
1.971691418E0,-8.640482903E0,-6.319444656E0,-4.567898273E0
1.976446782E0,-8.604590416E0,-6.525227547E0,-4.503292084E0
1.981202095E0,-8.630910873E0,-6.752545357E0,-4.445864677E0
1.985957460E0,-8.791230202E0,-6.965506554E0,-4.304687977E0
1.990712772E0,-8.906085968E0,-7.135396957E0,-4.192225456E0
1.995468137E0,-8.915657043E0,-6.929614544E0,-3.275774240E0
2.000223449E0,-8.695517540E0,-6.793223381E0,-2.804388046E0
2.004978814E0,-8.506484032E0,-6.709474564E0,-2.667997360E0
2.009734178E0,-8.372486115E0,-6.594619274E0,-2.809173822E0
2.014489491E0,-8.159524918E0,-6.525227547E0,-2.739781857E0
2.019244855E0,-7.829315662E0,-6.472585201E0,-2.868994236E0
2.024000168E0,-7.465606689E0,-6.446264267E0,-3.129812002E0
2.028755532E0,-6.910471916E0,-6.513263226E0,-3.244667530E0
2.033510845E0,-6.340980053E0,-6.501298904E0,-3.428914785E0
2.038266210E0,-5.903093338E0,-6.506084919E0,-3.613162279E0
2.043021522E0,-6.082555294E0,-5.795416355E0,-3.369094372E0
2.047776887E0,-5.970092297E0,-5.340780258E0,-3.775874138E0
2.052532199E0,-5.747560024E0,-4.924428940E0,-4.110869408E0
2.057287564E0,-5.592026711E0,-4.436293125E0,-4.015156269E0
2.062042876E0,-5.446064472E0,-4.115654945E0,-3.821337700E0
2.066798241E0,-5.503491879E0,-3.993621111E0,-3.460021496E0
2.071553605E0,-5.577669621E0,-4.029513359E0,-2.991028309E0
2.076308918E0,-5.771488190E0,-4.185046673E0,-2.732603550E0
2.081064230E0,-5.929414749E0,-4.273581028E0,-2.591426849E0
2.085819595E0,-5.989234924E0,-4.405186653E0,-2.581855536E0
2.090574960E0,-6.039484501E0,-4.429114819E0,-2.507678032E0
2.095330272E0,-5.948556900E0,-4.342973232E0,-2.376072884E0
2.100085637E0,-5.927021503E0,-4.426722050E0,-2.524427891E0
2.104840949E0,-5.994020939E0,-4.680361271E0,-2.675175667E0
2.109596314E0,-6.051448345E0,-4.754538536E0,-2.787638426E0
2.114351626E0,-5.994020939E0,-4.816751957E0,-2.730210543E0
2.119106991E0,-5.871986866E0,-5.060820103E0,-2.744567633E0
2.123862303E0,-5.936593056E0,-5.386243820E0,-2.792423964E0
2.128617668E0,-5.996413708E0,-5.599205017E0,-2.904886723E0
2.133372980E0,-5.855237007E0,-5.826523304E0,-2.935993433E0
2.138128345E0,-6.075376511E0,-6.218945980E0,-3.122633457E0
2.142883657E0,-6.199803352E0,-6.455835342E0,-3.314059258E0
2.147639022E0,-6.211767673E0,-6.726224422E0,-3.404986620E0
2.152394335E0,-6.044270039E0,-7.097112179E0,-3.440878868E0
2.157149699E0,-5.539384365E0,-7.972885132E0,-3.381058455E0
2.161905064E0,-5.718846321E0,-7.798209190E0,-3.488735437E0
2.166660376E0,-5.706882000E0,-7.846065521E0,-3.462414265E0
2.171415741E0,-5.608776093E0,-8.166703224E0,-3.416950703E0
2.176171053E0,-5.431707382E0,-8.520841599E0,-3.354737282E0
2.180926366E0,-5.498706341E0,-8.489734650E0,-3.347558975E0
2.185681730E0,-5.508277893E0,-8.451449394E0,-3.330809116E0
2.190437095E0,-5.426921844E0,-8.437092781E0,-3.275774240E0
2.195192407E0,-5.362315655E0,-8.516056061E0,-3.266202927E0
2.199947772E0,-5.355136871E0,-8.561519623E0,-3.309273720E0
2.204703085E0,-5.347958565E0,-8.573483467E0,-3.314059258E0
2.209458449E0,-5.302495003E0,-8.580661774E0,-3.211168051E0
2.214213762E0,-5.245067120E0,-8.614161491E0,-3.199203968E0
2.218969126E0,-5.113461971E0,-8.721838951E0,-3.110669374E0
2.223724439E0,-5.051248550E0,-8.903693199E0,-3.084348440E0
2.228479803E0,-5.077569485E0,-8.973084450E0,-3.005385160E0
2.233235116E0,-5.199603558E0,-9.080761909E0,-3.069991350E0
2.237990480E0,-5.407779217E0,-9.042476654E0,-3.151347399E0
2.242745793E0,-5.625525951E0,-8.982656479E0,-3.220739365E0
2.247501157E0,-5.747560024E0,-9.013762474E0,-3.361915827E0
2.252256470E0,-5.862415314E0,-9.085547447E0,-3.471985579E0
2.257011835E0,-5.965306759E0,-9.209974289E0,-3.637090445E0
2.261767147E0,-6.044270039E0,-9.255437851E0,-3.737588882E0
2.266522512E0,-5.986842155E0,-9.322437286E0,-3.838087559E0
2.271277824E0,-5.900700569E0,-9.245866776E0,-3.890729666E0
2.276033189E0,-5.836094379E0,-9.183652878E0,-3.878765583E0
2.280788501E0,-5.723631859E0,-9.262616158E0,-3.720839262E0
2.285543866E0,-5.527420521E0,-9.281759262E0,-3.594019651E0
2.290299178E0,-5.402993679E0,-9.257830620E0,-3.510270834E0
2.295054543E0,-5.266602516E0,-9.241081238E0,-3.455235958E0
2.299809855E0,-5.115854740E0,-9.312865257E0,-3.436093330E0
2.304565220E0,-5.034498692E0,-9.372686386E0,-3.407379389E0
2.309320585E0,-4.984249592E0,-9.473184586E0,-3.290131092E0
2.314075897E0,-4.857429981E0,-9.573683739E0,-3.175275564E0
2.318831262E0,-4.814359188E0,-9.592825890E0,-3.046063185E0
2.323586574E0,-4.902893543E0,-9.592825890E0,-2.895315409E0
2.328341939E0,-4.895715237E0,-9.686145782E0,-2.991028309E0
2.333097251E0,-4.867001057E0,-9.745966911E0,-3.081955671E0
2.337852616E0,-4.852644444E0,-9.801001549E0,-3.108276606E0
2.342607928E0,-4.764110088E0,-9.875179291E0,-3.108276606E0
2.347363293E0,-4.553541660E0,-9.884750366E0,-3.136990547E0
2.352118605E0,-4.443471432E0,-9.868000984E0,-3.180061340E0
2.356873970E0,-4.474578381E0,-9.781859398E0,-3.256631613E0
2.361629282E0,-4.450650215E0,-9.719645500E0,-3.318845034E0
2.366384647E0,-4.369294167E0,-9.614361763E0,-3.407379389E0
2.371139960E0,-4.412364960E0,-9.504291534E0,-3.471985579E0
2.375895324E0,-4.479363918E0,-9.363115311E0,-3.471985579E0
2.380650637E0,-4.479363918E0,-9.190832138E0,-3.404986620E0
2.385406001E0,-4.457828522E0,-9.008976936E0,-3.282952785E0
2.390161314E0,-4.467400074E0,-8.906085968E0,-3.199203968E0
2.394916678E0,-4.395615101E0,-8.807980537E0,-3.089133978E0
2.399671991E0,-4.338187218E0,-8.705088615E0,-3.053241730E0
2.404427355E0,-4.211368084E0,-8.614161491E0,-3.046063185E0
2.409182668E0,-4.086941242E0,-8.542376518E0,-3.062813044E0
2.413938032E0,-3.945764542E0,-8.494520187E0,-3.007778168E0
2.418693345E0,-3.689732552E0,-8.453842163E0,-2.859423161E0
2.423448710E0,-3.388236761E0,-8.327022552E0,-2.656033039E0
2.428204022E0,-2.931207657E0,-8.137989998E0,-2.388036966E0
2.432959387E0,-2.522035122E0,-8.025527000E0,-2.187039852E0
2.437714699E0,-2.170290232E0,-7.982456207E0,-2.098505497E0
2.442470064E0,-1.981257200E0,-7.999206066E0,-2.057827473E0
2.447225376E0,-2.088934183E0,-7.941778183E0,-2.402393818E0
2.451980741E0,-2.220539331E0,-7.850851059E0,-2.801995277E0
2.456736053E0,-2.110469580E0,-7.860422611E0,-2.866601467E0
2.461491418E0,-1.919043779E0,-7.989634991E0,-2.737389088E0
2.466246730E0,-1.753939033E0,-8.149953842E0,-2.615355253E0
2.471002095E0,-1.672582984E0,-8.221738815E0,-2.524427891E0
2.475757407E0,-1.646261930E0,-8.238488197E0,-2.483749866E0
2.480512772E0,-2.155933142E0,-8.327022552E0,-2.435893536E0
2.485268085E0,-3.649054527E0,-8.834300995E0,-2.416750908E0
2.490023449E0,-5.809773445E0,-9.908679008E0,-2.481357098E0
2.494778762E0,-8.355736732E0,-1.131087303E1,-2.653640270E0
2.499534126E0,-1.121755219E1,-1.308873940E1,-2.900100946E0
2.504289439E0,-1.318684578E1,-1.469671631E1,-2.694318295E0
2.509044803E0,-1.451964760E1,-1.612523270E1,-2.385644197E0
2.513800116E0,-1.505564022E1,-1.735274887E1,-2.160718918E0
2.518555480E0,-1.454357624E1,-1.808495331E1,-2.163111687E0
2.523310793E0,-1.207418346E1,-1.802034760E1,-2.313859463E0
2.528066157E0,-8.044670105E0,-1.723789406E1,-2.957528830E0
2.532821470E0,-3.759124279E0,-1.586202145E1,-3.448057413E0
2.537576835E0,-2.751746178E-1,-1.454357624E1,-3.610769272E0
2.542332147E0,1.825723648E0,-1.348594856E1,-3.816552162E0
2.547087512E0,2.208575249E0,-1.234696484E1,-3.885943890E0
2.551842824E0,1.323230863E0,-1.118405342E1,-3.737588882E0
2.556598189E0,-3.302095234E-1,-1.041117096E1,-3.577269793E0
2.561353501E0,-1.911865234E0,-1.002114105E1,-2.983849764E0
2.566108814E0,-2.720639229E0,-9.772287369E0,-2.019542217E0
2.570864178E0,-2.955136061E0,-9.879964828E0,-2.163111687E0
2.575619543E0,-2.967100143E0,-9.820143700E0,-2.392822742E0
2.580374855E0,-2.854637384E0,-9.633503914E0,-2.572284460E0
2.585130168E0,-2.804388046E0,-9.300901413E0,-2.665604353E0
2.589885532E0,-3.060420275E0,-8.891729355E0,-2.830709219E0
2.594640845E0,-3.527020693E0,-8.633303642E0,-3.115455151E0
2.599396210E0,-3.914657831E0,-8.772088051E0,-3.376272678E0
2.604151522E0,-4.156332970E0,-8.874979019E0,-3.448057413E0
2.608906887E0,-4.180261135E0,-9.020941734E0,-3.354737282E0
2.613662199E0,-4.211368084E0,-9.049654961E0,-3.101098061E0
2.618417564E0,-4.331008911E0,-9.044869423E0,-2.699103832E0
2.623172876E0,-4.445864677E0,-9.075976372E0,-2.270788670E0
2.627928241E0,-4.474578381E0,-9.178867340E0,-1.849651933E0
2.632683553E0,-4.421936035E0,-9.274580956E0,-1.476371527E0
2.637438918E0,-4.364508629E0,-9.403793335E0,-1.256231904E0
2.642194230E0,-4.204189301E0,-9.475577354E0,-1.167697430E0
2.646949595E0,-3.984049797E0,-9.542576790E0,-1.222732425E0
2.651704907E0,-3.787838221E0,-9.542576790E0,-1.416550994E0
2.656460272E0,-3.675375462E0,-9.535398483E0,-1.665404558E0
2.661215585E0,-3.641875982E0,-9.535398483E0,-1.971685886E0
2.665970949E0,-3.682554007E0,-9.511469841E0,-2.266003132E0
2.670726262E0,-3.742374659E0,-9.473184586E0,-2.488535643E0
2.675481626E0,-3.845266104E0,-9.446864128E0,-2.675175667E0
2.680236939E0,-3.902693748E0,-9.408578873E0,-2.785245657E0
2.684992251E0,-3.948157310E0,-9.384650230E0,-2.866601467E0
2.689747616E0,-3.969692707E0,-9.358329773E0,-2.895315409E0
2.694502928E0,-3.984049797E0,-9.358329773E0,-2.880958557E0
2.699258293E0,-3.996013880E0,-9.308079720E0,-2.845066071E0
2.704013605E0,-3.976871252E0,-9.303294182E0,-2.775674343E0
2.708768970E0,-4.007977962E0,-9.241081238E0,-2.672782898E0
2.713524282E0,-4.005585194E0,-9.207581520E0,-2.600998163E0
2.718279647E0,-4.005585194E0,-9.169296265E0,-2.555534601E0
2.723034960E0,-4.010370731E0,-9.142974854E0,-2.502892494E0
2.727790324E0,-4.070191383E0,-9.102297783E0,-2.500499725E0
2.732545637E0,-4.070191383E0,-9.097511292E0,-2.514856577E0
2.737301001E0,-4.115654945E0,-9.097511292E0,-2.550748825E0
2.742056314E0,-4.127619267E0,-9.116654396E0,-2.574677229E0
2.746811626E0,-4.125226021E0,-9.121439934E0,-2.581855536E0
2.751566991E0,-4.127619267E0,-9.138189316E0,-2.560320139E0
2.756322303E0,-4.132404804E0,-9.162117958E0,-2.555534601E0
2.761077668E0,-4.118047714E0,-9.169296265E0,-2.529213428E0
2.765832980E0,-4.137190342E0,-9.176474571E0,-2.471785784E0
2.770588345E0,-4.127619267E0,-9.176474571E0,-2.395215511E0
2.775343657E0,-4.106083870E0,-9.202795982E0,-2.337787628E0
2.780099022E0,-4.113262177E0,-9.229117393E0,-2.299502611E0
2.784854335E0,-4.130012035E0,-9.214759827E0,-2.282752752E0
2.789609699E0,-4.134797573E0,-9.214759827E0,-2.261217356E0
2.794365012E0,-4.144368649E0,-9.178867340E0,-2.270788670E0
2.799120376E0,-4.141975880E0,-9.205188751E0,-2.299502611E0
2.803875689E0,-4.158725739E0,-9.214759827E0,-2.325823545E0
2.808631053E0,-4.185046673E0,-9.219545364E0,-2.342573404E0
2.813386366E0,-4.199403763E0,-9.219545364E0,-2.371287346E0
2.818141730E0,-4.218546391E0,-9.209974289E0,-2.395215511E0
2.822897043E0,-4.180261135E0,-9.190832138E0,-2.411965132E0
2.827652355E0,-4.165904045E0,-9.186046600E0,-2.440679073E0
2.832407720E0,-4.170690060E0,-9.176474571E0,-2.455035925E0
2.837163032E0,-4.125226021E0,-9.154939651E0,-2.476571321E0
2.841918397E0,-4.065405846E0,-9.114261627E0,-2.488535643E0
2.846673710E0,-4.003192425E0,-9.107083321E0,-2.507678032E0
2.851429074E0,-3.967299938E0,-9.071190834E0,-2.522035122E0
2.856184387E0,-3.933800459E0,-9.042476654E0,-2.543570518E0
2.860939699E0,-3.924229145E0,-9.032905579E0,-2.562713146E0
2.865695064E0,-3.921836376E0,-9.047262192E0,-2.569891453E0
2.870450376E0,-3.890729666E0,-9.032905579E0,-2.589034081E0
2.875205741E0,-3.948157310E0,-9.061619759E0,-2.577069998E0
2.879961053E0,-3.921836376E0,-9.078369141E0,-2.591426849E0
2.884716418E0,-3.864408493E0,-9.102297783E0,-2.600998163E0
2.889471730E0,-3.873979807E0,-9.131011009E0,-2.581855536E0
2.894227095E0,-3.862015724E0,-9.207581520E0,-2.598605394E0
2.898982407E0,-3.857230186E0,-9.253045082E0,-2.615355253E0
2.903737720E0,-3.826123476E0,-9.286544800E0,-2.641676188E0
2.908493085E0,-3.814159393E0,-9.348757744E0,-2.658426046E0
2.913248449E0,-3.818944931E0,-9.379864693E0,-2.682354212E0
2.918003762E0,-3.864408493E0,-9.432506561E0,-2.672782898E0
2.922759126E0,-3.907479286E0,-9.492327690E0,-2.648854733E0
2.927514439E0,-3.929014683E0,-9.547362328E0,-2.605783939E0
2.932269751E0,-3.921836376E0,-9.559326172E0,-2.579462767E0
2.937025116E0,-3.888336897E0,-9.566504478E0,-2.531606436E0
2.941780428E0,-3.893122435E0,-9.583254814E0,-2.469393015E0
2.946535793E0,-3.897907972E0,-9.600004196E0,-2.445464849E0
2.951291105E0,-3.830909014E0,-9.571290970E0,-2.433500528E0
2.956046418E0,-3.754338741E0,-9.501898766E0,-2.457428932E0
2.960801782E0,-3.699303865E0,-9.489934921E0,-2.450250387E0
2.965557095E0,-3.560520172E0,-9.480362892E0,-2.428714991E0
2.970312460E0,-3.400201082E0,-9.413364410E0,-2.423929453E0
2.975067772E0,-3.256631613E0,-9.403793335E0,-2.457428932E0
2.979823137E0,-3.170490026E0,-9.389435768E0,-2.543570518E0
2.984578449E0,-3.153740168E0,-9.406186104E0,-2.600998163E0
2.989333814E0,-3.168097258E0,-9.444471359E0,-2.627319336E0
2.994089126E0,-3.192025423E0,-9.473184586E0,-2.670390129E0
2.998844439E0,-3.180061340E0,-9.525827408E0,-2.701496840E0
3.003599803E0,-3.220739365E0,-9.552147865E0,-2.708675146E0
3.008355116E0,-3.259024382E0,-9.554540634E0,-2.677568436E0
3.013110480E0,-3.383451223E0,-9.583254814E0,-2.600998163E0
3.017865793E0,-3.500699520E0,-9.614361763E0,-2.471785784E0
3.022621157E0,-3.582055569E0,-9.607182503E0,-2.361716032E0
3.027376470E0,-3.668197155E0,-9.592825890E0,-2.232503414E0
3.032131835E0,-3.761517286E0,-9.549755096E0,-2.117648125E0
3.036887147E0,-3.835694790E0,-9.492327690E0,-2.036292076E0
3.041642460E0,-3.902693748E0,-9.422935486E0,-1.940579176E0
3.046397824E0,-3.888336897E0,-9.343972206E0,-1.902294040E0
3.051153137E0,-3.823730469E0,-9.245866776E0,-1.875972986E0
3.055908501E0,-3.780659676E0,-9.174081802E0,-1.902294040E0
3.060663814E0,-3.716053486E0,-9.099904060E0,-1.945364833E0
3.065419178E0,-3.672982693E0,-9.040083885E0,-2.021935225E0
3.070174491E0,-3.608376503E0,-8.999405861E0,-2.103291035E0
3.074929803E0,-3.562912941E0,-8.975478172E0,-2.194218397E0
3.079685168E0,-3.560520172E0,-8.941978455E0,-2.268395901E0
3.084440480E0,-3.584448338E0,-8.958727837E0,-2.361716032E0
3.089195845E0,-3.601198196E0,-8.975478172E0,-2.447857618E0
3.093951157E0,-3.668197155E0,-8.977870941E0,-2.490928411E0
3.098706522E0,-3.723232031E0,-9.001798630E0,-2.531606436E0
3.103461835E0,-3.797409534E0,-9.078369141E0,-2.545963287E0
3.108217147E0,-3.888336897E0,-9.109476089E0,-2.533999205E0
3.112972512E0,-3.912265062E0,-9.138189316E0,-2.545963287E0
3.117727824E0,-3.993621111E0,-9.181260109E0,-2.548356056E0
3.122483189E0,-4.010370731E0,-9.181260109E0,-2.538784742E0
3.127238501E0,-4.041477680E0,-9.195617676E0,-2.567498684E0
3.131993866E0,-4.058227062E0,-9.195617676E0,-2.569891453E0
3.136749178E0,-4.048655987E0,-9.190832138E0,-2.553141832E0
3.141504491E0,-4.060619831E0,-9.166903496E0,-2.517249346E0
3.146259855E0,-4.063013077E0,-9.138189316E0,-2.524427891E0
3.151015168E0,-4.048655987E0,-9.092725754E0,-2.519642353E0
3.155770532E0,-4.039084435E0,-9.078369141E0,-2.486142635E0
3.160525845E0,-4.015156269E0,-9.028120041E0,-2.469393015E0
3.165281210E0,-3.996013880E0,-9.018548965E0,-2.469393015E0
3.170036522E0,-3.960121393E0,-9.020941734E0,-2.462214470E0
3.174791835E0,-3.921836376E0,-8.989834785E0,-2.490928411E0
3.179547199E0,-3.888336897E0,-9.011369705E0,-2.510071039E0
3.184302512E0,-3.890729666E0,-9.011369705E0,-2.531606436E0
3.189057876E0,-3.816552162E0,-9.032905579E0,-2.545963287E0
3.193813189E0,-3.802195072E0,-9.040083885E0,-2.574677229E0
3.198568553E0,-3.795016766E0,-9.073583603E0,-2.565105915E0
3.203323866E0,-3.790230989E0,-9.116654396E0,-2.598605394E0
3.208079178E0,-3.780659676E0,-9.147761345E0,-2.584248543E0
3.212834543E0,-3.730410576E0,-9.183652878E0,-2.581855536E0
3.217589855E0,-3.701696634E0,-9.217152596E0,-2.584248543E0
3.222345220E0,-3.694518089E0,-9.231510162E0,-2.586641312E0
3.227100532E0,-3.661018610E0,-9.241081238E0,-2.586641312E0
3.231855845E0,-3.639483213E0,-9.257830620E0,-2.577069998E0
3.236611210E0,-3.613162279E0,-9.248259544E0,-2.562713146E0
3.241366522E0,-3.579662561E0,-9.250652313E0,-2.562713146E0
3.246121887E0,-3.553341627E0,-9.253045082E0,-2.555534601E0
3.250877199E0,-3.536591768E0,-9.224330902E0,-2.541177750E0
3.255632512E0,-3.507878065E0,-9.236295700E0,-2.517249346E0
3.260387876E0,-3.524627686E0,-9.202795982E0,-2.519642353E0
3.265143189E0,-3.515056372E0,-9.205188751E0,-2.502892494E0
3.269898553E0,-3.505485058E0,-9.162117958E0,-2.483749866E0
3.274653866E0,-3.481556892E0,-9.164510727E0,-2.467000246E0
3.279409230E0,-3.426522017E0,-9.147761345E0,-2.447857618E0
3.284164543E0,-3.440878868E0,-9.159725189E0,-2.433500528E0
3.288919855E0,-3.455235958E0,-9.171689034E0,-2.419143677E0
3.293675220E0,-3.491128206E0,-9.169296265E0,-2.402393818E0
3.298430532E0,-3.498306751E0,-9.229117393E0,-2.373680115E0
3.303185897E0,-3.524627686E0,-9.238688469E0,-2.347358942E0
3.307941210E0,-3.546163082E0,-9.265008926E0,-2.325823545E0
3.312696522E0,-3.555734396E0,-9.274580956E0,-2.294716835E0
3.317451887E0,-3.572484255E0,-9.284152031E0,-2.275574446E0
3.322207199E0,-3.584448338E0,-9.265008926E0,-2.258824587E0
3.326962564E0,-3.620340586E0,-9.238688469E0,-2.258824587E0
3.331717876E0,-3.615555048E0,-9.245866776E0,-2.258824587E0
3.336473241E0,-3.634697676E0,-9.231510162E0,-2.273181438E0
3.341228553E0,-3.646661758E0,-9.214759827E0,-2.282752752E0
3.345983866E0,-3.670589924E0,-9.200403214E0,-2.280359983E0
3.350739230E0,-3.701696634E0,-9.205188751E0,-2.277967215E0
3.355494543E0,-3.716053486E0,-9.200403214E0,-2.292324066E0
3.360249907E0,-3.735196114E0,-9.195617676E0,-2.275574446E0
3.365005220E0,-3.766302824E0,-9.219545364E0,-2.263610125E0
3.369760532E0,-3.744767427E0,-9.217152596E0,-2.268395901E0
3.374515897E0,-3.718446493E0,-9.186046600E0,-2.273181438E0
3.379271210E0,-3.708875179E0,-9.195617676E0,-2.299502611E0
3.384026574E0,-3.720839262E0,-9.200403214E0,-2.299502611E0
3.388781887E0,-3.761517286E0,-9.190832138E0,-2.309073925E0
3.393537199E0,-3.768695593E0,-9.229117393E0,-2.342573404E0
3.398292564E0,-3.761517286E0,-9.205188751E0,-2.335394859E0
3.403047876E0,-3.754338741E0,-9.209974289E0,-2.342573404E0
3.407803189E0,-3.773481369E0,-9.200403214E0,-2.325823545E0
3.412558553E0,-3.759124279E0,-9.207581520E0,-2.337787628E0
3.417313866E0,-3.751945972E0,-9.209974289E0,-2.335394859E0
3.422069230E0,-3.730410576E0,-9.231510162E0,-2.325823545E0
3.426824543E0,-3.718446493E0,-9.207581520E0,-2.337787628E0
3.431579907E0,-3.713660717E0,-9.186046600E0,-2.337787628E0
3.436335220E0,-3.682554007E0,-9.150154114E0,-2.344966173E0
3.441090532E0,-3.682554007E0,-9.131011009E0,-2.347358942E0
3.445845897E0,-3.680161238E0,-9.107083321E0,-2.364108801E0
3.450601210E0,-3.661018610E0,-9.099904060E0,-2.344966173E0
3.455356574E0,-3.641875982E0,-9.071190834E0,-2.349751949E0
3.460111887E0,-3.644268990E0,-9.028120041E0,-2.335394859E0
3.464867199E0,-3.637090445E0,-9.030512810E0,-2.321038008E0
3.469622564E0,-3.641875982E0,-9.037691116E0,-2.304288149E0
3.474377876E0,-3.656233072E0,-9.006584167E0,-2.273181438E0
3.479133189E0,-3.656233072E0,-9.016156197E0,-2.258824587E0
3.483888553E0,-3.656233072E0,-9.028120041E0,-2.246860504E0
3.488643866E0,-3.601198196E0,-9.008976936E0,-2.225325108E0
3.493399230E0,-3.579662561E0,-8.999405861E0,-2.218146563E0
3.498154543E0,-3.555734396E0,-8.989834785E0,-2.215753794E0
3.502909855E0,-3.550948858E0,-8.992227554E0,-2.210968018E0
3.507665220E0,-3.529413462E0,-8.977870941E0,-2.220539331E0
3.512420532E0,-3.529413462E0,-8.980263710E0,-2.220539331E0
3.517175897E0,-3.524627686E0,-8.987442017E0,-2.220539331E0
3.521931210E0,-3.538984776E0,-9.001798630E0,-2.213361025E0
3.526686522E0,-3.560520172E0,-9.013762474E0,-2.215753794E0
3.531441887E0,-3.543770313E0,-9.011369705E0,-2.210968018E0
3.536197199E0,-3.555734396E0,-9.032905579E0,-2.210968018E0
3.540952564E0,-3.527020693E0,-9.013762474E0,-2.208575249E0
3.545707876E0,-3.550948858E0,-9.025727272E0,-2.218146563E0
3.550463189E0,-3.536591768E0,-9.059226990E0,-2.234896421E0
3.555218553E0,-3.527020693E0,-9.056833267E0,-2.273181438E0
3.559973866E0,-3.536591768E0,-9.073583603E0,-2.292324066E0
3.564729230E0,-3.517449379E0,-9.068798065E0,-2.309073925E0
3.569484543E0,-3.534198999E0,-9.047262192E0,-2.335394859E0
3.574239855E0,-3.536591768E0,-9.064012527E0,-2.340180635E0
3.578995220E0,-3.560520172E0,-9.056833267E0,-2.371287346E0
3.583750532E0,-3.550948858E0,-9.056833267E0,-2.371287346E0
3.588505897E0,-3.567698479E0,-9.061619759E0,-2.395215511E0
3.593261210E0,-3.572484255E0,-9.061619759E0,-2.397608280E0
3.598016522E0,-3.579662561E0,-9.061619759E0,-2.397608280E0
3.602771887E0,-3.591626883E0,-9.054440498E0,-2.373680115E0
3.607527199E0,-3.605983734E0,-9.054440498E0,-2.354537487E0
3.612282512E0,-3.574877024E0,-9.037691116E0,-2.352144718E0
3.617037876E0,-3.582055569E0,-9.013762474E0,-2.352144718E0
3.621793189E0,-3.582055569E0,-9.006584167E0,-2.325823545E0
3.626548553E0,-3.605983734E0,-8.963513374E0,-2.297109842E0
3.631303866E0,-3.605983734E0,-8.949156761E0,-2.299502611E0
3.636059178E0,-3.598805189E0,-8.951549530E0,-2.261217356E0
3.640814543E0,-3.613162279E0,-8.932407379E0,-2.249253273E0
3.645569855E0,-3.589233875E0,-8.879764557E0,-2.239681959E0
3.650325168E0,-3.610769272E0,-8.860622406E0,-2.222932339E0
3.655080532E0,-3.586841106E0,-8.872586250E0,-2.206182480E0
3.659835845E0,-3.598805189E0,-8.841479301E0,-2.208575249E0
3.664591210E0,-3.591626883E0,-8.827122688E0,-2.165504456E0
3.669346522E0,-3.594019651E0,-8.841479301E0,-2.177468538E0
3.674101835E0,-3.582055569E0,-8.829515457E0,-2.172683001E0
3.678857199E0,-3.603590965E0,-8.841479301E0,-2.179861546E0
3.683612512E0,-3.605983734E0,-8.827122688E0,-2.194218397E0
3.688367824E0,-3.582055569E0,-8.800801277E0,-2.191825628E0
3.693123189E0,-3.558127165E0,-8.819944382E0,-2.196611166E0
3.697878501E0,-3.560520172E0,-8.807980537E0,-2.210968018E0
3.702633866E0,-3.574877024E0,-8.831908226E0,-2.222932339E0
3.707389178E0,-3.584448338E0,-8.834300995E0,-2.218146563E0
3.712144491E0,-3.567698479E0,-8.853444099E0,-2.232503414E0
3.716899855E0,-3.584448338E0,-8.865407944E0,-2.230110645E0
3.721655168E0,-3.594019651E0,-8.898907661E0,-2.239681959E0
3.726410532E0,-3.601198196E0,-8.920442581E0,-2.246860504E0
3.731165845E0,-3.601198196E0,-8.953942299E0,-2.256431818E0
3.735921157E0,-3.613162279E0,-8.956335068E0,-2.254039049E0
3.740676522E0,-3.591626883E0,-8.994620323E0,-2.258824587E0
3.745431835E0,-3.613162279E0,-9.004191399E0,-2.254039049E0
3.750187147E0,-3.620340586E0,-9.037691116E0,-2.251646042E0
3.754942512E0,-3.613162279E0,-9.035298347E0,-2.246860504E0
3.759697824E0,-3.617947817E0,-9.052047729E0,-2.254039049E0
3.764453137E0,-3.622733593E0,-9.066405296E0,-2.270788670E0
3.769208501E0,-3.610769272E0,-9.080761909E0,-2.297109842E0
3.773963814E0,-3.608376503E0,-9.085547447E0,-2.323430777E0
3.778719178E0,-3.586841106E0,-9.056833267E0,-2.328216314E0
3.783474491E0,-3.582055569E0,-9.059226990E0,-2.337787628E0
3.788229803E0,-3.570091486E0,-9.066405296E0,-2.356930256E0
3.792985168E0,-3.567698479E0,-9.028120041E0,-2.364108801E0
3.797740480E0,-3.555734396E0,-9.030512810E0,-2.354537487E0
3.802495793E0,-3.562912941E0,-9.025727272E0,-2.349751949E0
3.807251157E0,-3.553341627E0,-8.994620323E0,-2.342573404E0
3.812006470E0,-3.548556089E0,-9.008976936E0,-2.323430777E0
3.816761835E0,-3.538984776E0,-9.001798630E0,-2.306680918E0
3.821517147E0,-3.519842148E0,-8.997013092E0,-2.294716835E0
3.826272460E0,-3.495913982E0,-8.980263710E0,-2.273181438E0
3.831027824E0,-3.493520975E0,-8.963513374E0,-2.249253273E0
3.835783137E0,-3.455235958E0,-8.975478172E0,-2.230110645E0
3.840538449E0,-3.436093330E0,-8.961120605E0,-2.251646042E0
3.845293814E0,-3.464807272E0,-8.951549530E0,-2.218146563E0
3.850049126E0,-3.448057413E0,-8.925228119E0,-2.187039852E0
3.854804439E0,-3.424129248E0,-8.891729355E0,-2.187039852E0
3.859559803E0,-3.400201082E0,-8.843872070E0,-2.189432621E0
3.864315116E0,-3.388236761E0,-8.817551613E0,-2.167897224E0
3.869070480E0,-3.407379389E0,-8.786444664E0,-2.179861546E0
3.873825793E0,-3.428914785E0,-8.757730484E0,-2.175075769E0
3.878581105E0,-3.457628727E0,-8.748159409E0,-2.194218397E0
3.883336470E0,-3.464807272E0,-8.726624489E0,-2.177468538E0
3.888091782E0,-3.486342669E0,-8.743373871E0,-2.177468538E0
3.892847095E0,-3.491128206E0,-8.745766640E0,-2.167897224E0
3.897602460E0,-3.510270834E0,-8.752944946E0,-2.160718918E0
3.902357772E0,-3.522234917E0,-8.745766640E0,-2.148754835E0
3.907113137E0,-3.541377544E0,-8.757730484E0,-2.151147604E0
3.911868449E0,-3.550948858E0,-8.757730484E0,-2.165504456E0
3.916623762E0,-3.558127165E0,-8.748159409E0,-2.172683001E0
3.921379126E0,-3.567698479E0,-8.733802795E0,-2.155933142E0
3.926134439E0,-3.586841106E0,-8.729017258E0,-2.189432621E0
3.930889751E0,-3.589233875E0,-8.731410027E0,-2.210968018E0
3.935645116E0,-3.605983734E0,-8.726624489E0,-2.244467735E0
3.940400428E0,-3.613162279E0,-8.724231720E0,-2.263610125E0
3.945155741E0,-3.653840065E0,-8.757730484E0,-2.289931297E0
3.949911105E0,-3.663411379E0,-8.784051895E0,-2.297109842E0
3.954666418E0,-3.665804386E0,-8.817551613E0,-2.323430777E0
3.959421730E0,-3.680161238E0,-8.860622406E0,-2.328216314E0
3.964177095E0,-3.684946775E0,-8.901300430E0,-2.333002090E0
3.968932407E0,-3.701696634E0,-8.922835350E0,-2.335394859E0
3.973687772E0,-3.682554007E0,-8.958727837E0,-2.356930256E0
3.978443085E0,-3.680161238E0,-8.997013092E0,-2.347358942E0
3.983198397E0,-3.658625841E0,-8.997013092E0,-2.366501570E0
3.987953762E0,-3.663411379E0,-9.004191399E0,-2.371287346E0
3.992709074E0,-3.639483213E0,-9.004191399E0,-2.397608280E0
3.997464387E0,-3.637090445E0,-8.997013092E0,-2.397608280E0
4.002219751E0,-3.656233072E0,-8.989834785E0,-2.419143677E0
4.006975064E0,-3.641875982E0,-8.977870941E0,-2.426322222E0
4.011730428E0,-3.663411379E0,-8.951549530E0,-2.433500528E0
4.016485741E0,-3.672982693E0,-8.961120605E0,-2.450250387E0
4.021241053E0,-3.639483213E0,-8.939585686E0,-2.433500528E0
4.025996418E0,-3.634697676E0,-8.930013657E0,-2.433500528E0
4.030751730E0,-3.620340586E0,-8.939585686E0,-2.423929453E0
4.035507043E0,-3.582055569E0,-8.927620888E0,-2.421536446E0
4.040262407E0,-3.567698479E0,-8.927620888E0,-2.404786825E0
4.045017720E0,-3.519842148E0,-8.930013657E0,-2.380858421E0
4.049773032E0,-3.503092289E0,-8.927620888E0,-2.347358942E0
4.054528397E0,-3.481556892E0,-8.925228119E0,-2.323430777E0
4.059283710E0,-3.467200041E0,-8.910871506E0,-2.301895380E0
4.064039022E0,-3.479164124E0,-8.913264275E0,-2.266003132E0
4.068794387E0,-3.457628727E0,-8.896514893E0,-2.246860504E0
4.073549699E0,-3.443271875E0,-8.882157326E0,-2.222932339E0
4.078305012E0,-3.440878868E0,-8.851051331E0,-2.182254314E0
4.083060376E0,-3.464807272E0,-8.834300995E0,-2.167897224E0
4.087815689E0,-3.450450182E0,-8.791230202E0,-2.160718918E0
4.092571053E0,-3.467200041E0,-8.772088051E0,-2.143969059E0
4.097326366E0,-3.471985579E0,-8.764909744E0,-2.146361828E0
4.102081678E0,-3.464807272E0,-8.738588333E0,-2.139183521E0
4.106837043E0,-3.481556892E0,-8.729017258E0,-2.139183521E0
4.111592355E0,-3.500699520E0,-8.721838951E0,-2.158325911E0
4.116347668E0,-3.507878065E0,-8.726624489E0,-2.155933142E0
4.121103032E0,-3.510270834E0,-8.774480820E0,-2.158325911E0
4.125858345E0,-3.519842148E0,-8.767302513E0,-2.177468538E0
4.130613657E0,-3.543770313E0,-8.776873589E0,-2.199003935E0
4.135369022E0,-3.541377544E0,-8.798408508E0,-2.201396942E0
4.140124335E0,-3.572484255E0,-8.807980537E0,-2.230110645E0
4.144879647E0,-3.591626883E0,-8.827122688E0,-2.237289190E0
4.149635012E0,-3.605983734E0,-8.846264839E0,-2.256431818E0
4.154390324E0,-3.613162279E0,-8.891729355E0,-2.285145521E0
4.159145637E0,-3.646661758E0,-8.879764557E0,-2.297109842E0
4.163901001E0,-3.627519131E0,-8.934800148E0,-2.316252232E0
4.168656314E0,-3.661018610E0,-8.908478737E0,-2.333002090E0
4.173411626E0,-3.675375462E0,-8.927620888E0,-2.356930256E0
4.178166991E0,-3.689732552E0,-8.934800148E0,-2.368894339E0
4.182922303E0,-3.699303865E0,-8.939585686E0,-2.373680115E0
4.187677616E0,-3.708875179E0,-8.944371223E0,-2.385644197E0
4.192432980E0,-3.694518089E0,-8.949156761E0,-2.368894339E0
4.197188293E0,-3.684946775E0,-8.951549530E0,-2.383251429E0
4.201943605E0,-3.675375462E0,-8.958727837E0,-2.378465652E0
4.206698970E0,-3.684946775E0,-8.951549530E0,-2.373680115E0
4.211454282E0,-3.684946775E0,-8.965906143E0,-2.364108801E0
4.216209595E0,-3.675375462E0,-8.970691681E0,-2.361716032E0
4.220964960E0,-3.665804386E0,-8.977870941E0,-2.344966173E0
4.225720272E0,-3.641875982E0,-8.968298912E0,-2.347358942E0
4.230475585E0,-3.634697676E0,-8.956335068E0,-2.347358942E0
4.235230949E0,-3.639483213E0,-8.965906143E0,-2.347358942E0
4.239986262E0,-3.629911900E0,-8.970691681E0,-2.333002090E0
4.244741626E0,-3.603590965E0,-8.956335068E0,-2.356930256E0
4.249496939E0,-3.577269793E0,-8.937192917E0,-2.376072884E0
4.254252251E0,-3.572484255E0,-8.958727837E0,-2.383251429E0
4.259007616E0,-3.570091486E0,-8.951549530E0,-2.380858421E0
4.263762928E0,-3.553341627E0,-8.920442581E0,-2.388036966E0
4.268518241E0,-3.548556089E0,-8.918049812E0,-2.383251429E0
4.273273605E0,-3.531806231E0,-8.901300430E0,-2.378465652E0
4.278028918E0,-3.538984776E0,-8.884550095E0,-2.376072884E0
4.282784230E0,-3.517449379E0,-8.865407944E0,-2.364108801E0
4.287539595E0,-3.534198999E0,-8.836693764E0,-2.376072884E0
4.292294907E0,-3.531806231E0,-8.827122688E0,-2.390429735E0
4.297050220E0,-3.536591768E0,-8.817551613E0,-2.376072884E0
4.301805532E0,-3.538984776E0,-8.807980537E0,-2.388036966E0
4.306560897E0,-3.550948858E0,-8.786444664E0,-2.373680115E0
4.311316210E0,-3.567698479E0,-8.786444664E0,-2.356930256E0
4.316071574E0,-3.548556089E0,-8.769695282E0,-2.349751949E0
4.320826887E0,-3.550948858E0,-8.757730484E0,-2.352144718E0
4.325582199E0,-3.546163082E0,-8.738588333E0,-2.349751949E0
4.330337564E0,-3.553341627E0,-8.736195564E0,-2.352144718E0
4.335092876E0,-3.589233875E0,-8.717052460E0,-2.359323025E0
4.339848189E0,-3.584448338E0,-8.748159409E0,-2.337787628E0
4.344603553E0,-3.603590965E0,-8.726624489E0,-2.361716032E0
4.349358866E0,-3.608376503E0,-8.743373871E0,-2.352144718E0
4.354114178E0,-3.649054527E0,-8.750552177E0,-2.359323025E0
4.358869543E0,-3.651447296E0,-8.762516975E0,-2.364108801E0
4.363624855E0,-3.661018610E0,-8.774480820E0,-2.364108801E0
4.368380168E0,-3.651447296E0,-8.796015739E0,-2.356930256E0
4.373135480E0,-3.661018610E0,-8.815158844E0,-2.347358942E0
4.377890845E0,-3.651447296E0,-8.812766075E0,-2.371287346E0
4.382646157E0,-3.658625841E0,-8.829515457E0,-2.366501570E0
4.387401522E0,-3.603590965E0,-8.858229637E0,-2.402393818E0
4.392156835E0,-3.605983734E0,-8.853444099E0,-2.395215511E0
4.396912147E0,-3.610769272E0,-8.846264839E0,-2.414358139E0
4.401667460E0,-3.605983734E0,-8.846264839E0,-2.433500528E0
4.406422824E0,-3.615555048E0,-8.853444099E0,-2.428714991E0
4.411178137E0,-3.620340586E0,-8.872586250E0,-2.426322222E0
4.415933449E0,-3.653840065E0,-8.898907661E0,-2.400001049E0
4.420688814E0,-3.646661758E0,-8.922835350E0,-2.397608280E0
4.425444126E0,-3.649054527E0,-8.918049812E0,-2.366501570E0
4.430199439E0,-3.639483213E0,-8.915657043E0,-2.356930256E0
4.434954803E0,-3.625126362E0,-8.927620888E0,-2.335394859E0
4.439710116E0,-3.586841106E0,-8.920442581E0,-2.335394859E0
4.444465428E0,-3.572484255E0,-8.920442581E0,-2.342573404E0
4.449220793E0,-3.560520172E0,-8.920442581E0,-2.359323025E0
4.453976105E0,-3.548556089E0,-8.886942863E0,-2.383251429E0
4.458731418E0,-3.534198999E0,-8.872586250E0,-2.390429735E0
4.463486782E0,-3.522234917E0,-8.860622406E0,-2.368894339E0
4.468242095E0,-3.515056372E0,-8.870193481E0,-2.383251429E0
4.472997407E0,-3.517449379E0,-8.877371788E0,-2.378465652E0
4.477752772E0,-3.524627686E0,-8.865407944E0,-2.380858421E0
4.482508085E0,-3.522234917E0,-8.872586250E0,-2.380858421E0
4.487263397E0,-3.546163082E0,-8.865407944E0,-2.352144718E0
4.492018762E0,-3.565305710E0,-8.863015175E0,-2.349751949E0
4.496774074E0,-3.562912941E0,-8.851051331E0,-2.340180635E0
4.501529387E0,-3.584448338E0,-8.863015175E0,-2.316252232E0
4.506284699E0,-3.596412420E0,-8.853444099E0,-2.294716835E0
4.511040064E0,-3.589233875E0,-8.860622406E0,-2.289931297E0
4.515795376E0,-3.577269793E0,-8.834300995E0,-2.292324066E0
4.520550689E0,-3.572484255E0,-8.800801277E0,-2.294716835E0
4.525306053E0,-3.543770313E0,-8.807980537E0,-2.299502611E0
4.530061366E0,-3.558127165E0,-8.791230202E0,-2.299502611E0
4.534816678E0,-3.577269793E0,-8.800801277E0,-2.304288149E0
4.539572043E0,-3.582055569E0,-8.805587769E0,-2.294716835E0
4.544327355E0,-3.625126362E0,-8.819944382E0,-2.299502611E0
4.549082668E0,-3.639483213E0,-8.810373306E0,-2.301895380E0
4.553838032E0,-3.629911900E0,-8.824729919E0,-2.318645239E0
4.558593345E0,-3.634697676E0,-8.834300995E0,-2.316252232E0
4.563348657E0,-3.658625841E0,-8.851051331E0,-2.328216314E0
4.568103970E0,-3.653840065E0,-8.855836868E0,-2.333002090E0
4.572859335E0,-3.670589924E0,-8.863015175E0,-2.359323025E0
4.577614647E0,-3.653840065E0,-8.882157326E0,-2.376072884E0
4.582369960E0,-3.656233072E0,-8.908478737E0,-2.400001049E0
4.587125324E0,-3.668197155E0,-8.918049812E0,-2.409572363E0
4.591880637E0,-3.677768469E0,-8.937192917E0,-2.445464849E0
4.596635949E0,-3.661018610E0,-8.946763992E0,-2.433500528E0
4.601391314E0,-3.658625841E0,-8.939585686E0,-2.435893536E0
4.606146626E0,-3.646661758E0,-8.951549530E0,-2.443071842E0
4.610901939E0,-3.656233072E0,-8.934800148E0,-2.440679073E0
4.615657303E0,-3.661018610E0,-8.910871506E0,-2.445464849E0
4.620412616E0,-3.632304668E0,-8.915657043E0,-2.447857618E0
4.625167928E0,-3.617947817E0,-8.913264275E0,-2.447857618E0
4.629923241E0,-3.627519131E0,-8.896514893E0,-2.435893536E0
4.634678605E0,-3.591626883E0,-8.870193481E0,-2.445464849E0
4.639433918E0,-3.598805189E0,-8.867800713E0,-2.414358139E0
4.644189230E0,-3.603590965E0,-8.851051331E0,-2.414358139E0
4.648944595E0,-3.582055569E0,-8.858229637E0,-2.373680115E0
4.653699907E0,-3.558127165E0,-8.834300995E0,-2.340180635E0
4.658455220E0,-3.567698479E0,-8.829515457E0,-2.328216314E0
4.663210585E0,-3.550948858E0,-8.815158844E0,-2.325823545E0
4.667965897E0,-3.572484255E0,-8.796015739E0,-2.318645239E0
4.672721210E0,-3.553341627E0,-8.791230202E0,-2.301895380E0
4.677476522E0,-3.567698479E0,-8.769695282E0,-2.321038008E0
4.682231887E0,-3.538984776E0,-8.762516975E0,-2.316252232E0
4.686987199E0,-3.543770313E0,-8.762516975E0,-2.359323025E0
4.691742512E0,-3.555734396E0,-8.762516975E0,-2.371287346E0
4.696497876E0,-3.546163082E0,-8.738588333E0,-2.380858421E0
4.701253189E0,-3.555734396E0,-8.757730484E0,-2.378465652E0
4.706008501E0,-3.548556089E0,-8.757730484E0,-2.385644197E0
4.710763866E0,-3.579662561E0,-8.755337715E0,-2.376072884E0
4.715519178E0,-3.601198196E0,-8.769695282E0,-2.366501570E0
4.720274491E0,-3.598805189E0,-8.750552177E0,-2.359323025E0
4.725029803E0,-3.582055569E0,-8.762516975E0,-2.337787628E0
4.729785168E0,-3.598805189E0,-8.740981102E0,-2.337787628E0
4.734540480E0,-3.589233875E0,-8.738588333E0,-2.321038008E0
4.739295793E0,-3.574877024E0,-8.745766640E0,-2.301895380E0
4.744051157E0,-3.601198196E0,-8.729017258E0,-2.313859463E0
4.748806470E0,-3.603590965E0,-8.726624489E0,-2.306680918E0
4.753561782E0,-3.601198196E0,-8.757730484E0,-2.285145521E0
4.758317095E0,-3.603590965E0,-8.788837433E0,-2.299502611E0
4.763072460E0,-3.608376503E0,-8.796015739E0,-2.294716835E0
4.767827772E0,-3.632304668E0,-8.803194046E0,-2.285145521E0
4.772583085E0,-3.634697676E0,-8.824729919E0,-2.306680918E0
4.777338449E0,-3.672982693E0,-8.863015175E0,-2.318645239E0
4.782093762E0,-3.694518089E0,-8.896514893E0,-2.328216314E0
4.786849074E0,-3.689732552E0,-8.903693199E0,-2.347358942E0
4.791604387E0,-3.639483213E0,-8.915657043E0,-2.368894339E0
4.796359751E0,-3.637090445E0,-8.898907661E0,-2.407179594E0
4.801115064E0,-3.663411379E0,-8.927620888E0,-2.433500528E0
4.805870376E0,-3.682554007E0,-8.925228119E0,-2.431107759E0
4.810625741E0,-3.692125320E0,-8.934800148E0,-2.450250387E0
4.815381053E0,-3.696911097E0,-8.958727837E0,-2.431107759E0
4.820136366E0,-3.699303865E0,-8.975478172E0,-2.431107759E0
4.824891678E0,-3.692125320E0,-8.963513374E0,-2.416750908E0
4.829647043E0,-3.672982693E0,-8.958727837E0,-2.409572363E0
4.834402355E0,-3.672982693E0,-8.973084450E0,-2.402393818E0
4.839157668E0,-3.677768469E0,-8.958727837E0,-2.397608280E0
4.843913032E0,-3.656233072E0,-8.939585686E0,-2.395215511E0
4.848668345E0,-3.649054527E0,-8.953942299E0,-2.385644197E0
4.853423657E0,-3.637090445E0,-8.944371223E0,-2.373680115E0
4.858178970E0,-3.641875982E0,-8.934800148E0,-2.373680115E0
4.862934335E0,-3.646661758E0,-8.944371223E0,-2.359323025E0
4.867689647E0,-3.644268990E0,-8.930013657E0,-2.347358942E0
4.872444960E0,-3.644268990E0,-8.915657043E0,-2.347358942E0
4.877200272E0,-3.622733593E0,-8.906085968E0,-2.347358942E0
4.881955637E0,-3.632304668E0,-8.913264275E0,-2.309073925E0
4.886710949E0,-3.639483213E0,-8.918049812E0,-2.309073925E0
4.891466262E0,-3.651447296E0,-8.925228119E0,-2.301895380E0
4.896221626E0,-3.658625841E0,-8.886942863E0,-2.301895380E0
4.900976939E0,-3.644268990E0,-8.879764557E0,-2.282752752E0
4.905732251E0,-3.622733593E0,-8.879764557E0,-2.287538528E0
4.910487564E0,-3.605983734E0,-8.819944382E0,-2.294716835E0
4.915242928E0,-3.598805189E0,-8.798408508E0,-2.294716835E0
4.919998241E0,-3.605983734E0,-8.781659126E0,-2.299502611E0
4.924753553E0,-3.586841106E0,-8.760123253E0,-2.294716835E0
4.929508866E0,-3.594019651E0,-8.740981102E0,-2.304288149E0
4.934264230E0,-3.605983734E0,-8.736195564E0,-2.306680918E0
4.939019543E0,-3.572484255E0,-8.736195564E0,-2.294716835E0
4.943774855E0,-3.598805189E0,-8.712266922E0,-2.289931297E0
4.948530220E0,-3.598805189E0,-8.755337715E0,-2.263610125E0
4.953285532E0,-3.605983734E0,-8.750552177E0,-2.287538528E0
4.958040845E0,-3.605983734E0,-8.743373871E0,-2.273181438E0
4.962796157E0,-3.598805189E0,-8.762516975E0,-2.249253273E0
4.967551522E0,-3.613162279E0,-8.774480820E0,-2.277967215E0
4.972306835E0,-3.591626883E0,-8.784051895E0,-2.294716835E0
4.977062147E0,-3.589233875E0,-8.805587769E0,-2.292324066E0
4.981817460E0,-3.608376503E0,-8.800801277E0,-2.304288149E0
4.986572824E0,-3.589233875E0,-8.829515457E0,-2.330609322E0
4.991328137E0,-3.613162279E0,-8.867800713E0,-2.359323025E0
4.996083449E0,-3.608376503E0,-8.860622406E0,-2.383251429E0
5.000838762E0,-3.613162279E0,-8.870193481E0,-2.414358139E0
5.005594126E0,-3.598805189E0,-8.891729355E0,-2.438286304E0
5.010349439E0,-3.589233875E0,-8.886942863E0,-2.452643156E0
5.015104751E0,-3.598805189E0,-8.930013657E0,-2.464607239E0
5.019860064E0,-3.613162279E0,-8.937192917E0,-2.467000246E0
5.024615428E0,-3.610769272E0,-8.953942299E0,-2.474178553E0
5.029370741E0,-3.613162279E0,-8.956335068E0,-2.481357098E0
5.034126053E0,-3.605983734E0,-8.949156761E0,-2.474178553E0
5.038881418E0,-3.598805189E0,-8.961120605E0,-2.464607239E0
5.043636730E0,-3.572484255E0,-8.953942299E0,-2.452643156E0
5.048392043E0,-3.562912941E0,-8.965906143E0,-2.443071842E0
5.053147355E0,-3.567698479E0,-8.910871506E0,-2.450250387E0
5.057902720E0,-3.586841106E0,-8.918049812E0,-2.416750908E0
5.062658032E0,-3.550948858E0,-8.894122124E0,-2.407179594E0
5.067413345E0,-3.567698479E0,-8.896514893E0,-2.376072884E0
5.072168657E0,-3.605983734E0,-8.906085968E0,-2.371287346E0
5.076924022E0,-3.589233875E0,-8.867800713E0,-2.340180635E0
5.081679335E0,-3.615555048E0,-8.839086533E0,-2.330609322E0
5.086434647E0,-3.613162279E0,-8.848658562E0,-2.330609322E0
5.091189960E0,-3.632304668E0,-8.834300995E0,-2.330609322E0
5.095945324E0,-3.615555048E0,-8.831908226E0,-2.330609322E0
5.100700637E0,-3.634697676E0,-8.817551613E0,-2.304288149E0
5.105455949E0,-3.615555048E0,-8.812766075E0,-2.306680918E0
5.110211262E0,-3.625126362E0,-8.760123253E0,-2.287538528E0
5.114966626E0,-3.637090445E0,-8.767302513E0,-2.289931297E0
5.119721939E0,-3.627519131E0,-8.784051895E0,-2.292324066E0
5.124477251E0,-3.615555048E0,-8.764909744E0,-2.287538528E0
5.129232564E0,-3.596412420E0,-8.764909744E0,-2.273181438E0
5.133987876E0,-3.627519131E0,-8.760123253E0,-2.275574446E0
5.138743241E0,-3.613162279E0,-8.748159409E0,-2.292324066E0
5.143498553E0,-3.617947817E0,-8.767302513E0,-2.294716835E0
5.148253866E0,-3.617947817E0,-8.786444664E0,-2.275574446E0
5.153009178E0,-3.620340586E0,-8.791230202E0,-2.268395901E0
5.157764543E0,-3.610769272E0,-8.805587769E0,-2.287538528E0
5.162519855E0,-3.625126362E0,-8.810373306E0,-2.277967215E0
5.167275168E0,-3.613162279E0,-8.829515457E0,-2.268395901E0
5.172030480E0,-3.617947817E0,-8.829515457E0,-2.261217356E0
5.176785845E0,-3.622733593E0,-8.853444099E0,-2.251646042E0
5.181541157E0,-3.610769272E0,-8.860622406E0,-2.270788670E0
5.186296470E0,-3.598805189E0,-8.894122124E0,-2.280359983E0
5.191051782E0,-3.613162279E0,-8.903693199E0,-2.318645239E0
5.195807147E0,-3.617947817E0,-8.906085968E0,-2.328216314E0
5.200562460E0,-3.625126362E0,-8.937192917E0,-2.328216314E0
5.205317772E0,-3.646661758E0,-8.965906143E0,-2.340180635E0
5.210073085E0,-3.653840065E0,-8.977870941E0,-2.361716032E0
5.214828449E0,-3.661018610E0,-9.008976936E0,-2.380858421E0
5.219583762E0,-3.641875982E0,-9.020941734E0,-2.368894339E0
5.224339074E0,-3.639483213E0,-9.028120041E0,-2.368894339E0
5.229094387E0,-3.656233072E0,-9.042476654E0,-2.388036966E0
5.233849699E0,-3.672982693E0,-9.049654961E0,-2.402393818E0
5.238605064E0,-3.649054527E0,-9.059226990E0,-2.392822742E0
5.243360376E0,-3.622733593E0,-9.030512810E0,-2.400001049E0
5.248115689E0,-3.615555048E0,-9.030512810E0,-2.404786825E0
5.252871053E0,-3.598805189E0,-9.001798630E0,-2.395215511E0
5.257626366E0,-3.579662561E0,-9.018548965E0,-2.397608280E0
5.262381678E0,-3.603590965E0,-8.994620323E0,-2.371287346E0
5.267136991E0,-3.594019651E0,-8.980263710E0,-2.378465652E0
5.271892303E0,-3.589233875E0,-8.970691681E0,-2.366501570E0
5.276647668E0,-3.570091486E0,-8.965906143E0,-2.356930256E0
5.281402980E0,-3.555734396E0,-8.927620888E0,-2.340180635E0
5.286158293E0,-3.560520172E0,-8.903693199E0,-2.337787628E0
5.290913605E0,-3.546163082E0,-8.882157326E0,-2.333002090E0
5.295668970E0,-3.560520172E0,-8.872586250E0,-2.304288149E0
5.300424282E0,-3.546163082E0,-8.846264839E0,-2.297109842E0
5.305179595E0,-3.579662561E0,-8.817551613E0,-2.282752752E0
5.309934907E0,-3.548556089E0,-8.824729919E0,-2.275574446E0
5.314690220E0,-3.546163082E0,-8.800801277E0,-2.242074728E0
5.319445585E0,-3.536591768E0,-8.791230202E0,-2.242074728E0
5.324200897E0,-3.519842148E0,-8.781659126E0,-2.237289190E0
5.328956210E0,-3.524627686E0,-8.803194046E0,-2.242074728E0
5.333711522E0,-3.536591768E0,-8.810373306E0,-2.218146563E0
5.338466887E0,-3.538984776E0,-8.798408508E0,-2.242074728E0
5.343222199E0,-3.538984776E0,-8.803194046E0,-2.220539331E0
5.347977512E0,-3.546163082E0,-8.800801277E0,-2.225325108E0
5.352732824E0,-3.565305710E0,-8.796015739E0,-2.258824587E0
5.357488137E0,-3.553341627E0,-8.798408508E0,-2.251646042E0
5.362243501E0,-3.562912941E0,-8.796015739E0,-2.280359983E0
5.366998814E0,-3.574877024E0,-8.767302513E0,-2.297109842E0
5.371754126E0,-3.567698479E0,-8.769695282E0,-2.313859463E0
5.376509439E0,-3.577269793E0,-8.767302513E0,-2.311466694E0
5.381264803E0,-3.582055569E0,-8.772088051E0,-2.328216314E0
5.386020116E0,-3.603590965E0,-8.762516975E0,-2.325823545E0
5.390775428E0,-3.603590965E0,-8.772088051E0,-2.323430777E0
5.395530741E0,-3.601198196E0,-8.784051895E0,-2.328216314E0
5.400286053E0,-3.617947817E0,-8.779266357E0,-2.309073925E0
5.405041418E0,-3.615555048E0,-8.791230202E0,-2.294716835E0
5.409796730E0,-3.603590965E0,-8.776873589E0,-2.294716835E0
5.414552043E0,-3.608376503E0,-8.779266357E0,-2.321038008E0
5.419307355E0,-3.608376503E0,-8.769695282E0,-2.311466694E0
5.424062668E0,-3.608376503E0,-8.786444664E0,-2.313859463E0
5.428818032E0,-3.639483213E0,-8.815158844E0,-2.337787628E0
5.433573345E0,-3.634697676E0,-8.848658562E0,-2.340180635E0
5.438328657E0,-3.651447296E0,-8.860622406E0,-2.366501570E0
5.443083970E0,-3.644268990E0,-8.870193481E0,-2.349751949E0
5.447839282E0,-3.644268990E0,-8.886942863E0,-2.354537487E0
5.452594647E0,-3.610769272E0,-8.894122124E0,-2.344966173E0
5.457349960E0,-3.613162279E0,-8.896514893E0,-2.356930256E0
5.462105272E0,-3.608376503E0,-8.882157326E0,-2.364108801E0
5.466860585E0,-3.589233875E0,-8.874979019E0,-2.380858421E0
5.471615897E0,-3.553341627E0,-8.863015175E0,-2.352144718E0
5.476371262E0,-3.546163082E0,-8.870193481E0,-2.352144718E0
5.481126574E0,-3.522234917E0,-8.863015175E0,-2.373680115E0
5.485881887E0,-3.498306751E0,-8.874979019E0,-2.383251429E0
5.490637199E0,-3.505485058E0,-8.870193481E0,-2.383251429E0
5.495392512E0,-3.500699520E0,-8.882157326E0,-2.388036966E0
5.500147876E0,-3.462414265E0,-8.867800713E0,-2.385644197E0
5.504903189E0,-3.483949661E0,-8.872586250E0,-2.371287346E0
5.509658501E0,-3.491128206E0,-8.877371788E0,-2.340180635E0
5.514413814E0,-3.500699520E0,-8.872586250E0,-2.316252232E0
5.519169126E0,-3.515056372E0,-8.853444099E0,-2.289931297E0
5.523924491E0,-3.531806231E0,-8.853444099E0,-2.270788670E0
5.528679803E0,-3.538984776E0,-8.839086533E0,-2.251646042E0
5.533435116E0,-3.534198999E0,-8.841479301E0,-2.254039049E0
5.538190428E0,-3.538984776E0,-8.819944382E0,-2.254039049E0
5.542945741E0,-3.577269793E0,-8.831908226E0,-2.261217356E0
5.547701105E0,-3.582055569E0,-8.817551613E0,-2.261217356E0
5.552456418E0,-3.577269793E0,-8.834300995E0,-2.263610125E0
5.557211730E0,-3.634697676E0,-8.851051331E0,-2.294716835E0
5.561967043E0,-3.629911900E0,-8.848658562E0,-2.306680918E0
5.566722355E0,-3.646661758E0,-8.853444099E0,-2.292324066E0
5.571477720E0,-3.665804386E0,-8.855836868E0,-2.309073925E0
5.576233032E0,-3.675375462E0,-8.889336586E0,-2.311466694E0
5.580988345E0,-3.680161238E0,-8.872586250E0,-2.340180635E0
5.585743657E0,-3.711267948E0,-8.889336586E0,-2.340180635E0
5.590498970E0,-3.725624800E0,-8.915657043E0,-2.352144718E0
5.595254335E0,-3.725624800E0,-8.920442581E0,-2.352144718E0
5.600009647E0,-3.739981890E0,-8.910871506E0,-2.359323025E0
5.604764960E0,-3.759124279E0,-8.908478737E0,-2.361716032E0
5.609520272E0,-3.775874138E0,-8.922835350E0,-2.388036966E0
5.614275585E0,-3.780659676E0,-8.925228119E0,-2.407179594E0
5.619030897E0,-3.785445452E0,-8.932407379E0,-2.395215511E0
5.623786262E0,-3.775874138E0,-8.930013657E0,-2.395215511E0
5.628541574E0,-3.763910055E0,-8.944371223E0,-2.402393818E0
5.633296887E0,-3.761517286E0,-8.953942299E0,-2.373680115E0
5.638052199E0,-3.730410576E0,-8.949156761E0,-2.385644197E0
5.642807512E0,-3.728017569E0,-8.944371223E0,-2.397608280E0
5.647562876E0,-3.725624800E0,-8.953942299E0,-2.390429735E0
5.652318189E0,-3.682554007E0,-8.953942299E0,-2.383251429E0
5.657073501E0,-3.653840065E0,-8.951549530E0,-2.378465652E0
5.661828814E0,-3.617947817E0,-8.946763992E0,-2.385644197E0
5.666584126E0,-3.629911900E0,-8.925228119E0,-2.378465652E0
5.671339439E0,-3.589233875E0,-8.910871506E0,-2.361716032E0
5.676094803E0,-3.560520172E0,-8.910871506E0,-2.359323025E0
5.680850116E0,-3.541377544E0,-8.872586250E0,-2.328216314E0
5.685605428E0,-3.548556089E0,-8.896514893E0,-2.306680918E0
5.690360741E0,-3.527020693E0,-8.867800713E0,-2.292324066E0
5.695116053E0,-3.517449379E0,-8.867800713E0,-2.282752752E0
5.699871418E0,-3.510270834E0,-8.848658562E0,-2.270788670E0
5.704626730E0,-3.500699520E0,-8.841479301E0,-2.249253273E0
5.709382043E0,-3.519842148E0,-8.843872070E0,-2.230110645E0
5.714137355E0,-3.495913982E0,-8.834300995E0,-2.227717876E0
5.718892668E0,-3.498306751E0,-8.810373306E0,-2.203789711E0
5.723647980E0,-3.486342669E0,-8.791230202E0,-2.194218397E0
5.728403345E0,-3.498306751E0,-8.800801277E0,-2.210968018E0
5.733158657E0,-3.483949661E0,-8.760123253E0,-2.208575249E0
5.737913970E0,-3.505485058E0,-8.767302513E0,-2.227717876E0
5.742669282E0,-3.529413462E0,-8.752944946E0,-2.237289190E0
5.747424595E0,-3.527020693E0,-8.738588333E0,-2.254039049E0
5.752179907E0,-3.541377544E0,-8.733802795E0,-2.261217356E0
5.756935272E0,-3.562912941E0,-8.721838951E0,-2.275574446E0
5.761690585E0,-3.572484255E0,-8.719446182E0,-2.275574446E0
5.766445897E0,-3.574877024E0,-8.726624489E0,-2.297109842E0
5.771201210E0,-3.598805189E0,-8.740981102E0,-2.306680918E0
5.775956522E0,-3.603590965E0,-8.714659691E0,-2.323430777E0
5.780711835E0,-3.613162279E0,-8.738588333E0,-2.301895380E0
5.785467199E0,-3.598805189E0,-8.755337715E0,-2.323430777E0
5.790222512E0,-3.641875982E0,-8.762516975E0,-2.328216314E0
5.794977824E0,-3.629911900E0,-8.772088051E0,-2.316252232E0
5.799733137E0,-3.625126362E0,-8.776873589E0,-2.349751949E0
5.804488449E0,-3.632304668E0,-8.788837433E0,-2.337787628E0
5.809243762E0,-3.637090445E0,-8.819944382E0,-2.354537487E0
5.813999126E0,-3.641875982E0,-8.831908226E0,-2.352144718E0
5.818754439E0,-3.672982693E0,-8.865407944E0,-2.349751949E0
5.823509751E0,-3.656233072E0,-8.879764557E0,-2.373680115E0
5.828265064E0,-3.680161238E0,-8.896514893E0,-2.378465652E0
5.833020376E0,-3.672982693E0,-8.920442581E0,-2.373680115E0
5.837775689E0,-3.661018610E0,-8.937192917E0,-2.378465652E0
5.842531001E0,-3.651447296E0,-8.946763992E0,-2.400001049E0
5.847286366E0,-3.661018610E0,-8.949156761E0,-2.421536446E0
5.852041678E0,-3.644268990E0,-8.951549530E0,-2.411965132E0
5.856796991E0,-3.651447296E0,-8.963513374E0,-2.435893536E0
5.861552303E0,-3.668197155E0,-8.968298912E0,-2.450250387E0
5.866307616E0,-3.658625841E0,-8.975478172E0,-2.457428932E0
5.871062928E0,-3.675375462E0,-8.965906143E0,-2.443071842E0
5.875818241E0,-3.687339783E0,-8.989834785E0,-2.457428932E0
5.880573605E0,-3.684946775E0,-8.970691681E0,-2.419143677E0
5.885328918E0,-3.658625841E0,-8.963513374E0,-2.435893536E0
5.890084230E0,-3.622733593E0,-8.949156761E0,-2.440679073E0
5.894839543E0,-3.613162279E0,-8.910871506E0,-2.414358139E0
5.899594855E0,-3.629911900E0,-8.903693199E0,-2.404786825E0
5.904350168E0,-3.634697676E0,-8.867800713E0,-2.366501570E0
5.909105532E0,-3.615555048E0,-8.874979019E0,-2.354537487E0
5.913860845E0,-3.620340586E0,-8.863015175E0,-2.337787628E0
5.918616157E0,-3.613162279E0,-8.834300995E0,-2.321038008E0
5.923371470E0,-3.591626883E0,-8.831908226E0,-2.282752752E0
5.928126782E0,-3.591626883E0,-8.807980537E0,-2.273181438E0
5.932882095E0,-3.589233875E0,-8.822337151E0,-2.251646042E0
5.937637407E0,-3.591626883E0,-8.793622971E0,-2.246860504E0
5.942392772E0,-3.601198196E0,-8.786444664E0,-2.234896421E0
5.947148085E0,-3.608376503E0,-8.779266357E0,-2.230110645E0
5.951903397E0,-3.572484255E0,-8.769695282E0,-2.225325108E0
5.956658710E0,-3.579662561E0,-8.762516975E0,-2.242074728E0
5.961414022E0,-3.577269793E0,-8.764909744E0,-2.254039049E0
5.966169335E0,-3.582055569E0,-8.748159409E0,-2.270788670E0
5.970924647E0,-3.574877024E0,-8.760123253E0,-2.266003132E0
5.975680012E0,-3.558127165E0,-8.769695282E0,-2.263610125E0
5.980435324E0,-3.558127165E0,-8.772088051E0,-2.282752752E0
5.985190637E0,-3.558127165E0,-8.786444664E0,-2.292324066E0
5.989945949E0,-3.562912941E0,-8.798408508E0,-2.304288149E0
5.994701262E0,-3.577269793E0,-8.815158844E0,-2.287538528E0
5.999456574E0,-3.591626883E0,-8.843872070E0,-2.304288149E0
6.004211887E0,-3.565305710E0,-8.829515457E0,-2.333002090E0
6.008967199E0,-3.577269793E0,-8.874979019E0,-2.309073925E0
6.013722564E0,-3.594019651E0,-8.870193481E0,-2.328216314E0
6.018477876E0,-3.598805189E0,-8.874979019E0,-2.337787628E0
6.023233189E0,-3.601198196E0,-8.896514893E0,-2.325823545E0
6.027988501E0,-3.615555048E0,-8.906085968E0,-2.342573404E0
6.032743814E0,-3.610769272E0,-8.932407379E0,-2.347358942E0
6.037499126E0,-3.617947817E0,-8.939585686E0,-2.342573404E0
6.042254439E0,-3.632304668E0,-8.951549530E0,-2.354537487E0
6.047009751E0,-3.658625841E0,-8.963513374E0,-2.352144718E0
6.051765116E0,-3.682554007E0,-8.987442017E0,-2.344966173E0
6.056520428E0,-3.644268990E0,-9.006584167E0,-2.356930256E0
6.061275741E0,-3.603590965E0,-9.004191399E0,-2.359323025E0
6.066031053E0,-3.610769272E0,-9.016156197E0,-2.366501570E0
6.070786366E0,-3.598805189E0,-9.001798630E0,-2.378465652E0
6.075541678E0,-3.605983734E0,-8.999405861E0,-2.378465652E0
6.080296991E0,-3.589233875E0,-8.997013092E0,-2.376072884E0
6.085052303E0,-3.579662561E0,-8.975478172E0,-2.371287346E0
6.089807668E0,-3.567698479E0,-8.944371223E0,-2.368894339E0
6.094562980E0,-3.572484255E0,-8.922835350E0,-2.352144718E0
6.099318293E0,-3.548556089E0,-8.886942863E0,-2.347358942E0
6.104073605E0,-3.534198999E0,-8.872586250E0,-2.333002090E0
6.108828918E0,-3.529413462E0,-8.855836868E0,-2.306680918E0
6.113584230E0,-3.527020693E0,-8.841479301E0,-2.309073925E0
6.118339543E0,-3.512663603E0,-8.843872070E0,-2.266003132E0
6.123094907E0,-3.524627686E0,-8.815158844E0,-2.268395901E0
6.127850220E0,-3.555734396E0,-8.803194046E0,-2.242074728E0
6.132605532E0,-3.531806231E0,-8.793622971E0,-2.237289190E0
6.137360845E0,-3.531806231E0,-8.793622971E0,-2.239681959E0
6.142116157E0,-3.548556089E0,-8.786444664E0,-2.215753794E0
6.146871470E0,-3.558127165E0,-8.788837433E0,-2.208575249E0
6.151626782E0,-3.586841106E0,-8.788837433E0,-2.218146563E0
6.156382095E0,-3.582055569E0,-8.815158844E0,-2.234896421E0
6.161137407E0,-3.562912941E0,-8.769695282E0,-2.254039049E0
6.165892772E0,-3.572484255E0,-8.762516975E0,-2.268395901E0
6.170648085E0,-3.565305710E0,-8.776873589E0,-2.285145521E0
6.175403397E0,-3.577269793E0,-8.752944946E0,-2.294716835E0
6.180158710E0,-3.558127165E0,-8.748159409E0,-2.304288149E0
6.184914022E0,-3.570091486E0,-8.738588333E0,-2.330609322E0
6.189669335E0,-3.577269793E0,-8.748159409E0,-2.328216314E0
6.194424647E0,-3.577269793E0,-8.762516975E0,-2.328216314E0
6.199179960E0,-3.589233875E0,-8.781659126E0,-2.325823545E0
6.203935272E0,-3.591626883E0,-8.810373306E0,-2.313859463E0
6.208690585E0,-3.582055569E0,-8.819944382E0,-2.306680918E0
6.213445949E0,-3.565305710E0,-8.824729919E0,-2.311466694E0
6.218201262E0,-3.562912941E0,-8.867800713E0,-2.301895380E0
6.222956574E0,-3.577269793E0,-8.915657043E0,-2.270788670E0
6.227711887E0,-3.598805189E0,-8.934800148E0,-2.282752752E0
6.232467199E0,-3.596412420E0,-8.963513374E0,-2.287538528E0
6.237222512E0,-3.603590965E0,-8.982656479E0,-2.297109842E0
6.241977824E0,-3.589233875E0,-9.001798630E0,-2.323430777E0
6.246733137E0,-3.574877024E0,-9.020941734E0,-2.347358942E0
6.251488449E0,-3.574877024E0,-9.023334503E0,-2.354537487E0
6.256243814E0,-3.582055569E0,-9.028120041E0,-2.373680115E0
6.260999126E0,-3.591626883E0,-9.052047729E0,-2.395215511E0
6.265754439E0,-3.586841106E0,-9.059226990E0,-2.404786825E0
6.270509751E0,-3.579662561E0,-9.025727272E0,-2.416750908E0
6.275265064E0,-3.596412420E0,-9.056833267E0,-2.435893536E0
6.280020376E0,-3.603590965E0,-9.042476654E0,-2.450250387E0
6.284775689E0,-3.589233875E0,-9.032905579E0,-2.421536446E0
6.289531001E0,-3.627519131E0,-9.032905579E0,-2.407179594E0
6.294286314E0,-3.637090445E0,-9.066405296E0,-2.359323025E0
6.299041626E0,-3.572484255E0,-9.059226990E0,-2.349751949E0
6.303796939E0,-3.512663603E0,-9.004191399E0,-2.321038008E0
6.308552303E0,-3.543770313E0,-8.997013092E0,-2.306680918E0
6.313307616E0,-3.558127165E0,-8.970691681E0,-2.277967215E0
6.318062928E0,-3.548556089E0,-8.961120605E0,-2.261217356E0
6.322818241E0,-3.565305710E0,-8.934800148E0,-2.246860504E0
6.327573553E0,-3.541377544E0,-8.920442581E0,-2.227717876E0
6.332328866E0,-3.560520172E0,-8.903693199E0,-2.208575249E0
6.337084178E0,-3.555734396E0,-8.872586250E0,-2.196611166E0
6.341839491E0,-3.531806231E0,-8.841479301E0,-2.199003935E0
6.346594803E0,-3.538984776E0,-8.819944382E0,-2.187039852E0
6.351350116E0,-3.531806231E0,-8.822337151E0,-2.167897224E0
6.356105480E0,-3.529413462E0,-8.831908226E0,-2.165504456E0
6.360860793E0,-3.529413462E0,-8.822337151E0,-2.167897224E0
6.365616105E0,-3.529413462E0,-8.829515457E0,-2.189432621E0
6.370371418E0,-3.534198999E0,-8.793622971E0,-2.177468538E0
6.375126730E0,-3.541377544E0,-8.786444664E0,-2.184647083E0
6.379882043E0,-3.538984776E0,-8.781659126E0,-2.203789711E0
6.384637355E0,-3.522234917E0,-8.774480820E0,-2.194218397E0
6.389392668E0,-3.536591768E0,-8.776873589E0,-2.199003935E0
6.394147980E0,-3.527020693E0,-8.793622971E0,-2.196611166E0
6.398903293E0,-3.536591768E0,-8.788837433E0,-2.191825628E0
6.403658605E0,-3.538984776E0,-8.812766075E0,-2.194218397E0
6.408413918E0,-3.562912941E0,-8.819944382E0,-2.191825628E0
6.413169230E0,-3.548556089E0,-8.817551613E0,-2.189432621E0
6.417924595E0,-3.553341627E0,-8.831908226E0,-2.187039852E0
6.422679907E0,-3.560520172E0,-8.860622406E0,-2.191825628E0
6.427435220E0,-3.567698479E0,-8.860622406E0,-2.196611166E0
6.432190532E0,-3.558127165E0,-8.865407944E0,-2.227717876E0
6.436945845E0,-3.560520172E0,-8.872586250E0,-2.227717876E0
6.441701157E0,-3.574877024E0,-8.891729355E0,-2.251646042E0
6.446456470E0,-3.570091486E0,-8.908478737E0,-2.246860504E0
6.451211782E0,-3.562912941E0,-8.927620888E0,-2.268395901E0
6.455967095E0,-3.594019651E0,-8.932407379E0,-2.258824587E0
6.460722407E0,-3.577269793E0,-8.949156761E0,-2.275574446E0
6.465477720E0,-3.565305710E0,-8.958727837E0,-2.306680918E0
6.470233032E0,-3.572484255E0,-8.987442017E0,-2.311466694E0
6.474988345E0,-3.586841106E0,-9.006584167E0,-2.299502611E0
6.479743710E0,-3.562912941E0,-9.020941734E0,-2.335394859E0
6.484499022E0,-3.572484255E0,-9.056833267E0,-2.347358942E0
6.489254335E0,-3.560520172E0,-9.078369141E0,-2.344966173E0
6.494009647E0,-3.570091486E0,-9.104690552E0,-2.347358942E0
6.498764960E0,-3.579662561E0,-9.083154678E0,-2.337787628E0
6.503520272E0,-3.567698479E0,-9.080761909E0,-2.318645239E0
6.508275585E0,-3.555734396E0,-9.066405296E0,-2.316252232E0
6.513030897E0,-3.550948858E0,-9.054440498E0,-2.316252232E0
6.517786210E0,-3.550948858E0,-9.054440498E0,-2.325823545E0
6.522541522E0,-3.548556089E0,-9.008976936E0,-2.294716835E0
6.527296835E0,-3.527020693E0,-8.985049248E0,-2.301895380E0
6.532052147E0,-3.531806231E0,-8.965906143E0,-2.270788670E0
6.536807460E0,-3.519842148E0,-8.925228119E0,-2.266003132E0
6.541562772E0,-3.550948858E0,-8.922835350E0,-2.254039049E0
6.546318137E0,-3.536591768E0,-8.906085968E0,-2.222932339E0
6.551073449E0,-3.541377544E0,-8.879764557E0,-2.196611166E0
6.555828762E0,-3.543770313E0,-8.874979019E0,-2.184647083E0
6.560584074E0,-3.546163082E0,-8.846264839E0,-2.163111687E0
6.565339387E0,-3.553341627E0,-8.841479301E0,-2.139183521E0
6.570094699E0,-3.534198999E0,-8.831908226E0,-2.136790514E0
6.574850012E0,-3.538984776E0,-8.817551613E0,-2.124826431E0
6.579605324E0,-3.510270834E0,-8.819944382E0,-2.141576290E0
6.584360637E0,-3.512663603E0,-8.791230202E0,-2.139183521E0
6.589115949E0,-3.515056372E0,-8.786444664E0,-2.136790514E0
6.593871262E0,-3.536591768E0,-8.774480820E0,-2.134397745E0
6.598626574E0,-3.553341627E0,-8.779266357E0,-2.139183521E0
6.603381887E0,-3.553341627E0,-8.791230202E0,-2.136790514E0
6.608137199E0,-3.553341627E0,-8.786444664E0,-2.153540373E0
6.612892512E0,-3.558127165E0,-8.776873589E0,-2.146361828E0
6.617647824E0,-3.574877024E0,-8.815158844E0,-2.153540373E0
6.622403189E0,-3.560520172E0,-8.819944382E0,-2.163111687E0
6.627158501E0,-3.565305710E0,-8.819944382E0,-2.148754835E0
6.631913814E0,-3.567698479E0,-8.836693764E0,-2.175075769E0
6.636669126E0,-3.570091486E0,-8.870193481E0,-2.179861546E0
6.641424439E0,-3.574877024E0,-8.896514893E0,-2.194218397E0
6.646179751E0,-3.558127165E0,-8.896514893E0,-2.201396942E0
6.650935064E0,-3.565305710E0,-8.939585686E0,-2.215753794E0
6.655690376E0,-3.562912941E0,-8.930013657E0,-2.220539331E0
6.660445689E0,-3.577269793E0,-8.944371223E0,-2.230110645E0
6.665201001E0,-3.572484255E0,-8.970691681E0,-2.246860504E0
6.669956314E0,-3.572484255E0,-8.989834785E0,-2.244467735E0
6.674711626E0,-3.558127165E0,-9.013762474E0,-2.251646042E0
6.679466939E0,-3.558127165E0,-9.037691116E0,-2.261217356E0
6.684222251E0,-3.560520172E0,-9.047262192E0,-2.268395901E0
6.688977564E0,-3.550948858E0,-9.061619759E0,-2.266003132E0
6.693732876E0,-3.548556089E0,-9.090332985E0,-2.275574446E0
6.698488241E0,-3.529413462E0,-9.083154678E0,-2.294716835E0
6.703243553E0,-3.522234917E0,-9.109476089E0,-2.285145521E0
6.707998814E0,-3.548556089E0,-9.114261627E0,-2.292324066E0
6.712754178E0,-3.517449379E0,-9.087940216E0,-2.282752752E0
6.717509491E0,-3.510270834E0,-9.073583603E0,-2.266003132E0
6.722264803E0,-3.519842148E0,-9.059226990E0,-2.270788670E0
6.727020116E0,-3.536591768E0,-9.054440498E0,-2.268395901E0
6.731775428E0,-3.536591768E0,-9.028120041E0,-2.249253273E0
6.736530741E0,-3.541377544E0,-9.016156197E0,-2.230110645E0
6.741286053E0,-3.553341627E0,-8.997013092E0,-2.222932339E0
6.746041366E0,-3.517449379E0,-8.977870941E0,-2.220539331E0
6.750796678E0,-3.529413462E0,-8.937192917E0,-2.215753794E0
6.755551991E0,-3.491128206E0,-8.896514893E0,-2.199003935E0
6.760307303E0,-3.462414265E0,-8.846264839E0,-2.199003935E0
6.765062616E0,-3.462414265E0,-8.834300995E0,-2.175075769E0
6.769817928E0,-3.448057413E0,-8.819944382E0,-2.177468538E0
6.774573241E0,-3.445664644E0,-8.798408508E0,-2.151147604E0
6.779328553E0,-3.448057413E0,-8.779266357E0,-2.148754835E0
6.784083866E0,-3.460021496E0,-8.800801277E0,-2.167897224E0
6.788839178E0,-3.464807272E0,-8.827122688E0,-2.115255117E0
6.793594491E0,-3.467200041E0,-8.851051331E0,-2.105684042E0
6.798349803E0,-3.474378586E0,-8.841479301E0,-2.096112728E0
6.803105116E0,-3.471985579E0,-8.851051331E0,-2.074577332E0
6.807860428E0,-3.474378586E0,-8.817551613E0,-2.076970100E0
6.812615741E0,-3.474378586E0,-8.831908226E0,-2.069791555E0
6.817371105E0,-3.471985579E0,-8.824729919E0,-2.079362869E0
6.822126418E0,-3.479164124E0,-8.805587769E0,-2.091326952E0
6.826881730E0,-3.471985579E0,-8.807980537E0,-2.105684042E0
6.831637043E0,-3.498306751E0,-8.800801277E0,-2.141576290E0
6.836392355E0,-3.503092289E0,-8.803194046E0,-2.160718918E0
6.841147668E0,-3.531806231E0,-8.839086533E0,-2.170290232E0
6.845902980E0,-3.550948858E0,-8.860622406E0,-2.175075769E0
6.850658293E0,-3.550948858E0,-8.867800713E0,-2.201396942E0
6.855413605E0,-3.574877024E0,-8.915657043E0,-2.227717876E0
6.860168918E0,-3.567698479E0,-8.934800148E0,-2.249253273E0
6.864924230E0,-3.543770313E0,-8.968298912E0,-2.263610125E0
6.869679543E0,-3.562912941E0,-8.999405861E0,-2.270788670E0
6.874434855E0,-3.550948858E0,-9.008976936E0,-2.292324066E0
6.879190168E0,-3.550948858E0,-9.025727272E0,-2.292324066E0
6.883945480E0,-3.574877024E0,-9.035298347E0,-2.289931297E0
6.888700793E0,-3.560520172E0,-9.052047729E0,-2.294716835E0
6.893456105E0,-3.582055569E0,-9.054440498E0,-2.313859463E0
6.898211418E0,-3.574877024E0,-9.052047729E0,-2.301895380E0
6.902966730E0,-3.582055569E0,-9.020941734E0,-2.285145521E0
6.907722043E0,-3.582055569E0,-9.049654961E0,-2.285145521E0
6.912477355E0,-3.582055569E0,-9.054440498E0,-2.280359983E0
6.917232668E0,-3.548556089E0,-9.052047729E0,-2.309073925E0
6.921987980E0,-3.550948858E0,-9.030512810E0,-2.277967215E0
6.926743293E0,-3.548556089E0,-9.032905579E0,-2.275574446E0
6.931498605E0,-3.546163082E0,-9.042476654E0,-2.266003132E0
6.936253918E0,-3.553341627E0,-9.042476654E0,-2.266003132E0
6.941009230E0,-3.538984776E0,-9.044869423E0,-2.263610125E0
6.945764543E0,-3.536591768E0,-9.032905579E0,-2.258824587E0
6.950519855E0,-3.543770313E0,-9.028120041E0,-2.270788670E0
6.955275168E0,-3.519842148E0,-8.997013092E0,-2.263610125E0
6.960030480E0,-3.512663603E0,-8.987442017E0,-2.277967215E0
6.964785793E0,-3.505485058E0,-8.961120605E0,-2.256431818E0
6.969541157E0,-3.493520975E0,-8.963513374E0,-2.273181438E0
6.974296418E0,-3.486342669E0,-8.937192917E0,-2.270788670E0
6.979051730E0,-3.507878065E0,-8.903693199E0,-2.280359983E0
6.983807043E0,-3.491128206E0,-8.884550095E0,-2.256431818E0
6.988562355E0,-3.481556892E0,-8.872586250E0,-2.246860504E0
6.993317720E0,-3.488735437E0,-8.843872070E0,-2.249253273E0
6.998073032E0,-3.476771355E0,-8.831908226E0,-2.208575249E0
7.002828345E0,-3.479164124E0,-8.800801277E0,-2.199003935E0
7.007583657E0,-3.471985579E0,-8.817551613E0,-2.187039852E0
7.012338970E0,-3.469592810E0,-8.791230202E0,-2.163111687E0
7.017094282E0,-3.445664644E0,-8.769695282E0,-2.153540373E0
7.021849595E0,-3.450450182E0,-8.764909744E0,-2.132004976E0
7.026604907E0,-3.450450182E0,-8.717052460E0,-2.148754835E0
7.031360220E0,-3.438486099E0,-8.714659691E0,-2.132004976E0
7.036115532E0,-3.450450182E0,-8.707481384E0,-2.146361828E0
7.040870845E0,-3.443271875E0,-8.717052460E0,-2.124826431E0
7.045626157E0,-3.467200041E0,-8.721838951E0,-2.127219439E0
7.050381470E0,-3.471985579E0,-8.745766640E0,-2.127219439E0
7.055136782E0,-3.491128206E0,-8.757730484E0,-2.129612207E0
7.059892095E0,-3.498306751E0,-8.793622971E0,-2.146361828E0
7.064647407E0,-3.495913982E0,-8.786444664E0,-2.143969059E0
7.069402720E0,-3.500699520E0,-8.822337151E0,-2.139183521E0
7.074158032E0,-3.503092289E0,-8.848658562E0,-2.141576290E0
7.078913345E0,-3.510270834E0,-8.863015175E0,-2.158325911E0
7.083668657E0,-3.522234917E0,-8.889336586E0,-2.179861546E0
7.088423970E0,-3.493520975E0,-8.894122124E0,-2.201396942E0
7.093179282E0,-3.519842148E0,-8.898907661E0,-2.206182480E0
7.097934595E0,-3.531806231E0,-8.932407379E0,-2.246860504E0
7.102689907E0,-3.543770313E0,-8.949156761E0,-2.254039049E0
7.107445220E0,-3.548556089E0,-8.941978455E0,-2.280359983E0
7.112200532E0,-3.562912941E0,-8.980263710E0,-2.306680918E0
7.116955845E0,-3.541377544E0,-8.987442017E0,-2.313859463E0
7.121711157E0,-3.579662561E0,-8.987442017E0,-2.330609322E0
7.126466470E0,-3.584448338E0,-9.004191399E0,-2.335394859E0
7.131221782E0,-3.615555048E0,-9.013762474E0,-2.333002090E0
7.135977095E0,-3.610769272E0,-9.028120041E0,-2.352144718E0
7.140732407E0,-3.620340586E0,-9.013762474E0,-2.361716032E0
7.145487720E0,-3.622733593E0,-9.025727272E0,-2.368894339E0
7.150243032E0,-3.634697676E0,-9.025727272E0,-2.366501570E0
7.154998345E0,-3.605983734E0,-9.054440498E0,-2.356930256E0
7.159753657E0,-3.620340586E0,-9.044869423E0,-2.373680115E0
7.164508970E0,-3.634697676E0,-9.056833267E0,-2.373680115E0
7.169264282E0,-3.615555048E0,-9.054440498E0,-2.352144718E0
7.174019595E0,-3.594019651E0,-9.049654961E0,-2.352144718E0
7.178774907E0,-3.594019651E0,-9.061619759E0,-2.366501570E0
7.183530220E0,-3.596412420E0,-9.049654961E0,-2.361716032E0
7.188285532E0,-3.596412420E0,-9.028120041E0,-2.349751949E0
7.193040845E0,-3.589233875E0,-9.008976936E0,-2.335394859E0
7.197796157E0,-3.591626883E0,-9.006584167E0,-2.318645239E0
7.202551470E0,-3.617947817E0,-8.994620323E0,-2.318645239E0
7.207306782E0,-3.617947817E0,-8.965906143E0,-2.301895380E0
7.212062095E0,-3.598805189E0,-8.946763992E0,-2.289931297E0
7.216817407E0,-3.610769272E0,-8.920442581E0,-2.277967215E0
7.221572720E0,-3.605983734E0,-8.913264275E0,-2.258824587E0
7.226328032E0,-3.610769272E0,-8.891729355E0,-2.256431818E0
7.231083345E0,-3.610769272E0,-8.877371788E0,-2.225325108E0
7.235838657E0,-3.615555048E0,-8.865407944E0,-2.230110645E0
7.240593970E0,-3.613162279E0,-8.846264839E0,-2.234896421E0
7.245349282E0,-3.613162279E0,-8.829515457E0,-2.232503414E0
7.250104595E0,-3.591626883E0,-8.810373306E0,-2.218146563E0
7.254859907E0,-3.596412420E0,-8.779266357E0,-2.213361025E0
7.259615220E0,-3.608376503E0,-8.774480820E0,-2.227717876E0
7.264370532E0,-3.608376503E0,-8.793622971E0,-2.232503414E0
7.269125845E0,-3.586841106E0,-8.779266357E0,-2.244467735E0
7.273881157E0,-3.608376503E0,-8.791230202E0,-2.242074728E0
7.278636470E0,-3.577269793E0,-8.784051895E0,-2.239681959E0
7.283391782E0,-3.591626883E0,-8.774480820E0,-2.227717876E0
7.288147043E0,-3.601198196E0,-8.793622971E0,-2.232503414E0
7.292902407E0,-3.582055569E0,-8.796015739E0,-2.239681959E0
7.297657668E0,-3.553341627E0,-8.805587769E0,-2.256431818E0
7.302412980E0,-3.553341627E0,-8.817551613E0,-2.263610125E0
7.307168293E0,-3.570091486E0,-8.839086533E0,-2.268395901E0
7.311923605E0,-3.550948858E0,-8.863015175E0,-2.268395901E0
7.316678918E0,-3.560520172E0,-8.867800713E0,-2.285145521E0
7.321434282E0,-3.553341627E0,-8.886942863E0,-2.297109842E0
7.326189543E0,-3.527020693E0,-8.913264275E0,-2.299502611E0
7.330944855E0,-3.536591768E0,-8.906085968E0,-2.294716835E0
7.335700168E0,-3.529413462E0,-8.927620888E0,-2.299502611E0
7.340455480E0,-3.546163082E0,-8.939585686E0,-2.294716835E0
7.345210793E0,-3.538984776E0,-8.937192917E0,-2.304288149E0
7.349966105E0,-3.536591768E0,-8.930013657E0,-2.309073925E0
7.354721418E0,-3.515056372E0,-8.956335068E0,-2.337787628E0
7.359476730E0,-3.534198999E0,-8.956335068E0,-2.306680918E0
7.364232043E0,-3.515056372E0,-8.956335068E0,-2.328216314E0
7.368987355E0,-3.519842148E0,-8.939585686E0,-2.313859463E0
7.373742668E0,-3.519842148E0,-8.932407379E0,-2.325823545E0
7.378497980E0,-3.531806231E0,-8.927620888E0,-2.311466694E0
7.383253293E0,-3.527020693E0,-8.903693199E0,-2.301895380E0
7.388008605E0,-3.517449379E0,-8.865407944E0,-2.299502611E0
7.392763918E0,-3.507878065E0,-8.836693764E0,-2.301895380E0
7.397519230E0,-3.517449379E0,-8.805587769E0,-2.292324066E0
7.402274543E0,-3.517449379E0,-8.800801277E0,-2.294716835E0
7.407029855E0,-3.515056372E0,-8.740981102E0,-2.275574446E0
7.411785168E0,-3.515056372E0,-8.745766640E0,-2.268395901E0
7.416540480E0,-3.519842148E0,-8.726624489E0,-2.263610125E0
7.421295793E0,-3.548556089E0,-8.712266922E0,-2.249253273E0
7.426051105E0,-3.548556089E0,-8.714659691E0,-2.232503414E0
7.430806418E0,-3.546163082E0,-8.726624489E0,-2.237289190E0
7.435561730E0,-3.546163082E0,-8.729017258E0,-2.239681959E0
7.440317043E0,-3.562912941E0,-8.748159409E0,-2.225325108E0
7.445072355E0,-3.582055569E0,-8.760123253E0,-2.242074728E0
7.449827668E0,-3.601198196E0,-8.752944946E0,-2.244467735E0
7.454582980E0,-3.596412420E0,-8.781659126E0,-2.273181438E0
7.459338293E0,-3.615555048E0,-8.815158844E0,-2.277967215E0
7.464093553E0,-3.613162279E0,-8.851051331E0,-2.287538528E0
7.468848918E0,-3.622733593E0,-8.848658562E0,-2.289931297E0
7.473604178E0,-3.646661758E0,-8.891729355E0,-2.316252232E0
7.478359491E0,-3.639483213E0,-8.903693199E0,-2.354537487E0
7.483114803E0,-3.658625841E0,-8.913264275E0,-2.380858421E0
7.487870116E0,-3.661018610E0,-8.920442581E0,-2.388036966E0
7.492625428E0,-3.653840065E0,-8.939585686E0,-2.395215511E0
7.497380741E0,-3.653840065E0,-8.941978455E0,-2.397608280E0
7.502136053E0,-3.672982693E0,-8.958727837E0,-2.392822742E0
7.506891366E0,-3.668197155E0,-8.970691681E0,-2.397608280E0
7.511646678E0,-3.672982693E0,-8.953942299E0,-2.385644197E0
7.516401991E0,-3.677768469E0,-8.951549530E0,-2.380858421E0
7.521157303E0,-3.689732552E0,-8.944371223E0,-2.371287346E0
7.525912616E0,-3.699303865E0,-8.958727837E0,-2.344966173E0
7.530667928E0,-3.692125320E0,-8.951549530E0,-2.349751949E0
7.535423241E0,-3.687339783E0,-8.977870941E0,-2.318645239E0
7.540178553E0,-3.670589924E0,-8.949156761E0,-2.321038008E0
7.544933866E0,-3.641875982E0,-8.961120605E0,-2.304288149E0
7.549689178E0,-3.622733593E0,-8.951549530E0,-2.311466694E0
7.554444491E0,-3.613162279E0,-8.939585686E0,-2.301895380E0
7.559199803E0,-3.603590965E0,-8.920442581E0,-2.313859463E0
7.563955116E0,-3.596412420E0,-8.937192917E0,-2.304288149E0
7.568710428E0,-3.591626883E0,-8.896514893E0,-2.289931297E0
7.573465689E0,-3.591626883E0,-8.872586250E0,-2.280359983E0
7.578221001E0,-3.550948858E0,-8.860622406E0,-2.256431818E0
7.582976366E0,-3.546163082E0,-8.812766075E0,-2.277967215E0
7.587731626E0,-3.524627686E0,-8.807980537E0,-2.266003132E0
7.592486939E0,-3.522234917E0,-8.807980537E0,-2.246860504E0
7.597242251E0,-3.510270834E0,-8.803194046E0,-2.251646042E0
7.601997564E0,-3.495913982E0,-8.819944382E0,-2.227717876E0
7.606752876E0,-3.488735437E0,-8.841479301E0,-2.239681959E0
7.611508189E0,-3.498306751E0,-8.855836868E0,-2.244467735E0
7.616263501E0,-3.467200041E0,-8.839086533E0,-2.244467735E0
7.621018814E0,-3.464807272E0,-8.843872070E0,-2.249253273E0
7.625774126E0,-3.457628727E0,-8.865407944E0,-2.246860504E0
7.630529439E0,-3.486342669E0,-8.860622406E0,-2.268395901E0
7.635284751E0,-3.486342669E0,-8.870193481E0,-2.275574446E0
7.640040064E0,-3.503092289E0,-8.884550095E0,-2.285145521E0
7.644795376E0,-3.510270834E0,-8.882157326E0,-2.289931297E0
7.649550689E0,-3.543770313E0,-8.891729355E0,-2.292324066E0
7.654306001E0,-3.560520172E0,-8.882157326E0,-2.306680918E0
7.659061314E0,-3.555734396E0,-8.910871506E0,-2.311466694E0
7.663816626E0,-3.572484255E0,-8.898907661E0,-2.321038008E0
7.668571939E0,-3.603590965E0,-8.913264275E0,-2.325823545E0
7.673327199E0,-3.629911900E0,-8.922835350E0,-2.337787628E0
7.678082512E0,-3.653840065E0,-8.949156761E0,-2.337787628E0
7.682837824E0,-3.656233072E0,-8.975478172E0,-2.333002090E0
7.687593137E0,-3.665804386E0,-9.001798630E0,-2.344966173E0
7.692348449E0,-3.665804386E0,-9.008976936E0,-2.352144718E0
7.697103762E0,-3.684946775E0,-9.025727272E0,-2.356930256E0
7.701859074E0,-3.672982693E0,-9.025727272E0,-2.352144718E0
7.706614387E0,-3.668197155E0,-9.023334503E0,-2.361716032E0
7.711369699E0,-3.665804386E0,-8.985049248E0,-2.364108801E0
7.716125012E0,-3.653840065E0,-8.963513374E0,-2.378465652E0
7.720880324E0,-3.668197155E0,-8.958727837E0,-2.395215511E0
7.725635637E0,-3.668197155E0,-8.944371223E0,-2.395215511E0
7.730390949E0,-3.620340586E0,-8.970691681E0,-2.388036966E0
7.735146262E0,-3.625126362E0,-8.915657043E0,-2.371287346E0
7.739901522E0,-3.615555048E0,-8.908478737E0,-2.364108801E0
7.744656835E0,-3.591626883E0,-8.894122124E0,-2.347358942E0
7.749412147E0,-3.570091486E0,-8.889336586E0,-2.304288149E0
7.754167460E0,-3.553341627E0,-8.860622406E0,-2.297109842E0
7.758922772E0,-3.529413462E0,-8.858229637E0,-2.275574446E0
7.763678085E0,-3.517449379E0,-8.836693764E0,-2.261217356E0
7.768433397E0,-3.488735437E0,-8.839086533E0,-2.232503414E0
7.773188710E0,-3.479164124E0,-8.774480820E0,-2.230110645E0
7.777944022E0,-3.455235958E0,-8.757730484E0,-2.242074728E0
7.782699335E0,-3.443271875E0,-8.743373871E0,-2.215753794E0
7.787454647E0,-3.438486099E0,-8.724231720E0,-2.218146563E0
7.792209960E0,-3.424129248E0,-8.719446182E0,-2.208575249E0
7.796965272E0,-3.436093330E0,-8.697910309E0,-2.215753794E0
7.801720585E0,-3.414557934E0,-8.712266922E0,-2.227717876E0
7.806475897E0,-3.433700562E0,-8.695517540E0,-2.220539331E0
7.811231157E0,-3.452843189E0,-8.671588898E0,-2.230110645E0
7.815986470E0,-3.450450182E0,-8.676374435E0,-2.213361025E0
7.820741782E0,-3.460021496E0,-8.690732002E0,-2.225325108E0
7.825497095E0,-3.488735437E0,-8.697910309E0,-2.218146563E0
7.830252407E0,-3.503092289E0,-8.707481384E0,-2.227717876E0
7.835007720E0,-3.524627686E0,-8.743373871E0,-2.230110645E0
7.839763032E0,-3.510270834E0,-8.752944946E0,-2.234896421E0
7.844518345E0,-3.534198999E0,-8.779266357E0,-2.239681959E0
7.849273657E0,-3.560520172E0,-8.781659126E0,-2.254039049E0
7.854028970E0,-3.584448338E0,-8.805587769E0,-2.266003132E0
7.858784282E0,-3.586841106E0,-8.863015175E0,-2.313859463E0
7.863539595E0,-3.577269793E0,-8.894122124E0,-2.309073925E0
7.868294855E0,-3.582055569E0,-8.903693199E0,-2.337787628E0
7.873050168E0,-3.591626883E0,-8.934800148E0,-2.373680115E0
7.877805480E0,-3.598805189E0,-8.973084450E0,-2.390429735E0
7.882560793E0,-3.615555048E0,-9.006584167E0,-2.433500528E0
7.887316105E0,-3.622733593E0,-9.037691116E0,-2.433500528E0
7.892071418E0,-3.634697676E0,-9.044869423E0,-2.469393015E0
7.896826730E0,-3.665804386E0,-9.073583603E0,-2.474178553E0
7.901582043E0,-3.658625841E0,-9.092725754E0,-2.476571321E0
7.906337355E0,-3.651447296E0,-9.097511292E0,-2.481357098E0
7.911092668E0,-3.665804386E0,-9.087940216E0,-2.471785784E0
7.915847928E0,-3.661018610E0,-9.080761909E0,-2.481357098E0
7.920603293E0,-3.646661758E0,-9.068798065E0,-2.474178553E0
7.925358553E0,-3.670589924E0,-9.061619759E0,-2.478964329E0
7.930113866E0,-3.644268990E0,-9.071190834E0,-2.471785784E0
7.934869178E0,-3.649054527E0,-9.066405296E0,-2.445464849E0
7.939624491E0,-3.649054527E0,-9.052047729E0,-2.445464849E0
7.944379803E0,-3.649054527E0,-9.049654961E0,-2.423929453E0
7.949135116E0,-3.629911900E0,-9.035298347E0,-2.407179594E0
7.953890428E0,-3.629911900E0,-8.989834785E0,-2.388036966E0
7.958645741E0,-3.617947817E0,-8.968298912E0,-2.361716032E0
7.963401053E0,-3.601198196E0,-8.939585686E0,-2.342573404E0
7.968156314E0,-3.615555048E0,-8.930013657E0,-2.309073925E0
7.972911626E0,-3.603590965E0,-8.877371788E0,-2.292324066E0
7.977666939E0,-3.605983734E0,-8.841479301E0,-2.282752752E0
7.982422251E0,-3.570091486E0,-8.819944382E0,-2.251646042E0
7.987177564E0,-3.553341627E0,-8.781659126E0,-2.239681959E0
7.991932876E0,-3.558127165E0,-8.736195564E0,-2.227717876E0
7.996688189E0,-3.531806231E0,-8.750552177E0,-2.227717876E0
8.001443501E0,-3.541377544E0,-8.724231720E0,-2.218146563E0
8.006198814E0,-3.543770313E0,-8.685946465E0,-2.208575249E0
8.010954126E0,-3.522234917E0,-8.695517540E0,-2.215753794E0
8.015709387E0,-3.512663603E0,-8.688339233E0,-2.220539331E0
8.020464699E0,-3.519842148E0,-8.673981667E0,-2.222932339E0
8.025220012E0,-3.550948858E0,-8.673981667E0,-2.201396942E0
8.029975324E0,-3.543770313E0,-8.664410591E0,-2.199003935E0
8.034730637E0,-3.543770313E0,-8.654839516E0,-2.191825628E0
8.039485949E0,-3.531806231E0,-8.678768158E0,-2.220539331E0
8.044241262E0,-3.538984776E0,-8.671588898E0,-2.210968018E0
8.048996574E0,-3.538984776E0,-8.673981667E0,-2.234896421E0
8.053751887E0,-3.536591768E0,-8.681160927E0,-2.249253273E0
8.058507199E0,-3.541377544E0,-8.712266922E0,-2.249253273E0
8.063262460E0,-3.536591768E0,-8.721838951E0,-2.280359983E0
8.068017772E0,-3.543770313E0,-8.748159409E0,-2.282752752E0
8.072773085E0,-3.538984776E0,-8.779266357E0,-2.311466694E0
8.077528397E0,-3.531806231E0,-8.822337151E0,-2.306680918E0
8.082283710E0,-3.522234917E0,-8.858229637E0,-2.325823545E0
8.087039022E0,-3.548556089E0,-8.882157326E0,-2.328216314E0
8.091794335E0,-3.527020693E0,-8.910871506E0,-2.359323025E0
8.096549647E0,-3.555734396E0,-8.946763992E0,-2.364108801E0
8.101304960E0,-3.560520172E0,-8.953942299E0,-2.385644197E0
8.106060220E0,-3.558127165E0,-8.965906143E0,-2.397608280E0
8.110815532E0,-3.574877024E0,-8.975478172E0,-2.414358139E0
8.115570845E0,-3.572484255E0,-8.992227554E0,-2.431107759E0
8.120326157E0,-3.579662561E0,-9.004191399E0,-2.447857618E0
8.125081470E0,-3.584448338E0,-9.011369705E0,-2.445464849E0
8.129836782E0,-3.615555048E0,-9.020941734E0,-2.455035925E0
8.134592095E0,-3.632304668E0,-9.001798630E0,-2.455035925E0
8.139347407E0,-3.646661758E0,-9.023334503E0,-2.462214470E0
8.144102720E0,-3.665804386E0,-9.016156197E0,-2.450250387E0
8.148857980E0,-3.661018610E0,-9.023334503E0,-2.443071842E0
8.153613293E0,-3.651447296E0,-9.011369705E0,-2.455035925E0
8.158368605E0,-3.653840065E0,-9.001798630E0,-2.433500528E0
8.163123918E0,-3.649054527E0,-8.985049248E0,-2.433500528E0
8.167879230E0,-3.649054527E0,-8.944371223E0,-2.414358139E0
8.172634543E0,-3.625126362E0,-8.930013657E0,-2.414358139E0
8.177389855E0,-3.634697676E0,-8.886942863E0,-2.397608280E0
8.182145168E0,-3.641875982E0,-8.843872070E0,-2.392822742E0
8.186900428E0,-3.646661758E0,-8.846264839E0,-2.380858421E0
8.191655741E0,-3.639483213E0,-8.822337151E0,-2.354537487E0
8.196411053E0,-3.632304668E0,-8.786444664E0,-2.349751949E0
8.201166366E0,-3.649054527E0,-8.781659126E0,-2.318645239E0
8.205921678E0,-3.651447296E0,-8.762516975E0,-2.301895380E0
8.210676991E0,-3.649054527E0,-8.736195564E0,-2.292324066E0
8.215432303E0,-3.661018610E0,-8.721838951E0,-2.263610125E0
8.220187616E0,-3.668197155E0,-8.707481384E0,-2.256431818E0
8.224942876E0,-3.653840065E0,-8.693124771E0,-2.258824587E0
8.229698189E0,-3.644268990E0,-8.671588898E0,-2.261217356E0
8.234453501E0,-3.677768469E0,-8.671588898E0,-2.263610125E0
8.239208814E0,-3.656233072E0,-8.678768158E0,-2.254039049E0
8.243964126E0,-3.649054527E0,-8.700303078E0,-2.266003132E0
8.248719439E0,-3.661018610E0,-8.700303078E0,-2.280359983E0
8.253474751E0,-3.658625841E0,-8.697910309E0,-2.294716835E0
8.258230064E0,-3.646661758E0,-8.740981102E0,-2.306680918E0
8.262985324E0,-3.632304668E0,-8.757730484E0,-2.323430777E0
8.267740637E0,-3.653840065E0,-8.788837433E0,-2.335394859E0
8.272495949E0,-3.627519131E0,-8.819944382E0,-2.361716032E0
8.277251262E0,-3.620340586E0,-8.846264839E0,-2.364108801E0
8.282006574E0,-3.637090445E0,-8.870193481E0,-2.349751949E0
8.286761887E0,-3.627519131E0,-8.901300430E0,-2.364108801E0
8.291517199E0,-3.632304668E0,-8.939585686E0,-2.354537487E0
8.296272460E0,-3.637090445E0,-8.941978455E0,-2.366501570E0
8.301027772E0,-3.629911900E0,-8.965906143E0,-2.380858421E0
8.305783085E0,-3.627519131E0,-8.970691681E0,-2.392822742E0
8.310538397E0,-3.622733593E0,-8.987442017E0,-2.388036966E0
8.315293710E0,-3.601198196E0,-9.011369705E0,-2.392822742E0
8.320049022E0,-3.620340586E0,-9.032905579E0,-2.426322222E0
8.324804335E0,-3.634697676E0,-9.042476654E0,-2.404786825E0
8.329559595E0,-3.634697676E0,-9.049654961E0,-2.428714991E0
8.334314907E0,-3.641875982E0,-9.056833267E0,-2.414358139E0
8.339070220E0,-3.656233072E0,-9.066405296E0,-2.433500528E0
8.343825532E0,-3.625126362E0,-9.066405296E0,-2.447857618E0
8.348580845E0,-3.627519131E0,-9.066405296E0,-2.447857618E0
8.353336157E0,-3.617947817E0,-9.078369141E0,-2.445464849E0
8.358091470E0,-3.629911900E0,-9.049654961E0,-2.431107759E0
8.362846730E0,-3.675375462E0,-9.064012527E0,-2.400001049E0
8.367602043E0,-3.622733593E0,-9.049654961E0,-2.407179594E0
8.372357355E0,-3.562912941E0,-8.985049248E0,-2.421536446E0
8.377112668E0,-3.586841106E0,-8.946763992E0,-2.383251429E0
8.381867980E0,-3.586841106E0,-8.901300430E0,-2.385644197E0
8.386623293E0,-3.589233875E0,-8.860622406E0,-2.376072884E0
8.391378605E0,-3.574877024E0,-8.834300995E0,-2.361716032E0
8.396133866E0,-3.622733593E0,-8.796015739E0,-2.342573404E0
8.400889178E0,-3.584448338E0,-8.796015739E0,-2.335394859E0
8.405644491E0,-3.562912941E0,-8.779266357E0,-2.306680918E0
8.410399803E0,-3.565305710E0,-8.738588333E0,-2.285145521E0
8.415155116E0,-3.577269793E0,-8.760123253E0,-2.273181438E0
8.419910428E0,-3.558127165E0,-8.748159409E0,-2.249253273E0
8.424665741E0,-3.546163082E0,-8.740981102E0,-2.237289190E0
8.429421001E0,-3.560520172E0,-8.745766640E0,-2.234896421E0
8.434176314E0,-3.567698479E0,-8.748159409E0,-2.227717876E0
8.438931626E0,-3.574877024E0,-8.733802795E0,-2.234896421E0
8.443686939E0,-3.579662561E0,-8.712266922E0,-2.254039049E0
8.448442251E0,-3.574877024E0,-8.705088615E0,-2.249253273E0
8.453197564E0,-3.601198196E0,-8.693124771E0,-2.237289190E0
8.457952824E0,-3.567698479E0,-8.705088615E0,-2.239681959E0
8.462708137E0,-3.582055569E0,-8.729017258E0,-2.251646042E0
8.467463449E0,-3.586841106E0,-8.731410027E0,-2.266003132E0
8.472218762E0,-3.596412420E0,-8.769695282E0,-2.282752752E0
8.476974074E0,-3.596412420E0,-8.791230202E0,-2.285145521E0
8.481729387E0,-3.608376503E0,-8.822337151E0,-2.294716835E0
8.486484699E0,-3.603590965E0,-8.843872070E0,-2.313859463E0
8.491239960E0,-3.610769272E0,-8.853444099E0,-2.330609322E0
8.495995272E0,-3.598805189E0,-8.870193481E0,-2.342573404E0
8.500750585E0,-3.598805189E0,-8.920442581E0,-2.340180635E0
8.505505897E0,-3.596412420E0,-8.898907661E0,-2.354537487E0
8.510261210E0,-3.601198196E0,-8.915657043E0,-2.356930256E0
8.515016470E0,-3.601198196E0,-8.946763992E0,-2.361716032E0
8.519771782E0,-3.627519131E0,-8.965906143E0,-2.364108801E0
8.524527095E0,-3.637090445E0,-8.980263710E0,-2.366501570E0
8.529282407E0,-3.629911900E0,-8.985049248E0,-2.364108801E0
8.534037720E0,-3.620340586E0,-9.006584167E0,-2.376072884E0
8.538793032E0,-3.610769272E0,-8.992227554E0,-2.380858421E0
8.543548293E0,-3.598805189E0,-9.004191399E0,-2.383251429E0
8.548303605E0,-3.572484255E0,-9.011369705E0,-2.400001049E0
8.553058918E0,-3.589233875E0,-9.008976936E0,-2.397608280E0
8.557814230E0,-3.570091486E0,-9.011369705E0,-2.407179594E0
8.562569543E0,-3.567698479E0,-9.016156197E0,-2.400001049E0
8.567324855E0,-3.567698479E0,-9.023334503E0,-2.364108801E0
8.572080168E0,-3.517449379E0,-8.992227554E0,-2.366501570E0
8.576835428E0,-3.481556892E0,-8.977870941E0,-2.364108801E0
8.581590741E0,-3.464807272E0,-8.939585686E0,-2.371287346E0
8.586346053E0,-3.476771355E0,-8.918049812E0,-2.371287346E0
8.591101366E0,-3.491128206E0,-8.886942863E0,-2.361716032E0
8.595856678E0,-3.491128206E0,-8.867800713E0,-2.337787628E0
8.600611991E0,-3.493520975E0,-8.848658562E0,-2.356930256E0
8.605367251E0,-3.483949661E0,-8.822337151E0,-2.316252232E0
8.610122564E0,-3.481556892E0,-8.807980537E0,-2.294716835E0
8.614877876E0,-3.479164124E0,-8.791230202E0,-2.266003132E0
8.619633189E0,-3.483949661E0,-8.781659126E0,-2.270788670E0
8.624388501E0,-3.467200041E0,-8.736195564E0,-2.244467735E0
8.629143762E0,-3.507878065E0,-8.740981102E0,-2.237289190E0
8.633899074E0,-3.505485058E0,-8.721838951E0,-2.242074728E0
8.638654387E0,-3.491128206E0,-8.717052460E0,-2.237289190E0
8.643409699E0,-3.524627686E0,-8.712266922E0,-2.237289190E0
8.648165012E0,-3.543770313E0,-8.697910309E0,-2.246860504E0
8.652920324E0,-3.534198999E0,-8.685946465E0,-2.251646042E0
8.657675585E0,-3.558127165E0,-8.717052460E0,-2.261217356E0
8.662430897E0,-3.565305710E0,-8.700303078E0,-2.256431818E0
8.667186210E0,-3.570091486E0,-8.726624489E0,-2.277967215E0
8.671941522E0,-3.608376503E0,-8.736195564E0,-2.292324066E0
8.676696835E0,-3.610769272E0,-8.743373871E0,-2.313859463E0
8.681452095E0,-3.605983734E0,-8.740981102E0,-2.321038008E0
8.686207407E0,-3.629911900E0,-8.762516975E0,-2.335394859E0
8.690962720E0,-3.641875982E0,-8.819944382E0,-2.347358942E0
8.695718032E0,-3.637090445E0,-8.829515457E0,-2.371287346E0
8.700473345E0,-3.663411379E0,-8.848658562E0,-2.366501570E0
8.705228605E0,-3.704089403E0,-8.925228119E0,-2.366501570E0
8.709983918E0,-3.684946775E0,-8.961120605E0,-2.373680115E0
8.714739230E0,-3.661018610E0,-8.965906143E0,-2.380858421E0
8.719494543E0,-3.668197155E0,-9.013762474E0,-2.388036966E0
8.724249855E0,-3.663411379E0,-9.023334503E0,-2.395215511E0
8.729005168E0,-3.682554007E0,-9.035298347E0,-2.402393818E0
8.733760428E0,-3.708875179E0,-9.040083885E0,-2.404786825E0
8.738515741E0,-3.706482172E0,-9.056833267E0,-2.409572363E0
8.743271053E0,-3.687339783E0,-9.056833267E0,-2.409572363E0
8.748026366E0,-3.663411379E0,-9.056833267E0,-2.404786825E0
8.752781678E0,-3.656233072E0,-9.049654961E0,-2.428714991E0
8.757536939E0,-3.641875982E0,-9.042476654E0,-2.411965132E0
8.762292251E0,-3.625126362E0,-9.028120041E0,-2.400001049E0
8.767047564E0,-3.608376503E0,-9.011369705E0,-2.385644197E0
8.771802876E0,-3.591626883E0,-8.989834785E0,-2.380858421E0
8.776558189E0,-3.560520172E0,-8.977870941E0,-2.388036966E0
8.781313501E0,-3.550948858E0,-8.944371223E0,-2.380858421E0
8.786068762E0,-3.553341627E0,-8.922835350E0,-2.356930256E0
8.790824074E0,-3.538984776E0,-8.918049812E0,-2.356930256E0
8.795579387E0,-3.524627686E0,-8.918049812E0,-2.330609322E0
8.800334699E0,-3.519842148E0,-8.901300430E0,-2.313859463E0
8.805089960E0,-3.495913982E0,-8.870193481E0,-2.294716835E0
8.809845272E0,-3.462414265E0,-8.848658562E0,-2.273181438E0
8.814600585E0,-3.438486099E0,-8.831908226E0,-2.266003132E0
8.819355897E0,-3.421736479E0,-8.807980537E0,-2.258824587E0
8.824111210E0,-3.421736479E0,-8.798408508E0,-2.254039049E0
8.828866470E0,-3.402593851E0,-8.786444664E0,-2.244467735E0
8.833621782E0,-3.414557934E0,-8.762516975E0,-2.227717876E0
8.838377095E0,-3.409772158E0,-8.757730484E0,-2.225325108E0
8.843132407E0,-3.390629768E0,-8.757730484E0,-2.210968018E0
8.847887720E0,-3.393022537E0,-8.764909744E0,-2.201396942E0
8.852642980E0,-3.395415306E0,-8.750552177E0,-2.201396942E0
8.857398293E0,-3.424129248E0,-8.793622971E0,-2.203789711E0
8.862153605E0,-3.424129248E0,-8.803194046E0,-2.225325108E0
8.866908918E0,-3.438486099E0,-8.841479301E0,-2.234896421E0
8.871664230E0,-3.471985579E0,-8.872586250E0,-2.249253273E0
8.876419491E0,-3.495913982E0,-8.889336586E0,-2.263610125E0
8.881174803E0,-3.471985579E0,-8.925228119E0,-2.285145521E0
8.885930116E0,-3.464807272E0,-8.932407379E0,-2.285145521E0
8.890685428E0,-3.479164124E0,-8.941978455E0,-2.306680918E0
8.895440741E0,-3.503092289E0,-8.958727837E0,-2.304288149E0
8.900196001E0,-3.510270834E0,-8.949156761E0,-2.318645239E0
8.904951314E0,-3.503092289E0,-8.965906143E0,-2.335394859E0
8.909706626E0,-3.512663603E0,-8.977870941E0,-2.325823545E0
8.914461939E0,-3.519842148E0,-8.965906143E0,-2.364108801E0
8.919217199E0,-3.546163082E0,-8.958727837E0,-2.364108801E0
8.923972512E0,-3.553341627E0,-8.956335068E0,-2.354537487E0
8.928727824E0,-3.548556089E0,-8.958727837E0,-2.364108801E0
8.933483137E0,-3.550948858E0,-8.953942299E0,-2.354537487E0
8.938238449E0,-3.567698479E0,-8.956335068E0,-2.340180635E0
8.942993710E0,-3.555734396E0,-8.958727837E0,-2.325823545E0
8.947749022E0,-3.555734396E0,-8.973084450E0,-2.325823545E0
8.952504335E0,-3.567698479E0,-8.970691681E0,-2.321038008E0
8.957259647E0,-3.584448338E0,-8.965906143E0,-2.311466694E0
8.962014960E0,-3.596412420E0,-8.963513374E0,-2.321038008E0
8.966770220E0,-3.601198196E0,-8.953942299E0,-2.330609322E0
8.971525532E0,-3.582055569E0,-8.951549530E0,-2.321038008E0
8.976280845E0,-3.605983734E0,-8.937192917E0,-2.342573404E0
8.981036157E0,-3.663411379E0,-8.932407379E0,-2.328216314E0
8.985791470E0,-3.692125320E0,-8.939585686E0,-2.325823545E0
8.990546730E0,-3.677768469E0,-8.930013657E0,-2.318645239E0
8.995302043E0,-3.634697676E0,-8.901300430E0,-2.325823545E0
9.000057355E0,-3.613162279E0,-8.894122124E0,-2.337787628E0
9.004812668E0,-3.625126362E0,-8.867800713E0,-2.366501570E0
9.009567980E0,-3.653840065E0,-8.882157326E0,-2.380858421E0
9.014323241E0,-3.670589924E0,-8.867800713E0,-2.402393818E0
9.019078553E0,-3.680161238E0,-8.851051331E0,-2.395215511E0
9.023833866E0,-3.670589924E0,-8.827122688E0,-2.397608280E0
9.028589126E0,-3.663411379E0,-8.807980537E0,-2.392822742E0
9.033344439E0,-3.661018610E0,-8.779266357E0,-2.380858421E0
9.038099751E0,-3.661018610E0,-8.745766640E0,-2.342573404E0
9.042855064E0,-3.661018610E0,-8.721838951E0,-2.335394859E0
9.047610376E0,-3.649054527E0,-8.695517540E0,-2.337787628E0
9.052365637E0,-3.639483213E0,-8.671588898E0,-2.306680918E0
9.057120949E0,-3.675375462E0,-8.657232285E0,-2.304288149E0
9.061876262E0,-3.692125320E0,-8.676374435E0,-2.301895380E0
9.066631574E0,-3.701696634E0,-8.681160927E0,-2.280359983E0
9.071386887E0,-3.670589924E0,-8.673981667E0,-2.289931297E0
9.076142147E0,-3.656233072E0,-8.705088615E0,-2.285145521E0
9.080897460E0,-3.658625841E0,-8.714659691E0,-2.289931297E0
9.085652772E0,-3.661018610E0,-8.757730484E0,-2.273181438E0
9.090408085E0,-3.680161238E0,-8.772088051E0,-2.275574446E0
9.095163345E0,-3.665804386E0,-8.772088051E0,-2.277967215E0
9.099918657E0,-3.661018610E0,-8.791230202E0,-2.263610125E0
9.104673970E0,-3.708875179E0,-8.769695282E0,-2.249253273E0
9.109429282E0,-3.718446493E0,-8.760123253E0,-2.225325108E0
9.114184543E0,-3.754338741E0,-8.740981102E0,-2.249253273E0
9.118939855E0,-3.830909014E0,-8.748159409E0,-2.239681959E0
9.123695168E0,-3.862015724E0,-8.712266922E0,-2.225325108E0
9.128450480E0,-3.873979807E0,-8.788837433E0,-2.244467735E0
9.133205793E0,-3.859622955E0,-8.831908226E0,-2.242074728E0
9.137961053E0,-3.821337700E0,-8.872586250E0,-2.268395901E0
9.142716366E0,-3.778266907E0,-8.901300430E0,-2.304288149E0
9.147471678E0,-3.749552965E0,-8.939585686E0,-2.335394859E0
9.152226991E0,-3.768695593E0,-8.963513374E0,-2.390429735E0
9.156982251E0,-3.768695593E0,-8.985049248E0,-2.426322222E0
9.161737564E0,-3.763910055E0,-8.980263710E0,-2.428714991E0
9.166492876E0,-3.742374659E0,-8.982656479E0,-2.502892494E0
9.171248189E0,-3.751945972E0,-8.965906143E0,-2.536391973E0
9.176003449E0,-3.756731510E0,-8.937192917E0,-2.553141832E0
9.180758762E0,-3.742374659E0,-8.937192917E0,-2.584248543E0
9.185514074E0,-3.732803345E0,-8.910871506E0,-2.600998163E0
9.190269387E0,-3.723232031E0,-8.863015175E0,-2.624926329E0
9.195024647E0,-3.704089403E0,-8.860622406E0,-2.608176708E0
9.199779960E0,-3.680161238E0,-8.836693764E0,-2.557927370E0
9.204535272E0,-3.687339783E0,-8.843872070E0,-2.531606436E0
9.209290585E0,-3.684946775E0,-8.819944382E0,-2.490928411E0
9.214045897E0,-3.704089403E0,-8.819944382E0,-2.428714991E0
9.218801157E0,-3.677768469E0,-8.796015739E0,-2.366501570E0
9.223556470E0,-3.637090445E0,-8.807980537E0,-2.318645239E0
9.228311782E0,-3.586841106E0,-8.793622971E0,-2.261217356E0
9.233067095E0,-3.527020693E0,-8.769695282E0,-2.249253273E0
9.237822355E0,-3.428914785E0,-8.757730484E0,-2.213361025E0
9.242577668E0,-3.404986620E0,-8.743373871E0,-2.189432621E0
9.247332980E0,-3.373879910E0,-8.752944946E0,-2.184647083E0
9.252088241E0,-3.378665686E0,-8.760123253E0,-2.160718918E0
9.256843553E0,-3.369094372E0,-8.779266357E0,-2.143969059E0
9.261598866E0,-3.345165968E0,-8.805587769E0,-2.158325911E0
9.266354178E0,-3.340380430E0,-8.817551613E0,-2.160718918E0
9.271109439E0,-3.412165165E0,-8.879764557E0,-2.155933142E0
9.275864751E0,-3.333201885E0,-8.898907661E0,-2.155933142E0
9.280620064E0,-3.302095175E0,-8.920442581E0,-2.203789711E0
9.285375376E0,-3.340380430E0,-8.968298912E0,-2.225325108E0
9.290130637E0,-3.349951744E0,-9.016156197E0,-2.215753794E0
9.294885949E0,-3.345165968E0,-9.020941734E0,-2.268395901E0
9.299641262E0,-3.352344513E0,-9.047262192E0,-2.304288149E0
9.304396574E0,-3.330809116E0,-9.075976372E0,-2.313859463E0
9.309151835E0,-3.337987661E0,-9.087940216E0,-2.352144718E0
9.313907147E0,-3.299702406E0,-9.068798065E0,-2.378465652E0
9.318662460E0,-3.299702406E0,-9.068798065E0,-2.376072884E0
9.323417772E0,-3.309273720E0,-9.054440498E0,-2.383251429E0
9.328173032E0,-3.323630571E0,-9.044869423E0,-2.414358139E0
9.332928345E0,-3.335594654E0,-9.037691116E0,-2.411965132E0
9.337683657E0,-3.352344513E0,-9.013762474E0,-2.431107759E0
9.342438970E0,-3.421736479E0,-9.006584167E0,-2.416750908E0
9.347194230E0,-3.414557934E0,-9.008976936E0,-2.416750908E0
9.351949543E0,-3.460021496E0,-8.987442017E0,-2.395215511E0
9.356704855E0,-3.481556892E0,-8.997013092E0,-2.383251429E0
9.361460168E0,-3.500699520E0,-8.985049248E0,-2.361716032E0
9.366215428E0,-3.546163082E0,-8.973084450E0,-2.385644197E0
9.370970741E0,-3.543770313E0,-8.956335068E0,-2.376072884E0
9.375726053E0,-3.594019651E0,-8.958727837E0,-2.376072884E0
9.380481366E0,-3.610769272E0,-8.973084450E0,-2.376072884E0
9.385236626E0,-3.644268990E0,-8.937192917E0,-2.361716032E0
9.389991939E0,-3.668197155E0,-8.930013657E0,-2.361716032E0
9.394747251E0,-3.653840065E0,-8.930013657E0,-2.356930256E0
9.399502564E0,-3.675375462E0,-8.903693199E0,-2.359323025E0
9.404257824E0,-3.675375462E0,-8.886942863E0,-2.368894339E0
9.409013137E0,-3.665804386E0,-8.879764557E0,-2.385644197E0
9.413768449E0,-3.665804386E0,-8.858229637E0,-2.385644197E0
9.418523710E0,-3.644268990E0,-8.841479301E0,-2.395215511E0
9.423279022E0,-3.641875982E0,-8.822337151E0,-2.390429735E0
9.428034335E0,-3.637090445E0,-8.791230202E0,-2.378465652E0
9.432789647E0,-3.637090445E0,-8.779266357E0,-2.368894339E0
9.437544907E0,-3.625126362E0,-8.750552177E0,-2.361716032E0
9.442300220E0,-3.622733593E0,-8.714659691E0,-2.347358942E0
9.447055532E0,-3.629911900E0,-8.717052460E0,-2.337787628E0
9.451810793E0,-3.591626883E0,-8.712266922E0,-2.340180635E0
9.456566105E0,-3.594019651E0,-8.697910309E0,-2.328216314E0
9.461321418E0,-3.608376503E0,-8.681160927E0,-2.318645239E0
9.466076730E0,-3.620340586E0,-8.664410591E0,-2.335394859E0
9.470831991E0,-3.641875982E0,-8.693124771E0,-2.330609322E0
9.475587303E0,-3.649054527E0,-8.700303078E0,-2.321038008E0
9.480342616E0,-3.692125320E0,-8.721838951E0,-2.309073925E0
9.485097876E0,-3.696911097E0,-8.726624489E0,-2.297109842E0
9.489853189E0,-3.706482172E0,-8.731410027E0,-2.287538528E0
9.494608501E0,-3.742374659E0,-8.717052460E0,-2.280359983E0
9.499363814E0,-3.756731510E0,-8.743373871E0,-2.270788670E0
9.504119074E0,-3.747160196E0,-8.750552177E0,-2.280359983E0
9.508874387E0,-3.742374659E0,-8.762516975E0,-2.289931297E0
9.513629699E0,-3.749552965E0,-8.784051895E0,-2.299502611E0
9.518385012E0,-3.754338741E0,-8.803194046E0,-2.306680918E0
9.523140272E0,-3.756731510E0,-8.807980537E0,-2.328216314E0
9.527895585E0,-3.775874138E0,-8.843872070E0,-2.321038008E0
9.532650897E0,-3.768695593E0,-8.858229637E0,-2.330609322E0
9.537406157E0,-3.761517286E0,-8.894122124E0,-2.347358942E0
9.542161470E0,-3.739981890E0,-8.896514893E0,-2.354537487E0
9.546916782E0,-3.737588882E0,-8.891729355E0,-2.371287346E0
9.551672043E0,-3.723232031E0,-8.894122124E0,-2.385644197E0
9.556427355E0,-3.720839262E0,-8.894122124E0,-2.411965132E0
9.561182668E0,-3.661018610E0,-8.891729355E0,-2.423929453E0
9.565937980E0,-3.692125320E0,-8.922835350E0,-2.445464849E0
9.570693241E0,-3.692125320E0,-8.930013657E0,-2.457428932E0
9.575448553E0,-3.692125320E0,-8.958727837E0,-2.471785784E0
9.580203866E0,-3.684946775E0,-8.953942299E0,-2.476571321E0
9.584959126E0,-3.708875179E0,-8.944371223E0,-2.469393015E0
9.589714439E0,-3.720839262E0,-8.980263710E0,-2.467000246E0
9.594469751E0,-3.718446493E0,-8.970691681E0,-2.459821701E0
9.599225064E0,-3.720839262E0,-8.973084450E0,-2.443071842E0
9.603980324E0,-3.711267948E0,-8.956335068E0,-2.419143677E0
9.608735637E0,-3.713660717E0,-8.925228119E0,-2.402393818E0
9.613490949E0,-3.699303865E0,-8.896514893E0,-2.380858421E0
9.618246210E0,-3.692125320E0,-8.884550095E0,-2.380858421E0
9.623001522E0,-3.680161238E0,-8.834300995E0,-2.364108801E0
9.627756835E0,-3.677768469E0,-8.781659126E0,-2.321038008E0
9.632512095E0,-3.656233072E0,-8.757730484E0,-2.313859463E0
9.637267407E0,-3.634697676E0,-8.733802795E0,-2.313859463E0
9.642022720E0,-3.605983734E0,-8.700303078E0,-2.297109842E0
9.646778032E0,-3.613162279E0,-8.695517540E0,-2.282752752E0
9.651533293E0,-3.613162279E0,-8.685946465E0,-2.266003132E0
9.656288605E0,-3.582055569E0,-8.697910309E0,-2.261217356E0
9.661043918E0,-3.560520172E0,-8.688339233E0,-2.258824587E0
9.665799178E0,-3.548556089E0,-8.681160927E0,-2.266003132E0
9.670554491E0,-3.546163082E0,-8.693124771E0,-2.266003132E0
9.675309803E0,-3.550948858E0,-8.693124771E0,-2.270788670E0
9.680065116E0,-3.555734396E0,-8.717052460E0,-2.292324066E0
