"Time (s)","Acceleration x (m/s^2)","Acceleration y (m/s^2)","Acceleration z (m/s^2)"
2.943442000E-3,1.732403636E0,4.998606682E0,7.087540627E0
7.698547000E-3,1.907079697E0,4.991427898E0,7.092326164E0
1.254823400E-2,2.062613010E0,4.969892502E0,7.204789162E0
1.720880700E-2,2.146361828E0,4.991427898E0,7.391428947E0
2.196396300E-2,2.105684042E0,5.020142078E0,7.657032490E0
2.671906700E-2,2.088934183E0,5.099104881E0,7.944170952E0
3.147422400E-2,2.072184324E0,5.137390137E0,8.166703224E0
3.622932800E-2,2.024327993E0,5.175675392E0,8.362915039E0
4.098443200E-2,1.959721804E0,5.221138954E0,8.504091263E0
4.573958800E-2,1.823330879E0,5.242674351E0,8.652446747E0
5.049469200E-2,1.686939955E0,5.254638672E0,8.757730484E0
5.524979700E-2,1.485942841E0,5.283352375E0,8.803194046E0
6.000490100E-2,1.349551916E0,5.288137913E0,8.851051331E0
6.476005700E-2,1.244267821E0,5.259424210E0,8.863015175E0
6.951516100E-2,1.177268744E0,5.242674351E0,8.865407944E0
7.427026500E-2,1.165304661E0,5.161318302E0,8.822337151E0
7.902542200E-2,1.177268744E0,5.094319344E0,8.721838951E0
8.378052600E-2,1.196411371E0,5.053641319E0,8.535198212E0
8.853563000E-2,1.239482164E0,5.036891460E0,8.319844246E0
9.329073400E-2,1.241874933E0,5.012963295E0,8.099704742E0
9.804589000E-2,1.261017561E0,5.017749310E0,7.977670670E0
1.028009950E-1,1.268195987E0,5.022534847E0,7.891529083E0
1.075560990E-1,1.332802176E0,5.044070244E0,7.860422611E0
1.123112550E-1,1.380658627E0,5.044070244E0,7.879564762E0
1.170663590E-1,1.445264935E0,5.091926575E0,7.994420528E0
1.218214630E-1,1.454836130E0,5.127819061E0,8.075776100E0
1.265766200E-1,1.490728498E0,5.130211830E0,8.111668587E0
1.313317240E-1,1.476371527E0,5.170889854E0,8.169096947E0
1.360868280E-1,1.409372568E0,5.201996326E0,8.224131584E0
1.408419320E-1,1.344766378E0,5.247459888E0,8.286344528E0
1.455970880E-1,1.304088354E0,5.235496044E0,8.343772888E0
1.503521920E-1,1.275374413E0,5.245067120E0,8.422736168E0
1.551072970E-1,1.268195987E0,5.249852657E0,8.537590981E0
1.598624530E-1,1.304088354E0,5.225924492E0,8.597412109E0
1.646175570E-1,1.366301775E0,5.204389095E0,8.604590416E0
1.693726610E-1,1.383051515E0,5.182853699E0,8.587840080E0
1.741277650E-1,1.366301775E0,5.149354458E0,8.585447311E0
1.788829220E-1,1.325623751E0,5.118247509E0,8.530412674E0
1.836380260E-1,1.363908887E0,5.142175674E0,8.413164139E0
1.883931300E-1,1.323230863E0,5.130211830E0,8.334200859E0
1.931482860E-1,1.227517962E0,5.127819061E0,8.286344528E0
1.979033900E-1,1.177268744E0,5.166104317E0,8.207381248E0
2.026584950E-1,1.150947690E0,5.209175110E0,8.181060791E0
2.074136510E-1,1.143769264E0,5.254638672E0,8.104490280E0
2.121687550E-1,1.153340459E0,5.285745144E0,8.027919769E0
2.169238590E-1,1.160519004E0,5.335994720E0,7.934599876E0
2.216789630E-1,1.208375454E0,5.376672268E0,7.846065521E0
2.264341200E-1,1.280160069E0,5.412564754E0,7.776673794E0
2.311892240E-1,1.330409408E0,5.446064472E0,7.673782349E0
2.359443280E-1,1.373480201E0,5.469992638E0,7.578069210E0
2.406994840E-1,1.433300734E0,5.462814331E0,7.542177200E0
2.454545880E-1,1.483550072E0,5.505885124E0,7.487142086E0
2.502096920E-1,1.517049551E0,5.477170944E0,7.429714203E0
2.549648490E-1,1.502692580E0,5.505885124E0,7.353144169E0
2.597199530E-1,1.464407444E0,5.536991596E0,7.255038261E0
2.644750570E-1,1.366301775E0,5.558526993E0,7.161718369E0
2.692301610E-1,1.275374413E0,5.608776093E0,7.063612461E0
2.739853170E-1,1.198804140E0,5.651846886E0,6.982256413E0
2.787404220E-1,1.122233868E0,5.687739372E0,6.898507595E0
2.834955260E-1,1.107876897E0,5.757131100E0,6.831508636E0
2.882506820E-1,1.033699393E0,5.795416355E0,6.774080753E0
2.930057860E-1,1.004985452E0,5.819344521E0,6.781259537E0
2.977608900E-1,9.547362328E-1,5.883950710E0,6.793223381E0
3.025160470E-1,8.279166222E-1,5.919843197E0,6.853044033E0
3.072711510E-1,5.670989752E-1,5.793023586E0,6.888936520E0
3.120262550E-1,5.144568682E-1,5.833701611E0,6.800402164E0
3.167813590E-1,4.259224236E-1,6.015556335E0,6.733402729E0
3.215365150E-1,3.038884699E-1,6.206982136E0,6.831508636E0
3.262916200E-1,1.794617027E-1,6.360122681E0,7.003791809E0
3.310467240E-1,8.374879509E-2,6.455835342E0,7.054041386E0
3.358018800E-1,0.000000000E0,6.458228111E0,7.042077065E0
3.405569840E-1,-2.871387079E-2,6.496513367E0,7.030112743E0
3.453120880E-1,-2.392822690E-2,6.541976929E0,7.068397999E0
3.500672450E-1,-4.785645287E-3,6.597012043E0,7.085147858E0
3.548223490E-1,-9.571290575E-3,6.597012043E0,7.080362320E0
3.595774530E-1,-3.349951655E-2,6.625725746E0,7.092326164E0
3.643325570E-1,-5.024927482E-2,6.659225464E0,7.128218651E0
3.690877130E-1,-1.052841991E-1,6.719046116E0,7.152146816E0
3.738428170E-1,-2.177468538E-1,6.750152588E0,7.197610378E0
3.785979220E-1,-4.498506486E-1,6.467799664E0,7.156932354E0
3.833530780E-1,-9.355936646E-1,6.324230194E0,6.845865726E0
3.881081820E-1,-9.762716293E-1,6.625725746E0,6.666403770E0
3.928632860E-1,-7.992027402E-1,6.908079147E0,6.821937561E0
3.976184420E-1,-5.623133183E-1,7.121040344E0,6.908079147E0
4.023735470E-1,-5.407779217E-1,7.046862602E0,7.255038261E0
4.071286510E-1,-3.708875179E-1,6.999006271E0,7.558926582E0
4.118837550E-1,-6.460621208E-2,7.008577347E0,7.817351341E0
4.166389110E-1,2.632105052E-1,6.948757172E0,7.939385414E0
4.213940150E-1,5.383850932E-1,6.908079147E0,7.922635555E0
4.261491200E-1,6.747759581E-1,6.848258495E0,7.869993687E0
4.309042760E-1,5.623133183E-1,6.577869415E0,7.690532207E0
4.356593800E-1,5.048855543E-1,6.553941250E0,7.467999458E0
4.404144840E-1,6.197410822E-1,6.671189308E0,7.436892986E0
4.451695880E-1,7.034898400E-1,6.790830612E0,7.357929707E0
4.499247450E-1,8.159525394E-1,6.924828529E0,7.250252724E0
4.546798490E-1,7.992027402E-1,6.872186661E0,7.207181931E0
4.594349530E-1,8.590233326E-1,6.819544315E0,7.101897717E0
4.641901090E-1,9.595218897E-1,6.764509678E0,7.109076023E0
4.689452130E-1,9.930213690E-1,6.534798622E0,7.106683254E0
4.737003170E-1,1.086341500E0,6.393621922E0,7.190432072E0
4.784554220E-1,1.237089276E0,6.317051888E0,7.489534855E0
4.832105780E-1,1.397408366E0,6.252445698E0,7.776673794E0
4.879656820E-1,1.473978758E0,6.130411625E0,8.047062874E0
4.927207860E-1,1.351944804E0,5.967699528E0,8.286344528E0
4.974759420E-1,1.081555843E0,5.903093338E0,8.544769287E0
5.022310470E-1,7.752745152E-1,5.840879917E0,8.688339233E0
5.069861510E-1,5.264210105E-1,5.807380676E0,8.669196129E0
5.117413070E-1,4.019941986E-1,5.773880959E0,8.614161491E0
5.164964110E-1,3.684946895E-1,5.730810165E0,8.549555779E0
5.212515150E-1,3.996013701E-1,5.737988472E0,8.475378036E0
5.260066720E-1,4.187439680E-1,5.764309883E0,8.365307808E0
5.307617760E-1,4.163511395E-1,5.826523304E0,8.207381248E0
5.355168800E-1,3.972085714E-1,5.855237007E0,8.063812256E0
5.402719840E-1,3.828516304E-1,5.910272121E0,7.917850018E0
5.450271400E-1,3.924229145E-1,6.020341873E0,7.738388538E0
5.497822450E-1,5.192425251E-1,6.044270039E0,7.621140003E0
5.545373490E-1,6.652047038E-1,6.099305153E0,7.494320393E0
5.592925050E-1,8.015955687E-1,6.214160442E0,7.381857872E0
5.640476090E-1,9.092726111E-1,6.290730953E0,7.329215527E0
5.688027130E-1,9.882357717E-1,6.386443615E0,7.391428947E0
5.735578170E-1,9.619147182E-1,6.446264267E0,7.542177200E0
5.783129740E-1,9.236295223E-1,6.479763508E0,7.769495010E0
5.830680780E-1,9.667003751E-1,6.510870457E0,8.092526436E0
5.878231820E-1,1.040877819E0,6.513263226E0,8.408378601E0
5.925783380E-1,1.119840980E0,6.530013084E0,8.676374435E0
5.973334420E-1,1.189232826E0,6.546762943E0,8.901300430E0
6.020885470E-1,1.208375454E0,6.570691109E0,9.095118523E0
6.068437030E-1,1.210768223E0,6.604190350E0,9.279366493E0
6.115988070E-1,1.174875975E0,6.608976364E0,9.415757179E0
6.163539110E-1,1.036092162E0,6.640082836E0,9.521040916E0
6.211090150E-1,8.829515576E-1,6.666403770E0,9.576076508E0
6.258641720E-1,1.808973908E0,6.544369698E0,1.006660461E1
6.306192760E-1,1.586441398E0,6.611369133E0,9.920642853E0
6.353743800E-1,1.026520967E0,6.838686943E0,9.690931320E0
6.401294840E-1,1.004985452E0,6.893722057E0,9.640682220E0
6.448846400E-1,1.019342422E0,6.929614544E0,9.494720459E0
6.496397450E-1,9.403793216E-1,7.001399040E0,9.248259544E0
6.543948490E-1,9.236295223E-1,6.979863644E0,8.956335068E0
6.591500050E-1,1.021735311E0,6.946363926E0,8.616554260E0
6.639051090E-1,1.194018483E0,6.821937561E0,8.262416840E0
6.686602130E-1,1.385444283E0,6.740581512E0,7.915457249E0
6.734153700E-1,1.586441398E0,6.532405853E0,7.575676441E0
6.781704740E-1,2.002792597E0,6.065805435E0,7.195217609E0
6.829255780E-1,1.986042738E0,5.996413708E0,6.975078106E0
6.876806820E-1,1.880758643E0,6.022734642E0,6.719046116E0
6.924358380E-1,1.840080619E0,6.094519138E0,6.494120598E0
6.971909420E-1,1.737189293E0,6.209374905E0,6.417550564E0
7.019460470E-1,1.691725612E0,6.269195557E0,6.530013084E0
7.067012030E-1,1.730010748E0,6.314659119E0,6.640082836E0
7.114563070E-1,1.957328916E0,6.173482418E0,6.960721016E0
7.162114110E-1,1.797009826E0,6.118447304E0,7.142575741E0
7.209665150E-1,1.842473388E0,5.986842155E0,7.341179848E0
7.257216720E-1,1.773081541E0,5.871986866E0,7.587640762E0
7.304767760E-1,1.584048629E0,5.828916073E0,7.838887215E0
7.352318800E-1,1.402194023E0,5.742774487E0,8.164310455E0
7.399869840E-1,1.217946768E0,5.685346603E0,8.511270523E0
7.447421400E-1,1.040877819E0,5.668596745E0,8.877371788E0
7.494972450E-1,8.685946465E-1,5.613562107E0,9.274580956E0
7.542523490E-1,7.633104324E-1,5.525027275E0,9.707681656E0
7.590075050E-1,7.489534616E-1,5.414957523E0,1.016231823E1
7.637626090E-1,8.039883971E-1,5.352744102E0,1.053320503E1
7.685177130E-1,8.853443861E-1,5.321637630E0,1.079402256E1
7.732728700E-1,9.020941257E-1,5.321637630E0,1.091366386E1
7.780279740E-1,8.853443861E-1,5.347958565E0,1.093041420E1
7.827830780E-1,8.781659007E-1,5.362315655E0,1.084427261E1
7.875381820E-1,8.805587292E-1,5.357530117E0,1.066002464E1
7.922933380E-1,7.633104324E-1,5.352744102E0,1.043749237E1
7.970484420E-1,6.723831892E-1,5.340780258E0,1.025563812E1
8.018035470E-1,6.269195080E-1,5.355136871E0,1.003310490E1
8.065586510E-1,5.718846321E-1,5.395814896E0,9.743574142E0
8.113138070E-1,4.977070987E-1,5.422136307E0,9.480362892E0
8.160689110E-1,4.498506486E-1,5.469992638E0,9.238688469E0
8.208240150E-1,4.522434771E-1,5.467599869E0,9.001798630E0
8.255791720E-1,4.498506486E-1,5.493920803E0,8.786444664E0
8.303342760E-1,4.259224236E-1,5.534598827E0,8.645268440E0
8.350893800E-1,4.115654826E-1,5.587240696E0,8.544769287E0
8.398445360E-1,3.589234054E-1,5.654240131E0,8.494520187E0
8.445996400E-1,3.708875179E-1,5.761917114E0,8.492127419E0
8.493547450E-1,-1.196411327E-1,5.460421085E0,8.384450912E0
8.541098490E-1,-4.450650215E-1,5.324030399E0,8.329415321E0
8.588650050E-1,1.627119333E-1,4.649254322E0,8.003992081E0
8.636201090E-1,4.259224236E-1,4.953142643E0,8.149953842E0
8.683752130E-1,1.962114573E-1,5.436492920E0,8.226524353E0
8.731303170E-1,5.024927482E-2,5.886343479E0,8.209774017E0
8.778854740E-1,-6.699903309E-2,6.254838467E0,8.195417404E0
8.826405780E-1,-2.344966233E-1,6.496513367E0,8.202595711E0
8.873956820E-1,-3.517449200E-1,6.640082836E0,8.128418922E0
8.921508380E-1,-3.924229145E-1,6.647261143E0,7.963313580E0
8.969059420E-1,-3.158525825E-1,6.630511761E0,7.767102242E0
9.016610470E-1,-3.397808075E-1,6.620940208E0,7.563712597E0
9.064162030E-1,-3.613162339E-1,6.585047722E0,7.391428947E0
9.111713070E-1,-4.115654826E-1,6.608976364E0,7.200003147E0
9.159264110E-1,-4.666004181E-1,6.654439926E0,7.006184578E0
9.206815150E-1,-4.737788737E-1,6.678368092E0,6.778866768E0
9.254366720E-1,-1.004985496E-1,6.888936520E0,6.573083878E0
9.301917760E-1,7.178468257E-2,6.910471916E0,6.362515450E0
9.349468800E-1,1.603191197E-1,6.893722057E0,6.151947021E0
9.397019840E-1,2.440679073E-1,6.867401123E0,6.061019897E0
9.444571400E-1,3.924229145E-1,6.824330330E0,6.046662807E0
9.492122450E-1,5.551348329E-1,6.771687984E0,6.113661766E0
9.539673490E-1,6.987041831E-1,6.738188744E0,6.254838467E0
9.587224530E-1,8.087740541E-1,6.675975323E0,6.561119556E0
9.634776090E-1,8.398807645E-1,6.652047157E0,6.977470875E0
9.682327130E-1,8.901300430E-1,6.618547440E0,7.482356548E0
9.729878170E-1,8.422735929E-1,6.597012043E0,8.116454124E0
9.777429740E-1,7.489534616E-1,6.652047157E0,8.853444099E0
9.824980780E-1,5.814558864E-1,6.680760860E0,9.611968994E0
9.872531820E-1,4.211367965E-1,6.738188744E0,1.033938694E1
9.920082860E-1,3.158525825E-1,6.707081795E0,1.096391296E1
9.967634420E-1,1.938186288E-1,6.656832695E0,1.146162033E1
1.001518547E0,1.196411345E-2,6.549155712E0,1.183968639E1
1.006273651E0,-1.770688742E-1,6.501298904E0,1.204307652E1
1.011028755E0,-3.254238665E-1,6.405586243E0,1.206461143E1
1.015783911E0,-4.857429862E-1,6.309873104E0,1.191147137E1
1.020539015E0,-6.556333899E-1,6.250052929E0,1.165543938E1
1.025294120E0,-7.848458290E-1,6.154339790E0,1.131326580E1
1.030049276E0,-9.332008362E-1,6.084948063E0,1.090409279E1
1.034804380E0,-9.619147182E-1,6.017949104E0,1.047338486E1
1.039559484E0,-9.355936646E-1,5.965306759E0,1.006660461E1
1.044314588E0,-9.810572863E-1,5.962913990E0,9.734002113E0
1.049069745E0,-1.002592683E0,6.056233883E0,9.480362892E0
1.053824849E0,-1.052842021E0,6.166304111E0,9.188439369E0
1.058579953E0,-1.203589797E0,6.307480335E0,8.877371788E0
1.063335109E0,-1.347159147E0,6.372086525E0,8.652446747E0
1.068090213E0,-1.316052437E0,6.386443615E0,8.580661774E0
1.072845317E0,-1.241874933E0,6.340980053E0,8.542376518E0
1.077600422E0,-1.148554921E0,6.254838467E0,8.489734650E0
1.082355578E0,-9.906286001E-1,6.151947021E0,8.496912956E0
1.087110682E0,-8.757730722E-1,6.075376511E0,8.575876236E0
1.091865786E0,-7.657032609E-1,6.065805435E0,8.645268440E0
1.096620890E0,-7.561319470E-1,6.034698486E0,8.714659691E0
1.101376047E0,-7.489534616E-1,6.008377552E0,8.745766640E0
1.106131151E0,-7.202396393E-1,5.998806477E0,8.738588333E0
1.110886255E0,-7.298108935E-1,5.998806477E0,8.752944946E0
1.115641359E0,-7.106683254E-1,5.994020939E0,8.772088051E0
1.120396515E0,-6.867401004E-1,5.996413708E0,8.831908226E0
1.125151620E0,-6.340979934E-1,5.953342915E0,8.975478172E0
1.129906724E0,-6.699903607E-1,5.958128452E0,9.116654396E0
1.134661828E0,-6.221339107E-1,5.924628735E0,9.233902931E0
1.139416984E0,-5.910272002E-1,5.883950710E0,9.327222824E0
1.144172088E0,-5.694918036E-1,5.831308842E0,9.382257462E0
1.148927192E0,-4.713860750E-1,5.773880959E0,9.449256897E0
1.153682349E0,-3.613162339E-1,5.699703693E0,9.420542717E0
1.158437453E0,-2.344966233E-1,5.682953835E0,9.341579437E0
1.163192557E0,-1.100698411E-1,5.630311489E0,9.267401695E0
1.167947661E0,-7.178467698E-3,5.603990555E0,9.166903496E0
1.172702817E0,8.135596663E-2,5.539384365E0,9.071190834E0
1.177457922E0,1.507478207E-1,5.472385406E0,8.951549530E0
1.182213026E0,1.842473447E-1,5.434100151E0,8.829515457E0
1.186968130E0,2.201396823E-1,5.417350292E0,8.743373871E0
1.191723286E0,2.297109663E-1,5.359922886E0,8.640482903E0
1.196478390E0,2.440679073E-1,5.331208706E0,8.511270523E0
1.201233495E0,2.991028428E-1,5.326423168E0,8.324629784E0
1.205988599E0,3.421736360E-1,5.307280540E0,8.123632431E0
1.210743755E0,3.924229145E-1,5.290530682E0,7.886743546E0
1.215498859E0,4.474578202E-1,5.259424210E0,7.688138962E0
1.220253963E0,5.503492355E-1,5.302495003E0,7.527820110E0
1.225009067E0,6.412764788E-1,5.324030399E0,7.401000500E0
1.229764224E0,7.537391186E-1,5.357530117E0,7.355536938E0
1.234519328E0,8.518448472E-1,5.393422127E0,7.281359196E0
1.239274432E0,9.308080077E-1,5.398207664E0,7.223931789E0
1.244029536E0,9.595218897E-1,5.388636589E0,7.185646534E0
1.248784692E0,9.906286001E-1,5.369493961E0,7.092326164E0
1.253539797E0,9.714859724E-1,5.434100151E0,6.989434719E0
1.258294901E0,1.002592683E0,5.541777134E0,7.008577347E0
1.263050005E0,1.093519926E0,5.577669621E0,7.085147858E0
1.267805161E0,1.287338614E0,5.697310925E0,7.147361279E0
1.272560265E0,1.466800332E0,5.831308842E0,7.290930748E0
1.277315370E0,1.622333765E0,5.984449387E0,7.475177765E0
1.282070526E0,1.727617979E0,6.065805435E0,7.685746193E0
1.286825630E0,1.500299811E0,5.986842155E0,7.834101200E0
1.291580734E0,1.488335729E0,6.228517532E0,7.977670670E0
1.296335838E0,1.646261930E0,6.460621357E0,8.370093346E0
1.301090995E0,1.832902193E0,6.561119556E0,8.748159409E0
1.305846099E0,1.902294040E0,6.386443615E0,9.111868858E0
1.310601203E0,1.978864312E0,6.240481377E0,9.442078590E0
1.315356307E0,2.072184324E0,6.183053493E0,9.750752449E0
1.320111411E0,2.093719721E0,6.125626087E0,9.932606697E0
1.324866567E0,2.055434704E0,6.041877270E0,9.946963310E0
1.329621672E0,2.031506538E0,5.970092297E0,9.858428955E0
1.334376776E0,1.883151412E0,5.912664890E0,9.652647018E0
1.339131880E0,1.689332843E0,5.816951752E0,9.363115311E0
1.343887036E0,1.342373490E0,5.670989513E0,8.997013092E0
1.348642140E0,1.148554921E0,5.757131100E0,8.657232285E0
1.353397245E0,9.379864931E-1,5.795416355E0,8.362915039E0
1.358152401E0,7.298108935E-1,5.706882000E0,7.970492363E0
1.362907505E0,5.359922647E-1,5.606383324E0,7.633104324E0
1.367662609E0,4.283152521E-1,5.565705299E0,7.369893551E0
1.372417713E0,3.421736360E-1,5.529813290E0,7.075576782E0
1.377172817E0,2.751746178E-1,5.477170944E0,6.731009960E0
1.381927974E0,2.512463629E-1,5.443671703E0,6.400800705E0
1.386683078E0,1.435693651E-1,5.441278458E0,6.070590973E0
1.391438182E0,1.172483116E-1,5.429314613E0,5.752345562E0
1.396193286E0,9.571290575E-3,5.460421085E0,5.467599869E0
1.400948442E0,-1.004985496E-1,5.520241737E0,5.223531723E0
1.405703547E0,-2.632105052E-1,5.615954876E0,5.120640278E0
1.410458651E0,-2.584248483E-1,5.692524910E0,5.139782906E0
1.415213755E0,-2.488535494E-1,5.697310925E0,5.218746185E0
1.419968911E0,-4.331009090E-1,5.960521221E0,5.417350292E0
1.424724015E0,-4.450650215E-1,6.106483459E0,5.757131100E0
1.429479120E0,-4.115654826E-1,6.302694798E0,6.245266914E0
1.434234224E0,-2.799602449E-1,6.472585201E0,6.788437843E0
1.438989380E0,-1.028913707E-1,6.640082836E0,7.348358154E0
1.443744484E0,8.853443712E-2,6.778866768E0,7.893921852E0
1.448499588E0,3.062812984E-1,6.884150982E0,8.551948547E0
1.453254692E0,5.000999570E-1,6.934400082E0,9.253045082E0
1.458009797E0,6.771687865E-1,6.936792850E0,9.951749802E0
1.462764953E0,9.116654396E-1,6.922435760E0,1.065763187E1
1.467520057E0,1.222732425E0,6.872186661E0,1.130848026E1
1.472275161E0,1.495514154E0,6.905686378E0,1.176790142E1
1.477030265E0,1.732403636E0,6.941578388E0,1.209811115E1
1.481785422E0,1.883151412E0,7.015756130E0,1.238525009E1
1.486540526E0,1.995614052E0,7.073183537E0,1.260060406E1
1.491295630E0,2.033899307E0,7.152146816E0,1.268674564E1
1.496050734E0,2.036292076E0,7.152146816E0,1.261256790E1
1.500805890E0,2.024327993E0,7.142575741E0,1.244507027E1
1.505560995E0,2.021935225E0,7.070790768E0,1.210528946E1
1.510316099E0,2.000399828E0,6.975078106E0,1.161954689E1
1.515071203E0,1.895115495E0,6.833901405E0,1.104048347E1
1.519826307E0,1.741974831E0,6.685546398E0,1.042074299E1
1.524581463E0,1.555334687E0,6.541976929E0,9.815358162E0
1.529336567E0,1.325623751E0,6.405586243E0,9.231510162E0
1.534091672E0,1.088734269E0,6.343372822E0,8.743373871E0
1.538846776E0,8.374879360E-1,6.297909260E0,8.358129501E0
1.543601932E0,6.173482537E-1,6.250052929E0,8.078168869E0
1.548357036E0,4.259224236E-1,6.221338749E0,7.865208149E0
1.553112140E0,3.230310678E-1,6.168696880E0,7.791030407E0
1.557867245E0,2.632105052E-1,6.077769279E0,7.750352383E0
1.562622349E0,2.368894368E-1,6.013163090E0,7.762316704E0
1.567377505E0,2.464607358E-1,5.950950146E0,7.838887215E0
1.572132609E0,2.751746178E-1,5.826523304E0,7.927421570E0
1.576887713E0,3.206382394E-1,5.735595703E0,7.999206066E0
1.581642817E0,3.110669553E-1,5.606383324E0,7.968099594E0
1.586397974E0,3.421736360E-1,5.472385406E0,7.896314621E0
1.591153078E0,3.541377485E-1,5.328815937E0,7.764709473E0
1.595908182E0,3.397808075E-1,5.168497086E0,7.587640762E0
1.600663286E0,3.637090325E-1,5.003392220E0,7.348358154E0
1.605418390E0,3.182454109E-1,4.876572609E0,7.125825882E0
1.610173547E0,1.770688742E-1,4.788038254E0,6.845865726E0
1.614928651E0,1.914258115E-2,4.709074974E0,6.563512325E0
1.619683755E0,-9.571290761E-2,4.668396950E0,6.317051888E0
1.624438859E0,-1.746760458E-1,4.615755081E0,6.108876228E0
1.629193963E0,-1.938186288E-1,4.572684288E0,5.919843197E0
1.633949120E0,-9.092725813E-2,4.816751957E0,5.711667538E0
1.638704224E0,1.674975902E-1,4.960321426E0,5.630311489E0
1.643459328E0,2.632105052E-1,4.991427898E0,5.668596745E0
1.648214432E0,1.148554832E-1,4.981856823E0,5.850451469E0
1.652969588E0,-1.651047617E-1,5.024927616E0,5.927021503E0
1.657724692E0,-4.091726840E-1,5.101497650E0,6.077769279E0
1.662479797E0,-5.718846321E-1,5.132604599E0,6.314659119E0
1.667234901E0,-7.848458290E-1,5.175675392E0,6.683153629E0
1.671990005E0,-8.829515576E-1,5.314459324E0,7.058826923E0
1.676745161E0,-8.087740541E-1,5.443671703E0,7.310073376E0
1.681500265E0,-6.508477330E-1,5.577669621E0,7.630711555E0
1.686255370E0,-6.317051649E-1,5.718846321E0,8.032705307E0
1.691010474E0,-5.814558864E-1,5.883950710E0,8.370093346E0
1.695765630E0,-8.111668825E-1,6.080162525E0,8.915657043E0
1.700520734E0,-8.518448472E-1,6.252445698E0,9.401400566E0
1.705275838E0,-7.441678643E-1,6.367300987E0,9.889535904E0
1.710030942E0,-6.053841114E-1,6.441478729E0,1.045184898E1
1.714786047E0,-4.977070987E-1,6.486942291E0,1.100459099E1
1.719541151E0,-3.445664644E-1,6.539584160E0,1.158126163E1
1.724296307E0,-6.699903309E-2,6.532405853E0,1.205504036E1
1.729051411E0,1.579262912E-1,6.491727829E0,1.255992603E1
1.733806515E0,3.828516304E-1,6.458228111E0,1.300738430E1
1.738561620E0,6.197410822E-1,6.396014690E0,1.341177082E1
1.743316776E0,8.446664214E-1,6.324230194E0,1.373958778E1
1.748071880E0,1.040877819E0,6.218945980E0,1.387119293E1
1.752826984E0,1.265803218E0,6.135197163E0,1.386401463E1
1.757582088E0,1.440479279E0,6.022734642E0,1.364866066E1
1.762337192E0,1.526620865E0,5.965306759E0,1.321555901E1
1.767092349E0,1.617548108E0,5.821737289E0,1.271306705E1
1.771847453E0,1.730010748E0,5.673382282E0,1.216271782E1
1.776602557E0,1.868794441E0,5.438885689E0,1.155972576E1
1.781357661E0,1.952543259E0,5.190032482E0,1.098066330E1
1.786112765E0,2.026720762E0,4.950749874E0,1.044945621E1
1.790867870E0,2.105684042E0,4.663611412E0,9.939785004E0
1.795623026E0,2.172683001E0,4.383651257E0,9.451649666E0
1.800378130E0,2.256431818E0,4.086941242E0,9.028120041E0
1.805133234E0,2.313859463E0,3.876372576E0,8.662017822E0
1.809888338E0,2.395215511E0,3.620340586E0,8.331808090E0
1.814643442E0,2.462214470E0,3.469592810E0,8.056633949E0
1.819398599E0,2.490928411E0,3.282952785E0,7.850851059E0
1.824153703E0,2.481357098E0,3.129812002E0,7.666603565E0
1.828908807E0,2.400001049E0,2.993421078E0,7.470392227E0
1.833663911E0,2.268395901E0,2.852244616E0,7.233502865E0
1.838419015E0,2.261217356E0,2.780459881E0,7.063612461E0
1.843174120E0,2.749353170E0,3.029313564E0,6.783652306E0
1.847929276E0,2.845066071E0,2.775674343E0,6.793223381E0
1.852684380E0,2.677568436E0,2.589034081E0,6.929614544E0
1.857439484E0,2.569891453E0,2.488535643E0,7.027719975E0
1.862194588E0,2.517249346E0,2.435893536E0,7.223931789E0
1.866949692E0,2.110469580E0,2.691925526E0,7.192824841E0
1.871704849E0,2.215753794E0,2.646461725E0,7.544569969E0
1.876459953E0,2.148754835E0,2.718246460E0,7.456035137E0
1.881215057E0,2.220539331E0,2.761317253E0,7.424928665E0
1.885970161E0,2.335394859E0,2.670390129E0,7.575676441E0
1.890725265E0,2.368894339E0,2.495713949E0,7.738388538E0
1.895480370E0,2.349751949E0,2.313859463E0,7.898707390E0
1.900235526E0,2.368894339E0,2.036292076E0,8.063812256E0
1.904990630E0,2.313859463E0,1.727617979E0,8.274380684E0
1.909745734E0,2.237289190E0,1.347159147E0,8.422736168E0
1.914500838E0,2.189432621E0,1.026520967E0,8.616554260E0
1.919255942E0,2.088934183E0,6.915257573E-1,8.834300995E0
1.924011099E0,2.033899307E0,3.661018610E-1,9.011369705E0
1.928766203E0,1.966900229E0,1.148554832E-1,9.111868858E0
1.933521307E0,1.921436548E0,-1.220339537E-1,9.219545364E0
1.938276411E0,1.859223247E0,-3.278166950E-1,9.312865257E0
1.943031515E0,1.875972986E0,-5.718846321E-1,9.379864693E0
1.947786620E0,1.828116536E0,-7.968099117E-1,9.360722542E0
1.952541776E0,1.275374413E0,-7.322037220E-1,9.150154114E0
1.957296880E0,5.862415433E-1,-2.895315289E-1,8.932407379E0
1.962051984E0,-1.866401732E-1,4.498506486E-1,8.714659691E0
1.966807088E0,-9.020941257E-1,1.155733347E0,8.635697365E0
1.971562192E0,-1.380658627E0,1.813759565E0,8.654839516E0
1.976317297E0,-1.208375454E0,2.579462767E0,8.611768723E0
1.981072453E0,-8.446664214E-1,3.316452265E0,8.506484032E0
1.985827557E0,-4.474578202E-1,3.948157310E0,8.573483467E0
1.990582661E0,-1.172483116E-1,4.503292084E0,8.774480820E0
1.995337765E0,7.657032460E-2,4.917250633E0,9.080761909E0
2.000092870E0,3.014956415E-1,5.204389095E0,9.384650230E0
2.004847974E0,5.168496966E-1,5.443671703E0,9.738788605E0
2.009603078E0,7.298108935E-1,5.632704735E0,1.012403297E1
2.014358234E0,9.643075466E-1,5.730810165E0,1.051167011E1
2.019113338E0,1.203589797E0,5.788238049E0,1.085862923E1
2.023868442E0,1.423729420E0,5.831308842E0,1.110748291E1
2.028623547E0,1.615155339E0,5.795416355E0,1.125823021E1
2.033378651E0,1.768295884E0,5.764309883E0,1.124626637E1
2.038133807E0,1.856830359E0,5.682953835E0,1.110987568E1
2.042888911E0,1.911865234E0,5.565705299E0,1.086580753E1
2.047644015E0,1.938186288E0,5.388636589E0,1.057627583E1
2.052399120E0,1.954936147E0,5.213960648E0,1.031067276E1
2.057154224E0,1.986042738E0,5.020142078E0,1.010010433E1
2.061909328E0,2.012363911E0,4.802394867E0,9.915857315E0
2.066664432E0,2.019542217E0,4.587040901E0,9.753145218E0
2.071419588E0,2.024327993E0,4.386044025E0,9.592825890E0
2.076174692E0,1.959721804E0,4.182653904E0,9.384650230E0
2.080929797E0,1.842473388E0,4.017549038E0,9.147761345E0
2.085684901E0,1.708475351E0,3.885943890E0,8.906085968E0
2.090440005E0,1.517049551E0,3.799802303E0,8.657232285E0
2.095195109E0,1.328016520E0,3.730410576E0,8.432307243E0
2.099950213E0,1.083948612E0,3.744767427E0,8.262416840E0
2.104705370E0,8.255237937E-1,3.747160196E0,8.130811691E0
2.109460474E0,5.623133183E-1,3.723232031E0,8.015955925E0
2.114215578E0,2.823530734E-1,3.718446493E0,7.960920811E0
2.118970682E0,3.828516230E-2,3.704089403E0,7.953742504E0
2.123725786E0,-1.698904037E-1,3.670589924E0,8.011170387E0
2.128480890E0,-3.589234054E-1,3.656233072E0,8.099704742E0
2.133235995E0,-4.642075896E-1,3.503092289E0,8.214560509E0
2.137991151E0,-5.718846321E-1,3.503092289E0,8.358129501E0
2.142746255E0,-6.580262184E-1,3.517449379E0,8.482556343E0
2.147501359E0,-7.537391186E-1,3.529413462E0,8.602197647E0
2.152256463E0,-8.255237937E-1,3.493520975E0,8.743373871E0
2.157011567E0,-8.422735929E-1,3.505485058E0,8.822337151E0
2.161766672E0,-8.350951076E-1,3.452843189E0,8.863015175E0
2.166521828E0,-7.178468108E-1,3.419343472E0,8.858229637E0
2.171276932E0,-5.718846321E-1,3.460021496E0,8.815158844E0
2.176032036E0,-4.378865361E-1,3.471985579E0,8.764909744E0
2.180787140E0,-3.756731451E-1,3.450450182E0,8.671588898E0
2.185542245E0,-3.038884699E-1,3.462414265E0,8.568697929E0
2.190297349E0,-1.698904037E-1,3.503092289E0,8.513663292E0
2.195052453E0,-1.148554832E-1,3.574877024E0,8.494520187E0
2.199807609E0,-5.024927258E-1,3.680161238E0,8.573483467E0
2.204562713E0,-3.278166950E-1,3.763910055E0,8.678768158E0
2.209317817E0,-4.067798331E-2,3.909872293E0,8.796015739E0
2.214072922E0,5.982056633E-2,4.063013077E0,8.812766075E0
2.218828026E0,2.225325108E-1,4.168296814E0,8.836693764E0
2.223583130E0,4.666004181E-1,4.321437836E0,8.913264275E0
2.228338234E0,4.331009090E-1,4.508078098E0,8.922835350E0
2.233093338E0,8.853443861E-1,4.539184570E0,8.901300430E0
2.237848495E0,7.585247755E-1,4.673182487E0,9.030512810E0
2.242603599E0,6.293123364E-1,4.642076015E0,9.111868858E0
2.247358703E0,5.814558864E-1,4.694717884E0,9.341579437E0
2.252113807E0,4.977070987E-1,4.716253281E0,9.458827972E0
2.256868911E0,4.307080805E-1,4.766502857E0,9.556933403E0
2.261624015E0,3.206382394E-1,4.785645485E0,9.597611427E0
2.266379120E0,2.201396823E-1,4.756931305E0,9.623932838E0
2.271134224E0,1.483550072E-1,4.728217602E0,9.614361763E0
2.275889328E0,5.503492057E-2,4.670789719E0,9.489934921E0
2.280644484E0,1.914258115E-2,4.606183529E0,9.329615593E0
2.285399588E0,-9.092725813E-2,4.539184570E0,9.178867340E0
2.290154692E0,-1.268195957E-1,4.486542225E0,9.018548965E0
2.294909797E0,-2.177468538E-1,4.438685894E0,8.851051331E0
2.299664901E0,-2.488535494E-1,4.381258488E0,8.673981667E0
2.304420005E0,-2.273181528E-1,4.359723091E0,8.559126854E0
2.309175109E0,-1.339980662E-1,4.283152580E0,8.396414757E0
2.313930213E0,2.871387079E-2,4.180261135E0,8.231309891E0
2.318685370E0,1.627119333E-1,4.082155228E0,8.121239662E0
2.323440474E0,2.488535494E-1,3.991228104E0,8.011170387E0
2.328195578E0,4.091726840E-1,3.895515203E0,7.958528042E0
2.332950682E0,4.929214716E-1,3.897907972E0,7.896314621E0
2.337705786E0,5.886343718E-1,3.828516245E0,7.829315662E0
2.342460890E0,5.742774606E-1,3.850051641E0,7.779066563E0
2.347215995E0,5.288137794E-1,3.847658873E0,7.740781307E0
2.351971099E0,4.067798555E-1,3.979264021E0,7.788637638E0
2.356726203E0,4.953143001E-1,4.314259052E0,7.831708431E0
2.361481307E0,4.307080805E-1,4.247260094E0,8.066205025E0
2.366236463E0,9.810572863E-2,4.393222332E0,8.068597794E0
2.370991567E0,-9.571290761E-2,4.433900356E0,8.202595711E0
2.375746672E0,-2.967100143E-1,4.510470867E0,8.358129501E0
2.380501776E0,-5.335994363E-1,4.553541660E0,8.513663292E0
2.385256880E0,-6.532405615E-1,4.656432629E0,8.700303078E0
2.390011984E0,-4.977070987E-1,4.895715237E0,8.805587769E0
2.394767088E0,-9.212366939E-1,4.795216560E0,9.042476654E0
2.399522192E0,-1.177268744E0,4.912465096E0,9.013762474E0
2.404277349E0,-1.186840057E0,4.981856823E0,9.028120041E0
2.409032453E0,-1.270588875E0,5.027320385E0,9.162117958E0
2.413787557E0,-1.308874011E0,5.123033047E0,9.341579437E0
2.418542661E0,-1.306481123E0,5.096712112E0,9.544969559E0
2.423297765E0,-1.239482164E0,5.010570526E0,9.585647583E0
2.428052870E0,-1.208375454E0,5.000999451E0,9.576076508E0
2.432807974E0,-1.174875975E0,5.041677475E0,9.561718941E0
2.437563078E0,-1.237089276E0,5.017749310E0,9.559326172E0
2.442318182E0,-1.241874933E0,4.967499733E0,9.501898766E0
2.447073286E0,-1.165304661E0,4.792823792E0,9.506684303E0
2.451828390E0,-1.071984529E0,4.575077057E0,9.463613510E0
2.456583547E0,-9.738788009E-1,4.419543266E0,9.451649666E0
2.461338651E0,-8.542376757E-1,4.295116425E0,9.473184586E0
2.466093755E0,-7.489534616E-1,4.182653904E0,9.434899330E0
2.470848859E0,-6.771687865E-1,4.074976921E0,9.406186104E0
2.475603963E0,-6.029912829E-1,3.955335855E0,9.360722542E0
2.480359067E0,-5.551348329E-1,3.909872293E0,9.272188187E0
2.485114172E0,-5.168496966E-1,3.866801500E0,9.202795982E0
2.489869276E0,-4.977070987E-1,3.835694790E0,9.131011009E0
2.494624380E0,-5.216353536E-1,3.799802303E0,9.008976936E0
2.499379484E0,-5.575276613E-1,3.811766386E0,8.891729355E0
2.504134588E0,-6.484549642E-1,3.823730469E0,8.781659126E0
2.508889745E0,-7.274180651E-1,3.869194269E0,8.635697365E0
2.513644849E0,-8.063812256E-1,3.857230186E0,8.506484032E0
2.518399953E0,-8.973084688E-1,3.900300980E0,8.398807526E0
2.523155057E0,-9.475577474E-1,3.897907972E0,8.312665939E0
2.527910161E0,-9.834501147E-1,3.864408493E0,8.252845764E0
2.532665265E0,-1.009771109E0,3.850051641E0,8.231309891E0
2.537420370E0,-1.057627559E0,3.936193228E0,8.161917686E0
2.542175474E0,-1.146162033E0,3.929014683E0,8.070990562E0
2.546930578E0,-1.064806104E0,3.802195072E0,7.972885132E0
2.551685682E0,-1.045663476E0,3.742374659E0,7.896314621E0
2.556440786E0,-1.007378340E0,3.728017569E0,7.841279984E0
2.561195890E0,-1.036092162E0,3.862015724E0,7.791030407E0
2.565951047E0,-1.182054400E0,4.067798615E0,7.822137356E0
2.570706151E0,-1.237089276E0,4.259224415E0,8.006384850E0
2.575461255E0,-1.201196909E0,4.512863636E0,8.212167740E0
2.580216359E0,-1.167697430E0,4.728217602E0,8.348558426E0
2.584971463E0,-1.026520967E0,4.847858906E0,8.551948547E0
2.589726567E0,-8.805587292E-1,4.943571568E0,8.695517540E0
2.594481672E0,-6.819544435E-1,5.000999451E0,8.779266357E0
2.599236776E0,-4.689932466E-1,5.000999451E0,8.829515457E0
2.603991880E0,-2.512463629E-1,5.008177757E0,8.941978455E0
2.608746984E0,-2.536391914E-1,5.051248550E0,9.085547447E0
2.613502088E0,-1.028913707E-1,5.096712112E0,9.339186668E0
2.618257192E0,5.503492057E-2,5.149354458E0,9.609575272E0
2.623012297E0,4.067798331E-2,5.192425251E0,9.781859398E0
2.627767401E0,1.339980662E-1,5.280959606E0,1.001156998E1
2.632522557E0,2.488535494E-1,5.367101192E0,1.013121128E1
2.637277661E0,1.842473447E-1,5.383851051E0,1.033938694E1
2.642032765E0,2.057827413E-1,5.249852657E0,1.042313576E1
2.646787870E0,3.038884699E-1,5.434100151E0,1.047099209E1
2.651542974E0,1.842473447E-1,5.551348686E0,1.037049294E1
2.656298078E0,8.374879509E-2,5.556134224E0,1.005942631E1
2.661053182E0,3.517449200E-1,5.326423168E0,9.686145782E0
2.665808286E0,5.168496966E-1,5.134997368E0,9.343972206E0
2.670563390E0,9.355936646E-1,4.840680122E0,8.941978455E0
2.675318495E0,8.422735929E-1,4.790431023E0,8.434700012E0
2.680073599E0,5.479564071E-1,4.867001057E0,7.965706348E0
2.684828703E0,2.201396823E-1,4.989035130E0,7.549355507E0
2.689583807E0,-6.699903309E-2,5.180460930E0,7.156932354E0
2.694338911E0,-2.536391914E-1,5.340780258E0,6.814758778E0
2.699094067E0,-3.828516304E-1,5.477170944E0,6.549155712E0
2.703849172E0,-4.426721931E-1,5.589633465E0,6.309873104E0
2.708604276E0,-4.594219327E-1,5.730810165E0,6.132804394E0
2.713359380E0,-4.929214716E-1,5.838487148E0,6.041877270E0
2.718114484E0,-4.857429862E-1,5.960521221E0,6.015556335E0
2.722869588E0,-4.283152521E-1,6.068198204E0,6.005984783E0
2.727624692E0,-4.522434771E-1,6.187839508E0,6.053841114E0
2.732379797E0,-3.565305769E-1,6.297909260E0,6.178267956E0
2.737134901E0,-3.302095234E-1,6.376872540E0,6.309873104E0
2.741890005E0,-2.943171859E-1,6.429514408E0,6.520441532E0
2.746645109E0,-5.934200287E-1,6.424728870E0,6.695117950E0
2.751400213E0,-3.349951804E-1,6.407979012E0,7.015756130E0
2.756155317E0,-3.038884699E-1,6.434299946E0,7.231110096E0
2.760910422E0,-4.378865361E-1,6.448657036E0,7.424928665E0
2.765665526E0,-6.005984545E-1,6.451049805E0,7.671389580E0
2.770420630E0,-5.575276613E-1,6.541976929E0,7.865208149E0
2.775175734E0,-8.662018180E-1,6.546762943E0,7.956135273E0
2.779930838E0,-7.992027402E-1,6.608976364E0,8.159524918E0
2.784685942E0,-6.771687865E-1,6.692724705E0,8.350951195E0
2.789441047E0,-7.944171429E-1,6.733402729E0,8.453842163E0
2.794196203E0,-7.345965505E-1,6.759724140E0,8.633303642E0
2.798951307E0,-3.637090325E-1,6.843472958E0,8.860622406E0
2.803706411E0,-5.886343718E-1,6.826723099E0,8.918049812E0
2.808461515E0,-1.531406492E-1,6.771687984E0,9.126225471E0
2.813216620E0,1.316052526E-1,6.709474564E0,9.286544800E0
2.817971724E0,2.823530734E-1,6.482156754E0,9.334401131E0
2.822726828E0,1.866401732E-1,6.412764549E0,9.403793335E0
2.827481932E0,4.689932466E-1,6.372086525E0,9.425328255E0
2.832237036E0,5.718846321E-1,6.259624004E0,9.224330902E0
2.836992140E0,7.585247755E-1,6.063412666E0,9.085547447E0
2.841747245E0,6.795616150E-1,5.816951752E0,8.834300995E0
2.846502349E0,8.733802438E-1,5.565705299E0,8.554341316E0
2.851257453E0,1.040877819E0,5.458028316E0,8.338987350E0
2.856012557E0,9.978070259E-1,5.362315655E0,7.925028801E0
2.860767661E0,9.571290612E-1,5.333601475E0,7.695317745E0
2.865522765E0,8.757730722E-1,5.324030399E0,7.398607731E0
2.870277870E0,7.034898400E-1,5.307280540E0,7.111468792E0
2.875032974E0,5.790630579E-1,5.350351334E0,6.891329288E0
2.879788078E0,4.618147612E-1,5.357530117E0,6.683153629E0
2.884543182E0,3.876372576E-1,5.383851051E0,6.503692150E0
2.889298286E0,3.326023519E-1,5.412564754E0,6.369693756E0
2.894053390E0,3.062812984E-1,5.419743061E0,6.262016773E0
2.898808495E0,2.991028428E-1,5.469992638E0,6.168696880E0
2.903563599E0,3.086741269E-1,5.527420521E0,6.156732559E0
2.908318703E0,2.943171859E-1,5.580062389E0,6.195017815E0
2.913073807E0,3.134597540E-1,5.651846886E0,6.302694798E0
2.917828911E0,3.302095234E-1,5.694917679E0,6.508477688E0
2.922584067E0,3.445664644E-1,5.757131100E0,6.740581512E0
2.927339120E0,3.732803464E-1,5.826523304E0,6.994220734E0
2.932094276E0,3.732803464E-1,5.862415314E0,7.259823799E0
2.936849380E0,3.804588020E-1,5.936593056E0,7.566105366E0
2.941604484E0,4.283152521E-1,5.991627693E0,7.872386456E0
2.946359588E0,4.857429862E-1,6.032305717E0,8.164310455E0
2.951114692E0,5.120640397E-1,6.053841114E0,8.475378036E0
2.955869797E0,5.168496966E-1,6.092126369E0,8.791230202E0
2.960624901E0,5.192425251E-1,6.082555294E0,9.090332985E0
2.965380005E0,5.168496966E-1,6.056233883E0,9.353543282E0
2.970135109E0,5.024927258E-1,5.991627693E0,9.556933403E0
2.974890213E0,5.264210105E-1,5.919843197E0,9.714859962E0
2.979645317E0,5.144568682E-1,5.843272686E0,9.793823242E0
2.984400422E0,4.905286431E-1,5.764309883E0,9.793823242E0
2.989155526E0,4.737788737E-1,5.687739372E0,9.731609344E0
2.993910630E0,4.522434771E-1,5.661418438E0,9.626325607E0
2.998665734E0,4.091726840E-1,5.623133183E0,9.463613510E0
3.003420838E0,4.019941986E-1,5.565705299E0,9.276973724E0
3.008175942E0,3.852444589E-1,5.599205017E0,9.092725754E0
3.012931047E0,3.254238665E-1,5.594419479E0,8.946763992E0
3.017686151E0,2.297109663E-1,5.613562107E0,8.872586250E0
3.022441255E0,1.435693651E-1,5.625525951E0,8.836693764E0
3.027196359E0,9.571290761E-2,5.702096462E0,8.863015175E0
3.031951463E0,1.196411345E-2,5.778666496E0,8.944371223E0
3.036706567E0,-1.914258115E-2,5.845665932E0,9.001798630E0
3.041461672E0,-5.982056633E-2,5.903093338E0,9.056833267E0
3.046216776E0,-1.339980662E-1,5.953342915E0,9.152546883E0
3.050971880E0,-2.105683982E-1,6.017949104E0,9.236295700E0
3.055726984E0,-2.727817893E-1,6.053841114E0,9.355937004E0
3.060482088E0,-3.038884699E-1,6.022734642E0,9.425328255E0
3.065237192E0,-3.637090325E-1,6.046662807E0,9.480362892E0
3.069992297E0,-3.732803464E-1,6.003592014E0,9.516255379E0
3.074747401E0,-3.637090325E-1,5.955735683E0,9.518648148E0
3.079502505E0,-3.373879790E-1,5.879165173E0,9.449256897E0
3.084257609E0,-2.512463629E-1,5.788238049E0,9.327222824E0
3.089012713E0,-2.249253243E-1,5.747560024E0,9.133403778E0
3.093767817E0,-2.297109663E-1,5.704489231E0,8.906085968E0
3.098522922E0,-3.230310678E-1,5.663811207E0,8.592626572E0
3.103278026E0,-4.091726840E-1,5.656632900E0,8.317451477E0
3.108033130E0,-4.546363056E-1,5.663811207E0,8.030312538E0
3.112788234E0,-5.407779217E-1,5.632704735E0,7.745566845E0
3.117543338E0,-5.838487148E-1,5.649454117E0,7.453642368E0
3.122298442E0,-6.149554253E-1,5.675775528E0,7.233502865E0
3.127053547E0,-5.718846321E-1,5.685346603E0,7.085147858E0
3.131808651E0,-5.192425251E-1,5.728417397E0,6.979863644E0
3.136563755E0,-4.713860750E-1,5.788238049E0,7.003791809E0
3.141318859E0,-3.804588020E-1,5.879165173E0,7.121040344E0
3.146073963E0,-3.110669553E-1,5.929414749E0,7.262216568E0
3.150829067E0,-1.842473447E-1,5.984449387E0,7.422535896E0
3.155584172E0,-2.392822690E-2,6.005984783E0,7.534998417E0
3.160339276E0,1.579262912E-1,5.986842155E0,7.618747234E0
3.165094380E0,3.373879790E-1,5.955735683E0,7.649854183E0
3.169849484E0,4.881358147E-1,5.898307800E0,7.659425259E0
3.174604588E0,5.838487148E-1,5.833701611E0,7.690532207E0
3.179359692E0,6.652047038E-1,5.804987907E0,7.716853142E0
3.184114797E0,7.034898400E-1,5.766702652E0,7.779066563E0
3.188869901E0,7.609176040E-1,5.716453075E0,7.922635555E0
3.193625005E0,7.992027402E-1,5.690132141E0,8.109275818E0
3.198380109E0,8.446664214E-1,5.632704735E0,8.370093346E0
3.203135213E0,8.781659007E-1,5.575276852E0,8.650053978E0
3.207890317E0,9.164510965E-1,5.510670662E0,8.896514893E0
3.212645422E0,8.805587292E-1,5.446064472E0,9.047262192E0
3.217400526E0,8.566305041E-1,5.371886730E0,9.056833267E0
3.222155630E0,7.872386575E-1,5.285745144E0,8.913264275E0
3.226910734E0,6.628118753E-1,5.221138954E0,8.642875671E0
3.231665838E0,5.216353536E-1,5.197210789E0,8.276773453E0
3.236420942E0,4.139583111E-1,5.178068161E0,7.891529083E0
3.241176047E0,3.038884699E-1,5.213960648E0,7.532605648E0
3.245931099E0,1.722832322E-1,5.211567879E0,7.271788120E0
3.250686255E0,2.153540403E-2,5.252245903E0,7.101897717E0
3.255441307E0,-1.004985496E-1,5.347958565E0,7.013363361E0
3.260196411E0,-2.703889608E-1,5.467599869E0,7.037291527E0
3.264951515E0,-3.876372576E-1,5.560919762E0,7.123433113E0
3.269706620E0,-5.168496966E-1,5.721239090E0,7.317251682E0
3.274461724E0,-6.628118753E-1,5.838487148E0,7.508677483E0
3.279216828E0,-7.704889178E-1,5.955735683E0,7.695317745E0
3.283971932E0,-9.020941257E-1,6.144768715E0,7.946564198E0
3.288727036E0,-9.284151793E-1,6.199803352E0,8.181060791E0
3.293482140E0,-8.949156404E-1,6.278766632E0,8.446663857E0
3.298237245E0,-9.954141974E-1,6.522834301E0,8.762516975E0
3.302992349E0,-1.127019525E0,6.716653347E0,8.999405861E0
3.307747453E0,-1.234696507E0,6.848258495E0,9.212367058E0
3.312502557E0,-1.268195987E0,6.939185619E0,9.379864693E0
3.317257661E0,-1.268195987E0,6.967899323E0,9.535398483E0
3.322012765E0,-1.208375454E0,6.960721016E0,9.743574142E0
3.326767870E0,-1.119840980E0,6.934400082E0,9.951749802E0
3.331522974E0,-9.714859724E-1,6.838686943E0,1.015274620E1
3.336278078E0,-8.015955687E-1,6.735795975E0,1.032263660E1
3.341033182E0,-6.125625968E-1,6.644868374E0,1.043988514E1
3.345788286E0,-3.924229145E-1,6.527620316E0,1.045184898E1
3.350543390E0,-2.273181528E-1,6.360122681E0,1.032742214E1
3.355298495E0,4.546362907E-2,6.104090691E0,1.005224800E1
3.360053599E0,2.273181528E-1,5.919843197E0,9.686145782E0
3.364808703E0,3.756731451E-1,5.709274769E0,9.198010445E0
3.369563807E0,4.929214716E-1,5.498706341E0,8.633303642E0
3.374318911E0,6.245267391E-1,5.304887772E0,8.063812256E0
3.379074015E0,7.298108935E-1,5.182853699E0,7.458428383E0
3.383829067E0,8.087740541E-1,5.123033047E0,6.838686943E0
3.388584172E0,7.800601721E-1,5.113461971E0,6.216553211E0
3.393339276E0,2.512463629E-1,5.099104881E0,5.730810165E0
3.398094380E0,3.086741269E-1,5.087141037E0,5.362315655E0
3.402849484E0,4.331009090E-1,5.213960648E0,5.094319344E0
3.407604588E0,2.823530734E-1,5.383851051E0,4.711467743E0
3.412359692E0,5.096712112E-1,5.630311489E0,4.579862595E0
3.417114797E0,4.881358147E-1,5.946164131E0,4.560719967E0
3.421869901E0,4.163511395E-1,6.252445698E0,4.670789719E0
3.426625005E0,3.110669553E-1,6.513263226E0,4.989035130E0
3.431380109E0,2.679961324E-1,6.714260101E0,5.412564754E0
3.436135213E0,3.349951804E-1,6.912864685E0,5.862415314E0
3.440890317E0,5.024927258E-1,7.049255371E0,6.357729912E0
3.445645422E0,7.154539824E-1,7.094718933E0,6.910471916E0
3.450400526E0,9.595218897E-1,7.116254330E0,7.496713161E0
3.455155630E0,1.153340459E0,7.106683254E0,8.116454124E0
3.459910734E0,1.253839016E0,7.077969551E0,8.709874153E0
3.464665838E0,1.227517962E0,6.951149940E0,9.320044518E0
3.469420890E0,1.086341500E0,6.848258495E0,9.942177773E0
3.474176047E0,8.877372146E-1,6.757331371E0,1.049013424E1
3.478931099E0,7.274180651E-1,6.656832695E0,1.092802143E1
3.483686203E0,5.718846321E-1,6.589833736E0,1.125344467E1
3.488441307E0,4.091726840E-1,6.496513367E0,1.146640587E1
3.493196411E0,3.397808075E-1,6.374479294E0,1.159801102E1
3.497951515E0,2.799602449E-1,6.278766632E0,1.165304661E1
3.502706620E0,2.177468538E-1,6.149554253E0,1.165304661E1
3.507461724E0,1.914258152E-1,5.967699528E0,1.157886887E1
3.512216828E0,1.770688742E-1,5.790630817E0,1.150947666E1
3.516971932E0,1.698904037E-1,5.589633465E0,1.133240795E1
3.521727036E0,1.339980662E-1,5.438885689E0,1.110269737E1
3.526482140E0,1.052841991E-1,5.283352375E0,1.083948612E1
3.531237245E0,4.785645287E-3,5.127819061E0,1.054038334E1
3.535992349E0,-1.124626622E-1,4.996213913E0,1.023170948E1
3.540747453E0,-2.033899277E-1,4.831109047E0,9.901499748E0
3.545502505E0,-2.679961324E-1,4.704289436E0,9.616754532E0
3.550257609E0,-3.326023519E-1,4.548755646E0,9.348757744E0
3.555012713E0,-3.254238665E-1,4.409972191E0,9.085547447E0
3.559767817E0,-3.014956415E-1,4.304687977E0,8.786444664E0
3.564522922E0,-3.134597540E-1,4.201796532E0,8.528019905E0
3.569278026E0,-3.134597540E-1,4.101297855E0,8.317451477E0
3.574033130E0,-3.972085714E-1,4.115654945E0,8.111668587E0
3.578788234E0,-4.450650215E-1,3.976871252E0,7.934599876E0
3.583543338E0,-5.192425251E-1,3.857230186E0,7.814958572E0
3.588298442E0,-5.766702294E-1,3.739981890E0,7.695317745E0
3.593053547E0,-5.838487148E-1,3.548556089E0,7.635497093E0
3.597808651E0,-5.862415433E-1,3.349951744E0,7.575676441E0
3.602563703E0,-6.197410822E-1,3.194418192E0,7.518248558E0
3.607318807E0,-6.819544435E-1,3.031706333E0,7.444071293E0
3.612073911E0,-6.436693072E-1,2.880958557E0,7.403393269E0
3.616829015E0,-6.221339107E-1,2.770888567E0,7.367500782E0
3.621584120E0,-5.670989752E-1,2.627319336E0,7.334001541E0
3.626339224E0,-4.594219327E-1,2.455035925E0,7.357929707E0
3.631094328E0,-3.565305769E-1,2.325823545E0,7.310073376E0
3.635849432E0,-3.326023519E-1,2.333002090E0,7.293323517E0
3.640604536E0,-2.943171859E-1,2.313859463E0,7.267002583E0
3.645359640E0,-1.698904037E-1,2.263610125E0,7.219145775E0
3.650114745E0,-1.387837082E-1,2.306680918E0,7.171289444E0
3.654869797E0,-1.555334777E-1,2.397608280E0,7.168896675E0
3.659624901E0,-2.177468538E-1,2.591426849E0,7.216753006E0
3.664380005E0,-2.799602449E-1,2.847458839E0,7.331608772E0
3.669135109E0,-3.278166950E-1,3.139383316E0,7.496713161E0
3.673890213E0,-3.661018610E-1,3.457628727E0,7.680960655E0
3.678645317E0,-3.804588020E-1,3.780659676E0,7.936992645E0
3.683400422E0,-3.804588020E-1,4.106083870E0,8.245666504E0
3.688155526E0,-3.804588020E-1,4.429114819E0,8.563912392E0
3.692910630E0,-2.751746178E-1,4.651647091E0,8.944371223E0
3.697665734E0,-2.033899277E-1,4.950749874E0,9.336793900E0
3.702420838E0,-1.986042857E-1,5.264209747E0,9.698110580E0
3.707175890E0,-2.392822653E-1,5.613562107E0,1.001874828E1
3.711930995E0,-2.775674164E-1,5.965306759E0,1.028435135E1
3.716686099E0,-3.349951804E-1,6.317051888E0,1.046859932E1
3.721441203E0,-4.139583111E-1,6.652047157E0,1.060738277E1
3.726196307E0,-4.689932466E-1,6.984649181E0,1.071745300E1
3.730951411E0,-5.479564071E-1,7.343572617E0,1.081795120E1
3.735706515E0,-6.245267391E-1,7.613961697E0,1.095673466E1
3.740461620E0,-6.939185858E-1,7.853243828E0,1.107398319E1
3.745216724E0,-7.393822074E-1,8.078168869E0,1.123190975E1
3.749971776E0,-6.867401004E-1,8.250452042E0,1.134437180E1
3.754726880E0,-5.407779217E-1,8.288737297E0,1.142572784E1
3.759481984E0,-3.924229145E-1,8.190631866E0,1.147358418E1
3.764237088E0,-2.560320199E-1,8.003992081E0,1.144247818E1
3.768992192E0,-1.052841991E-1,7.745566845E0,1.129651546E1
3.773747297E0,-1.196411345E-2,7.484749317E0,1.112901783E1
3.778502401E0,7.178467698E-3,7.214360237E0,1.080838013E1
3.783257505E0,-2.392822690E-2,6.920042992E0,1.046859932E1
3.788012609E0,-9.571290575E-3,6.659225464E0,1.007617569E1
3.792767661E0,3.589234129E-2,6.362515450E0,9.664610863E0
3.797522765E0,1.363908947E-1,6.087340832E0,9.243474007E0
3.802277870E0,2.392822653E-1,5.857629776E0,8.824729919E0
3.807032974E0,2.608176768E-1,5.644668579E0,8.463413239E0
3.811788078E0,1.579262912E-1,5.465207100E0,8.059026718E0
3.816543182E0,1.268195957E-1,5.335994720E0,7.668996811E0
3.821298286E0,2.368894368E-1,5.108676434E0,7.314858913E0
3.826053390E0,3.996013701E-1,4.888536453E0,6.960721016E0
3.830808495E0,5.048855543E-1,4.632504463E0,6.611369133E0
3.835563547E0,6.675975323E-1,4.352544308E0,6.305087566E0
3.840318651E0,9.140582681E-1,4.094119549E0,6.029912949E0
3.845073755E0,8.973084688E-1,3.888336897E0,5.776273727E0
3.849828859E0,7.369893789E-1,3.692125320E0,5.551348686E0
3.854583963E0,7.489534616E-1,3.507878065E0,5.324030399E0
3.859339067E0,8.638089895E-1,3.369094372E0,5.099104881E0
3.864094172E0,9.523434043E-1,3.249453068E0,4.919643402E0
3.868849276E0,1.012163997E0,3.180061340E0,4.764110088E0
3.873604328E0,9.762716293E-1,3.055634499E0,4.642076015E0
3.878359432E0,9.068797827E-1,2.991028309E0,4.644468784E0
3.883114536E0,8.374879360E-1,2.969492912E0,4.816751957E0
3.887869640E0,7.872386575E-1,2.969492912E0,5.046463013E0
3.892624745E0,7.872386575E-1,2.952743053E0,5.288137913E0
3.897379849E0,8.063812256E-1,2.995813847E0,5.615954876E0
3.902134953E0,7.082754970E-1,3.113062143E0,5.895915031E0
3.906890005E0,6.101697683E-1,3.251846075E0,6.266802311E0
3.911645109E0,4.713860750E-1,3.412165165E0,6.640082836E0
3.916400213E0,3.541377485E-1,3.505485058E0,7.092326164E0
3.921155317E0,3.397808075E-1,3.567698479E0,7.664210796E0
3.925910422E0,5.216353536E-1,3.610769272E0,8.233702660E0
3.930665526E0,7.298108935E-1,3.663411379E0,8.781659126E0
3.935420630E0,9.499505758E-1,3.814159393E0,9.317651749E0
3.940175682E0,1.131805062E0,4.010370731E0,9.784252167E0
3.944930786E0,1.162911773E0,4.266402721E0,1.019103146E1
3.949685890E0,1.234696507E0,4.472185612E0,1.052124119E1
3.954440995E0,1.237089276E0,4.735395908E0,1.082991505E1
3.959196099E0,1.153340459E0,5.010570526E0,1.115055370E1
3.963951203E0,1.014556766E0,5.273781300E0,1.139940739E1
3.968706307E0,8.183453679E-1,5.563312531E0,1.156929779E1
3.973461359E0,6.053841114E-1,5.848058701E0,1.166022491E1
3.978216463E0,3.684946895E-1,6.135197163E0,1.162911797E1
3.982971567E0,1.531406492E-1,6.398407936E0,1.157169056E1
3.987726672E0,-9.092725813E-2,6.630511761E0,1.148554897E1
3.992481776E0,-2.967100143E-1,6.819544315E0,1.132283688E1
3.997236880E0,-4.713860750E-1,6.963113785E0,1.114337540E1
4.001991984E0,-6.364908218E-1,7.056434155E0,1.092084217E1
4.006747036E0,-8.135597110E-1,7.116254330E0,1.066720295E1
4.011502140E0,-9.499505758E-1,7.130611420E0,1.035852909E1
4.016257245E0,-1.062413216E0,7.118647575E0,1.004028416E1
4.021012349E0,-1.165304661E0,7.106683254E0,9.757930756E0
4.025767453E0,-1.289731383E0,7.068397999E0,9.521040916E0
4.030522557E0,-1.368694544E0,7.020541668E0,9.332008362E0
4.035277609E0,-1.409372568E0,7.003791809E0,9.133403778E0
4.040032713E0,-1.481157184E0,6.912864685E0,8.985049248E0
4.044787817E0,-1.488335729E0,6.800402164E0,8.870193481E0
4.049542922E0,-1.433300734E0,6.628118515E0,8.743373871E0
4.054298026E0,-1.361516118E0,6.460621357E0,8.597412109E0
4.059053130E0,-1.251446247E0,6.233303070E0,8.463413239E0
4.063808182E0,-1.237089276E0,5.994020939E0,8.298309326E0
4.068563286E0,-1.189232826E0,5.733202934E0,8.126026154E0
4.073318390E0,-1.170090318E0,5.503491879E0,7.936992645E0
4.078073495E0,-1.170090318E0,5.285745144E0,7.721638680E0
4.082828599E0,-1.134197950E0,5.051248550E0,7.501499176E0
4.087583703E0,-1.064806104E0,4.823930264E0,7.276573658E0
4.092338755E0,-1.007378340E0,4.618147850E0,7.073183537E0
4.097093859E0,-9.667003751E-1,4.455435753E0,6.917650223E0
4.101848963E0,-8.997012973E-1,4.309473515E0,6.819544315E0
4.106604067E0,-8.015955687E-1,4.149154663E0,6.778866768E0
4.111359172E0,-7.154539824E-1,4.019941807E0,6.752545357E0
4.116114276E0,-6.221339107E-1,3.895515203E0,6.774080753E0
4.120869328E0,-5.312066078E-1,3.809373617E0,6.809973240E0
4.125624432E0,-4.115654826E-1,3.718446493E0,6.862615108E0
4.130379536E0,-3.182454109E-1,3.675375462E0,6.910471916E0
4.135134640E0,-2.560320199E-1,3.613162279E0,6.967899323E0
4.139889745E0,-2.416750938E-1,3.550948858E0,7.030112743E0
4.144644849E0,-2.392822653E-1,3.515056372E0,7.097112179E0
4.149399901E0,-2.632105052E-1,3.493520975E0,7.128218651E0
4.154155005E0,-3.014956415E-1,3.486342669E0,7.180860519E0
4.158910109E0,-3.349951804E-1,3.488735437E0,7.221538544E0
4.163665213E0,-3.661018610E-1,3.527020693E0,7.278966427E0
4.168420317E0,-4.115654826E-1,3.562912941E0,7.360322475E0
4.173175370E0,-4.331009090E-1,3.603590965E0,7.477570534E0
4.177930474E0,-4.689932466E-1,3.672982693E0,7.640282631E0
4.182685578E0,-4.905286431E-1,3.732803345E0,7.843672752E0
4.187440682E0,-5.192425251E-1,3.804588079E0,8.106883049E0
4.192195786E0,-5.455635786E-1,3.871587038E0,8.360522270E0
4.196950890E0,-5.910272002E-1,3.972085476E0,8.676374435E0
4.201705942E0,-5.886343718E-1,4.058227062E0,8.975478172E0
4.206461047E0,-6.101697683E-1,4.175475597E0,9.253045082E0
4.211216151E0,-6.149554253E-1,4.268795490E0,9.523433685E0
4.215971255E0,-6.197410822E-1,4.383651257E0,9.803394318E0
4.220726359E0,-6.652047038E-1,4.481756687E0,1.013360405E1
4.225481411E0,-6.580262184E-1,4.596612453E0,1.042074299E1
4.230236515E0,-6.508477330E-1,4.713860512E0,1.073898792E1
4.234991620E0,-6.436693072E-1,4.819144726E0,1.101416302E1
4.239746724E0,-6.125625968E-1,4.890929699E0,1.123669529E1
4.244501828E0,-5.599204898E-1,4.965106964E0,1.140419292E1
4.249256880E0,-5.024927258E-1,5.020142078E0,1.151186943E1
4.254011984E0,-4.546363056E-1,5.096712112E0,1.154536915E1
4.258767088E0,-4.019941986E-1,5.115854740E0,1.154776192E1
4.263522192E0,-3.493520916E-1,5.132604599E0,1.153340530E1
4.268277297E0,-2.943171859E-1,5.137390137E0,1.149272728E1
4.273032349E0,-2.632105052E-1,5.099104881E0,1.142333508E1
4.277787453E0,-2.536391914E-1,5.024927616E0,1.134197903E1
4.282542557E0,-2.464607358E-1,4.967499733E0,1.121515942E1
4.287297661E0,-2.656033039E-1,4.888536453E0,1.106919765E1
4.292052765E0,-2.392822653E-1,4.783252239E0,1.090170002E1
4.296807817E0,-1.818545163E-1,4.704289436E0,1.069352436E1
4.301562922E0,-1.148554832E-1,4.603790760E0,1.045902824E1
4.306318026E0,-2.871387079E-2,4.460221291E0,1.019581699E1
4.311073130E0,6.460621208E-2,4.321437836E0,9.889535904E0
4.315828234E0,1.339980662E-1,4.201796532E0,9.554540634E0
4.320583286E0,1.770688742E-1,4.070191383E0,9.176474571E0
4.325338390E0,1.674975902E-1,3.960121393E0,8.810373306E0
4.330093495E0,1.387837082E-1,3.838087559E0,8.434700012E0
4.334848599E0,1.028913707E-1,3.742374659E0,8.039883614E0
4.339603703E0,5.742774159E-2,3.644268990E0,7.613961697E0
4.344358755E0,-7.896314561E-2,3.682554007E0,7.202396393E0
4.349113859E0,-1.435693651E-1,3.661018610E0,6.754938126E0
4.353868963E0,-1.196411327E-1,3.519842148E0,6.379265308E0
4.358624067E0,-1.100698411E-1,3.443271875E0,6.065805435E0
4.363379120E0,-1.459621787E-1,3.414557934E0,5.819344521E0
4.368134224E0,-2.392822653E-1,3.455235958E0,5.654240131E0
4.372889328E0,-3.637090325E-1,3.548556089E0,5.565705299E0
4.377644432E0,-5.192425251E-1,3.704089403E0,5.563312531E0
4.382399536E0,-6.245267391E-1,3.850051641E0,5.680561066E0
4.387154588E0,-7.393822074E-1,4.015156269E0,5.852844238E0
4.391909692E0,-8.063812256E-1,4.192225456E0,6.080162525E0
4.396664797E0,-9.284151793E-1,4.304687977E0,6.266802311E0
4.401419901E0,-9.762716293E-1,4.455435753E0,6.515655994E0
4.406175005E0,-1.048056364E0,4.601397991E0,6.821937561E0
4.410930057E0,-1.000199914E0,4.620540619E0,7.140182972E0
4.415685161E0,-1.000199914E0,4.740181446E0,7.551748276E0
4.420440265E0,-1.088734269E0,4.950749874E0,8.015955925E0
4.425195370E0,-1.141376376E0,5.041677475E0,8.446663857E0
4.429950422E0,-1.165304661E0,5.115854740E0,8.851051331E0
4.434705526E0,-1.203589797E0,5.245067120E0,9.286544800E0
4.439460630E0,-1.191625714E0,5.278566837E0,9.662218094E0
4.444215734E0,-1.143769264E0,5.292923450E0,1.002114105E1
4.448970838E0,-1.052842021E0,5.252245903E0,1.035135078E1
4.453725890E0,-9.595218897E-1,5.213960648E0,1.066481018E1
4.458480995E0,-8.183453679E-1,5.151747227E0,1.090887833E1
4.463236099E0,-6.819544435E-1,5.096712112E0,1.106201935E1
4.467991203E0,-4.881358147E-1,5.008177757E0,1.109551907E1
4.472746255E0,-3.373879790E-1,4.914857864E0,1.105962658E1
4.477501359E0,-1.986042857E-1,4.792823792E0,1.093998528E1
4.482256463E0,-5.503492057E-2,4.711467743E0,1.072463131E1
4.487011567E0,6.460621208E-2,4.608576298E0,1.048056316E1
4.491766620E0,2.153540403E-1,4.524827480E0,1.016710377E1
4.496521724E0,3.014956415E-1,4.433900356E0,9.817750931E0
4.501276828E0,3.661018610E-1,4.383651257E0,9.470791817E0
4.506031932E0,3.852444589E-1,4.362115860E0,9.152546883E0
4.510786984E0,3.900300860E-1,4.345366001E0,8.860622406E0
4.515542088E0,3.541377485E-1,4.328616142E0,8.556734085E0
4.520297192E0,2.823530734E-1,4.321437836E0,8.315058708E0
4.525052297E0,2.225325108E-1,4.314259052E0,8.106883049E0
4.529807349E0,1.674975902E-1,4.297509670E0,7.910671711E0
4.534562453E0,9.810572863E-2,4.275974274E0,7.791030407E0
4.539317557E0,3.349951655E-2,4.264009953E0,7.695317745E0
4.544072661E0,-2.153540403E-2,4.264009953E0,7.685746193E0
4.548827713E0,-9.810572863E-2,4.275974274E0,7.721638680E0
4.553582817E0,-1.746760458E-1,4.254438877E0,7.814958572E0
4.558337922E0,-2.536391914E-1,4.252045631E0,7.941778183E0
4.563093026E0,-3.326023519E-1,4.216153622E0,8.070990562E0
4.567848078E0,-3.924229145E-1,4.192225456E0,8.233702660E0
4.572603182E0,-4.402793646E-1,4.149154663E0,8.389236450E0
4.577358286E0,-5.431707501E-1,4.134797573E0,8.551948547E0
4.582113390E0,-6.173482537E-1,4.130012035E0,8.702695847E0
4.586868442E0,-7.345965505E-1,4.130012035E0,8.860622406E0
4.591623547E0,-8.494520187E-1,4.113262177E0,8.989834785E0
4.596378651E0,-9.858429432E-1,4.118047714E0,9.128618240E0
4.601133755E0,-1.129412293E0,4.130012035E0,9.265008926E0
4.605888807E0,-1.249053478E0,4.084548473E0,9.367900848E0
4.610643911E0,-1.301695466E0,4.077369690E0,9.492327690E0
4.615399015E0,-1.409372568E0,4.084548473E0,9.578469276E0
4.620154120E0,-1.476371527E0,4.067798615E0,9.662218094E0
4.624909172E0,-1.581655741E0,4.058227062E0,9.722038269E0
4.629664276E0,-1.651047587E0,4.055834293E0,9.796216011E0
4.634419380E0,-1.703689694E0,4.065405846E0,9.834501266E0
4.639174484E0,-1.768295884E0,4.043870449E0,9.851250648E0
4.643929536E0,-1.887937069E0,4.055834293E0,9.851250648E0
4.648684640E0,-2.007578135E0,4.051048756E0,9.836894035E0
4.653439745E0,-2.079362869E0,4.043870449E0,9.824930191E0
4.658194849E0,-2.175075769E0,4.043870449E0,9.829715729E0
4.662949901E0,-2.246860504E0,4.000799656E0,9.789037704E0
4.667705005E0,-2.299502611E0,3.979264021E0,9.753145218E0
4.672460109E0,-2.349751949E0,3.936193228E0,9.722038269E0
4.677215213E0,-2.364108801E0,3.921836376E0,9.695717812E0
4.681970265E0,-2.344966173E0,3.847658873E0,9.669396400E0
4.686725370E0,-2.301895380E0,3.804588079E0,9.611968994E0
4.691480474E0,-2.225325108E0,3.744767427E0,9.528220177E0
4.696235526E0,-2.103291035E0,3.684946775E0,9.399007797E0
4.700990630E0,-1.954936147E0,3.632304668E0,9.231510162E0
4.705745734E0,-1.840080619E0,3.555734396E0,9.030512810E0
4.710500838E0,-1.732403636E0,3.531806231E0,8.848658562E0
4.715255890E0,-1.622333765E0,3.512663603E0,8.664410591E0
4.720010995E0,-1.550549030E0,3.479164124E0,8.530412674E0
4.724766099E0,-1.490728498E0,3.445664644E0,8.415556908E0
4.729521151E0,-1.428515077E0,3.412165165E0,8.305487633E0
4.734276255E0,-1.387837172E0,3.407379389E0,8.200202942E0
4.739031359E0,-1.344766378E0,3.390629768E0,8.126026154E0
4.743786463E0,-1.318445325E0,3.371487141E0,8.030312538E0
4.748541515E0,-1.339980721E0,3.381058455E0,7.977670670E0
4.753296620E0,-1.354337573E0,3.414557934E0,7.925028801E0
4.758051724E0,-1.418943882E0,3.455235958E0,7.908278942E0
4.762806776E0,-1.500299811E0,3.491128206E0,7.898707390E0
4.767561880E0,-1.550549030E0,3.538984776E0,7.893921852E0
4.772316984E0,-1.639083505E0,3.598805189E0,7.886743546E0
4.777072088E0,-1.677368641E0,3.663411379E0,7.922635555E0
4.781827140E0,-1.753939033E0,3.696911097E0,7.960920811E0
4.786582245E0,-1.804188251E0,3.728017569E0,8.063812256E0
4.791337349E0,-1.864008784E0,3.768695593E0,8.173882484E0
4.796092453E0,-1.703689694E0,3.749552965E0,8.336593628E0
4.800847505E0,-1.897508383E0,3.804588079E0,8.525627136E0
4.805602609E0,-2.189432621E0,3.766302824E0,8.602197647E0
4.810357713E0,-2.352144718E0,3.828516245E0,8.642875671E0
4.815112765E0,-2.285145521E0,3.840480328E0,8.721838951E0
4.819867870E0,-2.330609322E0,3.957728624E0,8.772088051E0
4.824622974E0,-2.457428932E0,4.000799656E0,8.805587769E0
4.829378026E0,-2.409572363E0,3.996013880E0,8.843872070E0
4.834133130E0,-2.414358139E0,4.048655987E0,8.951549530E0
4.838888234E0,-2.392822742E0,4.077369690E0,9.080761909E0
4.843643338E0,-2.342573404E0,4.101297855E0,9.231510162E0
4.848398390E0,-2.368894339E0,4.101297855E0,9.370293617E0
4.853153495E0,-2.347358942E0,4.082155228E0,9.528220177E0
4.857908599E0,-2.294716835E0,4.015156269E0,9.707681656E0
4.862663651E0,-2.282752752E0,3.952943087E0,9.872786522E0
4.867418755E0,-2.234896421E0,3.881158352E0,1.003071213E1
4.872173859E0,-2.196611166E0,3.821337700E0,1.013599682E1
4.876928911E0,-2.191825628E0,3.785445452E0,1.021496010E1
4.881684015E0,-2.189432621E0,3.701696634E0,1.029631615E1
4.886439120E0,-2.143969059E0,3.672982693E0,1.036331463E1
4.891194224E0,-2.110469580E0,3.615555048E0,1.042313576E1
4.895949276E0,-2.069791555E0,3.582055569E0,1.048056316E1
4.900704380E0,-2.014756680E0,3.572484255E0,1.046620655E1
4.905459484E0,-1.933400750E0,3.538984776E0,1.043749237E1
4.910214536E0,-1.801795483E0,3.510270834E0,1.033699417E1
4.914969640E0,-1.720439434E0,3.503092289E0,1.026042366E1
4.919724745E0,-1.636690736E0,3.522234917E0,1.014556789E1
4.924479797E0,-1.581655741E0,3.493520975E0,1.001156998E1
4.929234901E0,-1.576870084E0,3.498306751E0,9.877572060E0
4.933990005E0,-1.574477315E0,3.488735437E0,9.719645500E0
4.938745109E0,-1.588834286E0,3.486342669E0,9.540184021E0
4.943500161E0,-1.591227055E0,3.467200041E0,9.375079155E0
4.948255265E0,-1.390229940E0,3.299702406E0,9.221938133E0
4.953010370E0,-1.529013634E0,3.321237803E0,9.052047729E0
4.957765422E0,-1.761117458E0,3.438486099E0,8.807980537E0
4.962520526E0,-2.067398787E0,3.555734396E0,8.618947029E0
4.967275630E0,-2.110469580E0,3.541377544E0,8.437092781E0
4.972030682E0,-2.074577332E0,3.548556089E0,8.343772888E0
4.976785786E0,-2.115255117E0,3.560520172E0,8.243273735E0
4.981540890E0,-2.153540373E0,3.517449379E0,8.207381248E0
4.986295942E0,-2.141576290E0,3.483949661E0,8.216953278E0
4.991051047E0,-2.163111687E0,3.464807272E0,8.264809608E0
4.995806151E0,-2.203789711E0,3.471985579E0,8.350951195E0
5.000561203E0,-2.227717876E0,3.474378586E0,8.456234932E0
5.005316307E0,-2.244467735E0,3.493520975E0,8.528019905E0
5.010071411E0,-2.306680918E0,3.527020693E0,8.590232849E0
5.014826463E0,-2.254039049E0,3.759124279E0,8.671588898E0
5.019581567E0,-2.390429735E0,3.732803345E0,8.743373871E0
5.024336672E0,-2.636890650E0,3.620340586E0,8.750552177E0
5.029091724E0,-2.790031195E0,3.476771355E0,8.726624489E0
5.033846828E0,-2.864208698E0,3.500699520E0,8.748159409E0
5.038601932E0,-2.945564747E0,3.579662561E0,8.805587769E0
5.043356984E0,-3.067598581E0,3.706482172E0,8.867800713E0
5.048112088E0,-3.170490026E0,3.790230989E0,8.932407379E0
5.052867192E0,-3.213560820E0,3.771088600E0,8.963513374E0
5.057622245E0,-3.287738323E0,3.790230989E0,8.963513374E0
5.062377349E0,-3.342773199E0,3.823730469E0,8.965906143E0
5.067132453E0,-3.397808075E0,3.881158352E0,8.958727837E0
5.071887505E0,-3.416950703E0,3.948157310E0,8.932407379E0
5.076642609E0,-3.426522017E0,4.031906128E0,8.894122124E0
5.081397713E0,-3.464807272E0,4.132404804E0,8.870193481E0
5.086152765E0,-3.457628727E0,4.218546391E0,8.843872070E0
5.090907870E0,-3.407379389E0,4.275974274E0,8.815158844E0
5.095662974E0,-3.326023579E0,4.354937077E0,8.786444664E0
5.100418026E0,-3.273381472E0,4.409972191E0,8.772088051E0
5.105173130E0,-3.203989506E0,4.438685894E0,8.767302513E0
5.109928234E0,-3.120240688E0,4.436293125E0,8.781659126E0
5.114683286E0,-2.967100143E0,4.429114819E0,8.815158844E0
5.119438390E0,-2.825923443E0,4.407579422E0,8.836693764E0
5.124193495E0,-2.689532757E0,4.362115860E0,8.891729355E0
5.128948547E0,-2.617748022E0,4.345366001E0,8.932407379E0
5.133703651E0,-2.610569477E0,4.316651821E0,8.946763992E0
5.138458755E0,-2.584248543E0,4.319045067E0,8.965906143E0
5.143213807E0,-2.557927370E0,4.311866283E0,8.949156761E0
5.147968911E0,-2.510071039E0,4.285545349E0,8.953942299E0
5.152724015E0,-2.301895380E0,4.149154663E0,8.941978455E0
5.157479067E0,-2.270788670E0,4.153940201E0,8.913264275E0
5.162234172E0,-2.335394859E0,3.952943087E0,8.685946465E0
5.166989276E0,-2.706282377E0,3.795016766E0,8.700303078E0
5.171744328E0,-2.847458839E0,3.785445452E0,8.427521706E0
5.176499432E0,-2.763710260E0,3.821337700E0,8.420342445E0
5.181254536E0,-2.459821701E0,3.842873096E0,8.319844246E0
5.186009588E0,-2.268395901E0,3.902693748E0,8.288737297E0
5.190764692E0,-2.167897224E0,3.957728624E0,8.238488197E0
5.195519745E0,-2.067398787E0,4.007977962E0,8.245666504E0
5.200274849E0,-1.993221283E0,4.074976921E0,8.209774017E0
5.205029953E0,-1.892722726E0,4.149154663E0,8.204988480E0
5.209785057E0,-1.749153376E0,4.173082829E0,8.240880966E0
5.214540109E0,-1.651047587E0,4.197010994E0,8.262416840E0
5.219295213E0,-1.617548108E0,4.345366001E0,8.348558426E0
5.224050265E0,-1.646261930E0,4.472185612E0,8.425128937E0
5.228805370E0,-1.706082582E0,4.630111694E0,8.544769287E0
5.233560474E0,-1.787438512E0,4.754538536E0,8.688339233E0
5.238315526E0,-1.830509305E0,4.838287354E0,8.839086533E0
5.243070630E0,-1.832902193E0,4.869394302E0,8.973084450E0
5.247825734E0,-1.792224169E0,4.876572609E0,9.123832703E0
5.252580786E0,-1.746760488E0,4.857429981E0,9.281759262E0
5.257335890E0,-1.773081541E0,4.831109047E0,9.403793335E0
5.262090995E0,-1.811366796E0,4.816751957E0,9.564111710E0
5.266846047E0,-1.866401672E0,4.804787636E0,9.719645500E0
5.271601151E0,-1.911865234E0,4.785645485E0,9.872786522E0
5.276356203E0,-1.940579176E0,4.792823792E0,1.001635551E1
5.281111307E0,-1.981257200E0,4.788038254E0,1.015274620E1
5.285866411E0,-2.012363911E0,4.814359188E0,1.023649502E1
5.290621463E0,-2.045863390E0,4.807180882E0,1.025563812E1
5.295376567E0,-2.074577332E0,4.826323509E0,1.020060253E1
5.300131672E0,-2.139183521E0,4.852644444E0,1.014556789E1
5.304886724E0,-2.254039049E0,4.852644444E0,1.004746246E1
5.309641828E0,-2.383251429E0,4.886143684E0,9.932606697E0
5.314396880E0,-2.512463808E0,4.898108006E0,9.796216011E0
5.319151984E0,-2.634497643E0,4.859822750E0,9.667003632E0
5.323907088E0,-2.672782898E0,4.821537495E0,9.583254814E0
5.328662140E0,-2.632104874E0,4.740181446E0,9.425328255E0
5.333417245E0,-2.533999205E0,4.677968502E0,9.320044518E0
5.338172349E0,-2.407179594E0,4.539184570E0,9.075976372E0
5.342927401E0,-2.273181438E0,4.378865242E0,8.822337151E0
5.347682505E0,-2.143969059E0,4.247260094E0,8.525627136E0
5.352437557E0,-2.084148407E0,4.106083870E0,8.276773453E0
5.357192661E0,-2.033899307E0,3.988835335E0,8.047062874E0
5.361947765E0,-2.005185366E0,3.905086517E0,7.831708431E0
5.366702817E0,-1.988435626E0,3.821337700E0,7.712067604E0
5.371457922E0,-1.964507341E0,3.761517286E0,7.642675400E0
5.376213026E0,-1.880758643E0,3.792623997E0,7.642675400E0
5.380968078E0,-1.789831281E0,3.909872293E0,7.712067604E0
5.385723182E0,-1.677368641E0,3.929014683E0,7.779066563E0
5.390478234E0,-1.576870084E0,3.905086517E0,7.791030407E0
5.395233338E0,-1.495514154E0,3.905086517E0,7.695317745E0
5.399988442E0,-1.380658627E0,3.885943890E0,7.513463020E0
5.404743495E0,-1.284945726E0,3.917050600E0,7.322037220E0
5.409498599E0,-1.227517962E0,3.974478483E0,7.133004189E0
5.414253651E0,-1.220339537E0,4.115654945E0,6.946363926E0
5.419008755E0,-1.249053478E0,4.314259052E0,6.795616150E0
5.423763859E0,-1.325623751E0,4.479363918E0,6.656832695E0
5.428518911E0,-1.316052437E0,4.637290478E0,6.577869415E0
5.433274015E0,-1.246660590E0,4.768895626E0,6.582654953E0
5.438029120E0,-1.103091240E0,4.845465660E0,6.623332977E0
5.442784172E0,-9.092726111E-1,4.934000492E0,6.723831654E0
5.447539276E0,-7.393822074E-1,5.010570526E0,6.874579430E0
5.452294328E0,-5.766702294E-1,5.103890896E0,7.058826923E0
5.457049432E0,-4.474578202E-1,5.190032482E0,7.276573658E0
5.461804536E0,-3.589234054E-1,5.345565796E0,7.566105366E0
5.466559588E0,-2.703889608E-1,5.520241737E0,7.903493404E0
5.471314692E0,-2.249253243E-1,5.649454117E0,8.291130066E0
5.476069745E0,-1.914258152E-1,5.783452511E0,8.659625053E0
5.480824849E0,-1.746760458E-1,5.948556900E0,9.016156197E0
5.485579953E0,-9.571290575E-3,6.111268997E0,9.396614075E0
5.490335005E0,1.818545163E-1,6.262016773E0,9.667003632E0
5.495090109E0,1.220339537E-1,6.317051888E0,9.968499184E0
5.499845161E0,2.632104978E-2,6.352943897E0,1.024367332E1
5.504600265E0,-2.632104978E-2,6.290730953E0,1.048534870E1
5.509355370E0,-2.871387079E-2,6.190232277E0,1.064327526E1
5.514110422E0,-5.024927482E-2,6.037091732E0,1.072941685E1
5.518865526E0,-1.674975827E-2,5.881557941E0,1.076052380E1
5.523620578E0,-4.067798331E-2,5.730810165E0,1.072463131E1
5.528375682E0,-1.435693651E-1,5.587240696E0,1.066720295E1
5.533130786E0,-1.674975902E-1,5.438885689E0,1.054038334E1
5.537885838E0,-3.900300860E-1,5.314459324E0,1.047099209E1
5.542640942E0,-3.996013701E-1,5.127819061E0,1.033220863E1
5.547395995E0,-3.421736360E-1,4.989035130E0,1.015513897E1
5.552151099E0,-2.440679073E-1,4.847858906E0,9.987641335E0
5.556906203E0,-2.105683982E-1,4.725824833E0,9.853643417E0
5.561661255E0,-1.196411327E-1,4.639683247E0,9.765109062E0
5.566416359E0,-1.818545163E-1,4.572684288E0,9.769894600E0
5.571171411E0,-2.847459018E-1,4.496113777E0,9.803394318E0
5.575926515E0,-3.469592929E-1,4.364508629E0,9.798608780E0
5.580681567E0,-3.924229145E-1,4.225724697E0,9.688538551E0
5.585436672E0,-4.905286431E-1,4.074976921E0,9.513862610E0
5.590191724E0,-5.599204898E-1,3.957728624E0,9.233902931E0
5.594946828E0,-6.460621357E-1,3.873979807E0,8.860622406E0
5.599701932E0,-8.566305041E-1,3.828516245E0,8.461020470E0
5.604456984E0,-1.079162955E0,3.802195072E0,8.027919769E0
5.609212088E0,-1.234696507E0,3.811766386E0,7.659425259E0
5.613967140E0,-1.359123230E0,3.850051641E0,7.372286797E0
5.618722245E0,-1.445264935E0,3.890729666E0,7.190432072E0
5.623477349E0,-1.359123230E0,4.158725739E0,7.121040344E0
5.628232401E0,-1.521835208E0,4.254438877E0,7.164111137E0
5.632987505E0,-1.808973908E0,4.206582069E0,7.233502865E0
5.637742557E0,-1.974078655E0,4.163511276E0,7.293323517E0
5.642497661E0,-2.053041935E0,4.240081787E0,7.549355507E0
5.647252765E0,-2.175075769E0,4.338187218E0,7.590033531E0
5.652007817E0,-2.337787628E0,4.441078663E0,7.645068169E0
5.656762922E0,-2.505285263E0,4.563112736E0,7.762316704E0
5.661517974E0,-2.679961443E0,4.721039295E0,7.920242786E0
5.666273078E0,-2.806781054E0,4.869394302E0,8.123632431E0
5.671028130E0,-2.902493954E0,5.008177757E0,8.413164139E0
5.675783234E0,-2.933600664E0,5.142175674E0,8.748159409E0
5.680538338E0,-2.897708178E0,5.175675392E0,9.061619759E0
5.685293390E0,-2.804388046E0,5.154139996E0,9.332008362E0
5.690048495E0,-2.679961443E0,5.053641319E0,9.518648148E0
5.694803547E0,-2.529213428E0,4.898108006E0,9.619147301E0
5.699558651E0,-2.452643156E0,4.802394867E0,9.769894600E0
5.704313703E0,-2.457428932E0,4.704289436E0,9.812965393E0
5.709068807E0,-2.481357098E0,4.615755081E0,9.748359680E0
5.713823911E0,-2.438286304E0,4.603790760E0,9.698110580E0
5.718578963E0,-2.356930256E0,4.606183529E0,9.621540070E0
5.723334067E0,-2.282752752E0,4.630111694E0,9.566504478E0
5.728089120E0,-2.196611166E0,4.682754040E0,9.525827408E0
5.732844224E0,-2.254039049E0,4.677968502E0,9.394221306E0
5.737599276E0,-2.098505497E0,4.780859470E0,9.379864693E0
5.742354380E0,-1.871187329E0,4.938786030E0,9.530612946E0
5.747109432E0,-1.730010748E0,5.032105923E0,9.556933403E0
5.751864536E0,-1.663011789E0,5.094319344E0,9.635896683E0
5.756619640E0,-1.531406522E0,5.103890896E0,9.777072906E0
5.761374692E0,-1.397408366E0,5.111069202E0,9.827322960E0
5.766129797E0,-1.249053478E0,5.108676434E0,9.832108498E0
5.770884849E0,-1.076770186E0,5.003392220E0,9.719645500E0
5.775639953E0,-8.757730722E-1,4.890929699E0,9.533005714E0
5.780395005E0,-6.915257573E-1,4.773681164E0,9.310472488E0
5.785150109E0,-5.958128572E-1,4.654039860E0,9.104690552E0
5.789905161E0,-5.503492355E-1,4.553541660E0,8.961120605E0
5.794660265E0,-5.862415433E-1,4.438685894E0,8.796015739E0
5.799415370E0,-6.197410822E-1,4.386044025E0,8.697910309E0
5.804170422E0,-6.747759581E-1,4.311866283E0,8.645268440E0
5.808925526E0,-7.465606928E-1,4.268795490E0,8.609375954E0
5.813680578E0,-8.614161611E-1,4.223331928E0,8.595019341E0
5.818435682E0,-9.427721500E-1,4.213760853E0,8.645268440E0
5.823190734E0,-1.028913736E0,4.208974838E0,8.671588898E0
5.827945838E0,-1.043270707E0,4.208974838E0,8.666803360E0
5.832700890E0,-9.930213690E-1,4.228117466E0,8.611768723E0
5.837455995E0,-9.379864931E-1,4.299902439E0,8.525627136E0
5.842211047E0,-8.973084688E-1,4.366901398E0,8.410771370E0
5.846966151E0,-9.116654396E-1,4.476971149E0,8.293522835E0
5.851721255E0,-9.475577474E-1,4.567898273E0,8.183453560E0
5.856476307E0,-1.088734269E0,4.697110653E0,8.137989998E0
5.861231411E0,-1.232303619E0,4.862215519E0,8.145168304E0
5.865986463E0,-1.375872970E0,5.022534847E0,8.193024635E0
5.870741567E0,-1.493121386E0,5.166104317E0,8.312665939E0
5.875496620E0,-1.543370605E0,5.333601475E0,8.516056061E0
5.880251724E0,-1.521835208E0,5.448457241E0,8.767302513E0
5.885006776E0,-1.488335729E0,5.520241737E0,9.083154678E0
5.889761880E0,-1.450050473E0,5.592026711E0,9.387042999E0
5.894516932E0,-1.390229940E0,5.599205017E0,9.745966911E0
5.899272036E0,-1.363908887E0,5.556134224E0,1.010728264E1
5.904027140E0,-1.313659668E0,5.510670662E0,1.044467068E1
5.908782192E0,-1.306481123E0,5.479563713E0,1.073898792E1
5.913537297E0,-1.268195987E0,5.474778175E0,1.089452171E1
5.918292349E0,-1.301695466E0,5.467599869E0,1.090887833E1
5.923047453E0,-1.328016520E0,5.474778175E0,1.079162979E1
5.927802505E0,-1.349551916E0,5.493920803E0,1.063131142E1
5.932557609E0,-1.667797327E0,5.513063431E0,1.049970531E1
5.937312661E0,-1.612762451E0,5.479563713E0,1.036092186E1
5.942067765E0,-1.483550072E0,5.405386448E0,1.021974564E1
5.946822817E0,-1.272981644E0,5.283352375E0,9.978070259E0
5.951577922E0,-1.203589797E0,5.204389095E0,9.750752449E0
5.956332974E0,-1.026520967E0,5.053641319E0,9.456435204E0
5.961088078E0,-8.350951076E-1,4.917250633E0,9.123832703E0
5.965843130E0,-7.345965505E-1,4.783252239E0,8.805587769E0
5.970598234E0,-6.029912829E-1,4.689932346E0,8.484949112E0
5.975353286E0,-5.431707501E-1,4.646861553E0,8.166703224E0
5.980108390E0,-4.809573591E-1,4.642076015E0,7.996813297E0
5.984863442E0,-5.383850932E-1,4.577469826E0,7.609176159E0
5.989618547E0,-5.694918036E-1,4.539184570E0,7.278966427E0
5.994373651E0,-5.144568682E-1,4.555934429E0,6.958328247E0
5.999128703E0,-3.469592929E-1,4.532006264E0,6.673582554E0
6.003883807E0,-2.440679073E-1,4.558327198E0,6.429514408E0
6.008638859E0,-2.751746178E-1,4.728217602E0,6.065805435E0
6.013393963E0,-2.751746178E-1,4.962714195E0,5.862415314E0
6.018149015E0,-2.392822653E-1,5.204389095E0,5.783452511E0
6.022904120E0,-1.172483116E-1,5.525027275E0,5.761917114E0
6.027659172E0,2.584248483E-1,5.704489231E0,5.883950710E0
6.032414276E0,5.479564071E-1,5.934200287E0,5.943771362E0
6.037169328E0,8.231309652E-1,6.173482418E0,6.003592014E0
6.041924432E0,1.079162955E0,6.396014690E0,6.094519138E0
6.046679484E0,8.829515576E-1,6.551548481E0,6.362515450E0
6.051434588E0,6.556333899E-1,6.606583118E0,6.790830612E0
6.056189640E0,4.498506486E-1,6.625725746E0,7.252645493E0
6.060944745E0,3.014956415E-1,6.558726788E0,7.781459332E0
6.065699797E0,1.555334777E-1,6.520441532E0,8.403593063E0
6.070454901E0,1.674975827E-2,6.482156754E0,9.028120041E0
6.075209953E0,-1.124626622E-1,6.477370739E0,9.652647018E0
6.079965057E0,-2.512463629E-1,6.412764549E0,1.013360405E1
6.084720109E0,-3.565305769E-1,6.372086525E0,1.060499001E1
6.089475213E0,-4.642075896E-1,6.355337143E0,1.101894855E1
6.094230265E0,-6.317051649E-1,6.295516491E0,1.127019501E1
6.098985370E0,-7.968099117E-1,6.202196121E0,1.137069321E1
6.103740422E0,-9.355936646E-1,6.080162525E0,1.134437180E1
6.108495526E0,-1.083948612E0,5.979663849E0,1.115773201E1
6.113250578E0,-1.203589797E0,5.881557941E0,1.095912743E1
6.118005682E0,-1.258624673E0,5.800201893E0,1.071745300E1
6.122760734E0,-1.325623751E0,5.737988472E0,1.050449181E1
6.127515838E0,-1.433300734E0,5.675775528E0,1.029153061E1
6.132270890E0,-1.469193101E0,5.666203976E0,1.004985523E1
6.137025995E0,-1.663011789E0,5.680561066E0,9.810572624E0
6.141781047E0,-1.844866276E0,5.716453075E0,9.537791252E0
6.146536151E0,-1.993221283E0,5.749952793E0,9.274580956E0
6.151291203E0,-2.115255117E0,5.771488190E0,8.992227554E0
6.156046307E0,-2.191825628E0,5.785845280E0,8.721838951E0
6.160801359E0,-2.328216314E0,5.759523869E0,8.468199730E0
6.165556463E0,-2.500499725E0,5.730810165E0,8.238488197E0
6.170311515E0,-2.557927370E0,5.726024628E0,8.061419487E0
6.175066620E0,-2.555534601E0,5.709274769E0,7.896314621E0
6.179821672E0,-2.548356056E0,5.685346603E0,7.779066563E0
6.184576776E0,-2.486142635E0,5.656632900E0,7.688138962E0
6.189331828E0,-2.426322222E0,5.651846886E0,7.680960655E0
6.194086932E0,-2.392822742E0,5.673382282E0,7.731209755E0
6.198841984E0,-2.340180635E0,5.661418438E0,7.831708431E0
6.203597088E0,-2.254039049E0,5.644668579E0,7.963313580E0
6.208352140E0,-2.187039852E0,5.627918720E0,8.094919205E0
6.213107192E0,-2.122433662E0,5.582455158E0,8.255238533E0
6.217862297E0,-2.060220242E0,5.541777134E0,8.379665375E0
6.222617349E0,-1.964507341E0,5.484349728E0,8.506484032E0
6.227372453E0,-1.883151412E0,5.434100151E0,8.580661774E0
6.232127505E0,-1.804188251E0,5.376672268E0,8.626125336E0
6.236882609E0,-1.694118381E0,5.331208706E0,8.638090134E0
6.241637661E0,-1.564906001E0,5.295316696E0,8.590232849E0
6.246392765E0,-1.579262972E0,5.278566837E0,8.544769287E0
6.251147817E0,-1.569691658E0,5.242674351E0,8.461020470E0
6.255902922E0,-1.543370605E0,5.206781864E0,8.346165657E0
6.260657974E0,-1.514656782E0,5.233103275E0,8.200202942E0
6.265413078E0,-1.471585870E0,5.213960648E0,8.066205025E0
6.270168130E0,-1.564906001E0,5.235496044E0,8.013563156E0
6.274923234E0,-1.540977836E0,5.216353416E0,7.925028801E0
6.279678286E0,-1.485942841E0,5.218746185E0,7.819744587E0
6.284433390E0,-1.335195065E0,5.235496044E0,7.692924976E0
6.289188442E0,-1.390229940E0,5.257031441E0,7.683353424E0
6.293943547E0,-1.385444283E0,5.309673309E0,7.661818027E0
6.298698599E0,-1.284945726E0,5.333601475E0,7.647460938E0
6.303453703E0,-1.213161111E0,5.347958565E0,7.616354465E0
6.308208755E0,-1.184447169E0,5.352744102E0,7.594819069E0
6.312963807E0,-1.127019525E0,5.393422127E0,7.633104324E0
6.317718911E0,-1.134197950E0,5.400600910E0,7.664210796E0
6.322473963E0,-1.098305583E0,5.402993679E0,7.781459332E0
6.327229067E0,-1.062413216E0,5.434100151E0,7.929814339E0
6.331984120E0,-1.043270707E0,5.441278458E0,8.059026718E0
6.336739224E0,-9.954141974E-1,5.419743061E0,8.185846329E0
6.341494276E0,-9.236295223E-1,5.422136307E0,8.300702095E0
6.346249380E0,-8.446664214E-1,5.395814896E0,8.370093346E0
6.351004432E0,-7.968099117E-1,5.381458282E0,8.427521706E0
6.355759536E0,-7.322037220E-1,5.343173027E0,8.461020470E0
6.360514588E0,-6.771687865E-1,5.290530682E0,8.451449394E0
6.365269692E0,-6.245267391E-1,5.285745144E0,8.456234932E0
6.370024745E0,-5.288137794E-1,5.264209747E0,8.482556343E0
6.374779797E0,-4.450650215E-1,5.245067120E0,8.525627136E0
6.379534901E0,-3.852444589E-1,5.242674351E0,8.556734085E0
6.384289953E0,-2.943171859E-1,5.221138954E0,8.595019341E0
6.389045057E0,-1.962114573E-1,5.240281582E0,8.654839516E0
6.393800109E0,-1.387837082E-1,5.242674351E0,8.714659691E0
6.398555213E0,-9.571290761E-2,5.266602516E0,8.786444664E0
6.403310265E0,-6.460621208E-2,5.290530682E0,8.879764557E0
6.408065370E0,-2.871387079E-2,5.343173027E0,9.047262192E0
6.412820422E0,-2.153540403E-2,5.393422127E0,9.183652878E0
6.417575526E0,-3.589234129E-2,5.438885689E0,9.384650230E0
6.422330578E0,-4.546362907E-2,5.491528034E0,9.578469276E0
6.427085630E0,-3.828516230E-2,5.560919762E0,9.750752449E0
6.431840734E0,-1.914258115E-2,5.594419479E0,9.865608215E0
6.436595786E0,-7.178467698E-3,5.647061348E0,9.963713646E0
6.441350890E0,3.828516230E-2,5.685346603E0,9.997213364E0
6.446105942E0,3.349951655E-2,5.697310925E0,9.999606133E0
6.450861047E0,4.546362907E-2,5.704489231E0,1.003071213E1
6.455616099E0,5.742774159E-2,5.747560024E0,1.003310490E1
6.460371203E0,5.982056633E-2,5.769095421E0,1.001396275E1
6.465126255E0,4.785645381E-2,5.783452511E0,9.973284721E0
6.469881307E0,7.896314561E-2,5.824130535E0,9.951749802E0
6.474636411E0,7.657032460E-2,5.850451469E0,9.872786522E0
6.479391463E0,3.589234129E-2,5.864808083E0,9.781859398E0
6.484146567E0,-3.349951655E-2,5.855237007E0,9.638289452E0
6.488901620E0,-1.363908947E-1,5.838487148E0,9.513862610E0
6.493656724E0,-2.416750938E-1,5.816951752E0,9.470791817E0
6.498411776E0,-3.876372576E-1,5.742774487E0,9.293723106E0
6.503166828E0,-4.067798555E-1,5.675775528E0,9.056833267E0
6.507921932E0,-5.766702294E-1,5.647061348E0,8.927620888E0
6.512676984E0,-8.231309652E-1,5.635097504E0,8.834300995E0
6.517432088E0,-9.619147182E-1,5.603990555E0,8.738588333E0
6.522187140E0,-8.949156404E-1,5.606383324E0,8.635697365E0
6.526942245E0,-6.843472719E-1,5.580062389E0,8.403593063E0
6.531697297E0,-8.494520187E-1,5.587240696E0,8.286344528E0
6.536452401E0,-1.002592683E0,5.553741455E0,8.193024635E0
6.541207453E0,-1.000199914E0,5.525027275E0,8.035098076E0
6.545962505E0,-8.925228715E-1,5.438885689E0,7.802994728E0
6.550717609E0,-8.087740541E-1,5.393422127E0,7.527820110E0
6.555472661E0,-9.667003751E-1,5.383851051E0,7.389036179E0
6.560227765E0,-9.930213690E-1,5.374279499E0,7.233502865E0
6.564982817E0,-1.000199914E0,5.357530117E0,7.068397999E0
6.569737922E0,-9.714859724E-1,5.362315655E0,6.898507595E0
6.574492974E0,-1.083948612E0,5.359922886E0,6.802794933E0
6.579248026E0,-1.172483087E0,5.367101192E0,6.769295216E0
6.584003130E0,-1.284945726E0,5.357530117E0,6.726224422E0
6.588758182E0,-1.375872970E0,5.326423168E0,6.714260101E0
6.593513286E0,-1.464407444E0,5.321637630E0,6.690331936E0
6.598268338E0,-1.505085468E0,5.345565796E0,6.740581512E0
6.603023390E0,-1.607976794E0,5.352744102E0,6.845865726E0
6.607778495E0,-1.651047587E0,5.410171986E0,6.917650223E0
6.612533547E0,-1.737189293E0,5.429314613E0,7.018148899E0
6.617288651E0,-1.835294962E0,5.462814331E0,7.140182972E0
6.622043703E0,-1.945364833E0,5.460421085E0,7.264609337E0
6.626798807E0,-2.026720762E0,5.450850010E0,7.384250641E0
6.631553859E0,-2.100898266E0,5.446064472E0,7.501499176E0
6.636308911E0,-2.163111687E0,5.405386448E0,7.642675400E0
6.641064015E0,-2.194218397E0,5.436492920E0,7.752745152E0
6.645819067E0,-2.167897224E0,5.424529076E0,7.879564762E0
6.650574172E0,-2.179861546E0,5.474778175E0,7.992027760E0
6.655329224E0,-2.177468538E0,5.525027275E0,8.109275818E0
6.660084328E0,-2.165504456E0,5.570491314E0,8.216953278E0
6.664839380E0,-2.227717876E0,5.618347645E0,8.394021988E0
6.669594432E0,-2.227717876E0,5.647061348E0,8.571090698E0
6.674349536E0,-2.256431818E0,5.687739372E0,8.779266357E0
6.679104588E0,-2.328216314E0,5.749952793E0,9.028120041E0
6.683859692E0,-2.395215511E0,5.776273727E0,9.317651749E0
6.688614745E0,-2.538784742E0,5.824130535E0,9.623932838E0
6.693369797E0,-2.656033039E0,5.848058701E0,9.932606697E0
6.698124901E0,-2.790031195E0,5.850451469E0,1.018863869E1
6.702879953E0,-2.876172781E0,5.857629776E0,1.038485050E1
6.707635057E0,-2.845066071E0,5.852844238E0,1.056191921E1
6.712390109E0,-2.883351326E0,5.874379635E0,1.066481018E1
6.717145161E0,-2.940778971E0,5.862415314E0,1.071027374E1
6.721900265E0,-2.962314367E0,5.833701611E0,1.071745300E1
6.726655317E0,-2.991028309E0,5.795416355E0,1.070548820E1
6.731410422E0,-3.005385160E0,5.728417397E0,1.066959572E1
6.736165474E0,-3.014956474E0,5.673382282E0,1.059541893E1
6.740920526E0,-3.002992392E0,5.623133183E0,1.051167011E1
6.745675630E0,-2.943171740E0,5.560919762E0,1.033699417E1
6.750430682E0,-2.895315409E0,5.520241737E0,1.016710377E1
6.755185786E0,-2.790031195E0,5.486742496E0,1.000917721E1
6.759940838E0,-2.687139750E0,5.446064472E0,9.860821724E0
6.764695890E0,-2.577069998E0,5.405386448E0,9.707681656E0
6.769450995E0,-2.416750908E0,5.371886730E0,9.542576790E0
6.774206047E0,-2.342573404E0,5.350351334E0,9.379864693E0
6.778961151E0,-2.227717876E0,5.285745144E0,9.164510727E0
6.783716203E0,-2.117648125E0,5.247459888E0,8.968298912E0
6.788471255E0,-2.019542217E0,5.204389095E0,8.733802795E0
6.793226359E0,-1.892722726E0,5.163711071E0,8.523234367E0
6.797981411E0,-1.804188251E0,5.139782906E0,8.341380119E0
6.802736515E0,-1.718046665E0,5.111069202E0,8.159524918E0
6.807491567E0,-1.607976794E0,5.065605640E0,7.965706348E0
6.812246620E0,-1.497906923E0,5.044070244E0,7.841279984E0
6.817001724E0,-1.392622828E0,5.029713154E0,7.714460373E0
6.821756776E0,-1.292124271E0,5.012963295E0,7.601997375E0
6.826511880E0,-1.160519004E0,5.010570526E0,7.503891945E0
6.831266932E0,-1.069591761E0,5.005784988E0,7.439285755E0
6.836021984E0,-9.571290612E-1,5.048855782E0,7.412964344E0
6.840777088E0,-8.566305041E-1,5.058426857E0,7.408178806E0
6.845532140E0,-7.010970116E-1,5.065605640E0,7.477570534E0
6.850287192E0,-5.144568682E-1,5.091926575E0,7.563712597E0
6.855042297E0,-2.775674164E-1,5.111069202E0,7.735995770E0
6.859797349E0,-1.292124242E-1,5.063212872E0,7.860422611E0
6.864552453E0,6.460621208E-2,5.101497650E0,7.977670670E0
6.869307505E0,2.368894368E-1,5.130211830E0,8.137989998E0
6.874062557E0,3.708875179E-1,5.137390137E0,8.300702095E0
6.878817661E0,5.575276613E-1,5.139782906E0,8.372486115E0
6.883572713E0,6.508477330E-1,5.154139996E0,8.468199730E0
6.888327817E0,8.853443861E-1,5.213960648E0,8.513663292E0
6.893082870E0,1.074377418E0,5.211567879E0,8.484949112E0
6.897837922E0,1.205982566E0,5.242674351E0,8.456234932E0
6.902593026E0,1.337587833E0,5.280959606E0,8.384450912E0
6.907348078E0,1.497906923E0,5.312066078E0,8.293522835E0
6.912103182E0,1.607976794E0,5.383851051E0,8.197810173E0
6.916858234E0,1.564906001E0,5.508277893E0,8.204988480E0
6.921613286E0,1.512263894E0,5.613562107E0,8.224131584E0
6.926368390E0,1.634297848E0,5.675775528E0,8.200202942E0
6.931123442E0,1.792224169E0,5.740381718E0,8.161917686E0
6.935878495E0,1.737189293E0,5.821737289E0,8.250452042E0
6.940633599E0,1.607976794E0,5.927021503E0,8.343772888E0
6.945388651E0,1.493121386E0,5.972485542E0,8.472985268E0
6.950143703E0,1.349551916E0,6.034698486E0,8.654839516E0
6.954898807E0,1.122233868E0,6.082555294E0,8.848658562E0
6.959653859E0,8.949156404E-1,6.118447304E0,9.016156197E0
6.964408963E0,6.221339107E-1,6.151947021E0,9.205188751E0
6.969164015E0,3.445664644E-1,6.163911343E0,9.360722542E0
6.973919067E0,7.657032460E-2,6.137589931E0,9.458827972E0
6.978674172E0,-1.651047617E-1,6.111268997E0,9.571290970E0
6.983429224E0,-4.019941986E-1,6.070590973E0,9.626325607E0
6.988184276E0,-6.269195080E-1,6.056233883E0,9.664610863E0
6.992939380E0,-8.231309652E-1,6.003592014E0,9.669396400E0
6.997694432E0,-1.028913736E0,5.962913990E0,9.681360245E0
7.002449484E0,-1.220339537E0,5.912664890E0,9.688538551E0
7.007204588E0,-1.421336651E0,5.840879917E0,9.628718376E0
7.011959640E0,-1.660618901E0,5.764309883E0,9.516255379E0
7.016714745E0,-1.897508383E0,5.673382282E0,9.339186668E0
7.021469797E0,-2.108076811E0,5.582455158E0,9.119047165E0
7.026224849E0,-2.280359983E0,5.489135265E0,8.867800713E0
7.030979953E0,-2.450250387E0,5.379065514E0,8.623732567E0
7.035735005E0,-2.612962246E0,5.300102234E0,8.398807526E0
7.040490057E0,-2.651247501E0,5.328815937E0,8.195417404E0
7.045245161E0,-2.742174864E0,5.309673309E0,8.056633949E0
7.050000213E0,-2.883351326E0,5.230710506E0,7.848458290E0
7.054755265E0,-2.957528830E0,5.130211830E0,7.623532772E0
7.059510370E0,-2.959921598E0,5.070391178E0,7.398607731E0
7.064265422E0,-2.971885681E0,5.039284706E0,7.219145775E0
7.069020474E0,-2.986242771E0,5.053641319E0,7.044469833E0
7.073775578E0,-2.988635540E0,5.056034088E0,6.934400082E0
7.078530630E0,-2.959921598E0,5.113461971E0,6.865008354E0
7.083285734E0,-2.919243574E0,5.201996326E0,6.800402164E0
7.088040786E0,-2.813959360E0,5.266602516E0,6.802794933E0
7.092795838E0,-2.696711063E0,5.324030399E0,6.829115868E0
7.097550942E0,-2.560320139E0,5.374279499E0,6.888936520E0
7.102305995E0,-2.407179594E0,5.395814896E0,6.984649181E0
7.107061047E0,-2.232503414E0,5.381458282E0,7.118647575E0
7.111816151E0,-2.031506538E0,5.338387489E0,7.276573658E0
7.116571203E0,-1.859223247E0,5.314459324E0,7.446464062E0
7.121326255E0,-1.646261930E0,5.271388054E0,7.625925541E0
7.126081359E0,-1.447657704E0,5.261816978E0,7.798209190E0
7.130836411E0,-1.222732425E0,5.261816978E0,7.941778183E0
7.135591463E0,-1.048056364E0,5.314459324E0,8.049455643E0
7.140346567E0,-8.853443861E-1,5.359922886E0,8.195417404E0
7.145101620E0,-7.345965505E-1,5.422136307E0,8.305487633E0
7.149856672E0,-6.125625968E-1,5.460421085E0,8.439485550E0
7.154611776E0,-4.977070987E-1,5.510670662E0,8.575876236E0
7.159366828E0,-3.565305769E-1,5.539384365E0,8.685946465E0
7.164121880E0,-1.938186288E-1,5.584847927E0,8.769695282E0
7.168876984E0,2.392822644E-3,5.630311489E0,8.848658562E0
7.173632036E0,1.603191197E-1,5.682953835E0,8.877371788E0
7.178387088E0,3.134597540E-1,5.728417397E0,8.886942863E0
7.183142192E0,4.474578202E-1,5.740381718E0,8.886942863E0
7.187897245E0,5.072783828E-1,5.773880959E0,8.863015175E0
7.192652297E0,5.814558864E-1,5.804987907E0,8.848658562E0
7.197407401E0,6.652047038E-1,5.845665932E0,8.836693764E0
7.202162453E0,6.795616150E-1,5.838487148E0,8.805587769E0
7.206917505E0,7.106683254E-1,5.886343479E0,8.805587769E0
7.211672609E0,6.867401004E-1,5.946164131E0,8.834300995E0
7.216427661E0,6.197410822E-1,5.998806477E0,8.889336586E0
7.221182713E0,5.790630579E-1,6.056233883E0,8.915657043E0
7.225937817E0,5.934200287E-1,6.046662807E0,8.941978455E0
7.230692870E0,5.455635786E-1,6.063412666E0,8.932407379E0
7.235447922E0,2.919243574E-1,6.130411625E0,8.985049248E0
7.240203026E0,2.536391914E-1,6.147161484E0,8.992227554E0
7.244958078E0,1.363908947E-1,6.123233318E0,8.908478737E0
7.249713130E0,-2.392822690E-2,6.139982700E0,8.817551613E0
7.254468234E0,-2.153540403E-1,6.163911343E0,8.738588333E0
7.259223286E0,-3.828516304E-1,6.161518097E0,8.664410591E0
7.263978338E0,-5.407779217E-1,6.118447304E0,8.530412674E0
7.268733442E0,-6.843472719E-1,6.084948063E0,8.405985832E0
7.273488495E0,-7.537391186E-1,6.032305717E0,8.274380684E0
7.278243547E0,-8.183453679E-1,6.020341873E0,8.142775536E0
7.282998651E0,-8.662018180E-1,6.015556335E0,8.015955925E0
7.287753703E0,-9.284151793E-1,6.015556335E0,7.915457249E0
7.292508755E0,-1.014556766E0,6.027520180E0,7.838887215E0
7.297263859E0,-1.060020447E0,6.037091732E0,7.800601959E0
7.302018911E0,-1.105484009E0,6.068198204E0,7.793423176E0
7.306773963E0,-1.222732425E0,6.058627129E0,7.812565804E0
7.311529067E0,-1.351944804E0,6.056233883E0,7.860422611E0
7.316284120E0,-1.409372568E0,6.027520180E0,7.915457249E0
7.321039172E0,-1.483550072E0,6.013163090E0,7.980063438E0
7.325794224E0,-1.531406522E0,5.974878311E0,8.094919205E0
7.330549328E0,-1.593619823E0,5.991627693E0,8.190631866E0
7.335304380E0,-1.607976794E0,6.003592014E0,8.269595146E0
7.340059432E0,-1.622333765E0,5.974878311E0,8.317451477E0
7.344814536E0,-1.627119422E0,5.953342915E0,8.334200859E0
7.349569588E0,-1.615155339E0,5.915057659E0,8.305487633E0
7.354324640E0,-1.596012712E0,5.871986866E0,8.260024071E0
7.359079745E0,-1.569691658E0,5.831308842E0,8.176275253E0
7.363834797E0,-1.538584948E0,5.793023586E0,8.099704742E0
7.368589849E0,-1.473978758E0,5.714060307E0,8.001599312E0
7.373344953E0,-1.387837172E0,5.661418438E0,7.944170952E0
7.378100005E0,-1.313659668E0,5.635097504E0,7.860422611E0
7.382855057E0,-1.232303619E0,5.568098068E0,7.781459332E0
7.387610161E0,-1.160519004E0,5.529813290E0,7.678567886E0
7.392365213E0,-1.045663476E0,5.496313572E0,7.611568928E0
7.397120265E0,-9.978070259E-1,5.484349728E0,7.525427341E0
7.401875317E0,-9.379864931E-1,5.462814331E0,7.458428383E0
7.406630422E0,-8.925228715E-1,5.489135265E0,7.412964344E0
7.411385474E0,-8.566305041E-1,5.493920803E0,7.389036179E0
7.416140526E0,-7.872386575E-1,5.517848969E0,7.391428947E0
7.420895630E0,-8.063812256E-1,5.503491879E0,7.408178806E0
7.425650682E0,-7.944171429E-1,5.465207100E0,7.405786037E0
7.430405734E0,-8.087740541E-1,5.450850010E0,7.448856831E0
7.435160838E0,-8.303094506E-1,5.436492920E0,7.544569969E0
7.439915890E0,-8.685946465E-1,5.422136307E0,7.654639721E0
7.444670942E0,-9.212366939E-1,5.402993679E0,7.800601959E0
7.449426047E0,-9.499505758E-1,5.424529076E0,7.913064480E0
7.454181099E0,-9.619147182E-1,5.410171986E0,8.023134232E0
7.458936151E0,-9.786644578E-1,5.438885689E0,8.073383331E0
7.463691203E0,-1.004985452E0,5.469992638E0,8.063812256E0
7.468446307E0,-9.882357717E-1,5.520241737E0,8.044670105E0
7.473201359E0,-1.009771109E0,5.580062389E0,8.039883614E0
7.477956411E0,-1.009771109E0,5.623133183E0,8.090133667E0
7.482711515E0,-1.036092162E0,5.651846886E0,8.147561073E0
7.487466567E0,-1.103091240E0,5.716453075E0,8.288737297E0
7.492221620E0,-1.213161111E0,5.771488190E0,8.501698494E0
7.496976724E0,-1.330409408E0,5.848058701E0,8.717052460E0
7.501731776E0,-1.406979680E0,5.924628735E0,8.994620323E0
7.506486828E0,-1.447657704E0,5.960521221E0,9.269794464E0
7.511241880E0,-1.399801254E0,5.998806477E0,9.501898766E0
7.515996984E0,-1.426122308E0,5.998806477E0,9.650253296E0
7.520752036E0,-1.471585870E0,5.970092297E0,9.736394882E0
7.525507088E0,-1.505085468E0,5.936593056E0,9.798608780E0
7.530262140E0,-1.557727575E0,5.895915031E0,9.815358162E0
7.535017245E0,-1.660618901E0,5.826523304E0,9.798608780E0
7.539772297E0,-1.718046665E0,5.771488190E0,9.729216576E0
7.544527349E0,-1.799402595E0,5.706882000E0,9.683753014E0
7.549282401E0,-1.852044702E0,5.642275810E0,9.590433121E0
7.554037505E0,-1.931007862E0,5.551348686E0,9.511469841E0
7.558792557E0,-2.005185366E0,5.467599869E0,9.418149948E0
7.563547661E0,-2.029113531E0,5.381458282E0,9.296115875E0
7.568302713E0,-2.031506538E0,5.307280540E0,9.159725189E0
7.573057765E0,-2.005185366E0,5.235496044E0,8.968298912E0
7.577812817E0,-2.012363911E0,5.192425251E0,8.724231720E0
7.582567922E0,-1.990828395E0,5.120640278E0,8.446663857E0
7.587322974E0,-1.978864312E0,5.063212872E0,8.142775536E0
7.592078026E0,-1.962114573E0,5.017749310E0,7.881958008E0
7.596833078E0,-1.931007862E0,4.960321426E0,7.647460938E0
7.601588182E0,-1.880758643E0,4.893322468E0,7.453642368E0
7.606343234E0,-1.804188251E0,4.859822750E0,7.264609337E0
7.611098286E0,-1.775474429E0,4.811966419E0,7.147361279E0
7.615853338E0,-1.782652855E0,4.797609329E0,7.054041386E0
7.620608442E0,-1.746760488E0,4.823930264E0,7.008577347E0
7.625363495E0,-1.744367719E0,4.855037212E0,6.977470875E0
7.630118547E0,-1.799402595E0,4.883750916E0,6.977470875E0
7.634873651E0,-1.811366796E0,4.941178799E0,7.027719975E0
7.639628703E0,-1.835294962E0,5.003392220E0,7.111468792E0
7.644383755E0,-1.864008784E0,5.044070244E0,7.245467186E0
7.649138807E0,-1.883151412E0,5.099104881E0,7.415357590E0
7.653893911E0,-1.873580098E0,5.142175674E0,7.594819069E0
7.658648963E0,-1.840080619E0,5.139782906E0,7.812565804E0
7.663404015E0,-1.840080619E0,5.154139996E0,8.039883614E0
7.668159120E0,-1.797009826E0,5.156532764E0,8.276773453E0
7.672914172E0,-1.366301775E0,5.383851051E0,8.362915039E0
7.677669224E0,-1.270588875E0,5.371886730E0,8.647661209E0
7.682424276E0,-1.720439434E0,5.235496044E0,9.056833267E0
7.687179380E0,-1.964507341E0,5.118247509E0,9.442078590E0
7.691934432E0,-1.325623751E0,5.321637630E0,9.432506561E0
7.696689484E0,-1.631905079E0,5.182853699E0,9.772287369E0
7.701444536E0,-1.988435626E0,5.051248550E0,9.944570541E0
7.706199640E0,-2.091326952E0,4.941178799E0,1.011206818E1
7.710954692E0,-1.962114573E0,4.914857864E0,1.010728264E1
7.715709745E0,-1.356730461E0,5.125426292E0,9.765109062E0
7.720464797E0,-1.777867198E0,5.084748268E0,9.946963310E0
7.725219901E0,-2.045863390E0,5.048855782E0,9.990034103E0
7.729974953E0,-2.024327993E0,4.974678040E0,9.961320877E0
7.734730005E0,-1.919043779E0,4.895715237E0,9.796216011E0
7.739485057E0,-1.852044702E0,4.867001057E0,9.595218658E0
7.744240161E0,-1.792224169E0,4.890929699E0,9.449256897E0
7.748995213E0,-1.730010748E0,4.883750916E0,9.332008362E0
7.753750265E0,-1.746760488E0,4.914857864E0,9.209974289E0
7.758505317E0,-1.785045743E0,4.957928658E0,9.147761345E0
7.763260422E0,-1.856830359E0,5.003392220E0,9.090332985E0
7.768015474E0,-1.887937069E0,5.027320385E0,9.056833267E0
7.772770526E0,-1.952543259E0,5.053641319E0,8.980263710E0
7.777525578E0,-2.000399828E0,5.053641319E0,8.855836868E0
7.782280682E0,-2.057827473E0,5.091926575E0,8.748159409E0
7.787035734E0,-2.041077614E0,5.075176716E0,8.647661209E0
7.791790786E0,-1.450050473E0,5.379065514E0,8.312665939E0
7.796545838E0,-1.820937991E0,5.261816978E0,8.544769287E0
7.801300942E0,-2.256431818E0,5.125426292E0,8.695517540E0
7.806055995E0,-2.146361828E0,5.120640278E0,8.807980537E0
7.810811047E0,-1.562513232E0,5.206781864E0,8.604590416E0
7.815566151E0,-1.978864312E0,4.967499733E0,8.898907661E0
7.820321203E0,-2.249253273E0,4.864608288E0,9.066405296E0
7.825076255E0,-1.773081541E0,4.936393261E0,9.059226990E0
7.829831307E0,-1.502692580E0,4.902893543E0,9.059226990E0
7.834586359E0,-1.883151412E0,4.783252239E0,9.274580956E0
7.839341463E0,-2.100898266E0,4.747360229E0,9.470791817E0
7.844096515E0,-2.000399828E0,4.644468784E0,9.556933403E0
7.848851567E0,-1.849651933E0,4.610969067E0,9.497113228E0
7.853606620E0,-1.698904037E0,4.642076015E0,9.437292099E0
7.858361724E0,-1.555334687E0,4.673182487E0,9.384650230E0
7.863116776E0,-1.421336651E0,4.730610371E0,9.322437286E0
7.867871828E0,-1.359123230E0,4.800002098E0,9.265008926E0
7.872626880E0,-1.282552958E0,4.819144726E0,9.200403214E0
7.877381984E0,-1.210768223E0,4.831109047E0,9.116654396E0
7.882137036E0,-1.167697430E0,4.823930264E0,9.004191399E0
7.886892088E0,-1.110269666E0,4.845465660E0,8.874979019E0
7.891647140E0,-1.052842021E0,4.828716278E0,8.733802795E0
7.896402245E0,-1.004985452E0,4.835894585E0,8.618947029E0
7.901157297E0,-9.690931439E-1,4.845465660E0,8.516056061E0
7.905912349E0,-9.571290612E-1,4.881358147E0,8.446663857E0
7.910667401E0,-9.236295223E-1,4.929214478E0,8.417949677E0
7.915422505E0,-9.092726111E-1,4.981856823E0,8.417949677E0
7.920177557E0,-9.140582681E-1,5.053641319E0,8.422736168E0
7.924932609E0,-9.164510965E-1,5.120640278E0,8.427521706E0
7.929687661E0,-9.044869542E-1,5.173282623E0,8.482556343E0
7.934442713E0,-9.044869542E-1,5.259424210E0,8.537590981E0
7.939197817E0,-8.685946465E-1,5.295316696E0,8.599804878E0
7.943952870E0,-8.446664214E-1,5.362315655E0,8.676374435E0
7.948707922E0,-8.039883971E-1,5.402993679E0,8.745766640E0
7.953462974E0,-7.441678643E-1,5.438885689E0,8.851051331E0
7.958218026E0,-6.628118753E-1,5.448457241E0,8.934800148E0
7.962973130E0,-6.221339107E-1,5.436492920E0,8.963513374E0
7.967728182E0,-5.479564071E-1,5.441278458E0,9.006584167E0
7.972483234E0,-4.953143001E-1,5.426921844E0,8.994620323E0
7.977238286E0,-4.402793646E-1,5.412564754E0,8.987442017E0
7.981993390E0,-3.756731451E-1,5.431707382E0,8.977870941E0
7.986748442E0,-3.182454109E-1,5.438885689E0,8.961120605E0
7.991503495E0,-2.703889608E-1,5.465207100E0,8.975478172E0
7.996258547E0,-2.512463629E-1,5.486742496E0,8.992227554E0
8.001013651E0,-2.033899277E-1,5.510670662E0,9.030512810E0
8.005768703E0,-1.962114573E-1,5.536991596E0,9.061619759E0
8.010523755E0,-1.914258152E-1,5.572884083E0,9.071190834E0
8.015278807E0,-1.172483116E-1,5.592026711E0,9.052047729E0
8.020033859E0,-1.148554832E-1,5.596812248E0,9.020941734E0
8.024788963E0,-7.657032460E-2,5.625525951E0,8.992227554E0
8.029544015E0,-1.674975827E-2,5.627918720E0,8.961120605E0
8.034299067E0,1.435693540E-2,5.618347645E0,8.910871506E0
8.039054120E0,4.067798331E-2,5.635097504E0,8.879764557E0
8.043809172E0,9.571290575E-3,5.611168861E0,8.891729355E0
8.048564276E0,1.914258115E-2,5.601597786E0,8.913264275E0
8.053319328E0,7.417750359E-2,5.556134224E0,8.894122124E0
8.058074380E0,9.810572863E-2,5.517848969E0,8.851051331E0
8.062829432E0,1.531406492E-1,5.465207100E0,8.788837433E0
8.067584484E0,2.009970993E-1,5.405386448E0,8.714659691E0
8.072339588E0,2.608176768E-1,5.338387489E0,8.587840080E0
8.077094640E0,2.009970993E-1,5.357530117E0,8.645268440E0
8.081849692E0,9.810572863E-2,5.264209747E0,8.549555779E0
8.086604745E0,7.417750359E-2,5.199603558E0,8.377271652E0
8.091359849E0,1.052841991E-1,5.175675392E0,8.264809608E0
8.096114901E0,6.221338734E-2,5.166104317E0,8.166703224E0
8.100869953E0,3.110669367E-2,5.144568920E0,8.044670105E0
8.105625005E0,1.914258115E-2,5.146961689E0,7.992027760E0
8.110380057E0,1.435693540E-2,5.149354458E0,8.054241180E0
8.115135161E0,-8.614161611E-2,5.103890896E0,7.956135273E0
8.119890213E0,-1.196411327E-1,5.036891460E0,7.826922894E0
8.124645265E0,-1.052841991E-1,5.010570526E0,7.829315662E0
8.129400317E0,-1.674975902E-1,4.938786030E0,7.774280548E0
8.134155370E0,-1.914258152E-1,4.890929699E0,7.721638680E0
8.138910474E0,-2.297109663E-1,4.867001057E0,7.659425259E0
8.143665526E0,-2.871387303E-1,4.881358147E0,7.561319351E0
8.148420578E0,-3.326023519E-1,4.864608288E0,7.491927624E0
8.153175630E0,-3.972085714E-1,4.871787071E0,7.386643410E0
8.157930682E0,-4.666004181E-1,4.931607246E0,7.283751965E0
8.162685786E0,-4.977070987E-1,4.977071285E0,7.221538544E0
8.167440838E0,-5.144568682E-1,5.034498692E0,7.185646534E0
8.172195890E0,-5.216353536E-1,5.108676434E0,7.166503906E0
8.176950942E0,-5.216353536E-1,5.178068161E0,7.185646534E0
8.181705995E0,-5.216353536E-1,5.283352375E0,7.228717327E0
8.186461047E0,-4.809573591E-1,5.340780258E0,7.314858913E0
8.191216151E0,-4.977070987E-1,5.417350292E0,7.410571575E0
8.195971203E0,-5.120640397E-1,5.446064472E0,7.520641804E0
8.200726255E0,-4.929214716E-1,5.529813290E0,7.645068169E0
8.205481307E0,-5.000999570E-1,5.587240696E0,7.802994728E0
8.210236359E0,-5.551348329E-1,5.572884083E0,7.944170952E0
8.214991463E0,-5.790630579E-1,5.611168861E0,8.080561638E0
8.219746515E0,-5.718846321E-1,5.666203976E0,8.224131584E0
8.224501567E0,-4.929214716E-1,5.670989513E0,8.336593628E0
8.229256620E0,-4.666004181E-1,5.682953835E0,8.458627701E0
8.234011672E0,-4.163511395E-1,5.699703693E0,8.592626572E0
8.238766776E0,-3.708875179E-1,5.716453075E0,8.709874153E0
8.243521828E0,-2.751746178E-1,5.726024628E0,8.793622971E0
8.248276880E0,-2.225325108E-1,5.682953835E0,8.858229637E0
8.253031932E0,-1.938186288E-1,5.699703693E0,8.956335068E0
8.257786984E0,-1.531406492E-1,5.682953835E0,9.056833267E0
8.262542088E0,-1.316052526E-1,5.642275810E0,9.176474571E0
8.267297140E0,-1.603191197E-1,5.620740414E0,9.267401695E0
8.272052192E0,-1.316052526E-1,5.599205017E0,9.329615593E0
8.276807245E0,-1.938186288E-1,5.580062389E0,9.363115311E0
8.281562297E0,-2.991028428E-1,5.551348686E0,9.358329773E0
8.286317349E0,-3.852444589E-1,5.527420521E0,9.293723106E0
8.291072453E0,-5.024927258E-1,5.493920803E0,9.171689034E0
8.295827505E0,-6.149554253E-1,5.489135265E0,9.049654961E0
8.300582557E0,-7.082754970E-1,5.479563713E0,8.951549530E0
8.305337609E0,-8.135597110E-1,5.446064472E0,8.855836868E0
8.310092661E0,-9.044869542E-1,5.431707382E0,8.819944382E0
8.314847713E0,-9.571290612E-1,5.438885689E0,8.791230202E0
8.319602817E0,-1.016949654E0,5.453242779E0,8.781659126E0
8.324357870E0,-1.064806104E0,5.426921844E0,8.815158844E0
8.329112922E0,-1.069591761E0,5.395814896E0,8.843872070E0
8.333867974E0,-1.105484009E0,5.369493961E0,8.903693199E0
8.338623026E0,-1.131805062E0,5.307280540E0,8.982656479E0
8.343378078E0,-1.131805062E0,5.268995285E0,9.047262192E0
8.348133182E0,-1.127019525E0,5.235496044E0,9.025727272E0
8.352888234E0,-1.141376376E0,5.192425251E0,9.008976936E0
8.357643286E0,-1.141376376E0,5.166104317E0,8.944371223E0
8.362398338E0,-1.160519004E0,5.115854740E0,8.925228119E0
8.367153390E0,-1.237089276E0,5.087141037E0,8.920442581E0
8.371908442E0,-1.311266780E0,5.036891460E0,8.925228119E0
8.376663547E0,-1.339980721E0,4.991427898E0,8.989834785E0
8.381418599E0,-1.323230863E0,4.888536453E0,9.037691116E0
8.386173651E0,-1.292124271E0,4.778466702E0,9.035298347E0
8.390928703E0,-1.205982566E0,4.661218643E0,8.989834785E0
8.395683755E0,-1.124626637E0,4.524827480E0,8.910871506E0
8.400438807E0,-1.016949654E0,4.381258488E0,8.805587769E0
8.405193911E0,-9.212366939E-1,4.256831646E0,8.645268440E0
8.409948963E0,-8.638089895E-1,4.134797573E0,8.446663857E0
8.414704015E0,-8.470591903E-1,4.015156269E0,8.231309891E0
8.419459067E0,-8.398807645E-1,3.976871252E0,8.056633949E0
8.424214120E0,-8.997012973E-1,3.936193228E0,7.848458290E0
8.428969172E0,-9.810572863E-1,3.974478483E0,7.700103283E0
8.433724276E0,-1.060020447E0,4.005585194E0,7.585247993E0
8.438479328E0,-1.153340459E0,4.065405846E0,7.489534855E0
8.443234380E0,-1.282552958E0,4.146761417E0,7.444071293E0
8.447989432E0,-1.385444283E0,4.278367043E0,7.503891945E0
8.452744484E0,-1.421336651E0,4.412364960E0,7.590033531E0
8.457499536E0,-1.447657704E0,4.543970108E0,7.702496052E0
8.462254588E0,-1.435693622E0,4.680361271E0,7.848458290E0
8.467009692E0,-1.423729420E0,4.811966419E0,7.977670670E0
8.471764745E0,-1.406979680E0,4.926821709E0,8.145168304E0
8.476519797E0,-1.390229940E0,4.998606682E0,8.312665939E0
8.481274849E0,-1.361516118E0,5.063212872E0,8.511270523E0
8.486029901E0,-1.368694544E0,5.111069202E0,8.707481384E0
8.490784953E0,-1.634297848E0,5.271388054E0,8.851051331E0
8.495540005E0,-1.727617979E0,5.333601475E0,8.975478172E0
8.500295109E0,-1.414158225E0,5.276174068E0,9.329615593E0
8.505050161E0,-1.165304661E0,5.249852657E0,9.600004196E0
8.509805213E0,-1.083948612E0,5.182853699E0,9.841679573E0
8.514560265E0,-1.194018483E0,5.201996326E0,1.009531879E1
8.519315317E0,-1.404586911E0,5.283352375E0,1.029392338E1
8.524070370E0,-1.457229018E0,5.268995285E0,1.049970531E1
8.528825422E0,-1.493121386E0,5.304887772E0,1.056431198E1
8.533580526E0,-1.457229018E0,5.338387489E0,1.051645565E1
8.538335578E0,-1.428515077E0,5.340780258E0,1.040638542E1
8.543090630E0,-1.414158225E0,5.371886730E0,1.026520920E1
8.547845682E0,-1.433300734E0,5.357530117E0,1.007617569E1
8.552600734E0,-1.442872047E0,5.357530117E0,9.841679573E0
8.557355786E0,-1.378265858E0,5.319244862E0,9.614361763E0
8.562110838E0,-1.344766378E0,5.280959606E0,9.418149948E0
8.566865942E0,-1.316052437E0,5.259424210E0,9.236295700E0
8.571620995E0,-1.258624673E0,5.259424210E0,9.018548965E0
8.576376047E0,-1.241874933E0,5.257031441E0,8.762516975E0
8.581131099E0,-1.261017561E0,5.271388054E0,8.501698494E0
8.585886151E0,-1.282552958E0,5.319244862E0,8.243273735E0
8.590641203E0,-1.301695466E0,5.371886730E0,8.039883614E0
8.595396307E0,-1.328016520E0,5.443671703E0,7.850851059E0
8.600151359E0,-1.325623751E0,5.498706341E0,7.664210796E0
8.604906411E0,-1.299302697E0,5.505885124E0,7.525427341E0
8.609661463E0,-1.234696507E0,5.525027275E0,7.408178806E0
8.614416515E0,-1.172483087E0,5.503491879E0,7.341179848E0
8.619171567E0,-1.076770186E0,5.503491879E0,7.372286797E0
8.623926620E0,-9.810572863E-1,5.455635548E0,7.451249599E0
8.628681672E0,-8.853443861E-1,5.431707382E0,7.597211838E0
8.633436724E0,-6.125625968E-1,5.690132141E0,7.671389580E0
8.638191828E0,2.991028428E-1,6.072983742E0,7.719245911E0
8.642946880E0,5.862415433E-1,5.893522263E0,8.042277336E0
8.647701932E0,2.416750938E-1,5.714060307E0,8.379665375E0
8.652456984E0,-1.411765367E-1,5.582455158E0,8.702695847E0
8.657212036E0,-2.297109663E-1,5.386243820E0,8.889336586E0
8.661967088E0,-1.842473447E-1,5.180460930E0,9.016156197E0
8.666722140E0,-6.221338734E-2,5.041677475E0,9.116654396E0
8.671477192E0,1.914258115E-2,4.900500774E0,9.202795982E0
8.676232297E0,1.435693540E-2,4.833501816E0,9.288937569E0
8.680987349E0,-1.914258115E-2,4.735395908E0,9.365508080E0
8.685742401E0,-7.178468257E-2,4.654039860E0,9.391828537E0
8.690497453E0,-3.469592929E-1,4.503292084E0,9.487542152E0
8.695252505E0,-3.780659735E-1,4.426722050E0,9.525827408E0
8.700007557E0,-2.488535494E-1,4.409972191E0,9.494720459E0
8.704762609E0,-6.460621208E-2,4.455435753E0,9.444471359E0
8.709517713E0,5.742774159E-2,4.560719967E0,9.396614075E0
8.714272765E0,1.316052526E-1,4.673182487E0,9.339186668E0
8.719027817E0,1.651047617E-1,4.766502857E0,9.293723106E0
8.723782870E0,1.794617027E-1,4.867001057E0,9.207581520E0
8.728537922E0,2.273181528E-1,4.900500774E0,9.073583603E0
8.733292974E0,2.081755698E-1,4.922036171E0,8.884550095E0
8.738048026E0,2.057827413E-1,4.934000492E0,8.683553696E0
8.742803078E0,1.292124242E-1,4.898108006E0,8.449056625E0
8.747558130E0,5.024927482E-2,4.867001057E0,8.214560509E0
8.752313234E0,-7.178467698E-3,4.847858906E0,8.020741463E0
8.757068286E0,-1.387837082E-1,4.852644444E0,7.881958008E0
8.761823338E0,-2.871387303E-1,4.890929699E0,7.819744587E0
8.766578390E0,-3.900300860E-1,4.948357105E0,7.838887215E0
8.771333442E0,-5.096712112E-1,5.003392220E0,7.874779224E0
8.776088495E0,-5.862415433E-1,5.072783947E0,7.948956966E0
8.780843547E0,-6.628118753E-1,5.154139996E0,8.023134232E0
8.785598599E0,-7.034898400E-1,5.218746185E0,8.111668587E0
8.790353651E0,-7.298108935E-1,5.249852657E0,8.190631866E0
8.795108755E0,-7.130611539E-1,5.252245903E0,8.298309326E0
8.799863807E0,-6.723831892E-1,5.194818020E0,8.362915039E0
8.804618859E0,-5.551348329E-1,5.134997368E0,8.410771370E0
8.809373911E0,-4.618147612E-1,5.029713154E0,8.417949677E0
8.814128963E0,-3.948157430E-1,4.965106964E0,8.396414757E0
8.818884015E0,-3.278166950E-1,4.893322468E0,8.353343964E0
8.823639067E0,-3.469592929E-1,4.845465660E0,8.295916557E0
8.828394120E0,-3.804588020E-1,4.845465660E0,8.317451477E0
8.833149172E0,-4.426721931E-1,4.907679081E0,8.334200859E0
8.837904276E0,-4.857429862E-1,4.943571568E0,8.365307808E0
8.842659328E0,-4.857429862E-1,5.015356064E0,8.432307243E0
8.847414380E0,-6.388836503E-1,5.192425251E0,8.487341881E0
8.852169432E0,-6.628118753E-1,5.273781300E0,8.535198212E0
8.856924484E0,-4.905286431E-1,5.209175110E0,8.719446182E0
8.861679536E0,-3.230310678E-1,5.134997368E0,8.961120605E0
8.866434588E0,-2.392822653E-1,5.041677475E0,9.104690552E0
8.871189640E0,-2.273181528E-1,4.977071285E0,9.152546883E0
8.875944692E0,-2.488535494E-1,4.914857864E0,9.164510727E0
8.880699745E0,-2.895315289E-1,4.857429981E0,9.154939651E0
8.885454849E0,-3.541377485E-1,4.833501816E0,9.131011009E0
8.890209901E0,-3.230310678E-1,4.819144726E0,9.123832703E0
8.894964953E0,-3.062812984E-1,4.783252239E0,9.092725754E0
8.899720005E0,-2.751746178E-1,4.730610371E0,9.111868858E0
8.904475057E0,-3.086741269E-1,4.723432064E0,9.131011009E0
8.909230109E0,-3.828516304E-1,4.788038254E0,9.145368576E0
8.913985161E0,-4.881358147E-1,4.840680122E0,9.126225471E0
8.918740213E0,-5.383850932E-1,4.869394302E0,9.104690552E0
8.923495265E0,-2.368894368E-1,5.319244862E0,8.879764557E0
8.928250317E0,4.522434771E-1,5.407779217E0,8.882157326E0
8.933005370E0,3.493520916E-1,5.347958565E0,8.788837433E0
8.937760422E0,6.460621208E-2,5.206781864E0,8.970691681E0
8.942515526E0,-1.435693651E-1,5.228317261E0,8.951549530E0
8.947270578E0,-1.579262912E-1,5.091926575E0,8.853444099E0
8.952025630E0,-1.651047617E-1,4.950749874E0,8.755337715E0
8.956780682E0,-1.722832322E-1,4.862215519E0,8.640482903E0
8.961535734E0,-1.698904037E-1,4.780859470E0,8.539983749E0
8.966290786E0,-2.153540403E-1,4.759324074E0,8.422736168E0
8.971045838E0,-2.273181528E-1,4.761716843E0,8.355736732E0
8.975800890E0,-2.632105052E-1,4.764110088E0,8.303094864E0
8.980555942E0,-2.847459018E-1,4.749752998E0,8.269595146E0
8.985310995E0,-2.727817893E-1,4.718646049E0,8.248059273E0
8.990066047E0,-2.536391914E-1,4.709074974E0,8.267202377E0
8.994821099E0,-2.153540403E-1,4.677968502E0,8.283951759E0
8.999576203E0,-1.698904037E-1,4.625326157E0,8.307880402E0
9.004331255E0,-1.698904037E-1,4.577469826E0,8.334200859E0
9.009086307E0,-1.244267747E-1,4.548755646E0,8.382058144E0
9.013841359E0,-1.196411327E-1,4.524827480E0,8.405985832E0
9.018596411E0,-1.339980662E-1,4.510470867E0,8.420342445E0
9.023351463E0,-1.435693651E-1,4.522434711E0,8.432307243E0
9.028106515E0,-1.579262912E-1,4.541577339E0,8.453842163E0
9.032861567E0,-1.483550072E-1,4.560719967E0,8.465806961E0
9.037616620E0,-1.770688742E-1,4.575077057E0,8.480163574E0
9.042371672E0,-2.392822653E-1,4.515256405E0,8.556734085E0
9.047126724E0,-4.307080805E-1,4.460221291E0,8.626125336E0
9.051881776E0,-4.211367965E-1,4.486542225E0,8.726624489E0
9.056636828E0,-2.009970993E-1,4.520041943E0,8.731410027E0
9.061391932E0,7.896314561E-2,4.584648132E0,8.729017258E0
9.066146984E0,2.775674164E-1,4.680361271E0,8.738588333E0
9.070902036E0,4.402793646E-1,4.773681164E0,8.772088051E0
9.075657088E0,5.240281820E-1,4.855037212E0,8.827122688E0
9.080412140E0,6.340979934E-1,4.912465096E0,8.827122688E0
9.085167192E0,6.987041831E-1,4.912465096E0,8.839086533E0
9.089922245E0,7.441678643E-1,4.943571568E0,8.827122688E0
9.094677297E0,8.374879360E-1,4.934000492E0,8.784051895E0
9.099432349E0,9.427721500E-1,4.898108006E0,8.731410027E0
9.104187401E0,1.024128079E0,4.869394302E0,8.681160927E0
9.108942453E0,1.136590719E0,4.816751957E0,8.609375954E0
9.113697505E0,1.239482164E0,4.776073933E0,8.549555779E0
9.118452557E0,1.351944804E0,4.776073933E0,8.499305725E0
9.123207661E0,1.454836130E0,4.733003139E0,8.444271088E0
9.127962713E0,1.567298889E0,4.730610371E0,8.394021988E0
9.132717765E0,1.631905079E0,4.740181446E0,8.365307808E0
9.137472817E0,1.734796405E0,4.716253281E0,8.391629219E0
9.142227870E0,1.849651933E0,4.709074974E0,8.470592499E0
9.146982922E0,1.935793519E0,4.733003139E0,8.530412674E0
9.151737974E0,2.021935225E0,4.768895626E0,8.604590416E0
9.156493026E0,2.153540373E0,4.816751957E0,8.705088615E0
9.161248078E0,2.227717876E0,4.888536453E0,8.695517540E0
9.166003130E0,2.273181438E0,4.981856823E0,8.724231720E0
9.170758182E0,2.328216314E0,5.070391178E0,8.760123253E0
9.175513234E0,2.378465652E0,5.146961689E0,8.784051895E0
9.180268286E0,2.411965132E0,5.209175110E0,8.836693764E0
9.185023338E0,2.447857618E0,5.233103275E0,8.851051331E0
9.189778390E0,2.512463808E0,5.242674351E0,8.973084450E0
9.194533442E0,2.600998163E0,5.235496044E0,9.047262192E0
9.199288495E0,2.672782898E0,5.225924492E0,9.135796547E0
9.204043547E0,2.756531715E0,5.187639713E0,9.233902931E0
9.208798651E0,2.816352367E0,5.163711071E0,9.269794464E0
9.213553703E0,2.816352367E0,5.166104317E0,9.250652313E0
9.218308755E0,2.828316450E0,5.096712112E0,9.181260109E0
9.223063755E0,2.780459881E0,5.048855782E0,8.999405861E0
9.227818859E0,2.689532757E0,4.981856823E0,8.736195564E0
9.232573911E0,2.562713146E0,4.905286312E0,8.496912956E0
9.237328963E0,2.447857618E0,4.847858906E0,8.226524353E0
9.242084015E0,2.356930256E0,4.816751957E0,8.001599312E0
9.246839067E0,2.251646042E0,4.802394867E0,7.802994728E0
9.251594120E0,2.139183521E0,4.800002098E0,7.637889862E0
9.256349172E0,2.057827473E0,4.790431023E0,7.487142086E0
9.261104224E0,1.995614052E0,4.797609329E0,7.293323517E0
9.265859276E0,1.942971945E0,4.785645485E0,7.075576782E0
9.270614328E0,1.909472466E0,4.807180882E0,6.886543751E0
9.275369380E0,1.856830359E0,4.862215519E0,6.757331371E0
9.280124432E0,1.823330879E0,4.943571568E0,6.659225464E0
9.284879484E0,1.777867198E0,5.029713154E0,6.599404812E0
9.289634536E0,1.859223247E0,5.094319344E0,6.592226505E0
9.294389588E0,1.926222205E0,5.139782906E0,6.616154671E0
9.299144640E0,1.938186288E0,5.209175110E0,6.709474564E0
9.303899692E0,1.969292998E0,5.304887772E0,6.831508636E0
9.308654745E0,2.024327993E0,5.364708424E0,7.039684296E0
9.313409797E0,2.038684845E0,5.448457241E0,7.283751965E0
9.318164901E0,2.100898266E0,5.510670662E0,7.554141045E0
9.322919953E0,2.151147604E0,5.613562107E0,7.836493969E0
9.327675005E0,2.208575249E0,5.670989513E0,8.111668587E0
9.332430057E0,2.292324066E0,5.737988472E0,8.391629219E0
9.337185109E0,2.392822742E0,5.797809124E0,8.673981667E0
9.341940161E0,2.464607239E0,5.826523304E0,8.918049812E0
9.346695213E0,2.557927370E0,5.812166214E0,9.152546883E0
9.351450265E0,2.581855536E0,5.809773445E0,9.322437286E0
9.356205317E0,2.605783939E0,5.742774487E0,9.468399048E0
9.360960370E0,2.593819857E0,5.685346603E0,9.573683739E0
9.365715422E0,2.545963287E0,5.618347645E0,9.628718376E0
9.370470474E0,2.519642353E0,5.548955917E0,9.645467758E0
9.375225526E0,2.445464849E0,5.520241737E0,9.588040352E0
9.379980578E0,2.419143677E0,5.448457241E0,9.480362892E0
9.384735630E0,2.361716032E0,5.379065514E0,9.317651749E0
9.389490682E0,2.261217356E0,5.297709465E0,9.095118523E0
9.394245734E0,2.148754835E0,5.302495003E0,8.906085968E0
9.399000786E0,2.108076811E0,5.170889854E0,8.738588333E0
9.403755838E0,1.990828395E0,5.075176716E0,8.561519623E0
9.408510890E0,1.852044702E0,4.977071285E0,8.362915039E0
9.413265942E0,1.763510346E0,4.893322468E0,8.178668022E0
9.418020995E0,1.686939955E0,4.764110088E0,7.965706348E0
9.422776047E0,1.612762451E0,4.697110653E0,7.764709473E0
9.427531099E0,1.519442320E0,4.630111694E0,7.566105366E0
9.432286151E0,1.445264935E0,4.563112736E0,7.405786037E0
9.437041203E0,1.335195065E0,4.570291042E0,7.326822758E0
9.441796255E0,1.196411371E0,4.553541660E0,7.300501823E0
9.446551307E0,1.086341500E0,4.551148891E0,7.305287361E0
9.451306359E0,9.547362328E-1,4.594219685E0,7.345965385E0
9.456061411E0,8.255237937E-1,4.637290478E0,7.415357590E0
9.460816463E0,7.274180651E-1,4.663611412E0,7.513463020E0
9.465571515E0,6.293123364E-1,4.680361271E0,7.585247993E0
9.470326567E0,5.575276613E-1,4.723432064E0,7.726424217E0
9.475081620E0,5.312066078E-1,4.704289436E0,7.855636597E0
9.479836672E0,5.120640397E-1,4.701896667E0,8.020741463E0
9.484591776E0,5.240281820E-1,4.711467743E0,8.135597229E0
9.489346776E0,5.120640397E-1,4.682754040E0,8.216953278E0
9.494101880E0,4.833501875E-1,4.654039860E0,8.269595146E0
9.498856932E0,5.096712112E-1,4.599005222E0,8.334200859E0
9.503611984E0,4.737788737E-1,4.565505505E0,8.377271652E0
9.508367036E0,4.761717021E-1,4.476971149E0,8.422736168E0
9.513122088E0,4.259224236E-1,4.510470867E0,8.516056061E0
9.517877140E0,3.517449200E-1,4.512863636E0,8.551948547E0
9.522632192E0,2.488535494E-1,4.498506546E0,8.561519623E0
9.527387245E0,1.866401732E-1,4.508078098E0,8.542376518E0
9.532142297E0,1.028913707E-1,4.457828522E0,8.487341881E0
9.536897349E0,5.264209956E-2,4.469792843E0,8.432307243E0
9.541652401E0,-2.392822690E-2,4.539184570E0,8.396414757E0
9.546407453E0,-3.469592929E-1,4.613361835E0,8.358129501E0
9.551162505E0,-5.240281820E-1,4.642076015E0,8.252845764E0
9.555917557E0,-3.445664644E-1,4.687539577E0,8.432307243E0
9.560672609E0,-2.201396823E-1,4.792823792E0,8.583054543E0
9.565427661E0,-2.225325108E-1,4.905286312E0,8.697910309E0
9.570182713E0,-3.158525825E-1,4.965106964E0,8.791230202E0
9.574937765E0,-3.924229145E-1,5.096712112E0,9.040083885E0
9.579692817E0,-3.804588020E-1,5.221138954E0,9.315258980E0
9.584447870E0,-3.397808075E-1,5.335994720E0,9.540184021E0
9.589202922E0,-2.488535494E-1,5.412564754E0,9.695717812E0
9.593957974E0,-7.896314561E-2,5.419743061E0,9.870393753E0
9.598713026E0,1.842473447E-1,5.383851051E0,1.005224800E1
9.603468078E0,4.498506486E-1,5.312066078E0,1.016471100E1
9.608223130E0,5.383850932E-1,5.247459888E0,1.021735287E1
9.612978182E0,6.580262184E-1,5.163711071E0,1.019581699E1
9.617733234E0,7.872386575E-1,5.041677475E0,1.015753174E1
9.622488286E0,8.303094506E-1,4.926821709E0,1.007139015E1
9.627243338E0,8.231309652E-1,4.833501816E0,9.913464546E0
9.631998390E0,8.303094506E-1,4.766502857E0,9.722038269E0
9.636753442E0,8.614161611E-1,4.692325115E0,9.501898766E0
9.641508495E0,8.973084688E-1,4.649254322E0,9.320044518E0
9.646263547E0,9.523434043E-1,4.606183529E0,9.142974854E0
9.651018599E0,1.012163997E0,4.546362877E0,8.963513374E0
9.655773651E0,1.064806104E0,4.455435753E0,8.731410027E0
9.660528703E0,1.081555843E0,4.381258488E0,8.544769287E0
9.665283755E0,1.131805062E0,4.292723656E0,8.389236450E0
9.670038807E0,1.141376376E0,4.213760853E0,8.240880966E0
9.674793859E0,1.131805062E0,4.139583111E0,8.102097511E0
9.679548911E0,1.081555843E0,4.120440483E0,7.948956966E0
9.684303963E0,1.124626637E0,3.993621111E0,7.795815945E0
9.689059015E0,1.158126116E0,3.924229145E0,7.700103283E0
9.693814067E0,1.158126116E0,3.866801500E0,7.625925541E0
9.698569120E0,1.165304661E0,3.809373617E0,7.585247993E0
9.703324172E0,1.162911773E0,3.747160196E0,7.597211838E0
9.708079224E0,1.167697430E0,3.718446493E0,7.642675400E0
9.712834276E0,1.174875975E0,3.668197155E0,7.678567886E0
9.717589328E0,1.103091240E0,3.684946775E0,7.781459332E0
9.722344380E0,1.052842021E0,3.725624800E0,7.843672752E0
9.727099432E0,1.014556766E0,3.795016766E0,7.963313580E0
9.731854484E0,9.906286001E-1,3.854837179E0,8.104490280E0
9.736609536E0,9.403793216E-1,3.960121393E0,8.267202377E0
9.741364588E0,8.733802438E-1,4.022335052E0,8.475378036E0
9.746119640E0,8.183453679E-1,4.098905087E0,8.683553696E0
9.750874692E0,7.322037220E-1,4.187439442E0,8.846264839E0
9.755629692E0,5.862415433E-1,4.290330887E0,9.032905579E0
9.760384797E0,2.321037948E-1,4.453042984E0,9.107083321E0
9.765139797E0,5.000999570E-1,4.431507587E0,9.451649666E0
9.769894849E0,8.327022791E-1,4.386044025E0,9.777072906E0
9.774649953E0,1.081555843E0,4.381258488E0,1.004985523E1
9.779404953E0,1.150947690E0,4.321437836E0,1.031545830E1
9.784160005E0,1.292124271E0,4.256831646E0,1.059541893E1
9.788915057E0,1.447657704E0,4.228117466E0,1.088495064E1
9.793670109E0,1.481157184E0,4.230510235E0,1.100459099E1
9.798425161E0,1.433300734E0,4.197010994E0,1.098784161E1
9.803180213E0,1.411765337E0,4.177868366E0,1.092084217E1
9.807935265E0,1.361516118E0,4.137190342E0,1.072702408E1
9.812690317E0,1.323230863E0,4.096512318E0,1.038963604E1
9.817445370E0,1.294517040E0,4.074976921E0,1.002114105E1
9.822200422E0,1.270588875E0,4.022335052E0,9.662218094E0
9.826955474E0,1.313659668E0,3.981656790E0,9.415757179E0
9.831710526E0,1.294517040E0,3.962514400E0,9.145368576E0
9.836465578E0,1.239482164E0,3.917050600E0,8.930013657E0
9.841220630E0,1.186840057E0,3.883551121E0,8.798408508E0
9.845975682E0,1.143769264E0,3.885943890E0,8.671588898E0
9.850730734E0,1.100698471E0,3.881158352E0,8.616554260E0
9.855485786E0,1.143769264E0,3.866801500E0,8.568697929E0
9.860240838E0,1.189232826E0,3.881158352E0,8.501698494E0
9.864995890E0,1.213161111E0,3.885943890E0,8.492127419E0
9.869750942E0,1.301695466E0,3.907479286E0,8.475378036E0
9.874505995E0,1.335195065E0,3.897907972E0,8.480163574E0
9.879261047E0,1.380658627E0,3.881158352E0,8.530412674E0
9.884016099E0,1.371087432E0,3.881158352E0,8.566305161E0
9.888771151E0,1.318445325E0,3.881158352E0,8.669196129E0
9.893526203E0,1.249053478E0,3.900300980E0,8.843872070E0
9.898281255E0,1.148554921E0,3.929014683E0,9.042476654E0
9.903036307E0,1.067198873E0,3.943371773E0,9.221938133E0
9.907791359E0,9.954141974E-1,3.984049797E0,9.432506561E0
9.912546411E0,9.451649189E-1,3.981656790E0,9.585647583E0
9.917301463E0,9.188438654E-1,3.967299938E0,9.683753014E0
9.922056515E0,8.446664214E-1,3.948157310E0,9.702896118E0
9.926811567E0,7.441678643E-1,3.957728624E0,9.690931320E0
9.931566620E0,9.044869542E-1,4.256831646E0,9.458827972E0
9.936321672E0,1.447657704E0,4.228117466E0,9.363115311E0
9.941076672E0,7.322037220E-1,3.967299938E0,9.099904060E0
9.945831724E0,-1.100698411E-1,3.816552162E0,9.219545364E0
9.950586776E0,-2.991028428E-1,3.625126362E0,9.142974854E0
9.955341828E0,5.742774159E-2,4.053441525E0,8.695517540E0
