"Time (s)","Acceleration x (m/s^2)","Acceleration y (m/s^2)","Acceleration z (m/s^2)"
4.120013000E-3,-1.960918188E0,5.291129112E0,7.502097130E0
8.896940000E-3,-1.941775560E0,5.276174068E0,7.564310551E0
1.367391900E-2,-1.907677889E0,5.261816978E0,7.698906898E0
1.845084600E-2,-1.859223247E0,5.257031441E0,7.847261906E0
2.322777400E-2,-1.686341763E0,5.204389095E0,7.975875854E0
2.800470100E-2,-1.547558069E0,5.156532764E0,8.070990562E0
3.278157600E-2,-1.494915962E0,5.099104881E0,8.114061356E0
3.755850300E-2,-1.518245935E0,5.089533806E0,8.181658745E0
4.233548200E-2,-1.493719578E0,5.060221672E0,8.301300049E0
4.711235700E-2,-1.521835208E0,5.026721954E0,8.353941917E0
5.188933600E-2,-1.564307809E0,5.017150879E0,8.411968231E0
5.666626300E-2,-1.601396561E0,5.031507969E0,8.546564102E0
6.144319000E-2,-1.619940877E0,5.030909538E0,8.690134048E0
6.622011700E-2,-1.581057549E0,5.045864582E0,8.830113411E0
7.099704400E-2,-1.499103427E0,5.060221672E0,8.944371223E0
7.577397100E-2,-1.446461320E0,5.065007210E0,9.044869423E0
8.055095100E-2,-1.403390527E0,5.060221672E0,9.126225471E0
8.532782600E-2,-1.402792215E0,5.041079044E0,9.164510727E0
9.010480500E-2,-1.411765337E0,5.012365341E0,9.232108116E0
9.488168000E-2,-1.387837172E0,5.021936417E0,9.318249702E0
9.965865900E-2,-1.330409408E0,5.036293507E0,9.385248184E0
1.044355860E-1,-1.244866014E0,5.056034088E0,9.389435768E0
1.092125130E-1,-1.178465128E0,5.070391178E0,9.321838379E0
1.139894400E-1,-1.055234790E0,5.090131760E0,9.235098839E0
1.187663670E-1,-8.997012973E-1,5.124229908E0,9.095118523E0
1.235432940E-1,-8.673982024E-1,5.187041283E0,8.936594009E0
1.283202740E-1,-7.208378315E-1,5.192425251E0,8.810971260E0
1.330972010E-1,-5.449653864E-1,5.178068161E0,8.636893272E0
1.378741280E-1,-2.805584669E-1,5.352146149E0,8.458029747E0
1.426510550E-1,-3.050848842E-1,5.212764263E0,8.275577545E0
1.474279820E-1,-3.631108403E-1,5.116453171E0,8.041080475E0
1.522049090E-1,-4.881358147E-1,5.072783947E0,7.782655716E0
1.569818360E-1,-6.323033571E-1,5.019543648E0,7.624729156E0
1.617587630E-1,-7.746763229E-1,5.023731232E0,7.702496052E0
1.665356900E-1,-8.596215248E-1,5.033302307E0,7.779664516E0
1.713126170E-1,-9.397810698E-1,5.038087845E0,7.847261906E0
1.760895440E-1,-1.006181955E0,5.062016487E0,7.910073280E0
1.808664710E-1,-1.053440213E0,5.129015446E0,7.972885132E0
1.856434510E-1,-1.054038405E0,5.215754986E0,8.006384850E0
1.904203780E-1,-1.034297585E0,5.292923450E0,8.078168869E0
1.951973050E-1,-1.020538807E0,5.350949764E0,8.078168869E0
1.999742320E-1,-1.001994491E0,5.403591633E0,8.039285660E0
2.047511590E-1,-9.876375198E-1,5.428118229E0,8.005785942E0
2.095280860E-1,-1.021735311E0,5.452046394E0,7.905287743E0
2.143050130E-1,-1.046261668E0,5.466403484E0,7.766504288E0
2.190819400E-1,-1.047458172E0,5.461617470E0,7.621738434E0
2.238588670E-1,-1.157527924E0,5.408377171E0,7.444669247E0
2.286357940E-1,-1.551147223E0,5.277968407E0,6.751348972E0
2.334127210E-1,-1.773081541E0,5.152345181E0,6.253043652E0
2.381896490E-1,-1.744367719E0,5.036891460E0,6.209972858E0
2.429665760E-1,-1.546361685E0,4.853840828E0,6.574280262E0
2.477435550E-1,-1.291526079E0,4.695914268E0,6.985845566E0
2.525204820E-1,-9.744769931E-1,4.546362877E0,7.377670288E0
2.572974090E-1,-6.239284873E-1,4.378267288E0,7.735995770E0
2.620743360E-1,-4.031906128E-1,4.277768612E0,8.075776100E0
2.668512630E-1,-2.871387303E-1,4.229912281E0,8.300103188E0
2.716281900E-1,-1.244267747E-1,4.283152580E0,8.505886078E0
2.764051170E-1,6.161518395E-2,4.322035789E0,8.658429146E0
2.811820440E-1,9.152546525E-2,4.336392879E0,8.864809990E0
2.859590240E-1,7.896314561E-2,4.321437836E0,9.114261627E0
2.907359510E-1,5.682953820E-2,4.229912281E0,9.382855415E0
2.955128780E-1,1.830509305E-1,4.119244099E0,9.742377281E0
3.002764710E-1,3.320041299E-1,3.984647989E0,9.972686768E0
3.050667320E-1,4.612165689E-1,3.932005882E0,1.008215809E1
3.098436590E-1,5.844469070E-1,3.951746702E0,9.893723488E0
3.146205860E-1,6.544370055E-1,3.932604074E0,9.696913719E0
3.193975130E-1,8.350951076E-1,3.899702787E0,9.619147301E0
3.241744400E-1,1.029511929E0,3.837489367E0,9.493523598E0
3.289513670E-1,1.214357495E0,3.775275946E0,9.334401131E0
3.337283460E-1,1.340578914E0,3.717848301E0,9.012566566E0
3.385052740E-1,1.433300734E0,3.699303865E0,8.541180611E0
3.432822010E-1,1.606182218E0,3.699902058E0,8.075178146E0
3.480591280E-1,1.874776483E0,3.748954773E0,7.646264553E0
3.528360550E-1,1.850250125E0,3.830909014E0,7.521239758E0
3.576129820E-1,1.417149186E0,3.949951887E0,7.633702278E0
3.623899090E-1,8.033902049E-1,4.054637909E0,7.584051132E0
3.671668360E-1,4.396811724E-1,4.073182583E0,7.317849636E0
3.719437630E-1,6.574280262E-1,3.953541279E0,7.048058987E0
3.767207420E-1,9.996016622E-1,3.881756544E0,6.960123062E0
3.814976690E-1,1.327418327E0,3.834498405E0,6.838088989E0
3.862745960E-1,1.593619823E0,3.748356581E0,6.827321053E0
3.910515240E-1,1.610369682E0,3.618546009E0,7.153343201E0
3.958284510E-1,1.661815286E0,3.536591768E0,7.667201996E0
4.006053780E-1,1.539781332E0,3.579662561E0,8.075178146E0
4.053823050E-1,1.023529887E0,3.866801500E0,8.552546501E0
4.101592320E-1,-1.232303679E-1,4.022335052E0,9.336195946E0
4.149228260E-1,-1.079162955E0,4.236492634E0,1.037288570E1
4.197131380E-1,-1.902892232E0,4.551746845E0,1.122652531E1
4.244919180E-1,-2.248655081E0,4.773082733E0,1.151605701E1
4.292555120E-1,-2.037488461E0,4.850849628E0,1.115533924E1
4.340457720E-1,-1.856830359E0,4.933402061E0,1.042911720E1
4.388226990E-1,-1.359721422E0,4.746761799E0,9.836296082E0
4.435996270E-1,-4.899304509E-1,4.368097782E0,9.471988678E0
4.483765540E-1,8.973085135E-2,3.994219303E0,9.215357780E0
4.531534810E-1,5.772684813E-1,3.586242914E0,9.333204269E0
4.579304600E-1,5.994020700E-1,3.267399311E0,9.654440880E0
4.627073350E-1,3.583251834E-1,3.238087177E0,9.924830437E0
4.674843140E-1,1.591227055E-1,3.367299557E0,1.015155029E1
4.722612410E-1,-1.794616925E-3,3.497708559E0,1.026221848E1
4.770381680E-1,-2.590230405E-1,3.670589924E0,1.027777100E1
4.818150950E-1,-1.698904037E-1,3.781257868E0,1.021496010E1
4.865920220E-1,1.202393398E-1,3.666402578E0,1.008395290E1
4.913689490E-1,4.097708762E-1,3.595216036E0,9.957731247E0
4.961459290E-1,9.553344250E-1,3.967299938E0,9.848857880E0
5.009095220E-1,2.001596212E0,4.678566456E0,9.425328255E0
5.056997830E-1,6.789634228E-1,4.284946918E0,9.183054924E0
5.104767100E-1,-1.100698411E-1,3.897309780E0,9.091529846E0
5.152546350E-1,-3.188436031E-1,3.608376503E0,9.097511292E0
5.200315620E-1,-7.956135273E-2,3.517449379E0,9.254839897E0
5.248084890E-1,4.426721856E-2,3.575475216E0,9.359525681E0
5.295854160E-1,2.967100143E-1,3.768097401E0,9.525827408E0
5.343623430E-1,-1.704886109E-1,3.757927895E0,9.279366493E0
5.391392700E-1,-7.866404653E-1,3.428316593E0,8.730213165E0
5.439162500E-1,-4.863412082E-1,3.135195971E0,8.575278282E0
5.486931770E-1,-2.440679073E-1,3.049652576E0,8.526225090E0
5.534701040E-1,7.136593461E-1,3.215355396E0,8.848059654E0
5.582470310E-1,2.931207791E-2,3.537189960E0,8.400003433E0
5.630239580E-1,-2.249253243E-1,3.454039574E0,7.979465485E0
5.678008850E-1,3.882354796E-1,3.460619688E0,7.923233986E0
5.725778120E-1,8.410771489E-1,3.597010612E0,8.146365166E0
5.773547910E-1,7.884350419E-1,3.823132277E0,8.208578110E0
5.821317180E-1,6.711867452E-1,3.933202267E0,8.472985268E0
5.869086450E-1,6.711867452E-1,3.972085476E0,8.496912956E0
5.916855720E-1,1.184447169E0,4.050450325E0,8.508877754E0
5.964625000E-1,1.601994753E0,4.055834293E0,8.410771370E0
6.012394270E-1,1.643270969E0,4.128815651E0,8.036294937E0
6.060163540E-1,1.393221021E0,4.248456478E0,7.730611801E0
6.107932810E-1,1.468594909E0,4.181457520E0,7.633702278E0
6.155702600E-1,1.582253933E0,4.042075634E0,7.498507977E0
6.203471870E-1,2.288734913E0,4.125226021E0,7.855636597E0
6.251241140E-1,1.432104349E0,3.954737663E0,7.740182877E0
6.299010410E-1,1.032503009E0,3.549752474E0,7.516454220E0
6.346779680E-1,1.080957651E0,3.342175007E0,7.559525013E0
6.394548950E-1,1.005583763E0,3.336791277E0,7.622336388E0
6.442318220E-1,8.303094506E-1,3.307479143E0,7.738986492E0
6.490087500E-1,8.931210637E-1,3.206382275E0,7.896913052E0
6.537857290E-1,2.367099762E0,2.449054003E0,8.105687141E0
6.585626560E-1,1.022333503E0,2.778665304E0,7.719245911E0
6.633395830E-1,3.906283081E-1,3.114258766E0,7.351947784E0
6.681165100E-1,3.924229145E-1,3.436691523E0,7.016354084E0
6.728934370E-1,5.515456200E-1,3.669393539E0,6.621538639E0
6.776703640E-1,4.235295951E-1,3.832703590E0,6.180660725E0
6.824472910E-1,4.546362907E-2,3.933202267E0,5.832505226E0
6.872109370E-1,5.694918036E-1,3.588037491E0,5.657230854E0
6.920011970E-1,9.349954724E-1,3.303889751E0,5.425127029E0
6.967781250E-1,1.100698471E0,3.092723370E0,5.179264545E0
7.015417180E-1,1.209571838E0,2.982055187E0,5.059025288E0
7.063319790E-1,1.427916884E0,3.026322365E0,5.005186558E0
7.111089060E-1,1.672582984E0,2.983251572E0,5.195415974E0
7.158858330E-1,1.658226132E0,2.756531715E0,5.867799282E0
7.206627600E-1,1.455434322E0,2.602194548E0,6.128018856E0
7.254397390E-1,7.597211599E-1,2.562114954E0,5.867799282E0
7.302166660E-1,6.807580590E-1,2.475374937E0,5.340181828E0
7.349935930E-1,9.493523836E-1,2.355135679E0,4.935794830E0
7.397705200E-1,1.154536963E0,2.365903378E0,5.050052166E0
7.445474470E-1,1.253839016E0,2.302493572E0,5.726622581E0
7.493243750E-1,1.296909928E0,2.070987940E0,6.445665836E0
7.541013540E-1,9.744769931E-1,1.814955950E0,7.191628456E0
7.588649470E-1,8.123632669E-1,1.573280931E0,7.759325504E0
7.636552080E-1,9.182456732E-1,1.419542074E0,7.917252064E0
7.684321350E-1,1.017547846E0,1.304088354E0,7.767700672E0
7.732090620E-1,9.918249846E-1,1.270588875E0,7.421937466E0
7.779859890E-1,8.757730722E-1,1.256231904E0,7.067800045E0
7.827629160E-1,9.445667267E-1,1.193420291E0,6.626324177E0
7.875398950E-1,1.392622828E0,1.107876897E0,5.961717606E0
7.923168220E-1,2.048854351E0,1.052243710E0,5.118247509E0
7.970937500E-1,2.681157827E0,1.102493048E0,4.260420799E0
8.018573430E-1,3.061018467E0,1.296909928E0,3.476771355E0
8.066476040E-1,3.147160053E0,1.610369682E0,2.904288530E0
8.114245310E-1,3.234498024E0,1.889731646E0,2.596810818E0
8.161881250E-1,3.707678795E0,1.905883193E0,2.181656122E0
8.209783850E-1,4.185645103E0,1.747956991E0,1.655833244E0
8.257553640E-1,4.451846600E0,1.585245013E0,1.487139225E0
8.305189580E-1,4.377668858E0,1.454836130E0,1.799402595E0
8.353092180E-1,4.039682865E0,1.333400369E0,2.439482689E0
8.400861450E-1,3.583251953E0,1.239482164E0,3.233899832E0
8.448630720E-1,3.093919754E0,1.146760225E0,4.095315933E0
8.496400000E-1,3.218346357E0,9.349954724E-1,4.853242397E0
8.544169790E-1,3.654438496E0,6.179464459E-1,5.287539959E0
8.591805720E-1,3.808775425E0,4.205385745E-1,5.565705299E0
8.639708330E-1,3.725026608E0,2.757728100E-1,5.782256126E0
8.687477600E-1,3.628117323E0,9.690931439E-2,6.089733601E0
8.735114060E-1,3.678964853E0,-1.052841991E-1,6.550352097E0
8.783016140E-1,3.954139471E0,-3.798605800E-1,6.957131863E0
8.830785410E-1,4.284348965E0,-6.388836503E-1,7.200003147E0
8.878421870E-1,4.656432629E0,-8.644071817E-1,7.280162811E0
8.926324470E-1,5.190032482E0,-1.036690354E0,7.219744205E0
8.974093750E-1,5.825924873E0,-1.208375454E0,6.938587666E0
9.021729680E-1,6.413960934E0,-1.303490162E0,6.556334019E0
9.069632290E-1,6.986443996E0,-1.277767301E0,6.116652966E0
9.117401560E-1,7.486543655E0,-1.136590719E0,5.413163185E0
9.165038020E-1,7.933403492E0,-9.080761671E-1,4.700700283E0
9.212940620E-1,8.390432358E0,-6.323033571E-1,4.035495281E0
9.260709890E-1,8.765507698E0,-3.469592929E-1,3.308675528E0
9.308345830E-1,9.149555206E0,-8.075776696E-2,2.577069998E0
9.356248430E-1,9.425328255E0,1.998006850E-1,1.855633974E0
9.404017700E-1,9.583254814E0,4.654040039E-1,1.350748420E0
9.451654160E-1,9.643673897E0,6.436693072E-1,1.139581800E0
9.499556770E-1,9.581459999E0,7.447660565E-1,1.206580877E0
9.547326040E-1,9.659825325E0,6.197410822E-1,1.518245935E0
9.594961970E-1,9.878170013E0,3.212364316E-1,2.001596212E0
9.642864580E-1,1.011087227E1,-4.486542568E-2,2.596212626E0
9.690633850E-1,1.035852909E1,-3.912265003E-1,3.218944550E0
9.738270310E-1,1.049073315E1,-6.269195080E-1,3.726821184E0
9.786172910E-1,1.052662468E1,-7.429714203E-1,4.149154663E0
9.833942180E-1,1.068634605E1,-8.626125455E-1,4.393820763E0
9.881578120E-1,1.080060291E1,-9.732806087E-1,4.412364960E0
9.929480720E-1,1.061994553E1,-1.075573802E0,4.312464714E0
9.977250000E-1,1.002831936E1,-1.033699393E0,4.166502476E0
1.002501979E0,1.015155029E1,-1.317248821E0,3.911666870E0
1.007278906E0,1.021795082E1,-1.630110383E0,3.662214994E0
1.012055833E0,1.041775131E1,-1.985444546E0,3.555734396E0
1.016819427E0,1.078504944E1,-2.274377823E0,3.496512175E0
1.021609687E0,1.130489063E1,-2.461018085E0,3.575475216E0
1.026386614E0,1.186301613E1,-2.599203587E0,3.745365620E0
1.031150260E0,1.240618706E1,-2.607578516E0,3.872185230E0
1.035940520E0,1.281057453E1,-2.414358139E0,4.013959885E0
1.040717447E0,1.291167068E1,-2.038086653E0,4.373481750E0
1.045481041E0,1.320239925E1,-1.854437590E0,4.568496704E0
1.050271302E0,1.356969738E1,-1.824527264E0,4.758127689E0
1.055048229E0,1.402971745E1,-1.958525300E0,5.225924492E0
1.059811875E0,1.433898926E1,-2.126621008E0,5.953940868E0
1.064602135E0,1.435454273E1,-2.228914261E0,6.861418724E0
1.069379062E0,1.420379543E1,-2.306680918E0,7.817351341E0
1.074142656E0,1.407637787E1,-2.461018085E0,8.714659691E0
1.078932916E0,1.414337635E1,-2.726621389E0,9.425328255E0
1.083709843E0,1.458425426E1,-3.077169895E0,9.773484230E0
1.088473489E0,1.525663757E1,-3.278167009E0,9.924231529E0
1.093263750E0,1.564786339E1,-3.287140131E0,1.008993530E1
1.098040677E0,1.553360653E1,-3.156731367E0,1.015753174E1
1.102804322E0,1.515673637E1,-3.027518749E0,1.005404282E1
1.107594531E0,1.492642784E1,-2.999403238E0,9.829116821E0
1.112371458E0,1.519083500E1,-2.988635540E0,9.410373688E0
1.117148437E0,1.533559990E1,-3.016751051E0,8.886942863E0
1.121925364E0,1.553181171E1,-2.977867842E0,8.405387878E0
1.126702291E0,1.599960899E1,-2.817548752E0,7.980661869E0
1.131465937E0,1.662054634E1,-2.657229662E0,7.666005611E0
1.136256145E0,1.684307861E1,-2.425125837E0,7.582256794E0
1.141033125E0,1.703749466E1,-2.048854351E0,7.658228874E0
1.145796718E0,1.764407539E1,-1.527219057E0,7.500900745E0
1.150586979E0,1.810648918E1,-1.049252748E0,7.253243446E0
1.155363906E0,1.842593002E1,-7.058826685E-1,6.786045074E0
1.160127552E0,1.881177330E1,-3.816552162E-1,6.150152206E0
1.164917760E0,1.882194328E1,-1.938186288E-1,5.569892883E0
1.169694739E0,1.871247101E1,8.374879137E-3,4.912465096E0
1.174458333E0,1.838884163E1,6.580262631E-2,4.198805332E0
1.179248593E0,1.801496315E1,3.170489892E-2,3.672982693E0
1.184025520E0,1.758844376E1,-3.170489892E-2,3.108874798E0
1.188789166E0,1.691007805E1,-1.633101404E-1,2.594418049E0
1.193579375E0,1.631366730E1,-3.332005441E-1,2.156531334E0
1.198356354E0,1.566880131E1,-5.413761139E-1,1.665404558E0
1.203119947E0,1.469432354E1,-5.964110494E-1,1.051645517E0
1.207910208E0,1.411526108E1,-5.108676553E-1,4.348955154E-1
1.212687135E0,1.377009583E1,-5.742774606E-1,6.281159073E-2
1.217450781E0,1.358883953E1,-6.711867452E-1,-8.015955985E-2
1.222241041E0,1.338066387E1,-7.680960894E-1,5.084748194E-2
1.227017968E0,1.306899929E1,-9.182456732E-1,3.308077157E-1
1.231781562E0,1.272443295E1,-1.112064362E0,6.921239495E-1
1.236571822E0,1.251745319E1,-1.180259824E0,1.101894855E0
1.241348750E0,1.251565838E1,-1.093519926E0,1.571486235E0
1.246112395E0,1.252762318E1,-9.152546525E-1,2.114058733E0
1.250902656E0,1.222194004E1,-8.919246197E-1,2.643470764E0
1.255679583E0,1.179781246E1,-1.057627559E0,3.250649452E0
1.260443229E0,1.137189007E1,-1.194018483E0,3.559921980E0
1.265233437E0,1.124566841E1,-1.353141189E0,3.867399693E0
1.270010364E0,1.106082249E1,-1.570888042E0,4.603192329E0
1.274774010E0,1.041236782E1,-1.770090580E0,5.143970490E0
1.279564270E0,9.923633575E0,-2.006979942E0,5.194818020E0
1.284341197E0,9.454640388E0,-2.413161755E0,5.297709465E0
1.289104843E0,9.020941734E0,-3.016152859E0,5.651248932E0
1.293895052E0,8.319246292E0,-3.413959742E0,6.658627033E0
1.298672031E0,7.484150887E0,-3.232105255E0,6.215955257E0
1.303435625E0,6.969096184E0,-2.886342287E0,5.546562672E0
1.308225885E0,6.730412006E0,-2.804986238E0,5.423332691E0
1.313002812E0,5.925825119E0,-2.465205431E0,5.489733219E0
1.317766458E0,5.941977024E0,-2.054836512E0,4.495515347E0
1.322556718E0,5.834897995E0,-1.799402595E0,3.406781197E0
1.327333645E0,6.484549522E0,-1.609771490E0,3.110071182E0
1.332097239E0,6.805187702E0,-1.382453322E0,2.796611547E0
1.336887500E0,6.701697826E0,-8.470591903E-1,1.692921996E0
1.341664427E0,7.231708050E0,-5.324030519E-1,5.766702294E-1
1.346441406E0,8.814560890E0,-1.161117196E0,2.339582443E0
1.351218333E0,8.507082939E0,-1.530210137E0,8.729017258E0
1.355995260E0,6.573681831E0,-6.083751321E-1,5.042873859E0
1.360758906E0,7.376473904E0,-1.657029688E-1,-4.851447940E-1
1.365549114E0,7.497909546E0,8.494520187E-2,-6.873382926E-1
1.370326041E0,7.619943619E0,1.579262912E-1,-1.070788130E-1
1.375103020E0,7.470392227E0,-1.270588875E0,3.440878868E0
1.379879947E0,1.027777100E1,-3.507878065E0,1.177328587E1
1.384656875E0,7.794021606E0,-2.769093990E0,6.593422890E0
1.389420520E0,7.925626755E0,-3.405584812E0,7.590631485E0
1.394210781E0,8.819346428E0,-4.503292084E0,1.080718327E1
1.398987708E0,8.950352669E0,-5.289932728E0,1.553958893E1
1.403751302E0,7.890930653E0,-5.265406132E0,1.887518311E1
1.408541562E0,4.955535889E0,-4.052245140E0,1.643689728E1
1.413318489E0,5.363512039E0,-3.137588739E0,9.705886841E0
1.418082135E0,5.287539959E0,-2.525026083E0,6.126224041E0
1.422872395E0,4.910670280E0,-1.758126378E0,3.296113253E0
1.427649322E0,4.642076015E0,-1.069591761E0,1.674975872E0
1.432412968E0,5.055436134E0,-7.692924738E-1,9.188438654E-1
1.437203177E0,5.584249973E0,-3.002992272E-1,-2.889333367E-1
1.441980156E0,5.791827202E0,1.734796464E-1,-1.024128079E0
1.446743750E0,5.666802406E0,5.772684813E-1,-1.095314622E0
1.451534010E0,5.721239090E0,8.129615188E-1,-5.730810165E-1
1.456310937E0,5.632704735E0,8.027920127E-1,4.492524564E-1
1.461074583E0,5.519643784E0,5.665007830E-1,1.319043517E0
1.465864843E0,5.359324455E0,1.902294010E-1,2.126621008E0
1.470641770E0,5.022534847E0,-1.824527234E-1,2.819343328E0
1.475418697E0,4.793421745E0,-6.699903607E-1,4.077968121E0
1.480195625E0,4.434498787E0,-7.387840152E-1,4.473979950E0
1.484972552E0,4.290330887E0,-9.511470199E-1,4.916054249E0
1.489736197E0,4.290929317E0,-9.559326172E-1,4.939982414E0
1.494526458E0,4.323232174E0,-7.339983582E-1,4.905884743E0
1.499303385E0,4.508676052E0,-5.796613097E-1,5.058426857E0
1.504067031E0,4.809573650E0,-4.396811724E-1,5.296513081E0
1.508857239E0,5.032105923E0,-1.357926875E-1,5.271388054E0
1.513634218E0,5.651248932E0,-5.623133183E-1,4.371686935E0
1.518411145E0,4.849055290E0,-1.248455167E0,4.342374802E0
1.523188072E0,3.339782238E0,-1.709671736E0,4.633700848E0
1.527965000E0,2.702693224E0,-2.086541414E0,4.627718925E0
1.532728645E0,2.598605394E0,-2.294716835E0,4.594817638E0
1.537518906E0,3.110071182E0,-2.303091764E0,4.880161762E0
1.542295833E0,3.034697294E0,-2.173281193E0,5.076971531E0
1.547059427E0,3.448655605E0,-2.129612207E0,5.909673691E0
1.551849687E0,3.937987804E0,-2.152942181E0,6.555736065E0
1.556626666E0,4.392624378E0,-2.233700037E0,6.932007313E0
1.561390260E0,4.683351994E0,-2.175075769E0,7.093522549E0
1.566180520E0,5.071587563E0,-1.788634896E0,6.952346325E0
1.570957447E0,5.197809219E0,-1.836491346E0,7.349554539E0
1.575721093E0,5.575276852E0,-2.269592285E0,7.381857872E0
1.580511354E0,5.600401402E0,-2.765504837E0,7.367500782E0
1.585288281E0,6.212365627E0,-3.183052301E0,7.566105366E0
1.590051875E0,6.827919483E0,-3.485744476E0,7.794021606E0
1.594842135E0,6.558726788E0,-3.644867182E0,7.238288403E0
1.599619062E0,7.130013466E0,-3.936791420E0,6.337988853E0
1.604382708E0,7.028318405E0,-4.090530396E0,5.196612358E0
1.609172968E0,6.948158741E0,-4.432703972E0,4.381856441E0
1.613949895E0,7.027719975E0,-4.605585575E0,4.083351612E0
1.618713541E0,7.639684677E0,-4.787439823E0,3.610769272E0
1.623503750E0,7.430910587E0,-4.719842434E0,2.992224693E0
1.628280729E0,7.338787079E0,-4.609174728E0,2.748156786E0
1.633044322E0,7.448258877E0,-4.666602135E0,1.893320918E0
1.637834583E0,6.561717987E0,-4.238885403E0,1.149153113E0
1.642611510E0,5.462814331E0,-3.726821184E0,2.167299032E0
1.647388437E0,5.175076962E0,-3.521038532E0,2.672184706E0
1.652165416E0,5.885745525E0,-3.924229145E0,3.643072367E0
1.656942343E0,6.806982040E0,-4.779663086E0,4.440480709E0
1.661705989E0,7.125227451E0,-5.482554913E0,4.746163845E0
1.666496197E0,7.049853802E0,-5.916254044E0,4.679762840E0
1.671273177E0,6.387639999E0,-6.048457623E0,5.187041283E0
1.676036770E0,6.374479294E0,-6.024528980E0,6.141777515E0
1.680827031E0,6.354738712E0,-5.991029739E0,6.809374809E0
1.685603958E0,7.225128174E0,-6.330810547E0,6.641877651E0
1.690367604E0,7.960920811E0,-6.588637352E0,5.443671703E0
1.695157864E0,7.840681553E0,-6.733402729E0,4.369294167E0
1.699934791E0,7.656434059E0,-6.559923172E0,3.846462488E0
1.704698385E0,7.679764271E0,-6.496513367E0,3.068794966E0
1.709488645E0,7.182655334E0,-5.953342915E0,2.265404940E0
1.714265572E0,7.056434155E0,-5.828317642E0,1.066002488E0
1.719029218E0,7.225726128E0,-5.673382282E0,2.871387079E-2
1.723819479E0,7.653443336E0,-5.527420521E0,-7.465606928E-1
1.728596406E0,6.707081795E0,-5.601597786E0,-1.543370605E0
1.733360052E0,6.708278179E0,-5.577669621E0,-1.288534999E0
1.738150260E0,8.315058708E0,-5.511268616E0,-6.299105883E-1
1.742927239E0,9.326624870E0,-5.411966801E0,-1.262213886E-1
1.747690833E0,1.097228813E1,-5.341378212E0,5.940182209E-1
1.752481093E0,1.200180054E1,-5.464010715E0,1.553540111E0
1.757258072E0,1.216451168E1,-5.715256691E0,2.421536446E0
1.762021666E0,1.206999588E1,-6.355935097E0,2.983849764E0
1.766811927E0,1.129711437E1,-6.777669907E0,3.972085476E0
1.771588854E0,1.023350430E1,-6.988238335E0,5.023731232E0
1.776352500E0,9.631709099E0,-7.374679565E0,4.322035789E0
1.781142760E0,9.102297783E0,-7.770691395E0,3.183052301E0
1.785919635E0,8.470592499E0,-7.757531166E0,2.538186550E0
1.790696614E0,8.161917686E0,-7.719245911E0,2.673979282E0
1.795473541E0,7.124629498E0,-7.292725086E0,2.103291035E0
1.800250468E0,6.541378975E0,-7.096513748E0,9.062815905E-1
1.805014114E0,5.943173409E0,-6.884748936E0,-1.039083242E0
1.809804375E0,5.645267010E0,-6.374479294E0,-2.041077614E0
1.814581302E0,5.909075737E0,-6.132804394E0,-1.533799291E0
1.819344947E0,6.891927242E0,-6.511468410E0,-5.647061467E-1
1.824135208E0,7.197012424E0,-6.901498795E0,1.447657645E-1
1.828912135E0,6.401398659E0,-7.000202656E0,6.287141442E-1
1.833675781E0,5.240880013E0,-6.844669342E0,1.589432478E0
1.838465989E0,6.078966141E0,-7.820342541E0,1.207179070E0
1.843242968E0,6.557530403E0,-8.656634331E0,3.792623878E-1
1.848006562E0,6.766304016E0,-8.955139160E0,1.818545163E-1
1.852796822E0,6.592824459E0,-9.071190834E0,4.947160780E-1
1.857573750E0,6.491727829E0,-8.975478172E0,1.133599758E0
1.862350729E0,6.346961975E0,-8.763712883E0,1.714457393E0
1.867127656E0,6.367899418E0,-8.739784241E0,2.060220242E0
1.871904583E0,6.251249313E0,-8.769096375E0,2.440080881E0
1.876668177E0,5.625525951E0,-8.833703041E0,2.793620348E0
1.881458489E0,4.805984497E0,-8.999405861E0,2.557927370E0
1.886235416E0,4.570889473E0,-9.332008362E0,2.011765718E0
1.890999010E0,4.406383038E0,-9.539586067E0,1.394417405E0
1.895789270E0,4.261018753E0,-9.732208252E0,9.002995491E-1
1.900566197E0,4.752744198E0,-9.981659889E0,1.028315544E0
1.905343177E0,5.170889854E0,-1.014437199E1,8.482556343E-1
1.910120104E0,5.472983360E0,-1.011984539E1,4.241278172E-1
1.914897031E0,5.755934715E0,-1.001755238E1,1.208375469E-1
1.919673958E0,5.883352757E0,-9.896116257E0,4.785645287E-3
1.924450937E0,5.815157413E0,-9.665208817E0,-1.531406492E-1
1.929227864E0,5.604588985E0,-9.419944763E0,-2.153540403E-1
1.934004791E0,5.627320766E0,-9.290133476E0,-2.632105052E-1
1.938781718E0,5.798407555E0,-9.025128365E0,-1.776670814E-1
1.943558697E0,5.941977024E0,-8.826524734E0,4.187439755E-2
1.948335625E0,6.008377552E0,-8.633902550E0,1.902294010E-1
1.953112552E0,6.132206440E0,-8.440681458E0,1.417747438E-1
1.957889479E0,6.206982136E0,-8.204988480E0,7.896314561E-2
1.962666458E0,6.215356827E0,-7.983054638E0,-1.256231871E-2
1.967443385E0,6.147759438E0,-7.838887215E0,-7.956135273E-2
1.972220312E0,5.788238049E0,-7.410571575E0,-2.129612118E-1
1.976983958E0,5.301298618E0,-6.925426960E0,-2.297109663E-1
1.981774166E0,4.756931305E0,-6.545566559E0,-3.762713671E-1
1.986551145E0,4.103690624E0,-6.176473618E0,-4.737788737E-1
1.991314739E0,3.535395384E0,-6.028716564E0,-6.771687865E-1
1.996105000E0,3.067598581E0,-5.967101574E0,-8.805587292E-1
2.000881927E0,2.510669231E0,-6.136991978E0,-1.026520967E0
2.005645572E0,2.149353027E0,-6.330212116E0,-1.077368379E0
2.010435833E0,1.712662816E0,-6.524031162E0,-1.070189953E0
2.015212760E0,1.752742529E0,-6.480361938E0,-7.489534616E-1
2.019976406E0,2.047657967E0,-5.940780640E0,-4.151547253E-1
2.024766666E0,2.069193363E0,-5.550750256E0,2.374876440E-1
2.029543593E0,2.081157446E0,-5.246861935E0,7.453642488E-1
2.034307239E0,2.119442701E0,-4.934000492E0,9.714859724E-1
2.039097447E0,2.148754835E0,-4.698307037E0,1.201196909E0
2.043874427E0,2.207378864E0,-4.534399033E0,1.545763373E0
2.048638020E0,2.132004976E0,-4.414757729E0,1.771885157E0
2.053428281E0,2.033301115E0,-4.202394962E0,2.084746838E0
2.058205208E0,1.945364833E0,-4.039084435E0,2.521436930E0
2.062968854E0,1.914856315E0,-3.836891174E0,3.087339401E0
2.067759114E0,1.871187329E0,-3.765106440E0,2.996412039E0
2.072536041E0,1.488335729E0,-3.563511133E0,2.763111830E0
2.077299687E0,1.348355532E0,-3.323032379E0,2.605185747E0
2.082089947E0,1.570888042E0,-3.433102369E0,1.558325768E0
2.086866875E0,1.733600020E0,-3.552743435E0,1.552343726E0
2.091643802E0,1.710269928E0,-3.476173162E0,1.686939955E0
2.096420729E0,1.652244091E0,-3.475574970E0,7.561319470E-1
2.101197656E0,1.432702541E0,-3.413361549E0,-1.016949583E-2
2.105961302E0,1.226321578E0,-3.351148129E0,-2.685943544E-1
2.110751562E0,1.120439172E0,-3.404388428E0,-4.983053207E-1
2.115528489E0,8.721838593E-1,-3.390031576E0,-6.747759581E-1
2.120292135E0,6.460621357E-1,-3.452843189E0,-1.201196909E0
2.125082395E0,6.879364848E-1,-3.741178274E0,-2.252244234E0
2.129859322E0,6.305087805E-1,-4.284946918E0,-4.171288013E0
2.134622968E0,7.740781307E-1,-4.048655987E0,-3.927220106E0
2.139413229E0,9.122636318E-1,-4.029513359E0,-3.087937593E0
2.144190156E0,5.970092416E-1,-6.148357868E0,-6.784848690E0
2.148953750E0,1.336989641E0,-5.626124382E0,-7.514061451E0
2.153744010E0,1.733001828E0,-4.244867325E0,-1.186840057E0
2.158520989E0,1.321436286E0,-3.837489367E0,1.060618639E0
2.163284583E0,3.415754437E-1,-3.580260992E0,1.943570137E0
2.168074843E0,-9.906286001E-1,-3.377469063E0,3.587439299E0
2.172851770E0,-1.912463546E0,-2.907279491E0,3.323032379E0
2.177615416E0,-1.613360643E0,-2.660220623E0,2.481357098E0
2.182405677E0,-1.366301775E0,-2.558525562E0,2.513660192E0
2.187182604E0,-1.622333765E0,-2.834298372E0,3.211168051E0
2.191946250E0,-1.000798106E0,-3.555734396E0,4.177269936E0
2.196736510E0,-5.485545993E-1,-7.935198307E0,5.814558983E0
2.201513437E0,-4.182653904E0,-1.944467545E1,7.655237675E0
2.206277031E0,-1.332981682E1,-3.679862213E1,3.396611691E0
2.211067291E0,-2.100000954E1,-5.754319763E1,2.433500528E0
2.215844270E0,-1.654936028E1,-6.679325104E1,4.974080086E0
2.220607864E0,-3.995415688E0,-6.386802673E1,5.324628353E0
2.225398125E0,8.975478172E0,-5.557031631E1,-1.697707653E0
2.230175052E0,1.540798283E1,-4.336991119E1,-3.760320902E0
2.234938697E0,1.665643883E1,-3.134178925E1,-4.139583111E0
2.239728958E0,1.551924992E1,-2.149173546E1,-4.332205296E0
2.244505885E0,1.282134151E1,-1.462313747E1,-4.563112736E0
2.249269479E0,9.735198975E0,-9.890133858E0,-4.262215137E0
2.254059791E0,7.479365349E0,-6.600003242E0,-4.219742775E0
2.258836718E0,5.636293888E0,-4.499702930E0,-4.139583111E0
2.263600364E0,4.054039955E0,-3.192623615E0,-3.940380573E0
2.268390572E0,2.834896564E0,-2.550150633E0,-3.713660717E0
2.273167552E0,1.915454507E0,-2.408375978E0,-3.132802963E0
2.277931145E0,8.129615188E-1,-2.666800737E0,-2.215155602E0
2.282721406E0,-1.256231815E-1,-3.237488985E0,-1.139581800E0
2.287498385E0,-6.873382926E-1,-4.058825493E0,-5.623133108E-2
2.292261979E0,-9.690931439E-1,-5.081159115E0,8.189435601E-1
2.297052239E0,-1.328016520E0,-6.209972858E0,1.383051515E0
2.301829166E0,-1.770090580E0,-7.492526054E0,1.578066587E0
2.306592812E0,-2.372483730E0,-8.964112282E0,1.889731646E0
2.311383072E0,-3.331407309E0,-1.045484066E1,2.174477577E0
2.316160000E0,-4.234697819E0,-1.174337578E1,2.395813704E0
2.320923593E0,-5.111069202E0,-1.262273788E1,2.496910334E0
2.325713906E0,-5.762515068E0,-1.294636726E1,2.389831543E0
2.330490781E0,-5.874977589E0,-1.266760349E1,2.102692842E0
2.335254479E0,-5.286343575E0,-1.184207916E1,1.604387641E0
2.340044739E0,-4.487739086E0,-1.090469074E1,1.148554921E0
2.344821666E0,-3.831507206E0,-1.011805058E1,7.028916478E-1
2.349598593E0,-3.297907829E0,-9.581459999E0,3.158525825E-1
2.354375520E0,-2.968296528E0,-9.171689034E0,2.392822644E-3
2.359152500E0,-2.675773859E0,-8.867202759E0,-2.590230405E-1
2.363916093E0,-2.605783939E0,-8.697910309E0,-4.319044948E-1
2.368706354E0,-2.616551638E0,-8.577671051E0,-5.234299302E-1
2.373483281E0,-2.796611547E0,-8.568099976E0,-4.839483798E-1
2.378260260E0,-3.029313564E0,-8.655437469E0,-3.822534084E-1
2.383037187E0,-3.251247883E0,-8.796015739E0,-2.081755698E-1
2.387814114E0,-3.407379389E0,-8.931808472E0,-6.281159073E-2
2.392591041E0,-3.505485058E0,-9.047860146E0,9.152546525E-2
2.397368020E0,-3.385245800E0,-9.153144836E0,2.829512656E-1
2.402144947E0,-3.079562664E0,-9.244071960E0,4.779663086E-1
2.406921875E0,-2.758924484E0,-9.315856934E0,6.586244106E-1
2.411698802E0,-2.472383976E0,-9.387042999E0,8.009973764E-1
2.416475781E0,-2.214557409E0,-9.434899330E0,9.535398483E-1
2.421252708E0,-1.976471543E0,-9.453444481E0,1.043868899E0
2.426029635E0,-1.809572101E0,-9.506086349E0,1.037886858E0
2.430806614E0,-1.666600943E0,-9.587442398E0,9.750752449E-1
2.435583541E0,-1.576271892E0,-9.693324089E0,8.781659007E-1
2.440360468E0,-1.524826288E0,-9.765109062E0,7.435696125E-1
2.445137395E0,-1.554138303E0,-9.827920914E0,6.287141442E-1
2.449914375E0,-1.677368641E0,-1.000199890E1,5.144568682E-1
2.454691302E0,-1.878365755E0,-1.023350430E1,3.619144261E-1
2.459468229E0,-1.802991867E0,-1.025264645E1,1.698904037E-1
2.464245208E0,-1.561316729E0,-1.006421185E1,1.016949583E-2
2.469022135E0,-1.372882009E0,-9.937990189E0,-1.208375469E-1
2.473799062E0,-1.283151150E0,-9.856036186E0,-2.368894368E-1
2.478575989E0,-1.184447169E0,-9.821938515E0,-3.619144261E-1
2.483352968E0,-1.104287624E0,-9.797411919E0,-5.012963414E-1
2.488129895E0,-1.067198873E0,-9.787840843E0,-6.071787477E-1
2.492906822E0,-1.053440213E0,-9.758528709E0,-6.939185858E-1
2.497683750E0,-1.086939692E0,-9.715457916E0,-7.513462901E-1
2.502460729E0,-1.182652593E0,-9.686744690E0,-7.746763229E-1
2.507237656E0,-1.305882931E0,-9.667601585E0,-7.549355626E-1
2.512014583E0,-1.429113269E0,-9.663414001E0,-6.921239495E-1
2.516791510E0,-1.552343726E0,-9.659226418E0,-5.760720372E-1
2.521568489E0,-1.670190215E0,-9.649655342E0,-4.313062727E-1
2.526345416E0,-1.802991867E0,-9.650253296E0,-2.871387303E-1
2.531122395E0,-1.911267042E0,-9.640682220E0,-1.226321608E-1
2.535899322E0,-2.005783558E0,-9.641280174E0,2.632104978E-2
2.540676250E0,-2.057229280E0,-9.646066666E0,1.800599098E-1
2.545453177E0,-2.084746838E0,-9.631709099E0,3.146561682E-1
2.550230156E0,-2.103291035E0,-9.636494637E0,4.444667995E-1
2.555007083E0,-2.078764677E0,-9.607781410E0,5.545366406E-1
2.559784010E0,-2.040479422E0,-9.583852768E0,6.358926296E-1
2.564560937E0,-2.035095692E0,-9.559326172E0,7.076773047E-1
2.569337916E0,-2.059023857E0,-9.530612946E0,7.459624410E-1
2.574114843E0,-2.044667006E0,-9.497113228E0,7.698906660E-1
2.578891770E0,-2.035095692E0,-9.482755661E0,7.459624410E-1
2.583668750E0,-1.992623091E0,-9.467801094E0,6.831508875E-1
2.588445677E0,-1.912463546E0,-9.467801094E0,5.868397355E-1
2.593222604E0,-1.827518344E0,-9.486943245E0,4.713860750E-1
2.597999531E0,-1.766501307E0,-9.525228500E0,3.463610709E-1
2.602776510E0,-1.728216171E0,-9.553942680E0,2.117647976E-1
2.607553437E0,-1.705484390E0,-9.592227936E0,9.690931439E-2
2.612330364E0,-1.682154298E0,-9.625727654E0,-4.247260094E-2
2.617107343E0,-1.649253011E0,-9.654440880E0,-1.339980662E-1
2.621884218E0,-1.607378602E0,-9.687940598E0,-2.446661144E-1
2.626661197E0,-1.569691658E0,-9.707083702E0,-3.122633696E-1
2.631438125E0,-1.517647743E0,-9.731011391E0,-3.696911037E-1
2.636215104E0,-1.474576950E0,-9.754940033E0,-3.990031779E-1
2.640992031E0,-1.432104349E0,-9.774082184E0,-4.085744619E-1
2.645768958E0,-1.403390527E0,-9.793225288E0,-3.990031779E-1
2.650545937E0,-1.360319614E0,-9.788438797E0,-3.756731451E-1
2.655322864E0,-1.322034478E0,-9.788438797E0,-3.230310678E-1
2.660099791E0,-1.283749342E0,-9.788438797E0,-2.464607358E-1
2.664876770E0,-1.259222865E0,-9.774082184E0,-1.645065546E-1
2.669653697E0,-1.253839016E0,-9.774082184E0,-8.315058798E-2
2.674430625E0,-1.263410330E0,-9.778867722E0,-2.991028316E-2
2.679207552E0,-1.272383451E0,-9.769296646E0,2.273181453E-2
2.683984531E0,-1.310070395E0,-9.783653259E0,7.597211748E-2
2.688761458E0,-1.333400369E0,-9.817750931E0,9.990034252E-2
2.693538385E0,-1.338186026E0,-9.817750931E0,1.094716340E-1
2.698315312E0,-1.347757339E0,-9.851250648E0,9.990034252E-2
2.703092291E0,-1.333400369E0,-9.879964828E0,7.118647546E-2
2.707869218E0,-1.319641709E0,-9.913464546E0,2.333002165E-2
2.712646197E0,-1.296311617E0,-9.933204651E0,-3.469592705E-2
2.717423125E0,-1.286740422E0,-9.947562218E0,-9.212367237E-2
2.722200052E0,-1.277767301E0,-9.961918831E0,-1.543370634E-1
2.726976979E0,-1.244866014E0,-9.961918831E0,-2.273181528E-1
2.731753906E0,-1.202393413E0,-9.942177773E0,-2.997010350E-1
2.736530885E0,-1.159920812E0,-9.927821159E0,-3.714857101E-1
2.741307812E0,-1.118046403E0,-9.893723488E0,-4.342973232E-1
2.746084791E0,-1.098903775E0,-9.874580383E0,-4.773681164E-1
2.750861718E0,-1.099501967E0,-9.865009308E0,-5.252245665E-1
2.755638645E0,-1.104287624E0,-9.850652695E0,-5.593222976E-1
2.760415572E0,-1.095314622E0,-9.850054741E0,-5.880361795E-1
2.765192552E0,-1.076171994E0,-9.816555023E0,-5.928218365E-1
2.769969479E0,-1.066600680E0,-9.811769485E0,-5.976074338E-1
2.774746406E0,-1.047458172E0,-9.783055305E0,-5.641079545E-1
2.779523385E0,-1.009172916E0,-9.772886276E0,-5.162515044E-1
2.784300312E0,-9.804590940E-1,-9.763314247E0,-4.683950245E-1
2.789077239E0,-9.421738982E-1,-9.748957634E0,-4.163511395E-1
2.793854218E0,-8.895317912E-1,-9.725028992E0,-3.493520916E-1
2.798631145E0,-9.038887620E-1,-9.695717812E0,-2.769692242E-1
2.803408072E0,-9.601200819E-1,-9.671789169E0,-2.051845491E-1
2.808185000E0,-1.036092162E0,-9.653244972E0,-1.513460279E-1
2.812961927E0,-1.116850019E0,-9.629316330E0,-1.172483116E-1
2.817738906E0,-1.221535921E0,-9.614959717E0,-9.272187948E-2
2.822515833E0,-1.287936807E0,-9.619745255E0,-6.340979785E-2
2.827292760E0,-1.316052437E0,-9.619745255E0,-3.469592705E-2
2.832069739E0,-1.358525038E0,-9.639486313E0,-1.555334684E-2
2.836846666E0,-1.396810174E0,-9.639486313E0,8.973085321E-3
2.841623645E0,-1.439282775E0,-9.639486313E0,5.682953820E-2
2.846400572E0,-1.448255897E0,-9.649057388E0,8.614161611E-2
2.851177500E0,-1.472184181E0,-9.639486313E0,1.292124242E-1
2.855954427E0,-1.490728498E0,-9.639486313E0,1.627119333E-1
2.860731354E0,-1.505085468E0,-9.659226418E0,1.866401732E-1
2.865508333E0,-1.514058471E0,-9.683155060E0,2.015953064E-1
2.870285312E0,-1.528415442E0,-9.716654778E0,1.920240223E-1
2.875062239E0,-1.523629785E0,-9.731609344E0,1.345962733E-1
2.879839166E0,-1.533799291E0,-9.750752449E0,4.785645381E-2
2.884616145E0,-1.534397483E0,-9.765109062E0,-4.307080805E-2
2.889393020E0,-1.534995675E0,-9.765109062E0,-1.627119333E-1
2.894170000E0,-1.549950838E0,-9.779465675E0,-2.979064286E-1
2.898946927E0,-1.560120344E0,-9.793823242E0,-4.271188378E-1
2.903723906E0,-1.589432478E0,-9.808179855E0,-5.515456200E-1
2.908500833E0,-1.628315806E0,-9.827920914E0,-6.616154313E-1
2.913277760E0,-1.652842283E0,-9.847063065E0,-7.627122402E-1
2.918054687E0,-1.671984792E0,-9.851848602E0,-8.344969153E-1
2.922831666E0,-1.681556106E0,-9.875777245E0,-9.014959335E-1
2.927608593E0,-1.696511269E0,-9.880562782E0,-9.206385016E-1
2.932385520E0,-1.705484390E0,-9.894919395E0,-9.206385016E-1
2.937162500E0,-1.734198213E0,-9.890133858E0,-8.961120844E-1
2.941939427E0,-1.782054663E0,-9.890732765E0,-8.865407705E-1
2.946716406E0,-1.829312921E0,-9.905089378E0,-8.668000102E-1
2.951493281E0,-1.914856315E0,-9.924830437E0,-8.333004713E-1
2.956270260E0,-2.000399828E0,-9.963115692E0,-8.087740541E-1
2.961047187E0,-2.070987940E0,-9.988240242E0,-7.746763229E-1
2.965824166E0,-2.118844509E0,-1.003669453E1,-7.788637877E-1
2.970601093E0,-2.156531334E0,-1.006062317E1,-7.740781307E-1
2.975378020E0,-2.166102648E0,-1.007976532E1,-7.836494446E-1
2.980155000E0,-2.166102648E0,-1.008933640E1,-8.027920127E-1
2.984931927E0,-2.142772675E0,-1.007497978E1,-8.315058947E-1
2.989708854E0,-2.114058733E0,-1.005105114E1,-8.321040869E-1
2.994485833E0,-2.081157446E0,-1.002173901E1,-8.321040869E-1
2.999262760E0,-2.042872429E0,-9.988240242E0,-8.177471161E-1
3.004039687E0,-2.042872429E0,-9.963115692E0,-8.033902049E-1
3.008816666E0,-2.014756680E0,-9.934401512E0,-7.944171429E-1
3.013593593E0,-2.024327993E0,-9.900901794E0,-7.842476368E-1
3.018370520E0,-2.042872429E0,-9.866804123E0,-7.651050687E-1
3.023147500E0,-2.018944025E0,-9.814162254E0,-7.076773047E-1
3.027924427E0,-2.014158487E0,-9.756135941E0,-6.263213158E-1
3.032701354E0,-2.023131609E0,-9.708279610E0,-5.018945336E-1
3.037478333E0,-2.017149448E0,-9.655637741E0,-3.242274821E-1
3.042255260E0,-2.025524378E0,-9.611968994E0,-1.363908947E-1
3.047032187E0,-2.024327993E0,-9.554540634E0,8.853443712E-2
3.051809114E0,-2.028515339E0,-9.496515274E0,2.853440940E-1
3.056586041E0,-2.032104731E0,-9.458230019E0,4.630111754E-1
3.061363020E0,-2.041077614E0,-9.415159225E0,5.826523304E-1
3.066139947E0,-2.064407825E0,-9.391230583E0,6.406782866E-1
3.070916875E0,-2.093121529E0,-9.367302895E0,6.167500615E-1
3.075693854E0,-2.079362869E0,-9.342776299E0,5.682953596E-1
3.080470781E0,-2.094317913E0,-9.318847656E0,4.486542344E-1
3.085247708E0,-2.105085611E0,-9.280562401E0,2.907279432E-1
3.090024687E0,-2.087139606E0,-9.232108116E0,1.513460279E-1
3.094801614E0,-2.097907305E0,-9.188439369E0,-1.674975827E-2
3.099578593E0,-2.084746838E0,-9.140582085E0,-1.752742529E-1
3.104355520E0,-2.076371908E0,-9.101698875E0,-3.242274821E-1
3.109132447E0,-2.072184324E0,-9.087342262E0,-4.301098585E-1
3.113909427E0,-2.039283037E0,-9.087342262E0,-5.258227587E-1
3.118686354E0,-1.992024899E0,-9.096913338E0,-5.790630579E-1
3.123463281E0,-1.963909149E0,-9.130413055E0,-6.077769399E-1
3.128240208E0,-1.916052699E0,-9.178269386E0,-6.227321029E-1
3.133017187E0,-1.825723648E0,-9.226125717E0,-6.227321029E-1
3.137794114E0,-1.753939033E0,-9.254839897E0,-5.994020700E-1
3.142571041E0,-1.676770449E0,-9.278767586E0,-5.611169338E-1
3.147348020E0,-1.624128342E0,-9.283554077E0,-5.186443329E-1
3.152124947E0,-1.581057549E0,-9.264410973E0,-4.372883439E-1
3.156901927E0,-1.599601984E0,-9.235696793E0,-3.361915946E-1
3.161678854E0,-1.642074585E0,-9.221340179E0,-2.452643216E-1
3.166455781E0,-1.712662816E0,-9.197412491E0,-1.770688742E-1
3.171232708E0,-1.822732687E0,-9.197412491E0,-1.429711580E-1
3.176009687E0,-1.908276081E0,-9.198010445E0,-1.806581169E-1
3.180786614E0,-2.018345833E0,-9.231510162E0,-2.428714931E-1
3.185563541E0,-2.075773716E0,-9.251250267E0,-3.290131092E-1
3.190340520E0,-2.118844509E0,-9.284749985E0,-3.912265003E-1
3.195117500E0,-2.133201361E0,-9.318249702E0,-4.582255483E-1
3.199894427E0,-2.133201361E0,-9.347561836E0,-4.773681164E-1
3.204671354E0,-2.142772675E0,-9.371489525E0,-4.630111754E-1
3.209448281E0,-2.142772675E0,-9.381061554E0,-4.534398913E-1
3.214225208E0,-2.127817631E0,-9.385847092E0,-4.199403822E-1
3.219002187E0,-2.103889227E0,-9.404989243E0,-4.007977843E-1
3.223779114E0,-2.056631088E0,-9.419346809E0,-3.672982752E-1
3.228556093E0,-2.013560295E0,-9.463015556E0,-3.625126183E-1
3.233333020E0,-1.975275040E0,-9.482157707E0,-3.774677813E-1
3.238109947E0,-1.928016901E0,-9.501300812E0,-4.301098585E-1
3.242886927E0,-1.875972986E0,-9.530014038E0,-4.929214716E-1
3.247663854E0,-1.833500385E0,-9.549157143E0,-5.653043389E-1
3.252440781E0,-1.800599098E0,-9.568299294E0,-6.275177598E-1
3.257217760E0,-1.767697692E0,-9.587442398E0,-7.190431952E-1
3.261994687E0,-1.763510346E0,-9.597013474E0,-7.860422134E-1
3.266771666E0,-1.749153376E0,-9.601799011E0,-8.482556343E-1
3.271548593E0,-1.754537225E0,-9.577272415E0,-9.014959335E-1
3.276325520E0,-1.744965911E0,-9.577272415E0,-9.206385016E-1
3.281102500E0,-1.740180254E0,-9.562915802E0,-9.493523836E-1
3.285879427E0,-1.716252089E0,-9.567701340E0,-9.349954724E-1
3.290656354E0,-1.711466432E0,-9.553344727E0,-9.110672474E-1
3.295433333E0,-1.701895118E0,-9.558130264E0,-8.967102766E-1
3.300210208E0,-1.701895118E0,-9.548559189E0,-8.775677085E-1
3.304987187E0,-1.701895118E0,-9.553344727E0,-8.727820516E-1
3.309764114E0,-1.692323804E0,-9.558130264E0,-8.536394835E-1
3.314541093E0,-1.706082582E0,-9.567701340E0,-8.536394835E-1
3.319318020E0,-1.715653777E0,-9.562915802E0,-8.679963946E-1
3.324095000E0,-1.706680775E0,-9.577272415E0,-8.871390224E-1
3.328871927E0,-1.725823283E0,-9.582057953E0,-9.158528447E-1
3.333648854E0,-1.725823283E0,-9.591629982E0,-9.349954724E-1
3.338425781E0,-1.716252089E0,-9.605986595E0,-9.732806087E-1
3.343202760E0,-1.726421595E0,-9.620942116E0,-1.016351461E0
3.347979687E0,-1.755733609E0,-9.635298729E0,-1.054636598E0
3.352756666E0,-1.721635938E0,-9.644869804E0,-1.098305583E0
3.357533593E0,-1.731207132E0,-9.668798447E0,-1.136590719E0
3.362310520E0,-1.712662816E0,-9.683155060E0,-1.174875975E0
3.367087500E0,-1.684547186E0,-9.697511673E0,-1.203589797E0
3.371864427E0,-1.670190215E0,-9.711869240E0,-1.217946768E0
3.376641354E0,-1.679761529E0,-9.731011391E0,-1.241874933E0
3.381418333E0,-1.655833244E0,-9.759725571E0,-1.252044439E0
3.386195260E0,-1.674377680E0,-9.774680138E0,-1.222732425E0
3.390972187E0,-1.669592023E0,-9.784252167E0,-1.174875975E0
3.395749114E0,-1.669592023E0,-9.822537422E0,-1.165304661E0
3.400526093E0,-1.673779488E0,-9.861420631E0,-1.160519004E0
3.405303072E0,-1.692921996E0,-9.890133858E0,-1.150947690E0
3.410080000E0,-1.702493310E0,-9.933803558E0,-1.165304661E0
3.414856927E0,-1.755135417E0,-9.967302322E0,-1.207777262E0
3.419633906E0,-1.760519266E0,-1.002592659E1,-1.265205026E0
3.424410833E0,-1.745564103E0,-1.004506969E1,-1.338186026E0
3.429187760E0,-1.741376638E0,-1.008814049E1,-1.424327731E0
3.433964739E0,-1.713859200E0,-1.009771156E1,-1.544566989E0
3.438741666E0,-1.680957913E0,-1.012642574E1,-1.679163337E0
3.443518593E0,-1.615753531E0,-1.016471100E1,-1.875972986E0
3.448295572E0,-1.569093466E0,-1.016949654E1,-2.048854351E0
3.453072500E0,-1.503290772E0,-1.017368412E1,-2.216950178E0
3.457849427E0,-1.413560033E0,-1.019282627E1,-2.341975212E0
3.462626354E0,-1.319043517E0,-1.018325520E1,-2.438286304E0
3.467403333E0,-1.329213023E0,-1.016829967E1,-2.530410051E0
3.472180312E0,-1.329811215E0,-1.013001442E1,-2.626122952E0
3.476957239E0,-1.254437327E0,-1.011565781E1,-2.679363251E0
3.481734166E0,-1.192822099E0,-1.010548782E1,-2.727817774E0
3.486511145E0,-1.159920812E0,-1.010070229E1,-2.785245657E0
3.491288072E0,-1.069591761E0,-1.013420200E1,-2.790629387E0
3.496065000E0,-1.012163997E0,-1.020598698E1,-2.752344131E0
3.500841979E0,-9.786644578E-1,-1.031665516E1,-2.781656265E0
3.505618906E0,-7.878368497E-1,-1.046560764E1,-2.753540754E0
3.510395833E0,-6.293123364E-1,-1.062413216E1,-2.725425005E0
3.515172812E0,-4.438686073E-1,-1.074437141E1,-2.774477959E0
3.519949739E0,-1.794616925E-3,-1.087777138E1,-2.839084148E0
3.524713385E0,5.461617708E-1,-1.113260746E1,-2.932404041E0
3.529503645E0,1.016949654E0,-1.149691486E1,-3.069393158E0
3.534280572E0,1.536790371E0,-1.199641609E1,-3.129213810E0
3.539044218E0,2.024926186E0,-1.251147175E1,-3.016152859E0
3.543834479E0,2.667997360E0,-1.294816113E1,-2.985644341E0
3.548611406E0,3.110669374E0,-1.333220959E1,-3.265604734E0
3.553375052E0,3.479762316E0,-1.357687569E1,-3.647259951E0
3.558165312E0,3.326023579E0,-1.348116302E1,-3.842873096E0
3.562942239E0,2.712264538E0,-1.308216000E1,-3.629313707E0
3.567719218E0,1.875972986E0,-1.256949711E1,-3.240479946E0
3.572496145E0,1.325025558E0,-1.215135193E1,-2.868994236E0
3.577273072E0,9.397810698E-1,-1.186361504E1,-2.675175667E0
3.582050052E0,5.551348329E-1,-1.164766216E1,-2.505285263E0
3.586826979E0,1.836491376E-1,-1.144187927E1,-2.378465652E0
3.591603958E0,-7.357929647E-2,-1.109013462E1,-2.305484533E0
3.596367552E0,-3.894318938E-1,-1.062891865E1,-2.313859463E0
3.601157812E0,-8.482556343E-1,-1.016770172E1,-2.407179594E0
3.605934791E0,-1.325025558E0,-9.773484230E0,-2.386242390E0
3.610698437E0,-1.828714728E0,-9.432506561E0,-2.023729801E0
3.615488645E0,-2.154736757E0,-9.116056442E0,-1.514058471E0
3.620265625E0,-2.214557409E0,-8.802596092E0,-1.086341500E0
3.625029218E0,-2.042872429E0,-8.499305725E0,-7.902296782E-1
3.629819531E0,-1.762313843E0,-8.301300049E0,-6.813562512E-1
3.634596406E0,-1.520638824E0,-8.136793137E0,-8.123632669E-1
3.639360104E0,-1.270588875E0,-8.059026718E0,-1.125224829E0
3.644150364E0,-9.260223508E-1,-8.019545555E0,-1.516451359E0
3.648927291E0,-4.803591371E-1,-8.023134232E0,-1.887937069E0
3.653704218E0,-1.160518974E-1,-8.084749222E0,-2.177468538E0
3.658481197E0,2.398804724E-1,-8.165507317E0,-2.361716032E0
3.663258125E0,5.156532526E-1,-8.231907845E0,-2.455035925E0
3.668035052E0,5.491527915E-1,-8.241478920E0,-2.425724030E0
3.672812031E0,6.161518097E-1,-8.212765694E0,-2.363510609E0
3.677588958E0,6.681957245E-1,-8.193024635E0,-2.411965132E0
3.682365937E0,7.956135273E-1,-8.130212784E0,-2.533401012E0
3.687142864E0,8.231309652E-1,-8.081758499E0,-2.624328136E0
3.691919791E0,8.656035662E-1,-8.048258781E0,-2.653640270E0
3.696696770E0,8.512466550E-1,-7.947162151E0,-2.629712105E0
3.701473697E0,9.942178130E-1,-7.951349735E0,-2.611167669E0
3.706250625E0,9.942178130E-1,-7.932207108E0,-2.548954248E0
3.711027604E0,9.996016622E-1,-7.913064480E0,-2.462214470E0
3.715804531E0,1.009771109E0,-7.898707390E0,-2.389831543E0
3.720581510E0,1.033699393E0,-7.889136314E0,-2.346760750E0
3.725358437E0,9.098708034E-1,-7.855636597E0,-2.360519648E0
3.730135364E0,7.334001660E-1,-7.807780266E0,-2.364706993E0
3.734912343E0,5.904290080E-1,-7.721040249E0,-2.364108801E0
3.739689270E0,6.095715761E-1,-7.663014412E0,-2.321038008E0
3.744466197E0,5.904290080E-1,-7.581060410E0,-2.335394859E0
3.749243177E0,6.083751321E-1,-7.489534855E0,-2.416750908E0
3.754020104E0,6.598208547E-1,-7.359724045E0,-2.523231506E0
3.758797083E0,6.969096065E-1,-7.277172089E0,-2.629113913E0
3.763574010E0,7.627122402E-1,-7.224529743E0,-2.725425005E0
3.768350937E0,7.525427341E-1,-7.166503906E0,-2.816352367E0
3.773127916E0,7.328019142E-1,-7.089335442E0,-2.907877684E0
3.777904843E0,7.369893789E-1,-7.021738052E0,-2.979662418E0
3.782681822E0,7.794619799E-1,-6.944569588E0,-3.013760090E0
3.787458750E0,8.787640929E-1,-6.915855408E0,-3.071786165E0
3.792235677E0,9.445667267E-1,-6.920042992E0,-3.163311481E0
3.797012656E0,9.684949517E-1,-6.949355125E0,-3.211168051E0
3.801789583E0,9.493523836E-1,-6.982854843E0,-3.239881754E0
3.806566562E0,8.973084688E-1,-6.997211456E0,-3.196212769E0
3.811343489E0,8.733802438E-1,-6.987640381E0,-3.153141975E0
3.816120416E0,8.596215248E-1,-6.973283291E0,-3.138785124E0
3.820897395E0,9.308080077E-1,-6.973283291E0,-3.172284603E0
3.825674322E0,9.535398483E-1,-6.987640381E0,-3.287738323E0
3.830451250E0,9.577272534E-1,-7.030711174E0,-3.417548895E0
3.835228229E0,9.571290612E-1,-7.103094101E0,-3.556332588E0
3.840005156E0,9.852447510E-1,-7.237690449E0,-3.715455294E0
3.844782135E0,1.051047325E0,-7.381857872E0,-3.873979807E0
3.849559062E0,1.141376376E0,-7.560122967E0,-3.979862213E0
3.854335989E0,1.208375454E0,-7.767102242E0,-4.042075634E0
3.859112968E0,1.294517040E0,-7.998009682E0,-4.066602230E0
3.863889895E0,1.342373490E0,-8.234300613E0,-4.100101471E0
3.868666875E0,1.319043517E0,-8.460422516E0,-4.152743816E0
3.873443802E0,1.281356573E0,-8.657830238E0,-4.281956196E0
3.878220729E0,1.275972724E0,-8.801998138E0,-4.463810444E0
3.882997708E0,1.213161111E0,-8.937790871E0,-4.636094093E0
3.887774635E0,1.198205948E0,-9.019744873E0,-4.789832592E0
3.892551614E0,1.169492126E0,-9.125627518E0,-4.890331268E0
3.897328541E0,1.126421213E0,-9.250652313E0,-4.995615482E0
3.902105468E0,1.107278705E0,-9.327820778E0,-5.120640278E0
3.906882447E0,1.168295622E0,-9.394820213E0,-5.225924492E0
3.911659375E0,1.173081279E0,-9.486345291E0,-5.312664509E0
3.916436302E0,1.238883972E0,-9.543772697E0,-5.432903767E0
3.921213281E0,1.342971683E0,-9.611370087E0,-5.596213818E0
3.925990208E0,1.480558991E0,-9.702297211E0,-5.683551788E0
3.930767187E0,1.733600020E0,-9.793225288E0,-5.617151260E0
3.935544114E0,2.187039852E0,-9.927223206E0,-5.471189022E0
3.940321093E0,2.592623234E0,-1.003729248E1,-5.285745144E0
3.945098020E0,3.032304525E0,-1.013779163E1,-5.024329185E0
3.949874947E0,3.319443226E0,-1.018505001E1,-4.810171604E0
3.954638593E0,3.553341627E0,-1.021854877E1,-4.609174728E0
3.959428854E0,3.644867182E0,-1.021795082E1,-4.470390797E0
3.964205833E0,3.697509289E0,-1.016530895E1,-4.360321045E0
3.968982760E0,3.688536167E0,-1.009292603E1,-4.235894203E0
3.973759687E0,3.602992773E0,-1.001156998E1,-4.163511276E0
3.978536666E0,3.436691523E0,-9.890732765E0,-4.095315933E0
3.983313593E0,3.293720484E0,-9.736993790E0,-4.070789337E0
3.988090520E0,3.150749207E0,-9.540184021E0,-4.041477680E0
3.992867447E0,2.950350285E0,-9.343374252E0,-3.992424488E0
3.997644427E0,2.654238462E0,-9.093324661E0,-4.039084435E0
4.002421354E0,2.410170555E0,-8.833105087E0,-4.086342812E0
4.007198333E0,2.343171597E0,-8.602197647E0,-4.080958843E0
4.011975260E0,2.252244234E0,-8.434102058E0,-4.076173306E0
4.016752239E0,2.166700840E0,-8.347361565E0,-4.056432724E0
4.021529166E0,1.971087694E0,-8.256434441E0,-4.122833252E0
4.026306145E0,1.928016901E0,-8.199007034E0,-4.117449760E0
4.031083072E0,1.880758643E0,-8.194221497E0,-4.060021877E0
4.035860000E0,1.643270969E0,-8.175676346E0,-4.024727821E0
4.040636927E0,1.547558069E0,-8.170890808E0,-3.971487284E0
4.045413906E0,1.548156261E0,-8.219346046E0,-3.875774384E0
4.050190885E0,1.487139225E0,-8.272585869E0,-3.808177233E0
4.054967812E0,1.444666624E0,-8.306085587E0,-3.798605919E0
4.059744739E0,1.411167145E0,-8.335397720E0,-3.846462488E0
4.064521718E0,1.368096352E0,-8.344968796E0,-3.922434568E0
4.069298645E0,1.400997639E0,-8.330014229E0,-3.918246984E0
4.074075625E0,1.487139225E0,-8.368897438E0,-3.832105398E0
4.078852552E0,1.430907965E0,-8.416753769E0,-3.740580082E0
4.083629531E0,1.394417405E0,-8.484351158E0,-3.586841106E0
4.088406458E0,1.266999602E0,-8.629117012E0,-3.441477060E0
4.093183385E0,1.130608678E0,-8.860622406E0,-3.306282759E0
4.097960364E0,1.018146038E0,-9.208778381E0,-3.209971666E0
4.102737291E0,9.391828775E-1,-9.723833084E0,-3.165704250E0
4.107514270E0,9.415757060E-1,-1.034596729E1,-3.180061340E0
4.112277864E0,9.577272534E-1,-1.103928757E1,-3.227319479E0
4.117068125E0,9.690931439E-1,-1.176670551E1,-3.332603693E0
4.121845104E0,1.027119160E0,-1.253240871E1,-3.528815269E0
4.126608750E0,1.089930773E0,-1.325444317E1,-3.721437454E0
4.131399010E0,1.386640668E0,-1.395733452E1,-3.851846218E0
4.136175937E0,1.530210137E0,-1.465125275E1,-4.019941807E0
4.140939583E0,1.449452281E0,-1.527219009E1,-4.350151539E0
4.145729843E0,1.381855130E0,-1.585544109E1,-4.843671322E0
4.150506770E0,9.056833982E-1,-1.640040588E1,-5.239085197E0
4.155270416E0,3.523431420E-1,-1.664746475E1,-5.542973518E0
4.160060677E0,-2.338984162E-1,-1.647039604E1,-5.698507309E0
4.164837656E0,-8.081758618E-1,-1.566281891E1,-5.720042706E0
4.169601250E0,-1.225125194E0,-1.415055466E1,-5.531607628E0
4.174391510E0,-1.570888042E0,-1.212862015E1,-4.941178799E0
4.179168489E0,-2.113460541E0,-1.006839943E1,-3.855435371E0
4.183932083E0,-2.635694027E0,-8.239685059E0,-2.711666346E0
4.188722343E0,-3.159124136E0,-6.766902447E0,-1.879562140E0
4.193499322E0,-3.615555048E0,-5.703890800E0,-1.296909928E0
4.198262968E0,-3.966701746E0,-4.943571568E0,-8.165507317E-1
4.203053229E0,-4.314259052E0,-4.365705013E0,-4.791627228E-1
4.207830156E0,-4.546961308E0,-3.928416491E0,-2.045863420E-1
4.212593802E0,-4.765904427E0,-3.558127165E0,-1.794616925E-3
4.217384062E0,-4.946562767E0,-3.293720484E0,1.525424421E-1
4.222161041E0,-4.978267670E0,-3.187838078E0,3.828516304E-1
4.226924635E0,-4.748556614E0,-3.260220766E0,6.023930907E-1
4.231714895E0,-4.399204254E0,-3.552743435E0,8.787640929E-1
4.236491875E0,-3.896113396E0,-4.062414646E0,1.107278705E0
4.241255468E0,-3.359523058E0,-4.802993298E0,1.320838094E0
4.246045729E0,-3.051447153E0,-5.669793129E0,1.530808330E0
4.250822708E0,-2.951546669E0,-6.604190350E0,1.833500385E0
4.255586354E0,-2.865405083E0,-7.490731239E0,2.140978098E0
4.260376614E0,-3.052045345E0,-8.358129501E0,2.373081923E0
4.265153541E0,-3.105285645E0,-9.221340179E0,2.532204628E0
4.269917187E0,-2.973680258E0,-1.006421185E1,2.599203587E0
4.274707447E0,-2.727817774E0,-1.083410263E1,2.612962246E0
4.279484427E0,-2.411965132E0,-1.149332523E1,2.563311338E0
4.284248020E0,-2.044667006E0,-1.198863983E1,2.519043922E0
4.289038281E0,-1.711466432E0,-1.223390388E1,2.373081923E0
4.293815260E0,-1.380060434E0,-1.222253799E1,2.103291035E0
4.298578906E0,-1.193420291E0,-1.194257736E1,1.731805444E0
4.303369166E0,-1.068395257E0,-1.162911797E1,1.284945726E0
4.308146093E0,-1.015154958E0,-1.126780224E1,8.668000102E-1
4.312923020E0,-9.996016622E-1,-1.092024422E1,5.258227587E-1
4.317700000E0,-1.125224829E0,-1.059781170E1,3.200400174E-1
4.322476927E0,-1.421934843E0,-1.032383347E1,1.435693651E-1
4.327253906E0,-1.741974831E0,-1.009352398E1,1.555334684E-2
4.332030833E0,-2.043470621E0,-9.968499184E0,-1.124626622E-1
4.336807812E0,-2.177468538E0,-9.857831001E0,-1.549352705E-1
4.341584739E0,-2.277369022E0,-9.824930191E0,-1.686939895E-1
4.346361666E0,-2.315654039E0,-9.935597420E0,-2.410768867E-1
4.351138645E0,-2.258226395E0,-1.012343407E1,-2.697907388E-1
4.355915572E0,-2.172084808E0,-1.040758228E1,-3.852444589E-1
4.360692552E0,-1.972284079E0,-1.079222870E1,-5.443671346E-1
4.365469479E0,-1.614557028E0,-1.129292679E1,-7.328019142E-1
4.370233125E0,-1.134197950E0,-1.184506989E1,-1.046859860E0
4.375023385E0,-6.113662124E-1,-1.231585789E1,-1.404586911E0
4.379800364E0,-1.992024779E-1,-1.251266766E1,-1.747358680E0
4.384563958E0,3.708875179E-2,-1.244447231E1,-1.974078655E0
4.389354218E0,1.692921966E-1,-1.223210907E1,-2.051845312E0
4.394131145E0,2.123630047E-1,-1.201496029E1,-1.826321840E0
4.398908125E0,1.663011760E-1,-1.183191013E1,-1.509871125E0
4.403685104E0,1.549352705E-1,-1.174098206E1,-1.005583763E0
4.408462031E0,1.758724600E-1,-1.168295670E1,-6.221339107E-1
4.413238958E0,3.248256743E-1,-1.158185959E1,-3.589234054E-1
4.418015937E0,6.687939167E-1,-1.147059345E1,-7.716853172E-2
4.422792864E0,1.112662554E0,-1.137308598E1,2.416750938E-1
4.427556510E0,1.599601984E0,-1.126600742E1,5.605186820E-1
4.432346770E0,2.167299032E0,-1.115892887E1,8.787640929E-1
4.437123750E0,2.616551638E0,-1.105663490E1,1.250848055E0
4.441887395E0,2.922832966E0,-1.090648556E1,1.590030670E0
4.446677604E0,2.962314367E0,-1.072343445E1,1.920838356E0
4.451454583E0,2.844467878E0,-1.048295593E1,2.199602127E0
4.456218229E0,2.511267424E0,-1.023350430E1,2.398206472E0
4.461008437E0,2.073380709E0,-9.916455269E0,2.452643156E0
4.465785416E0,1.643869162E0,-9.541978836E0,2.445464849E0
4.470549062E0,1.247258782E0,-9.162715912E0,2.432304144E0
4.475339322E0,9.080761671E-1,-8.772686005E0,2.338385820E0
4.480116250E0,7.064808607E-1,-8.411968231E0,2.271985054E0
4.484879895E0,4.576273263E-1,-8.070392609E0,2.287538528E0
4.489670156E0,2.237289101E-1,-7.782057285E0,2.273779631E0
4.494447135E0,2.751746029E-2,-7.536793232E0,2.183450699E0
4.499210781E0,-6.879365444E-2,-7.295716286E0,2.121835470E0
4.504001041E0,-4.606183618E-2,-7.074379921E0,2.106880426E0
4.508777968E0,-4.546362907E-2,-6.910471916E0,2.226521492E0
4.513541614E0,-5.982056633E-2,-6.824330330E0,2.318047047E0
4.518331875E0,-5.443671346E-2,-6.805187702E0,2.428116798E0
4.523108802E0,-2.452643216E-2,-6.838686943E0,2.590828657E0
4.527885781E0,-1.854437590E-2,-6.939784050E0,2.763710260E0
4.532662708E0,-2.033899277E-1,-7.089335442E0,2.817548752E0
4.537439687E0,-4.791627228E-1,-7.316653252E0,2.612962246E0
4.542216614E0,-9.290133715E-1,-7.596613884E0,2.111665964E0
4.546993593E0,-1.456630826E0,-7.916055679E0,1.250848055E0
4.551770520E0,-1.947757602E0,-8.229515076E0,1.447657645E-1
4.556534166E0,-2.310270309E0,-8.528617859E0,-1.033699393E0
4.561324427E0,-2.531008244E0,-8.822337151E0,-2.289333105E0
4.566101354E0,-2.547159672E0,-9.096913338E0,-3.517449379E0
4.570865000E0,-2.458625317E0,-9.370293617E0,-4.703691006E0
4.575655260E0,-2.312064886E0,-9.629316330E0,-5.793023586E0
4.580432239E0,-2.126621008E0,-9.878767967E0,-6.734599113E0
4.585195833E0,-1.973480463E0,-1.014855862E1,-7.474579811E0
4.589986145E0,-1.837089539E0,-1.039860916E1,-7.877770424E0
4.594763072E0,-1.688136339E0,-1.059541893E1,-7.768298626E0
4.599526718E0,-1.517647743E0,-1.070608711E1,-7.169494629E0
4.604316979E0,-1.345364571E0,-1.070608711E1,-6.239284992E0
4.609093958E0,-1.248455167E0,-1.068215847E1,-5.093122959E0
4.613870885E0,-1.136590719E0,-1.060080242E1,-3.888935089E0
4.618647812E0,-9.254241586E-1,-1.046142101E1,-2.738585472E0
4.623424791E0,-6.251249313E-1,-1.026819992E1,-1.804188251E0
4.628188437E0,-3.266202807E-1,-1.002233791E1,-1.028315544E0
4.632978697E0,-5.982056609E-4,-9.814162254E0,-5.168496966E-1
4.637755625E0,2.530409992E-1,-9.659825325E0,-1.770688742E-1
4.642519270E0,3.972085714E-1,-9.611370087E0,8.614161611E-2
4.647309531E0,5.844469070E-1,-9.654440880E0,3.104687333E-1
4.652086510E0,7.914260626E-1,-9.788438797E0,6.065805554E-1
4.656850104E0,1.088734269E0,-9.995418549E0,8.931210637E-1
4.661640364E0,1.476371527E0,-1.022632599E1,1.165304661E0
4.666417343E0,1.906481385E0,-1.039382362E1,1.388435364E0
4.671180989E0,2.183450699E0,-1.054696369E1,1.492523074E0
4.675971250E0,2.378465652E0,-1.071027374E1,1.352542996E0
4.680748177E0,2.519642353E0,-1.090708351E1,1.021137118E0
4.685511822E0,2.583650351E0,-1.106082249E1,5.886343718E-1
4.690302083E0,2.595614433E0,-1.119123173E1,9.451649338E-2
4.695079062E0,2.526222467E0,-1.125404263E1,-3.708875179E-1
4.699855989E0,2.362912416E0,-1.129292679E1,-6.526423693E-1
4.704632968E0,2.063809633E0,-1.132702446E1,-6.466603279E-1
4.709409895E0,1.623530149E0,-1.139581776E1,-3.517449200E-1
4.714186822E0,1.074377418E0,-1.152742290E1,9.810572863E-2
4.718963802E0,5.168496966E-1,-1.171645641E1,6.000002623E-1
4.723740729E0,-1.220339537E-1,-1.194497108E1,1.098305583E0
4.728504375E0,-6.424728632E-1,-1.213878918E1,1.518245935E0
4.733294635E0,-1.220339537E0,-1.229492092E1,1.741974831E0
4.738071614E0,-1.718644857E0,-1.238764286E1,1.845464468E0
4.742835208E0,-2.086541414E0,-1.243669605E1,1.664806366E0
4.747625520E0,-2.269592285E0,-1.248036480E1,1.234098315E0
4.752402447E0,-2.173879385E0,-1.254736328E1,5.234299302E-1
4.757166093E0,-1.902892232E0,-1.262333584E1,-3.278166950E-1
4.761956354E0,-1.579262972E0,-1.268913841E1,-1.178465128E0
4.766733333E0,-1.036690354E0,-1.275972652E1,-1.925025821E0
4.771496927E0,-4.354937077E-1,-1.285424328E1,-2.480160713E0
4.776287187E0,1.531406492E-1,-1.296850014E1,-2.761317253E0
4.781064166E0,7.010970116E-1,-1.311625767E1,-2.745165825E0
4.785827812E0,1.158724308E0,-1.328854084E1,-2.603390932E0
4.790618072E0,1.584048629E0,-1.353380489E1,-2.427518606E0
4.795395000E0,1.966900229E0,-1.383171082E1,-2.237289190E0
4.800158645E0,2.388036966E0,-1.412423420E1,-2.018345833E0
4.804948906E0,2.742773056E0,-1.435035515E1,-1.765903115E0
4.809725833E0,3.048455954E0,-1.453280830E1,-1.570888042E0
4.814489531E0,3.282952785E0,-1.459502125E1,-1.365703583E0
4.819279791E0,3.422334671E0,-1.452263927E1,-1.150349498E0
4.824056718E0,3.617947817E0,-1.444487190E1,-9.308080077E-1
4.828820364E0,3.784847260E0,-1.432403469E1,-7.734799385E-1
4.833610625E0,3.822534084E0,-1.409252930E1,-7.256234884E-1
4.838387552E0,3.659822226E0,-1.377548027E1,-7.345965505E-1
4.843164479E0,3.092125177E0,-1.339143181E1,-8.087740541E-1
4.847941458E0,2.328216314E0,-1.292542934E1,-9.822536707E-1
4.852718437E0,1.587637782E0,-1.245045471E1,-1.286142230E0
4.857482083E0,1.084546804E0,-1.195035458E1,-1.643869162E0
4.862272343E0,6.616154313E-1,-1.137308598E1,-1.983051777E0
4.867049270E0,2.871387303E-1,-1.079103184E1,-2.201995134E0
4.871812916E0,-3.828516230E-2,-1.023290634E1,-2.248655081E0
4.876603177E0,-2.566302419E-1,-9.708279610E0,-1.935793519E0
4.881380156E0,-5.156532526E-1,-9.318847656E0,-1.320239902E0
4.886143802E0,-1.034297585E0,-9.128020287E0,-3.296113312E-1
4.890934010E0,-1.639681697E0,-9.139984131E0,9.505487680E-1
4.895710989E0,-2.297708035E0,-9.228518486E0,2.230708838E0
4.900474635E0,-3.004786968E0,-9.562915802E0,3.223132133E0
4.905264895E0,-3.631108284E0,-1.015274620E1,3.859622955E0
4.910041822E0,-4.094119549E0,-1.102074242E1,4.030709743E0
4.914805468E0,-4.739583492E0,-1.200060368E1,3.747160196E0
4.919595729E0,-5.525625706E0,-1.289851093E1,3.093919754E0
4.924372656E0,-6.195017815E0,-1.346321678E1,2.196012974E0
4.929136354E0,-6.716054916E0,-1.363729477E1,9.320043921E-1
4.933926614E0,-7.106084824E0,-1.362832165E1,-5.730810165E-1
4.938703541E0,-7.429116249E0,-1.353679562E1,-2.020738840E0
4.943467187E0,-7.700103283E0,-1.336810207E1,-3.482753277E0
4.948257447E0,-8.144570351E0,-1.318983650E1,-4.508078098E0
4.953034427E0,-8.435895920E0,-1.302233887E1,-4.655236244E0
4.957798072E0,-8.554341316E0,-1.285424328E1,-3.594617844E0
4.962588333E0,-8.353941917E0,-1.285484123E1,-1.987837434E0
4.967365260E0,-8.043473244E0,-1.266162109E1,-9.002995491E-1
4.972142239E0,-6.973283291E0,-1.251027489E1,-3.708875179E-2
4.976919166E0,-5.755336761E0,-1.199641609E1,2.344966233E-1
4.981696145E0,-4.757529736E0,-1.132463169E1,3.248256743E-1
4.986459739E0,-3.823132277E0,-1.088853931E1,7.058826834E-2
4.991250000E0,-3.128615618E0,-1.045783138E1,-4.522434771E-1
4.996026979E0,-2.695514679E0,-1.039442158E1,-4.498506486E-1
5.000790572E0,-1.621735573E0,-1.057926750E1,-7.908278704E-1
5.005580885E0,-4.342973232E-1,-1.073539925E1,-1.223928809E0
5.010357812E0,8.213363886E-1,-1.091964626E1,-1.326820135E0
5.015121458E0,1.409970760E0,-1.108714390E1,-8.111668825E-1
5.019911718E0,1.831705689E0,-1.117388344E1,-4.342973232E-1
5.024688645E0,2.313859463E0,-1.157707405E1,-3.164508045E-1
5.029452343E0,3.125026464E0,-1.198445225E1,-1.423729509E-1
5.034242604E0,3.326023579E0,-1.234576797E1,-1.435693651E-1
5.039019531E0,3.400201082E0,-1.250489140E1,2.787638307E-1
5.043783177E0,3.089732170E0,-1.245284748E1,8.362914920E-1
5.048573437E0,2.017747641E0,-1.186720371E1,9.236295223E-1
5.053350416E0,5.928218365E-1,-1.094536877E1,9.206385016E-1
5.058114062E0,-2.805584669E-1,-1.007139015E1,9.678967595E-1
5.062904322E0,-7.734799385E-1,-9.301499367E0,9.607182741E-1
5.067681250E0,-1.480558991E0,-8.478966713E0,8.524430394E-1
5.072444895E0,-1.954936147E0,-7.758129120E0,8.159525394E-1
5.077235156E0,-2.318645239E0,-7.083951473E0,7.651050687E-1
5.082012135E0,-2.477767944E0,-6.510870457E0,6.646065116E-1
5.086775781E0,-2.532802820E0,-5.971887112E0,4.869394004E-1
5.091565989E0,-2.550150633E0,-5.479563713E0,3.188436031E-1
5.096342968E0,-2.743371248E0,-4.864010334E0,1.513460279E-1
5.101106614E0,-3.040679455E0,-4.180261135E0,1.286142170E-1
5.105896875E0,-3.247060299E0,-3.492324591E0,2.590230405E-1
5.110673854E0,-3.366103172E0,-2.899502754E0,5.515456200E-1
5.115437500E0,-3.379862070E0,-2.303091764E0,9.403793216E-1
5.120227760E0,-3.517449379E0,-1.590030670E0,1.333998680E0
5.125004687E0,-3.565305710E0,-1.084546804E0,1.593021631E0
5.129768333E0,-3.528217077E0,-7.280163169E-1,1.635494232E0
5.134558593E0,-3.291925669E0,-4.432703853E-1,1.537986755E0
5.139335572E0,-2.846262455E0,-2.781656384E-1,1.281356573E0
5.144099166E0,-2.529811859E0,-1.615155339E-1,1.010967612E0
5.148889479E0,-2.331207514E0,-1.806581169E-1,8.321040869E-1
5.153666406E0,-2.136192322E0,-3.002992272E-1,7.495517135E-1
5.158430052E0,-1.855035782E0,-4.582255483E-1,7.292127013E-1
5.163220312E0,-1.525424480E0,-6.693921089E-1,7.417750359E-1
5.167997291E0,-1.225125194E0,-9.146564603E-1,7.692924738E-1
5.172774218E0,-1.057627559E0,-1.194018483E0,8.261220455E-1
5.177551197E0,-9.373882413E-1,-1.516451359E0,8.835497499E-1
5.182328125E0,-8.410771489E-1,-1.790429592E0,8.829515576E-1
5.187105104E0,-6.987041831E-1,-1.968096614E0,8.105686903E-1
5.191882031E0,-5.174478889E-1,-2.078764677E0,7.232306600E-1
5.196659010E0,-4.654040039E-1,-2.223530531E0,6.269195080E-1
5.201435937E0,-4.085744619E-1,-2.358126640E0,5.072783828E-1
5.206212864E0,-4.181457460E-1,-2.550748825E0,3.391826153E-1
5.210989843E0,-4.995017350E-1,-2.776870728E0,1.722832322E-1
5.215766770E0,-7.094719410E-1,-3.085544825E0,-4.187439568E-3
5.220543750E0,-8.943174481E-1,-3.524627686E0,-1.800599098E-1
5.225320677E0,-7.663014531E-1,-4.068396568E0,-4.833501875E-1
5.230084322E0,-5.234299302E-1,-4.703691006E0,-9.302098155E-1
5.234874583E0,-2.584248483E-1,-5.372485161E0,-1.450050473E0
5.239651562E0,4.486542568E-2,-6.171089649E0,-2.021337032E0
5.244415208E0,2.482553422E-1,-7.028318405E0,-2.727817774E0
5.249205468E0,4.199403822E-1,-8.058428764E0,-3.951746702E0
5.253982395E0,7.806583643E-1,-9.222537041E0,-5.579464436E0
5.258746041E0,9.732806087E-1,-1.073360443E1,-7.503891945E0
5.263536354E0,1.042074203E0,-1.262632656E1,-9.782457352E0
5.268313281E0,1.075573802E0,-1.500000668E1,-1.257906818E1
5.273076927E0,1.695314884E0,-1.795035744E1,-1.548814297E1
5.277867187E0,2.402992249E0,-2.168076706E1,-1.847917175E1
5.282644166E0,4.241876125E0,-2.652204704E1,-2.140260124E1
5.287407760E0,7.931010723E0,-3.241437149E1,-2.185484505E1
5.292198020E0,1.132283688E1,-3.765405655E1,-1.844686890E1
5.296975000E0,1.189173031E1,-3.979862213E1,-1.526680660E1
5.301738645E0,8.524430275E0,-3.731188202E1,-1.373480225E1
5.306528906E0,4.041477680E0,-3.157030296E1,-1.325444317E1
5.311305885E0,2.392822742E0,-2.523949242E1,-1.255932808E1
5.316069479E0,2.139183521E0,-1.976710701E1,-1.148674488E1
5.320859791E0,1.643270969E0,-1.507179165E1,-9.994820595E0
5.325636718E0,5.802595019E-1,-1.067677498E1,-7.971688747E0
5.330400364E0,-7.519445419E-1,-5.709274769E0,-5.290530682E0
5.335190625E0,-1.203589797E0,-1.967498422E0,-3.256033421E0
5.339967604E0,-1.978864312E0,8.093722463E-1,-1.728216171E0
5.344731250E0,-2.163709879E0,2.263011932E0,-6.759724021E-2
5.349521458E0,-2.462812662E0,3.022733212E0,1.167099237E0
5.354298437E0,-2.388635159E0,3.431905985E0,2.639283419E0
5.359062083E0,-2.051247120E0,3.765106440E0,3.573082447E0
5.363852343E0,-1.434497118E0,3.660420418E0,3.992424488E0
5.368629322E0,-9.146564603E-1,2.799004316E0,3.788436413E0
5.373392916E0,-7.088736892E-1,1.595414519E0,3.303889751E0
5.378183229E0,-5.120640397E-1,2.135594189E-1,2.804388046E0
5.382960156E0,-6.825526357E-1,-1.333400369E0,2.245065928E0
5.387723802E0,-7.040880919E-1,-3.096312523E0,1.627119422E0
5.392514062E0,-6.933203340E-1,-4.989035130E0,7.932206988E-1
5.397291041E0,-4.689932466E-1,-6.968497753E0,-1.992024779E-1
5.402054687E0,3.230310678E-1,-8.951549530E0,-8.500502706E-1
5.406844895E0,1.133001566E0,-1.101535892E1,-9.870393276E-1
5.411621875E0,1.663609982E0,-1.324008560E1,-1.021735311E0
5.416385520E0,1.559522152E0,-1.572204113E1,-1.375274777E0
5.421175781E0,9.212366939E-1,-1.861795425E1,-2.315055847E0
5.425952708E0,-2.602194548E-1,-2.204088783E1,-3.553939819E0
5.430716406E0,-1.709073544E0,-2.602852631E1,-5.372485161E0
5.435506666E0,-3.640679598E0,-3.043012428E1,-9.232108116E0
5.440283593E0,-4.777270317E0,-3.413959885E1,-1.432941818E1
5.445047239E0,-4.966901779E0,-3.485205841E1,-1.694836235E1
5.449837500E0,-4.957928658E0,-3.105704308E1,-1.344287777E1
5.454614479E0,-5.489135265E0,-2.437987137E1,-4.807180882E0
5.459378125E0,-6.068198204E0,-1.733181190E1,2.955734253E0
5.464168385E0,-6.486343861E0,-1.157288647E1,6.975676060E0
5.468945364E0,-5.871986866E0,-7.138986588E0,7.065407276E0
5.473708958E0,-4.284946918E0,-3.964308977E0,5.322235584E0
5.478499270E0,-2.942573547E0,-1.816152334E0,3.509672642E0
5.483276197E0,-2.624328136E0,-3.840480447E-1,1.731207132E0
5.488039843E0,-3.170490026E0,5.694918036E-1,1.549352705E-1
5.492830104E0,-4.468596458E0,1.067797065E0,-1.071984529E0
5.497607083E0,-5.971887112E0,1.122233868E0,-1.808375716E0
5.502370729E0,-7.224529743E0,8.500502706E-1,-2.223530531E0
5.507160989E0,-8.003992081E0,3.858426511E-1,-2.324627161E0
5.511937916E0,-8.391629219E0,-7.836493850E-2,-2.149951220E0
5.516701562E0,-8.462217331E0,-5.503492355E-1,-1.534995675E0
5.521491822E0,-8.380263329E0,-1.018146038E0,-8.632107973E-1
5.526268802E0,-8.051848412E0,-1.470389485E0,-2.075773627E-1
5.531032395E0,-7.287341595E0,-2.022533417E0,7.585247755E-1
5.535822708E0,-6.784848690E0,-2.672782898E0,1.725823283E0
5.540599635E0,-6.421139717E0,-3.544368505E0,2.391626120E0
5.545363281E0,-6.296712875E0,-4.685744762E0,2.785245657E0
5.550153541E0,-6.467799664E0,-5.938985825E0,2.901895761E0
5.554930520E0,-6.692126751E0,-7.100701332E0,2.865405083E0
5.559694166E0,-7.031907558E0,-8.117650986E0,2.748156786E0
5.564484427E0,-7.296912670E0,-9.038887978E0,2.544168711E0
5.569261354E0,-7.599604607E0,-9.949356079E0,2.378465652E0
5.574025000E0,-7.449455261E0,-1.100399303E1,2.248655081E0
5.578815260E0,-7.067201614E0,-1.178883934E1,2.103291035E0
5.583592239E0,-6.585047722E0,-1.250070381E1,1.951945066E0
5.588355833E0,-6.130411625E0,-1.305344582E1,2.061416626E0
5.593146145E0,-5.614160061E0,-1.365942764E1,2.221735716E0
5.597923072E0,-5.129613400E0,-1.430848122E1,2.541177750E0
5.602686718E0,-4.268197536E0,-1.498624802E1,2.978466034E0
5.607476979E0,-2.900699139E0,-1.597029686E1,2.837887764E0
5.612253958E0,-1.450648785E0,-1.678624916E1,2.998805046E0
5.617017604E0,-1.052841991E-1,-1.706262016E1,3.462414265E0
5.621807864E0,1.186241865E0,-1.684786415E1,3.921238184E0
5.626584843E0,1.956132531E0,-1.622872162E1,4.108476639E0
5.631348489E0,2.397010088E0,-1.554377556E1,4.235296249E0
5.636138697E0,2.784647465E0,-1.492164230E1,4.050450325E0
5.640915677E0,3.236890793E0,-1.424088383E1,3.707080364E0
5.645679322E0,3.783052683E0,-1.345902920E1,3.253042459E0
5.650469583E0,4.210171223E0,-1.260957718E1,2.717050076E0
5.655246562E0,4.530809879E0,-1.166441250E1,1.956132531E0
5.660010208E0,4.602594376E0,-1.068096161E1,9.912267923E-1
5.664800468E0,4.313062668E0,-9.770493507E0,1.316052489E-2
5.669577395E0,3.882354736E0,-9.000602722E0,-7.824530005E-1
5.674341041E0,3.499503136E0,-8.288139343E0,-1.515254974E0
5.679131302E0,3.257229805E0,-7.719245911E0,-1.960319996E0
5.683908281E0,3.008376360E0,-7.339385033E0,-1.988435626E0
5.688671927E0,2.841476917E0,-7.031907558E0,-1.905883193E0
5.693462187E0,2.608774900E0,-6.801598549E0,-1.670190215E0
5.698239166E0,2.276770830E0,-6.638886452E0,-1.442872047E0
5.703002812E0,1.849651933E0,-6.571887493E0,-1.258026481E0
5.707793072E0,1.369890928E0,-6.597012043E0,-1.077966571E0
5.712570000E0,8.428717852E-1,-6.612565517E0,-9.218349457E-1
5.717333645E0,3.254238665E-1,-6.667600155E0,-7.316055298E-1
5.722123906E0,-1.148554832E-1,-6.722036839E0,-4.755735099E-1
5.726900885E0,-4.749752879E-1,-6.756732941E0,-2.333002090E-1
5.731664531E0,-8.823533654E-1,-6.781857491E0,4.247260094E-2
5.736454791E0,-1.204187989E0,-6.787241459E0,3.176472187E-1
5.741231718E0,-1.397408366E0,-6.884150982E0,5.395814776E-1
5.745995364E0,-1.433300734E0,-6.971488953E0,8.464609981E-1
5.750785677E0,-1.331605792E0,-7.086942673E0,1.115055323E0
5.755562604E0,-1.035493970E0,-7.254439831E0,1.248455167E0
5.760339583E0,-5.437689424E-1,-7.465008259E0,1.289133191E0
5.765116510E0,4.636093974E-1,-7.742575645E0,1.024726272E0
5.769893489E0,1.451246977E0,-8.043473244E0,5.730810165E-1
5.774657135E0,1.707278967E0,-8.379665375E0,1.836491376E-1
5.779447395E0,1.420140266E0,-8.678768158E0,-2.327020019E-1
5.784224322E0,8.428717852E-1,-8.959924698E0,-6.897311211E-1
5.788987968E0,1.645065546E-1,-9.196813583E0,-1.194616675E0
5.793778229E0,-3.948157430E-1,-9.434301376E0,-1.853839397E0
5.798555208E0,-7.477570772E-1,-9.699306488E0,-2.778067112E0
5.803318854E0,-8.961120844E-1,-1.000319481E1,-3.900300980E0
5.808109114E0,-9.732806087E-1,-1.024845982E1,-5.046463013E0
5.812886041E0,-1.059422255E0,-1.038305569E1,-5.934200287E0
5.817649687E0,-1.186241865E0,-1.033998489E1,-6.412764549E0
5.822440000E0,-1.223928809E0,-1.016171932E1,-6.283552170E0
5.827216927E0,-1.077966571E0,-9.910472870E0,-5.674578667E0
5.831980572E0,-7.692924738E-1,-9.674181938E0,-4.765306473E0
5.836770833E0,-2.398804724E-1,-9.447462082E0,-3.687937975E0
5.841547812E0,3.559323549E-1,-9.224929810E0,-2.592623234E0
5.846311458E0,1.042074203E0,-9.089137077E0,-1.569093466E0
5.851101718E0,1.685743570E0,-9.107083321E0,-6.460621357E-1
5.855878645E0,2.147558212E0,-9.313464165E0,1.435693651E-1
5.860642291E0,2.404188633E0,-9.698110580E0,7.280163169E-1
5.865432552E0,2.650649309E0,-1.020419216E1,1.106680512E0
5.870209531E0,2.940180779E0,-1.076650524E1,1.331007600E0
5.874973177E0,3.298506021E0,-1.131565857E1,1.391426325E0
5.879763437E0,3.674777269E0,-1.181994534E1,1.222134113E0
5.884540416E0,4.016951084E0,-1.216570854E1,8.506484628E-1
5.889304010E0,4.261617184E0,-1.244447231E1,3.074777126E-1
5.894094322E0,4.339384079E0,-1.259342575E1,-2.446661144E-1
5.898871250E0,4.279563427E0,-1.260299683E1,-7.052844763E-1
5.903634895E0,4.016352654E0,-1.251685524E1,-1.006181955E0
5.908425156E0,3.681955814E0,-1.243131161E1,-1.061815023E0
5.913202135E0,3.436093330E0,-1.238824081E1,-8.781659007E-1
5.917979114E0,3.138785124E0,-1.241336536E1,-4.642075896E-1
5.922756041E0,2.804986238E0,-1.249173069E1,1.519442350E-1
5.927533020E0,2.519043922E0,-1.258864021E1,8.297112584E-1
5.932296666E0,2.208575249E0,-1.274417305E1,1.340578914E0
5.937086927E0,1.916052699E0,-1.294696522E1,1.591825247E0
5.941863854E0,1.621735573E0,-1.314497089E1,1.588834286E0
5.946627500E0,1.112662554E0,-1.333400440E1,1.485942841E0
5.951417760E0,5.186443329E-1,-1.352901936E1,1.474576950E0
5.956194739E0,-6.161518395E-2,-1.371805191E1,1.400997639E0
5.960958385E0,-7.208378315E-1,-1.389272785E1,9.583254457E-1
5.965748645E0,-1.191027522E0,-1.407637787E1,1.214357466E-1
5.970525625E0,-1.482353687E0,-1.421157169E1,-8.751748800E-1
5.975289270E0,-1.587039590E0,-1.428814220E1,-1.782054663E0
5.980079479E0,-1.144367456E0,-1.431087399E1,-2.499303341E0
5.984856458E0,-4.001995921E-1,-1.435693550E1,-2.978466034E0
5.989620104E0,5.449653864E-1,-1.443649769E1,-3.280559778E0
5.994410364E0,1.749751568E0,-1.449213028E1,-3.181257725E0
5.999187343E0,2.937788010E0,-1.458604908E1,-2.602194548E0
6.003950989E0,3.856631994E0,-1.466561031E1,-1.747358680E0
6.008741250E0,4.594219685E0,-1.472243977E1,-9.164510965E-1
6.013518229E0,5.326423168E0,-1.471107388E1,-2.338984162E-1
6.018281822E0,5.899504185E0,-1.462792301E1,1.710868180E-1
6.023072083E0,6.036493301E0,-1.442991734E1,1.172483116E-1
6.027849062E0,5.257031441E0,-1.401715469E1,-4.211367965E-1
6.032626041E0,3.679563046E0,-1.336570930E1,-1.219143152E0
6.037402968E0,2.083550215E0,-1.260299683E1,-1.998605132E0
6.042179947E0,7.686942816E-1,-1.189771271E1,-2.654836655E0
6.046943593E0,-8.195417374E-2,-1.127318573E1,-2.972483873E0
6.051733854E0,-7.363911867E-1,-1.072522926E1,-3.012563705E0
6.056510781E0,-1.220339537E0,-1.030768204E1,-2.684148788E0
6.061274479E0,-1.673779488E0,-1.007318497E1,-2.009970903E0
6.066064687E0,-2.205584288E0,-9.958928108E0,-9.655039310E-1
6.070841666E0,-2.845066071E0,-9.936794281E0,2.518445849E-1
6.075605312E0,-3.622733593E0,-1.002173901E1,1.455434322E0
6.080395572E0,-4.405186653E0,-1.023111153E1,2.525026083E0
6.085172552E0,-5.032105923E0,-1.067139053E1,3.258426189E0
6.089936197E0,-5.203791142E0,-1.151486111E1,3.561716557E0
6.094726458E0,-5.376672268E0,-1.246481133E1,3.534797192E0
6.099503437E0,-5.779862881E0,-1.334178066E1,3.244667530E0
6.104267083E0,-6.296114445E0,-1.413320732E1,2.547159672E0
6.109057343E0,-6.781259537E0,-1.479422379E1,1.335793257E0
6.113834270E0,-7.208378315E0,-1.508794308E1,-2.309073806E-1
6.118597916E0,-7.569694519E0,-1.505444336E1,-1.630708575E0
6.123388177E0,-7.796414375E0,-1.480917931E1,-2.804986238E0
6.128165156E0,-7.721638680E0,-1.443231010E1,-3.679563046E0
6.132928802E0,-7.383652687E0,-1.397886944E1,-4.094119549E0
6.137719062E0,-6.967899323E0,-1.340519047E1,-3.611965895E0
6.142496041E0,-6.648457527E0,-1.289372444E1,-2.341975212E0
6.147272968E0,-6.032904148E0,-1.253599739E1,-1.913659930E0
6.152049947E0,-5.082953453E0,-1.253420353E1,-6.514459848E-1
6.156826875E0,-4.198805332E0,-1.237866974E1,9.421738982E-1
6.161590520E0,-3.290729284E0,-1.171167088E1,1.205384374E0
6.166380833E0,-2.624328136E0,-1.131984615E1,6.640082598E-1
6.171157760E0,-2.533401012E0,-1.127617645E1,6.969096065E-1
6.175921406E0,-2.087139606E0,-1.135693455E1,5.796613097E-1
6.180711666E0,-1.160519004E0,-1.146999550E1,-4.283152521E-1
6.185488593E0,-9.332008660E-2,-1.183310604E1,-1.171884894E0
6.190252291E0,6.987041831E-1,-1.218245792E1,-1.094716311E0
6.195042552E0,1.333400369E0,-1.226859951E1,-7.621139884E-1
6.199819531E0,1.577468276E0,-1.239302635E1,-5.425725579E-1
6.204583125E0,1.828116536E0,-1.246481133E1,-1.208375469E-1
6.209373437E0,2.030309916E0,-1.236371422E1,3.960121572E-1
6.214150364E0,2.451446772E0,-1.236730385E1,7.531409264E-1
6.218914010E0,2.984447956E0,-1.233260822E1,1.518844128E0
6.223704270E0,3.242274761E0,-1.208614731E1,1.872383714E0
6.228481250E0,3.315854073E0,-1.161894894E1,1.741974831E0
6.233244895E0,2.655434847E0,-1.089272690E1,1.524227977E0
6.238035156E0,1.385444283E0,-1.000498962E1,1.213759303E0
6.242812135E0,1.286142170E-1,-8.928219795E0,8.877372146E-1
6.247575781E0,-7.704889178E-1,-7.817949772E0,6.807580590E-1
6.252366041E0,-1.235892892E0,-6.860222340E0,5.814558864E-1
6.257143020E0,-1.572084427E0,-5.998208046E0,4.725824594E-1
6.261906614E0,-1.960918188E0,-5.132006168E0,3.924229145E-1
6.266696927E0,-2.234298229E0,-4.342374802E0,3.978067636E-1
6.271473854E0,-2.435893536E0,-3.601198196E0,5.234299302E-1
6.276237500E0,-2.607578516E0,-2.931805849E0,8.015955687E-1
6.281027760E0,-2.745165825E0,-2.344966173E0,1.143171072E0
6.285804739E0,-2.926422119E0,-1.791027784E0,1.465005636E0
6.290568385E0,-3.150151014E0,-1.223330617E0,1.758724689E0
6.295358645E0,-3.316452265E0,-6.406782866E-1,2.023131609E0
6.300135625E0,-3.497708559E0,-8.255238086E-2,2.210968018E0
6.304899270E0,-3.628715515E0,5.964110494E-1,2.225923300E0
6.309689531E0,-3.479164124E0,1.160519004E0,2.061416626E0
6.314466510E0,-3.129812002E0,1.624128342E0,1.900499344E0
6.319230156E0,-2.831307411E0,1.856232166E0,1.779063582E0
6.324020416E0,-2.565105915E0,1.904686809E0,1.719841242E0
6.328797343E0,-2.149951220E0,1.852642894E0,1.933400750E0
6.333560989E0,-1.900499344E0,1.631905079E0,1.404586911E0
6.338351250E0,-1.637288928E0,1.353141189E0,1.436890006E0
6.343128177E0,-1.359721422E0,9.343972206E-1,1.474576950E0
6.347905208E0,-1.058225870E0,4.390829504E-1,1.607378602E0
6.352682135E0,-8.889335990E-1,-7.597211748E-2,1.746162295E0
6.357459114E0,-8.057830334E-1,-5.623133183E-1,1.861017823E0
6.362236041E0,-6.765705943E-1,-9.714859724E-1,1.846062660E0
6.367013020E0,-5.036891699E-1,-1.342373490E0,1.744965911E0
6.371789947E0,-2.943171859E-1,-1.698305845E0,1.600200176E0
6.376553593E0,-2.087737769E-1,-1.967498422E0,1.460818172E0
6.381343906E0,-1.896311939E-1,-2.213361025E0,1.350748420E0
6.386120833E0,-4.037888348E-1,-2.449652195E0,1.251446247E0
6.390884479E0,-1.121635556E0,-2.779263496E0,1.121037364E0
6.395674739E0,-1.582852125E0,-3.242274761E0,9.457631707E-1
6.400451718E0,-1.526022673E0,-3.738785267E0,6.143572330E-1
6.405215364E0,-1.284347534E0,-4.296313286E0,2.297109663E-1
6.410005625E0,-9.900303483E-1,-4.970490932E0,-2.608176768E-1
6.414782604E0,-8.763712645E-1,-5.793622017E0,-8.123632669E-1
6.419546197E0,-7.974081635E-1,-6.785446644E0,-1.613958836E0
6.424336510E0,-5.676971674E-1,-8.075776100E0,-2.962314367E0
6.429113489E0,-3.786641955E-1,-9.856635094E0,-4.910670280E0
6.433877135E0,3.415754437E-1,-1.213220882E1,-8.094919205E0
6.438667395E0,1.432104349E0,-1.510469341E1,-1.258086300E1
6.443444322E0,2.480758905E0,-1.892962074E1,-1.824168396E1
6.448207968E0,3.959523201E0,-2.380918312E1,-2.417229462E1
6.452998281E0,5.733202934E0,-3.123112106E1,-2.904707146E1
6.457775208E0,9.798010826E0,-4.279742813E1,-3.183949661E1
6.462538854E0,1.328734398E1,-5.323073196E1,-2.839502716E1
6.467329114E0,7.212565422E0,-5.390431213E1,-2.078525352E1
6.472106093E0,2.201396823E-1,-4.472245407E1,-1.251027489E1
6.476869687E0,2.404786795E-1,-3.300838852E1,-7.628318787E0
6.481660000E0,9.146564603E-1,-2.343410873E1,-5.910870075E0
6.486436979E0,8.464609981E-1,-1.661755562E1,-5.713462353E0
6.491200572E0,4.372883439E-1,-1.163689518E1,-6.099305153E0
6.495990833E0,-3.349951804E-1,-7.393822193E0,-6.582654953E0
6.500767812E0,-1.055234790E0,-3.705285788E0,-6.456433773E0
6.505531458E0,-1.153938770E0,-4.348955154E-1,-5.273182869E0
6.510321718E0,-1.100100160E0,2.319841623E0,-3.518645763E0
6.515098697E0,-9.188438654E-1,4.237090588E0,-1.597209096E0
6.519862343E0,-1.076770186E0,5.103292465E0,2.273181528E-1
6.524652604E0,-1.612164259E0,5.168497086E0,2.159522533E0
6.529429583E0,-1.816152334E0,4.710271358E0,2.817548752E0
6.534193229E0,-1.633699656E0,3.799802303E0,3.307479143E0
6.538983489E0,-1.272383451E0,2.345564365E0,3.320639610E0
6.543760468E0,-9.236295223E-1,7.184450030E-1,2.772683144E0
6.548524114E0,-8.291130662E-1,-8.081758618E-1,1.856830359E0
6.553314375E0,-6.239284873E-1,-2.407179594E0,1.007378340E0
6.558091354E0,-1.513460279E-1,-4.149154663E0,4.109672904E-1
6.562855000E0,5.054838061E-1,-6.132804394E0,1.501496136E-1
6.567645208E0,8.691928387E-1,-8.381459236E0,2.512463741E-2
6.572422187E0,9.583254457E-1,-1.113739300E1,-5.503492057E-2
6.577185885E0,9.625129104E-1,-1.441795254E1,-2.931207716E-1
6.581976145E0,9.290133715E-1,-1.820938110E1,-7.555337548E-1
6.586753072E0,7.292127013E-1,-2.286820602E1,-1.677966833E0
6.591516718E0,-1.226321608E-1,-2.831367302E1,-3.056232691E0
6.596306979E0,-1.356730461E0,-3.388536072E1,-5.569892883E0
6.601083958E0,-1.599003673E0,-3.775694656E1,-9.899705887E0
6.605847604E0,-2.300698996E0,-3.732444382E1,-1.242054367E1
6.610637864E0,-3.427718401E0,-3.118565750E1,-8.282755852E0
6.615414843E0,-4.248456478E0,-2.295255280E1,-1.891526341E0
6.620178489E0,-5.288137913E0,-1.559522152E1,2.384447813E0
6.624968750E0,-5.973083496E0,-9.994820595E0,3.814159393E0
6.629745729E0,-5.760720730E0,-5.870192051E0,3.340380430E0
6.634509375E0,-4.898108006E0,-2.981456995E0,1.984846354E0
6.639299635E0,-3.859622955E0,-1.046859860E0,8.500502706E-1
6.644076614E0,-3.336193085E0,4.103690982E-1,1.752742529E-1
6.648840260E0,-4.065405846E0,1.435095429E0,-2.877369225E-1
6.653630468E0,-5.943771362E0,1.979462504E0,-6.765705943E-1
6.658407447E0,-7.709076405E0,2.057229280E0,-6.628118753E-1
6.663171093E0,-8.618947029E0,1.684547186E0,-1.041476011E0
6.667961406E0,-8.781659126E0,1.225723386E0,-1.386042476E0
6.672738333E0,-8.641678810E0,8.075776696E-1,-1.290329576E0
6.677501979E0,-8.398807526E0,3.984049559E-1,-7.345965505E-1
6.682292239E0,-8.192426682E0,-7.896314561E-2,1.142572835E-1
6.687069218E0,-8.015357971E0,-7.286145091E-1,7.322037220E-1
6.691832864E0,-7.222734928E0,-1.546361685E0,1.458425403E0
6.696623125E0,-6.193821430E0,-2.425724030E0,2.005185366E0
6.701400104E0,-5.665606022E0,-3.503690481E0,2.320439816E0
6.706163750E0,-5.566303730E0,-4.688735962E0,2.354537487E0
6.710954010E0,-5.661418438E0,-5.869594097E0,2.499901533E0
6.715730937E0,-5.885147095E0,-7.064808846E0,2.626721144E0
6.720494583E0,-6.189633846E0,-8.158926964E0,2.724826813E0
6.725284895E0,-6.376274109E0,-9.349954605E0,2.836691141E0
6.730061822E0,-6.357729912E0,-1.046740246E1,2.909672260E0
6.734825468E0,-6.063412666E0,-1.156989574E1,2.913261652E0
6.739615781E0,-5.504090309E0,-1.258983612E1,2.858824968E0
6.744392708E0,-4.646263599E0,-1.361874962E1,2.514258385E0
6.749156354E0,-3.713062525E0,-1.462313747E1,2.155334949E0
6.753946614E0,-2.630908489E0,-1.558864117E1,1.929213285E0
6.758723593E0,-1.258624673E0,-1.656311798E1,1.822134495E0
6.763487239E0,1.674975902E-1,-1.732583046E1,1.997408748E0
6.768277500E0,1.171884894E0,-1.754058647E1,2.745764017E0
6.773054479E0,1.432702541E0,-1.741496277E1,3.445066452E0
6.777818125E0,1.272981644E0,-1.696810341E1,4.016352654E0
6.782608385E0,1.295713425E0,-1.636571121E1,4.212564468E0
6.787385312E0,1.504487276E0,-1.582553101E1,4.412963390E0
6.792149010E0,2.011765718E0,-1.528475285E1,4.400400639E0
6.796939270E0,2.731407166E0,-1.464706516E1,4.199403763E0
6.801716250E0,3.534797192E0,-1.381615829E1,3.667000771E0
6.806479895E0,4.215555191E0,-1.277827072E1,2.750549555E0
6.811270156E0,4.562514782E0,-1.168355465E1,1.725823283E0
6.816047083E0,4.686343193E0,-1.068993473E1,6.496513486E-1
6.820810729E0,4.663012981E0,-9.860821724E0,-3.732803464E-1
6.825601041E0,4.484149456E0,-9.235098839E0,-1.283749342E0
6.830377968E0,4.221537113E0,-8.738588333E0,-1.978864312E0
6.835141614E0,3.884747505E0,-8.373085022E0,-2.486740828E0
6.839931875E0,3.477369547E0,-8.137989998E0,-2.782254457E0
6.844708854E0,3.056830883E0,-7.893323898E0,-2.914458036E0
6.849472500E0,2.531606436E0,-7.624729156E0,-3.046063185E0
6.854262760E0,2.056032896E0,-7.438089371E0,-2.991028309E0
6.859039739E0,1.608574986E0,-7.289734364E0,-2.921636343E0
6.863803385E0,1.119242787E0,-7.185048103E0,-2.794218540E0
6.868593645E0,6.586244106E-1,-7.099504948E0,-2.629113913E0
6.873370625E0,2.638086975E-1,-7.047461033E0,-2.464009047E0
6.878134270E0,-1.728814393E-1,-6.981060028E0,-2.370090723E0
6.882924531E0,-6.095715761E-1,-6.857231617E0,-2.146960020E0
6.887701510E0,-1.065404296E0,-6.786045074E0,-1.876571178E0
6.892465104E0,-1.324427366E0,-6.710072994E0,-1.476969719E0
6.897255416E0,-1.563709617E0,-6.634100914E0,-8.901300430E-1
6.902032343E0,-1.615753531E0,-6.590431690E0,-2.572284266E-2
6.906796041E0,-1.518245935E0,-6.479763508E0,1.216750264E0
6.911586302E0,-1.211964726E0,-6.378666878E0,2.376072884E0
6.916363281E0,-6.556333899E-1,-6.339185238E0,3.203989506E0
6.921126875E0,2.650051117E-1,-6.443273067E0,3.553939819E0
6.925917187E0,1.135992527E0,-6.672386169E0,3.439084291E0
6.930694114E0,1.686939955E0,-6.950551510E0,3.056830883E0
6.935457760E0,1.980060697E0,-7.262216568E0,2.595614433E0
6.940248020E0,1.945364833E0,-7.555935860E0,2.202593327E0
6.945025000E0,1.682154298E0,-7.773682594E0,1.867598057E0
6.949801979E0,1.357328653E0,-7.986045361E0,1.538584948E0
6.954578958E0,9.888339639E-1,-8.227720261E0,1.085145116E0
6.959355885E0,6.245267391E-1,-8.512466431E0,4.295116663E-1
6.964119531E0,3.517449200E-1,-8.893523216E0,-7.878368497E-1
6.968909791E0,1.076770201E-1,-9.374481201E0,-2.835494757E0
6.973686770E0,-2.362912297E-1,-9.908679008E0,-5.760720730E0
6.978450416E0,-7.381857634E-1,-1.036630630E1,-9.405587196E0
6.983240677E0,-1.233500123E0,-1.060738277E1,-1.200838089E1
6.988017656E0,-1.454237938E0,-1.047278690E1,-1.230927753E1
6.992781302E0,-1.400399446E0,-1.012164021E1,-1.111525917E1
6.997571562E0,-1.041476011E0,-9.707083702E0,-8.938388824E0
7.002348541E0,-3.888336718E-1,-9.355338097E0,-6.264409542E0
7.007112135E0,3.302095234E-1,-9.123234749E0,-3.672384501E0
7.011902447E0,9.708877802E-1,-9.031110764E0,-1.501496196E0
7.016679427E0,1.451845169E0,-9.078967094E0,1.232303679E-1
7.021443072E0,1.711466432E0,-9.391828537E0,1.125224829E0
7.026233333E0,1.853839397E0,-9.989436150E0,1.513460279E0
7.031010260E0,2.127817631E0,-1.068215847E1,1.651645780E0
7.035773958E0,2.387438774E0,-1.133719349E1,1.780260086E0
7.040564218E0,2.646461725E0,-1.191446209E1,1.826920033E0
7.045341197E0,2.909672260E0,-1.238166046E1,1.787438512E0
7.050104791E0,3.204587698E0,-1.270349503E1,1.618744493E0
7.054895104E0,3.532404423E0,-1.288056469E1,1.410568953E0
7.059672031E0,3.821337700E0,-1.293260860E1,1.207777262E0
7.064435729E0,4.048655987E0,-1.286919880E1,9.954141974E-1
7.069225989E0,4.156332970E0,-1.271486092E1,7.830511928E-1
7.074002916E0,4.240081787E0,-1.250309658E1,6.293123364E-1
7.078766614E0,4.281956196E0,-1.233918858E1,5.904290080E-1
7.083556822E0,4.268197536E0,-1.220818138E1,7.052844763E-1
7.088333802E0,4.093521118E0,-1.209811115E1,9.948160052E-1
7.093110781E0,3.799802303E0,-1.208435249E1,1.278963685E0
7.097887760E0,3.501895905E0,-1.217707443E1,1.511067510E0
7.102664687E0,3.089133978E0,-1.233739376E1,1.556531072E0
7.107441666E0,2.404188633E0,-1.253181076E1,1.564906001E0
7.112218593E0,1.725225091E0,-1.271665573E1,1.625923038E0
7.116995572E0,1.040279627E0,-1.285304642E1,1.576870084E0
7.121759218E0,5.593222976E-1,-1.296491146E1,1.406979680E0
7.126549479E0,4.247260094E-2,-1.300439262E1,9.876375198E-1
7.131326458E0,-5.748756528E-1,-1.298166084E1,3.044866920E-1
7.136090104E0,-1.060618639E0,-1.292423344E1,-4.707878530E-1
7.140880364E0,-1.527817249E0,-1.283868980E1,-1.423729420E0
7.145657343E0,-1.816750646E0,-1.276630688E1,-2.598007202E0
7.150420989E0,-1.833500385E0,-1.274656582E1,-3.869194269E0
7.155211250E0,-1.363310695E0,-1.281236839E1,-4.826921463E0
7.159988229E0,-2.045863420E-1,-1.291047478E1,-5.221138954E0
7.164751875E0,1.200598717E0,-1.301336575E1,-4.969892502E0
7.169542135E0,2.419143677E0,-1.314078331E1,-4.140779495E0
7.174319062E0,3.497708559E0,-1.328794193E1,-2.965903759E0
7.179082760E0,4.426123619E0,-1.336391449E1,-2.077568293E0
7.183873020E0,5.089533806E0,-1.323649693E1,-1.673779488E0
7.188650000E0,5.417350292E0,-1.287936783E1,-1.579262972E0
7.193413645E0,5.472983360E0,-1.246540928E1,-1.541576028E0
7.198203906E0,5.553143024E0,-1.213220882E1,-1.546959877E0
7.202980833E0,5.641677380E0,-1.185284710E1,-1.619940877E0
7.207744479E0,5.525625706E0,-1.165065384E1,-1.854437590E0
7.212534791E0,5.158327579E0,-1.148255730E1,-1.991426587E0
7.217311770E0,4.524827480E0,-1.124865913E1,-1.911865234E0
7.222088697E0,3.696911097E0,-1.100937653E1,-1.807179332E0
7.226865677E0,2.936591625E0,-1.080419254E1,-1.610967875E0
7.231642604E0,2.255833626E0,-1.059900761E1,-7.776673436E-1
7.236406250E0,1.657627940E0,-1.029751205E1,3.918247223E-1
7.241196510E0,9.014959335E-1,-1.013599682E1,1.297508121E0
7.245973489E0,-5.682953820E-2,-1.016770172E1,1.801795483E0
7.250737135E0,-1.023529887E0,-1.029990482E1,2.377867460E0
7.255527447E0,-1.856830359E0,-1.067797089E1,2.852842808E0
7.260304375E0,-2.400001049E0,-1.140239811E1,3.105285645E0
7.265068072E0,-2.691925526E0,-1.241456223E1,3.045464993E0
7.269858281E0,-3.212962627E0,-1.357687569E1,2.804388046E0
7.274635260E0,-4.124628067E0,-1.467757416E1,2.589034081E0
7.279398958E0,-5.165505886E0,-1.547916985E1,2.288136721E0
7.284189218E0,-6.500700951E0,-1.607498169E1,1.469791293E0
7.288966145E0,-7.699504852E0,-1.651107407E1,4.444667995E-1
7.293729791E0,-8.757132530E0,-1.678804398E1,-6.825526357E-1
7.298520052E0,-9.695717812E0,-1.694836235E1,-1.829312921E0
7.303297031E0,-1.004327488E1,-1.696810341E1,-2.600399971E0
7.308060677E0,-9.839884758E0,-1.652423477E1,-2.606382132E0
7.312850989E0,-8.973683357E0,-1.588654804E1,-2.227119684E0
7.317627916E0,-8.048856735E0,-1.517109394E1,-2.337787628E0
7.322391562E0,-6.991827965E0,-1.472602844E1,-2.007578135E0
7.327181875E0,-5.889933109E0,-1.421276855E1,-4.642075896E-1
7.331958802E0,-4.941776752E0,-1.322812176E1,1.114457130E0
7.336722447E0,-4.037888050E0,-1.237388420E1,1.636690736E0
7.341512760E0,-3.087339401E0,-1.158126163E1,1.070189953E0
7.346289687E0,-1.868196249E0,-1.109551907E1,-5.982056633E-2
7.351053333E0,-1.210170031E0,-1.097767162E1,-1.296311617E0
7.355843645E0,-4.875376225E-1,-1.106201935E1,-3.109472990E0
7.360620572E0,3.864408433E-1,-1.119482040E1,-4.135993958E0
7.365384218E0,9.529415965E-1,-1.133779144E1,-4.115056515E0
7.370174479E0,1.433300734E0,-1.152024460E1,-3.455235958E0
7.374951458E0,2.332403898E0,-1.159023476E1,-2.701496840E0
7.379715104E0,2.864208698E0,-1.162373447E1,-1.461416483E0
7.384505416E0,3.069393158E0,-1.178285694E1,1.740778536E-1
7.389282343E0,3.332603693E0,-1.172004509E1,1.243071318E0
7.394045989E0,3.449253798E0,-1.159442234E1,1.731805444E0
7.398836250E0,3.050250769E0,-1.114816093E1,2.021337032E0
7.403613229E0,2.583052158E0,-1.047936630E1,2.335394859E0
7.408376875E0,2.402992249E0,-1.005583763E1,2.609373093E0
7.413167135E0,2.072782516E0,-9.430113792E0,2.596212626E0
7.417944114E0,1.153340459E0,-8.622536659E0,2.135594130E0
7.422707760E0,3.439682424E-1,-7.796414375E0,1.711466432E0
7.427498072E0,-1.268195957E-1,-6.954140663E0,1.372882009E0
7.432275000E0,-5.832505226E-1,-6.150152206E0,1.004985452E0
7.437038645E0,-9.649057388E-1,-5.355735302E0,5.647061467E-1
7.441828958E0,-1.292722464E0,-4.557130814E0,2.015953064E-1
7.446605885E0,-1.699502230E0,-3.878765583E0,1.501496136E-1
7.451369531E0,-2.109871387E0,-3.263211966E0,3.822534084E-1
7.456159791E0,-2.484348059E0,-2.753540754E0,8.105686903E-1
7.460936770E0,-2.839682341E0,-2.282752752E0,1.302293777E0
7.465700416E0,-3.071786165E0,-1.825125456E0,1.749153376E0
7.470490677E0,-3.308675528E0,-1.344766378E0,2.148754835E0
7.475267656E0,-3.637688637E0,-7.525427341E-1,2.380260229E0
7.480031302E0,-3.857230186E0,-1.226321608E-1,2.500499725E0
7.484821614E0,-3.997210264E0,4.462614357E-1,2.510669231E0
7.489598541E0,-4.113860130E0,9.224331379E-1,2.448455811E0
7.494362187E0,-4.172484398E0,1.346560955E0,2.362314224E0
7.499152447E0,-3.902095556E0,1.612164259E0,2.303091764E0
7.503929427E0,-3.394817114E0,1.709671736E0,2.156531334E0
7.508693072E0,-2.930011272E0,1.682154298E0,1.947159410E0
7.513483385E0,-2.473580360E0,1.591825247E0,1.772483349E0
7.518260312E0,-2.078764677E0,1.429113269E0,1.664806366E0
7.523023958E0,-1.668993831E0,1.169492126E0,1.648654819E0
7.527814270E0,-1.211366415E0,8.626125455E-1,1.660618901E0
7.532591197E0,-1.001396298E0,5.449653864E-1,1.626521230E0
7.537354843E0,-8.482556343E-1,1.411765367E-1,1.548754454E0
7.542145104E0,-6.143572330E-1,-2.967100143E-1,1.370489120E0
7.546922083E0,-3.337987661E-1,-6.909275651E-1,1.158126116E0
7.551699062E0,-4.007977843E-1,-1.043270707E0,9.290133715E-1
7.556475989E0,-6.867401004E-1,-1.395613790E0,7.238288522E-1
7.561252968E0,-1.270588875E0,-1.844268084E0,6.358926296E-1
7.566016614E0,-1.734796405E0,-2.443071842E0,6.293123364E-1
7.570806927E0,-1.824527264E0,-3.088535786E0,4.959124923E-1
7.575583854E0,-1.742573142E0,-3.763311863E0,2.273181528E-1
7.580347500E0,-1.561316729E0,-4.548157692E0,-1.136590764E-1
7.585137812E0,-1.352542996E0,-5.408975601E0,-6.664010882E-1
7.589914739E0,-1.110269666E0,-6.487540245E0,-1.275972724E0
7.594678437E0,-7.070791125E-1,-7.850253105E0,-2.203789711E0
7.599468645E0,-2.931207716E-1,-9.534201622E0,-3.913461447E0
7.604245625E0,2.542374134E-1,-1.166142082E1,-6.563512325E0
7.609009270E0,1.258026481E0,-1.449990654E1,-1.042552853E1
7.613799583E0,2.815753937E0,-1.820818329E1,-1.530150223E1
7.618576510E0,4.473979950E0,-2.349632263E1,-2.074876404E1
7.623340208E0,5.169095039E0,-3.176831055E1,-2.827179718E1
7.628130468E0,7.384849072E0,-4.571547318E1,-3.673880005E1
7.632907395E0,1.093759251E1,-5.718965912E1,-3.436392593E1
7.637671093E0,4.524229527E0,-5.720401382E1,-2.574497795E1
7.642461354E0,-1.276570916E0,-4.700819778E1,-1.655594063E1
7.647238281E0,-9.212367237E-2,-3.367718506E1,-1.112004471E1
7.652001979E0,7.908278704E-1,-2.349153709E1,-8.377271652E0
7.656792239E0,7.118647099E-1,-1.615035629E1,-6.461817741E0
7.661569218E0,2.638086975E-1,-1.064985561E1,-5.210969448E0
7.666332812E0,-3.326023519E-1,-6.046064377E0,-4.630111694E0
7.671123125E0,-9.708877802E-1,-1.894517303E0,-4.106681824E0
7.675900052E0,-6.999006271E-1,1.101894855E0,-3.327818155E0
7.680663750E0,-4.097708762E-1,3.111267567E0,-2.332403898E0
7.685453958E0,-3.487538993E-1,4.648057938E0,-7.938188910E-1
7.690230937E0,-2.925225794E-1,5.615356445E0,1.125224829E0
7.694994635E0,-2.793620527E-1,6.269793510E0,2.866003275E0
7.699784895E0,-4.007977992E-2,6.400202274E0,3.181855917E0
7.704561822E0,1.154536903E-1,5.682355404E0,3.369094372E0
7.709325520E0,7.088736892E-1,4.262813568E0,3.856033802E0
7.714115781E0,9.756734371E-1,2.683550596E0,3.894318819E0
7.718892760E0,1.177866936E0,1.118046403E0,3.510270834E0
7.723656406E0,1.378864050E0,-3.696911037E-1,2.953341246E0
7.728446666E0,1.610369682E0,-1.905883193E0,2.588435888E0
7.733223645E0,2.046461582E0,-3.509074450E0,2.275574446E0
7.737987291E0,2.492722988E0,-5.425127029E0,1.904686809E0
7.742777552E0,2.746362209E0,-7.674380302E0,1.636690736E0
7.747554531E0,2.950948477E0,-1.045424175E1,1.743171334E0
7.752318177E0,2.832503796E0,-1.377847099E1,1.621137381E0
7.757108437E0,2.115853310E0,-1.760997772E1,6.628118753E-1
7.761885416E0,1.328016520E0,-2.308954239E1,1.194018483E0
7.766649062E0,2.590230405E-1,-3.026681328E1,2.375474691E0
7.771439322E0,-1.804786444E0,-3.778326797E1,-6.913462639E0
7.776216302E0,-3.728017569E0,-4.406741714E1,-2.390250397E1
7.780979947E0,-7.488936901E0,-4.320420837E1,-2.370090866E1
7.785770208E0,-8.813364029E0,-3.680460358E1,-1.283868980E1
7.790547187E0,-8.501100540E0,-2.776093102E1,-1.957328916E0
7.795310833E0,-7.389036179E0,-1.927239227E1,3.078964472E0
7.800101093E0,-5.557330608E0,-1.259103298E1,4.283750534E0
7.804878072E0,-3.659224033E0,-7.392027378E0,3.900899172E0
7.809641718E0,-2.330609322E0,-3.640679598E0,2.974876642E0
7.814432031E0,-1.530210137E0,-1.070788145E0,2.115255117E0
7.819208958E0,-1.341177106E0,9.972088337E-1,1.430907965E0
7.823972604E0,-2.732005358E0,2.776870728E0,5.922235847E-1
7.828762864E0,-5.189434052E0,3.705883980E0,-5.742774159E-2
7.833539843E0,-7.000202656E0,3.672982693E0,-6.197410822E-1
7.838303489E0,-7.810771465E0,3.078366280E0,-1.190429211E0
7.843093750E0,-8.100900650E0,2.403590441E0,-1.572682738E0
7.847870729E0,-8.091927528E0,1.777269006E0,-1.197607756E0
7.852634427E0,-8.001599312E0,1.112064362E0,-7.561319470E-1
7.857424635E0,-7.818548203E0,4.809573591E-1,1.166501045E-1
7.862201614E0,-7.405786037E0,-2.943171859E-1,1.055832982E0
7.866965312E0,-6.831508636E0,-1.141376376E0,1.864008784E0
7.871755572E0,-6.291927338E0,-2.190629244E0,2.533999205E0
7.876532552E0,-6.184848309E0,-3.399602890E0,2.922832966E0
7.881296197E0,-6.385845661E0,-4.758726120E0,2.934198856E0
7.886086458E0,-6.736992359E0,-6.195017815E0,2.999403238E0
7.890863437E0,-7.245467186E0,-7.674978733E0,3.137588739E0
7.895627083E0,-7.925028801E0,-9.218947411E0,3.257827997E0
7.900417343E0,-8.276175499E0,-1.079940701E1,3.284747362E0
7.905194322E0,-7.981858253E0,-1.232184029E1,3.169293642E0
7.909957968E0,-7.156334400E0,-1.368275833E1,2.815155745E0
7.914748229E0,-6.107679844E0,-1.517827225E1,2.374278307E0
7.919525156E0,-4.969892502E0,-1.650509262E1,1.740180254E0
7.924288854E0,-3.694518089E0,-1.746999741E1,1.307677627E0
7.929079114E0,-2.199003935E0,-1.823270988E1,1.156331539E0
7.933856093E0,-4.187439680E-1,-1.864726639E1,1.852642894E0
7.938619739E0,9.667003751E-1,-1.853899193E1,3.698107481E0
7.943410000E0,1.420738459E0,-1.808614922E1,5.057828903E0
7.948186979E0,1.315454245E0,-1.732942009E1,5.394020557E0
7.952950625E0,1.317248821E0,-1.648176193E1,5.359324455E0
7.957740885E0,1.676172256E0,-1.576810265E1,5.213362217E0
7.962517864E0,2.289931297E0,-1.505324745E1,4.844867706E0
7.967281510E0,3.000001431E0,-1.420319748E1,4.677968502E0
7.972071822E0,3.846462488E0,-1.329033470E1,4.380061626E0
7.976848750E0,4.477569580E0,-1.232064342E1,3.818944931E0
7.981612395E0,4.810171604E0,-1.126899815E1,2.775076151E0
7.986402656E0,4.913661480E0,-1.024666500E1,1.526620865E0
7.991179635E0,4.780261517E0,-9.393623352E0,3.649054468E-1
7.995943281E0,4.486542225E0,-8.637491226E0,-6.035895348E-1
8.000733593E0,4.226921082E0,-8.040482521E0,-1.485344648E0
8.005510520E0,3.978665829E0,-7.611568928E0,-2.228316069E0
8.010274166E0,3.636492252E0,-7.332805157E0,-2.749951363E0
8.015064479E0,3.305684566E0,-7.083353043E0,-3.055036306E0
8.019841406E0,2.956332445E0,-6.814160824E0,-3.274577856E0
8.024605104E0,2.474178553E0,-6.627520561E0,-3.396611691E0
8.029395364E0,1.869392633E0,-6.513263226E0,-3.460619688E0
8.034172343E0,1.227517962E0,-6.457031727E0,-3.366103172E0
8.038935989E0,7.196413875E-1,-6.439085960E0,-3.147758245E0
8.043726250E0,2.255235314E-1,-6.377470493E0,-2.967698336E0
8.048503229E0,-3.062812984E-1,-6.287739754E0,-2.763710260E0
8.053266875E0,-7.142575383E-1,-6.273981094E0,-2.507678032E0
8.058057135E0,-1.073779106E0,-6.217151642E0,-2.226521492E0
8.062834114E0,-1.381256819E0,-6.112465382E0,-1.861017823E0
8.067597760E0,-1.591825247E0,-6.045466423E0,-1.254437327E0
8.072388020E0,-1.630110383E0,-6.012565136E0,-4.869394004E-1
8.077165000E0,-1.514656782E0,-6.031707764E0,4.480560422E-1
8.081928645E0,-1.255633712E0,-6.118447304E0,1.593619823E0
8.086718906E0,-7.914260626E-1,-6.122634888E0,2.819941521E0
8.091495885E0,2.297109663E-1,-6.216553211E0,3.314059258E0
8.096259531E0,1.243669510E0,-6.460022926E0,3.232105255E0
8.101049843E0,1.565504193E0,-6.738786697E0,2.866003275E0
8.105826770E0,1.493121386E0,-7.042077065E0,2.468196630E0
8.110603750E0,1.263410330E0,-7.331608772E0,2.143370867E0
8.115380729E0,1.010369420E0,-7.591827869E0,1.837089539E0
8.120157656E0,8.763712645E-1,-7.901100159E0,1.550549030E0
8.124934635E0,8.560323119E-1,-8.257032394E0,1.119242787E0
8.129711614E0,8.243274093E-1,-8.636893272E0,3.326023519E-1
8.134488593E0,7.507480979E-1,-9.065806389E0,-1.034297585E0
8.139252239E0,6.526423693E-1,-9.503094673E0,-3.284747362E0
8.144042500E0,5.605186820E-1,-9.916455269E0,-6.192026615E0
8.148819479E0,5.593222976E-1,-1.028614616E1,-8.941379547E0
8.153583125E0,5.533402562E-1,-1.056969547E1,-1.084666538E1
8.158373385E0,6.346961856E-1,-1.066122150E1,-1.078923702E1
8.163150364E0,7.716853023E-1,-1.057926750E1,-9.360123634E0
8.167914010E0,1.078564763E0,-1.042552853E1,-7.298109055E0
8.172704270E0,1.652842283E0,-1.024187946E1,-5.098506927E0
8.177481250E0,2.344367981E0,-1.005344391E1,-3.101098061E0
8.182244895E0,2.924627542E0,-9.990034103E0,-1.520638824E0
8.187035156E0,3.198605776E0,-1.009113121E1,-3.990031779E-1
8.191812135E0,3.160320520E0,-1.037109184E1,2.877369225E-1
8.196575781E0,3.230908871E0,-1.075155067E1,7.052844763E-1
8.201366093E0,3.429512978E0,-1.123310566E1,1.036092162E0
8.206143020E0,3.750749588E0,-1.173320580E1,1.240678549E0
8.210906666E0,4.195814610E0,-1.216092300E1,1.310668588E0
8.215696979E0,4.680959225E0,-1.254556942E1,1.207777262E0
8.220473906E0,5.023731232E0,-1.279502106E1,1.028913736E0
8.225237552E0,5.266004562E0,-1.295773315E1,8.638089895E-1
8.230027864E0,5.388636589E0,-1.299601841E1,7.387840152E-1
8.234804843E0,5.492724419E0,-1.290927792E1,6.705885530E-1
8.239568489E0,5.544768333E0,-1.273101330E1,7.471588850E-1
8.244358750E0,5.469394207E0,-1.251924801E1,9.397810698E-1
8.249135729E0,5.242076397E0,-1.234158134E1,1.195214868E0
8.253899375E0,4.862813950E0,-1.218844032E1,1.537388563E0
8.258689635E0,4.426722050E0,-1.211725426E1,1.856232166E0
8.263466614E0,3.947559118E0,-1.220518970E1,1.964507341E0
8.268230260E0,3.529413462E0,-1.239422321E1,2.000399828E0
8.273020520E0,3.107678413E0,-1.258325577E1,2.142174482E0
8.277797500E0,2.537588358E0,-1.271007538E1,2.270190477E0
8.282561145E0,1.929213285E0,-1.280279732E1,2.239681959E0
8.287351406E0,1.351944804E0,-1.284766293E1,2.016551256E0
8.292128385E0,6.460621357E-1,-1.279621696E1,1.655833244E0
8.296892031E0,-1.579262912E-1,-1.273519993E1,1.007378340E0
8.301682343E0,-1.092323542E0,-1.265982628E1,-9.571290575E-3
8.306459270E0,-1.842473388E0,-1.255514050E1,-1.258624673E0
8.311222968E0,-2.587239504E0,-1.250848007E1,-2.498106956E0
8.316013229E0,-2.876172781E0,-1.252283764E1,-3.811168194E0
8.320790208E0,-2.454437733E0,-1.260778236E1,-4.998606682E0
8.325553802E0,-1.005583763E0,-1.271486092E1,-5.385047436E0
8.330344114E0,9.732806087E-1,-1.286441231E1,-4.752744198E0
8.335121093E0,2.659024239E0,-1.294277763E1,-3.705883980E0
8.339884687E0,3.998406649E0,-1.296909904E1,-2.627917528E0
8.344675000E0,5.134997368E0,-1.292782211E1,-1.875374794E0
8.349451979E0,5.912066460E0,-1.280578899E1,-1.466800332E0
8.354215625E0,6.292525291E0,-1.266999626E1,-1.483550072E0
8.359005885E0,6.204588890E0,-1.250189972E1,-1.775474429E0
8.363782864E0,5.911468506E0,-1.248814106E1,-2.186441660E0
8.368546510E0,5.257629395E0,-1.247976685E1,-2.605783939E0
8.373336822E0,4.284348965E0,-1.240499115E1,-2.994617462E0
8.378113750E0,3.302693367E0,-1.231047440E1,-3.219542980E0
8.382890729E0,2.464607239E0,-1.209093285E1,-3.124428272E0
8.387667708E0,1.716252089E0,-1.173679543E1,-2.468196630E0
8.392444687E0,8.219345808E-1,-1.121456146E1,-1.412961721E0
8.397208333E0,-6.221338734E-2,-1.068215847E1,-1.651047617E-1
8.401998593E0,-1.113260746E0,-1.027537823E1,9.343972206E-1
8.406775572E0,-2.207378864E0,-1.013420200E1,1.817348838E0
8.411539218E0,-2.896511793E0,-1.027119160E1,2.680559635E0
8.416329479E0,-3.333800077E0,-1.075394344E1,3.230310678E0
8.421106458E0,-3.291925669E0,-1.169372463E1,3.340978622E0
8.425870104E0,-3.309273720E0,-1.272443295E1,3.062813044E0
8.430660364E0,-3.665804386E0,-1.386221981E1,2.495115757E0
8.435437343E0,-4.317848682E0,-1.484626770E1,1.932204247E0
8.440200989E0,-5.218746185E0,-1.548874092E1,1.333400369E0
8.444991302E0,-6.483353138E0,-1.581954861E1,5.048855543E-1
8.449768229E0,-7.726424217E0,-1.602892113E1,-6.113662124E-1
8.454531927E0,-8.541180611E0,-1.613659859E1,-1.615155339E0
8.459322187E0,-8.760722160E0,-1.608335686E1,-2.516052961E0
8.464099114E0,-8.533403397E0,-1.571187210E1,-3.256631613E0
8.468862812E0,-7.830512047E0,-1.520878029E1,-3.164507866E0
8.473653072E0,-6.884748936E0,-1.453221035E1,-3.025724173E0
8.478430052E0,-5.947360516E0,-1.400519085E1,-2.752942562E0
8.483206979E0,-4.785645485E0,-1.372343636E1,-1.684547186E0
8.487983958E0,-3.905684710E0,-1.317727470E1,9.152546525E-2
8.492760937E0,-2.982653379E0,-1.255932808E1,1.372283816E0
8.497524583E0,-2.169692039E0,-1.199342537E1,1.463809252E0
8.502314843E0,-1.232303619E0,-1.161535931E1,8.871390224E-1
8.507091822E0,-6.771687865E-1,-1.142572784E1,2.572284266E-2
8.511855468E0,-1.369891018E-1,-1.145743275E1,-1.147956610E0
8.516645781E0,8.668000102E-1,-1.171944714E1,-2.103291035E0
8.521422708E0,1.644467354E0,-1.185224915E1,-2.602194548E0
8.526186406E0,2.343171597E0,-1.198026466E1,-2.792423964E0
8.530976666E0,2.817548752E0,-1.215793228E1,-2.372483730E0
8.535753645E0,3.022135019E0,-1.214297676E1,-1.582253933E0
8.540517291E0,3.284149170E0,-1.213819122E1,-6.855437160E-1
8.545307552E0,3.815953970E0,-1.231585789E1,-6.460621208E-2
8.550084531E0,4.314857483E0,-1.232961655E1,4.845465720E-1
8.554848177E0,4.316651821E0,-1.198205948E1,9.888339639E-1
8.559638437E0,3.941577196E0,-1.132822037E1,1.426720500E0
8.564415416E0,3.680759430E0,-1.076530933E1,1.931007862E0
8.569179062E0,3.281756163E0,-1.027059269E1,2.254637241E0
8.573969375E0,2.564507723E0,-9.520442963E0,2.070987940E0
8.578746302E0,1.374078393E0,-8.679964066E0,1.630110383E0
8.583509947E0,3.326023519E-1,-7.858627796E0,1.337587833E0
8.588300260E0,-3.810569942E-1,-7.142575741E0,9.236295223E-1
8.593077239E0,-7.944171429E-1,-6.506682873E0,5.647061467E-1
8.597840885E0,-1.088734269E0,-5.852844238E0,2.398804724E-1
8.602631145E0,-1.325025558E0,-5.178666592E0,5.383851007E-3
8.607408125E0,-1.560120344E0,-4.538586140E0,2.512463741E-2
8.612171770E0,-1.951346874E0,-3.942175388E0,2.620140910E-1
8.616962031E0,-2.321038008E0,-3.442075491E0,7.381857634E-1
8.621739010E0,-2.737389088E0,-2.922832966E0,1.292124271E0
8.626502656E0,-3.098705292E0,-2.360519648E0,1.706082582E0
8.631292968E0,-3.407977581E0,-1.783251047E0,2.014756680E0
8.636069895E0,-3.674777269E0,-1.244267821E0,2.251047850E0
8.640833541E0,-3.818346739E0,-7.046862841E-1,2.337787628E0
8.645623854E0,-3.872185230E0,-1.944168359E-1,2.356930256E0
8.650400833E0,-3.798007727E0,2.590230405E-1,2.341975212E0
8.655164479E0,-3.680759430E0,5.964110494E-1,2.249851465E0
8.659954739E0,-3.415754318E0,7.220342159E-1,2.114058733E0
8.664731718E0,-2.998206854E0,7.088736892E-1,1.943570137E0
8.669495364E0,-2.556132793E0,5.653043389E-1,1.764108539E0
8.674285625E0,-2.127817631E0,3.595215976E-1,1.632503271E0
8.679062604E0,-1.737189293E0,1.142572835E-1,1.558325768E0
8.683839583E0,-1.341775298E0,-1.836491376E-1,1.527817249E0
8.688616562E0,-1.188634634E0,-3.996013701E-1,1.555932879E0
8.693393489E0,-1.073779106E0,-6.693921089E-1,1.579262972E0
8.698170468E0,-8.781659007E-1,-9.379864931E-1,1.545165181E0
8.702947447E0,-7.160521746E-1,-1.169492126E0,1.414756417E0
8.707724427E0,-5.688936114E-1,-1.361516118E0,1.256231904E0
8.712501354E0,-5.922235847E-1,-1.558923960E0,1.150947690E0
8.717278333E0,-7.022934556E-1,-1.785643935E0,1.060618639E0
8.722055312E0,-8.871390224E-1,-2.026720762E0,1.042074203E0
8.726832291E0,-1.147358418E0,-2.360519648E0,1.048654556E0
8.731609218E0,-1.554736495E0,-2.881556749E0,1.031904817E0
8.736386197E0,-1.786840320E0,-3.561716557E0,9.080761671E-1
8.741149843E0,-1.733600020E0,-4.298107624E0,6.161518097E-1
8.745940156E0,-1.485942841E0,-5.140381336E0,2.075773627E-1
8.750717083E0,-1.057627559E0,-6.064010620E0,-2.213360965E-1
8.755480781E0,-6.053841114E-1,-7.195217609E0,-8.608179688E-1
8.760271041E0,-3.266202807E-1,-8.508877754E0,-1.811964989E0
8.765048020E0,-1.016949639E-1,-1.017009449E1,-3.236890793E0
8.769811666E0,5.665007830E-1,-1.226800156E1,-5.686542988E0
8.774601927E0,1.416550994E0,-1.484626770E1,-9.547960281E0
8.779378906E0,2.633899450E0,-1.812682724E1,-1.451366615E1
8.784142552E0,4.152743816E0,-2.243271255E1,-2.062792587E1
8.788932812E0,5.592026711E0,-2.912663269E1,-2.925883675E1
8.793709791E0,1.051884842E1,-4.047639084E1,-3.640380478E1
8.798473437E0,1.835294914E1,-5.117888641E1,-3.139742279E1
8.803263750E0,1.379641724E1,-5.220660400E1,-2.083012009E1
8.808040677E0,2.944368362E0,-4.419603348E1,-1.260658646E1
8.812804375E0,7.160521746E-1,-3.310290527E1,-8.586046219E0
8.817594635E0,1.511067510E0,-2.368296242E1,-7.363313675E0
8.822371614E0,1.649253011E0,-1.693340683E1,-6.864409924E0
8.827135260E0,1.116850019E0,-1.193839073E1,-6.481558323E0
8.831925520E0,4.360919297E-1,-7.990232944E0,-5.991627693E0
8.836702500E0,-8.315058947E-1,-4.592424870E0,-5.300700188E0
8.841466145E0,-1.475773335E0,-1.414756417E0,-3.975076675E0
8.846256458E0,-1.917847395E0,1.667199135E0,-2.218146563E0
8.851033385E0,-2.074577332E0,3.747758389E0,-1.081555843E0
8.855797083E0,-2.276770830E0,5.013561726E0,-6.580262445E-3
8.860587343E0,-2.292324066E0,5.769693375E0,1.720439434E0
8.865364322E0,-1.773679733E0,6.136393547E0,2.811566591E0
8.870127968E0,-8.805587292E-1,5.854040623E0,3.166900873E0
8.874918229E0,-4.743770957E-1,4.992624283E0,2.973680258E0
8.879695208E0,-9.451649338E-2,3.625724554E0,2.943770170E0
8.884458854E0,1.375873089E-1,2.050648928E0,2.656033039E0
8.889249166E0,3.296113312E-1,4.325026870E-1,2.099701881E0
8.894026093E0,2.488535494E-1,-1.171884894E0,1.275374413E0
8.898803072E0,6.023930907E-1,-2.904886723E0,5.168496966E-1
8.903580052E0,1.313061476E0,-4.724030018E0,-5.682953820E-2
8.908357031E0,2.254039049E0,-6.580860615E0,-4.827519655E-1
8.913120677E0,3.412763357E0,-8.486145973E0,-2.620140910E-1
8.917910937E0,4.439882278E0,-1.079162979E1,1.794617064E-2
8.922687916E0,5.147559643E0,-1.368036556E1,-2.243271172E-1
8.927451562E0,5.087738991E0,-1.713500214E1,-9.026923180E-1
8.932241822E0,4.740779877E0,-2.188595200E1,-9.792626500E-1
8.937018802E0,4.883750916E0,-2.818804932E1,1.174277663E0
8.941782447E0,4.846064091E0,-3.512125397E1,1.438684583E0
8.946572760E0,3.229712248E0,-4.125345993E1,-7.964509964E0
8.951349687E0,-3.930211067E-1,-4.434019852E1,-2.011346817E1
8.956113385E0,-3.225524902E0,-4.121098709E1,-1.950629044E1
8.960903645E0,-4.617549419E0,-3.351507187E1,-9.623334885E0
8.965680625E0,-5.994618893E0,-2.446541595E1,3.403790295E-1
8.970444270E0,-6.770491600E0,-1.634238052E1,5.445466042E0
8.975234531E0,-5.721239090E0,-1.010130119E1,6.049654007E0
8.980011510E0,-3.853042603E0,-5.345565796E0,5.177470207E0
8.984775156E0,-2.009970903E0,-1.876571178E0,3.490530014E0
8.989565468E0,-1.195813060E0,8.380861282E-1,1.862214208E0
8.994342395E0,-1.698904037E0,2.688336134E0,-1.950150430E-1
8.999106093E0,-3.783650875E0,3.628715515E0,-2.185843468E0
9.003896354E0,-6.430112839E0,3.959523201E0,-2.921636343E0
9.008673333E0,-8.118248940E0,3.618546009E0,-3.013161898E0
9.013436979E0,-8.717052460E0,2.961716175E0,-3.206382275E0
9.018227239E0,-8.730213165E0,2.277369022E0,-3.382853031E0
9.023004218E0,-8.615358353E0,1.689931035E0,-2.773879766E0
9.027767864E0,-8.426922798E0,1.140179992E0,-1.905883193E0
9.032558177E0,-8.242077827E0,5.240281820E-1,-7.645068169E-1
9.037335104E0,-8.085946083E0,-1.752742529E-1,3.487538993E-1
9.042098802E0,-8.020143509E0,-1.018744230E0,1.337587833E0
9.046889062E0,-7.888537884E0,-2.179861546E0,2.038086653E0
9.051666041E0,-7.592426300E0,-3.498904943E0,2.340180635E0
9.056429687E0,-7.415357590E0,-5.020740032E0,2.479562521E0
9.061219947E0,-7.774280548E0,-6.780661106E0,2.732005358E0
9.065996927E0,-8.285746574E0,-8.598010063E0,2.831905603E0
9.070760572E0,-8.765507698E0,-1.028554821E1,2.950350285E0
9.075550885E0,-8.668598175E0,-1.184626675E1,3.142972469E0
9.080327812E0,-7.965108395E0,-1.320299721E1,3.131008387E0
9.085091510E0,-6.815955162E0,-1.451127338E1,2.876172781E0
9.089881770E0,-5.268995285E0,-1.606301880E1,2.140379906E0
9.094658750E0,-3.400201082E0,-1.724806404E1,1.363310695E0
9.099422395E0,-1.627119422E0,-1.810110474E1,5.772684813E-1
9.104212656E0,-3.469592705E-2,-1.876152420E1,9.451649338E-2
9.108989635E0,1.363908887E0,-1.886441612E1,7.830511928E-1
9.113753281E0,2.526222467E0,-1.823629951E1,2.931207657E0
9.118543593E0,2.773879766E0,-1.715773392E1,5.011766911E0
9.123320520E0,2.306680918E0,-1.598884106E1,6.299703598E0
9.128084218E0,2.067996979E0,-1.502094460E1,6.713063717E0
9.132874479E0,2.237887383E0,-1.416311741E1,6.899106026E0
9.137651458E0,2.669193745E0,-1.328973675E1,6.420541286E0
9.142415104E0,3.133401155E0,-1.246002579E1,5.664409637E0
9.147205364E0,3.559323788E0,-1.175952721E1,4.941776752E0
9.151982343E0,3.920041800E0,-1.104526901E1,4.335196495E0
9.156745989E0,4.114458561E0,-1.039442158E1,3.776472330E0
9.161536302E0,4.246662140E0,-9.815358162E0,3.185445070E0
9.166313229E0,4.364508629E0,-9.280562401E0,2.498106956E0
9.171076927E0,4.369294167E0,-8.875576973E0,1.921436548E0
9.175867187E0,4.264608383E0,-8.475378036E0,1.365105271E0
9.180644166E0,4.059423447E0,-8.075776100E0,6.843472719E-1
9.185407812E0,3.692125320E0,-7.685746193E0,1.914258115E-2
9.190198072E0,3.310470104E0,-7.238288403E0,-7.567301393E-1
9.194975052E0,3.028715372E0,-6.810571671E0,-1.490130305E0
9.199738697E0,2.623729944E0,-6.454041004E0,-2.159522533E0
9.204529010E0,2.205584288E0,-6.247660160E0,-2.776870728E0
9.209305989E0,2.015354872E0,-6.089135647E0,-3.447459221E0
9.214069635E0,1.692921996E0,-5.979065418E0,-4.016951084E0
9.218859895E0,1.338784218E0,-5.950351715E0,-4.346562386E0
9.223636875E0,9.720842242E-1,-5.999404430E0,-4.421338081E0
9.228400520E0,6.454638839E-1,-6.111268997E0,-4.246662140E0
9.233190833E0,5.581258535E-1,-6.328417778E0,-3.876971006E0
9.237967760E0,4.612165689E-1,-6.506682873E0,-3.376870871E0
9.242744739E0,4.037888348E-1,-6.652645111E0,-2.729014158E0
9.247521718E0,4.145565331E-1,-6.826124668E0,-1.864607096E0
9.252298697E0,7.405785918E-1,-7.003791809E0,-7.627122402E-1
9.257062343E0,1.450648785E0,-7.171289444E0,9.182456732E-1
9.261852604E0,2.596810818E0,-7.212565422E0,2.404786825E0
9.266629583E0,3.595216036E0,-7.335795879E0,2.970689297E0
9.271393229E0,3.738785267E0,-7.460821152E0,3.056232691E0
9.276183541E0,3.461816072E0,-7.634898663E0,2.842075109E0
9.280960468E0,3.052643538E0,-7.838288784E0,2.618944407E0
9.285724166E0,2.609373093E0,-8.022536278E0,2.477169752E0
9.290514427E0,2.219342947E0,-8.215756416E0,2.369492531E0
9.295291406E0,1.871785522E0,-8.457431793E0,2.198405743E0
9.300068333E0,1.680359721E0,-8.736793518E0,1.815554142E0
9.304845312E0,1.609771490E0,-9.113064766E0,1.029511929E0
9.309622291E0,1.591825247E0,-9.589237213E0,-5.826523304E-1
9.314385937E0,1.463809252E0,-1.009890842E1,-3.158525944E0
9.319176250E0,1.164706469E0,-1.051705360E1,-6.430112839E0
9.323953177E0,6.514459848E-1,-1.082991505E1,-9.747760773E0
9.328716875E0,1.926222295E-1,-1.088315582E1,-1.153579807E1
9.333507135E0,-3.409772366E-2,-1.067677498E1,-1.126540947E1
9.338284114E0,7.836493850E-2,-1.032562828E1,-9.711869240E0
9.343047760E0,4.671986103E-1,-9.891928673E0,-7.372286797E0
9.347838020E0,1.081555843E0,-9.521040916E0,-4.741377831E0
9.352615000E0,1.828116536E0,-9.202198029E0,-2.331207514E0
9.357378645E0,2.562114954E0,-8.989834785E0,-3.774677813E-1
9.362168958E0,3.169891834E0,-8.931210518E0,1.011565804E0
9.366945937E0,3.527618885E0,-9.113663673E0,1.853839397E0
9.371709583E0,3.788436413E0,-9.479166985E0,2.328216314E0
9.376499843E0,4.034298897E0,-9.974481583E0,2.524427891E0
9.381276822E0,4.207180500E0,-1.049970531E1,2.504687071E0
9.386040468E0,4.339982033E0,-1.096630573E1,2.230708838E0
9.390830781E0,4.542175770E0,-1.136112213E1,1.682752490E0
9.395607708E0,4.777270317E0,-1.158126163E1,1.043270707E0
9.400371406E0,4.949553490E0,-1.163390350E1,4.522434771E-1
9.405161666E0,4.975276470E0,-1.151306629E1,5.862415582E-2
9.409938645E0,4.820939541E0,-1.126780224E1,-1.471585929E-1
9.414715625E0,4.639084816E0,-1.107996559E1,-2.141576260E-1
9.419492552E0,4.530809879E0,-1.102732277E1,-8.315058798E-2
9.424269531E0,4.465605259E0,-1.105663490E1,2.045863420E-1
9.429046510E0,4.359124660E0,-1.115832996E1,5.557330847E-1
9.433823489E0,4.223930359E0,-1.132762241E1,9.409775138E-1
9.438600468E0,4.060021877E0,-1.145324516E1,1.277169108E0
9.443377395E0,4.114458561E0,-1.183849049E1,1.469193101E0
9.448154375E0,4.216153622E0,-1.217049408E1,1.521835208E0
9.452931354E0,4.103690624E0,-1.249890900E1,1.680957913E0
9.457695000E0,3.729812384E0,-1.279860973E1,1.893919110E0
9.462485312E0,3.193820000E0,-1.299721432E1,1.973480463E0
9.467262239E0,2.622533560E0,-1.315753365E1,1.866401672E0
9.472025937E0,1.936391711E0,-1.327478218E1,1.630110383E0
9.476816197E0,1.167697430E0,-1.337827110E1,1.188036442E0
9.481593177E0,5.407779217E-1,-1.349492168E1,4.522434771E-1
9.486356822E0,-2.392822644E-3,-1.362054443E1,-4.905286431E-1
9.491147083E0,-3.702892959E-1,-1.373659706E1,-1.615753531E0
9.495924062E0,-5.964110494E-1,-1.370788288E1,-2.814557552E0
9.500687708E0,-2.697907388E-1,-1.364387512E1,-3.853042603E0
9.505478020E0,9.601200819E-1,-1.355892944E1,-4.176073551E0
9.510255000E0,2.489133835E0,-1.344945812E1,-3.776472330E0
9.515018645E0,3.907479286E0,-1.346560955E1,-3.005983353E0
9.519808906E0,5.263013363E0,-1.348235893E1,-2.235494614E0
9.524585885E0,6.351149559E0,-1.342672634E1,-1.627119422E0
9.529349531E0,7.315456867E0,-1.328913879E1,-1.065404296E0
9.534139843E0,7.935198307E0,-1.310489178E1,-6.759724021E-1
9.538916822E0,8.009375572E0,-1.289252853E1,-8.679963946E-1
9.543680468E0,7.357331276E0,-1.264367485E1,-1.704886079E0
9.548470729E0,5.922235966E0,-1.234816170E1,-2.739183664E0
9.553247708E0,4.107878208E0,-1.195633698E1,-3.680161238E0
9.558011354E0,2.647060156E0,-1.155075264E1,-4.181457520E0
9.562801666E0,1.570888042E0,-1.105663490E1,-4.037290096E0
9.567578593E0,7.501499057E-1,-1.055354404E1,-3.500101328E0
9.572342291E0,1.698904037E-1,-1.010728264E1,-2.393420935E0
9.577132552E0,-4.929214716E-1,-9.704689980E0,-9.320043921E-1
9.581909531E0,-1.436890006E0,-9.346364975E0,5.892325640E-1
9.586673177E0,-2.353341103E0,-9.209376335E0,1.769492388E0
9.591463437E0,-2.942573547E0,-9.476176262E0,2.560320139E0
9.596240416E0,-3.175275564E0,-1.007976532E1,3.079562664E0
9.601004062E0,-2.751745939E0,-1.124447155E1,3.145365477E0
9.605794322E0,-2.606382132E0,-1.240977669E1,3.030509949E0
9.610571302E0,-2.859423161E0,-1.350389481E1,2.974876642E0
9.615335000E0,-3.276970625E0,-1.463211060E1,2.661417007E0
9.620125260E0,-3.876372576E0,-1.563589954E1,2.123031855E0
9.624902239E0,-4.806582451E0,-1.631187248E1,1.288534999E0
9.629665885E0,-5.951548100E0,-1.664148331E1,-1.256231815E-1
9.634456197E0,-6.921837807E0,-1.668156242E1,-1.661815286E0
9.639233177E0,-7.690532207E0,-1.654816246E1,-2.842673302E0
9.643996822E0,-8.107481003E0,-1.643330765E1,-3.287140131E0
9.648787083E0,-8.251648903E0,-1.600918007E1,-4.073780537E0
9.653564062E0,-7.810173035E0,-1.550728512E1,-3.985246181E0
9.658327708E0,-7.074379921E0,-1.485045528E1,-3.908077478E0
9.663118020E0,-6.061019897E0,-1.453041553E1,-3.735794306E0
9.667894947E0,-5.297709465E0,-1.411466217E1,-2.276172638E0
9.672658645E0,-4.906482697E0,-1.352184105E1,-2.919243574E-1
9.677448906E0,-4.894518852E0,-1.280519009E1,2.049452543E0
9.682225885E0,-4.526023865E0,-1.211067390E1,3.582653761E0
9.686989531E0,-3.492324591E0,-1.164646626E1,4.003790379E0
9.691779791E0,-2.495713949E0,-1.131625652E1,2.947359324E0
9.696556770E0,-1.372283816E0,-1.140359497E1,-8.135596663E-2
9.701320468E0,-1.860419661E-1,-1.144726372E1,-3.010170937E0
9.706110729E0,8.967102766E-1,-1.130907822E1,-4.758127689E0
9.710887708E0,2.123031855E0,-1.147896862E1,-5.834897995E0
9.715651354E0,3.156133175E0,-1.164467144E1,-5.863611698E0
9.720441614E0,3.867399693E0,-1.173500061E1,-4.720440865E0
9.725218593E0,3.845266104E0,-1.179422283E1,-2.853441000E0
9.729982291E0,3.785445452E0,-1.199701500E1,-1.048056364E0
9.734772552E0,3.827918053E0,-1.225364494E1,3.672982752E-1
9.739549531E0,3.844667673E0,-1.230688477E1,1.533201098E0
9.744313177E0,3.983451605E0,-1.214776230E1,2.396411896E0
9.749103437E0,3.754338741E0,-1.164766216E1,2.651247501E0
9.753880416E0,2.984447956E0,-1.078205872E1,2.386242390E0
9.758644062E0,1.978266120E0,-9.743574142E0,1.756929994E0
9.763434375E0,1.271187067E0,-8.771489143E0,1.069591761E0
9.768211354E0,7.477570772E-1,-7.857431412E0,6.634100676E-1
9.772975000E0,4.845465720E-2,-6.996613503E0,3.786641955E-1
9.777765260E0,-6.406782866E-1,-6.140581131E0,2.518445849E-1
9.782542239E0,-1.147358418E0,-5.351547718E0,2.877369225E-1
9.787305885E0,-1.395613790E0,-4.706682205E0,4.468596280E-1
9.792096197E0,-1.448255897E0,-4.124029636E0,6.334998012E-1
9.796873177E0,-1.444666624E0,-3.536591768E0,8.440681696E-1
