"Time (s)","Acceleration x (m/s^2)","Acceleration y (m/s^2)","Acceleration z (m/s^2)"
9.569935000E-3,-4.256831646E0,5.649454117E0,6.912864685E0
1.434613300E-2,-4.141975880E0,5.707480431E0,7.022934437E0
1.912233000E-2,-4.070191383E0,5.736194134E0,7.098906517E0
2.389847600E-2,-3.980460405E0,5.775077343E0,7.021738052E0
2.867467400E-2,-3.895515203E0,5.779862881E0,6.958926678E0
3.345087200E-2,-3.862015724E0,5.785246849E0,6.949355125E0
3.822707000E-2,-3.857828379E0,5.775675774E0,6.934998035E0
4.300326800E-2,-3.881158352E0,5.779862881E0,6.968497753E0
4.777941400E-2,-3.914657831E0,5.789434433E0,6.982854843E0
5.255561200E-2,-3.971487284E0,5.799005508E0,6.964310169E0
5.733181000E-2,-4.033700943E0,5.803791523E0,6.930810928E0
6.210800800E-2,-4.105485439E0,5.799005508E0,6.864409924E0
6.688420500E-2,-4.039682865E0,5.876173973E0,6.724429607E0
7.166035100E-2,-3.603590965E0,6.056233883E0,6.601797581E0
7.643654900E-2,-3.798605919E0,5.900700569E0,6.569494724E0
8.121274700E-2,-4.131806374E0,5.784648895E0,6.374479294E0
8.598894500E-2,-4.323232174E0,5.769693375E0,6.169294834E0
9.076509100E-2,-4.381258488E0,5.764907837E0,6.087938786E0
9.554128900E-2,-4.338785648E0,5.827719688E0,6.025127411E0
1.003174870E-1,-4.348356724E0,5.866004944E0,6.010770321E0
1.050936850E-1,-4.501497746E0,5.885147095E0,6.016752720E0
1.098698830E-1,-4.668396950E0,5.898906231E0,5.926423550E0
1.146460280E-1,-4.792225361E0,5.918646812E0,5.888736725E0
1.194222260E-1,-4.881956577E0,5.928217888E0,5.999404430E0
1.241984240E-1,-4.942973614E0,5.951548100E0,6.162714481E0
1.289746220E-1,-5.060820103E0,5.951548100E0,6.360122681E0
1.337508200E-1,-5.135595798E0,5.927021503E0,6.552146435E0
1.385269660E-1,-4.368097782E0,5.788836002E0,6.615556240E0
1.433031640E-1,-3.927220106E0,5.578267574E0,6.339783669E0
1.480793620E-1,-3.714857101E0,5.405386448E0,6.012565136E0
1.528555600E-1,-3.576671600E0,5.319244862E0,5.964110374E0
1.576317580E-1,-3.931407690E0,5.289334297E0,6.253642082E0
1.624079030E-1,-4.375874519E0,5.302495003E0,6.649653912E0
1.671841010E-1,-4.670191765E0,5.373681545E0,6.905686378E0
1.719602990E-1,-4.940580368E0,5.483751297E0,7.065407276E0
1.767364970E-1,-5.091926575E0,5.593821049E0,7.305885792E0
1.815126950E-1,-5.200201988E0,5.704489231E0,7.464410305E0
1.862888410E-1,-5.147559643E0,5.791228771E0,7.593622684E0
1.910650390E-1,-5.041677475E0,5.815157413E0,7.809575081E0
1.958412370E-1,-4.907081127E0,5.849255085E0,8.048856735E0
2.006174350E-1,-4.521836758E0,5.840879917E0,8.094919205E0
2.053936330E-1,-4.003192425E0,5.827719688E0,8.039285660E0
2.101697780E-1,-3.466003656E0,5.824130535E0,7.998009682E0
2.149459760E-1,-3.038286448E0,5.791228771E0,7.842476368E0
2.197088410E-1,-2.615355253E0,5.734399319E0,7.806583881E0
2.244983720E-1,-1.949552298E0,5.683551788E0,7.668398380E0
2.292745700E-1,-1.883749604E0,5.620740414E0,7.548159122E0
2.340507160E-1,-2.496312141E0,5.556732178E0,7.700103283E0
2.388269140E-1,-2.028515339E0,5.577071190E0,7.880761147E0
2.436031120E-1,-1.484746456E0,5.636293888E0,8.275577545E0
2.483659760E-1,-9.391828775E-1,5.733202934E0,8.790632248E0
2.531555080E-1,-5.264209956E-2,5.822335720E0,8.373682976E0
2.579316530E-1,5.174478889E-1,5.814558983E0,7.439883709E0
2.626945700E-1,6.005984545E-1,5.771488190E0,6.930810928E0
2.674840490E-1,3.200400174E-1,5.746363640E0,7.713861942E0
2.722602470E-1,1.956132501E-1,5.654838085E0,7.518248558E0
2.770231120E-1,3.326023519E-1,5.516054630E0,6.600601196E0
2.818125910E-1,2.350948304E-1,5.386243820E0,6.064010620E0
2.865887890E-1,2.512463741E-2,5.250451088E0,5.916851997E0
2.913649870E-1,-2.745763958E-1,5.148756027E0,5.894120216E0
2.961411850E-1,-6.167500615E-1,5.003392220E0,5.857629776E0
3.009173830E-1,-9.445667267E-1,4.872983456E0,5.816353798E0
3.056935280E-1,-1.176670551E0,4.698307037E0,5.956932068E0
3.104697260E-1,-1.133599758E0,4.524827480E0,5.966503143E0
3.152459240E-1,-1.079761267E0,4.404588223E0,6.028716564E0
3.200221220E-1,-8.745766878E-1,4.318446636E0,6.089733601E0
3.247982680E-1,-7.351947427E-1,4.174279213E0,6.262016773E0
3.295744660E-1,-4.749752879E-1,4.064209461E0,6.774679184E0
3.343506640E-1,-2.745763958E-1,3.963112593E0,7.655836105E0
3.391268620E-1,-2.279163599E-1,3.837489367E0,8.952147484E0
3.439030600E-1,-4.450650215E-1,3.647259951E0,1.068096161E1
3.486659240E-1,-4.863412082E-1,3.555734396E0,1.169851017E1
3.534554030E-1,-6.466603279E-1,4.345366001E0,1.155972576E1
3.582316010E-1,-5.168496966E-1,4.543372154E0,1.107398319E1
3.629944660E-1,-2.847459018E-1,4.867599487E0,1.037707329E1
3.677839970E-1,2.584248483E-1,5.076373100E0,9.812367439E0
3.725601950E-1,7.220342159E-1,5.067998409E0,9.392427444E0
3.773230600E-1,1.195813060E0,4.895715237E0,8.871390343E0
3.821125390E-1,1.631306887E0,4.612165451E0,8.408976555E0
3.868887370E-1,2.063211441E0,4.290929317E0,8.119445801E0
3.916516010E-1,2.405983210E0,3.930809498E0,7.868198872E0
3.964410800E-1,2.857030153E0,3.816552162E0,7.707281590E0
4.012172780E-1,2.312663078E0,4.070191383E0,7.436294556E0
4.059934760E-1,3.589234129E-2,4.734199524E0,7.423732281E0
4.107696740E-1,-2.921038151E0,5.584847927E0,7.515257835E0
4.155458720E-1,-4.563711166E0,6.269793510E0,7.662416458E0
4.203087370E-1,-5.287539959E0,7.004390240E0,7.929814339E0
4.250982160E-1,-4.959722996E0,7.511668682E0,8.091329575E0
4.298744140E-1,-2.384447813E0,7.031309128E0,8.178668022E0
4.346372780E-1,3.457628787E-1,5.920441628E0,8.146365166E0
4.394268100E-1,1.939980984E0,5.201398373E0,7.889136314E0
4.442029550E-1,2.333600283E0,4.855635166E0,8.160721779E0
4.489658720E-1,1.859821439E0,5.027918816E0,7.870592117E0
4.537553510E-1,1.247258782E0,5.353940487E0,7.402794838E0
4.585315490E-1,5.838487148E-1,5.511268616E0,7.243073940E0
4.633077470E-1,5.880361795E-1,5.627320766E0,7.180262566E0
4.680839450E-1,4.540380836E-1,5.337789059E0,6.927221775E0
4.728600910E-1,5.922235921E-2,4.811966419E0,6.612565517E0
4.776362890E-1,-5.629115105E-1,4.092923164E0,6.395416737E0
4.824124870E-1,-1.830509305E-1,3.538984776E0,6.802196503E0
4.871886850E-1,4.378865361E-1,3.434298754E0,7.101299286E0
4.919648300E-1,6.412764788E-1,3.570091486E0,7.042675018E0
4.967410280E-1,5.856433511E-1,3.878765583E0,6.663413048E0
5.015172260E-1,9.726824164E-1,4.428516388E0,6.459424496E0
5.062800910E-1,1.830509305E0,5.023731232E0,6.238687038E0
5.110696220E-1,2.615953445E0,5.589035511E0,5.749354839E0
5.158458200E-1,2.990430117E0,6.019743443E0,5.046463013E0
5.206086850E-1,3.265604734E0,6.299703598E0,4.295714855E0
5.253981640E-1,3.306880951E0,6.517450809E0,3.369692564E0
5.301743620E-1,3.122633457E0,6.483353138E0,2.712862730E0
5.349372260E-1,2.809772015E0,6.280561447E0,1.985444546E0
5.397267580E-1,2.432902336E0,5.870192051E0,1.589432478E0
5.445029030E-1,2.035693884E0,5.392225742E0,1.779063582E0
5.492658200E-1,1.610967875E0,4.962714195E0,2.083550215E0
5.540552990E-1,1.101894855E0,4.541577339E0,2.767897606E0
5.588314970E-1,6.658028960E-1,4.073182583E0,3.534198999E0
5.635943620E-1,5.096712112E-1,3.754338741E0,4.201796532E0
5.683838410E-1,4.576273263E-1,3.464807272E0,4.931607246E0
5.731600390E-1,3.218346536E-1,3.131606579E0,5.897709846E0
5.779229030E-1,1.022931710E-1,2.784049034E0,7.151548862E0
5.827124350E-1,1.082752272E-1,2.431107759E0,7.876574039E0
5.874886330E-1,2.440679073E-1,2.113460541E0,8.211568832E0
5.922514970E-1,4.845465720E-1,1.810768485E0,8.440681458E0
5.970409760E-1,7.758727670E-1,1.527219057E0,8.535796165E0
6.018171740E-1,1.339382529E0,1.249053478E0,8.638090134E0
6.065800390E-1,2.081157446E0,1.043868899E0,8.567501068E0
6.113695700E-1,2.478964329E0,1.020538807E0,8.176873207E0
6.161457160E-1,2.112862349E0,1.183848977E0,7.593024254E0
6.209219140E-1,1.618146300E0,1.365703583E0,6.851847649E0
6.256981120E-1,1.349551916E0,1.530210137E0,5.787639618E0
6.304743100E-1,1.442273855E0,1.617548108E0,4.630710125E0
6.352371740E-1,1.822732687E0,1.599601984E0,3.865604877E0
6.400267050E-1,1.821536183E0,1.604985833E0,2.943770170E0
6.448028510E-1,1.589432478E0,1.613958836E0,2.278565407E0
6.495657680E-1,1.197607756E0,1.545763373E0,1.881955028E0
6.543552470E-1,8.350951076E-1,1.332802176E0,1.706082582E0
6.591314450E-1,3.152543902E-1,1.167697430E0,1.421336651E0
6.638943100E-1,2.440679073E-1,9.702895880E-1,1.277767301E0
6.686837890E-1,3.768695593E-1,7.441678643E-1,1.124028444E0
6.734599870E-1,6.251249313E-1,5.712863803E-1,1.223330617E0
6.782228510E-1,9.074779749E-1,4.133601189E-1,1.418943882E0
6.830123830E-1,1.290927768E0,3.320041299E-1,1.738385677E0
6.877885800E-1,1.722234130E0,2.213360965E-1,2.254637241E0
6.925647260E-1,2.244467735E0,7.836493850E-2,2.870789051E0
6.973409240E-1,2.782852650E0,-7.956135273E-2,3.588037491E0
7.021171220E-1,3.258426189E0,-2.183450609E-1,4.329214573E0
7.068799870E-1,3.781257868E0,-3.667000830E-1,4.936393261E0
7.116695180E-1,4.274777889E0,-5.102694035E-1,5.456831932E0
7.164456640E-1,4.730610371E0,-6.011967063E-1,5.963512421E0
7.212085800E-1,5.071587563E0,-7.836494446E-1,6.364908218E0
7.259980600E-1,5.202594757E0,-8.799605370E-1,6.820741177E0
7.307742580E-1,5.267200947E0,-9.912267923E-1,7.237690449E0
7.355371220E-1,5.255835056E0,-1.140179992E0,7.592426300E0
7.403266010E-1,5.305486202E0,-1.308874011E0,7.885547161E0
7.451027990E-1,5.521438122E0,-1.558923960E0,8.033304214E0
7.498657160E-1,5.808577061E0,-1.803590059E0,8.065607071E0
7.546551950E-1,6.317649841E0,-1.797608018E0,8.187641144E0
7.594313930E-1,6.447460651E0,-1.995614052E0,8.268997192E0
7.641942580E-1,6.717251301E0,-2.143969059E0,7.969893932E0
7.689837370E-1,7.021139622E0,-2.239681959E0,7.780860901E0
7.737599350E-1,7.281957626E0,-2.359323025E0,7.645068169E0
7.785227990E-1,7.638488293E0,-2.473580360E0,7.499704361E0
7.833123300E-1,8.061419487E0,-2.549552441E0,7.315456867E0
7.880885280E-1,8.526823044E0,-2.462214470E0,7.250252724E0
7.928513930E-1,8.782855988E0,-2.340778828E0,7.234699249E0
7.976408720E-1,9.148957253E0,-2.166700840E0,7.246663570E0
8.024170700E-1,9.349356651E0,-2.094317913E0,7.327421188E0
8.071799350E-1,9.429515839E0,-2.117648125E0,7.202396393E0
8.119694660E-1,9.575477600E0,-2.132004976E0,6.957131863E0
8.167456120E-1,9.754940033E0,-2.213361025E0,6.701697826E0
8.215085280E-1,1.017248726E1,-2.298904419E0,6.502495766E0
8.262980080E-1,1.061934662E1,-2.273779631E0,6.480959892E0
8.310742050E-1,1.088674450E1,-2.325823545E0,6.556334019E0
8.358370700E-1,1.133001518E1,-2.324627161E0,6.684350014E0
8.406266010E-1,1.195992565E1,-2.261217356E0,7.060023308E0
8.454027470E-1,1.255334568E1,-2.389831543E0,7.540980339E0
8.501656640E-1,1.273161125E1,-2.163111687E0,8.063812256E0
8.549551430E-1,1.323410416E1,-2.292324066E0,8.483154297E0
8.597313410E-1,1.341117287E1,-2.204986095E0,8.736195564E0
8.644942050E-1,1.328016567E1,-1.979462504E0,9.164510727E0
8.692836850E-1,1.353799248E1,-1.881955028E0,9.292527199E0
8.740598830E-1,1.417867088E1,-1.967498422E0,9.083154678E0
8.788227990E-1,1.469252968E1,-2.168495417E0,8.922237396E0
8.836122780E-1,1.442393494E1,-2.058425665E0,9.436694145E0
8.883884760E-1,1.486361599E1,-2.047657967E0,8.992825508E0
8.931513410E-1,1.527936935E1,-2.094916344E0,8.525029182E0
8.979408200E-1,1.548216057E1,-2.175673962E0,8.221738815E0
9.027170180E-1,1.553719521E1,-2.243271112E0,7.842476368E0
9.074798830E-1,1.537807274E1,-2.190030813E0,7.497311592E0
9.122694140E-1,1.504726505E1,-1.920838356E0,7.139584541E0
9.170456120E-1,1.520399475E1,-1.558923960E0,6.552744865E0
9.218084760E-1,1.566820240E1,-1.240080357E0,6.463612080E0
9.265979550E-1,1.640519142E1,-1.357926846E0,5.428118229E0
9.313741530E-1,1.657627869E1,-1.405185103E0,4.683950424E0
9.361370180E-1,1.631665802E1,-1.377069473E0,4.200001717E0
9.409265490E-1,1.608575058E1,-1.256830096E0,3.802793503E0
9.457026950E-1,1.580459309E1,-1.040877819E0,3.871587038E0
9.504656120E-1,1.567179203E1,-8.871390224E-1,4.034897327E0
9.552550910E-1,1.557248974E1,-7.956135273E-1,4.217947960E0
9.600312890E-1,1.548814297E1,-7.668996453E-1,4.444069862E0
9.648074870E-1,1.562273884E1,-8.392825127E-1,4.668995380E0
9.695836850E-1,1.594457340E1,-9.643075466E-1,5.027320385E0
9.743598300E-1,1.598226070E1,-9.499505758E-1,5.699105263E0
9.791360280E-1,1.606600952E1,-8.093722463E-1,6.332006931E0
9.839122260E-1,1.635434532E1,-6.311069727E-1,6.920641422E0
9.886884240E-1,1.685623932E1,-3.750749528E-1,7.354340553E0
9.934512890E-1,1.706680679E1,-1.435693651E-1,7.722237110E0
9.982407680E-1,1.707039642E1,-1.435693651E-1,7.535596848E0
1.003016966E0,1.678325844E1,-2.835494876E-1,7.196413994E0
1.007793164E0,1.638784409E1,-5.730810165E-1,6.911069870E0
1.012569362E0,1.608036613E1,-8.919246197E-1,6.293123722E0
1.017345560E0,1.611266899E1,-8.673982024E-1,5.352744102E0
1.022108424E0,1.638006783E1,-3.840480447E-1,4.241876125E0
1.026897903E0,1.640399551E1,1.986042857E-1,3.762115479E0
1.031674101E0,1.604387665E1,3.236292601E-1,3.293720484E0
1.036436966E0,1.547378540E1,-1.160518974E-1,2.399402857E0
1.041226497E0,1.477029610E1,-7.477570772E-1,1.295115232E0
1.046002643E0,1.353141212E1,-7.453642488E-1,2.021935135E-1
1.050765560E0,1.317189026E1,-8.620143533E-1,-1.028913736E0
1.055555039E0,1.317727470E1,-1.112064362E0,-1.773081541E0
1.060331237E0,1.329990673E1,-1.516451359E0,-1.408774376E0
1.065094101E0,1.300738430E1,-1.546361685E0,-1.085145116E0
1.069883633E0,1.286501122E1,-1.648056626E0,-2.404786795E-1
1.074659778E0,1.251685524E1,-1.605584025E0,3.284149170E-1
1.079422695E0,1.227517986E1,-1.481157184E0,6.460621357E-1
1.084212174E0,1.213280678E1,-1.487139225E0,1.520040631E0
1.088988372E0,1.193839073E1,-1.839482427E0,2.965903759E0
1.093751237E0,1.156092262E1,-1.874776483E0,4.191627026E0
1.098540768E0,1.156511021E1,-1.855633974E0,4.964509010E0
1.103316914E0,1.118225861E1,-1.640279889E0,5.503491879E0
1.108079830E0,1.085025406E1,-1.530210137E0,5.692524910E0
1.112869310E0,1.042253685E1,-1.464407444E0,5.824130535E0
1.117645508E0,9.838688850E0,-1.292124271E0,5.370690346E0
1.122408372E0,9.313464165E0,-1.022931695E0,4.380061626E0
1.127197851E0,8.635098457E0,-1.207777262E0,4.590630054E0
1.131974049E0,8.734998703E0,-2.070987940E0,6.519245148E0
1.136736914E0,9.057432175E0,-2.885145903E0,8.990432739E0
1.141526445E0,8.991629601E0,-3.054438114E0,9.786644936E0
1.146302643E0,8.227720261E0,-2.805584431E0,9.550951958E0
1.151065508E0,8.484949112E0,-2.057827473E0,8.478966713E0
1.155854987E0,7.251449108E0,-1.357328653E0,7.769495010E0
1.160631185E0,7.182655334E0,-1.212562919E0,6.777071953E0
1.165394049E0,6.815357208E0,-1.463809252E0,6.433103561E0
1.170183580E0,6.367899418E0,-1.666600943E0,5.581857204E0
1.174959778E0,6.483353138E0,-1.892722726E0,5.605186939E0
1.179722643E0,5.980261803E0,-1.465005636E0,5.194219589E0
1.184512122E0,6.111268997E0,-1.185045362E0,4.301098824E0
1.189288320E0,6.123831272E0,-9.972088337E-1,4.074976921E0
1.194051185E0,6.900302410E0,-9.954141974E-1,4.157529354E0
1.198840716E0,6.715456963E0,-7.591229677E-1,3.745963812E0
1.203616862E0,6.086144447E0,-4.229314029E-1,2.836691141E0
1.208379778E0,6.570691109E0,-4.558327198E-1,3.525824070E0
1.213169258E0,6.768697262E0,-5.515456200E-1,3.903890133E0
1.217945455E0,6.230311871E0,-5.000999570E-1,3.853640795E0
1.222721653E0,6.270989895E0,-7.411768436E-1,4.146163464E0
1.227497851E0,6.799803734E0,-1.241874933E0,5.501697540E0
1.232273997E0,7.021738052E0,-1.405185103E0,5.985645771E0
1.237050195E0,6.754938126E0,-1.319043517E0,5.924628735E0
1.241826393E0,6.201598167E0,-1.200000525E0,5.769095421E0
1.246602591E0,5.851647854E0,-9.888339639E-1,5.434698582E0
1.251378789E0,5.597410202E0,-5.503492355E-1,4.610371113E0
1.256154935E0,5.181657314E0,-4.109672904E-1,3.576073408E0
1.260931133E0,5.253442287E0,-6.711867452E-1,3.537189960E0
1.265707330E0,5.536393166E0,-1.277767301E0,4.395017147E0
1.270483528E0,6.019743443E0,-1.320239902E0,4.781457901E0
1.275259726E0,7.240083218E0,-1.914856315E0,6.445665836E0
1.280022591E0,8.900702477E0,-2.900100946E0,9.062815666E0
1.284812070E0,1.076231766E1,-4.714458942E0,1.459262848E1
1.289588268E0,1.255274773E1,-6.110671043E0,2.193620110E1
1.294351185E0,8.134998322E0,-2.495115757E0,1.404287815E1
1.299140664E0,6.586842537E0,6.699903309E-2,8.021938324E0
1.303916862E0,7.753942013E0,-7.345965505E-1,8.678169250E0
1.308679726E0,9.332008362E0,-2.640479803E0,1.207896900E1
1.313469205E0,8.684749603E0,-3.124428272E0,1.337348557E1
1.318245403E0,6.206383705E0,-3.254238665E-1,1.098006535E1
1.323008268E0,7.608577728E0,1.092921734E0,3.687339783E0
1.327797799E0,7.457829952E0,1.652244091E0,2.703889608E0
1.332573997E0,8.035098076E0,3.858426511E-1,3.771686792E0
1.337336862E0,8.658429146E0,3.451646566E-1,2.247458696E0
1.342126341E0,8.219944000E0,1.147956610E0,2.479562521E0
1.346902539E0,7.886145115E0,1.701895118E0,1.875972986E0
1.351665403E0,7.100102901E0,2.017747641E0,1.078564763E0
1.356454935E0,6.495316982E0,1.828714728E0,9.469595551E-1
1.361231080E0,6.188437462E0,1.100100160E0,9.589236975E-1
1.365993997E0,5.845067501E0,4.013960063E-1,1.182054400E0
1.370783476E0,5.530411243E0,-1.058823988E-1,1.654038668E0
1.375559674E0,5.165505886E0,-2.033899277E-1,1.790429592E0
1.380322539E0,5.116453171E0,-4.426721856E-2,1.670788407E0
1.385112070E0,5.362913609E0,6.161518395E-2,2.327019930E0
1.389888268E0,4.863411903E0,-4.019941986E-1,2.900699139E0
1.394651133E0,4.307080746E0,-6.340979934E-1,2.870190859E0
1.399440612E0,4.462614059E0,-7.639086246E-1,3.311666489E0
1.404216810E0,4.752145767E0,-8.751748800E-1,3.866203070E0
1.408979674E0,5.523830891E0,-9.990034699E-1,4.798207760E0
1.413769205E0,5.979065418E0,-9.834501147E-1,5.318646431E0
1.418545351E0,6.102894306E0,-8.871390224E-1,5.365904808E0
1.423321549E0,6.117849350E0,-7.369893789E-1,4.814359188E0
1.428097747E0,6.169294834E0,-6.161518097E-1,4.761118889E0
1.432873945E0,6.293123722E0,-6.544370055E-1,4.774877548E0
1.437650143E0,6.317649841E0,-7.651050687E-1,4.765306473E0
1.442426341E0,5.755336761E0,-8.195417523E-1,4.547559261E0
1.447202487E0,5.608178139E0,-1.027717352E0,4.634897232E0
1.451978685E0,5.962316036E0,-1.258026481E0,4.767699242E0
1.456754883E0,6.053841114E0,-1.315454245E0,4.872385025E0
1.461531080E0,6.134000778E0,-1.286142230E0,4.858027935E0
1.466307278E0,6.224329948E0,-1.401595831E0,4.751547337E0
1.471083424E0,6.947560310E0,-1.418943882E0,4.757529736E0
1.475859622E0,7.195816040E0,-1.394417405E0,4.905286312E0
1.480635820E0,7.462017536E0,-1.475773335E0,4.831707001E0
1.485412018E0,8.069794655E0,-1.748555183E0,4.416552544E0
1.490188216E0,7.372884750E0,-1.716252089E0,4.136591911E0
1.494964414E0,6.437291145E0,-9.768698215E-1,3.987040758E0
1.499740612E0,7.067201614E0,-8.596215248E-1,3.552145243E0
1.504516758E0,5.603990555E0,-2.261217386E-1,2.003988981E0
1.509279674E0,4.007379532E0,4.737788737E-1,1.052842021E0
1.514069153E0,6.072385788E0,-5.814558864E-1,2.064407825E0
1.518845351E0,3.152543783E0,2.584248483E-1,2.789433002E0
1.523608216E0,5.543571949E0,-1.388435364E0,4.735994339E0
1.528397695E0,6.397809505E0,-2.769692183E0,5.202594757E0
1.533173893E0,6.111867428E0,-2.813361168E0,5.079364300E0
1.537950091E0,6.086144447E0,-2.437688112E0,4.969294548E0
1.542726289E0,6.814758778E0,-2.334796667E0,5.104488850E0
1.547502487E0,7.398607731E0,-2.251646042E0,4.971687317E0
1.552265351E0,8.129614830E0,-2.568096876E0,5.274977684E0
1.557054830E0,8.419146538E0,-2.725425005E0,4.308875561E0
1.561831028E0,8.386843681E0,-2.605185747E0,3.781856298E0
1.566607226E0,8.103293419E0,-2.393420935E0,3.399004459E0
1.571383424E0,8.664410591E0,-2.435893536E0,3.324228764E0
1.576159622E0,9.081359863E0,-2.651247501E0,3.667598963E0
1.580922487E0,9.793823242E0,-3.102892876E0,4.033700943E0
1.585712018E0,1.028375340E1,-3.453441381E0,4.549952030E0
1.590488164E0,1.070548820E1,-3.727419376E0,4.936393261E0
1.595251080E0,1.095314598E1,-4.015754700E0,4.849055290E0
1.600040560E0,1.100219822E1,-4.121038914E0,4.325624943E0
1.604816758E0,1.112183952E1,-4.212564468E0,3.581457376E0
1.609579622E0,1.117627621E1,-4.433900356E0,3.091526747E0
1.614369101E0,1.077488041E1,-4.473381996E0,2.733799934E0
1.619145299E0,1.032981491E1,-4.555934429E0,2.160120726E0
1.623908164E0,9.727422714E0,-4.764110088E0,1.597209096E0
1.628697695E0,9.497113228E0,-5.183452129E0,1.066600680E0
1.633473893E0,9.605986595E0,-5.674578667E0,6.915257573E-1
1.638236758E0,9.582057953E0,-5.982655048E0,5.000999570E-1
1.643026237E0,9.407382011E0,-5.723631859E0,9.182456732E-1
1.647802435E0,7.003791809E0,-4.506283283E0,2.925823927E0
1.652565299E0,6.918248653E0,-4.351946354E0,1.409970760E0
1.657354830E0,6.729813576E0,-4.308277130E0,-4.366901219E-1
1.662131028E0,5.717649937E0,-4.121636868E0,-1.799402595E0
1.666893893E0,5.972485542E0,-4.237090588E0,-2.236690998E0
1.671683372E0,6.158527374E0,-4.251447678E0,-5.682953596E-1
1.676459570E0,6.151947021E0,-4.305884361E0,2.230110645E0
1.681222435E0,6.621538639E0,-5.664409637E0,5.266004562E0
1.686011966E0,7.688737392E0,-7.995616913E0,8.952746391E0
1.690788164E0,8.639286041E0,-9.202198029E0,8.871390343E0
1.695551028E0,9.130413055E0,-9.234500885E0,7.415357590E0
1.700340508E0,1.011206818E1,-8.754141808E0,5.552545071E0
1.705116705E0,1.183729362E1,-8.170890808E0,3.349951744E0
1.709879570E0,1.276750374E1,-7.526623726E0,1.645663738E0
1.714669101E0,1.216570854E1,-6.867999077E0,9.714859724E-1
1.719445299E0,1.100279713E1,-6.205785751E0,9.481559992E-1
1.724208164E0,9.325428009E0,-5.511867046E0,8.225327730E-1
1.728997643E0,-2.280958176E0,-4.278367043E0,2.720041037E0
1.733773841E0,-4.543372154E0,-6.576673031E0,1.821536183E0
1.738536705E0,3.171088219E0,-8.622536659E0,-1.969891191E0
1.743326237E0,6.168098450E0,-8.890532494E0,-1.491326690E0
1.748102435E0,7.191628456E0,-7.718049526E0,-7.531409264E-1
1.752865299E0,8.381459236E0,-6.139384747E0,2.183450609E-1
1.757654778E0,1.103330517E1,-5.006382942E0,1.110867858E0
1.762430976E0,1.277886963E1,-4.130012035E0,1.422533035E0
1.767193841E0,1.377727413E1,-4.036093712E0,1.417747378E0
1.771983372E0,1.293380451E1,-4.177868366E0,1.129412293E0
1.776759570E0,1.123849010E1,-4.162314892E0,7.537391186E-1
1.781535716E0,9.241081238E0,-4.856233597E0,5.395814776E-1
1.786311914E0,6.463014126E0,-5.542375565E0,3.481557071E-1
1.791088112E0,5.065605640E0,-6.041278839E0,-5.228317380E-1
1.795850976E0,6.471388817E0,-6.549155712E0,-3.475574851E-1
1.800640508E0,7.113861561E0,-6.903891563E0,2.159522474E-1
1.805416653E0,7.456633568E0,-7.433303356E0,7.232306600E-1
1.810179570E0,7.960920811E0,-7.996214867E0,1.225125194E0
1.814969049E0,7.307680130E0,-7.776075363E0,1.156331539E0
1.819745247E0,6.933203697E0,-7.530810833E0,6.729813814E-1
1.824521445E0,6.762714863E0,-7.270591736E0,1.124626622E-1
1.829297643E0,6.510272026E0,-6.857231617E0,-4.384847581E-1
1.834073789E0,7.097112179E0,-6.668198586E0,-5.264209956E-2
1.838849987E0,8.186444283E0,-7.036693096E0,4.935196638E-1
1.843626185E0,8.974879265E0,-7.530810833E0,8.255237937E-1
1.848402383E0,9.202795982E0,-7.593024254E0,6.610172391E-1
1.853178580E0,9.056833267E0,-7.617550850E0,8.973084688E-1
1.857954778E0,7.719843864E0,-8.478368759E0,2.037488461E0
1.862730976E0,7.691130161E0,-9.071190834E0,8.955138922E-1
1.867493841E0,7.597810268E0,-8.882756233E0,-1.980060786E-1
1.872283320E0,7.104888439E0,-8.532207489E0,-5.461617708E-1
1.877059518E0,7.155735970E0,-8.209176064E0,-6.616154313E-1
1.881835716E0,7.436294556E0,-7.645068169E0,-3.278166950E-1
1.886611914E0,7.782057285E0,-7.297510624E0,3.900300860E-1
1.891388060E0,8.092526436E0,-7.166503906E0,5.659025311E-1
1.896164258E0,8.322237015E0,-7.074978352E0,8.763712645E-1
1.900940455E0,8.289934158E0,-7.219145775E0,9.822536707E-1
1.905716653E0,7.922635555E0,-7.601399422E0,5.910272002E-1
1.910492851E0,7.661220074E0,-7.760521889E0,6.023930907E-1
1.915269049E0,5.804389477E0,-7.148557663E0,1.441675663E0
1.920045195E0,4.521238327E0,-6.766902447E0,1.822134495E0
1.924808112E0,3.907479286E0,-6.777669907E0,1.149153113E0
1.929597591E0,3.046063185E0,-6.957131863E0,2.321037948E-1
1.934373789E0,2.400599241E0,-6.886543751E0,4.037888348E-1
1.939136653E0,1.886142492E0,-6.955337048E0,3.822534084E-1
1.943926185E0,1.278963685E0,-7.221538544E0,4.336991012E-1
1.948702383E0,8.626125455E-1,-7.487740040E0,7.860422134E-1
1.953465247E0,4.989035130E-1,-7.536793232E0,1.153340459E0
1.958254726E0,3.032902777E-1,-7.339983463E0,1.153938770E0
1.963030924E0,5.778666735E-1,-7.069594383E0,1.080359459E0
1.967793789E0,6.747759581E-1,-7.164709091E0,-9.978070259E-1
1.972583320E0,9.218349457E-1,-7.135396957E0,-9.996016622E-1
1.977359466E0,1.243669510E0,-7.057630539E0,-5.359922647E-1
1.982135664E0,1.440479279E0,-6.859624386E0,-1.962114573E-1
1.986911862E0,1.703689694E0,-6.753741741E0,1.914258152E-1
1.991688060E0,1.919641972E0,-6.685546398E0,5.066801906E-1
1.996464258E0,2.068595171E0,-6.555736065E0,8.225327730E-1
2.001240455E0,2.221137524E0,-6.521637917E0,9.702895880E-1
2.006016601E0,2.431107759E0,-6.501897335E0,1.002592683E0
2.010792799E0,2.629712105E0,-6.467201233E0,7.908278704E-1
2.015568997E0,2.587837696E0,-6.332006931E0,9.972088337E-1
2.020345195E0,2.505883455E0,-6.245865345E0,9.349954724E-1
2.025121393E0,2.475973129E0,-6.463014126E0,5.467599630E-1
2.029897591E0,2.440679073E0,-6.842874527E0,3.409772366E-2
2.034673737E0,2.468196630E0,-7.021139622E0,-2.015953064E-1
2.039449935E0,2.556730986E0,-6.896114826E0,2.829512656E-1
2.044226133E0,2.479562521E0,-6.540182590E0,1.161117196E0
2.049002330E0,2.420938253E0,-6.371488571E0,1.746760488E0
2.053778528E0,2.345564365E0,-6.424130440E0,1.022333503E0
2.058554726E0,2.383251429E0,-6.525825500E0,8.781659007E-1
2.063330924E0,2.507678032E0,-6.631708145E0,1.026520967E0
2.068107070E0,2.581855536E0,-6.775875568E0,6.329016089E-1
2.072883268E0,2.356930256E0,-6.737590313E0,3.846462369E-1
2.077659466E0,1.963909149E0,-6.584449768E0,7.477571070E-2
2.082435664E0,1.679163337E0,-6.570691109E0,2.009970993E-1
2.087211862E0,1.565504193E0,-6.570691109E0,2.685943544E-1
2.091988008E0,1.452443361E0,-6.681957245E0,3.314059377E-1
2.096764205E0,1.161715388E0,-6.677769661E0,2.614158690E-1
2.101540403E0,9.248259664E-1,-6.441478729E0,-2.177468538E-1
2.106316601E0,8.596215248E-1,-6.491129398E0,8.093722463E-1
2.111092799E0,1.237687469E0,-6.957131863E0,8.650053740E-1
2.115868997E0,1.960918188E0,-7.542775154E0,6.221339107E-1
2.120645195E0,2.824727058E0,-7.993822098E0,7.573283911E-1
2.125421341E0,2.297109842E0,-7.788637638E0,1.685743570E0
2.130197539E0,1.426122308E0,-7.863413334E0,2.463410854E0
2.134973737E0,5.814558864E-1,-7.663014412E0,2.155334949E0
2.139736601E0,1.980060786E-1,-7.417151928E0,9.960124493E-1
2.144526133E0,-2.093719877E-2,-7.017550468E0,-2.847459018E-1
2.149302278E0,-2.739782035E-1,-6.820142746E0,-1.108475089E0
2.154065195E0,-1.136590764E-1,-6.637091637E0,-1.296909928E0
2.158854674E0,8.434699476E-2,-6.521039963E0,-8.368897438E-1
2.163630872E0,2.410768867E-1,-6.535397053E0,-4.606183618E-2
2.168407070E0,2.470589429E-1,-6.622735023E0,8.416753411E-1
2.173183268E0,-3.164508045E-1,-8.729615211E0,1.820339799E0
2.177959466E0,-4.405186653E0,-1.758006859E1,2.179263115E0
2.182722330E0,-7.198208809E0,-3.375076294E1,2.238485575E0
2.187511810E0,-8.554939270E0,-4.178526306E1,2.500499725E0
2.192288008E0,-6.460621357E0,-4.592843628E1,1.940579176E0
2.197050872E0,7.274180651E-1,-4.703332138E1,1.275374413E0
2.201840403E0,8.959924698E0,-4.127978134E1,7.531409264E-1
2.206616549E0,1.236491108E1,-3.170310593E1,4.307080805E-2
2.211379466E0,1.141017437E1,-2.235853386E1,-9.714859724E-1
2.216168945E0,9.250652313E0,-1.540080452E1,-1.852642894E0
2.220945143E0,6.953542709E0,-1.048774147E1,-2.290529490E0
2.225708008E0,4.958526611E0,-7.134799004E0,-2.311466694E0
2.230497539E0,3.136392355E0,-4.816751957E0,-1.819143414E0
2.235273737E0,1.418943882E0,-3.284747362E0,-1.043270707E0
2.240036601E0,1.609173268E-1,-2.440080881E0,-1.112662554E-1
2.244826080E0,-9.092726111E-1,-2.289333105E0,7.579265833E-1
2.249602278E0,-1.677966833E0,-2.955734253E0,1.607378602E0
2.254365143E0,-1.481755376E0,-4.690530777E0,2.432902336E0
2.259154674E0,-1.196411322E-3,-6.888936520E0,3.031108141E0
2.263930872E0,1.134197950E0,-8.746364594E0,3.184846878E0
2.268693737E0,1.517647743E0,-1.019521904E1,2.973082066E0
2.273483216E0,1.312463164E0,-1.122173977E1,2.336591244E0
2.278259414E0,7.854440212E-1,-1.168953705E1,1.451845169E0
2.283035612E0,2.512463629E-1,-1.151725388E1,4.851447940E-1
2.287811810E0,9.152546525E-2,-1.086161995E1,-3.978067636E-1
2.292588008E0,9.032905847E-2,-1.012463093E1,-9.595218897E-1
2.297350872E0,-2.213360928E-2,-9.637691498E0,-1.079162955E0
2.302140351E0,-3.529413417E-2,-9.378069878E0,-7.866404653E-1
2.306916549E0,1.489532143E-1,-9.276374817E0,-2.602194548E-1
2.311692747E0,3.379862010E-1,-9.257232666E0,3.056831062E-1
2.316468945E0,4.833501875E-1,-9.285946846E0,7.890332937E-1
2.321245143E0,5.042873621E-1,-9.343972206E0,1.116251707E0
2.326021341E0,4.061816335E-1,-9.503094673E0,1.246062398E0
2.330797487E0,3.152543902E-1,-9.647860527E0,1.136590719E0
2.335573685E0,3.002992272E-1,-9.763314247E0,9.008977413E-1
2.340349883E0,3.080759048E-1,-9.801599503E0,6.083751321E-1
2.345126080E0,3.493520916E-1,-9.826126099E0,3.541377485E-1
2.349902278E0,4.486542344E-1,-9.926624298E0,1.758724600E-1
2.354678476E0,5.910272002E-1,-1.005165005E1,1.274178028E-1
2.359454622E0,6.915257573E-1,-1.013300610E1,1.651047617E-1
2.364230820E0,7.824530005E-1,-1.012343407E1,2.416750938E-1
2.369007018E0,8.015955687E-1,-1.006540871E1,3.326023519E-1
2.373783216E0,7.782655358E-1,-1.000798035E1,4.139583111E-1
2.378559414E0,7.591229677E-1,-9.945169449E0,4.576273263E-1
2.383335612E0,8.213363886E-1,-9.906884193E0,4.809573591E-1
2.388111810E0,8.973084688E-1,-9.887143135E0,4.947160780E-1
2.392887955E0,9.451649189E-1,-9.853643417E0,5.282155871E-1
2.397664153E0,9.589236975E-1,-9.804591179E0,5.617151260E-1
2.402440351E0,9.541380405E-1,-9.766305923E0,5.760720372E-1
2.407216549E0,9.541380405E-1,-9.751948357E0,5.617151260E-1
2.411992747E0,9.541380405E-1,-9.751948357E0,5.521438122E-1
2.416768945E0,9.158528447E-1,-9.761520386E0,5.138586760E-1
2.421545091E0,8.679963946E-1,-9.756733894E0,4.707878530E-1
2.426321289E0,8.344969153E-1,-9.751948357E0,4.283152521E-1
2.431097487E0,7.680960894E-1,-9.747162819E0,4.139583111E-1
2.435873685E0,6.921239495E-1,-9.747760773E0,4.289134443E-1
2.440649883E0,6.586244106E-1,-9.733404160E0,4.528416991E-1
2.445426080E0,6.448656917E-1,-9.752547264E0,4.767699242E-1
2.450202278E0,6.113662124E-1,-9.733404160E0,4.917250574E-1
2.454978424E0,6.113662124E-1,-9.709476471E0,5.204389095E-1
2.459754622E0,6.921239495E-1,-9.699306488E0,5.294120312E-1
2.464530820E0,7.830511928E-1,-9.742377281E0,5.916253924E-1
2.469307018E0,8.075776696E-1,-9.795618057E0,6.825526357E-1
2.474083216E0,8.368897438E-1,-9.815358162E0,7.495517135E-1
2.478859414E0,8.368897438E-1,-9.820143700E0,7.639086246E-1
2.483635560E0,7.986045480E-1,-9.829715729E0,7.495517135E-1
2.488411758E0,7.884350419E-1,-9.781260490E0,6.681957245E-1
2.493187955E0,7.974081635E-1,-9.699306488E0,5.623133183E-1
2.497964153E0,7.633104324E-1,-9.655637741E0,4.857429862E-1
2.502740351E0,7.106683254E-1,-9.641879082E0,4.432703853E-1
2.507516549E0,7.058826685E-1,-9.646066666E0,4.241278172E-1
2.512292695E0,7.106683254E-1,-9.670592308E0,4.193421602E-1
2.517068893E0,6.777670383E-1,-9.718449593E0,4.384847581E-1
2.521845091E0,6.442674994E-1,-9.766903877E0,4.336991012E-1
2.526621289E0,6.394818425E-1,-9.766903877E0,4.145565331E-1
2.531397487E0,6.675975323E-1,-9.757332802E0,3.810569942E-1
2.536173685E0,6.634100676E-1,-9.781260490E0,3.906283081E-1
2.540949883E0,6.777670383E-1,-9.786046028E0,4.097708762E-1
2.545726028E0,6.634100676E-1,-9.757332802E0,4.384847581E-1
2.550502226E0,6.538388133E-1,-9.723235130E0,4.671986103E-1
2.555278424E0,6.400800347E-1,-9.694520950E0,4.959124923E-1
2.560054622E0,6.305087805E-1,-9.656235695E0,5.204389095E-1
2.564830820E0,6.257231236E-1,-9.651450157E0,5.587241054E-1
2.569607018E0,6.257231236E-1,-9.684949875E0,5.730810165E-1
2.574383164E0,6.550351977E-1,-9.738189697E0,5.826523304E-1
2.579159362E0,6.454638839E-1,-9.766903877E0,5.730810165E-1
2.583935560E0,6.358926296E-1,-9.786046028E0,5.443671346E-1
2.588711758E0,6.263213158E-1,-9.800403595E0,5.300102234E-1
2.593487955E0,6.257231236E-1,-9.815957069E0,4.917250574E-1
2.598264153E0,5.784648657E-1,-9.820742607E0,4.630111754E-1
2.603040351E0,5.497509837E-1,-9.849455833E0,4.390829504E-1
2.607816497E0,5.258227587E-1,-9.815957069E0,4.199403822E-1
2.612592695E0,4.731806815E-1,-9.805787086E0,4.061816335E-1
2.617368893E0,4.444667995E-1,-9.810572624E0,3.918247223E-1
2.622145091E0,4.683950245E-1,-9.878767967E0,3.966103494E-1
2.626921289E0,5.018945336E-1,-9.897911072E0,3.864408433E-1
2.631697487E0,4.971089065E-1,-9.854242325E0,3.864408433E-1
2.636473633E0,4.354937077E-1,-9.791430473E0,4.205385745E-1
2.641249830E0,3.828516304E-1,-9.724431038E0,4.594219327E-1
2.646026028E0,3.589234054E-1,-9.656833649E0,5.024927258E-1
2.650802226E0,3.499503136E-1,-9.628120422E0,5.503492355E-1
2.655578424E0,3.643072546E-1,-9.671191216E0,5.694918036E-1
2.660354622E0,3.978067636E-1,-9.743574142E0,5.694918036E-1
2.665130820E0,3.882354796E-1,-9.777072906E0,5.407779217E-1
2.669906966E0,3.786641955E-1,-9.796216011E0,5.216353536E-1
2.674683164E0,3.643072546E-1,-9.796216011E0,4.929214716E-1
2.679459362E0,3.451646566E-1,-9.811170578E0,4.737788737E-1
2.684235560E0,3.547359705E-1,-9.826126099E0,4.498506486E-1
2.689011758E0,3.786641955E-1,-9.840482712E0,4.354937077E-1
2.693787955E0,4.019941986E-1,-9.864411354E0,4.109672904E-1
2.698564153E0,4.067798555E-1,-9.850054741E0,4.061816335E-1
2.703340299E0,4.354937077E-1,-9.850054741E0,4.157529473E-1
2.708116497E0,4.546363056E-1,-9.815957069E0,4.492524564E-1
2.712892695E0,4.881358147E-1,-9.820742607E0,4.636093974E-1
2.717668893E0,5.216353536E-1,-9.830313683E0,4.971089065E-1
2.722445091E0,5.503492355E-1,-9.810572624E0,5.593222976E-1
2.727221289E0,5.790630579E-1,-9.820742607E0,5.730810165E-1
2.731997435E0,5.551348329E-1,-9.825528145E0,5.784648657E-1
2.736773633E0,5.455635786E-1,-9.796216011E0,5.784648657E-1
2.741549830E0,5.503492355E-1,-9.762118340E0,5.593222976E-1
2.746326028E0,5.449653864E-1,-9.695118904E0,5.252245665E-1
2.751102226E0,5.347958803E-1,-9.651450157E0,4.965106845E-1
2.755878424E0,5.491527915E-1,-9.617950439E0,4.773681164E-1
2.760654622E0,5.491527915E-1,-9.574281693E0,4.677968323E-1
2.765430768E0,6.059823632E-1,-9.555138588E0,4.869394004E-1
2.770206966E0,6.442674994E-1,-9.559925079E0,4.911268353E-1
2.774983164E0,7.250252366E-1,-9.574281693E0,5.102694035E-1
2.779759362E0,7.680960894E-1,-9.568898201E0,5.383850932E-1
2.784535560E0,8.207381964E-1,-9.554540634E0,5.670989752E-1
2.789311758E0,8.727820516E-1,-9.544969559E0,5.958128572E-1
2.794087955E0,9.493523836E-1,-9.534799576E0,6.191428304E-1
2.798864101E0,1.034895778E0,-9.515657425E0,6.424728632E-1
2.803640299E0,1.130010486E0,-9.520442963E0,6.759724021E-1
2.808416497E0,1.249651670E0,-9.515059471E0,7.136593461E-1
2.813192695E0,1.354935765E0,-9.515059471E0,7.800601721E-1
2.817968893E0,1.469193101E0,-9.504889488E0,8.273184299E-1
2.822745091E0,1.536192179E0,-9.528818130E0,8.847461939E-1
2.827521237E0,1.617548108E0,-9.528818130E0,9.517452121E-1
2.832297435E0,1.703689694E0,-9.557532310E0,1.027717352E0
2.837073633E0,1.775474429E0,-9.586245537E0,1.104885817E0
2.841849830E0,1.818545222E0,-9.614959717E0,1.171884894E0
2.846626028E0,1.857428551E0,-9.638887405E0,1.229312658E0
2.851402226E0,1.848455548E0,-9.663414001E0,1.286740422E0
2.856178424E0,1.814955950E0,-9.692128181E0,1.296311617E0
2.860954570E0,1.786242127E0,-9.696913719E0,1.272383451E0
2.865730768E0,1.743769526E0,-9.692128181E0,1.268195987E0
2.870506966E0,1.648056626E0,-9.663414001E0,1.229910851E0
2.875283164E0,1.571486235E0,-9.634700775E0,1.153938770E0
2.880059362E0,1.490130305E0,-9.615557671E0,1.077368379E0
2.884835560E0,1.403988719E0,-9.620942116E0,1.019940615E0
2.889611705E0,1.313659668E0,-9.659226418E0,9.481559992E-1
2.894387903E0,1.232303619E0,-9.688538551E0,8.769695163E-1
2.899164101E0,1.155733347E0,-9.732208252E0,7.668996453E-1
2.903940299E0,1.107278705E0,-9.770493507E0,6.616154313E-1
2.908716497E0,1.064207911E0,-9.829116821E0,6.089733839E-1
2.913492695E0,1.040279627E0,-9.858428955E0,5.706881881E-1
2.918268893E0,1.030708313E0,-9.887143135E0,5.371887088E-1
2.923045091E0,1.006780148E0,-9.915857315E0,5.090730190E-1
2.927821237E0,1.035493970E0,-9.925428391E0,5.132604837E-1
2.932597435E0,1.040279627E0,-9.939785004E0,5.467599630E-1
2.937373633E0,1.068993568E0,-9.934999466E0,5.754738450E-1
2.942149830E0,1.049850941E0,-9.930213928E0,5.904290080E-1
2.946926028E0,1.036092162E0,-9.930213928E0,6.047859192E-1
2.951702226E0,1.012163997E0,-9.915857315E0,5.712863803E-1
2.956478424E0,1.025922656E0,-9.896714211E0,5.324030519E-1
2.961254570E0,1.010967612E0,-9.853643417E0,4.797609448E-1
2.966030768E0,1.001396298E0,-9.824331284E0,4.223332107E-1
2.970806966E0,1.015154958E0,-9.795019150E0,3.696911037E-1
2.975583164E0,1.052842021E0,-9.751350403E0,3.451646566E-1
2.980359362E0,1.076770186E0,-9.722636223E0,3.451646566E-1
2.985135560E0,1.119242787E0,-9.683753014E0,3.595215976E-1
2.989911705E0,1.162911773E0,-9.645467758E0,4.073780477E-1
2.994687903E0,1.177268744E0,-9.620942116E0,4.695914388E-1
2.999464101E0,1.186840057E0,-9.601799011E0,5.126622319E-1
3.004240299E0,1.296909928E0,-9.635298729E0,6.029912829E-1
3.009016497E0,1.402194023E0,-9.683155060E0,6.795616150E-1
3.013792695E0,1.445264935E0,-9.712467194E0,7.028916478E-1
3.018568893E0,1.531406522E0,-9.716654778E0,7.459624410E-1
3.023345091E0,1.655235052E0,-9.731011391E0,7.932206988E-1
3.028121237E0,1.774278045E0,-9.720842361E0,8.404789567E-1
3.032897435E0,1.802991867E0,-9.706484795E0,8.309076428E-1
3.037673633E0,1.768894196E0,-9.663414001E0,7.686942816E-1
3.042449830E0,1.697109461E0,-9.620343208E0,6.873382926E-1
3.047226028E0,1.619940877E0,-9.557532310E0,5.629115105E-1
3.052002226E0,1.782054663E0,-9.547362328E0,6.053841114E-1
3.056778372E0,1.839482427E0,-9.542576790E0,6.675975323E-1
3.061554570E0,1.767697692E0,-9.528220177E0,6.675975323E-1
3.066330768E0,1.658226132E0,-9.504291534E0,6.634100676E-1
3.071106966E0,1.558325768E0,-9.480961800E0,6.783652306E-1
3.075883164E0,1.515853167E0,-9.457033157E0,6.640082598E-1
3.080659362E0,1.448854089E0,-9.442676544E0,6.646065116E-1
3.085435560E0,1.406381488E0,-9.437891006E0,6.598208547E-1
3.090211758E0,1.353739381E0,-9.418747902E0,6.508477330E-1
3.094987903E0,1.348953724E0,-9.413962364E0,6.652047038E-1
3.099764101E0,1.287338614E0,-9.418747902E0,6.508477330E-1
3.104540299E0,1.230509043E0,-9.452845573E0,6.514459848E-1
3.109316497E0,1.106082320E0,-9.467203140E0,6.616154313E-1
3.114092695E0,1.054038405E0,-9.482157707E0,6.568298340E-1
3.118868893E0,1.015753269E0,-9.534799576E0,6.478567123E-1
3.123645039E0,9.780662656E-1,-9.578469276E0,6.382854581E-1
3.128421237E0,9.445667267E-1,-9.597611427E0,6.143572330E-1
3.133197435E0,8.871390224E-1,-9.636494637E0,5.569294691E-1
3.137973633E0,8.679963946E-1,-9.669994354E0,5.138586760E-1
3.142749830E0,8.063812256E-1,-9.704092026E0,4.809573591E-1
3.147526028E0,7.776673436E-1,-9.728020668E0,4.474578202E-1
3.152302226E0,7.106683254E-1,-9.747760773E0,4.193421602E-1
3.157078424E0,6.675975323E-1,-9.752547264E0,3.762713671E-1
3.161854570E0,6.203392744E-1,-9.771689415E0,3.571287692E-1
3.166630768E0,5.916253924E-1,-9.771689415E0,3.044866920E-1
3.171406966E0,5.916253924E-1,-9.810572624E0,2.949153781E-1
3.176183164E0,6.011967063E-1,-9.835099220E0,2.709871531E-1
3.180959362E0,6.011967063E-1,-9.844670296E0,2.709871531E-1
3.185735560E0,5.766702294E-1,-9.854242325E0,2.231307179E-1
3.190511705E0,5.910272002E-1,-9.844670296E0,1.848455518E-1
3.195287903E0,5.814558864E-1,-9.878170013E0,1.657029688E-1
3.200064101E0,6.239284873E-1,-9.863813400E0,1.603191197E-1
3.204840299E0,7.004988194E-1,-9.859027863E0,1.698904037E-1
3.209616497E0,7.764709592E-1,-9.858428955E0,1.740778536E-1
3.214392695E0,8.476574421E-1,-9.824930191E0,1.788634956E-1
3.219168893E0,9.523434043E-1,-9.814760208E0,1.782652885E-1
3.223945091E0,1.033101201E0,-9.799804688E0,1.920240223E-1
3.228721237E0,1.133599758E0,-9.789635658E0,2.488535494E-1
3.233497435E0,1.186241865E0,-9.789635658E0,2.823530734E-1
3.238273633E0,1.229312658E0,-9.789635658E0,3.541377485E-1
3.243049830E0,1.249053478E0,-9.780064583E0,3.924229145E-1
3.247826028E0,1.263410330E0,-9.789635658E0,4.259224236E-1
3.252602226E0,1.311266780E0,-9.784850121E0,4.977070987E-1
3.257378424E0,1.344766378E0,-9.760323524E0,5.162515044E-1
3.262154570E0,1.378265858E0,-9.741181374E0,5.497509837E-1
3.266930768E0,1.387837172E0,-9.717252731E0,5.928218365E-1
3.271706966E0,1.425524116E0,-9.692726135E0,6.023930907E-1
3.276483164E0,1.439880967E0,-9.644869804E0,6.406782866E-1
3.281259362E0,1.449452281E0,-9.601201057E0,6.789634228E-1
3.286035560E0,1.440479279E0,-9.582057953E0,7.220342159E-1
3.290811758E0,1.445264935E0,-9.548559189E0,7.316055298E-1
3.295587903E0,1.435693622E0,-9.519845009E0,7.507480979E-1
3.300364101E0,1.445264935E0,-9.490532875E0,7.698906660E-1
3.305140299E0,1.473380566E0,-9.490532875E0,7.651050687E-1
3.309916497E0,1.530808330E0,-9.490532875E0,7.794619799E-1
3.314692695E0,1.563709617E0,-9.519247055E0,7.549355626E-1
3.319468893E0,1.611566067E0,-9.538389206E0,7.310073376E-1
3.324245091E0,1.601994753E0,-9.552745819E0,7.022934556E-1
3.329021237E0,1.554138303E0,-9.509675026E0,6.879364848E-1
3.333797435E0,1.534995675E0,-9.659226418E0,6.257231236E-1
3.338573633E0,1.587039590E0,-9.711869240E0,5.682953596E-1
3.343349830E0,1.653440475E0,-9.740582466E0,5.341976285E-1
3.348126028E0,1.672582984E0,-9.769296646E0,5.198407173E-1
3.352902226E0,1.729412556E0,-9.807581902E0,4.809573591E-1
3.357678424E0,1.772483349E0,-9.832108498E0,4.522434771E-1
3.362454622E0,1.819741607E0,-9.846465111E0,4.277170599E-1
3.367230768E0,1.824527264E0,-9.879964828E0,3.798605800E-1
3.372006966E0,1.848455548E0,-9.933204651E0,3.702892959E-1
3.376783164E0,1.810170293E0,-9.971489906E0,3.750749528E-1
3.381559362E0,1.787438512E0,-1.003908730E1,4.283152521E-1
3.386335560E0,1.778465390E0,-1.012104130E1,4.857429862E-1
3.391111758E0,1.779063582E0,-1.019820976E1,5.766702294E-1
3.395887903E0,1.822732687E0,-1.027059269E1,7.208378315E-1
3.400664101E0,1.843071699E0,-1.033759212E1,8.500502706E-1
3.405440299E0,1.843669891E0,-1.037168980E1,9.942178130E-1
3.410216497E0,1.854437590E0,-1.036690426E1,1.157527924E0
3.414992695E0,1.850848317E0,-1.033819008E1,1.320838094E0
3.419768893E0,1.822732687E0,-1.032383347E1,1.469791293E0
3.424545091E0,1.756929994E0,-1.033340454E1,1.541576028E0
3.429321289E0,1.700100541E0,-1.037707329E1,1.570888042E0
3.434097487E0,1.657627940E0,-1.044945621E1,1.590628862E0
3.438873633E0,1.562513232E0,-1.050748253E1,1.566700578E0
3.443649830E0,1.414756417E0,-1.062353420E1,1.409372568E0
3.448426028E0,1.395015597E0,-1.078684425E1,1.208375454E0
3.453202226E0,1.427318692E0,-1.093101215E1,1.034895778E0
3.457978424E0,1.359721422E0,-1.107159042E1,7.621139884E-1
3.462754622E0,1.392024517E0,-1.120618629E1,5.365904570E-1
3.467530820E0,1.415354609E0,-1.134078312E1,3.445664644E-1
3.472307018E0,1.457229018E0,-1.146580791E1,1.764706671E-1
3.477083164E0,1.566700578E0,-1.159083271E1,8.494520187E-2
3.481859362E0,1.676172256E0,-1.169611740E1,2.691925503E-2
3.486635560E0,1.819143414E0,-1.179242802E1,4.067798331E-2
3.491411758E0,1.981855392E0,-1.187856960E1,1.645065546E-1
3.496187955E0,2.134995937E0,-1.197488117E1,2.739782035E-1
3.500964153E0,2.264806747E0,-1.209990597E1,3.744767308E-1
3.505740299E0,2.322234392E0,-1.224945736E1,3.978067636E-1
3.510516497E0,2.389233351E0,-1.243191051E1,3.260220885E-1
3.515292695E0,2.360519648E0,-1.261496067E1,2.350948304E-1
3.520068893E0,2.255833626E0,-1.278365517E1,1.064806059E-1
3.524845091E0,2.055434704E0,-1.292842102E1,-2.691925503E-2
3.529621289E0,1.812563181E0,-1.307378483E1,-1.698904037E-1
3.534397487E0,1.497906923E0,-1.319521999E1,-3.744767308E-1
3.539173633E0,1.244866014E0,-1.327777290E1,-5.844469070E-1
3.543949883E0,1.076770186E0,-1.327777290E1,-6.939185858E-1
3.548726028E0,8.201399446E-1,-1.333639717E1,-7.549355626E-1
3.553502226E0,6.334998012E-1,-1.342313671E1,-9.218349457E-1
3.558278424E0,6.466603279E-1,-1.342313671E1,-1.113260746E0
3.563054622E0,7.363911867E-1,-1.336511135E1,-1.234696507E0
3.567830820E0,8.021938205E-1,-1.326401424E1,-1.297508121E0
3.572607018E0,8.733802438E-1,-1.313779259E1,-1.283151150E0
3.577383216E0,9.870393276E-1,-1.292124271E1,-1.177866936E0
3.582159362E0,1.034895778E0,-1.266102314E1,-1.010369420E0
3.586935560E0,1.063609719E0,-1.239601803E1,-8.907282352E-1
3.591711758E0,1.029511929E0,-1.217946720E1,-8.668000102E-1
3.596487955E0,9.619147182E-1,-1.197667599E1,-9.194421172E-1
3.601264153E0,8.374879360E-1,-1.176550865E1,-9.619147182E-1
3.606040351E0,6.837490797E-1,-1.154895878E1,-1.081555843E0
3.610816549E0,4.402793646E-1,-1.129890823E1,-1.109073281E0
3.615592695E0,2.446661144E-1,-1.102493000E1,-1.127617717E0
3.620368893E0,1.483550072E-1,-1.075992489E1,-1.088734269E0
3.625145091E0,2.452643216E-2,-1.050508976E1,-1.035493970E0
3.629908008E0,-1.244267747E-1,-1.027896786E1,-1.020538807E0
3.634697487E0,-2.817548811E-1,-1.008694363E1,-1.029511929E0
3.639473685E0,-3.583251834E-1,-9.928419113E0,-1.019342422E0
3.644236549E0,-3.726821244E-1,-9.797411919E0,-1.004985452E0
3.649026080E0,-3.780659735E-1,-9.672387123E0,-9.906286001E-1
3.653802226E0,-3.499503136E-1,-9.580862045E0,-9.864411354E-1
3.658578424E0,-3.451646566E-1,-9.489336014E0,-1.000798106E0
3.663354622E0,-3.738785386E-1,-9.412167549E0,-1.015154958E0
3.668130820E0,-4.408775866E-1,-9.378668785E0,-1.009771109E0
3.672907018E0,-5.832505226E-1,-9.393623352E0,-9.326026440E-1
3.677683216E0,-7.722834945E-1,-9.446864128E0,-7.872386575E-1
3.682459414E0,-9.846464992E-1,-9.486345291E0,-5.898307562E-1
3.687235560E0,-1.269392371E0,-9.482157707E0,-3.433700502E-1
3.692011758E0,-1.572084427E0,-9.458827972E0,-1.405783296E-1
3.696787955E0,-1.847259045E0,-9.421140671E0,-1.854437590E-2
3.701564153E0,-1.779661894E0,-9.358329773E0,2.781656384E-1
3.706340351E0,-1.634896040E0,-9.320044518E0,5.940182209E-1
3.711116549E0,-1.695913076E0,-9.348757744E0,7.429714203E-1
3.715892747E0,-1.847857237E0,-9.291330338E0,7.339983582E-1
3.720668945E0,-1.915454507E0,-9.330213547E0,6.101697683E-1
3.725445143E0,-1.868794441E0,-9.411569595E0,3.888336718E-1
3.730221289E0,-1.813161373E0,-9.421140671E0,2.015953064E-1
3.734997487E0,-1.633101463E0,-9.507282257E0,-2.931207791E-2
3.739773685E0,-1.406381488E0,-9.540184021E0,-2.757728100E-1
3.744549883E0,-1.202991605E0,-9.698708534E0,-5.018945336E-1
3.749326080E0,-1.074975610E0,-9.867402077E0,-7.328019142E-1
3.754102278E0,-1.099501967E0,-9.963713646E0,-9.678967595E-1
3.758878476E0,-1.015154958E0,-9.963115692E0,-1.159920812E0
3.763654622E0,-9.355936646E-1,-9.881160736E0,-1.304686546E0
3.768430820E0,-9.164510965E-1,-9.668798447E0,-1.228714466E0
3.773207018E0,-8.117650747E-1,-9.437292099E0,-1.055832982E0
3.777983216E0,-7.345965505E-1,-9.153144836E0,-7.543373108E-1
3.782759414E0,-4.773681164E-1,-8.854042053E0,-4.534398913E-1
3.787535612E0,-2.201396823E-1,-8.549555779E0,-2.153540403E-1
3.792311810E0,1.046859920E-1,-8.327621460E0,-2.452643216E-2
3.797088008E0,5.473581553E-1,-8.158329010E0,2.171486616E-1
3.801850872E0,9.236295223E-1,-8.012965202E0,3.690928817E-1
3.806640351E0,1.343569875E0,-7.992625713E0,5.054838061E-1
3.811416549E0,1.657627940E0,-8.035098076E0,5.186443329E-1
3.816179466E0,1.823929071E0,-8.068597794E0,4.408775866E-1
3.820968945E0,2.219342947E0,-8.154141426E0,5.300102234E-1
3.825745143E0,2.542972326E0,-8.316853523E0,4.229314029E-1
3.830508008E0,2.712862730E0,-8.528617859E0,6.759724021E-2
3.835297539E0,2.776870728E0,-8.657830238E0,-3.601198196E-1
3.840073685E0,2.528017044E0,-8.693124771E0,-7.046862841E-1
3.844849883E0,1.945364833E0,-8.592626572E0,-9.415757060E-1
3.849626080E0,1.278365493E0,-8.415556908E0,-1.071984529E0
3.854402278E0,6.777670383E-1,-8.215158463E0,-1.088734269E0
3.859178476E0,4.265206456E-1,-8.008777618E0,-8.189435601E-1
3.863954674E0,4.576273263E-1,-7.883752346E0,-3.822534084E-1
3.868730872E0,5.736792088E-1,-7.811369419E0,-3.230310604E-2
3.873507070E0,6.735795736E-1,-7.777271748E0,5.982056609E-4
3.878283268E0,6.771687865E-1,-7.758129120E0,-1.100698411E-1
3.883059414E0,6.287141442E-1,-7.758129120E0,-2.781656384E-1
3.887835612E0,4.803591371E-1,-7.792226791E0,-5.120640397E-1
3.892611810E0,3.601198196E-1,-7.850253105E0,-7.561319470E-1
3.897388008E0,2.494517565E-1,-7.888537884E0,-9.619147182E-1
3.902164205E0,9.631111473E-2,-7.879564762E0,-1.147956610E0
3.906940403E0,2.392822690E-2,-7.860422611E0,-1.335195065E0
3.911716601E0,-5.443671346E-2,-7.807182312E0,-1.502692580E0
3.916492799E0,-1.549352705E-1,-7.773682594E0,-1.655833244E0
3.921268945E0,-2.656033039E-1,-7.701898098E0,-1.785045743E0
3.926045143E0,-3.756731451E-1,-7.658827305E0,-1.894517303E0
3.930821341E0,-4.331009090E-1,-7.600800991E0,-1.947159410E0
3.935597539E0,-5.192425251E-1,-7.557132244E0,-1.951346874E0
3.940373737E0,-5.952146053E-1,-7.509275436E0,-1.922633052E0
3.945149935E0,-6.233302951E-1,-7.451848030E0,-1.888535261E0
3.949926133E0,-5.946164131E-1,-7.417750359E0,-1.788036704E0
3.954702330E0,-5.042873621E-1,-7.364510059E0,-1.755135417E0
3.959478476E0,-4.468596280E-1,-7.335795879E0,-1.683350682E0
3.964254674E0,-3.804588020E-1,-7.301698208E0,-1.669592023E0
3.969030872E0,-2.709871531E-1,-7.287341595E0,-1.708475351E0
3.973807070E0,-2.955136001E-1,-7.301698208E0,-1.799402595E0
3.978583268E0,-3.481557071E-1,-7.335197926E0,-1.890329838E0
3.983359466E0,-3.104687333E-1,-7.335197926E0,-1.947757602E0
3.988135664E0,-2.440679073E-1,-7.335197926E0,-2.024926186E0
3.992911810E0,-2.303091735E-1,-7.325626373E0,-2.072782516E0
3.997688008E0,-2.069791555E-1,-7.310671329E0,-2.111665964E0
4.002464205E0,-2.638086975E-1,-7.296314240E0,-2.096710920E0
4.007240403E0,-2.494517565E-1,-7.272386074E0,-2.039283037E0
4.012016601E0,-1.351944804E-1,-7.258029461E0,-2.025524378E0
4.016792799E0,1.256231871E-2,-7.228717327E0,-2.055434704E0
4.021568997E0,1.740778536E-1,-7.261618614E0,-2.075175524E0
4.026345195E0,3.457628787E-1,-7.309474945E0,-2.070987940E0
4.031121393E0,5.024927258E-1,-7.376473904E0,-2.105684042E0
4.035897539E0,7.208378315E-1,-7.433901787E0,-2.173879385E0
4.040673737E0,9.110672474E-1,-7.496115208E0,-2.222932339E0
4.045449935E0,1.100698471E0,-7.529016495E0,-2.325225353E0
4.050226133E0,1.310668588E0,-7.601399422E0,-2.383849621E0
4.055002330E0,1.490728498E0,-7.673183918E0,-2.465803623E0
4.059778528E0,1.633101463E0,-7.768897057E0,-2.567498684E0
4.064554726E0,1.746760488E0,-7.865208149E0,-2.687737942E0
4.069330924E0,1.827518344E0,-7.980661869E0,-2.817548752E0
4.074107070E0,1.883749604E0,-8.090731621E0,-2.961716175E0
4.078883268E0,1.998006940E0,-8.220541954E0,-3.014956474E0
4.083659466E0,2.069193363E0,-8.374280930E0,-3.111267567E0
4.088435664E0,2.210968018E0,-8.542376518E0,-3.370888948E0
4.093211862E0,2.500499725E0,-8.715856552E0,-3.617349625E0
4.097988060E0,2.928216696E0,-8.921639442E0,-3.801596880E0
4.102750924E0,3.308675528E0,-9.151947975E0,-3.952344894E0
4.107540455E0,3.498904943E0,-9.367900848E0,-4.159324169E0
4.112316601E0,3.693321705E0,-9.598209381E0,-4.328018188E0
4.117079518E0,3.897907972E0,-9.863214493E0,-4.496711731E0
4.121868997E0,4.206582069E0,-1.014676476E1,-4.676173687E0
4.126645195E0,4.434498787E0,-1.042552853E1,-4.869394302E0
4.131408112E0,4.567898273E0,-1.071864891E1,-5.124229908E0
4.136197591E0,4.847858906E0,-1.107458115E1,-5.370092392E0
4.140973789E0,5.071587563E0,-1.145922756E1,-5.557928562E0
4.145736653E0,5.309673309E0,-1.181037426E1,-5.683551788E0
4.150526185E0,5.672784328E0,-1.215673542E1,-5.709873199E0
4.155302330E0,5.921039581E0,-1.245942783E1,-5.647659779E0
4.160065247E0,6.060421467E0,-1.269512081E1,-5.514259815E0
4.164854726E0,5.957530022E0,-1.282552910E1,-5.312066078E0
4.169630924E0,5.797211170E0,-1.286441231E1,-5.105087280E0
4.174393789E0,5.469394207E0,-1.277827072E1,-4.992624283E0
4.179183320E0,4.983651161E0,-1.253420353E1,-4.932804108E0
4.183959518E0,4.401597023E0,-1.216929817E1,-4.925625324E0
4.188735716E0,3.739383698E0,-1.169372463E1,-4.912465096E0
4.193511862E0,3.104687452E0,-1.110329533E1,-4.919643402E0
4.198288060E0,2.717648268E0,-1.046800041E1,-4.869992256E0
4.203050976E0,2.315654039E0,-9.736394882E0,-4.853840828E0
4.207840455E0,2.123031855E0,-9.014361382E0,-4.800600529E0
4.212616653E0,2.036292076E0,-8.335397720E0,-4.603790760E0
4.217379518E0,1.788036704E0,-7.695317745E0,-4.454239368E0
4.222169049E0,1.649253011E0,-7.141977310E0,-4.247260094E0
4.226945247E0,1.478166223E0,-6.655636311E0,-3.992424488E0
4.231708112E0,1.278963685E0,-6.222535133E0,-3.742374659E0
4.236497591E0,1.174875975E0,-5.861817360E0,-3.473780155E0
4.241273789E0,9.894321561E-1,-5.583053589E0,-3.193820000E0
4.246036705E0,9.284151793E-1,-5.424529076E0,-2.920439959E0
4.250826185E0,8.255237937E-1,-5.386243820E0,-2.670390129E0
4.255602383E0,6.843472719E-1,-5.502295494E0,-2.453839540E0
4.260365247E0,4.965106845E-1,-5.782256126E0,-2.260020971E0
4.265154778E0,3.224328458E-1,-6.134000778E0,-2.086541414E0
4.269930976E0,1.441675574E-1,-6.573083878E0,-1.979462504E0
4.274693841E0,-8.255238086E-2,-7.089335442E0,-1.915454507E0
4.279483320E0,-3.332005441E-1,-7.692326546E0,-1.966900229E0
4.284259518E0,-5.168496966E-1,-8.366504669E0,-2.066202402E0
4.289022435E0,-5.581258535E-1,-9.132805824E0,-2.233101845E0
4.293811914E0,-3.379862010E-1,-9.922437668E0,-2.407179594E0
4.298588112E0,9.152546525E-2,-1.067737293E1,-2.590828657E0
4.303350976E0,5.682953596E-1,-1.139940739E1,-2.755933523E0
4.308140508E0,9.882357717E-1,-1.203829098E1,-2.892324448E0
4.312916705E0,1.475175142E0,-1.265444279E1,-3.033500910E0
4.317679570E0,1.785643935E0,-1.333759308E1,-3.111267567E0
4.322469049E0,1.983051777E0,-1.414636707E1,-3.174079180E0
4.327245247E0,2.123031855E0,-1.510947895E1,-3.322434187E0
4.332008164E0,2.405983210E0,-1.620718575E1,-3.655036688E0
4.336797643E0,2.767299414E0,-1.745863152E1,-4.274777889E0
4.341573841E0,3.375076294E0,-1.877647972E1,-5.145765305E0
4.346336705E0,4.429712772E0,-1.987239265E1,-5.985645771E0
4.351126237E0,5.800201893E0,-2.041795540E1,-6.337988853E0
4.355902383E0,6.954140663E0,-2.017508507E1,-5.773283005E0
4.360665299E0,7.044469833E0,-1.893739700E1,-4.372883320E0
4.365454778E0,6.193821430E0,-1.677667809E1,-2.992822886E0
4.370230976E0,5.279164791E0,-1.430788326E1,-1.852044702E0
4.374993893E0,4.364508629E0,-1.192044449E1,-8.027920127E-1
4.379783372E0,3.154338360E0,-9.731609344E0,1.615155339E-1
4.384559570E0,1.740778446E0,-7.780262947E0,1.026520967E0
4.389322435E0,3.780659735E-1,-6.111268997E0,1.618146300E0
4.394111966E0,-7.489534616E-1,-4.722235680E0,1.666002750E0
4.398888164E0,-1.829911113E0,-3.655036688E0,1.253839016E0
4.403651028E0,-2.953939438E0,-2.919841766E0,6.729813814E-1
4.408440508E0,-3.886542082E0,-2.575275421E0,8.315058798E-2
4.413216705E0,-4.798805714E0,-2.553141832E0,-4.546363056E-1
4.417979622E0,-5.499902725E0,-2.718246460E0,-8.925228715E-1
4.422769101E0,-6.294918060E0,-2.937189817E0,-1.127617717E0
4.427545299E0,-7.122236729E0,-3.214159012E0,-1.176072359E0
4.432308164E0,-7.762914658E0,-3.552743435E0,-1.148554921E0
4.437097695E0,-8.061419487E0,-3.924229145E0,-1.046261668E0
4.441873841E0,-7.469195843E0,-4.299304008E0,-8.620143533E-1
4.446636758E0,-6.185446739E0,-4.734199524E0,-5.036891699E-1
4.451426237E0,-5.072783947E0,-5.242076397E0,-6.221338734E-2
4.456202435E0,-4.345366001E0,-5.770890236E0,2.841476798E-1
4.460978633E0,-3.918845177E0,-6.410371780E0,5.413761139E-1
4.465754830E0,-3.667598963E0,-7.152146816E0,7.902296782E-1
4.470531028E0,-3.553939819E0,-7.937591076E0,1.092921734E0
4.475293893E0,-3.563511133E0,-8.684151649E0,1.414756417E0
4.480083424E0,-3.511467218E0,-9.469595909E0,1.741376638E0
4.484859570E0,-3.344567776E0,-1.024008465E1,2.153540373E0
4.489622487E0,-3.016751051E0,-1.090887833E1,2.526820660E0
4.494411966E0,-2.533401012E0,-1.157288647E1,2.682952404E0
4.499188164E0,-1.989632010E0,-1.228953743E1,2.431705952E0
4.503951028E0,-1.367498159E0,-1.312582874E1,1.843071699E0
4.508740560E0,-6.502495408E-1,-1.399083424E1,1.163509965E0
4.513516758E0,1.052841991E-1,-1.481276894E1,6.125625968E-1
4.518279622E0,9.320043921E-1,-1.538824272E1,1.818545163E-1
4.523069153E0,1.607378602E0,-1.553181171E1,2.991028316E-2
4.527845299E0,1.969292998E0,-1.520758438E1,2.530409992E-1
4.532608216E0,2.006979942E0,-1.448076439E1,6.125625968E-1
4.537397695E0,1.921436548E0,-1.340698528E1,1.149751306E0
4.542173893E0,1.850250125E0,-1.222672558E1,1.873580098E0
4.546936758E0,2.133201361E0,-1.122473145E1,2.754737139E0
4.551726289E0,2.664407969E0,-1.043809032E1,3.677768469E0
4.556502487E0,3.214159012E0,-9.839884758E0,4.389034748E0
4.561265351E0,3.491726398E0,-9.396016121E0,4.843671322E0
4.566054883E0,3.702893019E0,-9.097511292E0,5.370092392E0
4.570831028E0,3.787838221E0,-9.005388260E0,5.254040241E0
4.575593945E0,3.859622955E0,-9.058030128E0,4.591826439E0
4.580383424E0,3.845266104E0,-9.192625999E0,3.718446493E0
4.585159622E0,3.901497364E0,-9.427721024E0,2.672184706E0
4.589922539E0,4.033700943E0,-9.711270332E0,1.587039590E0
4.594712018E0,3.985844374E0,-1.000498962E1,5.844469070E-1
4.599488216E0,3.924827337E0,-1.025982571E1,-2.309073806E-1
4.604251080E0,3.854837179E0,-1.045723343E1,-8.829515576E-1
4.609040612E0,3.814159393E0,-1.066421223E1,-1.415354609E0
4.613816810E0,3.817150354E0,-1.079402256E1,-1.779661894E0
4.618579674E0,3.754338741E0,-1.084247780E1,-1.990828395E0
4.623369153E0,3.663411379E0,-1.088554859E1,-2.095514536E0
4.628145351E0,3.373281717E0,-1.091545868E1,-2.065006018E0
4.632908216E0,2.946162939E0,-1.092622662E1,-1.914258122E0
4.637697747E0,2.467000246E0,-1.087418270E1,-1.686341763E0
4.642473945E0,2.087737799E0,-1.078863907E1,-1.353739381E0
4.647236810E0,1.708475351E0,-1.058764172E1,-1.054038405E0
4.652026341E0,1.444068432E0,-1.032383347E1,-6.352944374E-1
4.656802487E0,1.212562919E0,-1.001635551E1,-1.980060786E-1
4.661565403E0,9.230313301E-1,-9.626325607E0,1.926222295E-1
4.666354883E0,6.053841114E-1,-9.261420250E0,5.485545993E-1
4.671131080E0,3.403790295E-1,-8.939585686E0,9.290133715E-1
4.675893945E0,4.725824669E-2,-8.621937752E0,1.323829174E0
4.680683476E0,-3.326023519E-1,-8.286344528E0,1.724028707E0
4.685459674E0,-7.357929349E-1,-8.003393173E0,2.075773716E0
4.690222539E0,-1.225125194E0,-7.802396297E0,2.323430777E0
4.695012070E0,-1.663011789E0,-7.759923935E0,2.321038008E0
4.699788268E0,-1.906481385E0,-7.832904816E0,2.053041935E0
4.704551133E0,-1.932802439E0,-7.953144073E0,1.631306887E0
4.709340612E0,-1.864008784E0,-8.039285660E0,1.170688510E0
4.714116810E0,-1.638485312E0,-8.081758499E0,7.082754970E-1
4.718893008E0,-1.402792215E0,-8.114660263E0,2.703889608E-1
4.723669205E0,-1.238883972E0,-8.152944565E0,-9.511470050E-2
4.728445403E0,-1.087537885E0,-8.234300613E0,-3.744767308E-1
4.733221601E0,-1.002592683E0,-8.325227737E0,-6.047859192E-1
4.737997799E0,-9.230313301E-1,-8.522636414E0,-8.542376757E-1
4.742773997E0,-6.759724021E-1,-8.810971260E0,-1.109671474E0
4.747536862E0,-1.968096644E-1,-9.128020287E0,-1.429113269E0
4.752326341E0,3.260220885E-1,-9.367302895E0,-1.666600943E0
4.757102539E0,7.339983582E-1,-9.491130829E0,-1.880160451E0
4.761865455E0,9.379864931E-1,-9.504889488E0,-2.024926186E0
4.766654935E0,9.230313301E-1,-9.466604233E0,-2.077568293E0
4.771431133E0,9.092726111E-1,-9.433105469E0,-2.034497499E0
4.776207330E0,9.236295223E-1,-9.433105469E0,-1.928615093E0
4.780983528E0,9.439685345E-1,-9.471389771E0,-1.770688772E0
4.785759726E0,9.212366939E-1,-9.500701904E0,-1.597807288E0
4.790535924E0,9.128618240E-1,-9.515059471E0,-1.444068432E0
4.795312070E0,9.236295223E-1,-9.538987160E0,-1.247856975E0
4.800088268E0,9.487541914E-1,-9.573084831E0,-1.079162955E0
4.804864466E0,1.025922656E0,-9.635298729E0,-8.829515576E-1
4.809640664E0,1.070189953E0,-9.707681656E0,-6.675975323E-1
4.814416862E0,1.186840057E0,-9.769894600E0,-4.331009090E-1
4.819193060E0,1.302293777E0,-9.885947227E0,-2.129612118E-1
4.823969258E0,1.380060434E0,-9.987043381E0,-6.400800496E-2
4.828745455E0,1.457229018E0,-1.003489971E1,8.913264424E-2
4.833521653E0,1.505085468E0,-1.003489971E1,2.087737769E-1
4.838297851E0,1.605584025E0,-9.986445427E0,3.188436031E-1
4.843073997E0,1.691127419E0,-9.909276962E0,3.661018610E-1
4.847850195E0,1.719243050E0,-9.788438797E0,3.469592929E-1
4.852626393E0,1.765903115E0,-9.672985077E0,2.841476798E-1
4.857402591E0,1.846062660E0,-9.547362328E0,1.782652885E-1
4.862178789E0,1.892124534E0,-9.451051712E0,4.366901144E-2
4.866954987E0,1.933998942E0,-9.378668785E0,-7.716853172E-2
4.871731185E0,2.033301115E0,-9.378069878E0,-2.027917206E-1
4.876507383E0,2.213361025E0,-9.421140671E0,-3.188436031E-1
4.881283580E0,2.437089920E0,-9.545567513E0,-4.396811724E-1
4.886059726E0,2.831905603E0,-9.868000984E0,-5.850451589E-1
4.890822643E0,3.208176851E0,-1.016052341E1,-6.544370055E-1
4.895612122E0,3.509074450E0,-1.039561844E1,-6.460621357E-1
4.900388320E0,3.699902058E0,-1.051107121E1,-6.035895348E-1
4.905151237E0,3.757927895E0,-1.050090218E1,-4.552344978E-1
4.909940716E0,3.706482172E0,-1.042433167E1,-2.297109663E-1
4.914716914E0,3.603590965E0,-1.033340454E1,9.272187948E-2
4.919493112E0,3.472583771E0,-1.024726295E1,4.624129832E-1
4.924269310E0,3.327219963E0,-1.024247742E1,9.044869542E-1
4.929045508E0,3.187239647E0,-1.029153061E1,1.347159147E0
4.933808372E0,2.919243574E0,-1.043689442E1,1.737189293E0
4.938597851E0,2.483749866E0,-1.060140038E1,2.027318954E0
4.943374049E0,1.937588096E0,-1.079581738E1,2.140978098E0
4.948136966E0,1.306481123E0,-1.096630573E1,2.207378864E0
4.952926445E0,7.226324677E-1,-1.116491032E1,2.344367981E0
4.957702643E0,1.866401732E-1,-1.142632675E1,2.462812662E0
4.962465508E0,-2.267199457E-1,-1.171645641E1,2.493919373E0
4.967255039E0,-5.593222976E-1,-1.205982590E1,2.371287346E0
4.972031237E0,-8.303094506E-1,-1.236371422E1,2.190629244E0
4.976794101E0,-1.045065284E0,-1.260479164E1,1.951346874E0
4.981583580E0,-1.160519004E0,-1.283151150E1,1.683350682E0
4.986359778E0,-1.238285661E0,-1.300917816E1,1.314856052E0
4.991122695E0,-1.293320656E0,-1.315872955E1,8.153542876E-1
4.995912174E0,-1.233500123E0,-1.325504112E1,3.690928817E-1
5.000688372E0,-1.059422255E0,-1.325444317E1,1.854437590E-2
5.005451237E0,-6.801598072E-1,-1.324905872E1,-1.956132501E-1
5.010240768E0,-7.597211748E-2,-1.327119255E1,-2.033899277E-1
5.015016966E0,5.862415433E-1,-1.331306744E1,-6.699903309E-2
5.019779830E0,1.282552958E0,-1.339322662E1,1.022931710E-1
5.024569310E0,2.039881229E0,-1.348295784E1,2.997010350E-1
5.029345508E0,2.774477959E0,-1.359242916E1,5.024927258E-1
5.034108424E0,3.479762316E0,-1.366780281E1,6.472585201E-1
5.038897903E0,4.170091629E0,-1.370429325E1,7.106683254E-1
5.043674101E0,4.569094658E0,-1.369890976E1,5.886343718E-1
5.048436966E0,4.604389191E0,-1.363071442E1,1.956132501E-1
5.053226497E0,4.410570145E0,-1.352064419E1,-3.128615618E-1
5.058002695E0,4.025924206E0,-1.339143181E1,-8.913264275E-1
5.062765560E0,3.689134359E0,-1.315514088E1,-1.456032634E0
5.067555091E0,3.452244759E0,-1.281835079E1,-1.891526341E0
5.072331237E0,3.372085333E0,-1.236610699E1,-2.212762833E0
5.077094153E0,3.339184046E0,-1.180199909E1,-2.630908489E0
5.081883633E0,3.153740168E0,-1.105065346E1,-3.067000389E0
5.086659830E0,2.569293261E0,-1.024247742E1,-3.275774240E0
5.091422695E0,1.772483349E0,-9.555138588E0,-3.320041418E0
5.096212226E0,1.071984529E0,-9.128618240E0,-3.259024382E0
5.100988424E0,6.137589812E-1,-8.754141808E0,-3.281157970E0
5.105751289E0,1.016949639E-1,-8.422137260E0,-3.638885021E0
5.110540820E0,-2.291127741E-1,-8.288139343E0,-3.967898130E0
5.115317018E0,-3.385843933E-1,-8.216354370E0,-3.934398651E0
5.120079883E0,-3.996013701E-1,-8.269595146E0,-3.833301783E0
5.124869362E0,-4.163511395E-1,-8.408976555E0,-3.540181160E0
5.129645560E0,-3.840480447E-1,-8.563314438E0,-3.007179976E0
5.134421758E0,-3.320041299E-1,-8.708678246E0,-2.301895380E0
5.139197955E0,-3.637090325E-1,-8.916254997E0,-1.418943882E0
5.143974153E0,-4.809573591E-1,-9.196215630E0,-4.965106845E-1
5.148737018E0,-6.789634228E-1,-9.490532875E0,4.115654826E-1
5.153526549E0,-8.967102766E-1,-9.829116821E0,1.214955688E0
5.158302747E0,-1.138983607E0,-1.017667484E1,1.921436548E0
5.163065612E0,-1.472184181E0,-1.051525879E1,2.465803623E0
5.167855091E0,-1.887338877E0,-1.082931709E1,2.832503796E0
5.172631289E0,-2.203789711E0,-1.109073257E1,3.050250769E0
5.177394205E0,-2.332403898E0,-1.128335476E1,3.080160856E0
5.182183685E0,-2.566302299E0,-1.147179031E1,2.779263496E0
5.186959883E0,-2.954537868E0,-1.171346474E1,2.137987137E0
5.191722747E0,-3.266801119E0,-1.202692509E1,1.420140266E0
5.196512278E0,-3.330809116E0,-1.242174053E1,8.883354068E-1
5.201288476E0,-3.270390272E0,-1.268196011E1,5.521438122E-1
5.206051341E0,-3.334996462E0,-1.284527016E1,-6.161518395E-2
5.210840820E0,-3.463610888E0,-1.294158173E1,-8.428717852E-1
5.215617018E0,-3.488137245E0,-1.294098282E1,-1.697109461E0
5.220379935E0,-3.406183004E0,-1.289731407E1,-2.331207514E0
5.225169414E0,-2.940778971E0,-1.281894875E1,-2.482553482E0
5.229945612E0,-2.290529490E0,-1.275494099E1,-2.586641312E0
5.234708528E0,-1.676770449E0,-1.297029495E1,-2.767299414E0
5.239498008E0,-9.912267923E-1,-1.328674603E1,-2.871387243E0
5.244274205E0,-4.049852192E-1,-1.353559971E1,-2.840878725E0
5.249037070E0,-7.178468257E-2,-1.352064419E1,-2.732005358E0
5.253826601E0,8.793623000E-2,-1.343869019E1,-2.344367981E0
5.258602799E0,1.998006850E-1,-1.328435326E1,-1.831107497E0
5.263365664E0,3.080759048E-1,-1.299482155E1,-1.049850941E0
5.268155195E0,6.041877270E-1,-1.270110226E1,9.571290761E-2
5.272931341E0,1.264606714E0,-1.216989613E1,9.649057388E-1
5.277694258E0,2.697309256E0,-1.167458153E1,5.539384484E-1
5.282483737E0,3.766302824E0,-1.137308598E1,-3.541377485E-1
5.287259935E0,3.938585997E0,-1.120379353E1,-7.866404653E-1
5.292022799E0,3.845266104E0,-1.118046379E1,-4.648058116E-1
5.296812330E0,3.719044685E0,-1.104108143E1,-1.142572835E-1
5.301588528E0,3.348157167E0,-1.080060291E1,1.663011760E-1
5.306351393E0,2.444268227E0,-1.043210888E1,2.285145670E-1
5.311140924E0,1.158126116E0,-1.000678444E1,2.392822653E-1
5.315917122E0,-4.187439755E-2,-9.426525116E0,4.037888348E-1
5.320679987E0,-9.140582681E-1,-8.783453941E0,4.701896608E-1
5.325469466E0,-1.473978758E0,-8.071588516E0,3.858426511E-1
5.330245664E0,-1.756929994E0,-7.373483181E0,3.487538993E-1
5.335008580E0,-2.063211441E0,-6.762714863E0,3.451646566E-1
5.339798060E0,-2.241476536E0,-6.194419384E0,3.936193287E-1
5.344574258E0,-2.257030010E0,-5.703292847E0,3.984049559E-1
5.349337122E0,-2.143969059E0,-5.273781300E0,3.445664644E-1
5.354126653E0,-1.950748682E0,-4.941178799E0,2.518445849E-1
5.358902851E0,-1.771885157E0,-4.642076015E0,7.357929647E-2
5.363665716E0,-1.598405480E0,-4.405784607E0,-1.250249892E-1
5.368455195E0,-1.399801254E0,-4.226921082E0,-2.745763958E-1
5.373231393E0,-1.090528965E0,-4.076173306E0,-2.620140910E-1
5.377994310E0,-8.099704385E-1,-3.993621111E0,-1.770688742E-1
5.382783789E0,-6.717849374E-1,-3.959523201E0,-1.441675574E-1
5.387559987E0,-6.628118753E-1,-3.863212109E0,-2.117647976E-1
5.392322851E0,-7.357929349E-1,-3.762115479E0,-3.505485058E-1
5.397112383E0,-8.267202377E-1,-3.695116282E0,-4.408775866E-1
5.401888580E0,-8.937192559E-1,-3.642474174E0,-5.078766346E-1
5.406651445E0,-8.273184299E-1,-3.637090445E0,-4.941178858E-1
5.411440924E0,-7.651050687E-1,-3.646661758E0,-4.749752879E-1
5.416217122E0,-6.131607890E-1,-3.661018610E0,-4.612165689E-1
5.420993320E0,-4.983053207E-1,-3.728017569E0,-4.043870270E-1
5.425769518E0,-4.402793646E-1,-3.785445452E0,-2.799602449E-1
5.430545716E0,-4.295116663E-1,-3.881756544E0,-1.842473447E-1
5.435321914E0,-4.289134443E-1,-3.978665829E0,-9.750752151E-2
5.440098112E0,-4.857429862E-1,-4.021736622E0,-6.340979785E-2
5.444874310E0,-4.857429862E-1,-4.040879250E0,-5.802594870E-2
5.449650508E0,-4.480560422E-1,-4.016951084E0,-1.070788130E-1
5.454426705E0,-4.677968323E-1,-3.993022680E0,-1.932204217E-1
5.459202903E0,-4.971089065E-1,-3.954139471E0,-3.128615618E-1
5.463979101E0,-5.264210105E-1,-3.891926050E0,-4.235295951E-1
5.468755247E0,-5.509474277E-1,-3.829114437E0,-5.288137794E-1
5.473531497E0,-5.228317380E-1,-3.819543123E0,-6.394818425E-1
5.478307643E0,-5.048855543E-1,-3.848257065E0,-7.495517135E-1
5.483083841E0,-5.910272002E-1,-3.896711588E0,-8.691928387E-1
5.487860039E0,-6.909275651E-1,-4.007379532E0,-9.547362328E-1
5.492636237E0,-6.771687865E-1,-4.132404804E0,-1.118046403E0
5.497412435E0,-5.449653864E-1,-4.291527271E0,-1.354337573E0
5.502188633E0,-4.265206456E-1,-4.551148891E0,-1.560718536E0
5.506964830E0,-5.066801906E-1,-4.980062008E0,-1.728216171E0
5.511741028E0,-7.908278704E-1,-5.549553871E0,-1.836491346E0
5.516517226E0,-8.189435601E-1,-6.194419384E0,-2.090130568E0
5.521280091E0,-4.683950245E-1,-6.844070911E0,-2.643470764E0
5.526069622E0,9.571290761E-2,-7.550551891E0,-3.452244759E0
5.530845768E0,5.521438122E-1,-8.305487633E0,-4.587040901E0
5.535608685E0,5.018945336E-1,-9.186644554E0,-6.327819347E0
5.540398164E0,2.356930375E-1,-1.024068260E1,-9.171689034E0
5.545174362E0,2.458625287E-1,-1.157827091E1,-1.371087360E1
5.549937226E0,1.165902853E0,-1.365882969E1,-2.003390694E1
5.554726758E0,4.089334011E0,-1.753161240E1,-2.712084961E1
5.559502955E0,1.077248764E1,-2.384507561E1,-2.917568588E1
5.564265820E0,1.853480339E1,-3.078665352E1,-2.149951172E1
5.569055351E0,2.394318199E1,-3.626502228E1,-1.289970684E1
5.573831549E0,2.573779869E1,-3.926442337E1,-8.726624489E0
5.578594414E0,2.217548370E1,-3.847479248E1,-5.037489891E0
5.583383893E0,1.388315678E1,-3.319024658E1,-4.556532383E0
5.588160091E0,7.850253105E0,-2.517787743E1,-5.735595703E0
5.592923008E0,5.992226124E0,-1.837029839E1,-6.488736629E0
5.597712487E0,4.919044971E0,-1.319402409E1,-6.568298340E0
5.602488685E0,3.296711445E0,-9.333803177E0,-6.016154289E0
5.607251549E0,1.825723648E0,-6.389434814E0,-4.599603176E0
5.612041080E0,5.431707501E-1,-3.945764542E0,-2.928814888E0
5.616817278E0,-7.926225066E-1,-1.902294040E0,-1.709671736E0
5.621580143E0,-2.195414782E0,-3.403790295E-1,-7.579265833E-1
5.626369674E0,-3.390629768E0,7.597211599E-1,-2.632105052E-1
5.631145820E0,-4.916652203E0,1.314257860E0,2.105683982E-1
5.635908737E0,-6.601199627E0,1.305284739E0,8.907282352E-1
5.640698216E0,-7.807780266E0,6.903293133E-1,1.603191137E0
5.645474414E0,-8.501100540E0,-1.788634956E-1,2.144567251E0
5.650237330E0,-7.934001446E0,-1.439880967E0,2.502892494E0
5.655026810E0,-7.176673412E0,-2.839682341E0,2.590828657E0
5.659803008E0,-6.131010056E0,-4.432105541E0,2.423331022E0
5.664565872E0,-5.470590591E0,-6.308676720E0,1.955534339E0
5.669355403E0,-4.796412945E0,-8.383852005E0,1.536192179E0
5.674131601E0,-4.161716938E0,-1.062652493E1,6.083751321E-1
5.678894466E0,-3.667598963E0,-1.308156109E1,-8.416753411E-1
5.683683997E0,-3.223132133E0,-1.569631863E1,-2.670988321E0
5.688460143E0,-2.628515720E0,-1.850728607E1,-4.961517811E0
5.693223060E0,-1.394417405E0,-2.131705856E1,-7.705487251E0
5.698012539E0,1.210170031E0,-2.352084923E1,-9.359525681E0
5.702788737E0,4.192225456E0,-2.441995239E1,-9.158528328E0
5.707551653E0,6.165107727E0,-2.362553406E1,-7.431509018E0
5.712341133E0,5.383252621E0,-2.097368813E1,-4.689334393E0
5.717117330E0,3.963112593E0,-1.709073639E1,-1.493121386E0
5.721880195E0,3.077768087E0,-1.313898945E1,1.398006678E0
5.726669726E0,2.380260229E0,-1.014975548E1,3.189034462E0
5.731445924E0,1.730608940E0,-8.036892891E0,3.963710785E0
5.736208789E0,1.032503009E0,-6.665805817E0,4.105485439E0
5.740998268E0,1.292124242E-1,-6.050850391E0,3.678366661E0
5.745774466E0,-1.017547846E0,-5.894120216E0,2.935395241E0
5.750537383E0,-2.124826431E0,-5.954539299E0,2.379662037E0
5.755326862E0,-3.220141172E0,-5.971288681E0,2.135594130E0
5.760103060E0,-4.039084435E0,-5.930012703E0,2.139781713E0
5.764865976E0,-4.434498787E0,-5.935396671E0,1.974078655E0
5.769655455E0,-4.436891556E0,-5.944967747E0,1.590030670E0
5.774431653E0,-4.230510235E0,-5.901299000E0,1.128814101E0
5.779194518E0,-3.870988846E0,-5.799005508E0,9.296116233E-1
5.783984049E0,-3.424727440E0,-5.759523869E0,7.830511928E-1
5.788760247E0,-2.992224693E0,-5.787041664E0,6.658028960E-1
5.793523112E0,-2.850450039E0,-5.762515068E0,5.688936114E-1
5.798312643E0,-2.840878725E0,-5.757729530E0,5.306084156E-1
5.803088789E0,-2.935395241E0,-5.810969830E0,5.742774606E-1
5.807864987E0,-3.101098061E0,-5.970092297E0,6.664010882E-1
5.812641185E0,-3.380460262E0,-6.202196121E0,8.117650747E-1
5.817417383E0,-3.768695593E0,-6.512066841E0,9.391828775E-1
5.822193580E0,-4.031906128E0,-6.999006271E0,1.176072359E0
5.826969778E0,-4.147958279E0,-7.557730198E0,1.340578914E0
5.831745976E0,-4.141377926E0,-8.189435959E0,1.321436286E0
5.836508841E0,-3.877569199E0,-9.012566566E0,1.244267821E0
5.841298372E0,-3.084348440E0,-1.011864853E1,1.168893814E0
5.846074570E0,-1.904686809E0,-1.130130100E1,1.278365493E0
5.850837435E0,-6.197410822E-1,-1.241097260E1,1.570289850E0
5.855626914E0,5.617151260E-1,-1.348774338E1,2.087737799E0
5.860403112E0,1.666600943E0,-1.432822227E1,2.615355253E0
5.865166028E0,2.708076954E0,-1.473560047E1,3.041875839E0
5.869955508E0,3.362514019E0,-1.460399437E1,3.585644722E0
5.874731705E0,3.516851187E0,-1.421336651E1,4.126422882E0
5.879494570E0,3.552743435E0,-1.386640739E1,3.963112593E0
5.884284101E0,3.920639992E0,-1.364387512E1,3.577269793E0
5.889060299E0,4.329812527E0,-1.324307728E1,2.994019270E0
5.893823164E0,4.712664127E0,-1.273998642E1,2.002792597E0
5.898612695E0,5.141577721E0,-1.215613747E1,9.206385016E-1
5.903388893E0,5.465805054E0,-1.149452209E1,-1.615155339E-1
5.908151758E0,5.538786411E0,-1.080957603E1,-1.054636598E0
5.912941237E0,5.696114540E0,-1.033699417E1,-1.665404558E0
5.917717435E0,5.650650501E0,-9.961320877E0,-1.842473388E0
5.922480351E0,5.407180786E0,-9.686744690E0,-1.764706731E0
5.927269830E0,4.994419098E0,-9.586843491E0,-1.633101463E0
5.932046028E0,4.377070904E0,-9.617352486E0,-1.423729420E0
5.936822226E0,3.641875982E0,-9.754341125E0,-1.160519004E0
5.941598424E0,2.872583628E0,-9.891330719E0,-9.260223508E-1
5.946374622E0,2.050648928E0,-1.001874828E1,-7.633104324E-1
5.951137487E0,1.305284739E0,-1.008814049E1,-6.011967063E-1
5.955927018E0,5.306084156E-1,-1.007079220E1,-5.156532526E-1
5.960703216E0,-1.310070455E-1,-9.990633011E0,-4.115654826E-1
5.965466080E0,-5.772684813E-1,-9.851848602E0,-2.847459018E-1
5.970255560E0,-9.200403094E-1,-9.645467758E0,-1.872383654E-1
5.975031758E0,-1.243669510E0,-9.279964447E0,3.589234129E-2
5.979794674E0,-1.494915962E0,-8.842676163E0,3.966103494E-1
5.984584153E0,-1.770090580E0,-8.361719131E0,8.051848412E-1
5.989360351E0,-1.940579176E0,-7.957331657E0,1.051047325E0
5.994123216E0,-1.889731646E0,-7.731209755E0,9.589236975E-1
5.998912747E0,-1.655235052E0,-7.604988575E0,4.971089065E-1
6.003688945E0,-1.426720500E0,-7.555337429E0,-1.573280841E-1
6.008451810E0,-1.201795220E0,-7.540382385E0,-7.531409264E-1
6.013241341E0,-9.523434043E-1,-7.553543091E0,-1.282552958E0
6.018017539E0,-9.212366939E-1,-7.534400463E0,-1.613958836E0
6.022780403E0,-8.691928387E-1,-7.558328629E0,-1.724028707E0
6.027569883E0,-8.213363886E-1,-7.611568928E0,-1.676770449E0
6.032346080E0,-8.386843204E-1,-7.713263988E0,-1.479960799E0
6.037122278E0,-7.651050687E-1,-7.819146156E0,-1.086341500E0
6.041898476E0,-5.898307562E-1,-7.939385414E0,-4.875376225E-1
6.046674674E0,-2.715853751E-1,-8.082955360E0,1.304088384E-1
6.051450872E0,5.144568533E-2,-8.241478920E0,6.711867452E-1
6.056227070E0,3.200400174E-1,-8.476573944E0,9.092726111E-1
6.061003268E0,5.724828243E-1,-8.736793518E0,8.985049129E-1
6.065779466E0,7.668996453E-1,-8.962915421E0,7.010970116E-1
6.070555664E0,9.846464992E-1,-9.193224907E0,3.595215976E-1
6.075331862E0,1.225723386E0,-9.399605751E0,-5.383851007E-2
6.080094726E0,1.532602906E0,-9.571888924E0,-5.114658475E-1
6.084884258E0,1.796411633E0,-9.720243454E0,-1.011565804E0
6.089660403E0,1.965105653E0,-9.830911636E0,-1.521237016E0
6.094423320E0,2.042872429E0,-9.926624298E0,-2.049452543E0
6.099212799E0,2.035095692E0,-1.003729248E1,-2.548954248E0
6.103988997E0,1.914856315E0,-1.012881851E1,-2.912663460E0
6.108751914E0,1.742573142E0,-1.023051357E1,-3.098705292E0
6.113541393E0,1.566700578E0,-1.030768204E1,-3.122035265E0
6.118317591E0,1.472782373E0,-1.038544846E1,-3.010769129E0
6.123093789E0,1.464407444E0,-1.044766140E1,-2.813959360E0
6.127869987E0,1.447059512E0,-1.042373371E1,-2.511865616E0
6.132646185E0,1.353739381E0,-1.035194874E1,-2.165504456E0
6.137422383E0,1.322632670E0,-1.022213840E1,-1.776670814E0
6.142198580E0,1.314856052E0,-1.007318497E1,-1.417149186E0
6.146974726E0,1.348953724E0,-9.943374634E0,-1.186840057E0
6.151750924E0,1.459023595E0,-9.851848602E0,-1.009771109E0
6.156527122E0,1.573879123E0,-9.754341125E0,-8.572286963E-1
6.161303320E0,1.721635938E0,-9.696315765E0,-7.573283911E-1
6.166079518E0,1.936391711E0,-9.710672379E0,-6.526423693E-1
6.170855716E0,2.061416626E0,-9.763314247E0,-5.096712112E-1
6.175631914E0,2.133201361E0,-9.850054741E0,-3.948157430E-1
6.180408112E0,2.196611166E0,-1.002831936E1,-2.560320199E-1
6.185184310E0,2.341975212E0,-1.025444126E1,-3.050848842E-2
6.189960508E0,2.530410051E0,-1.046620655E1,3.092723191E-1
6.194723372E0,2.809173822E0,-1.060020447E1,7.591229677E-1
6.199512903E0,3.078366280E0,-1.065284634E1,1.170688510E0
6.204289101E0,3.184846878E0,-1.058046341E1,1.572682738E0
6.209051966E0,3.248256683E0,-1.046979523E1,1.898704767E0
6.213841445E0,3.282952785E0,-1.034477043E1,2.148156643E0
6.218617643E0,3.302095175E0,-1.027238750E1,2.277967215E0
6.223380560E0,3.250051260E0,-1.029212856E1,2.282752752E0
6.228170039E0,3.083750248E0,-1.043689442E1,2.182852507E0
6.232946237E0,2.816950560E0,-1.063490009E1,2.045265198E0
6.237722435E0,2.465205431E0,-1.084726334E1,1.888535261E0
6.242498633E0,2.173879385E0,-1.108953667E1,1.707877159E0
6.247274830E0,1.930409670E0,-1.130668545E1,1.436291814E0
6.252051028E0,1.706082582E0,-1.150409317E1,1.159322619E0
6.256827226E0,1.442872047E0,-1.164945698E1,8.003991842E-1
6.261603424E0,1.083948612E0,-1.176550865E1,4.522434771E-1
6.266366289E0,7.483552694E-1,-1.187198925E1,1.256231871E-2
6.271155820E0,4.283152521E-1,-1.197846985E1,-3.074777126E-1
6.275931966E0,1.369891018E-1,-1.207119179E1,-5.892325640E-1
6.280694883E0,-1.208375469E-1,-1.215853024E1,-7.363911867E-1
6.285484362E0,-2.626122832E-1,-1.232243824E1,-6.777670383E-1
6.290260560E0,-2.799602449E-1,-1.254437256E1,-5.240281820E-1
6.295036758E0,-2.075773627E-1,-1.272682571E1,-4.043870270E-1
6.299812955E0,6.520441920E-2,-1.287099266E1,-3.194418252E-1
6.304589153E0,6.173482537E-1,-1.301396370E1,-2.500499785E-1
6.309365351E0,1.422533035E0,-1.314198017E1,-2.303091735E-1
6.314141549E0,2.350948334E0,-1.324188042E1,-1.872383654E-1
6.318917747E0,3.397808075E0,-1.336929798E1,-1.782652885E-1
6.323680612E0,4.401597023E0,-1.353978729E1,-2.165504545E-1
6.328470143E0,5.204987526E0,-1.366780281E1,-4.271188378E-1
6.333246341E0,5.665606022E0,-1.374377537E1,-6.933203340E-1
6.338009205E0,5.949753284E0,-1.372403431E1,-8.147560954E-1
6.342798685E0,6.201598167E0,-1.357388496E1,-8.111668825E-1
6.347574883E0,6.320042610E0,-1.333280754E1,-7.639086246E-1
6.352337799E0,6.150750637E0,-1.295713425E1,-9.984052777E-1
6.357127278E0,5.431109428E0,-1.249113274E1,-1.681556106E0
6.361903476E0,4.521238327E0,-1.206939697E1,-2.536391973E0
6.366666393E0,3.893122435E0,-1.168953705E1,-3.046661377E0
6.371455872E0,3.490530014E0,-1.133898830E1,-3.385245800E0
6.376232070E0,3.220739365E0,-1.094955635E1,-3.658027649E0
6.380994935E0,2.799004316E0,-1.050209904E1,-3.967898130E0
6.385784466E0,2.416152716E0,-1.009830952E1,-4.153341770E0
6.390560664E0,1.950150490E0,-9.699306488E0,-3.867997885E0
6.395323528E0,1.372283816E0,-9.325428009E0,-3.284747362E0
6.400113008E0,9.391828775E-1,-9.086145401E0,-2.409572363E0
6.404889205E0,3.601198196E-1,-8.948558807E0,-1.331605792E0
6.409652122E0,-4.331009090E-1,-8.835497856E0,-1.950150430E-1
6.414441601E0,-1.259222865E0,-8.880961418E0,7.788637877E-1
6.419217799E0,-1.890329838E0,-9.215357780E0,1.651047587E0
6.423980716E0,-2.036292076E0,-9.909874916E0,2.300698996E0
6.428770195E0,-1.913061738E0,-1.080060291E1,2.564507723E0
6.433546393E0,-1.990828395E0,-1.163450146E1,2.627319336E0
6.438309258E0,-2.288136721E0,-1.229551888E1,2.682354212E0
6.443098789E0,-2.652443886E0,-1.283569908E1,2.718246460E0
6.447874987E0,-3.184248686E0,-1.325623703E1,2.639881611E0
6.452637851E0,-3.750749588E0,-1.348893929E1,2.532802820E0
6.457427383E0,-4.302893162E0,-1.357687569E1,2.353341103E0
6.462203580E0,-4.753342152E0,-1.360618782E1,1.880160451E0
6.466966445E0,-5.010570526E0,-1.357328606E1,1.085145116E0
6.471755924E0,-5.146363258E0,-1.345723438E1,-7.597211748E-2
6.476532122E0,-5.099703312E0,-1.336989689E1,-1.016351461E0
6.481295039E0,-4.719244480E0,-1.330648708E1,-1.724028707E0
6.486084518E0,-4.539782524E0,-1.300140190E1,-2.531606436E0
6.490860716E0,-4.348955154E0,-1.279382420E1,-2.417947292E0
6.495623633E0,-3.759722471E0,-1.274955750E1,-1.700698733E0
6.500413112E0,-2.380858421E0,-1.268854046E1,-9.684949517E-1
6.505189310E0,-7.322037220E-1,-1.280997562E1,-6.993024349E-1
6.509952174E0,5.742774159E-2,-1.270229912E1,-7.417750359E-1
6.514741705E0,1.980060786E-1,-1.252343559E1,-9.343972206E-1
6.519517903E0,-7.776673418E-3,-1.223988628E1,-9.332008362E-1
6.524280768E0,1.621137410E-1,-1.214836025E1,-4.354937077E-1
6.529070299E0,4.199403822E-1,-1.215314579E1,5.419743061E-1
6.533846445E0,9.332008362E-1,-1.200239849E1,1.350748420E0
6.538609362E0,2.182852507E0,-1.189831066E1,1.943570137E0
6.543398841E0,4.401597023E0,-1.163270760E1,1.596012712E0
6.548175039E0,5.952146530E0,-1.141615677E1,-4.366901144E-2
6.552937955E0,6.384050846E0,-1.128455162E1,-1.605584025E0
6.557727435E0,6.301498413E0,-1.140479088E1,-1.974676847E0
6.562503633E0,6.130411625E0,-1.156451225E1,-1.311864972E0
6.567266549E0,5.855835438E0,-1.173918819E1,-3.840480447E-1
6.572056028E0,5.226522923E0,-1.162552929E1,3.008974493E-1
6.576832226E0,4.138985157E0,-1.126720333E1,8.482556343E-1
6.581595091E0,2.878565550E0,-1.068694401E1,1.210170031E0
6.586384622E0,2.017149448E0,-1.003908730E1,1.487737536E0
6.591160820E0,1.606780410E0,-9.327222824E0,1.666600943E0
6.595923685E0,1.186241865E0,-8.605188370E0,1.711466432E0
6.600713216E0,4.175475538E-1,-7.875377655E0,1.609173179E0
6.605489414E0,-4.366901219E-1,-7.274778843E0,1.575075507E0
6.610252278E0,-1.219143152E0,-6.747161865E0,1.521237016E0
6.615041758E0,-1.727019787E0,-6.150152206E0,1.250249863E0
6.619817955E0,-1.992623091E0,-5.582455158E0,8.141579032E-1
6.624580872E0,-2.215753794E0,-4.999803066E0,4.695914388E-1
6.629370351E0,-2.257628202E0,-4.441078663E0,2.338984162E-1
6.634146549E0,-2.254637241E0,-3.944568157E0,1.328016520E-1
6.638909414E0,-2.437089920E0,-3.535395384E0,1.238285750E-1
6.643698945E0,-2.688934565E0,-3.184846878E0,2.644068897E-1
6.648475143E0,-2.970091105E0,-2.876770973E0,4.043870270E-1
6.653238008E0,-3.245863914E0,-2.632104874E0,5.210371017E-1
6.658027539E0,-3.465405464E0,-2.415554523E0,5.796613097E-1
6.662803737E0,-3.575475216E0,-2.276172638E0,5.706881881E-1
6.667566601E0,-3.642474174E0,-2.213959217E0,5.324030519E-1
6.672356133E0,-3.509074450E0,-2.203789711E0,5.126622319E-1
6.677132278E0,-3.223730326E0,-2.227717876E0,4.965106845E-1
6.681895195E0,-2.942573547E0,-2.274976015E0,5.383850932E-1
6.686684674E0,-2.670390129E0,-2.394617319E0,6.711867452E-1
6.691460872E0,-2.426322222E0,-2.529213428E0,8.333004713E-1
6.696237070E0,-2.162513494E0,-2.716451883E0,9.708877802E-1
6.701013268E0,-1.889731646E0,-2.932404041E0,1.133599758E0
6.705789466E0,-1.731805444E0,-3.159124136E0,1.238285661E0
6.710565664E0,-1.554736495E0,-3.332005501E0,1.275972724E0
6.715341862E0,-1.359721422E0,-3.427718401E0,1.269990563E0
6.720118060E0,-1.269990563E0,-3.523431301E0,1.168893814E0
6.724894258E0,-1.303490162E0,-3.614956856E0,1.019940615E0
6.729670455E0,-1.351944804E0,-3.701696634E0,8.285148144E-1
6.734446653E0,-1.481157184E0,-3.827319860E0,6.131607890E-1
6.739222851E0,-1.710269928E0,-4.025325775E0,3.798605800E-1
6.743998997E0,-1.853839397E0,-4.247260094E0,1.262213886E-1
6.748775195E0,-1.792822361E0,-4.536193371E0,-1.286142170E-1
6.753551393E0,-1.669592023E0,-4.868197441E0,-4.121637046E-1
6.758327591E0,-1.546361685E0,-5.257629395E0,-6.855437160E-1
6.763103789E0,-1.389631748E0,-5.758327484E0,-9.834501147E-1
6.767866705E0,-1.189232826E0,-6.354738712E0,-1.190429211E0
6.772656185E0,-1.064207911E0,-7.091728210E0,-1.397408366E0
6.777432383E0,-9.720842242E-1,-7.978269100E0,-1.574477315E0
6.782195247E0,-6.963114142E-1,-8.935996056E0,-2.151147604E0
6.786984778E0,-3.475574851E-1,-1.006660461E1,-3.270390272E0
6.791760976E0,4.307080805E-2,-1.135155106E1,-4.735395908E0
6.796523841E0,3.086741269E-1,-1.289611721E1,-6.391229153E0
6.801313372E0,6.693921089E-1,-1.470628834E1,-8.325826645E0
6.806089570E0,1.031306505E0,-1.673779488E1,-1.081196880E1
6.810852435E0,1.679761529E0,-1.911925125E1,-1.427857113E1
6.815641914E0,2.682952404E0,-2.239502525E1,-2.009791565E1
6.820418112E0,4.797609329E0,-2.659263420E1,-2.659921455E1
6.825181028E0,8.574680328E0,-3.069692421E1,-2.807020187E1
6.829970508E0,1.349193001E1,-3.253221893E1,-2.397249413E1
6.834746705E0,1.720977783E1,-3.203511047E1,-1.707637787E1
6.839509622E0,1.775713730E1,-2.962254524E1,-1.102433205E1
6.844299101E0,1.285185051E1,-2.536750984E1,-7.282555580E0
6.849075299E0,7.149155617E0,-2.095933151E1,-5.432305813E0
6.853838164E0,4.606183529E0,-1.715055656E1,-4.596612453E0
6.858627695E0,3.483351469E0,-1.380539036E1,-4.324428558E0
6.863403893E0,2.961716175E0,-1.090588760E1,-4.006781578E0
6.868166758E0,2.344966173E0,-8.368897438E0,-3.203989506E0
6.872956289E0,1.569691658E0,-6.087938786E0,-1.982453585E0
6.877732487E0,8.075776696E-1,-4.003790379E0,-9.864411354E-1
6.882495351E0,5.922235921E-2,-2.199602127E0,-2.548356056E-1
6.887284883E0,-6.729813814E-1,-8.626125455E-1,5.258227587E-1
6.892061028E0,-1.417747378E0,-8.434699476E-2,1.320838094E0
6.896823945E0,-2.035693884E0,1.112662554E-1,2.303091764E0
6.901613424E0,-2.539382935E0,-7.836493850E-2,3.072982550E0
6.906389622E0,-2.832503796E0,-5.700899959E-1,3.104089260E0
6.911152539E0,-2.671586514E0,-1.421934843E0,2.528017044E0
6.915942018E0,-2.106282234E0,-2.605783939E0,1.743769526E0
6.920718216E0,-1.367498159E0,-4.106681824E0,1.174875975E0
6.925481133E0,-7.130611539E-1,-5.815157413E0,7.160521746E-1
6.930270612E0,-2.051845491E-1,-7.808378696E0,2.165504545E-1
6.935046810E0,4.666004330E-2,-1.020179939E1,-3.451646566E-1
6.939809674E0,1.435693540E-2,-1.314018536E1,-1.028913736E0
6.944599205E0,3.427718580E-1,-1.656969833E1,-1.983051777E0
6.949375403E0,1.081555843E0,-2.042633057E1,-2.963510752E0
6.954138268E0,2.788834810E0,-2.472922325E1,-3.098705292E0
6.958927799E0,5.788836002E0,-2.856192780E1,-2.334796667E0
6.963703945E0,8.051848412E0,-3.061855888E1,-2.181057930E0
6.968466862E0,7.252047062E0,-2.963690376E1,-4.025924206E0
6.973256341E0,4.724628448E0,-2.560978317E1,-6.750751019E0
6.978032539E0,2.270788670E0,-1.995913124E1,-7.495516777E0
6.982795455E0,-2.033899166E-2,-1.463211060E1,-5.831906796E0
6.987584935E0,-1.936391711E0,-1.043629551E1,-3.477967739E0
6.992361133E0,-3.528217077E0,-7.121638298E0,-1.317248821E0
6.997124049E0,-4.185645103E0,-4.397409916E0,-6.281159073E-2
7.001913528E0,-4.094119549E0,-2.191227436E0,5.682953596E-1
7.006689726E0,-4.021736622E0,-5.042873621E-1,8.255237937E-1
7.011452591E0,-4.558327198E0,7.178468108E-1,9.044869542E-1
7.016242122E0,-5.918048382E0,1.287936807E0,5.467599630E-1
7.021018320E0,-7.527820110E0,1.202393413E0,2.530409992E-1
7.025781185E0,-8.720642090E0,7.950153351E-1,2.303091735E-1
7.030570716E0,-9.342776299E0,2.147558331E-1,1.046859920E-1
7.035346914E0,-9.675378799E0,-3.732803464E-1,-1.238285750E-1
7.040109778E0,-8.846863747E0,-9.834501147E-1,-3.583251834E-1
7.044899258E0,-7.418946743E0,-1.485344648E0,-4.755735099E-1
7.049675455E0,-6.122634888E0,-1.934597135E0,-3.379862010E-1
7.054451653E0,-4.968098164E0,-2.467000246E0,-1.280160099E-1
7.059227851E0,-4.041477680E0,-3.125624657E0,8.434699476E-2
7.064004049E0,-3.399602890E0,-3.923032761E0,4.749752879E-1
7.068766966E0,-3.145963669E0,-4.795216560E0,9.678967595E-1
7.073556445E0,-3.310470104E0,-5.831308842E0,1.478764415E0
7.078332643E0,-3.717249870E0,-7.056434155E0,2.023729801E0
7.083095508E0,-4.167100430E0,-8.387441635E0,2.401795626E0
7.087885039E0,-4.570889473E0,-9.732208252E0,2.682952404E0
7.092661237E0,-4.917848587E0,-1.102971554E1,2.834298372E0
7.097424101E0,-5.008776188E0,-1.241755295E1,2.768495798E0
7.102213633E0,-4.440480709E0,-1.415952778E1,2.166700840E0
7.106989830E0,-3.263810158E0,-1.596311760E1,1.408774376E0
7.111752695E0,-1.795215130E0,-1.754896164E1,1.138385415E0
7.116542226E0,-3.236292601E-1,-1.867777443E1,1.539183140E0
7.121318424E0,1.443470240E0,-1.924786568E1,2.385046005E0
7.126081289E0,3.019144058E0,-1.897986984E1,3.442075491E0
7.130870768E0,3.546761274E0,-1.785643959E1,4.719842434E0
7.135646966E0,3.456432343E0,-1.602114487E1,5.736194134E0
7.140409883E0,3.291327477E0,-1.421037579E1,6.234499454E0
7.145199362E0,3.367897987E0,-1.286082363E1,6.166304111E0
7.149975560E0,3.470789194E0,-1.184865952E1,5.608776093E0
7.154738476E0,3.407379389E0,-1.099621677E1,4.989035130E0
7.159527955E0,3.592823267E0,-1.039322472E1,4.541577339E0
7.164304153E0,4.213760853E0,-9.890133858E0,2.896511793E0
7.169067018E0,4.825725079E0,-9.473184586E0,1.213759303E0
7.173856549E0,5.315057278E0,-9.215956688E0,-2.679961324E-1
7.178632747E0,5.581258774E0,-9.272786140E0,-1.103689432E0
7.183395612E0,5.673382282E0,-9.479166985E0,-1.771286964E0
7.188185143E0,5.547161102E0,-9.691530228E0,-2.288734913E0
7.192961341E0,5.222933769E0,-9.880562782E0,-2.493321180E0
7.197724205E0,4.734199524E0,-1.007438183E1,-2.471785784E0
7.202513737E0,4.168895245E0,-1.022034359E1,-2.348555326E0
7.207289883E0,3.551547050E0,-1.031306553E1,-2.210369825E0
7.212052799E0,2.991028309E0,-1.041595650E1,-2.092523336E0
7.216842278E0,2.172683001E0,-1.045603657E1,-2.050050735E0
7.221618476E0,1.246660590E0,-1.050688457E1,-1.891526341E0
7.226381393E0,3.056831062E-1,-1.044646549E1,-1.694716692E0
7.231170872E0,-3.493520916E-1,-1.037587738E1,-1.365105271E0
7.235947070E0,-6.574280262E-1,-1.022752190E1,-1.075573802E0
7.240709935E0,-8.560323119E-1,-9.929615974E0,-7.627122402E-1
7.245499466E0,-9.218349457E-1,-9.597013474E0,-4.654040039E-1
7.250275664E0,-9.786644578E-1,-9.202795982E0,-1.824527234E-1
7.255038528E0,-1.150349498E0,-8.663214684E0,3.948157281E-2
7.259828060E0,-1.392622828E0,-8.206185341E0,3.140579760E-1
7.264604258E0,-1.663609982E0,-7.764111042E0,6.077769399E-1
7.269367122E0,-1.929811478E0,-7.340581894E0,8.051848412E-1
7.274156653E0,-2.082952023E0,-7.052246571E0,8.679963946E-1
7.278932851E0,-2.164906263E0,-6.951149940E0,7.148557901E-1
7.283695716E0,-2.228316069E0,-6.979863644E0,3.798605800E-1
7.288485195E0,-2.139781713E0,-7.013363361E0,1.202393398E-1
7.293261393E0,-1.940579176E0,-7.031907558E0,1.854437590E-2
7.298037591E0,-1.688734531E0,-7.074978352E0,2.991028363E-3
7.302813789E0,-1.469193101E0,-7.213762283E0,4.965107143E-2
7.307589987E0,-1.296909928E0,-7.381857872E0,1.399801224E-1
7.312366185E0,-1.124626637E0,-7.579864025E0,1.633101404E-1
7.317142383E0,-8.853443861E-1,-7.810173035E0,1.812563092E-1
7.321918580E0,-5.138586760E-1,-8.011768341E0,2.416750938E-1
7.326694778E0,-1.561316848E-1,-8.169694901E0,2.883351147E-1
7.331470976E0,2.446661144E-1,-8.356334686E0,3.631108403E-1
7.336247174E0,6.071787477E-1,-8.577073097E0,3.661018610E-1
7.341010039E0,9.020941257E-1,-8.803194046E0,2.973082066E-1
7.345799570E0,1.168893814E0,-9.072386742E0,1.716850251E-1
7.350575768E0,1.486541033E0,-9.288339615E0,-1.040877849E-1
7.355338633E0,1.741974831E0,-9.460622787E0,-4.313062727E-1
7.360128164E0,1.954337835E0,-9.633503914E0,-8.350951076E-1
7.364904362E0,2.170888424E0,-9.796216011E0,-1.253839016E0
7.369667226E0,2.344966173E0,-9.936196327E0,-1.686341763E0
7.374456705E0,2.428714991E0,-1.005583763E1,-2.075175524E0
7.379232903E0,2.436491728E0,-1.016650486E1,-2.416750908E0
7.383995820E0,2.359323025E0,-1.026281643E1,-2.665604353E0
7.388785299E0,2.215753794E0,-1.031605625E1,-2.794218540E0
7.393561497E0,1.987239242E0,-1.033579731E1,-2.845664263E0
7.398324414E0,1.777867198E0,-1.029332447E1,-2.834896564E0
7.403113893E0,1.716252089E0,-1.021615601E1,-2.748754978E0
7.407890091E0,1.597807288E0,-1.010608673E1,-2.613560438E0
7.412666289E0,1.436890006E0,-9.952347755E0,-2.416152716E0
7.417442487E0,1.366301775E0,-9.793225288E0,-2.151745796E0
7.422218685E0,1.434497118E0,-9.711270332E0,-1.854437590E0
7.426994883E0,1.588834286E0,-9.744770050E0,-1.505085468E0
7.431771080E0,1.810170293E0,-9.874580383E0,-1.146162033E0
7.436547278E0,2.041675806E0,-1.005763149E1,-7.680960894E-1
7.441323476E0,2.254039049E0,-1.026879883E1,-3.948157430E-1
7.446099674E0,2.471187592E0,-1.049013424E1,-1.615155302E-2
7.450875872E0,2.711666346E0,-1.065822983E1,3.278166950E-1
7.455638737E0,2.875574589E0,-1.076411247E1,6.484549642E-1
7.460428216E0,2.977269650E0,-1.078804111E1,9.403793216E-1
7.465204414E0,3.097508907E0,-1.071565819E1,1.170688510E0
7.469967330E0,3.207578659E0,-1.062353420E1,1.351944804E0
7.474756810E0,3.236890793E0,-1.057567787E1,1.553540111E0
7.479533008E0,3.110071182E0,-1.057149029E1,1.760519266E0
7.484295924E0,2.801995277E0,-1.061994553E1,1.891526341E0
7.489085403E0,2.336591244E0,-1.072223854E1,1.985444546E0
7.493861601E0,1.770688772E0,-1.086820030E1,2.012363911E0
7.498624518E0,1.004985452E0,-1.096211910E1,1.982453585E0
7.503413997E0,3.577269912E-1,-1.111765194E1,1.808375716E0
7.508190195E0,-1.142572835E-1,-1.133061314E1,1.576271892E0
7.512953060E0,-4.474578202E-1,-1.154357433E1,1.400399446E0
7.517742591E0,-7.334001660E-1,-1.170269775E1,1.287338614E0
7.522518789E0,-1.080957651E0,-1.187198925E1,1.073180914E0
7.527281653E0,-1.458425403E0,-1.201256752E1,8.009973764E-1
7.532071185E0,-1.697109461E0,-1.210528946E1,6.538388133E-1
7.536847383E0,-1.859821439E0,-1.225484085E1,3.960121572E-1
7.541610247E0,-1.616949916E0,-1.247557926E1,3.469592929E-1
7.546399726E0,-1.430309772E0,-1.268196011E1,3.840480447E-1
7.551175976E0,-1.153340459E0,-1.283569908E1,5.078766346E-1
7.555952122E0,-6.430711150E-1,-1.297867012E1,5.772684813E-1
7.560728320E0,5.204389244E-2,-1.319940758E1,5.258227587E-1
7.565504518E0,6.945167780E-1,-1.338544941E1,4.552344978E-1
7.570267435E0,1.360917926E0,-1.354277802E1,3.990031779E-1
7.575056914E0,2.069193363E0,-1.363250923E1,3.523431420E-1
7.579833112E0,2.797209740E0,-1.366421413E1,3.248256743E-1
7.584596028E0,3.377469063E0,-1.377368546E1,1.489532143E-1
7.589385508E0,3.803989887E0,-1.391725445E1,-2.087737769E-1
7.594161705E0,4.238885403E0,-1.408415413E1,-6.472585201E-1
7.598924570E0,4.713262558E0,-1.423250866E1,-9.948160052E-1
7.603714101E0,5.149952412E0,-1.422652721E1,-1.184447169E0
7.608490299E0,5.261816978E0,-1.408116341E1,-1.415952802E0
7.613253164E0,4.892724037E0,-1.384128284E1,-1.859821439E0
7.618042695E0,4.336392879E0,-1.353918839E1,-2.352144718E0
7.622818893E0,3.716053486E0,-1.324666595E1,-2.584248543E0
7.627581758E0,3.180061340E0,-1.291047478E1,-2.792423964E0
7.632371289E0,2.892922640E0,-1.257368469E1,-2.906681299E0
7.637147487E0,2.553740025E0,-1.216570854E1,-3.029911757E0
7.641910351E0,2.141576290E0,-1.166501045E1,-3.142972469E0
7.646699830E0,1.688734531E0,-1.109312534E1,-3.054438114E0
7.651476028E0,1.316650629E0,-1.047218800E1,-2.913859844E0
7.656238945E0,9.068797827E-1,-9.833304405E0,-2.609971285E0
7.661028424E0,4.779663086E-1,-9.221938133E0,-2.440679073E0
7.665804622E0,1.058823988E-1,-8.746364594E0,-2.391027927E0
7.670567539E0,-2.889333367E-1,-8.376075745E0,-2.124826431E0
7.675357018E0,-7.202396393E-1,-8.136195183E0,-1.729412556E0
7.680133216E0,-1.361516118E0,-8.065607071E0,-1.486541033E0
7.684896133E0,-2.048854351E0,-8.173283577E0,-1.189232826E0
7.689685612E0,-2.334198475E0,-8.501698494E0,-5.401797295E-1
7.694461810E0,-2.304886341E0,-8.994022369E0,1.561316848E-1
7.699224674E0,-2.075175524E0,-9.682557106E0,7.262216806E-1
7.704014205E0,-1.979462504E0,-1.041954613E1,1.206580877E0
7.708790403E0,-2.050648928E0,-1.104168034E1,1.672582984E0
7.713553268E0,-2.341975212E0,-1.157707405E1,2.125424623E0
7.718342799E0,-2.818745136E0,-1.194437218E1,2.464009047E0
7.723118997E0,-3.402593851E0,-1.217767239E1,2.615953445E0
7.727881862E0,-4.039084435E0,-1.224646664E1,2.633899450E0
7.732671393E0,-4.592424870E0,-1.222852039E1,2.502294302E0
7.737447539E0,-5.031507969E0,-1.223928738E1,2.207378864E0
7.742210455E0,-5.305486202E0,-1.228774261E1,1.743171334E0
7.746999935E0,-5.358128071E0,-1.241276741E1,8.554341197E-1
7.751776133E0,-5.326423168E0,-1.255633640E1,-2.626122832E-1
7.756539049E0,-5.370092392E0,-1.262333584E1,-1.270588875E0
7.761328528E0,-5.283352375E0,-1.260359478E1,-1.875374794E0
7.766104726E0,-4.951946259E0,-1.271366501E1,-2.160120726E0
7.770880924E0,-4.798207760E0,-1.278604794E1,-1.191027522E0
7.775657122E0,-4.341776848E0,-1.279023552E1,-4.546363056E-1
7.780433320E0,-3.422932863E0,-1.287458229E1,-3.541377485E-1
7.785196185E0,-2.618346214E0,-1.303609753E1,-1.173679471E0
7.789985716E0,-2.347957134E0,-1.295294762E1,-1.986042738E0
7.794761914E0,-1.541576028E0,-1.279681587E1,-2.355733871E0
7.799524778E0,-7.094719410E-1,-1.257787228E1,-2.345564365E0
7.804314310E0,5.324030295E-2,-1.250907898E1,-2.037488461E0
7.809090508E0,2.279163599E-1,-1.257129192E1,-1.563111424E0
7.813853372E0,2.943171859E-1,-1.270648670E1,-8.482556343E-1
7.818642903E0,6.454638839E-1,-1.284527016E1,-2.315055877E-1
7.823419101E0,1.227517962E0,-1.271426296E1,5.383851007E-2
7.828181966E0,2.030908108E0,-1.231226921E1,1.645065546E-1
7.832971445E0,3.515056372E0,-1.175952721E1,4.061816335E-1
7.837747643E0,4.204787731E0,-1.141555882E1,-1.405783296E-1
7.842510560E0,3.760320902E0,-1.107936668E1,-1.159920812E0
7.847300039E0,3.348157167E0,-1.075693417E1,-1.451246977E0
7.852076237E0,3.374478102E0,-1.050688457E1,-8.081758618E-1
7.856839153E0,3.331407309E0,-1.026640511E1,3.170489892E-2
7.861628633E0,2.780459881E0,-9.892526627E0,3.702892959E-1
7.866404830E0,1.756929994E0,-9.407979965E0,5.288137794E-1
7.871167747E0,7.471588850E-1,-8.876175880E0,6.293123364E-1
7.875957226E0,-7.238288224E-2,-8.352746010E0,6.526423693E-1
7.880733424E0,-6.209374666E-1,-7.804789066E0,6.981059909E-1
7.885496341E0,-1.150947690E0,-7.252047062E0,7.292127013E-1
7.890285820E0,-1.670788407E0,-6.684948444E0,7.603194118E-1
7.895062018E0,-2.090728760E0,-6.088537216E0,8.099704385E-1
7.899824883E0,-2.379063845E0,-5.472983360E0,8.159525394E-1
7.904614414E0,-2.438884497E0,-4.822135925E0,7.148557901E-1
7.909390612E0,-2.450848579E0,-4.215555191E0,5.563312769E-1
7.914153476E0,-2.358724833E0,-3.665804386E0,3.924229145E-1
7.918943008E0,-2.203191519E0,-3.217149973E0,2.763710022E-1
7.923719205E0,-2.171486616E0,-2.826521635E0,2.422732860E-1
7.928482070E0,-2.215155602E0,-2.504088879E0,2.757728100E-1
7.933271601E0,-2.387438774E0,-2.273181438E0,3.050848842E-1
7.938047747E0,-2.530410051E0,-2.148754835E0,3.248256743E-1
7.942810664E0,-2.545365095E0,-2.062014818E0,2.578266263E-1
7.947600143E0,-2.360519648E0,-2.056631088E0,1.944168359E-1
7.952376341E0,-2.184048891E0,-2.128415823E0,8.853443712E-2
7.957139258E0,-2.122433662E0,-2.272583246E0,-2.213360928E-2
7.961928737E0,-2.065604210E0,-2.479562521E0,-9.990034252E-2
7.966704935E0,-1.969292998E0,-2.686541557E0,-9.032905847E-2
7.971481133E0,-1.768894196E0,-2.883351326E0,-4.307080805E-2
7.976257330E0,-1.558325768E0,-3.061018467E0,4.725824669E-2
7.981033528E0,-1.414756417E0,-3.162713289E0,1.806581169E-1
7.985809726E0,-1.366301775E0,-3.224926710E0,3.391826153E-1
7.990585924E0,-1.356132269E0,-3.220141172E0,4.492524564E-1
7.995362122E0,-1.436890006E0,-3.210569859E0,4.737788737E-1
8.000138320E0,-1.456032634E0,-3.196212769E0,4.259224236E-1
8.004914518E0,-1.423729420E0,-3.196212769E0,2.865405083E-1
8.009690716E0,-1.386640668E0,-3.210569859E0,8.973085135E-2
8.014466914E0,-1.463211060E0,-3.297309637E0,-7.298108935E-2
8.019243112E0,-1.525424480E0,-3.461217880E0,-1.597209126E-1
8.024019310E0,-1.549352646E0,-3.672982693E0,-3.367897868E-1
8.028795508E0,-1.635494232E0,-3.909274101E0,-5.808576941E-1
8.033571705E0,-1.702493310E0,-4.183252335E0,-8.057830334E-1
8.038347903E0,-1.598405480E0,-4.496711731E0,-9.643075466E-1
8.043124101E0,-1.194018483E0,-4.828117847E0,-1.109671474E0
8.047900299E0,-8.452646136E-1,-5.221737385E0,-1.226919770E0
8.052676497E0,-7.872386575E-1,-5.689534187E0,-1.313659668E0
8.057439362E0,-7.914260626E-1,-6.272186279E0,-1.500299811E0
8.062228893E0,-6.813562512E-1,-6.936792850E0,-1.788036704E0
8.067005039E0,-4.923232496E-1,-7.639684677E0,-2.301895380E0
8.071767955E0,-2.572284341E-1,-8.428119659E0,-3.132802963E0
8.076557435E0,-2.135594189E-1,-9.386445045E0,-4.341776848E0
8.081333633E0,-2.404786795E-1,-1.057089233E1,-6.260222435E0
8.086096549E0,2.255235314E-1,-1.215853024E1,-9.587442398E0
8.090886028E0,9.792626500E-1,-1.447597885E1,-1.509452343E1
8.095662226E0,3.573082447E0,-1.894158363E1,-2.361297226E1
8.100425143E0,7.363911629E0,-2.570370102E1,-2.978047180E1
8.105214622E0,1.284945774E1,-3.230729294E1,-2.462633324E1
8.109990820E0,1.828714752E1,-3.683211899E1,-1.456391525E1
8.114753685E0,2.264148521E1,-3.917050552E1,-9.445069313E0
8.119543216E0,2.075654030E1,-3.892942810E1,-8.624331474E0
8.124319414E0,1.022393322E1,-3.356412506E1,-8.012366295E0
8.129082278E0,3.577867985E0,-2.643590546E1,-7.267600536E0
8.133871810E0,2.254039049E0,-2.037368774E1,-7.375277519E0
8.138648008E0,2.281556368E0,-1.555095482E1,-7.296912670E0
8.143410872E0,2.286940336E0,-1.182174015E1,-6.815357208E0
8.148200403E0,1.956132531E0,-8.667402267E0,-6.249454498E0
8.152976601E0,1.408774376E0,-5.898906231E0,-5.687141418E0
8.157739466E0,8.003991842E-1,-3.506083488E0,-4.999204636E0
8.162528997E0,5.144568533E-2,-1.470389485E0,-4.362713814E0
8.167305195E0,-7.411768436E-1,3.008974493E-1,-3.832703590E0
8.172068060E0,-1.636092424E0,1.400399446E0,-2.499303341E0
8.176857539E0,-3.067598581E0,2.027917147E0,-1.297508121E0
8.181633737E0,-4.492524624E0,2.110469580E0,-4.666004330E-2
8.186396653E0,-5.449653625E0,1.636092424E0,1.042672515E0
8.191186133E0,-5.504090309E0,6.861419082E-1,1.749153376E0
8.195962330E0,-4.901099205E0,-5.264210105E-1,1.746760488E0
8.200725247E0,-4.042674065E0,-1.868196249E0,1.378864050E0
8.205514726E0,-3.123830080E0,-3.335594654E0,6.837490797E-1
8.210290924E0,-2.386840582E0,-4.898705959E0,-1.926222295E-1
8.215053841E0,-1.791027784E0,-6.708876610E0,-1.009771109E0
8.219843320E0,-1.370489120E0,-8.740383148E0,-1.754537225E0
8.224619518E0,-7.016952634E-1,-1.101715374E1,-2.543570518E0
8.229382383E0,-3.050848842E-2,-1.361695576E1,-3.082553864E0
8.234171914E0,7.435696125E-1,-1.668874168E1,-3.376870871E0
8.238948112E0,1.629512191E0,-2.022234154E1,-3.518645763E0
8.243710976E0,2.784049034E0,-2.391028023E1,-3.396611691E0
8.248500508E0,4.974678040E0,-2.715674210E1,-3.228515863E0
8.253276705E0,7.583453178E0,-2.910689354E1,-3.250051260E0
8.258039570E0,8.913264275E0,-2.859243584E1,-4.112065792E0
8.262829101E0,7.601997375E0,-2.508754921E1,-5.830710411E0
8.267605299E0,4.660620213E0,-1.975095558E1,-6.404389858E0
8.272368164E0,2.423929453E0,-1.457886982E1,-4.514657974E0
8.277157695E0,9.954141974E-1,-1.045902824E1,-1.660020709E0
8.281933893E0,1.668993831E-1,-7.407580853E0,5.306084156E-1
8.286696758E0,-6.442674994E-1,-5.106881618E0,1.473978758E0
8.291486289E0,-1.173081279E0,-3.422334671E0,1.485344648E0
8.296262487E0,-1.862812400E0,-2.171486616E0,1.363310695E0
8.301025351E0,-2.698505640E0,-1.406979680E0,1.208375454E0
8.305814883E0,-3.947559118E0,-1.135394335E0,9.218349457E-1
8.310591028E0,-5.711069584E0,-1.211964726E0,4.797609448E-1
8.315353945E0,-7.292127132E0,-1.537986755E0,-2.452643216E-2
8.320143424E0,-8.462217331E0,-1.950150490E0,-2.542374134E-1
8.324919622E0,-8.804390907E0,-2.432902336E0,-4.773681164E-1
8.329682539E0,-8.328219414E0,-2.947359324E0,-5.659025311E-1
8.334472018E0,-7.488936901E0,-3.287738323E0,-4.450650215E-1
8.339248216E0,-6.211169243E0,-3.611965895E0,-2.404786795E-1
8.344011133E0,-5.310869694E0,-3.860221148E0,-1.250249892E-1
8.348800612E0,-4.571487427E0,-4.113860130E0,6.819544733E-2
8.353576810E0,-3.973282099E0,-4.512863636E0,3.774677813E-1
8.358353008E0,-3.522833109E0,-4.954937458E0,6.969096065E-1
8.363129205E0,-3.166302681E0,-5.465207100E0,1.113260746E0
8.367905403E0,-3.067000389E0,-6.182455540E0,1.463211060E0
8.372668268E0,-3.100499868E0,-7.083951473E0,1.713261008E0
8.377457799E0,-3.257827997E0,-8.072187424E0,1.887937069E0
8.382233997E0,-3.425923824E0,-8.978468895E0,2.023729801E0
8.386996862E0,-3.594019651E0,-9.797411919E0,2.111067772E0
8.391786393E0,-3.786641836E0,-1.058824062E1,2.045863390E0
8.396562591E0,-3.733401537E0,-1.163809109E1,1.667199135E0
8.401325455E0,-3.332005501E0,-1.302413368E1,1.104885817E0
8.406114987E0,-2.450848579E0,-1.441436386E1,6.065805554E-1
8.410891185E0,-1.424925923E0,-1.563589954E1,4.773681164E-1
8.415654049E0,-3.643072546E-1,-1.651466370E1,7.363911867E-1
8.420443580E0,7.818548083E-1,-1.689751625E1,1.225125194E0
8.425219726E0,1.914856315E0,-1.677966881E1,2.164308071E0
8.429982643E0,2.563909531E0,-1.604626846E1,3.629313707E0
8.434772122E0,2.781656265E0,-1.485643768E1,4.913661480E0
8.439548320E0,2.891726255E0,-1.373898983E1,5.660820007E0
8.444311237E0,2.965305567E0,-1.277528000E1,5.755934715E0
8.449100716E0,3.147758245E0,-1.210050392E1,5.557928562E0
8.453876914E0,3.347558975E0,-1.166082287E1,5.081159115E0
8.458639830E0,3.640679598E0,-1.140000534E1,4.052245140E0
8.463429310E0,4.413561344E0,-1.105962658E1,1.547558069E0
8.468205508E0,5.009972572E0,-1.064267731E1,-3.415754437E-1
8.472968424E0,5.158327579E0,-1.048295593E1,-9.230313301E-1
8.477757903E0,5.141577721E0,-1.056969547E1,-1.427318692E0
8.482534101E0,5.167898655E0,-1.076231766E1,-1.825125456E0
8.487297018E0,5.134997368E0,-1.103689480E1,-1.954337835E0
8.492086497E0,4.979464054E0,-1.133599758E1,-1.910070658E0
8.496862695E0,4.809573650E0,-1.156750298E1,-1.746162295E0
8.501625560E0,4.569094658E0,-1.168415260E1,-1.533799291E0
8.506415091E0,4.141377926E0,-1.173320580E1,-1.354337573E0
8.511191289E0,3.561716557E0,-1.174935722E1,-1.298106313E0
8.515967487E0,2.662613392E0,-1.167876911E1,-1.293918848E0
8.520743685E0,1.710269928E0,-1.148853970E1,-1.274178028E0
8.525519883E0,8.297112584E-1,-1.118764210E1,-1.178465128E0
8.530282747E0,2.590230405E-1,-1.076471043E1,-9.403793216E-1
8.535072278E0,-1.465603858E-1,-1.025563812E1,-7.806583643E-1
8.539848476E0,-4.462614357E-1,-9.653842926E0,-5.012963414E-1
8.544611341E0,-7.842476368E-1,-8.913264275E0,-1.501496136E-1
8.549400872E0,-1.045663476E0,-8.167302132E0,2.542374134E-1
8.554177070E0,-1.621137381E0,-7.316055298E0,7.746763229E-1
8.558939935E0,-2.228914261E0,-6.571289062E0,1.377667665E0
8.563729466E0,-2.617748022E0,-5.945566177E0,1.983649969E0
8.568505664E0,-2.787638426E0,-5.464608669E0,2.420938253E0
8.573268528E0,-2.693121910E0,-5.290530682E0,2.444268227E0
8.578058008E0,-2.559721947E0,-5.372485161E0,1.584646821E0
8.582834205E0,-2.563311338E0,-5.646463394E0,8.793623000E-2
8.587597122E0,-2.627319336E0,-5.953940868E0,-1.222134113E0
8.592386601E0,-2.673979282E0,-6.238088608E0,-1.984248161E0
8.597162799E0,-2.755335331E0,-6.464808464E0,-2.190030813E0
8.601925716E0,-2.705684185E0,-6.729813576E0,-1.959721804E0
8.606715195E0,-2.573480844E0,-6.979863644E0,-1.548156261E0
8.611491393E0,-2.274377823E0,-7.263412952E0,-9.349954724E-1
8.616267591E0,-1.850848317E0,-7.474579811E0,-3.373879790E-1
8.621043789E0,-1.295115232E0,-7.743772507E0,2.554338276E-1
8.625819987E0,-6.675975323E-1,-8.017151833E0,7.178468108E-1
8.630582851E0,-8.973085135E-2,-8.280363083E0,1.045663476E0
8.635372383E0,3.984049559E-1,-8.553742409E0,1.240678549E0
8.640148580E0,8.177471161E-1,-8.803792953E0,1.296311617E0
8.644911497E0,1.170688510E0,-9.048459053E0,1.213161111E0
8.649700976E0,1.389033556E0,-9.274580956E0,1.033699393E0
8.654477174E0,1.544566989E0,-9.476176262E0,7.118647099E-1
8.659240039E0,1.642074585E0,-9.649057388E0,2.081755698E-1
8.664029570E0,1.819741607E0,-9.787840843E0,-3.020938635E-1
8.668805768E0,2.002792597E0,-9.932606697E0,-8.303094506E-1
8.673568633E0,2.151745796E0,-1.002831936E1,-1.373480201E0
8.678358164E0,2.224726915E0,-1.013838959E1,-1.925624013E0
8.683134362E0,2.255833626E0,-1.019581699E1,-2.434697151E0
8.687897226E0,2.200200319E0,-1.021974564E1,-2.918645382E0
8.692686758E0,2.040479422E0,-1.021974564E1,-3.335594654E0
8.697462955E0,1.829312921E0,-1.018684387E1,-3.641875982E0
8.702225820E0,1.704886079E0,-1.015813065E1,-3.814159393E0
8.707015351E0,1.757528186E0,-1.007617569E1,-3.742374659E0
8.711791549E0,1.887338877E0,-9.999007225E0,-3.445664644E0
8.716567695E0,1.908874273E0,-9.926624298E0,-3.013760090E0
8.721343893E0,1.902294040E0,-9.975079536E0,-2.466402054E0
8.726120091E0,2.010569334E0,-1.011446095E1,-1.938784599E0
8.730896289E0,2.105085611E0,-1.036989498E1,-1.421336651E0
8.735672487E0,2.146960020E0,-1.067318535E1,-9.218349457E-1
8.740448685E0,2.164906263E0,-1.096810055E1,-4.612165689E-1
8.745211601E0,2.283350945E0,-1.122293663E1,-2.452643216E-2
8.750001080E0,2.481357098E0,-1.140120125E1,3.535395563E-1
8.754777278E0,2.773281336E0,-1.151605701E1,6.687939167E-1
8.759540195E0,3.032304525E0,-1.155852985E1,9.212366939E-1
8.764329674E0,3.242274761E0,-1.149571800E1,1.160519004E0
8.769105872E0,3.377469063E0,-1.137488079E1,1.390229940E0
8.773868789E0,3.473181963E0,-1.124028397E1,1.624726534E0
8.778658268E0,3.488735437E0,-1.114397335E1,1.840678811E0
8.783434466E0,3.317648649E0,-1.111525917E1,1.980060697E0
8.788197383E0,2.947359324E0,-1.111645603E1,2.068595171E0
8.792986862E0,2.371885538E0,-1.118524933E1,2.062014818E0
8.797763060E0,1.661815286E0,-1.131685448E1,1.820937991E0
8.802525924E0,1.246660590E0,-1.149571800E1,1.497308731E0
8.807315455E0,1.083350420E0,-1.167936707E1,1.239482164E0
8.812091653E0,7.926225066E-1,-1.180977631E1,1.000199914E0
8.816854518E0,4.725824594E-1,-1.193061352E1,7.286145091E-1
8.821644049E0,1.770688742E-1,-1.205204964E1,5.288137794E-1
8.826420247E0,-6.640082598E-2,-1.216391373E1,4.103690982E-1
8.831183112E0,-1.046859920E-1,-1.232243824E1,3.146561682E-1
8.835972643E0,-6.101697683E-2,-1.251027489E1,3.529413342E-1
8.840748841E0,5.563312769E-2,-1.265444279E1,5.778666735E-1
8.845525039E0,1.956132501E-1,-1.271246815E1,8.745766878E-1
8.850301237E0,3.158525825E-1,-1.274596786E1,1.085743308E0
8.855077435E0,4.923232496E-1,-1.282732391E1,1.195214868E0
8.859853633E0,7.639086246E-1,-1.294696522E1,1.160519004E0
8.864629830E0,1.182652593E0,-1.311924839E1,1.018744230E0
8.869406028E0,1.637887120E0,-1.322931862E1,7.573283911E-1
8.874182226E0,2.126022816E0,-1.327119255E1,4.283152521E-1
8.878958424E0,2.627917528E0,-1.328435326E1,4.725824669E-2
8.883734570E0,3.153740168E0,-1.333101273E1,-3.349951804E-1
8.888497487E0,3.651447296E0,-1.337767315E1,-7.070791125E-1
8.893287018E0,4.048655987E0,-1.350688553E1,-1.116850019E0
8.898063164E0,4.460221291E0,-1.359721470E1,-1.517647743E0
8.902826080E0,4.820939541E0,-1.363430309E1,-1.740180254E0
8.907615560E0,4.753342152E0,-1.355294704E1,-1.912463546E0
8.912391758E0,4.189832687E0,-1.339023590E1,-2.082353830E0
8.917154674E0,3.498904943E0,-1.316471195E1,-2.242074728E0
8.921944153E0,2.992224693E0,-1.284826088E1,-2.393420935E0
8.926720351E0,2.694916487E0,-1.248754311E1,-2.651247501E0
8.931483268E0,2.635095835E0,-1.209811115E1,-2.871985435E0
8.936272747E0,2.590230465E0,-1.161595726E1,-2.948555708E0
8.941048945E0,2.322234392E0,-1.102433205E1,-2.933600664E0
8.945811862E0,1.649253011E0,-1.026939678E1,-2.810370207E0
8.950601341E0,1.013958573E0,-9.519247055E0,-2.827120066E0
8.955377539E0,6.263213158E-1,-8.836095810E0,-2.854039192E0
8.960140455E0,8.255238086E-2,-8.258827209E0,-2.822932482E0
8.964929935E0,-4.360919297E-1,-7.923233986E0,-2.623729944E0
8.969706133E0,-8.907282352E-1,-7.789834023E0,-2.242074728E0
8.974469049E0,-1.314856052E0,-7.738388538E0,-1.496112347E0
8.979258528E0,-1.576271892E0,-7.825726509E0,-7.220342159E-1
8.984034726E0,-1.799402595E0,-8.062616348E0,4.247260094E-2
8.988797591E0,-1.893320918E0,-8.429315567E0,7.483552694E-1
8.993587122E0,-1.722832322E0,-9.046066284E0,1.122832060E0
8.998363320E0,-1.462014675E0,-9.787242889E0,1.380658627E0
9.003126185E0,-1.430309772E0,-1.040399265E1,1.634896040E0
9.007915716E0,-1.683948994E0,-1.093998528E1,1.876571178E0
9.012691914E0,-2.165504456E0,-1.131685448E1,2.172683001E0
9.017454778E0,-2.696711063E0,-1.160219860E1,2.343769789E0
9.022244310E0,-3.200400352E0,-1.178166008E1,2.341377020E0
9.027020508E0,-3.701098442E0,-1.198505020E1,2.137388945E0
9.031783372E0,-4.119842529E0,-1.214536953E1,1.923829436E0
9.036572903E0,-4.472783566E0,-1.237208939E1,1.671386600E0
9.041349101E0,-4.601397991E0,-1.258864021E1,8.566305041E-1
9.046111966E0,-4.713262558E0,-1.262692547E1,-3.379862010E-1
9.050901497E0,-4.970490932E0,-1.257906818E1,-1.224527001E0
9.055677695E0,-5.053641319E0,-1.282014561E1,-9.738788009E-1
9.060440560E0,-5.020142078E0,-1.310429287E1,-1.108475089E0
9.065230039E0,-5.070989609E0,-1.333101273E1,-1.727019787E0
9.070006237E0,-5.086542606E0,-1.347996616E1,-2.005185366E0
9.074769153E0,-5.058426857E0,-1.343210983E1,-2.058425665E0
9.079558633E0,-4.773082733E0,-1.340698528E1,-2.035693884E0
9.084334830E0,-4.176073551E0,-1.342493153E1,-1.703091502E0
9.089111028E0,-3.241078377E0,-1.340399456E1,-1.324427366E0
9.093887278E0,-1.838286042E0,-1.324606800E1,-1.293320656E0
9.098663424E0,-1.800599098E-1,-1.297208977E1,-1.527219057E0
9.103426341E0,1.020538807E0,-1.254497051E1,-1.740180254E0
9.108215820E0,1.875972986E0,-1.218185997E1,-1.773679733E0
9.112992018E0,2.690130949E0,-1.191984558E1,-1.586441398E0
9.117754935E0,3.744169235E0,-1.173918819E1,-9.774680734E-1
9.122544414E0,4.808975220E0,-1.181874943E1,-4.504488707E-1
9.127320612E0,5.487340450E0,-1.179302597E1,9.810572863E-2
9.132083528E0,6.497709751E0,-1.138624668E1,5.437689424E-1
9.136873008E0,6.923034191E0,-1.102911758E1,2.488535494E-1
9.141649205E0,6.547360897E0,-1.077847004E1,-2.775674164E-1
9.146412122E0,5.714658737E0,-1.060259724E1,-2.590230405E-1
9.151201601E0,4.674977303E0,-1.050867844E1,1.686939895E-1
9.155977799E0,3.655036688E0,-1.029033375E1,7.112665176E-1
9.160740664E0,2.770290375E0,-9.945767403E0,9.553344250E-1
9.165530195E0,2.107478619E0,-9.546764374E0,1.001396298E0
9.170306393E0,1.411167145E0,-9.043074608E0,9.475577474E-1
9.175069310E0,6.424728632E-1,-8.408976555E0,7.782655358E-1
9.179858789E0,-1.316052489E-2,-7.822735310E0,5.413761139E-1
9.184634987E0,-6.388836503E-1,-7.235895634E0,3.714857101E-1
9.189397851E0,-1.083350420E0,-6.664011002E0,3.158525825E-1
9.194187383E0,-1.371087432E0,-6.086742401E0,3.409772217E-1
9.198963580E0,-1.529611826E0,-5.508875847E0,3.415754437E-1
9.203726445E0,-1.488933921E0,-4.939982414E0,3.601198196E-1
9.208515976E0,-1.524227977E0,-4.410570145E0,3.164508045E-1
9.213292174E0,-1.625923038E0,-3.947559118E0,2.159522474E-1
9.218055039E0,-1.808973908E0,-3.529413462E0,4.905286431E-2
9.222844570E0,-2.062613010E0,-3.212364435E0,-3.649054468E-2
9.227620768E0,-2.444268227E0,-3.005385160E0,8.374879137E-3
9.232383633E0,-2.734398127E0,-2.822932482E0,8.673982322E-2
9.237173164E0,-3.043670416E0,-2.645863533E0,1.172483116E-1
9.241949362E0,-3.248854876E0,-2.477767944E0,1.274178028E-1
9.246712226E0,-3.330210924E0,-2.333600283E0,7.058826834E-2
9.251501758E0,-3.354737282E0,-2.280359983E0,-1.196411322E-3
9.256277955E0,-3.265006542E0,-2.299502611E0,-9.870393574E-2
9.261040820E0,-3.046063185E0,-2.380858421E0,-1.381855011E-1
9.265830351E0,-2.684148788E0,-2.480758905E0,-1.160518974E-1
9.270606549E0,-2.317448616E0,-2.614757061E0,-5.443671346E-2
9.275382747E0,-2.015953064E0,-2.739781857E0,6.879365444E-2
9.280158945E0,-1.695913076E0,-2.859423161E0,2.015953064E-1
9.284935143E0,-1.428515077E0,-2.959921598E0,3.439682424E-1
9.289711289E0,-1.137787223E0,-3.002394199E0,4.528416991E-1
9.294487487E0,-8.889335990E-1,-3.020938635E0,5.760720372E-1
9.299263685E0,-7.651050687E-1,-3.016152859E0,6.329016089E-1
9.304039883E0,-6.939185858E-1,-3.044866800E0,5.898307562E-1
9.308816080E0,-5.994020700E-1,-3.078964472E0,4.737788737E-1
9.313592278E0,-5.766702294E-1,-3.160320520E0,2.727817893E-1
9.318368476E0,-5.922235847E-1,-3.314657450E0,8.973085321E-3
9.323144674E0,-7.357929349E-1,-3.531208038E0,-2.548356056E-1
9.327920872E0,-1.126421213E0,-3.893122435E0,-5.306084156E-1
9.332697070E0,-1.402194023E0,-4.337589264E0,-6.777670383E-1
9.337473268E0,-1.462612867E0,-4.905884743E0,-7.776673436E-1
9.342249466E0,-1.194616675E0,-5.469394207E0,-8.458628058E-1
9.347012383E0,-6.891329288E-1,-5.983253002E0,-9.918249846E-1
9.351801862E0,-3.086741269E-1,-6.603592396E0,-1.253240824E0
9.356578060E0,6.759724021E-2,-7.310671329E0,-1.686341763E0
9.361340976E0,3.134597540E-1,-8.186444283E0,-2.353939295E0
9.366130455E0,5.443671346E-1,-9.260223389E0,-3.304488182E0
9.370906653E0,5.449653864E-1,-1.058883858E1,-4.618745804E0
9.375669570E0,7.680960894E-1,-1.220219898E1,-6.346364021E0
9.380459049E0,1.481157184E0,-1.409731483E1,-8.321041107E0
9.385235247E0,2.355135679E0,-1.641596031E1,-1.052183914E1
9.389998164E0,3.354737282E0,-1.909651947E1,-1.334178066E1
9.394787643E0,4.829912663E0,-2.282872391E1,-1.856830406E1
9.399563841E0,7.138388157E0,-2.766162872E1,-2.484527588E1
9.404326758E0,1.182951736E1,-3.173122025E1,-2.544228554E1
9.409116237E0,1.650389671E1,-3.349473190E1,-2.126082802E1
9.413892435E0,1.901396751E1,-3.325903702E1,-1.675813293E1
9.418655299E0,1.688854218E1,-3.081417274E1,-1.299183083E1
9.423444830E0,1.061815071E1,-2.617628288E1,-1.042373371E1
9.428221028E0,6.369693756E0,-2.146122551E1,-8.624331474E0
9.432983893E0,4.866403103E0,-1.752922058E1,-7.352545738E0
9.437773424E0,3.838685751E0,-1.415474224E1,-6.370292187E0
9.442549622E0,2.955734253E0,-1.129591751E1,-5.244469166E0
9.447312487E0,2.344367981E0,-8.942576408E0,-3.635894060E0
9.452102018E0,1.459023595E0,-7.022934437E0,-1.923829436E0
9.456878216E0,6.137589812E-1,-5.566303730E0,-3.409772366E-2
9.461641080E0,-4.031906128E-1,-4.552943230E0,1.438684583E0
9.466430612E0,-1.596012712E0,-4.083950043E0,2.769093990E0
9.471206810E0,-2.866003275E0,-4.140181541E0,3.481556892E0
9.475969674E0,-3.618546009E0,-4.580460548E0,3.211766243E0
9.480759205E0,-3.762713671E0,-5.491528034E0,2.435893536E0
9.485535403E0,-3.360121250E0,-6.766304016E0,1.561316729E0
9.490298268E0,-2.398804665E0,-8.569893837E0,5.449653864E-1
9.495087799E0,-1.131206870E0,-1.087896824E1,-3.194418252E-1
9.499863997E0,-1.070788130E-1,-1.353559971E1,-1.488933921E0
9.504626862E0,5.904290080E-1,-1.643869209E1,-2.599203587E0
9.509416393E0,1.733600020E0,-1.958645058E1,-3.274577856E0
9.514192591E0,4.135395527E0,-2.266421700E1,-3.501297712E0
9.518955455E0,6.772884369E0,-2.469093895E1,-2.764906645E0
9.523744987E0,8.675178528E0,-2.428714943E1,-1.070788145E0
9.528521185E0,6.479165554E0,-2.020798492E1,6.747759581E-1
9.533284049E0,2.390429735E0,-1.448554993E1,1.776670814E0
9.538073580E0,-1.196411345E-2,-9.696913719E0,2.097309113E0
9.542849778E0,-1.558923960E0,-6.015556335E0,2.290529490E0
9.547612643E0,-2.726023197E0,-3.243471146E0,1.977667928E0
9.552402174E0,-3.266801119E0,-1.196411371E0,9.469595551E-1
9.557178372E0,-4.066003799E0,3.780659735E-1,-4.749752879E-1
9.561941237E0,-4.657629490E0,1.484746456E0,-1.773081541E0
9.566730716E0,-5.063212872E0,2.004587173E0,-2.491526604E0
9.571506966E0,-5.968297958E0,2.074577332E0,-2.583052158E0
9.576269830E0,-7.094120979E0,1.792224169E0,-2.423331022E0
9.581059310E0,-8.106285095E0,1.240080357E0,-1.774278045E0
9.585835560E0,-8.916254997E0,5.970092416E-1,-7.716853023E-1
9.590598424E0,-9.521040916E0,-2.721835673E-1,2.398804724E-1
9.595387903E0,-9.394221306E0,-1.307677627E0,1.031904817E0
9.600164101E0,-7.993224144E0,-2.263610125E0,1.677966833E0
9.604927018E0,-6.466004848E0,-3.141776085E0,1.910668850E0
9.609716497E0,-5.197210789E0,-4.144967079E0,1.928615093E0
9.614492695E0,-4.452444553E0,-5.203192711E0,1.738385677E0
9.619255612E0,-4.202394962E0,-6.334399700E0,1.613360643E0
9.624045091E0,-4.207778454E0,-7.485945702E0,1.661815286E0
9.628821289E0,-4.218546391E0,-8.618349075E0,1.658226132E0
9.633584205E0,-4.353142738E0,-9.673583984E0,1.659422517E0
9.638373685E0,-4.536193371E0,-1.059960651E1,1.689931035E0
9.643149883E0,-4.657031059E0,-1.138504982E1,1.676770449E0
9.647912799E0,-4.730011940E0,-1.213220882E1,1.768894196E0
9.652702278E0,-4.478765965E0,-1.335075378E1,1.710868239E0
9.657478476E0,-3.843471289E0,-1.492403507E1,1.344168067E0
9.662241393E0,-2.772084951E0,-1.647219086E1,6.675975323E-1
9.667030872E0,-1.585245013E0,-1.779482460E1,3.505485058E-1
9.671807070E0,-1.070788130E-1,-1.875374794E1,4.007977843E-1
9.676569987E0,1.436890006E0,-1.906900215E1,5.467599630E-1
9.681359466E0,2.578864574E0,-1.859821320E1,8.662018180E-1
9.686135664E0,2.998206854E0,-1.719123459E1,1.770688772E0
9.690898580E0,3.080759048E0,-1.534636784E1,3.064607620E0
9.695688060E0,3.167499065E0,-1.363191032E1,4.133002758E0
9.700464258E0,3.461217880E0,-1.230628681E1,4.576871395E0
9.705227174E0,3.683750391E0,-1.125045395E1,4.162314892E0
9.710016653E0,4.318446636E0,-1.034716320E1,1.926820397E0
9.714792851E0,5.127819061E0,-9.640682220E0,-2.572284266E-2
9.719555768E0,5.629713535E0,-9.166903496E0,-9.649057388E-1
9.724345247E0,5.691926956E0,-8.969495773E0,-8.117650747E-1
9.729121445E0,5.720640659E0,-9.051449776E0,-8.356932998E-1
9.733884310E0,5.716453075E0,-9.291928291E0,-8.356932998E-1
9.738673841E0,5.608178139E0,-9.610174179E0,-7.722834945E-1
9.743450039E0,5.448457241E0,-9.986445427E0,-6.035895348E-1
9.748212903E0,5.257031441E0,-1.038185883E1,-3.002992272E-1
9.753002435E0,4.945964336E0,-1.066241741E1,1.854437590E-2
9.757778633E0,4.582255363E0,-1.086580753E1,2.943171859E-1
9.762554830E0,4.178466320E0,-1.104526901E1,3.876372576E-1
9.767331028E0,3.588635683E0,-1.118644619E1,2.757728100E-1
9.772107226E0,2.807977438E0,-1.136650562E1,1.453639716E-1
9.776870091E0,1.965703845E0,-1.153699398E1,1.076770201E-2
9.781659622E0,1.214357495E0,-1.165424252E1,5.383851007E-3
9.786435820E0,6.197410822E-1,-1.163629627E1,2.273181453E-2
9.791198685E0,3.182454109E-1,-1.140598774E1,-1.585244983E-1
9.795988216E0,1.208375469E-1,-1.103091240E1,-3.020938635E-1
