"Time (s)","Acceleration x (m/s^2)","Acceleration y (m/s^2)","Acceleration z (m/s^2)"
9.394826000E-3,-7.589619160E-1,5.803843975E0,5.471050262E0
1.439482600E-2,-6.871358752E-1,6.040870190E0,5.466261864E0
1.939482600E-2,-6.464344859E-1,6.287472725E0,5.542876244E0
2.438482600E-2,-7.278373241E-1,6.524498940E0,5.775113583E0
2.938082600E-2,-8.786720037E-1,6.730400085E0,6.258742332E0
3.438032600E-2,-7.948749661E-1,6.780678272E0,6.708852291E0
3.938052600E-2,-7.302315235E-1,6.201281548E0,7.082347870E0
4.438052600E-2,-5.722141862E-1,5.667374611E0,7.405565262E0
4.938052600E-2,-4.979939461E-1,5.487809658E0,7.455843449E0
5.438065100E-2,-2.705447972E-1,5.588366032E0,6.495768547E0
5.938065100E-2,3.591302410E-2,5.576395035E0,6.548440933E0
6.438065100E-2,-1.651999205E-1,5.729623795E0,8.119037628E0
6.938065100E-2,-2.035071403E-1,5.832574844E0,8.435071945E0
7.438065100E-2,-3.639186621E-1,5.882853031E0,8.327332497E0
7.938065100E-2,-3.974374831E-1,6.127061367E0,8.198045731E0
8.438065100E-2,-4.788403511E-1,6.110301971E0,7.333739281E0
8.938065100E-2,-5.961562395E-1,6.586748123E0,6.306626320E0
9.438065100E-2,-1.089361787E0,6.857293129E0,5.937919617E0
9.938065100E-2,-1.742978811E0,7.472602844E0,5.303455830E0
1.043806510E-1,-8.738836050E-1,7.573159218E0,5.921160221E0
1.093806510E-1,-3.926490843E-1,7.283460617E0,6.505345345E0
1.143806510E-1,-3.136404157E-1,6.943484306E0,6.675333500E0
1.193806510E-1,-3.806780577E-1,6.735188484E0,6.565200329E0
1.243806510E-1,-6.177040339E-1,6.505345345E0,6.471826553E0
1.293806510E-1,-5.626373887E-1,6.124667168E0,6.467038155E0
1.343806510E-1,-5.554547906E-1,5.624279022E0,6.498162746E0
1.393806510E-1,-6.440402865E-1,5.087977886E0,6.538864136E0
1.443806510E-1,-4.788403511E-1,4.742913723E0,6.706458092E0
1.493806510E-1,-1.891419291E-1,4.493916512E0,7.084742069E0
1.543806510E-1,-1.197100803E-2,4.285621166E0,7.477391243E0
1.593806510E-1,1.699883193E-1,4.065354347E0,7.726387978E0
1.643806510E-1,3.256114423E-1,3.845088005E0,7.882011414E0
1.693806510E-1,3.950432837E-1,3.632004023E0,8.037634850E0
1.743813170E-1,5.410895944E-1,3.526659012E0,8.262689590E0
1.793817170E-1,7.182605267E-1,3.478775024E0,8.518868446E0
1.843817830E-1,8.451532125E-1,3.512293816E0,8.717587471E0
1.893817490E-1,9.217676520E-1,3.593696833E0,8.751106262E0
1.943817490E-1,8.834604025E-1,3.646369219E0,8.583512306E0
1.993813490E-1,8.786720037E-1,3.663128614E0,8.396764755E0
2.043813150E-1,1.065419793E0,3.703830004E0,8.370428085E0
2.093813150E-1,1.534683347E0,3.785232782E0,8.547599792E0
2.143813150E-1,1.707065821E0,3.854664803E0,8.971372604E0
2.193813150E-1,1.819593310E0,3.888183594E0,9.524434090E0
2.243813150E-1,1.810016513E0,3.821146011E0,1.001045704E1
2.293813480E-1,1.719036818E0,3.617638826E0,1.052999878E1
2.343813810E-1,1.204283476E0,3.380612850E0,1.121713448E1
2.393814140E-1,-3.591302633E-1,3.035847664E0,1.230170727E1
2.443814140E-1,-2.116474390E0,2.710236311E0,1.299842072E1
2.493814140E-1,-2.590526342E0,2.528276920E0,1.317319679E1
2.543814140E-1,-2.530671120E0,2.461239338E0,1.297687244E1
2.593814140E-1,-2.511517525E0,2.540247917E0,1.243578243E1
2.643814140E-1,-2.118868589E0,2.753331900E0,1.183244419E1
2.693814140E-1,-1.199495077E0,3.028665066E0,1.120516300E1
2.743814140E-1,-6.967126727E-1,3.155557871E0,1.076463032E1
2.793814140E-1,-9.097966552E-2,3.332728863E0,1.013495541E1
2.843814140E-1,1.125274822E-1,3.385401249E0,9.629778862E0
2.893814140E-1,2.609679997E-1,3.213018656E0,8.691251755E0
2.943814140E-1,3.734954596E-1,3.488351822E0,6.309020519E0
2.993814140E-1,-1.398213744E0,3.428496838E0,4.419696331E0
3.043814140E-1,-2.355894566E0,2.786850691E0,4.216189384E0
3.093814140E-1,-1.795651317E0,2.291250944E0,4.343081951E0
3.143814140E-1,-1.347935557E0,2.221819162E0,3.912125587E0
3.193814140E-1,-1.517923832E0,2.039859772E0,3.119644880E0
3.243814140E-1,-1.472434044E0,1.443703651E0,3.050212860E0
3.293814140E-1,-1.022324085E0,1.201889277E0,4.371812344E0
3.343814140E-1,-9.337386489E-1,1.213860273E0,5.822998047E0
3.393814140E-1,-3.830722570E-1,1.711854219E0,6.620266914E0
3.443814140E-1,6.536170840E-1,2.360682964E0,6.941090107E0
3.493818140E-1,8.978256583E-1,2.789244890E0,7.771877766E0
3.543818140E-1,-1.460463107E-1,3.023876667E0,9.052776337E0
3.593818140E-1,-1.376665950E0,2.839523315E0,9.699210167E0
3.643818140E-1,-1.833958507E0,2.494758129E0,9.809343338E0
3.693818140E-1,-1.455674648E0,2.078166962E0,9.122207642E0
3.743818140E-1,-8.283938169E-1,1.709460020E0,8.348880768E0
3.793817800E-1,-3.184288144E-1,1.185129881E0,7.056011677E0
3.843817460E-1,2.154781520E-1,4.620809257E-1,5.674557209E0
3.893817120E-1,1.015141487E0,-2.633621991E-1,4.599261284E0
3.943817120E-1,2.276885748E0,-8.331822157E-1,3.715801001E0
3.993817120E-1,3.689464808E0,1.012747288E0,3.945644379E0
4.043817120E-1,1.771709204E0,1.819593310E-1,4.371812344E0
4.093817120E-1,-3.926490843E-1,-1.259350061E0,4.845864296E0
4.143817120E-1,-2.420537949E0,-2.525882721E0,5.459079266E0
4.193817120E-1,-4.225766182E0,-3.545812607E0,6.036081791E0
4.243817120E-1,-4.817133904E0,-4.395754337E0,6.064812183E0
4.293817120E-1,-5.054459095E0,-4.711789131E0,5.811026573E0
4.343817120E-1,-5.229235649E0,-4.757278919E0,5.466261864E0
4.393817120E-1,-5.272331238E0,-4.553771496E0,4.934749126E0
4.443817120E-1,-5.006575108E0,-4.259284973E0,4.228160381E0
4.493817120E-1,-4.436455727E0,-3.964797974E0,3.442862034E0
4.543817120E-1,-4.091690540E0,-3.801992416E0,3.174711466E0
4.593817120E-1,-3.725377798E0,-3.799597979E0,3.162740469E0
4.643817120E-1,-3.569754839E0,-3.878606796E0,3.526659012E0
4.693817120E-1,-3.806780815E0,-4.079719543E0,4.309563160E0
4.743817120E-1,-4.118026733E0,-4.252102375E0,4.963479519E0
4.793817120E-1,-4.240131378E0,-4.625597477E0,5.509357452E0
4.843817120E-1,-4.173093796E0,-5.178957462E0,5.834969044E0
4.893817120E-1,-4.177882195E0,-5.787084579E0,6.136638165E0
4.943817120E-1,-4.484339714E0,-6.299443722E0,6.479009151E0
4.993817120E-1,-5.147832870E0,-6.625055313E0,6.816591740E0
5.043812780E-1,-6.117484570E0,-6.783072472E0,7.091924667E0
5.093812780E-1,-7.640196800E0,-7.003339291E0,7.374440670E0
5.143812780E-1,-8.839692116E0,-7.170933247E0,7.520486832E0
5.193812780E-1,-9.929053307E0,-7.400776863E0,7.740753174E0
5.243812780E-1,-1.073829365E1,-7.580341816E0,7.925107002E0
5.293812780E-1,-1.135120964E1,-7.781454563E0,8.123826027E0
5.343812780E-1,-1.198806763E1,-7.999327183E0,8.447042465E0
5.393806110E-1,-1.276857662E1,-7.932289600E0,8.751106262E0
5.443806110E-1,-1.352753925E1,-7.683292389E0,8.935460091E0
5.493799440E-1,-1.398483181E1,-7.386411667E0,9.160514832E0
5.543790770E-1,-1.415721416E1,-7.089530468E0,9.565135002E0
5.593789770E-1,-1.433677864E1,-6.780678272E0,1.016368580E1
5.643785100E-1,-1.457141113E1,-6.368875980E0,1.093940639E1
5.693780100E-1,-1.461929512E1,-5.547664642E0,1.147570801E1
5.743775100E-1,-1.453789234E1,-4.903624535E0,1.181807899E1
5.793770100E-1,-1.444451809E1,-4.556165695E0,1.195454884E1
5.843765100E-1,-1.443972969E1,-4.541800499E0,1.211735439E1
5.893760100E-1,-1.446367168E1,-4.671087742E0,1.223706436E1
5.943755100E-1,-1.446367168E1,-4.817133904E0,1.224424648E1
5.993750100E-1,-1.446606636E1,-4.853046894E0,1.205510521E1
6.043745430E-1,-1.448761368E1,-4.884171486E0,1.177258873E1
6.093739090E-1,-1.427452946E1,-5.037699699E0,1.145176601E1
6.143739420E-1,-1.402792740E1,-5.265148640E0,1.130811405E1
6.193739420E-1,-1.399201393E1,-5.509357452E0,1.115249062E1
6.243739420E-1,-1.415721416E1,-5.459079266E0,1.090588760E1
6.293739420E-1,-1.448761368E1,-5.099948883E0,1.060900688E1
6.343739420E-1,-1.487098503E1,-4.592078686E0,1.038634586E1
6.393739420E-1,-1.510801125E1,-4.017470360E0,1.033846188E1
6.443739420E-1,-1.524208641E1,-3.586514235E0,1.032888508E1
6.493739750E-1,-1.554375553E1,-3.119644880E0,1.022593498E1
6.543744410E-1,-1.572810936E1,-2.875436306E0,1.010622501E1
6.593744740E-1,-1.575683975E1,-2.643198729E0,9.945813179E0
6.643744740E-1,-1.559403419E1,-2.533065319E0,9.854833603E0
6.693744740E-1,-1.539052677E1,-2.449268341E0,9.756670952E0
6.743744740E-1,-1.533306599E1,-2.312798738E0,9.656114578E0
6.793745070E-1,-1.539531517E1,-2.267308950E0,9.572318077E0
6.843745400E-1,-1.548868942E1,-2.410961151E0,9.459790230E0
6.893752400E-1,-1.552460194E1,-2.671929121E0,8.957007408E0
6.943752400E-1,-1.546953583E1,-2.837129116E0,8.492532730E0
6.993759060E-1,-1.517265511E1,-3.021482468E0,7.836521626E0
7.043767720E-1,-1.466478443E1,-3.215412855E0,7.130231857E0
7.093768720E-1,-1.379568958E1,-3.406949043E0,6.275501728E0
7.143773380E-1,-1.302954483E1,-3.507505417E0,5.638644218E0
7.193778380E-1,-1.234719753E1,-3.672705412E0,4.929960728E0
7.243783380E-1,-1.162654305E1,-3.816357613E0,4.156333923E0
7.293788710E-1,-1.096334839E1,-3.955221176E0,3.471592426E0
7.343794040E-1,-1.055154610E1,-4.055777550E0,2.980781078E0
7.393799370E-1,-1.048211479E1,-4.106055737E0,2.724601507E0
7.443804370E-1,-1.057548809E1,-3.948038578E0,2.650381327E0
7.493809370E-1,-1.060661316E1,-3.569754839E0,2.803610086E0
7.543814030E-1,-1.040071106E1,-3.229778051E0,3.076549292E0
7.593820690E-1,-1.009664822E1,-2.650381327E0,3.471592426E0
7.643820690E-1,-9.818920135E0,-2.181117773E0,3.890577793E0
7.693821020E-1,-9.560346603E0,-1.716642618E0,4.170699596E0
7.743821020E-1,-9.261071205E0,-1.417367458E0,4.302380562E0
7.793821020E-1,-8.887576103E0,-1.357512355E0,4.264073372E0
7.843821020E-1,-8.358457565E0,-1.522712231E0,4.129997730E0
7.893821020E-1,-7.812579632E0,-1.814804912E0,3.895366192E0
7.943821020E-1,-7.367258072E0,-2.154781580E0,3.507505417E0
7.993820680E-1,-7.247547626E0,-2.408566952E0,3.016694069E0
8.043820680E-1,-7.252336025E0,-2.530671120E0,2.171540976E0
8.093820680E-1,-7.374440670E0,-2.564189911E0,1.424550056E0
8.143821010E-1,-7.532457829E0,-2.667140722E0,6.967126727E-1
8.193821010E-1,-7.683292389E0,-2.782062292E0,7.661445439E-2
8.243821010E-1,-7.822156429E0,-2.906560898E0,-3.782838583E-1
8.293820670E-1,-7.740753174E0,-2.947262287E0,-6.584054828E-1
8.343820330E-1,-7.192481041E0,-2.861071110E0,-8.236053586E-1
8.393819990E-1,-6.258742332E0,-2.880224705E0,-7.781155705E-1
8.443819990E-1,-5.334580898E0,-2.896984100E0,-6.057330370E-1
8.493813320E-1,-4.340687752E0,-2.882618904E0,-5.195417404E-1
8.543806980E-1,-3.720589399E0,-2.801215887E0,-4.572925270E-1
8.593807310E-1,-3.356670856E0,-2.657563925E0,-2.346317619E-1
8.643813970E-1,-3.114856482E0,-2.389413357E0,9.816227108E-2
8.693807300E-1,-2.935291290E0,-2.092532396E0,4.525041282E-1
8.743800630E-1,-2.798821688E0,-1.908178806E0,8.403648138E-1
8.793794630E-1,-2.825158119E0,-2.164358377E0,1.896207690E0
8.843789290E-1,-3.263296843E0,-2.640804529E0,3.129221678E0
8.893789290E-1,-4.177882195E0,-2.717418909E0,3.201047659E0
8.943786290E-1,-4.886565685E0,-2.913743496E0,3.847482204E0
8.993786290E-1,-5.296273232E0,-3.811569214E0,5.669768810E0
9.043779620E-1,-5.099948883E0,-3.655946016E0,5.384859085E0
9.093779280E-1,-4.714183331E0,-4.101267338E0,3.363853455E0
9.143774940E-1,-3.737348795E0,-3.126827478E0,2.497152328E0
9.193765600E-1,-3.055001259E0,-3.919308186E0,8.834604025E-1
9.243765600E-1,-1.939303398E0,-4.730942726E0,-3.950432837E-1
9.293765930E-1,-2.427720547E0,-4.608838081E0,-1.778891921E0
9.343757260E-1,-5.523722649E0,-5.303455830E0,-2.566584110E0
9.393757590E-1,-8.456619263E0,-7.558794022E0,-4.845864296E0
9.443757590E-1,-1.004876423E1,-8.966584206E0,-4.311957359E0
9.493757590E-1,-1.098250294E1,-9.462183952E0,-2.717418909E0
9.543757250E-1,-9.636960983E0,-9.409511566E0,-2.339135170E0
9.593757250E-1,-7.685686588E0,-7.733570576E0,-4.644751072E0
9.643757250E-1,-7.211634636E0,-5.636250019E0,-7.249941826E0
9.693757580E-1,-6.759130478E0,-3.402160645E0,-9.455001831E0
9.743757910E-1,-6.708852291E0,-3.292027235E0,-1.148767948E1
9.793757910E-1,-9.701604843E0,-3.725377798E0,-8.731952667E0
9.843757910E-1,-1.092264748E1,-3.531447411E0,-6.309020519E0
9.893757910E-1,-8.629002571E0,-2.530671120E0,-5.150227070E0
9.943757910E-1,-7.980173588E0,-2.750937700E0,-7.182605267E-1
9.993764570E-1,-6.689698696E0,-4.481945515E0,1.118092179E0
1.004377090E0,-6.000168800E0,-6.079177380E0,1.939303398E0
1.009377090E0,-6.730400085E0,-7.604283810E0,3.464409828E0
1.014376456E0,-1.026184750E1,-8.322544098E0,5.961861610E0
1.019377156E0,-9.943418503E0,-8.372822762E0,4.187458992E0
1.024377822E0,-9.816526413E0,-8.607454300E0,2.758120298E0
1.029378388E0,-9.256282806E0,-9.067141533E0,1.359906554E0
1.034378554E0,-7.290643215E0,-9.706393242E0,-1.580173075E-1
1.039378154E0,-5.238812447E0,-9.555558205E0,-1.194706678E0
1.044378487E0,-3.378218651E0,-9.706393242E0,-3.007117271E0
1.049377687E0,-2.334346771E0,-1.040789413E1,-4.249708176E0
1.054377453E0,-1.292868972E0,-1.115488529E1,-5.631461620E0
1.059376553E0,-8.882488012E-1,-1.173428154E1,-6.476614952E0
1.064376253E0,-2.068590164E0,-1.116685581E1,-6.268319130E0
1.069376253E0,-3.725377798E0,-1.018762779E1,-5.432743073E0
1.074376253E0,-5.092766285E0,-9.371204376E0,-4.654327869E0
1.079376219E0,-6.297049522E0,-8.526051521E0,-3.866635799E0
1.084376719E0,-7.245153427E0,-8.020874977E0,-2.880224705E0
1.089375819E0,-7.697657585E0,-7.831733227E0,-1.376665950E0
1.096333230E0,-7.249941826E0,-8.056788445E0,-5.578489900E-1
1.101332363E0,-6.227617741E0,-8.894758224E0,-2.896983922E-1
1.106332363E0,-5.222053051E0,-9.438241959E0,1.843535304E-1
1.111332329E0,-3.608062029E0,-7.949048996E0,1.446097851E0
1.116331395E0,-2.367865562E0,-7.661744595E0,2.260126352E0
1.121331295E0,-2.442085743E-1,-7.020098686E0,3.323152065E0
1.126331295E0,4.836287498E-1,-6.426336765E0,3.658340216E0
1.131330661E0,7.206547260E-1,-5.530905247E0,3.280056238E0
1.136330661E0,4.022258818E-1,-5.020940304E0,2.547430515E0
1.141330661E0,-5.698199868E-1,-4.465186119E0,8.475474119E-1
1.146330661E0,-1.364694953E0,-4.429273129E0,-6.775590777E-1
1.151330661E0,-2.068590164E0,-4.711789131E0,-1.879448295E0
1.156330661E0,-2.655169725E0,-5.317821026E0,-3.066972494E0
1.161330627E0,-3.306392431E0,-6.790255070E0,-5.016151905E0
1.166330627E0,-3.179499865E0,-7.530063629E0,-5.511751652E0
1.171330627E0,-2.837129116E0,-8.514080048E0,-5.736806393E0
1.176330660E0,-2.504334927E0,-8.763077736E0,-5.811026573E0
1.181330660E0,-2.082955360E0,-7.003339291E0,-3.246537447E0
1.186330993E0,-1.292868972E0,-6.766313076E0,-2.664746523E0
1.191331359E0,-1.046266198E0,-7.647379398E0,-3.584120035E0
1.196331325E0,-1.151610970E0,-7.831733227E0,-3.849876404E0
1.201332125E0,-1.489193439E0,-8.609848976E0,-3.203441858E0
1.206333025E0,-1.563413739E0,-9.761459351E0,-3.634398222E0
1.211333958E0,-2.597708941E0,-1.059224796E1,-2.834734917E0
1.216334691E0,-2.947262287E0,-1.080293751E1,-2.056619167E0
1.221335624E0,-2.803610086E0,-1.057069969E1,-1.393425345E0
1.226335657E0,-2.676717520E0,-1.073829365E1,-8.116343617E-1
1.231335657E0,-2.183511972E0,-1.048690319E1,-6.560112834E-1
1.236336023E0,-1.335964561E0,-9.591471672E0,-8.451532125E-1
1.241336889E0,-2.489969730E-1,-8.906729698E0,-1.079784989E0
1.246336855E0,4.141969085E-1,-8.806173325E0,-1.304839969E0
1.251337755E0,6.296750307E-1,-8.722375870E0,-1.752555609E0
1.256337788E0,7.493851185E-1,-8.425495148E0,-2.336740971E0
1.261337788E0,5.291185975E-1,-7.848492622E0,-2.841917515E0
1.266338688E0,1.747767180E-1,-7.551611423E0,-2.741360903E0
1.271338754E0,-1.436521020E-2,-6.977003098E0,-2.604891539E0
1.276338720E0,-2.585737705E-1,-6.668150902E0,-2.473210335E0
1.281339353E0,-6.536170840E-1,-6.469432354E0,-1.651999116E0
1.286339353E0,-7.900865674E-1,-6.127061367E0,-1.163581967E0
1.291339386E0,-1.280897856E0,-5.921160221E0,-6.320692301E-1
1.296339419E0,-1.321599364E0,-5.844545841E0,-2.106897533E-1
1.301339452E0,-3.639186621E-1,-6.292261124E0,5.219359994E-1
1.306338785E0,-3.854664862E-1,-4.663905144E0,-6.943184733E-1
1.311338118E0,-6.991068721E-1,-4.285621166E0,-8.499416113E-1
1.316337584E0,-7.086837292E-1,-3.620033026E0,-9.026140571E-1
1.321336917E0,-1.125274777E0,-3.064578056E0,6.440402865E-1
1.326336250E0,-1.118092179E0,-3.524264812E0,1.675941199E-1
1.331336283E0,-6.560112834E-1,-3.847482204E0,-2.849099934E-1
1.336336283E0,-1.675941199E-1,-3.550601006E0,1.867477298E-1
1.341336283E0,1.580173075E-1,-3.746925592E0,7.733271718E-1
1.346336283E0,2.825157940E-1,-2.789244890E0,5.219359994E-1
1.351336283E0,4.094084799E-1,-1.860294700E0,-1.436520964E-1
1.356336283E0,5.602431893E-1,-1.886630893E0,-3.232172430E-1
1.361336249E0,1.000776291E0,-2.379836559E0,7.278373241E-1
1.366336215E0,1.252167463E0,-2.173935175E0,1.070208192E0
1.371336215E0,8.140285611E-1,-1.726219416E0,1.146822572E0
1.376335548E0,5.051765442E-1,-1.661576033E0,8.116343617E-1
1.381335581E0,3.591302633E-1,-2.164358377E0,5.554547906E-1
1.386335581E0,7.422025204E-1,-2.755726099E0,5.147533417E-1
1.391335581E0,7.613561153E-1,-3.124433279E0,4.309562966E-2
1.396335981E0,7.757213712E-1,-3.246537447E0,-4.118026793E-1
1.401335981E0,8.499416113E-1,-4.129997730E0,-6.440402865E-1
1.406335981E0,4.046200812E-1,-5.614702225E0,-1.180341482E0
1.411336014E0,5.779901981E0,-2.383248138E1,-5.492598057E0
1.416336014E0,1.172709942E1,-3.683359528E1,-1.190187550E1
1.421336014E0,2.394500923E1,-6.932141876E1,-1.822765541E1
1.426336014E0,2.688778305E1,-7.784507751E1,-1.635060120E1
1.431336014E0,2.092352676E1,-7.466317749E1,-9.426271439E0
1.436336014E0,1.136078644E1,-5.372977829E1,-2.858676910E0
1.441335980E0,3.792415380E0,-3.266978073E1,8.355764151E-1
1.446335980E0,-1.264138460E0,-1.841440392E1,2.130839586E0
1.451335980E0,-4.503493309E0,-7.707234383E0,2.104503393E0
1.456336680E0,-4.529829502E0,-4.086902142E0,2.047042370E0
1.461337346E0,-2.851494312E0,-1.142034173E0,1.948880196E0
1.466337846E0,-2.274491549E0,-4.788403511E-1,2.233790159E0
1.471338479E0,-2.023100376E0,1.556231081E-1,2.475604534E0
1.476339112E0,-2.082955360E0,2.178723514E-1,2.513911724E0
1.481339112E0,-2.226607561E0,-2.873042040E-2,2.243366957E0
1.486339145E0,-2.300827742E0,-5.051765442E-1,1.927332401E0
1.491339178E0,-2.240972757E0,-1.027112484E0,1.635239720E0
1.496339178E0,-2.073378563E0,-1.774103403E0,1.300051570E0
1.501339178E0,-1.817199111E0,-3.797203779E0,3.280056417E-1
1.506339178E0,-1.273715258E0,-5.858911037E0,-1.987187415E-1
1.511339178E0,3.327940404E-1,-1.048450851E1,-9.696516991E-1
1.516339178E0,1.244984865E0,-1.318277359E1,-1.280897856E0
1.521339144E0,2.015917778E0,-1.640088081E1,-1.889025092E0
1.526339810E0,1.623268723E0,-1.707125664E1,-2.554613113E0
1.531339810E0,4.501099288E-1,-1.543601704E1,-3.282450438E0
1.536339843E0,-8.475474119E-1,-1.255070496E1,-3.871424198E0
1.541339843E0,-1.620874524E0,-9.450213432E0,-4.180276394E0
1.546339843E0,-1.541865945E0,-8.322544098E0,-4.197035789E0
1.551339809E0,-8.547300100E-1,-7.635408401E0,-3.991134167E0
1.556339775E0,-3.519476354E-1,-7.666532993E0,-3.816357613E0
1.561339741E0,2.537853718E-1,-8.085518837E0,-3.454833031E0
1.566339741E0,5.099649429E-1,-8.396764755E0,-3.234566450E0
1.571339774E0,8.307880163E-1,-8.901941299E0,-2.846705914E0
1.576339807E0,1.015141487E0,-9.294589996E0,-2.540247917E0
1.581339840E0,1.192312479E0,-9.636960983E0,-2.226607561E0
1.586339840E0,1.343147159E0,-9.854833603E0,-1.960851192E0
1.591339840E0,1.556231141E0,-1.003439903E1,-1.668758631E0
1.596339806E0,1.687912226E0,-1.005594635E1,-1.525106430E0
1.601339772E0,1.929726601E0,-9.998485565E0,-1.314416766E0
1.606339772E0,2.075772762E0,-9.962572098E0,-1.211466074E0
1.611339805E0,2.264914751E0,-9.806949615E0,-1.063025594E0
1.616339838E0,2.420537949E0,-9.749488831E0,-9.720458984E-1
1.621339838E0,2.530671120E0,-9.701604843E0,-8.882488012E-1
1.626339838E0,2.662352324E0,-9.680056572E0,-7.924807668E-1
1.631339804E0,2.801215887E0,-9.660902977E0,-6.799532771E-1
1.636338870E0,2.877830505E0,-9.656114578E0,-5.626373887E-1
1.641338836E0,2.975992680E0,-9.701604843E0,-4.118026793E-1
1.646338836E0,3.090914488E0,-9.672874451E0,-3.136404157E-1
1.651338869E0,3.124433279E0,-9.534010887E0,-1.340752989E-1
1.656338902E0,3.086126089E0,-9.323320389E0,-6.943184882E-2
1.661338935E0,2.894589901E0,-8.909123421E0,1.197100803E-2
1.666338935E0,2.808398485E0,-8.777442932E0,4.309562966E-2
1.671338935E0,2.686294317E0,-8.681674957E0,1.077390760E-1
1.676338901E0,2.640804529E0,-8.425495148E0,1.221042871E-1
1.681338901E0,2.525882721E0,-7.668927193E0,5.746084079E-2
1.686338901E0,2.463633537E0,-7.089530468E0,-3.351882473E-2
1.691338934E0,2.310404539E0,-6.407183170E0,-1.340752989E-1
1.696338934E0,2.370259762E0,-6.253953934E0,-2.106897533E-1
1.701338934E0,2.631227732E0,-6.433519363E0,-2.992752194E-1
1.706338934E0,2.753331900E0,-6.565200329E0,-3.567360640E-1
1.711338934E0,2.964021683E0,-6.933907509E0,-4.908113480E-1
1.716338934E0,3.019088268E0,-7.300220490E0,-6.584054828E-1
1.721338900E0,3.150769472E0,-7.800608635E0,-9.720458984E-1
1.726338866E0,3.203441858E0,-8.255506516E0,-1.359906554E0
1.731338199E0,3.385401249E0,-8.918700218E0,-1.862688899E0
1.736338232E0,3.746925592E0,-9.768642426E0,-2.245761156E0
1.741338732E0,4.374206543E0,-1.120037460E1,-2.504334927E0
1.746338065E0,4.776432514E0,-1.203355694E1,-2.590526342E0
1.751338065E0,5.164592266E0,-1.291941166E1,-2.671929121E0
1.756338031E0,5.001786709E0,-1.316362000E1,-2.626439333E0
1.761338031E0,3.936067581E0,-1.293617153E1,-2.430114746E0
1.766337631E0,2.856282711E0,-1.235916805E1,-2.171540976E0
1.771336964E0,1.927332401E0,-1.175343513E1,-1.934514999E0
1.776336964E0,1.197100878E0,-1.130093098E1,-1.802833915E0
1.781336964E0,5.793967843E-1,-1.100883865E1,-1.766920805E0
1.786337864E0,4.237737060E-1,-1.095377159E1,-1.759738207E0
1.791337864E0,3.064578176E-1,-1.096095467E1,-1.699883223E0
1.796337864E0,2.801215947E-1,-1.098729134E1,-1.513135433E0
1.801337830E0,1.292868853E-1,-1.105193424E1,-6.392518282E-1
1.806337830E0,-1.795651317E-1,-1.105193424E1,8.762778044E-1
1.811337830E0,-5.434837937E-1,-1.094898319E1,3.155557871E0
1.816337863E0,-8.619126081E-1,-1.078378391E1,5.837363243E0
1.821337863E0,-7.948749661E-1,-1.056830597E1,7.290643215E0
1.826337863E0,-4.501099288E-1,-1.036719227E1,6.531681538E0
1.831337829E0,2.035071403E-1,-1.017326260E1,4.096478939E0
1.836337795E0,7.398083210E-1,-1.007031155E1,2.554613113E0
1.841337761E0,1.623268723E0,-9.864410400E0,4.692635238E-1
1.846337761E0,2.068590164E0,-9.670479774E0,-3.926490843E-1
1.851337761E0,2.655169725E0,-9.387964249E0,-1.309628367E0
1.856337794E0,3.014299870E0,-9.201216698E0,-1.678335428E0
1.861337827E0,3.325546265E0,-9.047987938E0,-1.922544003E0
1.866337860E0,3.543418407E0,-8.966584206E0,-2.030282974E0
1.871337860E0,3.629609823E0,-8.906729698E0,-2.006340981E0
1.876337860E0,3.600879431E0,-8.844480515E0,-1.920149803E0
1.881338493E0,3.497928619E0,-8.789413452E0,-1.747767210E0
1.886338493E0,3.406949043E0,-8.777442932E0,-1.642422318E0
1.891338026E0,3.294421434E0,-8.808567047E0,-1.477222443E0
1.896338726E0,3.220201254E0,-8.861239433E0,-1.424550056E0
1.901338726E0,3.021482468E0,-8.992920876E0,-1.400607944E0
1.906338726E0,2.829946518E0,-9.189245224E0,-1.465251446E0
1.911338692E0,2.628833532E0,-9.354445457E0,-1.563413739E0
1.916339058E0,2.389413357E0,-9.495702744E0,-1.726219416E0
1.921339724E0,2.085349798E0,-9.593865395E0,-1.896207690E0
1.926339724E0,1.910573006E0,-9.668086052E0,-2.087743998E0
1.931339757E0,1.604115129E0,-9.687239647E0,-2.308010340E0
1.936339790E0,1.453280449E0,-9.711181641E0,-2.396595955E0
1.941339823E0,1.240196466E0,-9.699210167E0,-2.537853718E0
1.946339823E0,1.134851575E0,-9.706393242E0,-2.602497339E0
1.951339823E0,1.027112484E0,-9.727940559E0,-2.676717520E0
1.956339789E0,8.930372596E-1,-9.732728958E0,-2.683900118E0
1.961339789E0,8.140285611E-1,-9.703998566E0,-2.676717520E0
1.966339789E0,6.895300746E-1,-9.672874451E0,-2.650381327E0
1.971339822E0,6.272808313E-1,-9.608230591E0,-2.521094322E0
1.976339855E0,6.320692301E-1,-9.557952881E0,-2.449268341E0
1.981339855E0,6.440402865E-1,-9.457395554E0,-2.284068346E0
1.986339855E0,6.392518282E-1,-9.378387451E0,-2.154781580E0
1.991339855E0,6.727706790E-1,-9.347262383E0,-1.946485996E0
1.996339855E0,7.254431248E-1,-9.371204376E0,-1.802833915E0
2.001339855E0,7.781155705E-1,-9.450213432E0,-1.563413739E0
2.006339821E0,8.882488012E-1,-9.505280495E0,-1.379060149E0
2.011339821E0,9.959878922E-1,-9.591471672E0,-1.209071875E0
2.016339821E0,1.134851575E0,-9.670479774E0,-1.015141487E0
2.021339854E0,1.343147159E0,-9.768642426E0,-8.068459630E-1
2.026339854E0,1.419761658E0,-9.797372818E0,-6.751648784E-1
2.031339854E0,1.575384736E0,-9.821314812E0,-4.333505034E-1
2.036340187E0,1.649604917E0,-9.806949615E0,-2.801215947E-1
2.041340187E0,1.778891921E0,-9.771036148E0,-1.436521020E-2
2.046339520E0,1.886630893E0,-9.761459351E0,1.316810995E-1
2.051339553E0,1.956062794E0,-9.759065628E0,3.280056417E-1
2.056339553E0,1.982398987E0,-9.732728958E0,4.165911078E-1
2.061339553E0,1.972822189E0,-9.744700432E0,4.572925270E-1
2.066339153E0,2.006340981E0,-9.775824547E0,4.141969085E-1
2.071338486E0,2.044648170E0,-9.840468407E0,2.657563984E-1
2.076338486E0,2.027888775E0,-9.826103210E0,1.268926859E-1
2.081338452E0,1.972822189E0,-9.701604843E0,-1.197100878E-1
2.086338452E0,1.980004787E0,-9.567529678E0,-2.657563984E-1
2.091338452E0,2.006340981E0,-9.378387451E0,-5.339069963E-1
2.096338485E0,2.111685991E0,-9.301773071E0,-7.350199223E-1
2.101338518E0,2.207453966E0,-9.239523888E0,-8.906430602E-1
2.106338518E0,2.274491549E0,-9.234735489E0,-1.029506683E0
2.111338484E0,2.308010340E0,-9.287407875E0,-1.118092179E0
2.116338450E0,2.300827742E0,-9.340080261E0,-1.180341482E0
2.121338450E0,2.291250944E0,-9.445425034E0,-1.192312479E0
2.126338450E0,2.281674147E0,-9.534010887E0,-1.197100878E0
2.131338483E0,2.200271368E0,-9.646537781E0,-1.144428372E0
2.136338483E0,2.123656988E0,-9.677662849E0,-1.108515382E0
2.141338483E0,1.948880196E0,-9.670479774E0,-1.029506683E0
2.146338483E0,1.826775908E0,-9.634567261E0,-1.005564690E0
2.151338483E0,1.735796213E0,-9.682451248E0,-1.005564690E0
2.156338483E0,1.656787634E0,-9.735123634E0,-1.012747288E0
2.161338449E0,1.580173135E0,-9.759065628E0,-1.010353088E0
2.166338449E0,1.529894829E0,-9.735123634E0,-1.007958889E0
2.171338449E0,1.443703651E0,-9.701604843E0,-9.911994934E-1
2.176338482E0,1.395819545E0,-9.684844971E0,-9.864110947E-1
2.181338482E0,1.357512355E0,-9.701604843E0,-9.983820915E-1
2.186338115E0,1.312022567E0,-9.692028046E0,-1.012747288E0
2.191338081E0,1.244984865E0,-9.670479774E0,-1.074996591E0
2.196338747E0,1.209071875E0,-9.660902977E0,-1.113303781E0
2.201338747E0,1.197100878E0,-9.653720856E0,-1.168370485E0
2.206338780E0,1.146822572E0,-9.658509254E0,-1.273715258E0
2.211338780E0,1.151610970E0,-9.648932457E0,-1.364694953E0
2.216339180E0,1.158793569E0,-9.689633369E0,-1.431732655E0
2.221339846E0,1.218648672E0,-9.718363762E0,-1.527500629E0
2.226339846E0,1.213860273E0,-9.735123634E0,-1.553836942E0
2.231339846E0,1.225831270E0,-9.682451248E0,-1.625662923E0
2.236339812E0,1.295263171E0,-9.646537781E0,-1.649604917E0
2.241339778E0,1.350329757E0,-9.567529678E0,-1.661576033E0
2.246339111E0,1.367089152E0,-9.565135002E0,-1.623268723E0
2.251339111E0,1.419761658E0,-9.620202065E0,-1.584961534E0
2.256339144E0,1.441309452E0,-9.653720856E0,-1.537077546E0
2.261339144E0,1.503558636E0,-9.689633369E0,-1.498770237E0
2.266339144E0,1.546654344E0,-9.713575363E0,-1.450886250E0
2.271339110E0,1.601720929E0,-9.749488831E0,-1.355118155E0
2.276339110E0,1.580173135E0,-9.737517357E0,-1.302445769E0
2.281339110E0,1.596932530E0,-9.608230591E0,-1.201889277E0
2.286339143E0,1.611297727E0,-9.440636635E0,-1.118092179E0
2.291339143E0,1.637633920E0,-9.256282806E0,-1.060631394E0
2.296339143E0,1.680729628E0,-9.093477249E0,-9.888052940E-1
2.301339143E0,1.731007814E0,-8.925883293E0,-9.433154464E-1
2.306339143E0,1.788468719E0,-8.794201851E0,-9.050082564E-1
2.311339143E0,1.891419291E0,-8.638579369E0,-8.595184088E-1
2.316339109E0,1.939303398E0,-8.533234596E0,-8.690952063E-1
2.321339109E0,2.080561161E0,-8.473379135E0,-8.954314590E-1
2.326339109E0,2.145204782E0,-8.459013939E0,-8.954314590E-1
2.331339142E0,2.185906172E0,-8.442254066E0,-9.265560508E-1
2.336339142E0,2.212242365E0,-8.463802338E0,-8.882488012E-1
2.341339142E0,2.181117773E0,-8.473379135E0,-8.283938169E-1
2.346339108E0,2.018311977E0,-8.492532730E0,-7.110779285E-1
2.351339074E0,1.714248419E0,-8.676886559E0,-5.434837937E-1
2.356339040E0,1.438915253E0,-9.088688850E0,-4.189853072E-1
2.361339040E0,9.409212470E-1,-9.771036148E0,-4.046200812E-1
2.366339040E0,6.464344859E-1,-1.026424217E1,-4.764461517E-1
2.371339073E0,1.651999205E-1,-1.122910500E1,-7.517793179E-1
2.376339106E0,-1.077390760E-1,-1.188032818E1,-9.792284966E-1
2.381339139E0,-5.267243981E-1,-1.291701698E1,-1.316810966E0
2.386339139E0,-9.481038451E-1,-1.360894203E1,-1.453280449E0
2.391339139E0,-1.484405041E0,-1.418594456E1,-1.472434044E0
2.396339772E0,-2.142810583E0,-1.471775627E1,-1.482010841E0
2.401339772E0,-2.952050686E0,-1.543362236E1,-1.539471745E0
2.406339772E0,-3.421314240E0,-1.574965763E1,-1.613691926E0
2.411339805E0,-4.084507942E0,-1.601301956E1,-1.829170108E0
2.416339805E0,-4.388571739E0,-1.589330959E1,-2.018311977E0
2.421339805E0,-4.690241337E0,-1.521814442E1,-2.310404539E0
2.426339771E0,-4.766855717E0,-1.467436123E1,-2.537853718E0
2.431339737E0,-4.721365929E0,-1.384357357E1,-2.930502892E0
2.436339703E0,-4.462791920E0,-1.330008984E1,-3.217807055E0
2.441339703E0,-4.031835556E0,-1.283800888E1,-3.617638826E0
2.446339736E0,-3.313575268E0,-1.247648430E1,-3.847482204E0
2.451339769E0,-1.764526606E0,-1.183723259E1,-3.873818398E0
2.456339802E0,-4.165911078E-1,-1.123389339E1,-3.840299606E0
2.461339802E0,1.556231141E0,-1.025945377E1,-3.495534420E0
2.466339802E0,2.595314741E0,-9.974543571E0,-3.205836058E0
2.471339768E0,4.311957359E0,-9.912294388E0,-2.779668093E0
2.476339734E0,5.533299446E0,-1.005834103E1,-2.413355350E0
2.481339734E0,6.617872715E0,-1.010622501E1,-1.898601890E0
2.486339767E0,7.723993778E0,-1.010861874E1,-9.983820915E-1
2.491339800E0,9.057564735E0,-9.976937294E0,1.323993564E0
2.496339800E0,1.077660084E1,-9.780612946E0,5.178957462E0
2.501339800E0,1.174625301E1,-9.699210167E0,8.693645477E0
2.506339800E0,1.147331429E1,-9.706393242E0,8.827720642E0
2.511339800E0,1.102799225E1,-9.761459351E0,6.268319130E0
2.516339800E0,1.132966137E1,-9.972148895E0,3.960009575E0
2.521339766E0,1.175343513E1,-9.964966774E0,-3.351882473E-2
2.526339766E0,1.129374886E1,-9.783007622E0,-2.559401512E0
2.531339766E0,1.009664822E1,-9.548376083E0,-4.103661537E0
2.536339799E0,8.135796547E0,-9.201216698E0,-4.484339714E0
2.541339799E0,6.134243965E0,-8.882787704E0,-4.333505154E0
2.546339799E0,5.037699699E0,-8.815750122E0,-3.900154591E0
2.551339765E0,4.347870350E0,-8.731952667E0,-3.251325846E0
2.556339765E0,3.861847401E0,-8.676886559E0,-2.698265314E0
2.561339765E0,2.932897091E0,-8.583512306E0,-1.654393315E0
2.566339798E0,2.454056740E0,-8.633790970E0,-9.983820915E-1
2.571339798E0,1.719036818E0,-8.849268913E0,-5.817909837E-1
2.576339798E0,1.237802267E0,-9.110237122E0,-7.278373241E-1
2.581339798E0,8.307880163E-1,-9.462183952E0,-1.199495077E0
2.586339798E0,6.847416759E-1,-9.866804123E0,-1.601720929E0
2.591339798E0,7.302315235E-1,-1.051802731E1,-1.745373011E0
2.596339764E0,7.829039693E-1,-1.127459526E1,-1.671152830E0
2.601339730E0,9.624691010E-1,-1.187075138E1,-1.084573388E0
2.606339730E0,1.029506683E0,-1.200243282E1,-6.177040339E-1
2.611339763E0,8.427590132E-1,-1.184441471E1,-4.572925270E-1
2.616339796E0,7.829039693E-1,-1.178216553E1,-4.692635238E-1
2.621339796E0,9.241618514E-1,-1.181568432E1,-6.440402865E-1
2.626339796E0,1.333570361E0,-1.169836903E1,-8.571242094E-1
2.631339762E0,1.675941229E0,-1.168160915E1,-5.817909837E-1
2.636339762E0,1.905784607E0,-1.165287876E1,-2.633621916E-2
2.641339762E0,1.970427990E0,-1.123628807E1,4.118026793E-1
2.646339795E0,2.049436569E0,-1.102320385E1,5.650315881E-1
2.651339795E0,2.245761156E0,-1.074787045E1,5.482721925E-1
2.656339795E0,2.319981337E0,-1.064013195E1,4.429273009E-1
2.661339795E0,2.391807556E0,-1.045098972E1,2.801215947E-1
2.666339795E0,2.547430515E0,-1.031691456E1,0.000000000E0
2.671339961E0,2.585737944E0,-1.006552315E1,-3.256114423E-1
2.676339927E0,2.743755102E0,-9.948206902E0,-6.584054828E-1
2.681339927E0,2.868253708E0,-9.840468407E0,-7.996633649E-1
2.686339927E0,3.076549292E0,-9.780612946E0,-7.972691655E-1
2.691339960E0,3.320757866E0,-9.715970039E0,-6.655880809E-1
2.696339960E0,3.337517262E0,-9.732728958E0,-5.650315881E-1
2.701339960E0,3.454833031E0,-9.730335236E0,-6.727706790E-1
2.706339926E0,3.483563423E0,-9.756670952E0,-7.661445141E-1
2.711339892E0,3.543418407E0,-9.720758438E0,-9.337386489E-1
2.716339858E0,3.562572241E0,-9.615413666E0,-1.053448796E0
2.721339858E0,3.524264812E0,-9.455001831E0,-1.113303781E0
2.726339858E0,3.512293816E0,-9.445425034E0,-1.036689281E0
2.731339891E0,3.347094059E0,-9.450213432E0,-7.733271718E-1
2.736339924E0,3.201047659E0,-9.447818756E0,-5.698199868E-1
2.741339957E0,2.849100113E0,-9.481337547E0,-2.226607651E-1
2.746339957E0,2.602497339E0,-9.462183952E0,-7.182604820E-2
2.751339957E0,2.281674147E0,-9.375992775E0,1.197100878E-1
2.756339923E0,2.102109194E0,-9.292196274E0,2.346317619E-1
2.761339923E0,1.759738207E0,-9.146149635E0,3.758896589E-1
2.766339923E0,1.553836942E0,-8.992920876E0,4.333505034E-1
2.771339956E0,1.436521053E0,-8.873210907E0,4.189853072E-1
2.776339956E0,1.410184860E0,-8.825326920E0,3.687070608E-1
2.781339956E0,1.379060149E0,-8.801384926E0,3.567360640E-1
2.786339922E0,1.362300754E0,-8.755894661E0,3.351882398E-1
2.791339888E0,1.546654344E0,-8.648156166E0,3.902548850E-1
2.796339854E0,1.678335428E0,-8.552388191E0,4.740519226E-1
2.801339854E0,1.754949808E0,-8.729558945E0,4.261679053E-1
2.806339887E0,1.795651317E0,-8.782231331E0,3.591302633E-1
2.811339920E0,1.879448295E0,-8.743924141E0,4.381389022E-1
2.816339953E0,1.977610588E0,-8.609848976E0,5.291185975E-1
2.821339786E0,1.891419291E0,-8.485349655E0,6.464344859E-1
2.826339786E0,1.836352706E0,-8.329727173E0,6.512228847E-1
2.831339752E0,1.613691926E0,-8.226776123E0,5.075707436E-1
2.836339752E0,1.443703651E0,-8.226776123E0,4.501099288E-1
2.841339752E0,1.252167463E0,-8.116642952E0,4.716577232E-1
2.846339785E0,1.252167463E0,-8.083124161E0,4.908113480E-1
2.851339818E0,1.280897856E0,-7.939472198E0,5.865794420E-1
2.856339151E0,1.086967587E0,-7.870040417E0,7.422025204E-1
2.861339151E0,1.118092179E0,-7.666532993E0,9.768342972E-1
2.866339151E0,1.060631394E0,-7.455843449E0,1.213860273E0
2.871339151E0,1.101332784E0,-7.211634636E0,1.462857246E0
2.876339151E0,1.486799240E0,-7.223605633E0,1.714248419E0
2.881339117E0,1.393425345E0,-7.144597054E0,1.881842494E0
2.886339117E0,1.364694953E0,-7.154173851E0,1.991975784E0
2.891339117E0,1.546654344E0,-7.352892876E0,2.075772762E0
2.896339150E0,1.580173135E0,-7.498939037E0,2.054224968E0
2.901339150E0,1.678335428E0,-7.695263386E0,2.047042370E0
2.906339150E0,1.810016513E0,-7.848492622E0,2.087743998E0
2.911339116E0,1.975216389E0,-8.018480301E0,2.061407566E0
2.916339082E0,2.042253971E0,-8.150161743E0,2.013523579E0
2.921339048E0,2.075772762E0,-8.212410927E0,1.996764183E0
2.926339048E0,2.051830769E0,-8.265083313E0,2.011129379E0
2.931339081E0,2.097320795E0,-8.411129951E0,2.193088770E0
2.936339114E0,2.181117773E0,-8.573935509E0,2.274491549E0
2.941339147E0,2.066195965E0,-8.822932243E0,2.561795712E0
2.946339147E0,1.939303398E0,-8.880393028E0,2.736572504E0
2.951339147E0,1.618480325E0,-9.002497673E0,2.985569477E0
2.956339113E0,1.470039845E0,-9.064746857E0,3.028665066E0
2.961339113E0,1.364694953E0,-9.189245224E0,3.071760893E0
2.966339113E0,1.233013868E0,-9.206005096E0,3.169923067E0
2.971339146E0,1.005564690E0,-9.110237122E0,3.306392431E0
2.976339179E0,7.422025204E-1,-9.024045944E0,3.442862034E0
2.981339179E0,5.722141862E-1,-8.844480515E0,3.552995205E0
2.986339145E0,5.458779931E-1,-8.700828552E0,3.569754839E0
2.991339111E0,5.219359994E-1,-8.403946877E0,3.605667830E0
2.996339077E0,5.075707436E-1,-8.200440407E0,3.653551817E0
3.001339043E0,6.177040339E-1,-7.853281021E0,3.658340216E0
3.006339709E0,8.451532125E-1,-7.482179642E0,3.500322819E0
3.011339742E0,1.122880578E0,-7.084742069E0,3.210624456E0
3.016339775E0,1.417367458E0,-6.725611687E0,2.782062292E0
3.021339808E0,1.805228114E0,-6.416759968E0,2.128445387E0
3.026339808E0,1.970427990E0,-6.162974358E0,1.711854219E0
3.031339808E0,2.240972757E0,-5.868487835E0,1.027112484E0
3.036339774E0,2.367865562E0,-5.717652798E0,5.985504389E-1
3.041339107E0,2.516305923E0,-5.483021259E0,-1.556231081E-1
3.046338207E0,2.604891539E0,-5.346551895E0,-6.177040339E-1
3.051337573E0,2.686294317E0,-5.245995045E0,-1.393425345E0
3.056336673E0,2.827552319E0,-5.253177643E0,-1.956062794E0
3.061336673E0,2.980781078E0,-5.327397823E0,-2.480392933E0
3.066336273E0,3.244143248E0,-5.514145851E0,-2.861071110E0
3.071336006E0,3.526659012E0,-5.839757442E0,-3.155557871E0
3.076336006E0,3.670311213E0,-6.141426563E0,-3.208230257E0
3.081335972E0,4.007893562E0,-6.795043468E0,-3.213018656E0
3.086335972E0,4.276044369E0,-7.295432091E0,-3.150769472E0
3.091335972E0,4.778826714E0,-8.241141319E0,-3.028665066E0
3.096382767E0,5.257966042E0,-8.906729698E0,-2.978386879E0
3.101382800E0,5.775113583E0,-1.027621269E1,-2.944868088E0
3.106382800E0,6.234800339E0,-1.149246788E1,-2.899378300E0
3.111382366E0,6.507739544E0,-1.272308731E1,-2.715024710E0
3.116381432E0,6.498162746E0,-1.386751556E1,-2.343923569E0
3.121380765E0,6.148609161E0,-1.531630707E1,-1.604115129E0
3.126380765E0,5.904400826E0,-1.633144760E1,-6.919242740E-1
3.131380798E0,4.975450516E0,-1.849580574E1,3.198653460E0
3.136380798E0,3.734954596E0,-2.014780617E1,8.530839920E0
3.141380798E0,7.852981687E-1,-2.080381775E1,1.638172722E1
3.146380798E0,-4.836287498E-1,-1.893155098E1,1.680310631E1
3.151380798E0,-4.932055473E-1,-1.613991165E1,1.364964294E1
3.156380798E0,-3.136404157E-1,-1.330008984E1,9.184456825E0
3.161380764E0,-6.464344263E-2,-1.105432892E1,4.398148537E0
3.166380764E0,3.088520169E-1,-9.452607155E0,5.051765442E-1
3.171380764E0,1.170764685E0,-8.073547363E0,-2.463633537E0
3.176380797E0,1.671152830E0,-7.520486832E0,-3.292027235E0
3.181380797E0,2.370259762E0,-6.852504730E0,-3.600879431E0
3.186380797E0,2.712630510E0,-6.574777126E0,-3.450044632E0
3.191381430E0,3.263296843E0,-6.474220753E0,-3.124433279E0
3.196382330E0,3.593696833E0,-6.622661114E0,-2.746149302E0
3.201382996E0,3.672705412E0,-6.929119110E0,-2.284068346E0
3.206383929E0,3.543418407E0,-7.249941826E0,-1.877054095E0
3.211383929E0,3.246537447E0,-7.594707012E0,-1.551442742E0
3.216384329E0,3.014299870E0,-7.898770809E0,-1.273715258E0
3.221384595E0,2.669534922E0,-8.255506516E0,-9.959878922E-1
3.226384595E0,2.422932148E0,-8.482955933E0,-8.595184088E-1
3.231384595E0,2.037465572E0,-8.861239433E0,-6.991068721E-1
3.236384561E0,1.879448295E0,-9.160514832E0,-6.296750307E-1
3.241384527E0,1.644816518E0,-9.830891609E0,-6.129156351E-1
3.246384960E0,1.417367458E0,-1.040789413E1,-5.913678408E-1
3.251384960E0,1.074996591E0,-1.083645630E1,-5.099649429E-1
3.256384993E0,6.847416759E-1,-1.102081013E1,-3.734954596E-1
3.261385393E0,3.064578176E-1,-1.099686813E1,-6.943184882E-2
3.266386293E0,2.274491638E-1,-1.088194561E1,1.699883193E-1
3.271386926E0,3.902548850E-1,-1.059224796E1,7.589619160E-1
3.276386926E0,6.200982332E-1,-1.035761547E1,1.187524080E0
3.281386926E0,1.161187768E0,-9.972148895E0,1.951274395E0
3.286386959E0,1.522712231E0,-9.773430824E0,2.339135170E0
3.291386959E0,1.991975784E0,-9.531616211E0,2.791639090E0
3.296386959E0,2.195482969E0,-9.409511566E0,2.863465309E0
3.301386959E0,2.212242365E0,-9.407117844E0,2.626439333E0
3.306386959E0,2.102109194E0,-9.490914345E0,2.181117773E0
3.311386959E0,1.850717902E0,-9.737517357E0,1.410184860E0
3.316386925E0,1.793257117E0,-9.883563995E0,9.121908545E-1
3.321386925E0,1.601720929E0,-1.011580181E1,1.029506698E-1
3.326386925E0,1.594538331E0,-1.023072338E1,-3.136404157E-1
3.331386958E0,1.522712231E0,-1.036001015E1,-9.145850539E-1
3.336386958E0,1.460463047E0,-1.044859505E1,-1.391031146E0
3.341386958E0,1.395819545E0,-1.051563358E1,-1.726219416E0
3.346386924E0,1.479616642E0,-1.050845051E1,-1.936909199E0
3.351386890E0,1.719036818E0,-1.044141293E1,-1.994369984E0
3.356386890E0,1.960851192E0,-1.025466537E1,-1.917755604E0
3.361386923E0,2.269703150E0,-1.002003384E1,-1.441309452E0
3.366386956E0,2.375048161E0,-9.897929192E0,-9.768342972E-1
3.371386956E0,2.391807556E0,-9.747094154E0,-8.140286058E-2
3.376386956E0,2.319981337E0,-9.699210167E0,3.974374831E-1
3.381386956E0,2.173935175E0,-9.615413666E0,1.010353088E0
3.386386956E0,2.068590164E0,-9.613018990E0,1.280897856E0
3.391386956E0,1.987187386E0,-9.579500198E0,1.345541358E0
3.396386922E0,1.932120800E0,-9.555558205E0,1.213860273E0
3.401386922E0,1.927332401E0,-9.514857292E0,9.337386489E-1
3.406386922E0,1.898601890E0,-9.543587685E0,6.057330370E-1
3.411386955E0,1.853112102E0,-9.589076996E0,2.633621991E-1
3.416386955E0,1.764526606E0,-9.663297653E0,1.221042871E-1
3.421386955E0,1.616086125E0,-9.756670952E0,-4.070143029E-2
3.426386921E0,1.467645645E0,-9.766247749E0,-5.985504389E-2
3.431386887E0,1.283292055E0,-9.756670952E0,1.436521020E-2
3.436386853E0,1.132457376E0,-9.682451248E0,6.464344263E-2
3.441386853E0,1.187524080E0,-9.644144058E0,1.484405100E-1
3.446386886E0,1.268926859E0,-9.603442192E0,1.843535304E-1
3.451386919E0,1.319205165E0,-9.589076996E0,2.202665508E-1
3.456386952E0,1.314416766E0,-9.591471672E0,1.675941199E-1
3.461386952E0,1.347935557E0,-9.500492096E0,5.746084079E-2
3.466386952E0,1.381454349E0,-9.426271439E0,-4.548983276E-2
3.471386918E0,1.501164436E0,-9.277831078E0,-2.106897533E-1
3.476386884E0,1.561019540E0,-9.198822021E0,-3.112462163E-1
3.481386884E0,1.647210717E0,-9.103054047E0,-4.525041282E-1
3.486386917E0,1.728613615E0,-9.093477249E0,-5.746083856E-1
3.491386950E0,1.745373011E0,-9.083900452E0,-6.464344859E-1
3.496386950E0,1.814804912E0,-9.131784439E0,-7.469909191E-1
3.501386950E0,1.963245392E0,-9.249100685E0,-8.667010069E-1
3.506386916E0,2.061407566E0,-9.380781174E0,-9.313444495E-1
3.511386882E0,2.255337954E0,-9.550769806E0,-9.481038451E-1
3.516386848E0,2.348711967E0,-9.603442192E0,-9.313444495E-1
3.521386848E0,2.461239338E0,-9.682451248E0,-8.643068075E-1
3.526386881E0,2.509123325E0,-9.701604843E0,-8.116343617E-1
3.531386914E0,2.576161146E0,-9.708786964E0,-7.038952708E-1
3.536386947E0,2.595314741E0,-9.701604843E0,-6.224924326E-1
3.541386947E0,2.679111719E0,-9.665691376E0,-5.554547906E-1
3.546386613E0,2.736572504E0,-9.629778862E0,-4.596867263E-1
3.551386579E0,2.794033289E0,-9.598653793E0,-3.399766386E-1
3.556386579E0,2.853888512E0,-9.553164482E0,-2.920926213E-1
3.561386579E0,2.880224705E0,-9.493309021E0,-1.628057212E-1
3.566386612E0,2.899378300E0,-9.440636635E0,-1.029506698E-1
3.571386612E0,2.896984100E0,-9.392752647E0,-2.154781483E-2
3.576386612E0,2.964021683E0,-9.359233856E0,4.309562966E-2
3.581386612E0,2.925714493E0,-9.359233856E0,1.268926859E-1
3.586386612E0,2.858676910E0,-9.352050781E0,2.178723514E-1
3.591386612E0,2.734178305E0,-9.395146370E0,2.777273953E-1
3.596386578E0,2.571372509E0,-9.440636635E0,2.873041928E-1
3.601386544E0,2.391807556E0,-9.416694641E0,2.849099934E-1
3.606386544E0,2.291250944E0,-9.414299965E0,2.394201756E-1
3.611386577E0,2.078166962E0,-9.438241959E0,1.580173075E-1
3.616386610E0,1.968033791E0,-9.452607155E0,8.619125932E-2
3.621386610E0,1.762132406E0,-9.488520622E0,-3.112462163E-2
3.626386610E0,1.616086125E0,-9.490914345E0,-1.101332754E-1
3.631386576E0,1.510741234E0,-9.545981407E0,-1.987187415E-1
3.636386576E0,1.477222443E0,-9.665691376E0,-2.729389966E-1
3.641386576E0,1.446097851E0,-9.830891609E0,-3.136404157E-1
3.646386609E0,1.436521053E0,-1.002961063E1,-3.519476354E-1
3.651386609E0,1.450886250E0,-1.029297256E1,-3.663128614E-1
3.656386609E0,1.460463047E0,-1.041986465E1,-3.495534360E-1
3.661386609E0,1.513135433E0,-1.058267117E1,-3.447650373E-1
3.666386609E0,1.546654344E0,-1.064731407E1,-3.064578176E-1
3.671386609E0,1.556231141E0,-1.062816048E1,-2.346317619E-1
3.676386575E0,1.580173135E0,-1.059703636E1,-1.388636976E-1
3.681386575E0,1.563413739E0,-1.051323891E1,-5.985504389E-2
3.686386575E0,1.527500629E0,-1.041747093E1,1.675941236E-2
3.691386608E0,1.467645645E0,-1.024269390E1,9.097966552E-2
3.696386941E0,1.431732655E0,-1.011340714E1,1.412578970E-1
3.701386941E0,1.357512355E0,-9.936236382E0,1.460463107E-1
3.706386907E0,1.292868972E0,-9.845256805E0,1.388636976E-1
3.711386873E0,1.225831270E0,-9.713575363E0,1.364694983E-1
3.716386839E0,1.151610970E0,-9.613018990E0,1.244984865E-1
3.721386839E0,1.072602391E0,-9.347262383E0,1.005564705E-1
3.726386839E0,1.125274777E0,-9.196428299E0,-3.112462163E-2
3.731386872E0,1.316810966E0,-9.095871925E0,-2.681505978E-1
3.736386905E0,1.517923832E0,-9.093477249E0,-5.578489900E-1
3.741386938E0,1.683123827E0,-9.213187218E0,-9.265560508E-1
3.746386938E0,1.800439715E0,-9.361627579E0,-1.134851575E0
3.751386938E0,1.984793186E0,-9.672874451E0,-1.431732655E0
3.756386904E0,2.078166962E0,-9.830891609E0,-1.577778935E0
3.761386904E0,2.181117773E0,-1.002721596E1,-1.740584612E0
3.766386904E0,2.214636564E0,-1.010383034E1,-1.795651317E0
3.771386937E0,2.269703150E0,-1.006312943E1,-1.786074519E0
3.776386937E0,2.334346771E0,-9.941024780E0,-1.805228114E0
3.781386937E0,2.372653961E0,-9.754277229E0,-1.752555609E0
3.786386903E0,2.406172752E0,-9.538799286E0,-1.690306425E0
3.791386869E0,2.341529369E0,-9.273042679E0,-1.537077546E0
3.796386835E0,2.300827742E0,-9.155726433E0,-1.405396342E0
3.801386835E0,2.233790159E0,-9.098265648E0,-1.242590666E0
3.806386868E0,2.185906172E0,-9.146149635E0,-1.156399369E0
3.811386901E0,2.181117773E0,-9.265859604E0,-1.003170490E0
3.816386934E0,2.166752577E0,-9.340080261E0,-9.193734527E-1
3.821386934E0,2.114080191E0,-9.383175850E0,-8.475474119E-1
3.826386934E0,2.018311977E0,-9.378387451E0,-7.613561153E-1
3.831386900E0,1.898601890E0,-9.320926666E0,-6.871358752E-1
3.836386900E0,1.769315004E0,-9.249100685E0,-6.296750307E-1
3.841386900E0,1.635239720E0,-9.126996040E0,-5.865794420E-1
3.846386933E0,1.604115129E0,-9.055170059E0,-5.817909837E-1
3.851386966E0,1.556231141E0,-8.997709274E0,-5.889736414E-1
3.856386966E0,1.510741234E0,-9.028834343E0,-5.746083856E-1
3.861386966E0,1.450886250E0,-9.201216698E0,-5.770025849E-1
3.866386966E0,1.376665950E0,-9.490914345E0,-5.530605912E-1
3.871386966E0,1.307234168E0,-9.799766541E0,-5.410895944E-1
3.876386966E0,1.323993564E0,-1.024269390E1,-5.530605912E-1
3.881386932E0,1.453280449E0,-1.075744724E1,-6.057330370E-1
3.886386932E0,1.513135433E0,-1.121234608E1,-5.913678408E-1
3.891386932E0,1.546654344E0,-1.146613121E1,-5.817909837E-1
3.896386965E0,1.501164436E0,-1.143740082E1,-5.410895944E-1
3.901386965E0,1.350329757E0,-1.110939503E1,-4.405331016E-1
3.906386965E0,1.235408068E0,-1.073589993E1,-3.591302633E-1
3.911386931E0,1.072602391E0,-9.957783699E0,-2.370259613E-1
3.916386931E0,1.108515382E0,-9.407117844E0,-2.322375625E-1
3.921386931E0,1.256955862E0,-9.040804863E0,-2.561795712E-1
3.926386964E0,1.417367458E0,-8.794201851E0,-3.280056417E-1
3.931386964E0,1.551442742E0,-8.739135742E0,-3.974374831E-1
3.936386964E0,1.601720929E0,-8.779836655E0,-4.596867263E-1
3.941386964E0,1.625662923E0,-8.954613686E0,-5.602431893E-1
3.946386964E0,1.628057122E0,-9.134179115E0,-6.153098345E-1
3.951386964E0,1.604115129E0,-9.419088364E0,-7.158663273E-1
3.956386930E0,1.527500629E0,-9.522039413E0,-8.236053586E-1
3.961386930E0,1.458068848E0,-9.639355659E0,-9.337386489E-1
3.966386930E0,1.438915253E0,-9.677662849E0,-1.110909581E0
3.971386963E0,1.424550056E0,-9.660902977E0,-1.261744261E0
3.976386996E0,1.436521053E0,-9.641749382E0,-1.407790542E0
3.981386996E0,1.505952835E0,-9.672874451E0,-1.503558636E0
3.986386962E0,1.544260144E0,-9.706393242E0,-1.522712231E0
3.991386928E0,1.580173135E0,-9.759065628E0,-1.501164436E0
3.996386928E0,1.589749932E0,-9.792584419E0,-1.458068848E0
4.001386928E0,1.630451322E0,-9.833285332E0,-1.388636947E0
4.006386961E0,1.640028119E0,-9.804554939E0,-1.331176162E0
4.011386961E0,1.663970232E0,-9.787796021E0,-1.295263171E0
4.016386961E0,1.671152830E0,-9.720758438E0,-1.276109457E0
4.021386961E0,1.671152830E0,-9.646537781E0,-1.233013868E0
4.026386961E0,1.663970232E0,-9.620202065E0,-1.175553083E0
4.031386961E0,1.616086125E0,-9.636960983E0,-1.132457376E0
4.036386927E0,1.623268723E0,-9.624990463E0,-1.122880578E0
4.041386927E0,1.575384736E0,-9.699210167E0,-1.096544385E0
4.046386260E0,1.580173135E0,-9.737517357E0,-1.089361787E0
4.051385393E0,1.517923832E0,-9.763854027E0,-1.079784989E0
4.056385393E0,1.505952835E0,-9.785401344E0,-1.051054597E0
4.061384993E0,1.472434044E0,-9.799766541E0,-1.027112484E0
4.066384293E0,1.458068848E0,-9.780612946E0,-9.768342972E-1
4.071384293E0,1.486799240E0,-9.749488831E0,-9.145850539E-1
4.076384293E0,1.496376038E0,-9.723152161E0,-8.738836050E-1
4.081384326E0,1.517923832E0,-9.694421768E0,-7.733271718E-1
4.086384326E0,1.544260144E0,-9.701604843E0,-7.134721279E-1
4.091384326E0,1.522712231E0,-9.783007622E0,-6.200982332E-1
4.096383426E0,1.541865945E0,-9.816526413E0,-5.506663918E-1
4.101383426E0,1.561019540E0,-9.840468407E0,-4.572925270E-1
4.106383092E0,1.637633920E0,-9.842862129E0,-3.687070608E-1
4.111383058E0,1.661576033E0,-9.835680008E0,-2.992752194E-1
4.116383024E0,1.702277422E0,-9.787796021E0,-2.322375625E-1
4.121383024E0,1.663970232E0,-9.668086052E0,-1.460463107E-1
4.126383024E0,1.678335428E0,-9.605836868E0,-1.125274822E-1
4.131383057E0,1.656787634E0,-9.538799286E0,-5.267243832E-2
4.136383057E0,1.620874524E0,-9.541193008E0,-2.633621916E-2
4.141383057E0,1.599326730E0,-9.517251015E0,3.351882473E-2
4.146383023E0,1.587355733E0,-9.529222488E0,5.985504389E-2
4.151383023E0,1.539471745E0,-9.536404610E0,5.985504389E-2
4.156383023E0,1.549048543E0,-9.560346603E0,4.788403399E-3
4.161383056E0,1.534683347E0,-9.598653793E0,-8.858546615E-2
4.166383056E0,1.544260144E0,-9.620202065E0,-1.723825186E-1
4.171383056E0,1.517923832E0,-9.627384186E0,-2.873041928E-1
4.176383056E0,1.529894829E0,-9.624990463E0,-3.639186621E-1
4.181383056E0,1.553836942E0,-9.617807388E0,-5.386953950E-1
4.186383056E0,1.580173135E0,-9.589076996E0,-6.177040339E-1
4.191383022E0,1.599326730E0,-9.565135002E0,-7.374141216E-1
4.196383688E0,1.599326730E0,-9.562741280E0,-8.595184088E-1
4.201384588E0,1.647210717E0,-9.581894875E0,-9.552865028E-1
4.206384621E0,1.647210717E0,-9.627384186E0,-1.041477680E0
4.211385021E0,1.640028119E0,-9.701604843E0,-1.094150186E0
4.216385687E0,1.644816518E0,-9.725546837E0,-1.130063176E0
4.221385653E0,1.606509328E0,-9.715970039E0,-1.156399369E0
4.226385619E0,1.613691926E0,-9.694421768E0,-1.168370485E0
4.231385585E0,1.594538331E0,-9.675268173E0,-1.201889277E0
4.236384918E0,1.606509328E0,-9.648932457E0,-1.213860273E0
4.241384918E0,1.616086125E0,-9.617807388E0,-1.211466074E0
4.246385851E0,1.594538331E0,-9.572318077E0,-1.206677675E0
4.251385884E0,1.592144132E0,-9.541193008E0,-1.182735682E0
4.256386250E0,1.584961534E0,-9.545981407E0,-1.139639974E0
4.261386250E0,1.580173135E0,-9.569923401E0,-1.082179189E0
4.266385583E0,1.601720929E0,-9.596260071E0,-1.036689281E0
4.271384883E0,1.640028119E0,-9.634567261E0,-9.768342972E-1
4.276384883E0,1.666364431E0,-9.656114578E0,-9.576807022E-1
4.281384883E0,1.671152830E0,-9.694421768E0,-9.313444495E-1
4.286384916E0,1.680729628E0,-9.682451248E0,-9.121908545E-1
4.291384916E0,1.673547029E0,-9.706393242E0,-8.690952063E-1
4.296384916E0,1.690306425E0,-9.689633369E0,-8.259995580E-1
4.301384882E0,1.675941229E0,-9.696816444E0,-7.637503147E-1
4.306384848E0,1.675941229E0,-9.684844971E0,-7.254431248E-1
4.311384814E0,1.647210717E0,-9.675268173E0,-6.416460276E-1
4.316384814E0,1.623268723E0,-9.684844971E0,-6.105214357E-1
4.321384847E0,1.594538331E0,-9.715970039E0,-5.674257874E-1
4.326384880E0,1.599326730E0,-9.703998566E0,-5.291185975E-1
4.331384913E0,1.604115129E0,-9.725546837E0,-5.123591423E-1
4.336384913E0,1.596932530E0,-9.763854027E0,-4.644751251E-1
4.341384913E0,1.599326730E0,-9.809343338E0,-4.237737060E-1
4.346384879E0,1.575384736E0,-9.797372818E0,-3.711012602E-1
4.351384845E0,1.565807939E0,-9.763854027E0,-3.519476354E-1
4.356384845E0,1.525106430E0,-9.751882553E0,-2.801215947E-1
4.361384878E0,1.503558636E0,-9.699210167E0,-2.346317619E-1
4.366384911E0,1.470039845E0,-9.646537781E0,-2.178723514E-1
4.371384911E0,1.446097851E0,-9.572318077E0,-1.915361285E-1
4.376384911E0,1.441309452E0,-9.538799286E0,-1.771709323E-1
4.381384911E0,1.453280449E0,-9.534010887E0,-2.011129409E-1
4.386385577E0,1.455674648E0,-9.550769806E0,-2.585737705E-1
4.391385577E0,1.467645645E0,-9.610625267E0,-3.495534360E-1
4.396385543E0,1.508347034E0,-9.658509254E0,-4.692635238E-1
4.401384876E0,1.558625340E0,-9.696816444E0,-5.865794420E-1
4.406384876E0,1.616086125E0,-9.703998566E0,-6.895300746E-1
4.411384909E0,1.654393315E0,-9.668086052E0,-8.212111592E-1
4.416385575E0,1.673547029E0,-9.646537781E0,-8.906430602E-1
4.421386241E0,1.733402014E0,-9.629778862E0,-9.983820915E-1
4.426386207E0,1.750161409E0,-9.603442192E0,-1.039083481E0
4.431386173E0,1.781286120E0,-9.579500198E0,-1.106121182E0
4.436386139E0,1.776497602E0,-9.572318077E0,-1.134851575E0
4.441386139E0,1.762132406E0,-9.610625267E0,-1.146822572E0
4.446386172E0,1.790862918E0,-9.617807388E0,-1.146822572E0
4.451386205E0,1.764526606E0,-9.613018990E0,-1.144428372E0
4.456386238E0,1.747767210E0,-9.605836868E0,-1.146822572E0
4.461386238E0,1.728613615E0,-9.598653793E0,-1.115697980E0
4.466386238E0,1.707065821E0,-9.613018990E0,-1.091755986E0
4.471386204E0,1.654393315E0,-9.622595787E0,-1.058237195E0
4.476386170E0,1.642422318E0,-9.610625267E0,-1.031900883E0
4.481386170E0,1.599326730E0,-9.651326180E0,-9.840168953E-1
4.486386203E0,1.568202138E0,-9.656114578E0,-9.672574997E-1
4.491386236E0,1.551442742E0,-9.699210167E0,-9.457096457E-1
4.496386236E0,1.529894829E0,-9.680056572E0,-9.409212470E-1
4.501386236E0,1.529894829E0,-9.677662849E0,-9.265560508E-1
4.506386202E0,1.532289028E0,-9.715970039E0,-9.169792533E-1
4.511386168E0,1.553836942E0,-9.754277229E0,-8.667010069E-1
4.516386134E0,1.534683347E0,-9.747094154E0,-8.283938169E-1
4.521386134E0,1.575384736E0,-9.751882553E0,-7.876923680E-1
4.526386167E0,1.618480325E0,-9.744700432E0,-7.565677166E-1
4.531385333E0,1.719036818E0,-9.603442192E0,-6.129156351E-1
4.536384499E0,1.719036818E0,-9.601048470E0,-5.865794420E-1
4.541383632E0,1.723825216E0,-9.596260071E0,-5.746083856E-1
4.546382732E0,1.723825216E0,-9.596260071E0,-5.746083856E-1
4.551383365E0,1.800439715E0,-9.562741280E0,-5.339069963E-1
4.556383365E0,1.795651317E0,-9.545981407E0,-5.051765442E-1
4.561383365E0,1.845929503E0,-9.574711800E0,-4.596867263E-1
4.566383398E0,1.881842494E0,-9.593865395E0,-4.333505034E-1
4.571383398E0,1.934514999E0,-9.596260071E0,-3.878606856E-1
4.576383398E0,1.946485996E0,-9.608230591E0,-3.567360640E-1
4.581383398E0,1.999158382E0,-9.624990463E0,-2.801215947E-1
4.586383398E0,1.994369984E0,-9.639355659E0,-2.633621991E-1
4.591383398E0,1.970427990E0,-9.644144058E0,-2.298433632E-1
4.596383364E0,1.924938202E0,-9.660902977E0,-2.059013397E-1
4.601383330E0,1.872265697E0,-9.646537781E0,-2.274491638E-1
4.606383330E0,1.826775908E0,-9.644144058E0,-2.513911724E-1
4.611383363E0,1.731007814E0,-9.620202065E0,-3.447650373E-1
4.616382996E0,1.731007814E0,-9.632172585E0,-3.926490843E-1
4.621382996E0,1.711854219E0,-9.593865395E0,-5.315127969E-1
4.626382996E0,1.714248419E0,-9.536404610E0,-6.320692301E-1
4.631382962E0,1.716642618E0,-9.543587685E0,-7.254431248E-1
4.636382962E0,1.738190413E0,-9.522039413E0,-8.188169599E-1
4.641382962E0,1.759738207E0,-9.500492096E0,-9.026140571E-1
4.646382995E0,1.790862918E0,-9.483732224E0,-9.744400978E-1
4.651382995E0,1.812410712E0,-9.541193008E0,-1.118092179E0
4.656382128E0,1.812410712E0,-9.541193008E0,-1.118092179E0
4.661382128E0,1.786074519E0,-9.545981407E0,-1.132457376E0
4.666382128E0,1.790862918E0,-9.562741280E0,-1.149216771E0
4.671382128E0,1.740584612E0,-9.555558205E0,-1.165976286E0
4.676382094E0,1.702277422E0,-9.557952881E0,-1.180341482E0
4.681382094E0,1.678335428E0,-9.536404610E0,-1.177947283E0
4.686382960E0,1.642422318E0,-9.545981407E0,-1.185129881E0
4.691383860E0,1.596932530E0,-9.589076996E0,-1.189918280E0
4.696384760E0,1.575384736E0,-9.632172585E0,-1.180341482E0
4.701384760E0,1.541865945E0,-9.632172585E0,-1.170764685E0
4.706384726E0,1.544260144E0,-9.663297653E0,-1.134851575E0
4.711384692E0,1.539471745E0,-9.663297653E0,-1.084573388E0
4.716384658E0,1.558625340E0,-9.653720856E0,-1.036689281E0
4.721384658E0,1.561019540E0,-9.672874451E0,-9.648633003E-1
4.726384658E0,1.568202138E0,-9.677662849E0,-8.954314590E-1
4.731384691E0,1.565807939E0,-9.682451248E0,-8.164227605E-1
4.736384724E0,1.594538331E0,-9.708786964E0,-7.374141216E-1
4.741384757E0,1.606509328E0,-9.720758438E0,-6.584054828E-1
4.746384757E0,1.628057122E0,-9.718363762E0,-6.177040339E-1
4.751384757E0,1.620874524E0,-9.689633369E0,-4.955997467E-1
4.756384723E0,1.587355733E0,-9.682451248E0,-4.285621047E-1
4.761384723E0,1.572990537E0,-9.692028046E0,-3.112462163E-1
4.766385123E0,1.537077546E0,-9.694421768E0,-2.202665508E-1
4.771385156E0,1.493981838E0,-9.694421768E0,-1.173158810E-1
4.776385156E0,1.448492050E0,-9.668086052E0,-4.788403213E-2
4.781385156E0,1.426944256E0,-9.634567261E0,3.112462163E-2
4.786385122E0,1.403002143E0,-9.613018990E0,5.985504389E-2
4.791385088E0,1.405396342E0,-9.569923401E0,8.619125932E-2
4.796385054E0,1.424550056E0,-9.560346603E0,8.858546615E-2
4.801385054E0,1.455674648E0,-9.519645691E0,3.112462163E-2
4.806385954E0,1.517923832E0,-9.529222488E0,-2.873042040E-2
4.811385987E0,1.592144132E0,-9.502885818E0,-1.436520964E-1
4.816386020E0,1.666364431E0,-9.505280495E0,-2.202665508E-1
4.821386020E0,1.723825216E0,-9.548376083E0,-3.280056417E-1
4.826386020E0,1.802833915E0,-9.543587685E0,-4.261679053E-1
4.831386853E0,1.862688899E0,-9.620202065E0,-5.123591423E-1
4.836386853E0,1.915361404E0,-9.624990463E0,-5.817909837E-1
4.841386853E0,1.941697598E0,-9.615413666E0,-6.536170840E-1
4.846386886E0,1.948880196E0,-9.617807388E0,-6.991068721E-1
4.851386919E0,1.960851192E0,-9.591471672E0,-7.541735172E-1
4.856386919E0,1.944091797E0,-9.569923401E0,-7.876923680E-1
4.861386919E0,1.934514999E0,-9.512462616E0,-8.283938169E-1
4.866386919E0,1.920149803E0,-9.493309021E0,-8.523358107E-1
4.871386919E0,1.900996208E0,-9.471760750E0,-8.762778044E-1
4.876386919E0,1.833958507E0,-9.452607155E0,-8.810662031E-1
4.881386885E0,1.795651317E0,-9.462183952E0,-9.002198577E-1
4.886386885E0,1.740584612E0,-9.505280495E0,-9.121908545E-1
4.891386885E0,1.699883223E0,-9.562741280E0,-9.193734527E-1
4.896386918E0,1.654393315E0,-9.586683273E0,-9.313444495E-1
4.901386918E0,1.541865945E0,-9.605836868E0,-9.169792533E-1
4.906386918E0,1.508347034E0,-9.620202065E0,-9.313444495E-1
4.911386884E0,1.448492050E0,-9.636960983E0,-9.217676520E-1
4.916386884E0,1.386242747E0,-9.646537781E0,-9.097966552E-1
4.921386884E0,1.345541358E0,-9.644144058E0,-8.690952063E-1
4.926386917E0,1.314416766E0,-9.656114578E0,-8.475474119E-1
4.931386917E0,1.292868972E0,-9.672874451E0,-7.996633649E-1
4.936386917E0,1.295263171E0,-9.658509254E0,-7.613561153E-1
4.941386917E0,1.259350061E0,-9.651326180E0,-6.751648784E-1
4.946386917E0,1.261744261E0,-9.634567261E0,-6.464344859E-1
4.951386917E0,1.302445769E0,-9.617807388E0,-5.458779931E-1
4.956386883E0,1.302445769E0,-9.641749382E0,-4.932055473E-1
4.961386883E0,1.328781962E0,-9.653720856E0,-4.189853072E-1
4.966386883E0,1.367089152E0,-9.644144058E0,-3.543418646E-1
4.971386916E0,1.381454349E0,-9.613018990E0,-2.968810201E-1
4.976386949E0,1.458068848E0,-9.608230591E0,-2.513911724E-1
4.981386282E0,1.525106430E0,-9.605836868E0,-2.609679997E-1
4.986385582E0,1.575384736E0,-9.601048470E0,-2.418143749E-1
4.991385548E0,1.625662923E0,-9.629778862E0,-2.609679997E-1
4.996385548E0,1.663970232E0,-9.610625267E0,-2.657563984E-1
5.001385548E0,1.709460020E0,-9.591471672E0,-3.088520169E-1
5.006385581E0,1.716642618E0,-9.584288597E0,-3.447650373E-1
5.011385581E0,1.778891921E0,-9.541193008E0,-3.998316824E-1
5.016385581E0,1.774103403E0,-9.534010887E0,-4.620809257E-1
5.021385581E0,1.774103403E0,-9.553164482E0,-4.860229492E-1
5.026385581E0,1.740584612E0,-9.574711800E0,-5.243301988E-1
5.031385581E0,1.762132406E0,-9.603442192E0,-5.578489900E-1
5.036385547E0,1.783680320E0,-9.644144058E0,-6.009446383E-1
5.041385547E0,1.762132406E0,-9.610625267E0,-6.200982332E-1
5.046384880E0,1.731007814E0,-9.589076996E0,-6.272808313E-1
5.051384013E0,1.704671621E0,-9.584288597E0,-6.344634295E-1
5.056383113E0,1.675941229E0,-9.581894875E0,-6.320692301E-1
5.061382446E0,1.659181833E0,-9.562741280E0,-6.344634295E-1
5.066382412E0,1.640028119E0,-9.557952881E0,-6.464344859E-1
5.071381978E0,1.616086125E0,-9.560346603E0,-6.440402865E-1
5.076381544E0,1.553836942E0,-9.548376083E0,-6.296750307E-1
5.081381544E0,1.544260144E0,-9.584288597E0,-6.248866320E-1
5.086381577E0,1.553836942E0,-9.598653793E0,-6.177040339E-1
5.091381610E0,1.563413739E0,-9.598653793E0,-6.272808313E-1
5.096381643E0,1.582567334E0,-9.598653793E0,-6.296750307E-1
5.101380776E0,1.592144132E0,-9.579500198E0,-6.200982332E-1
5.106380109E0,1.570596337E0,-9.541193008E0,-6.153098345E-1
5.111380075E0,1.596932530E0,-9.488520622E0,-5.937620401E-1
5.116380041E0,1.611297727E0,-9.440636635E0,-6.105214357E-1
5.121380041E0,1.697489023E0,-9.402329445E0,-6.177040339E-1
5.126380041E0,1.776497602E0,-9.354445457E0,-6.344634295E-1
5.131380741E0,1.845929503E0,-9.294589996E0,-6.440402865E-1
5.136381407E0,1.917755604E0,-9.268254280E0,-6.560112834E-1
5.141381407E0,1.996764183E0,-9.261071205E0,-6.871358752E-1
5.146381373E0,2.030282974E0,-9.234735489E0,-6.847416759E-1
5.151381339E0,2.073378563E0,-9.246706009E0,-7.015010715E-1
5.156381305E0,2.090138197E0,-9.239523888E0,-6.823474765E-1
5.161381305E0,2.109291792E0,-9.239523888E0,-7.038952708E-1
5.166381338E0,2.099714994E0,-9.234735489E0,-7.134721279E-1
5.171381371E0,2.059013367E0,-9.208398819E0,-7.230489254E-1
5.176381404E0,2.035071373E0,-9.184456825E0,-7.422025204E-1
5.181381404E0,1.977610588E0,-9.217975616E0,-7.565677166E-1
5.186381404E0,1.941697598E0,-9.256282806E0,-7.661445141E-1
5.191381370E0,1.831564307E0,-9.390357971E0,-7.996633649E-1
5.196382036E0,1.786074519E0,-9.478943825E0,-8.140285611E-1
5.201382936E0,1.651999116E0,-9.699210167E0,-8.930372596E-1
5.206383869E0,1.553836942E0,-9.876380920E0,-9.696516991E-1
5.211384535E0,1.441309452E0,-1.008946514E1,-1.036689281E0
5.216384535E0,1.345541358E0,-1.022593498E1,-1.156399369E0
5.221384935E0,1.173158884E0,-1.031691456E1,-1.314416766E0
5.226385335E0,1.089361787E0,-1.034325027E1,-1.419761658E0
5.231385335E0,8.762778044E-1,-1.032649136E1,-1.671152830E0
5.236385301E0,6.488286853E-1,-1.027860737E1,-1.900996208E0
5.241385267E0,2.130839527E-1,-1.027860737E1,-2.293645144E0
5.246385267E0,6.703764945E-2,-1.028818417E1,-2.722207308E0
5.251386167E0,4.141969085E-1,-1.016607952E1,-3.282450438E0
5.256386867E0,1.003170490E0,-9.952995300E0,-3.629609823E0
5.261386867E0,1.673547029E0,-9.749488831E0,-3.462015629E0
5.266386867E0,2.238578558E0,-9.524434090E0,-2.856282711E0
5.271386833E0,2.521094322E0,-9.340080261E0,-1.759738207E0
5.276386833E0,2.571372509E0,-9.308955193E0,-1.086967587E0
5.281386833E0,2.561795712E0,-9.462183952E0,-1.556231081E-1
5.286386866E0,2.549824715E0,-9.572318077E0,3.471592367E-1
5.291386866E0,2.549824715E0,-9.663297653E0,1.024718285E0
5.296386866E0,2.482787132E0,-9.593865395E0,1.479616642E0
5.301386866E0,2.346317768E0,-9.488520622E0,1.781286120E0
5.306386866E0,2.255337954E0,-9.435848236E0,1.867477298E0
5.311386866E0,2.078166962E0,-9.419088364E0,1.733402014E0
5.316386832E0,1.879448295E0,-9.433453560E0,1.436521053E0
5.321386832E0,1.503558636E0,-9.519645691E0,8.427590132E-1
5.326386832E0,1.249773264E0,-9.581894875E0,4.692635238E-1
5.331386865E0,8.164227605E-1,-9.639355659E0,-1.891419291E-1
5.336386865E0,6.129156351E-1,-9.663297653E0,-6.105214357E-1
5.341386865E0,3.639186621E-1,-9.711181641E0,-1.297657371E0
5.346386831E0,2.274491638E-1,-9.720758438E0,-1.707065821E0
5.351386797E0,8.619125932E-2,-9.723152161E0,-2.042253971E0
5.356386797E0,-9.576806799E-3,-9.756670952E0,-2.217030764E0
5.361386830E0,-1.173158810E-1,-9.754277229E0,-2.305616140E0
5.366386863E0,-1.723825186E-1,-9.694421768E0,-2.296039343E0
5.371386863E0,-1.915361285E-1,-9.562741280E0,-2.197877169E0
5.376386863E0,-1.604115069E-1,-9.426271439E0,-2.090138197E0
5.381386863E0,-9.097966552E-2,-9.194033623E0,-1.877054095E0
5.386386863E0,-4.788403399E-3,-9.081506729E0,-1.750161409E0
5.391386863E0,1.532289088E-1,-8.990526199E0,-1.513135433E0
5.396386829E0,2.777273953E-1,-8.990526199E0,-1.335964561E0
5.401386829E0,4.094084799E-1,-8.990526199E0,-1.187524080E0
5.406386829E0,5.554547906E-1,-9.009679794E0,-1.039083481E0
5.411386862E0,7.685387731E-1,-9.091083527E0,-8.403648138E-1
5.416386862E0,8.738836050E-1,-9.117419243E0,-7.613561153E-1
5.421386862E0,1.120486379E0,-9.182063103E0,-6.105214357E-1
5.426386828E0,1.350329757E0,-9.234735489E0,-5.219359994E-1
5.431386794E0,1.675941229E0,-9.313743591E0,-3.615244627E-1
5.436386760E0,1.836352706E0,-9.347262383E0,-2.944868207E-1
5.441386760E0,2.027888775E0,-9.385569572E0,-1.723825186E-1
5.446386793E0,2.135627985E0,-9.423876762E0,-9.576806426E-2
5.451386826E0,2.169146776E0,-9.469367027E0,-8.619125932E-2
5.456386859E0,2.171540976E0,-9.505280495E0,-1.364694983E-1
5.461386859E0,2.219424963E0,-9.622595787E0,-2.466027737E-1
5.466386859E0,2.348711967E0,-9.677662849E0,-3.375824392E-1
5.471386825E0,2.525882721E0,-9.718363762E0,-5.219359994E-1
5.476386125E0,2.638410330E0,-9.672874451E0,-6.536170840E-1
5.481385891E0,2.715024710E0,-9.512462616E0,-7.637503147E-1
5.486385924E0,2.657563925E0,-9.347262383E0,-7.733271718E-1
5.491385957E0,2.557007313E0,-9.150938034E0,-7.422025204E-1
5.496385957E0,2.451662540E0,-8.995314598E0,-6.919242740E-1
5.501385957E0,2.245761156E0,-8.813355446E0,-6.464344859E-1
5.506385923E0,1.975216389E0,-8.674491882E0,-5.722141862E-1
5.511385889E0,1.563413739E0,-8.480561256E0,-4.812345505E-1
5.516385855E0,1.350329757E0,-8.487744331E0,-4.525041282E-1
5.521385855E0,1.067813993E0,-8.569147110E0,-4.572925270E-1
5.526385888E0,9.433154464E-1,-8.640973091E0,-4.884171486E-1
5.531385921E0,8.116343617E-1,-8.892364502E0,-5.961562395E-1
5.536385954E0,7.110779285E-1,-9.165303230E0,-7.350199223E-1
5.541385954E0,6.464344859E-1,-9.464578629E0,-8.475474119E-1
5.546385954E0,5.506663918E-1,-9.763854027E0,-9.337386489E-1
5.551385920E0,5.578489900E-1,-1.004876423E1,-9.600749016E-1
5.556385920E0,6.057330370E-1,-1.027142429E1,-9.911994934E-1
5.561385920E0,6.584054828E-1,-1.053718090E1,-1.017535686E0
5.566385953E0,7.038952708E-1,-1.064013195E1,-1.010353088E0
5.571385953E0,7.757213712E-1,-1.075744724E1,-1.027112484E0
5.576385953E0,8.188169599E-1,-1.083645630E1,-1.007958889E0
5.581385953E0,8.595184088E-1,-1.083406162E1,-9.600749016E-1
5.586385953E0,8.619126081E-1,-1.083645630E1,-9.097966552E-1
5.591385953E0,9.145850539E-1,-1.084603310E1,-8.906430602E-1
5.596385919E0,9.768342972E-1,-1.090349388E1,-8.738836050E-1
5.601491266E0,1.058237195E0,-1.097292614E1,-8.355764151E-1
5.606491266E0,1.074996591E0,-1.103517532E1,-7.781155705E-1
5.611491299E0,9.720458984E-1,-1.109263611E1,-6.703764796E-1
5.616491332E0,8.714894056E-1,-1.111657810E1,-5.722141862E-1
5.621491332E0,6.344634295E-1,-1.115727901E1,-3.447650373E-1
5.626491998E0,4.788403511E-1,-1.119798088E1,-2.226607651E-1
5.631492198E0,1.891419291E-1,-1.121713448E1,-6.703764945E-2
5.636492198E0,-1.915361360E-2,-1.127459526E1,2.873042040E-2
5.641492198E0,-1.460463107E-1,-1.134163284E1,1.077390760E-1
5.646492231E0,-2.537853718E-1,-1.143021774E1,1.987187415E-1
5.651492231E0,-3.447650373E-1,-1.152598667E1,3.591302633E-1
5.656492231E0,-4.094084799E-1,-1.162893677E1,5.171475410E-1
5.661492231E0,-4.572925270E-1,-1.171512794E1,8.571242094E-1
5.666492231E0,-4.357447028E-1,-1.174385834E1,1.118092179E0
5.671492231E0,-3.495534360E-1,-1.171991634E1,1.577778935E0
5.676492197E0,-1.915361285E-1,-1.167442703E1,1.956062794E0
5.681492197E0,1.197100803E-2,-1.154035187E1,2.291250944E0
5.686492197E0,2.777273953E-1,-1.143261242E1,2.592920542E0
5.691492230E0,5.075707436E-1,-1.135599804E1,2.738966703E0
5.696492230E0,7.134721279E-1,-1.136557484E1,2.753331900E0
5.701492230E0,8.379706144E-1,-1.145894814E1,2.504334927E0
5.706492196E0,9.193734527E-1,-1.155471706E1,2.238578558E0
5.711492162E0,8.523358107E-1,-1.177258873E1,1.666364431E0
5.716492128E0,7.709329724E-1,-1.196891403E1,1.165976286E0
5.721492128E0,5.674257874E-1,-1.236635113E1,2.896983922E-1
5.726492128E0,3.160346150E-1,-1.269914532E1,-2.873041928E-1
5.731492161E0,8.140286058E-2,-1.304630470E1,-6.991068721E-1
5.736492194E0,-1.987187415E-1,-1.333600235E1,-1.067813993E0
5.741492227E0,-4.525041282E-1,-1.361612415E1,-1.374271750E0
5.746492227E0,-5.793967843E-1,-1.392497635E1,-1.625662923E0
5.751492227E0,-6.248866320E-1,-1.428410625E1,-1.723825216E0
5.756492193E0,-6.679822803E-1,-1.445648956E1,-1.685518026E0
5.761492193E0,-7.900865674E-1,-1.442057610E1,-1.565807939E0
5.766492193E0,-7.374141216E-1,-1.417157936E1,-1.403002143E0
5.771492226E0,-2.992752194E-1,-1.339585781E1,-7.900865674E-1
5.776492226E0,3.327940404E-1,-1.255309868E1,2.059013397E-1
5.781492226E0,1.295263171E0,-1.166006184E1,1.642422318E0
5.786492192E0,2.456450939E0,-1.066407394E1,3.658340216E0
5.791492158E0,4.017470360E0,-9.823708534E0,5.849334240E0
5.796492124E0,4.939537525E0,-9.148544312E0,7.264307022E0
5.801492124E0,6.318597794E0,-8.703222275E0,7.180510044E0
5.806492157E0,6.931513309E0,-8.820538521E0,6.304232121E0
5.811492190E0,7.537246227E0,-9.352050781E0,4.321534157E0
5.816492223E0,7.819762230E0,-9.651326180E0,3.181894064E0
5.821492223E0,8.277054787E0,-1.028339577E1,1.692700624E0
5.826492223E0,8.526051521E0,-1.101123333E1,7.924807668E-1
5.831492189E0,8.597877502E0,-1.178934860E1,-1.125274822E-1
5.836492189E0,8.542811394E0,-1.232804394E1,-8.667010069E-1
5.841492189E0,7.307403088E0,-1.253873348E1,-2.343923569E0
5.846492222E0,6.239588737E0,-1.266802025E1,-3.536235809E0
5.851492255E0,5.638644218E0,-1.261774254E1,-5.301061630E0
5.856492255E0,5.724835396E0,-1.232804394E1,-5.885247231E0
5.861492255E0,5.705681801E0,-1.182526112E1,-5.032911301E0
5.866492255E0,5.550058842E0,-1.197130775E1,-3.737348795E0
5.871492255E0,4.704606533E0,-1.258901215E1,-1.505952835E0
5.876492255E0,3.892971992E0,-1.319474506E1,-3.471592367E-1
5.881492221E0,3.337517262E0,-1.352275085E1,2.322375625E-1
5.886492221E0,2.789244890E0,-1.355626965E1,5.410895944E-1
5.891492221E0,1.400607944E0,-1.338388634E1,4.596867263E-1
5.896492254E0,9.337386489E-1,-1.332163715E1,3.615244627E-1
5.901492254E0,4.548983276E-1,-1.348444366E1,6.320692301E-1
5.906492254E0,2.873041928E-1,-1.376456451E1,1.130063176E0
5.911492220E0,-4.716577232E-1,-1.374780560E1,1.716642618E0
5.916492220E0,-1.003170490E0,-1.389624596E1,2.219424963E0
5.921492220E0,-8.978256583E-1,-1.409735870E1,2.272097349E0
5.926492253E0,-9.576807022E-1,-1.400877380E1,1.740584612E0
5.931492253E0,-1.228225470E0,-1.357542324E1,8.786720037E-1
5.936492253E0,-1.640028119E0,-1.322108078E1,6.224924326E-2
5.941492253E0,-1.738190413E0,-1.291941166E1,-7.900865674E-1
5.946492253E0,-1.558625340E0,-1.270153904E1,-1.151610970E0
5.951492253E0,-1.048660398E0,-1.224424648E1,-1.582567334E0
5.956492219E0,-6.536170840E-1,-1.191384697E1,-1.788468719E0
5.961492219E0,5.985504389E-2,-1.137754536E1,-2.051830769E0
5.966492219E0,6.224924326E-1,-1.096334839E1,-2.135627985E0
5.971492252E0,1.247379065E0,-1.060900688E1,-1.865083098E0
5.976492285E0,1.738190413E0,-1.010383034E1,-1.295263171E0
5.981492285E0,1.872265697E0,-9.835680008E0,-1.161187768E0
5.986492251E0,2.121262789E0,-9.466972351E0,-9.217676520E-1
5.991492217E0,2.676717520E0,-8.906729698E0,-3.926490843E-1
5.996492217E0,2.918531895E0,-8.461407661E0,-1.580173075E-1
6.001492217E0,3.246537447E0,-7.764695168E0,1.580173075E-1
6.006492250E0,3.356670856E0,-7.496544838E0,2.130839527E-1
6.011492250E0,3.409343243E0,-7.355287075E0,1.436520964E-1
6.016492250E0,3.399766445E0,-7.297826290E0,3.351882473E-2
6.021492250E0,3.275267839E0,-7.249941826E0,-1.173158810E-1
6.026492250E0,3.026270866E0,-7.257124424E0,-3.591302633E-1
6.031492250E0,2.252943754E0,-7.273883820E0,-8.259995580E-1
6.036492216E0,1.740584612E0,-7.393594265E0,-1.055842996E0
6.041492216E0,1.158793569E0,-7.585130215E0,-1.434126854E0
6.046491549E0,9.911994934E-1,-7.695263386E0,-1.594538331E0
6.051490682E0,8.020575643E-1,-7.810185432E0,-1.584961534E0
6.056489782E0,6.919242740E-1,-7.683292389E0,-1.467645645E0
6.061489782E0,7.350199223E-1,-7.434295654E0,-1.113303781E0
6.066489748E0,1.079784989E0,-6.998550892E0,-9.217676520E-1
6.071489048E0,1.256955862E0,-6.450278759E0,-8.858546019E-1
6.076489014E0,1.438915253E0,-5.837363243E0,-7.948749661E-1
6.081489014E0,1.405396342E0,-5.183745861E0,-1.063025594E0
6.086488380E0,1.410184860E0,-4.812345505E0,-1.321599364E0
6.091488413E0,1.580173135E0,-4.180276394E0,-1.561019540E0
6.096488446E0,1.561019540E0,-3.854664803E0,-1.623268723E0
6.101488479E0,1.491587639E0,-3.162740469E0,-1.496376038E0
6.106488479E0,1.448492050E0,-2.856282711E0,-1.319205165E0
6.111488445E0,1.379060149E0,-2.372653961E0,-1.084573388E0
6.116488011E0,1.177947283E0,-2.248155355E0,-8.643068075E-1
6.121487111E0,1.048660398E0,-2.243366957E0,-4.764461517E-1
6.126487111E0,9.097966552E-1,-2.214636564E0,-1.460463107E-1
6.131486477E0,8.475474119E-1,-2.451662540E0,2.130839527E-1
6.136486477E0,6.631938815E-1,-2.255337954E0,4.740519226E-1
6.141486477E0,4.285621047E-1,-2.252943754E0,7.661445141E-1
6.146486443E0,3.854664862E-1,-2.202665567E0,9.840168953E-1
6.151486409E0,3.519476354E-1,-2.092532396E0,1.295263171E0
6.156486375E0,5.099649429E-1,-2.310404539E0,1.570596337E0
6.161486375E0,6.272808313E-1,-2.214636564E0,1.934514999E0
6.166486408E0,6.009446383E-1,-2.176329374E0,2.171540976E0
6.171486441E0,6.392518282E-1,-2.322375536E0,2.346317768E0
6.176486474E0,6.153098345E-1,-2.513911724E0,2.437297344E0
6.181486474E0,6.057330370E-1,-2.932897091E0,2.482787132E0
6.186486474E0,7.805097699E-1,-3.258508444E0,2.657563925E0
6.191486440E0,9.026140571E-1,-3.675099611E0,3.325546265E0
6.196487106E0,1.022324085E0,-3.998316765E0,3.715801001E0
6.201488006E0,1.180341482E0,-4.730942726E0,4.604049683E0
6.206488939E0,1.067813993E0,-5.799055576E0,5.241206646E0
6.211488939E0,8.475474119E-1,-7.015310287E0,5.868487835E0
6.216488939E0,4.477157295E-1,-8.236352921E0,6.574777126E0
6.221489605E0,-2.825157940E-1,-9.538799286E0,7.443872452E0
6.226489605E0,-7.805097699E-1,-1.085560989E1,8.502109528E0
6.231489605E0,-1.338358760E0,-1.261055946E1,1.001285076E1
6.236490271E0,-1.884236693E0,-1.379568958E1,1.115249062E1
6.241490237E0,-2.858676910E0,-1.602499008E1,1.370710373E1
6.246490237E0,-3.552995205E0,-1.756685638E1,1.524687481E1
6.251490237E0,-4.211400986E0,-2.006879807E1,1.629074669E1
6.256490270E0,-4.304774761E0,-2.155799103E1,1.539531517E1
6.261490270E0,-3.969586372E0,-2.207035065E1,1.355626965E1
6.266490670E0,-3.349488258E0,-2.165375900E1,1.139430523E1
6.271491536E0,-1.642422318E0,-1.971685028E1,8.983344078E0
6.276491536E0,-7.422025204E-1,-1.794274521E1,7.968202591E0
6.281492402E0,3.351882473E-2,-1.470309162E1,7.127837658E0
6.286491768E0,3.806780577E-1,-1.286913300E1,7.156568050E0
6.291491768E0,9.983820915E-1,-1.026424217E1,7.573159218E0
6.296491768E0,1.228225470E0,-8.959402084E0,7.831733227E0
6.301491768E0,1.692700624E0,-7.044040680E0,8.265083313E0
6.306491768E0,2.195482969E0,-5.870882034E0,8.545205116E0
6.311491768E0,2.865859509E0,-5.145438671E0,8.633790970E0
6.316491734E0,3.737348795E0,-4.946720123E0,8.468590736E0
6.321491734E0,4.546588898E0,-5.485415459E0,7.771877766E0
6.326491734E0,4.917989731E0,-6.122272968E0,7.216423035E0
6.331491767E0,5.303455830E0,-7.386411667E0,6.414365768E0
6.336491767E0,5.557241440E0,-8.221987724E0,6.143820763E0
6.341491767E0,6.014533997E0,-9.775824547E0,5.753565788E0
6.346491733E0,6.435913563E0,-1.122431660E1,5.514145851E0
6.351491699E0,6.716034889E0,-1.289307499E1,5.339369297E0
6.356491699E0,6.445490360E0,-1.466717911E1,4.901230335E0
6.361491732E0,5.166986465E0,-1.626680565E1,3.572149038E0
6.366491765E0,2.980781078E0,-1.761234665E1,1.225831270E0
6.371491765E0,-1.070208192E0,-1.827553940E1,-1.668758631E0
6.376491765E0,-3.442862034E0,-1.749263573E1,-2.693476915E0
6.381491765E0,-3.890577793E0,-1.467675591E1,-3.213018656E0
6.386491731E0,-7.757213712E-1,-1.297208405E1,-2.743755102E0
6.391491731E0,3.512293816E0,-9.797372818E0,-6.344634295E-1
6.396491697E0,5.126285076E0,-6.821380138E0,-4.261679053E-1
6.401491697E0,6.469432354E0,-4.484339714E0,-2.229001760E0
6.406491697E0,7.257124424E0,-3.215412855E0,-2.624045134E0
6.411491730E0,7.774271965E0,-2.846705914E0,-9.265560508E-1
6.416491730E0,8.542811394E0,-3.033453465E0,3.926490843E-1
6.421491730E0,9.739912033E0,-3.854664803E0,-4.309563041E-1
6.426491696E0,1.026663589E1,-4.424484730E0,-1.513135433E0
6.431491462E0,1.024269390E1,-5.188534260E0,-3.682282209E0
6.436492095E0,9.624990463E0,-5.530905247E0,-5.202899456E0
6.441492095E0,8.176498413E0,-6.366481781E0,-7.218817234E0
6.446492128E0,7.039252281E0,-7.271489620E0,-8.221987724E0
6.451492161E0,5.794267178E0,-7.951443195E0,-8.382399559E0
6.456492194E0,4.680664539E0,-8.425495148E0,-7.759906769E0
6.461492194E0,3.866635799E0,-8.439860344E0,-6.335357189E0
6.466492194E0,3.754108191E0,-8.312967300E0,-5.392041683E0
6.471492160E0,4.015076160E0,-8.195652008E0,-4.005499363E0
6.476492126E0,4.244919777E0,-8.317755699E0,-3.402160645E0
6.481492126E0,4.537012100E0,-9.167697906E0,-2.765302896E0
6.486492159E0,4.443638325E0,-9.548376083E0,-2.422932148E0
6.491492192E0,4.067748547E0,-9.517251015E0,-2.037465572E0
6.496492192E0,3.938461781E0,-9.431059837E0,-1.903390408E0
6.501492192E0,3.852270603E0,-9.414299965E0,-1.879448295E0
6.506492158E0,3.746925592E0,-9.471760750E0,-1.924938202E0
6.511492124E0,3.591302633E0,-9.787796021E0,-2.039859772E0
6.516492090E0,3.462015629E0,-1.020199299E1,-2.008735180E0
6.521492090E0,3.294421434E0,-1.142303562E1,-1.939303398E0
6.526492123E0,2.863465309E0,-1.255070496E1,-2.011129379E0
6.531492156E0,1.010353088E0,-1.537855625E1,-2.454056740E0
6.536492189E0,-2.221819162E0,-1.756925011E1,-1.127668977E0
6.541492189E0,-6.419154167E0,-2.103605461E1,3.847482204E0
6.546492189E0,-8.470984459E0,-2.158672142E1,9.536404610E0
6.551492155E0,-9.486125946E0,-2.079184532E1,1.176540661E1
6.556492155E0,-1.008228302E1,-1.941757393E1,1.041507626E1
6.561492155E0,-1.021635818E1,-1.723645592E1,6.246771336E0
6.566492188E0,-9.816526413E0,-1.580951214E1,3.502717018E0
6.571492188E0,-7.951443195E0,-1.353950977E1,-1.556231081E-1
6.576492188E0,-5.949890614E0,-1.258182907E1,-1.412579060E0
6.581492188E0,-1.391031146E0,-1.081969643E1,-2.123656988E0
6.586492188E0,1.134851575E0,-9.213187218E0,-1.759738207E0
6.591492188E0,2.336740971E0,-7.800608635E0,-1.134851575E0
6.596492154E0,2.779668093E0,-6.950666904E0,-5.793967843E-1
6.601492120E0,2.885013103E0,-6.368875980E0,4.788403213E-2
6.606492120E0,3.169923067E0,-6.079177380E0,5.937620401E-1
6.611492153E0,3.881000996E0,-6.014533997E0,1.130063176E0
6.616492186E0,4.264073372E0,-6.091148376E0,1.266532660E0
6.621492186E0,4.625597477E0,-6.277895927E0,8.595184088E-1
6.626492186E0,4.714183331E0,-6.378452778E0,5.937620401E-1
6.631492152E0,4.651933670E0,-6.390423775E0,9.576806799E-3
6.636492152E0,4.647145271E0,-6.356904984E0,-7.182605099E-3
6.641492152E0,4.283226967E0,-6.397606373E0,9.576806426E-2
6.646492185E0,3.766079187E0,-6.586748123E0,3.112462163E-1
6.651492185E0,3.236960649E0,-6.804620743E0,6.392518282E-1
6.656491518E0,2.985569477E0,-6.931513309E0,7.493851185E-1
6.661490851E0,2.609679937E0,-7.295432091E0,6.272808313E-1
6.666490851E0,2.339135170E0,-7.601889610E0,4.477157295E-1
6.671490851E0,1.802833915E0,-8.087912560E0,1.077390760E-1
6.676490817E0,1.505952835E0,-8.207622528E0,-1.843535304E-1
6.681490817E0,8.714894056E-1,-8.202834129E0,-7.254431248E-1
6.686490817E0,5.626373887E-1,-8.195652008E0,-1.094150186E0
6.691490850E0,3.495534360E-1,-8.099884033E0,-1.448492050E0
6.696490850E0,3.998316824E-1,-8.049605370E0,-1.587355733E0
6.701490850E0,8.714894056E-1,-8.131008148E0,-1.333570361E0
6.706490816E0,1.151610970E0,-8.169315338E0,-1.170764685E0
6.711490816E0,1.510741234E0,-8.044816971E0,-1.029506683E0
6.716490816E0,1.783680320E0,-8.032846451E0,-9.600749016E-1
6.721490849E0,2.322375536E0,-8.025663376E0,-8.571242094E-1
6.726490882E0,2.619256735E0,-8.028057098E0,-8.427590132E-1
6.731490882E0,3.038241863E0,-8.004115105E0,-9.002198577E-1
6.736490882E0,3.356670856E0,-7.999327183E0,-1.015141487E0
6.741490882E0,3.643975019E0,-8.059182167E0,-1.077390790E0
6.746490882E0,3.881000996E0,-8.308178902E0,-1.110909581E0
6.751490882E0,3.933673382E0,-8.693645477E0,-1.022324085E0
6.756490848E0,3.892971992E0,-8.935460091E0,-1.000776291E0
6.761490848E0,3.921702385E0,-9.423876762E0,-9.552865028E-1
6.766490848E0,4.007893562E0,-9.739912033E0,-9.552865028E-1
6.771490881E0,4.194641590E0,-1.016368580E1,-8.882488012E-1
6.776490881E0,4.355052948E0,-1.033846188E1,-7.661445141E-1
6.781490881E0,4.335899353E0,-1.038395214E1,-4.692635238E-1
6.786490847E0,4.113238335E0,-1.026424217E1,1.675941236E-2
6.791490813E0,3.890577793E0,-1.020199299E1,7.685387731E-1
6.796490779E0,3.660734415E0,-1.033127975E1,1.984793186E0
6.801490779E0,3.378218651E0,-1.086518669E1,4.266467571E0
6.806490812E0,3.110068083E0,-1.136557484E1,6.031293392E0
6.811490845E0,2.499546528E0,-1.228255367E1,8.327332497E0
6.816490878E0,1.999158382E0,-1.269914532E1,8.698433876E0
6.821490878E0,1.290474772E0,-1.311573601E1,7.415142059E0
6.826490211E0,9.121908545E-1,-1.315883160E1,5.358522892E0
6.831490177E0,5.386953950E-1,-1.307742882E1,3.210624456E0
6.836490177E0,-8.140286058E-2,-1.298644924E1,1.371877551E0
6.841490177E0,-8.355764151E-1,-1.292898846E1,-3.591302410E-2
6.846490210E0,-1.778891921E0,-1.283561420E1,-8.714894056E-1
6.851490243E0,-2.657563925E0,-1.278773022E1,-1.170764685E0
6.856490243E0,-3.141192675E0,-1.279491329E1,-9.888052940E-1
6.861490209E0,-4.158728123E0,-1.297447872E1,-8.499416113E-1
6.866490175E0,-4.721365929E0,-1.299602604E1,-9.504981041E-1
6.871490141E0,-5.289090633E0,-1.287152767E1,-1.101332784E0
6.876490107E0,-5.327397823E0,-1.270393372E1,-9.074024558E-1
6.881490107E0,-4.790797710E0,-1.242141724E1,-6.129156351E-1
6.886490140E0,-3.892971992E0,-1.199764442E1,-2.705447972E-1
6.891490173E0,-2.770091295E0,-1.156189919E1,1.963245422E-1
6.896490206E0,-2.200271368E0,-1.118600941E1,4.596867263E-1
6.901490206E0,-1.438915253E0,-1.098968506E1,8.212111592E-1
6.906490206E0,-1.108515382E0,-1.101362705E1,1.027112484E0
6.911490172E0,-6.368576288E-1,-1.111418343E1,1.158793569E0
6.916490172E0,-4.022258818E-1,-1.128896046E1,1.199495077E0
6.921490172E0,-2.298433632E-1,-1.176301193E1,1.084573388E0
6.926490205E0,-1.795651317E-1,-1.220833397E1,8.427590132E-1
6.931490205E0,-2.633621916E-2,-1.253633976E1,7.278373241E-1
6.936490205E0,1.556231081E-1,-1.266562653E1,9.097966552E-1
6.941490205E0,3.998316824E-1,-1.264647293E1,1.323993564E0
6.946490205E0,5.075707436E-1,-1.259380054E1,1.685518026E0
6.951490205E0,7.517793179E-1,-1.248366737E1,2.319981337E0
6.956490838E0,9.481038451E-1,-1.242860031E1,2.633621931E0
6.961491504E0,1.249773264E0,-1.228973675E1,2.683900118E0
6.966491504E0,1.304839969E0,-1.229213047E1,2.367865562E0
6.971491537E0,1.187524080E0,-1.220593929E1,1.865083098E0
6.976492237E0,1.070208192E0,-1.201679802E1,1.271321058E0
6.981492237E0,1.261744261E0,-1.166485023E1,9.504981041E-1
6.986492203E0,1.515529633E0,-1.134163284E1,9.313444495E-1
6.991492169E0,1.980004787E0,-1.091067600E1,1.280897856E0
6.996492169E0,2.341529369E0,-1.070238113E1,1.642422318E0
7.001492169E0,2.803610086E0,-1.060421848E1,2.008735180E0
7.006492202E0,2.832340717E0,-1.081490803E1,1.917755604E0
7.011492202E0,2.561795712E0,-1.137275696E1,1.118092179E0
7.016492202E0,2.300827742E0,-1.181329060E1,-1.484405100E-1
7.021492202E0,2.147598982E0,-1.209341240E1,-2.135627985E0
7.026492202E0,2.446874142E0,-1.238071632E1,-4.079719543E0
7.031492202E0,3.244143248E0,-1.253155136E1,-5.308244228E0
7.036492168E0,4.539406300E0,-1.257225227E1,-5.650615215E0
7.041492168E0,6.634632111E0,-1.253873348E1,-4.647145271E0
7.046492168E0,7.240365028E0,-1.269675064E1,-3.734954596E0
7.051491534E0,7.391200066E0,-1.322108078E1,-2.097320795E0
7.056490634E0,7.419930458E0,-1.359218216E1,-1.237802267E0
7.061489734E0,7.680898190E0,-1.432959652E1,-3.591302410E-2
7.066488800E0,7.980173588E0,-1.481831264E1,6.464344859E-1
7.071488533E0,8.166921616E0,-1.549587154E1,1.072602391E0
7.076488533E0,8.195652008E0,-1.578078175E1,1.443703651E0
7.081488566E0,8.080730438E0,-1.589570332E1,1.680729628E0
7.086487899E0,8.008903503E0,-1.596034718E1,1.841141105E0
7.091487899E0,8.152556419E0,-1.589570332E1,1.821987510E0
7.096487899E0,8.195652008E0,-1.568501377E1,1.759738207E0
7.101487899E0,8.032846451E0,-1.514871311E1,1.790862918E0
7.106486999E0,7.846098423E0,-1.467436123E1,1.678335428E0
7.111486965E0,7.410353661E0,-1.380287170E1,1.228225470E0
7.116486931E0,6.850110531E0,-1.313488960E1,6.081272364E-1
7.121486931E0,5.851728439E0,-1.240705204E1,-1.292868853E-1
7.126486931E0,4.881777287E0,-1.163133144E1,-1.065419793E0
7.131486964E0,3.763684988E0,-1.071674633E1,-2.205059767E0
7.136486964E0,3.371036053E0,-1.047014332E1,-2.497152328E0
7.141486964E0,2.650381327E0,-1.029536629E1,-2.106897593E0
7.146486930E0,1.941697598E0,-1.012537861E1,-1.714248419E0
7.151486930E0,6.991068721E-1,-9.696816444E0,-1.381454349E0
7.156486930E0,8.379705995E-2,-9.215581894E0,-1.534683347E0
7.161486963E0,-8.451532125E-1,-8.621819496E0,-1.810016513E0
7.166486963E0,-1.541865945E0,-8.380004883E0,-1.951274395E0
7.171486963E0,-1.999158382E0,-8.181286812E0,-1.788468719E0
7.176486963E0,-2.317587137E0,-8.054393768E0,-1.807622313E0
7.181486963E0,-3.081337690E0,-8.303390503E0,-1.860294700E0
7.186486963E0,-2.643198729E0,-8.277054787E0,-1.039083481E0
7.191486929E0,-2.149993181E0,-8.918700218E0,-5.793967843E-1
7.196486929E0,-1.912967205E0,-9.438241959E0,-7.805097699E-1
7.201487595E0,-1.053448796E0,-9.639355659E0,-6.296750307E-1
7.206488528E0,-6.129156351E-1,-9.411906242E0,-9.217676520E-1
7.211489428E0,-7.422025204E-1,-9.335291862E0,-1.611297727E0
7.216490328E0,-8.188169599E-1,-9.210793495E0,-1.908178806E0
7.221490561E0,-6.129156351E-1,-8.971372604E0,-1.663970232E0
7.226490527E0,-1.101332754E-1,-8.700828552E0,-1.371877551E0
7.231490493E0,7.517793179E-1,-8.154950142E0,-1.125274777E0
7.236491159E0,1.249773264E0,-7.712022781E0,-1.091755986E0
7.241491159E0,1.910573006E0,-7.012916088E0,-1.333570361E0
7.246491192E0,2.193088770E0,-6.668150902E0,-1.604115129E0
7.251491225E0,2.671929121E0,-6.119878769E0,-2.011129379E0
7.256492158E0,3.155557871E0,-5.650615215E0,-2.188300371E0
7.261492158E0,3.608062029E0,-5.123890877E0,-2.178723574E0
7.266492158E0,3.974374771E0,-4.637568474E0,-1.996764183E0
7.271492124E0,4.158728123E0,-4.197035789E0,-1.738190413E0
7.276492124E0,4.125209332E0,-3.754108191E0,-1.417367458E0
7.281492124E0,3.969586372E0,-3.287238836E0,-1.177947283E0
7.286492157E0,3.825934410E0,-3.062183857E0,-1.082179189E0
7.291492157E0,3.524264812E0,-2.681505919E0,-9.696516991E-1
7.296492157E0,3.473986626E0,-2.535459518E0,-9.145850539E-1
7.301492123E0,3.466804028E0,-2.202665567E0,-8.547300100E-1
7.306492089E0,3.445256233E0,-1.989581585E0,-8.068459630E-1
7.311492055E0,3.430891037E0,-1.774103403E0,-6.847416759E-1
7.316492055E0,3.404554844E0,-1.541865945E0,-4.429273009E-1
7.321492088E0,3.184288263E0,-1.462857246E0,-1.604115069E-1
7.326492121E0,2.873042107E0,-1.228225470E0,-6.464344263E-2
7.331492154E0,2.434903145E0,-1.146822572E0,7.422025502E-2
7.336492154E0,2.056619167E0,-1.089361787E0,1.915361285E-1
7.341492154E0,1.357512355E0,-1.019929886E0,4.932055473E-1
7.346492120E0,1.072602391E0,-1.108515382E0,6.248866320E-1
7.351492086E0,1.060631394E0,-1.474828243E0,9.409212470E-1
7.356492086E0,8.451532125E-1,-1.733402014E0,1.422155857E0
7.361492119E0,6.560112834E-1,-2.138022184E0,2.142810583E0
7.366492152E0,8.355764151E-1,-2.810792685E0,2.901772499E0
7.371492152E0,1.616086125E0,-3.955221176E0,3.981557369E0
7.376492152E0,1.874659896E0,-4.848258495E0,4.752490520E0
7.381492152E0,1.975216389E0,-6.495768547E0,6.201281548E0
7.386492152E0,1.778891921E0,-7.486968040E0,7.228394032E0
7.391492152E0,1.403002143E0,-9.126996040E0,8.767866135E0
7.396492118E0,1.108515382E0,-1.004876423E1,9.665691376E0
7.401492118E0,4.692635238E-1,-1.165527344E1,1.027860737E1
7.406492118E0,-2.154781483E-2,-1.276378822E1,1.072871685E1
7.411492151E0,-2.394201756E-1,-1.406623459E1,1.123628807E1
7.416492151E0,-4.118026793E-1,-1.553178501E1,1.219636250E1
7.421492151E0,-5.650315881E-1,-1.736334991E1,1.340303993E1
7.426492117E0,-9.768342972E-1,-1.857242203E1,1.394891834E1
7.431492083E0,-1.007958889E0,-2.027948761E1,1.474648666E1
7.436492049E0,-1.142034173E0,-2.076551056E1,1.486619663E1
7.441492049E0,-7.086837292E-1,-1.998260689E1,1.324981117E1
7.446492082E0,2.082955539E-1,-1.800978279E1,1.117403889E1
7.451492115E0,8.020575643E-1,-1.551263142E1,9.162909508E0
7.456492148E0,9.289502501E-1,-1.301278591E1,7.692869186E0
7.461492148E0,8.906430602E-1,-1.073589993E1,6.816591740E0
7.466492148E0,7.781155705E-1,-8.782231331E0,6.354510784E0
7.471492114E0,5.530605912E-1,-6.941090107E0,6.309020519E0
7.476492080E0,3.687070608E-1,-6.074388981E0,6.325780392E0
7.481492080E0,4.381389022E-1,-4.999392509E0,6.342539787E0
7.486492113E0,5.267243981E-1,-4.563348293E0,6.285078526E0
7.491492146E0,1.300051570E0,-4.390965939E0,5.930737019E0
7.496492146E0,2.039859772E0,-4.656722069E0,5.593154430E0
7.501492146E0,2.688688517E0,-5.234024048E0,5.480627060E0
7.506492112E0,3.224989653E0,-6.306626320E0,5.289090633E0
7.511492078E0,3.651157618E0,-7.707234383E0,4.359841347E0
7.516492044E0,3.756502390E0,-9.201216698E0,2.880224705E0
7.521492044E0,3.402160645E0,-1.089631081E1,1.314416766E0
7.526492077E0,3.081337690E0,-1.192581749E1,4.955997467E-1
7.531492110E0,3.057395458E0,-1.414284897E1,-4.764461517E-1
7.536492143E0,2.959233284E0,-1.519899082E1,-1.034295082E0
7.541492143E0,2.889801502E0,-1.650382996E1,-2.339135170E0
7.546492143E0,2.777273893E0,-1.718617821E1,-3.318363667E0
7.551492109E0,2.801215887E0,-1.759079933E1,-3.344699860E0
7.556492109E0,3.402160645E0,-1.784697723E1,-8.667010069E-1
7.561492109E0,3.897760391E0,-1.759319305E1,6.610690117E0
7.566492142E0,3.026270866E0,-1.659720421E1,1.172949314E1
7.571492142E0,1.213860273E0,-1.347007847E1,1.415721416E1
7.576492142E0,9.576807022E-1,-1.127220058E1,1.093701267E1
7.581492142E0,1.441309452E0,-7.982567787E0,3.552995205E0
7.586492142E0,1.984793186E0,-6.490980148E0,-1.053448766E-1
7.591492142E0,3.308786631E0,-5.162198067E0,-4.280832767E0
7.596492108E0,4.673481941E0,-5.068824291E0,-6.076783180E0
7.601491674E0,5.949890614E0,-5.423166275E0,-6.984185696E0
7.606491674E0,6.347328186E0,-5.741594791E0,-7.264307022E0
7.611491707E0,5.849334240E0,-5.767930984E0,-7.036858082E0
7.616491740E0,5.617096424E0,-5.727229595E0,-6.828562737E0
7.621491740E0,5.533299446E0,-6.021716595E0,-6.294655323E0
7.626491740E0,5.535693645E0,-6.301837921E0,-5.909189224E0
7.631491706E0,5.375282288E0,-6.807014942E0,-5.212476254E0
7.636491706E0,5.238812447E0,-7.156568050E0,-4.675876141E0
7.641491706E0,5.143044472E0,-7.451055050E0,-4.062960148E0
7.646491739E0,5.092766285E0,-7.671321392E0,-3.610456228E0
7.651491739E0,5.044882298E0,-7.788637638E0,-3.466804028E0
7.656491739E0,4.982633114E0,-8.008903503E0,-3.538630009E0
7.661491739E0,4.850652695E0,-8.327332497E0,-3.584120035E0
7.666491739E0,4.797980309E0,-8.633790970E0,-3.596091032E0
7.671491739E0,4.704606533E0,-9.167697906E0,-3.600879431E0
7.676491705E0,4.529829502E0,-9.474155426E0,-3.541024208E0
7.681491705E0,4.048594952E0,-1.002242756E1,-3.409343243E0
7.686491705E0,3.507505417E0,-1.073350525E1,-3.385401249E0
7.691491738E0,2.894589901E0,-1.171752262E1,-3.514688015E0
7.696491738E0,2.059013367E0,-1.296011353E1,-3.749319792E0
7.701491738E0,1.024718285E0,-1.429607773E1,-4.077325344E0
7.706491704E0,-7.900865376E-2,-1.572332096E1,-4.594472885E0
7.711491670E0,-1.695094824E0,-1.763628769E1,-4.723760128E0
7.716491636E0,-2.614468336E0,-1.843834496E1,-3.081337690E0
7.721491636E0,-4.558559895E0,-1.796189880E1,6.088754177E0
7.726491636E0,-4.874594688E0,-1.671452141E1,1.338388634E1
7.731491669E0,-3.866635799E0,-1.443494129E1,1.681747055E1
7.736491702E0,-3.464409828E0,-1.286913300E1,1.363767242E1
7.741491735E0,-3.268085241E0,-1.182526112E1,9.091083527E0
7.746491735E0,-3.047818661E0,-1.119319248E1,4.754884720E0
7.751492135E0,-1.472434044E0,-1.048211479E1,9.217676520E-1
7.756492101E0,3.830722570E-1,-9.320926666E0,-7.685387731E-1
7.761492101E0,2.691082716E0,-7.786243439E0,-2.688688517E0
7.766492101E0,3.643975019E0,-7.297826290E0,-3.414131641E0
7.771492134E0,4.910807133E0,-6.689698696E0,-2.633621931E0
7.776492134E0,5.214870453E0,-6.531681538E0,-1.541865945E0
7.781492134E0,5.375282288E0,-6.304232121E0,7.015010715E-1
7.786492100E0,5.607519627E0,-6.071994781E0,1.726219416E0
7.791492066E0,5.583577633E0,-5.978621006E0,1.982398987E0
7.796492032E0,5.478232861E0,-5.978621006E0,1.575384736E0
7.801492032E0,5.198111057E0,-6.170156956E0,9.696516991E-1
7.806492065E0,4.917989731E0,-6.409577370E0,7.302315235E-1
7.811492098E0,4.086902142E0,-6.680121899E0,4.955997467E-1
7.816492131E0,3.517082214E0,-6.809409142E0,3.902548850E-1
7.821492131E0,2.432508945E0,-7.218817234E0,2.250549644E-1
7.826492131E0,1.690306425E0,-7.453449249E0,8.619125932E-2
7.831492097E0,1.077390790E0,-7.915530205E0,-1.364694983E-1
7.836492097E0,6.200982332E-1,-8.142979622E0,-3.926490843E-1
7.841492097E0,2.513911724E-1,-8.279448509E0,-6.871358752E-1
7.846492130E0,-9.337386489E-2,-8.296208382E0,-9.313444495E-1
7.851492163E0,-3.926490843E-1,-8.178892136E0,-1.158793569E0
7.856492163E0,-4.596867263E-1,-8.080730438E0,-1.244984865E0
7.861492163E0,-4.237737060E-1,-7.961019993E0,-1.264138460E0
7.866491496E0,-3.303998411E-1,-7.927501202E0,-1.235408068E0
7.871490829E0,-5.027823523E-2,-7.934683800E0,-1.173158884E0
7.876490829E0,3.040636182E-1,-8.016086578E0,-1.134851575E0
7.881490129E0,6.823474765E-1,-8.178892136E0,-1.101332784E0
7.886489462E0,1.072602391E0,-8.413523674E0,-1.060631394E0
7.891489462E0,1.436521053E0,-8.729558945E0,-1.046266198E0
7.896489495E0,1.752555609E0,-9.079112053E0,-1.015141487E0
7.901489495E0,2.006340981E0,-9.531616211E0,-8.834604025E-1
7.906489495E0,2.118868589E0,-9.771036148E0,-7.805097699E-1
7.911489461E0,2.161964178E0,-1.001524544E1,-5.746083856E-1
7.916489461E0,2.145204782E0,-1.006791782E1,-4.357447028E-1
7.921489461E0,2.082955360E0,-1.003918743E1,-1.436520964E-1
7.926489494E0,2.111685991E0,-1.009664822E1,1.244984865E-1
7.931489494E0,2.183511972E0,-1.016607952E1,5.363011956E-1
7.936489494E0,2.303221941E0,-1.026184750E1,1.149216771E0
7.941489494E0,2.387019157E0,-1.035522175E1,2.104503393E0
7.946489494E0,2.430114746E0,-1.041507626E1,3.454833031E0
7.951489494E0,2.506729126E0,-1.042465305E1,5.413589478E0
7.956489460E0,2.494758129E0,-1.039352894E1,6.483797550E0
7.961489460E0,2.413355350E0,-1.031930828E1,7.336133480E0
7.966489460E0,2.331952572E0,-1.030254936E1,7.079953671E0
7.971489493E0,2.164358377E0,-1.044380665E1,5.624279022E0
7.976489526E0,1.951274395E0,-1.056830597E1,4.053383350E0
7.981489526E0,1.592144132E0,-1.060900688E1,2.463633537E0
7.986489492E0,1.381454349E0,-1.070477486E1,1.271321058E0
7.991489458E0,1.058237195E0,-1.074547672E1,1.675941199E-1
7.996489458E0,8.906430602E-1,-1.071914005E1,-2.968810201E-1
8.001489458E0,7.038952708E-1,-1.067843914E1,-7.517793179E-1
8.006489491E0,5.602431893E-1,-1.068083286E1,-8.619126081E-1
8.011489491E0,2.609679997E-1,-1.070716953E1,-8.499416113E-1
8.016490157E0,1.101332754E-1,-1.070477486E1,-8.307880163E-1
8.021490823E0,-1.340752989E-1,-1.070716953E1,-7.924807668E-1
8.026490823E0,-3.351882398E-1,-1.072392845E1,-6.344634295E-1
8.031491489E0,-6.679822803E-1,-1.081969643E1,-4.022258818E-1
8.036492122E0,-1.074996591E0,-1.087715721E1,-8.379705995E-2
8.041491222E0,-1.450886250E0,-1.104954052E1,2.442085743E-1
8.046490555E0,-1.826775908E0,-1.120755768E1,5.626373887E-1
8.051489921E0,-2.334346771E0,-1.147570801E1,8.547300100E-1
8.056489087E0,-2.552218914E0,-1.167921543E1,9.361328483E-1
8.061488187E0,-2.846705914E0,-1.213171959E1,8.475474119E-1
8.066487253E0,-2.932897091E0,-1.243817711E1,7.398083210E-1
8.071487253E0,-2.861071110E0,-1.301278591E1,4.716577232E-1
8.076500253E0,-2.624045134E0,-1.341022301E1,3.184288144E-1
8.081500286E0,-2.319981337E0,-1.366400814E1,3.878606856E-1
8.086500286E0,-2.099714994E0,-1.382202530E1,5.339069963E-1
8.091500286E0,-1.941697598E0,-1.382441998E1,6.943184733E-1
8.096500286E0,-1.764526606E0,-1.363527775E1,8.164227605E-1
8.101500286E0,-1.247379065E0,-1.316601467E1,1.034295082E0
8.106500286E0,-8.331822157E-1,-1.293377686E1,1.252167463E0
8.111500252E0,-1.316810995E-1,-1.264168453E1,1.601720929E0
8.116500218E0,4.118026793E-1,-1.244296551E1,1.881842494E0
8.121500218E0,9.337386489E-1,-1.229931355E1,2.066195965E0
8.126500218E0,1.280897856E0,-1.217242050E1,2.291250944E0
8.131500251E0,1.426944256E0,-1.195933723E1,2.396595955E0
8.136500251E0,1.546654344E0,-1.158823586E1,2.394201756E0
8.141499351E0,2.305616140E0,-1.050605679E1,2.207453966E0
8.146498651E0,3.052607059E0,-1.020438671E1,2.310404539E0
8.151498284E0,4.156333923E0,-1.003679276E1,3.069366693E0
8.156498284E0,4.666299343E0,-1.001045704E1,3.517082214E0
8.161498317E0,5.490203857E0,-9.902717590E0,4.484339714E0
8.166498317E0,5.868487835E0,-9.960178375E0,3.519476414E0
8.171498317E0,5.274725437E0,-1.027142429E1,1.776497602E0
8.176498317E0,4.082113743E0,-1.089152241E1,-2.394201700E-3
8.181498317E0,2.966415882E0,-1.162893677E1,-1.254561663E0
8.186498317E0,2.758120298E0,-1.260098267E1,-1.546654344E0
8.191499183E0,2.753331900E0,-1.325459957E1,-2.135627985E0
8.196499849E0,2.990357876E0,-1.339346313E1,-2.377442360E0
8.201500515E0,3.639186621E0,-1.355387497E1,-2.595314741E0
8.206501381E0,4.010287762E0,-1.352035618E1,-2.691082716E0
8.211502281E0,4.649539471E0,-1.365921974E1,-2.877830505E0
8.216503181E0,4.970662117E0,-1.390342808E1,-2.865859509E0
8.221503147E0,5.092766285E0,-1.418833828E1,-2.537853718E0
8.226490113E0,5.076006889E0,-1.457380486E1,-1.999158382E0
8.231490079E0,5.171774864E0,-1.505055046E1,-9.959878922E-1
8.236490079E0,5.231629848E0,-1.515110683E1,-3.902548850E-1
8.241490079E0,5.392041683E0,-1.526124001E1,5.147533417E-1
8.246490112E0,5.576395035E0,-1.524448109E1,1.072602391E0
8.251489478E0,5.851728439E0,-1.507209778E1,1.857900500E0
8.256489511E0,5.904400826E0,-1.497872448E1,2.051830769E0
8.261489511E0,5.767930984E0,-1.497393608E1,2.063801765E0
8.266489511E0,5.626673222E0,-1.503618526E1,1.980004787E0
8.271489477E0,5.538087845E0,-1.495478249E1,1.968033791E0
8.276489477E0,5.494992256E0,-1.460732365E1,1.817199111E0
8.281489477E0,5.293879032E0,-1.375738239E1,1.350329757E0
8.286489510E0,5.071218491E0,-1.321150398E1,1.077390790E0
8.291490410E0,4.553771496E0,-1.211017132E1,6.153098345E-1
8.296491076E0,4.070142746E0,-1.143021774E1,2.513911724E-1
8.301491409E0,2.949656487E0,-1.018762779E1,-5.722141862E-1
8.306491375E0,2.444479942E0,-9.057564735E0,-1.379060149E0
8.311491341E0,2.092532396E0,-8.310573578E0,-1.814804912E0
8.316491341E0,1.893813491E0,-7.673715591E0,-2.097320795E0
8.321491374E0,1.747767210E0,-7.127837658E0,-2.047042370E0
8.326491407E0,1.549048543E0,-6.641814709E0,-1.956062794E0
8.331491440E0,9.265560508E-1,-6.349722385E0,-1.989581585E0
8.336491440E0,4.405331016E-1,-6.371270180E0,-2.059013367E0
8.341491440E0,-1.436520964E-1,-6.646603107E0,-2.245761156E0
8.346491406E0,-1.604115069E-1,-6.900388718E0,-2.377442360E0
8.351491372E0,-1.460463107E-1,-7.360075474E0,-2.760514498E0
8.356491372E0,-3.998316824E-1,-7.618649006E0,-2.896984100E0
8.361491405E0,-5.051765442E-1,-7.882011414E0,-2.820369720E0
8.366491438E0,-4.525041282E-1,-8.229170799E0,-2.434903145E0
8.371491438E0,3.112462163E-2,-8.523657799E0,-1.671152830E0
8.376491438E0,3.663128614E-1,-8.597877502E0,-7.972691655E-1
8.381491438E0,5.985504389E-1,-8.581118584E0,-3.351882398E-1
8.386491438E0,6.296750307E-1,-8.516474724E0,-3.567360640E-1
8.391491438E0,3.639186621E-1,-8.427888870E0,-6.248866320E-1
8.396491404E0,1.221042871E-1,-8.437465668E0,-9.050082564E-1
8.401492070E0,5.746084079E-2,-8.480561256E0,-1.388636947E0
8.406492070E0,1.747767180E-1,-8.403946877E0,-1.577778935E0
8.411492103E0,1.987187415E-1,-8.205228806E0,-1.558625340E0
8.416492103E0,5.051765442E-1,-7.798214436E0,-1.352723956E0
8.421492103E0,1.003170490E0,-7.113472462E0,-9.624691010E-1
8.426492069E0,1.312022567E0,-6.663362503E0,-8.882488012E-1
8.431492069E0,1.824381709E0,-6.031293392E0,-9.193734527E-1
8.436492069E0,2.171540976E0,-5.724835396E0,-1.070208192E0
8.441492102E0,2.796427488E0,-5.303455830E0,-1.290474772E0
8.446492102E0,3.088520288E0,-5.052064896E0,-1.280897856E0
8.451492102E0,3.442862034E0,-4.659116745E0,-1.206677675E0
8.456492102E0,3.538630009E0,-4.364629745E0,-1.053448796E0
8.461492102E0,3.564966440E0,-4.043806553E0,-8.762778044E-1
8.466492102E0,3.605667830E0,-3.715801001E0,-6.272808313E-1
8.471492068E0,3.665522814E0,-3.354276657E0,-4.884171486E-1
8.476492034E0,3.610456228E0,-3.119644880E0,-4.932055473E-1
8.481492034E0,3.519476414E0,-2.715024710E0,-3.926490843E-1
8.486492067E0,3.476380825E0,-2.487575531E0,-2.873041928E-1
8.491492100E0,3.371036053E0,-2.149993181E0,5.267243832E-2
8.496492100E0,3.272873640E0,-1.924938202E0,3.687070608E-1
8.501492100E0,3.222595453E0,-1.747767210E0,7.685387731E-1
8.506492066E0,3.083731890E0,-1.551442742E0,1.201889277E0
8.511492032E0,2.604891539E0,-1.319205165E0,1.482010841E0
8.516491998E0,2.444479942E0,-1.503558636E0,1.644816518E0
8.521491998E0,2.482787132E0,-2.123656988E0,1.793257117E0
8.526492031E0,2.288856745E0,-2.387019157E0,1.994369984E0
8.531492064E0,2.068590164E0,-2.844311714E0,2.322375536E0
8.536492097E0,2.063801765E0,-3.318363667E0,2.602497339E0
8.541492097E0,2.233790159E0,-4.659116745E0,3.239354849E0
8.546492097E0,2.281674147E0,-5.849334240E0,3.869029999E0
8.551492063E0,2.188300371E0,-7.027281284E0,4.860229492E0
8.556492063E0,2.003946781E0,-8.097489357E0,5.791872978E0
8.561492063E0,1.970427990E0,-9.057564735E0,6.718429089E0
8.566492096E0,1.862688899E0,-1.007509995E1,7.352892876E0
8.571492096E0,1.549048543E0,-1.144218922E1,7.685686588E0
8.576492096E0,1.302445769E0,-1.231128407E1,7.819762230E0
8.581492062E0,8.259995580E-1,-1.380766010E1,8.497321129E0
8.586492028E0,4.333505034E-1,-1.473690987E1,9.462183952E0
8.591491994E0,-4.860229492E-1,-1.652298355E1,1.275899982E1
8.596491994E0,-1.900996208E0,-1.834736633E1,1.645115852E1
8.601491994E0,-3.373430252E0,-2.012625885E1,1.784937286E1
8.606492027E0,-4.429273129E0,-2.093789291E1,1.698027611E1
8.611492060E0,-5.473444462E0,-2.036328316E1,1.359936523E1
8.616492093E0,-5.430348873E0,-1.859396935E1,1.103517532E1
8.621492093E0,-4.216189384E0,-1.546235275E1,7.199663639E0
8.626492093E0,-3.622427225E0,-1.369752693E1,5.547664642E0
8.631492059E0,-2.820369720E0,-1.109502983E1,4.477157116E0
8.636492059E0,-2.149993181E0,-9.883563995E0,4.800374508E0
8.641492059E0,-9.552865028E-1,-8.341697693E0,5.684134007E0
8.646492092E0,-1.364694983E-1,-7.474997044E0,6.414365768E0
8.651492092E0,6.272808313E-1,-6.862081528E0,7.144597054E0
8.656492092E0,1.429338455E0,-6.672939301E0,7.575553417E0
8.661492092E0,2.262520552E0,-7.084742069E0,6.950666904E0
8.666492092E0,2.477998734E0,-7.561188221E0,6.167762756E0
8.671492092E0,2.463633537E0,-8.363245964E0,4.616020679E0
8.676492058E0,2.257732153E0,-8.770259857E0,3.737348795E0
8.681492058E0,1.833958507E0,-9.313743591E0,2.667140722E0
8.686492058E0,1.771709204E0,-9.646537781E0,2.097320795E0
8.691492091E0,2.049436569E0,-1.028578949E1,1.570596337E0
8.696492091E0,2.506729126E0,-1.088673401E1,8.906430602E-1
8.701492091E0,3.224989653E0,-1.181329060E1,4.165911078E-1
8.706492057E0,3.871424198E0,-1.309658241E1,-3.830722719E-2
8.711492057E0,4.165910721E0,-1.478718853E1,-2.537853718E-1
8.716492057E0,4.062960148E0,-1.570656204E1,-1.173158810E-1
8.721492090E0,3.270479441E0,-1.683662415E1,1.048660398E0
8.726492123E0,2.767697096E0,-1.719096756E1,3.287238836E0
8.731492123E0,2.913743496E0,-1.682225990E1,6.775889874E0
8.736492123E0,3.102885485E0,-1.569698524E1,9.890746117E0
8.741492123E0,3.045424461E0,-1.343655968E1,1.078378391E1
8.746492123E0,3.440467834E0,-1.045577812E1,8.518868446E0
8.751492123E0,3.751713991E0,-7.577947617E0,4.419696331E0
8.756492089E0,3.773261786E0,-5.064035892E0,2.394201700E-3
8.761492089E0,4.036623955E0,-2.712630510E0,-4.649539471E0
8.766492089E0,4.386177540E0,-2.061407566E0,-6.261136532E0
8.771492122E0,5.420772076E0,-2.415749550E0,-7.542034626E0
8.776492122E0,5.794267178E0,-3.292027235E0,-7.561188221E0
8.781492122E0,5.341763496E0,-4.575319290E0,-7.652167797E0
8.786492088E0,4.795586109E0,-4.944325924E0,-7.949048996E0
8.791492054E0,4.323928356E0,-5.260360241E0,-8.104672432E0
8.796492020E0,4.055777550E0,-5.791872978E0,-7.855675220E0
8.801492020E0,4.204218388E0,-6.574777126E0,-7.376834869E0
8.806492053E0,4.465186119E0,-7.477391243E0,-6.881235123E0
8.811492086E0,4.961085320E0,-8.504503250E0,-6.155791759E0
8.816492119E0,5.138256073E0,-8.949825287E0,-5.619490623E0
8.821492119E0,5.305850029E0,-9.653720856E0,-4.771644115E0
8.826492119E0,5.404012680E0,-1.033127975E1,-4.343081951E0
8.831492085E0,5.743988991E0,-1.183483791E1,-3.878606796E0
8.836492085E0,5.657797813E0,-1.264647293E1,-3.478775024E0
8.841492085E0,5.332186222E0,-1.314207268E1,-3.141192675E0
8.846492118E0,4.886565685E0,-1.377414131E1,-2.868253708E0
8.851492151E0,3.756502390E0,-1.451634407E1,-2.482787132E0
8.856492151E0,2.597708941E0,-1.494759941E1,-2.027888775E0
8.861492117E0,6.703764945E-2,-1.605611420E1,-8.140286058E-2
8.866492083E0,-1.448492050E0,-1.655889702E1,2.475604534E0
8.871492049E0,-2.772485495E0,-1.605850983E1,8.289025307E0
8.876492015E0,-3.007117271E0,-1.556530380E1,1.110700130E1
8.881492015E0,-3.428496838E0,-1.487577343E1,1.101841545E1
8.886492048E0,-3.900154591E0,-1.428889465E1,7.419930458E0
8.891492081E0,-4.390965939E0,-1.390582275E1,2.865859509E0
8.896492114E0,-4.333505154E0,-1.355148125E1,-9.481038451E-1
8.901492114E0,-3.122039080E0,-1.277575970E1,-3.576937437E0
8.906492114E0,-1.953668594E0,-1.202876854E1,-4.316745758E0
8.911492080E0,2.418143749E-1,-1.044620132E1,-4.264073372E0
8.916492080E0,1.551442742E0,-9.617807388E0,-3.837905407E0
8.921492080E0,3.253720045E0,-8.609848976E0,-3.169923067E0
8.926492113E0,4.374206543E0,-7.975385189E0,-2.485181332E0
8.931491613E0,5.523722649E0,-7.326556683E0,-1.211466074E0
8.936491613E0,6.325780392E0,-7.010521889E0,2.466027737E-1
8.941491613E0,6.790255070E0,-6.950666904E0,1.158793569E0
8.946491613E0,6.909965515E0,-7.029675484E0,1.479616642E0
8.951491613E0,6.900388718E0,-7.415142059E0,1.482010841E0
8.956491579E0,6.601113319E0,-7.769483566E0,1.436521053E0
8.961491579E0,5.293879032E0,-8.406341553E0,1.654393315E0
8.966491579E0,4.467580318E0,-8.638579369E0,1.845929503E0
8.971491612E0,3.541024208E0,-8.679280281E0,1.980004787E0
8.976491645E0,3.126827478E0,-8.607454300E0,1.826775908E0
8.981491645E0,2.703053713E0,-8.626607895E0,1.407790542E0
8.986491611E0,2.193088770E0,-8.691251755E0,8.188169599E-1
8.991491577E0,1.726219416E0,-8.777442932E0,2.633621991E-1
8.996491577E0,1.350329757E0,-8.705616951E0,-1.963245422E-1
9.001491577E0,1.158793569E0,-8.439860344E0,-5.243301988E-1
9.006491610E0,1.122880578E0,-8.368034363E0,-6.751648784E-1
9.011491610E0,1.185129881E0,-8.128614426E0,-7.613561153E-1
9.016491610E0,1.228225470E0,-8.061576843E0,-7.685387731E-1
9.021491610E0,1.367089152E0,-7.834127426E0,-7.469909191E-1
9.026491610E0,1.491587639E0,-7.803002834E0,-6.991068721E-1
9.031491610E0,1.644816518E0,-7.831733227E0,-6.344634295E-1
9.036491576E0,1.781286120E0,-7.814973831E0,-6.200982332E-1
9.041490909E0,1.889025092E0,-7.819762230E0,-6.081272364E-1
9.046490909E0,1.948880196E0,-7.807791233E0,-6.488286853E-1
9.051490275E0,1.977610588E0,-7.846098423E0,-7.302315235E-1
9.056490775E0,1.975216389E0,-7.889194012E0,-7.924807668E-1
9.061490108E0,1.960851192E0,-7.932289600E0,-8.906430602E-1
9.066489174E0,1.927332401E0,-7.972990990E0,-9.217676520E-1
9.071488307E0,1.757344007E0,-8.020874977E0,-8.906430602E-1
9.076487407E0,1.534683347E0,-8.016086578E0,-7.757213712E-1
9.081487273E0,1.326387763E0,-8.032846451E0,-6.153098345E-1
9.086486606E0,1.173158884E0,-8.154950142E0,-4.477157295E-1
9.091486606E0,9.624691010E-1,-8.365639687E0,-2.322375625E-1
9.096486606E0,8.810662031E-1,-8.423100471E0,-7.661445439E-2
9.101486606E0,8.331822157E-1,-8.590695381E0,1.795651317E-1
9.106486606E0,8.307880163E-1,-8.717587471E0,3.543418646E-1
9.111486572E0,9.361328483E-1,-8.971372604E0,7.015010715E-1
9.116486538E0,1.072602391E0,-9.172486305E0,1.063025594E0
9.121485871E0,1.254561663E0,-9.512462616E0,1.539471745E0
9.126485871E0,1.362300754E0,-9.634567261E0,2.025494576E0
9.131485904E0,1.424550056E0,-9.639355659E0,2.511517525E0
9.136485904E0,1.503558636E0,-9.622595787E0,2.932897091E0
9.141485904E0,1.572990537E0,-9.569923401E0,3.241749048E0
9.146485470E0,1.580173135E0,-9.550769806E0,3.275267839E0
9.151484770E0,1.553836942E0,-9.624990463E0,3.105279684E0
9.156484736E0,1.520318031E0,-9.747094154E0,2.952050686E0
9.161484736E0,1.422155857E0,-9.926659584E0,2.540247917E0
9.166484769E0,1.352723956E0,-1.012537861E1,2.209848166E0
9.171484802E0,1.249773264E0,-1.030973148E1,1.884236693E0
9.176484835E0,1.084573388E0,-1.041507626E1,1.570596337E0
9.181484835E0,9.002198577E-1,-1.056112289E1,1.295263171E0
9.186484835E0,6.464344859E-1,-1.067604446E1,1.012747288E0
9.191485468E0,2.418143749E-1,-1.088434029E1,7.015010715E-1
9.196485468E0,-2.394201607E-2,-1.098489666E1,5.123591423E-1
9.201486134E0,-5.267243981E-1,-1.110700130E1,2.681505978E-1
9.206485667E0,-8.499416113E-1,-1.116446209E1,1.197100878E-1
9.211486333E0,-1.398213744E0,-1.117882729E1,-1.077390760E-1
9.216487233E0,-1.912967205E0,-1.112376022E1,-3.663128614E-1
9.221488066E0,-2.492363930E0,-1.109742451E1,-5.410895944E-1
9.226488932E0,-2.588132143E0,-1.115009689E1,-5.913678408E-1
9.231489565E0,-2.671929121E0,-1.131290245E1,-4.692635238E-1
9.236489565E0,-2.717418909E0,-1.160020638E1,-3.088520169E-1
9.241489565E0,-2.664746523E0,-1.184680939E1,-9.097966552E-2
9.246489598E0,-2.559401512E0,-1.189469337E1,3.351882473E-2
9.251489631E0,-2.272097349E0,-1.190427017E1,3.471592367E-1
9.256489664E0,-2.116474390E0,-1.184680939E1,6.248866320E-1
9.261489664E0,-1.908178806E0,-1.171991634E1,1.077390790E0
9.266489664E0,-1.893813491E0,-1.184680939E1,1.312022567E0
9.271490297E0,-1.912967205E0,-1.198806763E1,1.405396342E0
9.276490297E0,-1.810016513E0,-1.237592793E1,1.228225470E0
9.281490297E0,-1.352723956E0,-1.282124901E1,7.517793179E-1
9.286490330E0,-9.528923035E-1,-1.301278591E1,3.926490843E-1
9.291490330E0,-2.968810201E-1,-1.314686108E1,-8.140286058E-2
9.296490730E0,-5.746084079E-2,-1.312531281E1,-2.130839527E-1
9.301491396E0,2.633621916E-2,-1.303433323E1,-2.250549644E-1
9.306491396E0,3.591302410E-2,-1.309658241E1,-1.795651317E-1
9.311491396E0,1.723825186E-1,-1.328093624E1,-9.576806799E-3
9.316491362E0,2.418143749E-1,-1.336712742E1,2.777273953E-1
9.321491362E0,2.681505978E-1,-1.344613647E1,7.781155705E-1
9.326491362E0,5.027823448E-1,-1.343655968E1,1.398213744E0
9.331491395E0,9.696516991E-1,-1.344134808E1,2.111685991E0
9.336491395E0,1.194706678E0,-1.339106941E1,2.398990154E0
9.341491395E0,1.529894829E0,-1.347247219E1,2.655169725E0
9.346491561E0,1.649604917E0,-1.348683739E1,2.767697096E0
9.351491527E0,1.989581585E0,-1.341022301E1,2.624045134E0
9.356491527E0,2.817975283E0,-1.288349819E1,2.197877169E0
9.361491560E0,3.909731388E0,-1.214847851E1,1.630451322E0
9.366491593E0,4.980238914E0,-1.140388203E1,1.074996591E0
9.371491593E0,6.074388981E0,-1.062576675E1,5.243301988E-1
9.376491593E0,6.584353924E0,-9.897929192E0,-1.316810995E-1
9.381491593E0,6.962637901E0,-9.481337547E0,-1.051054597E0
9.386492259E0,6.972214699E0,-9.739912033E0,-1.520318031E0
9.391492259E0,6.270713329E0,-1.075026512E1,-2.027888775E0
9.396492225E0,6.028899193E0,-1.140388203E1,-2.015917778E0
9.401492225E0,6.246771336E0,-1.247169590E1,-1.771709204E0
9.406492225E0,6.596324921E0,-1.355148125E1,-1.673547029E0
9.411492258E0,7.087136269E0,-1.490450382E1,-1.525106430E0
9.416492258E0,7.568370819E0,-1.630750656E1,-1.240196466E0
9.421492258E0,7.865252018E0,-1.726518631E1,-9.074024558E-1
9.426492224E0,7.975385189E0,-1.789725685E1,-7.158663273E-1
9.431492224E0,7.628225803E0,-1.791401482E1,-4.908113480E-1
9.436492224E0,7.261912823E0,-1.756446266E1,-2.992752194E-1
9.441492257E0,6.699275494E0,-1.681507683E1,2.466027737E-1
9.446492257E0,6.548440933E0,-1.630750656E1,5.722141862E-1
9.451492257E0,6.455067158E0,-1.553417873E1,8.475474119E-1
9.456492257E0,6.445490360E0,-1.497154140E1,9.600749016E-1
9.461492257E0,6.538864136E0,-1.435353851E1,9.145850539E-1
9.466492257E0,6.490980148E0,-1.367358494E1,7.852981687E-1
9.471492223E0,6.368875980E0,-1.286434460E1,4.118026793E-1
9.476492189E0,5.904400826E0,-1.198806763E1,2.681505978E-1
9.481492189E0,4.639962673E0,-1.093940639E1,7.182604820E-2
9.486492222E0,3.756502390E0,-1.040549946E1,-1.412578970E-1
9.491492255E0,2.427720547E0,-9.569923401E0,-7.302315235E-1
9.496492055E0,1.771709204E0,-9.150938034E0,-1.161187768E0
9.501492055E0,5.817909837E-1,-8.839692116E0,-1.312022567E0
9.506492021E0,-4.668693244E-1,-8.645761490E0,-1.273715258E0
9.511491987E0,-1.233013868E0,-7.968202591E0,-1.874659896E0
9.516491953E0,-1.534683347E0,-7.803002834E0,-2.274491549E0
9.521491953E0,-1.003170490E0,-7.640196800E0,-2.415749550E0
9.526491986E0,-4.692635238E-1,-7.486968040E0,-2.456450939E0
9.531492019E0,2.442085743E-1,-7.316979885E0,-2.257732153E0
9.536492052E0,5.339069963E-1,-7.297826290E0,-2.154781580E0
9.541492052E0,8.331822157E-1,-7.625831604E0,-2.042253971E0
9.546492052E0,1.192312479E0,-7.987356186E0,-2.087743998E0
9.551492018E0,1.616086125E0,-8.439860344E0,-2.449268341E0
9.556492018E0,1.644816518E0,-8.609848976E0,-2.638410330E0
9.561492018E0,1.568202138E0,-8.576330185E0,-2.590526342E0
9.566492051E0,1.673547029E0,-8.205228806E0,-2.291250944E0
9.571492051E0,1.525106430E0,-7.752724171E0,-1.726219416E0
9.576492051E0,1.206677675E0,-7.786243439E0,-1.587355733E0
9.581492017E0,1.144428372E0,-7.814973831E0,-1.403002143E0
9.586491983E0,1.369483352E0,-7.671321392E0,-1.149216771E0
9.591491949E0,1.563413739E0,-7.443872452E0,-5.267243981E-1
9.596491949E0,1.975216389E0,-7.178115845E0,2.489969730E-1
9.601491949E0,2.229001760E0,-6.692092896E0,8.355764151E-1
9.606491982E0,2.291250944E0,-6.450278759E0,7.565677166E-1
9.611492015E0,2.403778553E0,-6.249165535E0,6.320692301E-1
9.616492048E0,2.312798738E0,-6.026504993E0,5.099649429E-1
9.621492048E0,1.970427990E0,-5.971438408E0,-1.675941236E-2
9.626492048E0,1.647210717E0,-5.971438408E0,-4.836287498E-1
9.631492014E0,1.060631394E0,-6.122272968E0,-1.292868972E0
9.636492014E0,7.757213712E-1,-6.206069946E0,-1.575384736E0
9.641492014E0,5.650315881E-1,-6.198887348E0,-1.419761658E0
9.646492047E0,5.243301988E-1,-5.978621006E0,-9.720458984E-1
9.651492047E0,3.543418646E-1,-5.662586212E0,-3.088520169E-1
9.656492047E0,3.423708379E-1,-5.365705490E0,1.556231081E-1
9.661492047E0,5.434837937E-1,-5.114314079E0,5.602431893E-1
9.666492047E0,7.134721279E-1,-4.872200489E0,8.403648138E-1
9.671492047E0,1.096544385E0,-4.371812344E0,1.053448796E0
9.676491113E0,1.261744261E0,-4.067748547E0,1.110909581E0
9.681491113E0,1.561019540E0,-3.660734415E0,1.055842996E0
9.686491113E0,1.747767210E0,-3.476380825E0,9.888052940E-1
9.691490479E0,2.111685991E0,-3.361459255E0,9.313444495E-1
9.696490479E0,2.339135170E0,-3.373430252E0,9.409212470E-1
9.701490479E0,2.518700123E0,-3.509899616E0,1.060631394E0
9.706490445E0,2.724601507E0,-3.636792421E0,1.307234168E0
9.711490445E0,2.803610086E0,-3.986345768E0,1.683123827E0
9.716490445E0,2.738966703E0,-4.323928356E0,1.963245392E0
9.721490478E0,2.449268341E0,-4.874594688E0,2.628833532E0
9.726490511E0,2.166752577E0,-5.289090633E0,3.040636063E0
9.731490511E0,1.663970232E0,-6.086359978E0,3.957615376E0
9.736490511E0,1.484405041E0,-6.522104740E0,4.539406300E0
9.741490511E0,1.139639974E0,-7.247547626E0,5.444714069E0
9.746490511E0,1.012747288E0,-7.740753174E0,5.990592003E0
9.751490511E0,9.385270476E-1,-8.277054787E0,6.337751389E0
9.756490477E0,9.768342972E-1,-8.712799072E0,6.555623531E0
9.761490477E0,9.241618514E-1,-9.287407875E0,6.543652534E0
9.766490477E0,1.175553083E0,-9.457395554E0,6.366481781E0
9.771490510E0,1.431732655E0,-9.646537781E0,6.028899193E0
9.776490510E0,1.637633920E0,-9.689633369E0,5.789478779E0
9.781490510E0,2.025494576E0,-9.488520622E0,5.463867664E0
9.786490476E0,2.310404539E0,-9.277831078E0,5.253177643E0
9.791490442E0,2.468421936E0,-9.067141533E0,4.970662117E0
9.796490408E0,2.482787132E0,-8.933065414E0,4.620809078E0
9.801490408E0,2.410961151E0,-8.901941299E0,4.357447147E0
9.806490441E0,2.365471363E0,-8.964190483E0,4.230554581E0
9.811490474E0,2.193088770E0,-9.158121109E0,4.321534157E0
9.816490507E0,2.082955360E0,-9.347262383E0,4.462791920E0
9.821490507E0,1.910573006E0,-9.677662849E0,4.800374508E0
9.826491407E0,1.733402014E0,-9.905111313E0,4.996998310E0
9.831491373E0,1.414973259E0,-1.029776096E1,5.210082054E0
9.836491373E0,1.132457376E0,-1.060421848E1,5.310638428E0
9.841492039E0,8.020575643E-1,-1.094898319E1,5.360917091E0
9.846492072E0,4.668693244E-1,-1.117643261E1,5.471050262E0
9.851492105E0,-2.873042040E-2,-1.138472843E1,5.712864399E0
9.856492105E0,-4.309563041E-1,-1.152598667E1,6.002563000E0
9.861492071E0,-6.991068721E-1,-1.163611984E1,6.701669693E0
9.866492037E0,-7.805097699E-1,-1.164569664E1,7.178115845E0
9.871492337E0,-1.132457376E0,-1.167921543E1,7.937077999E0
9.876492303E0,-1.364694953E0,-1.170076275E1,8.277054787E0
9.881492303E0,-1.333570361E0,-1.162175465E1,8.583512306E0
9.886492336E0,-1.295263171E0,-1.135360336E1,8.401553154E0
9.891492369E0,-1.247379065E0,-1.090588760E1,7.937077999E0
9.896492402E0,-1.041477680E0,-1.026903057E1,7.400776863E0
9.901492402E0,-6.727706790E-1,-9.507674217E0,6.783072472E0
9.906492402E0,-4.572925270E-1,-8.724770546E0,6.510133743E0
9.911492368E0,-2.154781520E-1,-7.733570576E0,6.230011940E0
9.916492368E0,-2.633621916E-2,-7.235576630E0,6.105513573E0
9.921492368E0,3.184288144E-1,-6.462249756E0,5.983409405E0
9.926492401E0,5.434837937E-1,-6.060023785E0,5.921160221E0
9.931491734E0,8.259995580E-1,-5.387253284E0,5.765536785E0
9.936491734E0,1.132457376E0,-4.920383930E0,5.509357452E0
9.941491734E0,1.448492050E0,-4.458003521E0,5.114314079E0
9.946491734E0,1.699883223E0,-3.969586372E0,4.790797710E0
9.951491734E0,2.008735180E0,-3.466804028E0,4.479551315E0
9.956491700E0,2.147598982E0,-3.205836058E0,4.280832767E0
9.961491700E0,2.293645144E0,-2.935291290E0,3.933673382E0
9.966491700E0,2.413355350E0,-2.841917515E0,4.010287762E0
9.971491733E0,2.772485495E0,-3.129221678E0,3.945644379E0
9.976491766E0,3.150769472E0,-3.567360640E0,3.303998232E0
9.981491766E0,3.567360640E0,-4.745307922E0,2.379836559E0
9.986491732E0,3.938461781E0,-5.947496414E0,1.460463047E0
9.991491698E0,4.412513733E0,-7.513304234E0,6.320692301E-1
9.996491664E0,5.380070686E0,-9.495702744E0,-2.418143749E-1
1.000149163E1,7.520486832E0,-1.287152767E1,-1.436521053E0
1.000649163E1,9.246706009E0,-1.561797619E1,-2.286462545E0
1.001149100E1,1.295532513E1,-2.203683090E1,-3.497928619E0
1.001649036E1,1.526602840E1,-2.689735985E1,-3.394978046E0
1.002149006E1,1.683662415E1,-3.461656570E1,-1.340752989E-1
1.002649006E1,1.248606110E1,-3.819110870E1,1.231607246E1
1.003149006E1,1.362300754E0,-3.707301712E1,2.835542870E1
1.003649003E1,-7.125443459E0,-3.166421509E1,2.732831573E1
1.004149003E1,-1.148289108E1,-2.466835785E1,1.699224854E1
1.004649003E1,-1.217720890E1,-1.737771416E1,5.621884823E0
1.005148939E1,-6.433519363E0,-8.897152901E0,-7.570765018E0
1.005648849E1,-2.032677174E0,-4.632780075E0,-1.290983486E1
1.006148759E1,2.475604534E0,-4.333505034E-1,-1.579514694E1
1.006648666E1,3.775655985E0,5.291185975E-1,-1.449000835E1
1.007148596E1,4.893748283E0,4.908113480E-1,-1.061140156E1
1.007648503E1,5.906795025E0,2.992752194E-1,-7.364863873E0
1.008148479E1,6.991368294E0,2.274491638E-1,-5.423166275E0
1.008648416E1,7.381623268E0,-7.182604820E-2,-5.504569054E0
1.009148419E1,7.364863873E0,-1.074996591E0,-6.282684326E0
1.009648422E1,7.293037415E0,-2.506729126E0,-6.684910297E0
1.010148379E1,6.871658325E0,-4.359841347E0,-6.751947880E0
1.010648379E1,6.285078526E0,-5.068824291E0,-6.596324921E0
1.011148309E1,5.243600845E0,-5.559635639E0,-6.227617741E0
1.011648216E1,5.095160484E0,-5.897218227E0,-6.026504993E0
1.012148216E1,5.657797813E0,-6.857293129E0,-5.767930984E0
1.012648216E1,6.431125164E0,-7.788637638E0,-5.638644218E0
1.013148219E1,6.847716331E0,-8.715193748E0,-5.408801079E0
1.013648152E1,7.079953671E0,-9.792584419E0,-4.855441093E0
1.014148152E1,7.372046471E0,-1.127459526E1,-3.998316765E0
1.014648152E1,7.561188221E0,-1.216763210E1,-3.545812607E0
1.015148152E1,7.676109791E0,-1.344853020E1,-2.911349297E0
1.015648152E1,7.443872452E0,-1.398962021E1,-2.652775526E0
1.016148216E1,6.847716331E0,-1.457619953E1,-2.229001760E0
1.016648282E1,5.902006626E0,-1.447324848E1,-1.704671621E0
1.017148249E1,4.551377296E0,-1.334557915E1,-5.243301988E-1
1.017648252E1,3.201047659E0,-1.246451378E1,4.572925270E-1
1.018148252E1,2.264914751E0,-1.229931355E1,1.668758631E0
1.018648252E1,1.295263171E0,-1.330248356E1,3.440467834E0
1.019148242E1,-1.802833915E0,-1.585979080E1,6.455067158E0
1.019648242E1,-4.797980309E0,-1.784218979E1,8.238747597E0
1.020148309E1,-8.650549889E0,-2.029864120E1,9.196428299E0
1.020648402E1,-9.514857292E0,-2.037046623E1,8.279448509E0
1.021148492E1,-1.002961063E1,-1.879747581E1,4.429273129E0
1.021648582E1,-1.064970875E1,-1.608484650E1,-1.436521020E-2
1.022148648E1,-9.320926666E0,-1.357063484E1,-3.143586874E0
1.022648738E1,-6.258742332E0,-1.197130775E1,-4.649539471E0
1.023148829E1,-2.832340717E0,-1.064013195E1,-4.812345505E0
1.023648892E1,1.197100803E-2,-9.598653793E0,-4.129997730E0
1.024148888E1,2.020706177E0,-8.866027832E0,-3.373430252E0
1.024648822E1,2.779668093E0,-8.423100471E0,-2.894589901E0
1.025148868E1,3.689464808E0,-7.561188221E0,-2.099714994E0
1.025648872E1,3.995922565E0,-7.125443459E0,-1.673547029E0
