"Time (s)","Acceleration x (m/s^2)","Acceleration y (m/s^2)","Acceleration z (m/s^2)"
4.526947000E-3,4.517649174E0,3.153740168E0,4.991427898E0
9.376583000E-3,4.823930264E0,3.242274761E0,5.702096462E0
1.422679100E-2,5.462814331E0,3.357130051E0,7.123433113E0
1.907694700E-2,5.728417397E0,3.349951744E0,7.630711555E0
2.392705100E-2,6.216553211E0,3.101098061E0,7.920242786E0
2.877715600E-2,6.592226505E0,2.912065268E0,8.173882484E0
3.362731200E-2,6.534798622E0,2.931207657E0,8.358129501E0
3.847741600E-2,6.173482418E0,3.019742250E0,8.456234932E0
4.332757200E-2,5.711667538E0,3.117847919E0,8.511270523E0
4.817767600E-2,5.185246468E0,3.125026464E0,8.501698494E0
5.302778100E-2,4.733003139E0,3.053241730E0,8.441878319E0
5.787793700E-2,4.450650215E0,2.883351326E0,8.348558426E0
6.272804100E-2,4.189832687E0,2.689532757E0,8.231309891E0
6.757814500E-2,3.945764542E0,2.565105915E0,8.128418922E0
7.242830100E-2,3.653840065E0,2.486142635E0,7.958528042E0
7.727840600E-2,3.409772158E0,2.440679073E0,7.735995770E0
8.212851000E-2,3.175275564E0,2.428714991E0,7.520641804E0
8.697866600E-2,2.938386202E0,2.447857618E0,7.310073376E0
9.182877000E-2,2.799602509E0,2.447857618E0,7.149754047E0
9.667892600E-2,2.689532757E0,2.469393015E0,7.020541668E0
1.015290310E-1,2.732603550E0,2.450250387E0,6.936792850E0
1.063791350E-1,2.742174864E0,2.507678032E0,6.908079147E0
1.112292910E-1,2.737389088E0,2.675175667E0,6.920042992E0
1.160793950E-1,2.845066071E0,2.792423964E0,6.910471916E0
1.209295510E-1,2.967100143E0,2.794816732E0,6.831508636E0
1.257796560E-1,2.852244616E0,2.859423161E0,6.666403770E0
1.306297600E-1,2.715853691E0,2.928814888E0,6.620940208E0
1.354799160E-1,2.261217356E0,3.177668571E0,6.635297298E0
1.403300200E-1,2.275574446E0,3.091526747E0,6.764509678E0
1.451801240E-1,2.493321180E0,2.830709219E0,6.989434719E0
1.500302810E-1,2.627319336E0,2.562713146E0,7.235895634E0
1.548803850E-1,2.589034081E0,2.464607239E0,7.609176159E0
1.597305410E-1,2.488535643E0,2.455035925E0,8.047062874E0
1.645806450E-1,2.359323025E0,2.457428932E0,8.487341881E0
1.694307490E-1,2.237289190E0,2.452643156E0,8.925228119E0
1.742809060E-1,2.170290232E0,2.373680115E0,9.305686951E0
1.791310100E-1,2.053041935E0,2.323430777E0,9.554540634E0
1.839811660E-1,1.897508383E0,2.311466694E0,9.619147301E0
1.888312700E-1,1.899901152E0,2.373680115E0,9.451649666E0
1.936814260E-1,2.036292076E0,2.459821701E0,9.032905579E0
1.985315310E-1,2.337787628E0,2.574677229E0,8.477770805E0
2.033816350E-1,2.493321180E0,2.785245657E0,7.759923935E0
2.082317910E-1,3.491128206E0,2.282752752E0,7.159325123E0
2.130818950E-1,3.522234917E0,2.622533560E0,6.843472958E0
2.179319990E-1,3.060420275E0,3.218346357E0,6.692724705E0
2.227821560E-1,2.598605394E0,3.912265062E0,6.623332977E0
2.276322600E-1,2.423929453E0,4.376472473E0,6.656832695E0
2.324824160E-1,3.058027267E0,4.113262177E0,6.872186661E0
2.373325200E-1,3.464807272E0,3.732803345E0,7.343572617E0
2.421826240E-1,3.534198999E0,3.500699520E0,7.982456207E0
2.469416350E-1,3.524627686E0,3.414557934E0,8.669196129E0
2.516966870E-1,3.493520975E0,3.414557934E0,9.276973724E0
2.564517910E-1,3.416950703E0,3.424129248E0,9.686145782E0
2.612068430E-1,3.268595695E0,3.400201082E0,9.954142570E0
2.659618950E-1,3.180061340E0,3.361915827E0,1.010010433E1
2.707169990E-1,3.239881754E0,3.335594654E0,1.008574772E1
2.754720510E-1,3.337987661E0,3.400201082E0,9.980463028E0
2.802271560E-1,3.409772158E0,3.493520975E0,9.836894035E0
2.849822080E-1,3.467200041E0,3.610769272E0,9.714859962E0
2.897373120E-1,3.498306751E0,3.747160196E0,9.602396965E0
2.944923640E-1,3.471985579E0,3.859622955E0,9.535398483E0
2.992474160E-1,3.462414265E0,3.900300980E0,9.537791252E0
3.040025200E-1,3.424129248E0,3.890729666E0,9.597611427E0
3.087575720E-1,3.314059258E0,3.885943890E0,9.705288887E0
3.135126760E-1,3.192025423E0,3.838087559E0,9.848857880E0
3.182677290E-1,3.108276606E0,3.780659676E0,9.958928108E0
3.230228330E-1,3.019742250E0,3.761517286E0,1.012881851E1
3.277778850E-1,2.943171740E0,3.732803345E0,1.025324535E1
3.325329890E-1,2.931207657E0,3.665804386E0,1.035374355E1
3.372880410E-1,2.914458036E0,3.625126362E0,1.046381378E1
3.420430930E-1,2.964707375E0,3.589233875E0,1.056431198E1
3.467981970E-1,3.122633457E0,3.560520172E0,1.070070267E1
3.515532490E-1,3.239881754E0,3.565305710E0,1.088255692E1
3.563083540E-1,3.237488985E0,3.536591768E0,1.092802143E1
3.610634060E-1,3.189632654E0,3.476771355E0,1.087059307E1
3.658184580E-1,3.184846878E0,3.404986620E0,1.079402256E1
3.705735620E-1,3.132204771E0,3.376272678E0,1.078684425E1
3.753286140E-1,3.148954630E0,3.347558975E0,1.073420238E1
3.800837180E-1,3.247060299E0,3.321237803E0,1.064566803E1
3.848387700E-1,3.402593851E0,3.259024382E0,1.059063339E1
3.895938740E-1,3.294916868E0,3.371487141E0,1.053559780E1
3.943489260E-1,3.180061340E0,3.383451223E0,1.022213840E1
3.991039790E-1,3.385843992E0,3.385843992E0,9.906285286E0
4.038590830E-1,3.649054527E0,3.407379389E0,9.540184021E0
4.086141350E-1,3.759124279E0,3.373879910E0,9.154939651E0
4.133692390E-1,4.711467743E0,2.708675146E0,8.721838951E0
4.181242910E-1,4.563112736E0,2.837887764E0,8.798408508E0
4.228793950E-1,3.907479286E0,3.333201885E0,8.896514893E0
4.276344470E-1,3.543770313E0,3.725624800E0,8.702695847E0
4.323895510E-1,3.402593851E0,3.957728624E0,8.496912956E0
4.371446040E-1,3.225524902E0,3.905086517E0,8.166703224E0
4.418996560E-1,3.639483213E0,3.445664644E0,7.934599876E0
4.466547600E-1,3.830909014E0,3.168097258E0,7.934599876E0
4.514098120E-1,3.955335855E0,3.034099102E0,8.032705307E0
4.561649160E-1,4.216153622E0,3.005385160E0,8.271987915E0
4.609199680E-1,4.424329281E0,3.034099102E0,8.508877754E0
4.656750720E-1,4.512863636E0,3.055634499E0,8.750552177E0
4.704301240E-1,4.682754040E0,3.012563705E0,8.867800713E0
4.751852290E-1,4.888536453E0,3.041277647E0,9.030512810E0
4.799402810E-1,5.326423168E0,2.979064226E0,9.023334503E0
4.846953330E-1,5.486742496E0,3.007778168E0,9.061619759E0
4.894504370E-1,5.740381718E0,2.950350285E0,9.032905579E0
4.942054890E-1,5.809773445E0,2.976671457E0,9.044869423E0
4.989605930E-1,5.826523304E0,3.014956474E0,8.918049812E0
5.037156450E-1,5.757131100E0,3.038884640E0,8.712266922E0
5.084707490E-1,5.656632900E0,2.904886723E0,8.312665939E0
5.132258010E-1,5.462814331E0,2.828316450E0,8.042277336E0
5.179809060E-1,5.108676434E0,2.787638426E0,7.829315662E0
5.227359580E-1,4.814359188E0,2.577069998E0,7.489534855E0
5.274910100E-1,4.912465096E0,2.356930256E0,7.286144733E0
5.322461140E-1,4.929214478E0,2.285145521E0,7.322037220E0
5.370011660E-1,4.986642361E0,2.153540373E0,7.290930748E0
5.417562700E-1,4.969892502E0,2.105684042E0,7.429714203E0
5.465113220E-1,5.000999451E0,2.237289190E0,7.645068169E0
5.512664260E-1,5.242674351E0,2.433500528E0,7.831708431E0
5.560214790E-1,5.793023586E0,2.459821701E0,7.707281590E0
5.607765830E-1,5.974878311E0,2.665604353E0,7.594819069E0
5.655316350E-1,6.147161484E0,2.821137905E0,7.281359196E0
5.702867390E-1,6.151947021E0,3.022135019E0,7.061219692E0
5.750417910E-1,6.317051888E0,3.108276606E0,6.750152588E0
5.797968950E-1,6.541976929E0,3.196810961E0,6.661618233E0
5.845519470E-1,6.427121639E0,3.335594654E0,6.642475605E0
5.893069990E-1,6.240481377E0,3.452843189E0,6.611369133E0
5.940621040E-1,6.465406895E0,3.440878868E0,6.549155712E0
5.988171560E-1,6.879364967E0,3.352344513E0,6.623332977E0
6.035722600E-1,7.113861561E0,3.292523861E0,6.781259537E0
6.083273120E-1,7.247859955E0,3.323630571E0,6.898507595E0
6.130824160E-1,7.240681171E0,3.402593851E0,6.857829571E0
6.178374680E-1,7.190432072E0,3.452843189E0,6.723831654E0
6.225925720E-1,7.142575741E0,3.436093330E0,6.470192432E0
6.273476240E-1,7.281359196E0,3.424129248E0,6.202196121E0
6.321027290E-1,7.398607731E0,3.352344513E0,5.855237007E0
6.368577810E-1,7.666603565E0,3.309273720E0,5.508277893E0
6.416128330E-1,7.934599876E0,3.328416348E0,5.108676434E0
6.463679370E-1,8.118846893E0,3.404986620E0,4.697110653E0
6.511229890E-1,8.310273170E0,3.495913982E0,4.302295208E0
6.558780930E-1,8.286344528E0,3.591626883E0,3.876372576E0
6.606331450E-1,8.063812256E0,3.689732552E0,3.512663603E0
6.653882490E-1,7.884350777E0,3.751945972E0,3.235096216E0
6.701433010E-1,7.774280548E0,3.826123476E0,3.058027267E0
6.748984060E-1,7.996813297E0,3.854837179E0,3.014956474E0
6.796534580E-1,8.547162056E0,3.869194269E0,3.146561861E0
6.844085620E-1,9.233902931E0,3.952943087E0,3.314059258E0
6.891636140E-1,9.772287369E0,4.156332970E0,3.407379389E0
6.939187180E-1,1.005703354E1,4.414757729E0,3.421736479E0
6.986737700E-1,1.014556789E1,4.508078098E0,3.328416348E0
7.034288740E-1,9.994820595E0,4.493721008E0,3.113062143E0
7.081839260E-1,1.012642574E1,4.390829563E0,2.924029350E0
7.129390310E-1,1.024367332E1,4.342973232E0,2.763710260E0
7.176940830E-1,1.032742214E1,4.271188259E0,2.541177750E0
7.224491870E-1,1.021974564E1,4.158725739E0,2.220539331E0
7.272042390E-1,9.915857315E0,4.070191383E0,1.830509305E0
7.319593430E-1,9.626325607E0,3.818944931E0,1.366301775E0
7.367143950E-1,9.107083321E0,3.601198196E0,1.055234790E0
7.414694990E-1,8.688339233E0,3.467200041E0,8.446664214E-1
7.462245510E-1,9.351150513E0,3.081955671E0,1.124626622E-1
7.509796040E-1,8.989834785E0,3.170490026E0,-1.770688742E-1
7.557347080E-1,8.468199730E0,3.352344513E0,-2.967100143E-1
7.604898120E-1,8.377271652E0,3.357130051E0,-3.708875179E-1
7.652448640E-1,7.944170952E0,3.373879910E0,-4.857429862E-1
7.699999160E-1,6.470192432E0,3.440878868E0,-6.388836503E-1
7.747550200E-1,8.891729355E0,3.000599623E0,-1.380658627E0
7.795100720E-1,1.252403355E1,2.708675146E0,-1.689332843E0
7.842651760E-1,9.427721024E0,3.366701365E0,-1.603191137E0
7.890202290E-1,7.724031448E0,3.897907972E0,-1.335195065E0
7.937753330E-1,8.389236450E0,3.529413462E0,-1.265803218E0
7.985303850E-1,9.355937004E0,3.158525944E0,-1.237089276E0
8.032854890E-1,9.925428391E0,3.146561861E0,-1.117448211E0
8.080405410E-1,1.034656525E1,3.364308596E0,-1.306481123E0
8.127956450E-1,1.060259724E1,3.538984776E0,-1.643869162E0
8.175506970E-1,1.099501991E1,3.471985579E0,-3.744767427E0
8.223058010E-1,1.099262714E1,3.577269793E0,-5.570491314E0
8.270608540E-1,1.066959572E1,3.933800459E0,-6.628118515E0
8.318159580E-1,1.061216831E1,4.067798615E0,-7.054041386E0
8.365710100E-1,1.046859932E1,3.986442566E0,-6.747759819E0
8.413261140E-1,1.022213840E1,3.854837179E0,-5.931807518E0
8.460811660E-1,9.853643417E0,3.608376503E0,-4.622933388E0
8.508362700E-1,9.394221306E0,3.500699520E0,-3.024527788E0
8.555913220E-1,9.150154114E0,3.347558975E0,-1.543370605E0
8.603464260E-1,9.004191399E0,3.144168854E0,-2.919243574E-1
8.651014790E-1,9.183652878E0,2.971885681E0,5.623133183E-1
8.698565830E-1,9.523433685E0,3.000599623E0,1.349551916E0
8.746116350E-1,9.765109062E0,3.268595695E0,1.919043779E0
8.793667390E-1,9.942177773E0,3.424129248E0,2.175075769E0
8.841217910E-1,9.832108498E0,3.507878065E0,2.120040894E0
8.888768950E-1,9.509077072E0,3.527020693E0,1.770688772E0
8.936319470E-1,8.961120605E0,3.481556892E0,1.464407444E0
8.983870510E-1,8.494520187E0,3.579662561E0,1.356730461E0
9.031421040E-1,8.358129501E0,3.737588882E0,1.617548108E0
9.078972080E-1,8.214560509E0,3.816552162E0,2.249253273E0
9.126522600E-1,8.075776100E0,3.742374659E0,2.885744095E0
9.174073640E-1,8.413164139E0,3.591626883E0,3.297309637E0
9.221624160E-1,8.989834785E0,3.543770313E0,3.493520975E0
9.269175200E-1,9.667003632E0,3.517449379E0,3.510270834E0
9.316725720E-1,1.018863869E1,3.519842148E0,3.230310678E0
9.364276760E-1,1.058584690E1,3.605983734E0,2.687139750E0
9.411827290E-1,1.066241741E1,3.649054527E0,1.818545222E0
9.459378330E-1,1.061456108E1,3.603590965E0,5.647061467E-1
9.506928850E-1,1.022931671E1,3.689732552E0,-8.279166222E-1
9.554479890E-1,9.702896118E0,3.739981890E0,-2.495713949E0
9.602030410E-1,8.963513374E0,3.759124279E0,-4.019941807E0
9.649581450E-1,8.164310455E0,3.850051641E0,-5.070391178E0
9.697131970E-1,7.508677483E0,3.859622955E0,-5.828916073E0
9.744683010E-1,6.479763508E0,3.828516245E0,-6.833901405E0
9.792233540E-1,3.761517286E0,3.546163082E0,-7.738388538E0
9.839784580E-1,3.165704250E0,3.043670416E0,-9.384650230E0
9.887335100E-1,4.108476639E0,2.600998163E0,-1.063131142E1
9.934886140E-1,4.438685894E0,2.270788670E0,-1.230389404E1
9.982436660E-1,3.134597778E0,1.880758643E0,-1.374676609E1
1.002998770E0,2.014756680E0,1.619940877E0,-1.306959724E1
1.007753822E0,3.495913982E0,7.752745152E-1,-1.314138222E1
1.012508926E0,4.828716278E0,-1.196411345E-2,-1.238046455E1
1.017263979E0,6.070590973E0,-2.679961324E-1,-1.084666538E1
1.022019083E0,7.836493969E0,-4.187439680E-1,-9.494720459E0
1.026774135E0,9.154939651E0,-4.737788737E-1,-8.090133667E0
1.031529239E0,9.872786522E0,-6.484549642E-1,-7.202396393E0
1.036284291E0,1.086341476E1,-8.829515576E-1,-6.778866768E0
1.041039343E0,1.142572784E1,-1.205982566E0,-6.113661766E0
1.045794447E0,1.307677555E1,-9.571290612E-1,-5.934200287E0
1.050549551E0,1.266042423E1,-4.929214716E-1,-4.874179840E0
1.055304604E0,1.117687416E1,-2.847459018E-1,-3.144168854E0
1.060059656E0,1.067198944E1,-6.149554253E-1,-2.002792597E0
1.064814760E0,1.087777138E1,-6.939185858E-1,-1.600798368E0
1.069569812E0,9.540184021E0,-8.662018180E-1,-1.215553880E0
1.074324916E0,6.987041950E0,-1.294517040E0,-9.858429432E-1
1.079080020E0,4.998606682E0,-1.457229018E0,-4.522434771E-1
1.083835072E0,3.723232031E0,-1.933400750E0,-4.785645306E-1
1.088590124E0,2.457428932E0,-2.371287346E0,-9.403793216E-1
1.093345229E0,1.976471543E0,-2.263610125E0,-1.576870084E0
1.098100281E0,2.806781054E0,-2.878565550E0,-2.100898266E0
1.102855385E0,4.182653904E0,-2.651247501E0,-2.251646042E0
1.107610437E0,5.525027275E0,-2.758924484E0,-2.148754835E0
1.112365541E0,6.975078106E0,-2.079362869E0,-1.878365755E0
1.117120593E0,8.044670105E0,-1.275374413E0,-2.270788670E0
1.121875697E0,8.764909744E0,-7.082754970E-1,-2.897708178E0
1.126630749E0,1.146879864E1,-1.351944804E0,-3.182454109E0
1.131385854E0,1.565623856E1,-1.820937991E0,-2.600998163E0
1.136140958E0,1.742692757E1,-1.555334777E-1,-9.786644578E-1
1.140896010E0,1.516092396E1,2.785245657E0,1.208375454E0
1.145651062E0,1.240678501E1,2.366501570E0,2.012363911E0
1.150406166E0,1.222014523E1,2.612962246E0,1.909472466E0
1.155161218E0,1.434018612E1,2.012363911E0,1.722832322E-1
1.159916322E0,1.577109432E1,-5.982056856E-1,-2.737389088E0
1.164671374E0,1.464646721E1,-2.203789711E0,-6.037091732E0
1.169426479E0,1.183250809E1,-1.323230863E0,-8.133204460E0
1.174181531E0,9.037691116E0,-1.536192179E0,-7.477570534E0
1.178936635E0,8.389236450E0,-3.993621111E0,-6.745367050E0
1.183691687E0,8.700303078E0,-4.462614059E0,-5.273781300E0
1.188446791E0,9.355937004E0,-4.237689018E0,-3.754338741E0
1.193201843E0,1.042074299E1,-3.821337700E0,-2.103291035E0
1.197956947E0,1.149512005E1,-1.258624673E0,-5.359922647E-1
1.202712051E0,1.150229836E1,-4.333401680E0,8.087740541E-1
1.207467104E0,1.174875927E1,-5.510670662E0,1.165304661E0
1.212222208E0,1.186122227E1,-5.458028316E0,9.858429432E-1
1.216977260E0,1.084427261E1,-5.718846321E0,1.162911773E0
1.221732364E0,1.040638542E1,-6.314659119E0,1.117448211E0
1.226487416E0,1.223928738E1,-2.361716032E0,4.618147612E-1
1.231242520E0,1.058584690E1,-6.939185619E0,-1.328016520E0
1.235997572E0,9.817750931E0,-1.007139015E1,-3.694518089E0
1.240752624E0,8.013563156E0,-1.091127110E1,-4.316651821E0
1.245507729E0,7.367500782E0,-1.055952644E1,-4.584648132E0
1.250262781E0,6.324230194E0,-1.036331463E1,-2.392822742E0
1.255017885E0,6.477370739E0,-8.685946465E0,-9.188438654E-1
1.259772989E0,7.724031448E0,-6.817151546E0,-2.321037948E-1
1.264528041E0,8.341380119E0,-6.123233318E0,8.374879509E-2
1.269283145E0,9.011369705E0,-5.891129494E0,3.876372576E-1
1.274038197E0,1.038006496E1,-5.020142078E0,1.418943882E0
1.278793301E0,8.884550095E0,-4.962714195E0,1.289731383E0
1.283548354E0,8.532805443E0,-5.814558983E0,1.387837172E0
1.288303458E0,9.815358162E0,-5.637490273E0,-7.178467698E-3
1.293058510E0,1.015753174E1,-4.685146809E0,-3.543770313E0
1.297813562E0,1.134437180E1,-3.323630571E0,-8.458627701E0
1.302568666E0,1.075095177E1,-1.899901152E0,-1.298106289E1
1.307323770E0,1.092802143E1,-1.674975827E-2,-1.556531143E1
1.312078822E0,9.446864128E0,-4.546362907E-2,-1.505803299E1
1.316833874E0,6.675975323E0,-6.269195080E-1,-1.305045509E1
1.321588979E0,4.749752998E0,-1.351944804E0,-9.616754532E0
1.326344083E0,3.811766386E0,-1.892722726E0,-5.745167255E0
1.331099135E0,3.381058455E0,-2.091326952E0,-2.079362869E0
1.335854187E0,3.443271875E0,-2.246860504E0,3.373879790E-1
1.340609291E0,4.189832687E0,-2.414358139E0,1.476371527E0
1.345364343E0,5.139782906E0,-2.694318295E0,1.684547186E0
1.350119447E0,5.967699528E0,-2.943171740E0,1.378265858E0
1.354874499E0,6.537191391E0,-2.998206854E0,5.120640397E-1
1.359629604E0,6.927221775E0,-2.897708178E0,-8.518448472E-1
1.364384708E0,7.140182972E0,-2.902493954E0,-2.244467735E0
1.369139760E0,7.386643410E0,-3.048455954E0,-3.270988464E0
1.373894812E0,7.683353424E0,-2.952743053E0,-3.914657831E0
1.378649916E0,8.140382767E0,-2.689532757E0,-4.182653904E0
1.383404968E0,8.482556343E0,-2.275574446E0,-4.012763500E0
1.388160072E0,8.738588333E0,-2.036292076E0,-3.699303865E0
1.392915124E0,8.896514893E0,-2.053041935E0,-3.716053486E0
1.397670229E0,9.075976372E0,-2.251646042E0,-3.960121393E0
1.402425281E0,9.336793900E0,-2.864208698E0,-4.051048756E0
1.407180385E0,9.748359680E0,-3.163311481E0,-3.917050600E0
1.411935437E0,1.001874828E1,-3.237488985E0,-3.452843189E0
1.416690541E0,1.005703354E1,-3.287738323E0,-2.845066071E0
1.421445593E0,9.492327690E0,-3.402593851E0,-2.426322222E0
1.426200697E0,8.657232285E0,-3.314059258E0,-2.115255117E0
1.430955749E0,8.082955360E0,-3.132204771E0,-1.978864312E0
1.435710854E0,7.853243828E0,-2.971885681E0,-2.012363911E0
1.440465906E0,7.719245911E0,-2.852244616E0,-2.124826431E0
1.445221010E0,7.814958572E0,-2.732603550E0,-2.423929453E0
1.449976062E0,8.137989998E0,-2.663211584E0,-2.868994236E0
1.454731166E0,8.470592499E0,-2.639283419E0,-3.359523058E0
1.459486218E0,8.796015739E0,-2.792423964E0,-3.517449379E0
1.464241322E0,9.066405296E0,-2.943171740E0,-3.369094372E0
1.468996374E0,9.276973724E0,-2.775674343E0,-3.055634499E0
1.473751479E0,9.346364975E0,-2.141576290E0,-2.876172781E0
1.478506531E0,9.236295700E0,-1.335195065E0,-3.172882795E0
1.483261635E0,8.855836868E0,-9.236295223E-1,-3.751945972E0
1.488016687E0,8.999405861E0,-4.091726840E-1,-4.244867325E0
1.492771791E0,9.202795982E0,1.722832322E-1,-4.699503899E0
1.497526843E0,9.064012527E0,5.886343718E-1,-5.266602516E0
1.502281947E0,9.162117958E0,9.284151793E-1,-5.922235966E0
1.507036999E0,9.717252731E0,8.231309652E-1,-6.400800705E0
1.511792104E0,1.008096218E1,3.397808075E-1,-6.266802311E0
1.516547156E0,1.014796066E1,-1.507478207E-1,-5.639883041E0
1.521302260E0,1.000917721E1,-8.303094506E-1,-4.941178799E0
1.526057312E0,9.887143135E0,-1.194018483E0,-4.539184570E0
1.530812416E0,1.004985523E1,-1.045663476E0,-4.565505505E0
1.535567468E0,1.005942631E1,-7.034898400E-1,-4.730610371E0
1.540322572E0,9.745966911E0,7.178467698E-3,-4.790431023E0
1.545077624E0,8.245666504E0,1.366301775E0,-4.594219685E0
1.549832729E0,7.594819069E0,1.576870084E0,-3.850051641E0
1.554587781E0,7.688138962E0,4.570291340E-1,-3.471985579E0
1.559342885E0,8.013563156E0,-4.570291340E-1,-3.687339783E0
1.564097937E0,8.592626572E0,-8.135597110E-1,-4.278367043E0
1.568853041E0,9.221938133E0,-1.074377418E0,-5.137390137E0
1.573608093E0,9.647860527E0,-1.079162955E0,-5.977271080E0
1.578363197E0,9.722038269E0,-9.738788009E-1,-6.628118515E0
1.583118249E0,9.561718941E0,-1.083948612E0,-7.027719975E0
1.587873354E0,9.387042999E0,-1.529013634E0,-6.977470875E0
1.592628406E0,9.071190834E0,-2.117648125E0,-6.264409542E0
1.597383510E0,8.264809608E0,-2.751745939E0,-5.292923450E0
1.602138562E0,7.594819069E0,-3.256631613E0,-4.122833252E0
1.606893666E0,7.008577347E0,-3.773481369E0,-3.081955671E0
1.611648718E0,6.575476646E0,-4.321437836E0,-2.206182480E0
1.616403822E0,6.235695839E0,-5.072783947E0,-1.548156261E0
1.621158874E0,5.601597786E0,-5.900700569E0,-1.215553880E0
1.625913979E0,4.666004181E0,-6.843472958E0,-1.502692580E0
1.630669031E0,4.484149456E0,-7.211967468E0,-2.206182480E0
1.635424135E0,5.448457241E0,-6.896114826E0,-3.270988464E0
1.640179187E0,6.955935478E0,-6.092126369E0,-4.347758770E0
1.644934291E0,8.257631302E0,-5.108676434E0,-5.134997368E0
1.649689343E0,9.291330338E0,-3.979264021E0,-5.374279499E0
1.654444447E0,9.700503349E0,-2.837887764E0,-5.453242779E0
1.659199499E0,9.827322960E0,-1.988435626E0,-5.486742496E0
1.663954604E0,9.911071777E0,-1.686939955E0,-5.678168297E0
1.668709656E0,1.012642574E1,-1.890329838E0,-6.058627129E0
1.673464760E0,1.029631615E1,-2.455035925E0,-6.226124287E0
1.678219812E0,1.031067276E1,-2.297109842E0,-6.195017815E0
1.682974916E0,1.029631615E1,-1.418943882E0,-6.221338749E0
1.687729968E0,1.059781170E1,-8.327022791E-1,-6.171089649E0
1.692485072E0,1.070309544E1,-3.493520916E-1,-5.833701611E0
1.697240124E0,1.056431198E1,9.810572863E-2,-5.273781300E0
1.701995229E0,1.021735287E1,3.948157430E-1,-4.412364960E0
1.706750281E0,1.026520920E1,1.107876897E0,-3.105883837E0
1.711505385E0,9.427721024E0,9.595218897E-1,-1.933400750E0
1.716260437E0,8.350951195E0,-7.728816867E-1,-1.890329838E0
1.721015541E0,6.704689026E0,-2.761317253E0,-3.885943890E0
1.725770593E0,4.455435753E0,-3.529413462E0,-5.647061348E0
1.730525697E0,3.297309637E0,-3.615555048E0,-6.216553211E0
1.735280749E0,3.017349243E0,-3.572484255E0,-5.745167255E0
1.740035801E0,4.608576298E0,-3.366701365E0,-4.941178799E0
1.744790906E0,5.979663849E0,-3.775874138E0,-4.345366001E0
1.749546010E0,6.764509678E0,-4.007977962E0,-3.785445452E0
1.754301062E0,7.956135273E0,-3.483949661E0,-3.141776085E0
1.759056114E0,8.303094864E0,-3.505485058E0,-2.744567633E0
1.763811218E0,8.300702095E0,-3.768695593E0,-2.648854733E0
1.768566322E0,8.350951195E0,-3.562912941E0,-2.835494757E0
1.773321374E0,8.087740898E0,-3.419343472E0,-3.290131092E0
1.778076479E0,8.128418922E0,-3.002992392E0,-3.792623997E0
1.782831531E0,7.960920811E0,-2.799602509E0,-4.283152580E0
1.787586583E0,7.886743546E0,-2.555534601E0,-4.687539577E0
1.792341687E0,8.264809608E0,-2.428714991E0,-4.809573650E0
1.797096739E0,7.817351341E0,-2.352144718E0,-4.522434711E0
1.801851843E0,7.326822758E0,-2.620140791E0,-3.976871252E0
1.806606895E0,7.336394310E0,-2.086541414E0,-3.534198999E0
1.811361999E0,7.245467186E0,-2.100898266E0,-3.213560820E0
1.816117051E0,7.080362320E0,-2.902493954E0,-2.943171740E0
1.820872156E0,7.384250641E0,-3.668197155E0,-3.024527788E0
1.825627208E0,7.420143127E0,-4.486542225E0,-3.397808075E0
1.830382312E0,7.896314621E0,-5.204389095E0,-3.955335855E0
1.835137364E0,8.774480820E0,-5.498706341E0,-4.587040901E0
1.839892468E0,9.272188187E0,-4.747360229E0,-5.405386448E0
1.844647520E0,9.698110580E0,-3.424129248E0,-6.058627129E0
1.849402624E0,1.011685371E1,-2.782852650E0,-6.680760860E0
1.854157676E0,1.054756260E1,-2.478964329E0,-6.999006271E0
1.858912781E0,1.079880905E1,-2.093719721E0,-6.994220734E0
1.863667833E0,9.241081238E0,-1.517049551E0,-6.927221775E0
1.868422937E0,9.068798065E0,-2.378465652E0,-6.482156754E0
1.873177989E0,8.908478737E0,-2.840280533E0,-5.912664890E0
1.877933093E0,8.394021988E0,-3.081955671E0,-5.185246468E0
1.882688145E0,7.683353424E0,-3.402593851E0,-4.453042984E0
1.887443249E0,7.116254330E0,-3.833301783E0,-3.814159393E0
1.892198301E0,6.850651264E0,-4.072584152E0,-3.184846878E0
1.896953406E0,6.759724140E0,-4.127619267E0,-2.799602509E0
1.901708458E0,6.412764549E0,-3.759124279E0,-3.081955671E0
1.906463562E0,6.687939167E0,-3.225524902E0,-4.218546391E0
1.911218614E0,7.405786037E0,-2.845066071E0,-5.213960648E0
1.915973718E0,7.901100159E0,-2.443071842E0,-5.546562672E0
1.920728770E0,8.535198212E0,-1.914258122E0,-5.271388054E0
1.925483874E0,8.925228119E0,-1.727617979E0,-4.955535889E0
1.930238926E0,8.496912956E0,-2.151147604E0,-4.532006264E0
1.934994031E0,7.791030407E0,-1.655833244E0,-5.034498692E0
1.939749083E0,8.154739380E0,-2.079362869E0,-5.613562107E0
1.944504187E0,8.142775536E0,-2.794816732E0,-5.343173027E0
1.949259239E0,8.640482903E0,-2.785245657E0,-4.680361271E0
1.954014291E0,7.640282631E0,-3.175275564E0,-4.182653904E0
1.958769395E0,7.726424217E0,-2.928814888E0,-3.766302824E0
1.963524447E0,6.996613503E0,-2.337787628E0,-3.560520172E0
1.968279551E0,6.881757736E0,-2.490928411E0,-3.845266104E0
1.973034604E0,8.733802795E0,-1.509871125E0,-3.996013880E0
1.977789708E0,9.200403214E0,-5.312066078E-1,-4.316651821E0
1.982544760E0,9.925428391E0,-9.595218897E-1,-4.424329281E0
1.987299864E0,1.120080280E1,-1.545763373E0,-4.723432064E0
1.992054916E0,1.105005455E1,-2.725425005E0,-4.926821709E0
1.996810020E0,1.119841003E1,-2.634497643E0,-5.082355499E0
2.001565072E0,1.145922756E1,-2.388036966E0,-4.572684288E0
2.006320176E0,1.184207916E1,-2.325823545E0,-4.048655987E0
2.011075229E0,1.220100307E1,-2.199003935E0,-4.953142643E0
2.015830333E0,1.083470058E1,-3.591626883E0,-4.950749874E0
2.020585385E0,8.331808090E0,-5.151747227E0,-4.524827480E0
2.025340489E0,7.869993687E0,-4.558327198E0,-4.335794449E0
2.030095541E0,7.027719975E0,-4.249652863E0,-4.206582069E0
2.034850645E0,7.482356548E0,-3.297309637E0,-4.527220249E0
2.039605697E0,7.642675400E0,-2.995813847E0,-5.101497650E0
2.044360801E0,7.800601959E0,-2.591426849E0,-5.704489231E0
2.049115854E0,7.496713161E0,-2.134397745E0,-6.096911907E0
2.053870906E0,7.152146816E0,-1.885544300E0,-6.451049805E0
2.058626010E0,6.506084919E0,-2.000399828E0,-6.786045074E0
2.063381062E0,5.883950710E0,-2.062613010E0,-6.955935478E0
2.068136166E0,5.668596745E0,-1.696511269E0,-6.903293133E0
2.072891218E0,4.807180882E0,-2.062613010E0,-6.458228111E0
2.077646322E0,5.051248550E0,-2.222932339E0,-6.197410583E0
2.082401374E0,5.816951752E0,-1.134197950E0,-6.503692150E0
2.087156479E0,6.032305717E0,-7.848458290E-1,-7.006184578E0
2.091911531E0,5.936593056E0,-1.016949654E0,-7.159325123E0
2.096666635E0,5.625525951E0,-1.162911773E0,-6.989434719E0
2.101421687E0,5.412564754E0,-2.081755638E0,-6.819544315E0
2.106176791E0,5.338387489E0,-2.955136061E0,-6.776473522E0
2.110931843E0,4.706682205E0,-3.828516245E0,-6.860222340E0
2.115686947E0,3.493520975E0,-4.479363918E0,-6.934400082E0
2.120441999E0,2.352144718E0,-4.843072891E0,-6.814758778E0
2.125197104E0,1.464407444E0,-5.493920803E0,-6.235695839E0
2.129952156E0,1.861616015E0,-6.120840549E0,-5.558526993E0
2.134707208E0,3.912265062E0,-5.402993679E0,-4.381258488E0
2.139462312E0,5.991627693E0,-3.969692707E0,-3.498306751E0
2.144217364E0,7.228717327E0,-2.737389088E0,-2.792423964E0
2.148972468E0,7.164111137E0,-2.009970903E0,-2.531606436E0
2.153727520E0,6.673582554E0,-1.916650891E0,-4.479363918E0
2.158482624E0,7.116254330E0,-2.333002090E0,-7.501499176E0
2.163237676E0,7.386643410E0,-3.706482172E0,-9.032905579E0
2.167992781E0,7.920242786E0,-4.421936035E0,-9.583254814E0
2.172747833E0,8.997013092E0,-3.943371773E0,-8.547162056E0
2.177502885E0,9.791430473E0,-2.806781054E0,-6.522834301E0
2.182257989E0,9.614361763E0,-1.488335729E0,-5.149354458E0
2.187013041E0,1.015753174E1,-1.287338614E0,-4.304687977E0
2.191768145E0,1.051645565E1,-1.543370605E0,-3.505485058E0
2.196523197E0,1.040159988E1,-1.861616015E0,-2.488535643E0
2.201278301E0,1.006899738E1,-2.378465652E0,-1.512263894E0
2.206033354E0,9.561718941E0,-2.658426046E0,-1.110269666E0
2.210788458E0,9.463613510E0,-2.813959360E0,-1.490728498E0
2.215543510E0,9.413364410E0,-2.656033039E0,-2.048256159E0
2.220298614E0,9.604789734E0,-2.691925526E0,-2.792423964E0
2.225053666E0,9.408578873E0,-2.780459881E0,-3.644268990E0
2.229808718E0,8.874979019E0,-1.907079697E0,-4.153940201E0
2.234563822E0,8.391629219E0,-1.725225091E0,-4.764110088E0
2.239318874E0,7.515855789E0,-1.316052437E0,-4.929214478E0
2.244073979E0,6.544369698E0,-1.820937991E0,-5.108676434E0
2.248829031E0,7.202396393E0,-1.481157184E0,-5.185246468E0
2.253584083E0,8.121239662E0,3.756731451E-1,-4.517649174E0
2.258339187E0,8.279166222E0,1.746760458E-1,-3.402593851E0
2.263094239E0,8.068597794E0,3.469592929E-1,-3.225524902E0
2.267849343E0,8.200202942E0,-6.604190469E-1,-2.347358942E0
2.272604395E0,8.623732567E0,-8.398807645E-1,-1.208375454E0
2.277359499E0,9.516255379E0,1.483550072E-1,-1.883151412E0
2.282114551E0,9.334401131E0,1.483550072E0,-3.235096216E0
2.286869656E0,8.717052460E0,1.122233868E0,-3.797409534E0
2.291624708E0,7.743174076E0,2.392822653E-1,-4.553541660E0
2.296379760E0,9.451649666E0,1.471585870E0,-4.405186653E0
2.301134864E0,9.217152596E0,2.134397745E0,-4.582255363E0
2.305889916E0,8.477770805E0,3.907479286E0,-4.840680122E0
2.310645020E0,8.597412109E0,4.948357105E0,-4.689932346E0
2.315400072E0,8.827122688E0,4.223331928E0,-4.177868366E0
2.320155176E0,9.707681656E0,4.158725739E0,-3.349951744E0
2.324910229E0,8.319844246E0,2.196611166E0,-3.060420275E0
2.329665281E0,5.611168861E0,1.696511269E0,-2.835494757E0
2.334420385E0,3.699303865E0,1.203589797E0,-2.452643156E0
2.339175437E0,2.574677229E0,1.983649969E0,-3.328416348E0
2.343930541E0,3.527020693E0,1.440479279E0,-3.708875179E0
2.348685593E0,4.268795490E0,-3.254238844E0,-2.797209740E0
2.353440697E0,4.716253281E0,-8.726624489E0,-5.690132141E0
2.358195749E0,7.111468792E0,-1.414875984E1,-4.486542225E0
2.362950854E0,8.226524353E0,-1.482114315E1,-6.630511761E0
2.367705906E0,8.700303078E0,-1.263888931E1,-8.484949112E0
2.372461010E0,8.073383331E0,-1.104766178E1,-8.714659691E0
2.377216062E0,6.422336102E0,-8.956335068E0,-7.702496052E0
2.381971114E0,4.577469826E0,-7.283751965E0,-6.216553211E0
2.386726218E0,5.455635548E0,-5.709274769E0,-4.709074974E0
2.391481270E0,5.292923450E0,-3.527020693E0,-4.594219685E0
2.396236374E0,5.005784988E0,-2.991028309E0,-4.723432064E0
2.400991426E0,3.378665686E0,-1.768295884E0,-4.850251675E0
2.405746531E0,4.481756687E0,-2.234896421E0,-4.823930264E0
2.410501583E0,3.864408493E0,-1.550549030E0,-4.962714195E0
2.415256635E0,4.603790760E0,-1.718046665E0,-5.228317261E0
2.420011739E0,5.051248550E0,-1.880758643E0,-5.761917114E0
2.424766791E0,5.819344521E0,-2.232503414E0,-6.020341873E0
2.429521895E0,6.915257454E0,-2.495713949E0,-6.671189308E0
2.434276947E0,8.757730484E0,-3.180061340E0,-7.963313580E0
2.439032051E0,7.972885132E0,-2.366501570E0,-8.195417404E0
2.443787104E0,7.183253765E0,-2.122433662E0,-7.819744587E0
2.448542208E0,6.463014126E0,-1.854437590E0,-7.721638680E0
2.453297260E0,4.479363918E0,-1.263410330E0,-7.877171993E0
2.458052312E0,3.543770313E0,-1.450050473E0,-7.848458290E0
2.462807416E0,1.462014675E0,-1.770688742E-1,-7.341179848E0
2.467562468E0,2.665604353E0,-1.483550072E-1,-7.101897717E0
2.472317572E0,4.965106964E0,-2.287538528E0,-6.800402164E0
2.477072624E0,8.645268440E0,-5.498706341E0,-6.967899323E0
2.481827729E0,1.126301575E1,-7.200003147E0,-6.831508636E0
2.486582781E0,1.227278709E1,-8.427521706E0,-6.218945980E0
2.491337833E0,1.256949711E1,-6.893722057E0,-4.898108006E0
2.496092937E0,1.449093437E1,-6.989434719E0,-3.620340586E0
2.500847989E0,1.423729515E1,-6.173482418E0,-3.235096216E0
2.505603093E0,1.295474148E1,-7.757531166E0,-5.099104881E0
2.510358145E0,1.151665497E1,-6.752545357E0,-6.106483459E0
2.515113249E0,7.551748276E0,-4.096512318E0,-7.070790768E0
2.519868301E0,6.759724140E0,-2.993421078E0,-7.034898758E0
2.524623354E0,3.608376503E0,-1.722832322E0,-7.499105930E0
2.529378458E0,-1.540977836E0,-3.780659735E-1,-7.860422611E0
2.534133510E0,-3.775874138E0,-4.139583111E-1,-8.635697365E0
2.538888614E0,-2.222932339E0,-2.507678032E0,-9.616754532E0
2.543643666E0,2.455035925E0,-5.551348686E0,-8.846264839E0
2.548398770E0,6.273981094E0,-6.013163090E0,-6.977470875E0
2.553153822E0,8.817551613E0,-5.257031441E0,-5.058426857E0
2.557908874E0,9.205188751E0,-5.067998409E0,-4.043870449E0
2.562663979E0,1.212443256E1,-6.955935478E0,-4.015156269E0
2.567419031E0,1.221775246E1,-7.054041386E0,-6.104090691E0
2.572174135E0,8.425128937E0,-7.061219692E0,-5.441278458E0
2.576929187E0,1.089452171E1,-5.778666496E0,-3.550948858E0
2.581684291E0,9.482755661E0,-4.895715237E0,-1.806581140E0
2.586439343E0,7.515855789E0,-4.945964336E0,-1.804188251E0
2.591194395E0,7.046862602E0,-5.309673309E0,-2.184647083E0
2.595949499E0,6.163911343E0,-5.273781300E0,-3.373879910E0
2.600704551E0,6.348158360E0,-5.673382282E0,-3.567698479E0
2.605459656E0,8.451449394E0,-6.441478729E0,-2.270788670E0
2.610214708E0,9.207581520E0,-6.061019897E0,-2.352144718E0
2.614969812E0,6.620940208E0,-5.309673309E0,-4.060619831E0
2.619724864E0,5.900700569E0,-5.304887772E0,-4.398007870E0
2.624479916E0,4.273581028E0,-3.933800459E0,-5.541777134E0
2.629235020E0,4.043870449E0,-3.436093330E0,-6.010770321E0
2.633990072E0,5.199603558E0,-3.034099102E0,-5.687739372E0
2.638745176E0,6.778866768E0,-3.019742250E0,-5.005784988E0
2.643500229E0,8.226524353E0,-3.129812002E0,-4.563112736E0
2.648255281E0,9.186046600E0,-3.242274761E0,-4.161118507E0
2.653010385E0,8.810373306E0,-3.225524902E0,-3.661018610E0
2.657765437E0,9.877572060E0,-3.012563705E0,-3.371487141E0
2.662520541E0,9.602396965E0,-3.182454109E0,-2.967100143E0
2.667275593E0,9.623932838E0,-3.259024382E0,-2.447857618E0
2.672030697E0,1.036092186E1,-3.031706333E0,-3.780659676E0
2.676785749E0,1.119601727E1,-3.479164124E0,-4.709074974E0
2.681540801E0,1.186840057E1,-4.543970108E0,-5.257031441E0
2.686295906E0,1.239482117E1,-5.434100151E0,-5.546562672E0
2.691050958E0,1.294995594E1,-5.637490273E0,-5.785845280E0
2.695806062E0,1.328255844E1,-7.097112179E0,-5.883950710E0
2.700561114E0,1.257667542E1,-8.415556908E0,-5.455635548E0
2.705316166E0,1.093041420E1,-9.339186668E0,-5.644668579E0
2.710071270E0,8.621339798E0,-9.607182503E0,-5.285745144E0
2.714826322E0,7.168896675E0,-1.006899738E1,-4.924428940E0
2.719581426E0,6.065805435E0,-1.121994495E1,-5.455635548E0
2.724336479E0,4.651647091E0,-1.113858986E1,-6.654439926E0
2.729091583E0,2.880958557E0,-1.150947666E1,-7.415357590E0
2.733846635E0,1.763510346E0,-1.174158096E1,-7.786244869E0
2.738601687E0,1.569691658E0,-1.088016415E1,-8.135597229E0
2.743356791E0,9.858429432E-1,-1.062413216E1,-8.202595711E0
2.748111843E0,1.653440475E0,-1.023410225E1,-7.879564762E0
2.752866947E0,3.680161238E0,-9.360722542E0,-8.372486115E0
2.757621999E0,5.469992638E0,-8.501698494E0,-8.315058708E0
2.762377051E0,5.938985825E0,-7.664210796E0,-7.817351341E0
2.767132156E0,6.503692150E0,-7.401000500E0,-7.305287361E0
2.771887208E0,6.922435760E0,-7.465606689E0,-6.891329288E0
2.776642312E0,7.121040344E0,-7.491927624E0,-6.357729912E0
2.781397364E0,6.802794933E0,-7.573283672E0,-5.673382282E0
2.786152416E0,6.190232277E0,-7.527820110E0,-4.922036171E0
2.790907520E0,5.948556900E0,-7.267002583E0,-4.747360229E0
2.795662572E0,5.867201328E0,-7.154539585E0,-4.465006828E0
2.800417676E0,5.412564754E0,-7.003791809E0,-4.244867325E0
2.805172729E0,4.890929699E0,-6.771687984E0,-3.957728624E0
2.809927833E0,4.421936035E0,-6.041877270E0,-3.895515203E0
2.814682885E0,4.314259052E0,-5.331208706E0,-4.235296249E0
2.819437937E0,4.240081787E0,-4.869394302E0,-4.855037212E0
2.824193041E0,4.113262177E0,-4.694717884E0,-5.302495003E0
2.828948093E0,4.144368649E0,-4.378865242E0,-5.510670662E0
2.833703197E0,4.424329281E0,-4.024727821E0,-5.106283665E0
2.838458249E0,4.520041943E0,-3.687339783E0,-4.529613495E0
2.843213301E0,4.515256405E0,-3.177668571E0,-4.106083870E0
2.847968406E0,4.637290478E0,-2.567498684E0,-3.783052683E0
2.852723458E0,4.670789719E0,-1.993221283E0,-3.751945972E0
2.857478562E0,4.589433670E0,-1.347159147E0,-3.675375462E0
2.862233614E0,4.567898273E0,-6.652047038E-1,-3.572484255E0
2.866988666E0,4.539184570E0,6.699903309E-2,-3.555734396E0
2.871743770E0,4.591826439E0,4.833501875E-1,-3.658625841E0
2.876498822E0,4.730610371E0,6.364908218E-1,-3.756731510E0
2.881253874E0,4.878965378E0,7.130611539E-1,-3.519842148E0
2.886008979E0,5.029713154E0,5.431707501E-1,-3.337987661E0
2.890764031E0,5.338387489E0,1.698904037E-1,-3.098705292E0
2.895519135E0,5.915057659E0,-4.115654826E-1,-3.072384357E0
2.900274187E0,6.774080753E0,-1.165304661E0,-3.842873096E0
2.905029239E0,7.759923935E0,-1.837687731E0,-5.027320385E0
2.909784343E0,8.508877754E0,-2.313859463E0,-6.168696880E0
2.914539395E0,9.468399048E0,-3.007778168E0,-7.625925541E0
2.919294499E0,1.027956581E1,-3.687339783E0,-9.028120041E0
2.924049551E0,9.700503349E0,-3.357130051E0,-9.430113792E0
2.928804604E0,8.865407944E0,-2.964707375E0,-9.040083885E0
2.933559708E0,8.295916557E0,-2.830709219E0,-7.791030407E0
2.938314760E0,8.109275818E0,-3.113062143E0,-5.991627693E0
2.943069864E0,8.231309891E0,-3.493520975E0,-4.295116425E0
2.947824916E0,8.281558990E0,-3.833301783E0,-3.158525944E0
2.952579968E0,8.458627701E0,-4.130012035E0,-2.689532757E0
2.957335072E0,8.623732567E0,-4.280759811E0,-2.639283419E0
2.962090124E0,8.796015739E0,-4.352544308E0,-2.900100946E0
2.966845229E0,8.762516975E0,-4.591826439E0,-3.792623997E0
2.971600281E0,8.824729919E0,-5.036891460E0,-5.419743061E0
2.976355333E0,8.956335068E0,-5.474778175E0,-7.259823799E0
2.981110437E0,8.851051331E0,-5.632704735E0,-7.475177765E0
2.985865489E0,8.609375954E0,-5.529813290E0,-6.843472958E0
2.990620541E0,8.499305725E0,-5.367101192E0,-6.247660160E0
2.995375645E0,8.413164139E0,-5.259424210E0,-5.747560024E0
3.000130697E0,8.422736168E0,-5.139782906E0,-5.386243820E0
3.004885801E0,8.736195564E0,-4.977071285E0,-5.130211830E0
3.009640854E0,8.973084450E0,-4.615755081E0,-5.247459888E0
3.014395906E0,8.930013657E0,-3.993621111E0,-5.288137913E0
3.019151010E0,8.803194046E0,-2.792423964E0,-5.127819061E0
3.023906062E0,8.769695282E0,-1.115055323E0,-5.379065514E0
3.028661114E0,8.408378601E0,2.679961324E-1,-5.213960648E0
3.033416218E0,7.891529083E0,1.543370605E0,-5.146961689E0
3.038171270E0,6.802794933E0,2.892922640E0,-5.288137913E0
3.042926374E0,5.898307800E0,4.170690060E0,-5.704489231E0
3.047681426E0,5.453242779E0,5.077569485E0,-5.977271080E0
3.052436531E0,5.436492920E0,5.577669621E0,-5.950950146E0
3.057191583E0,6.137589931E0,5.118247509E0,-5.697310925E0
3.061946635E0,7.094718933E0,3.960121393E0,-5.350351334E0
3.066701739E0,7.740781307E0,2.617748022E0,-5.209175110E0
3.071456791E0,7.738388538E0,1.619940877E0,-5.130211830E0
3.076211843E0,7.357929707E0,1.280160069E0,-4.931607246E0
3.080966947E0,7.013363361E0,9.427721500E-1,-4.606183529E0
3.085721999E0,7.068397999E0,6.340979934E-1,-4.388436794E0
3.090477051E0,6.984649181E0,6.149554253E-1,-4.400400639E0
3.095232156E0,7.135396957E0,7.441678643E-1,-4.264009953E0
3.099987208E0,6.702296257E0,1.028913736E0,-4.201796532E0
3.104742312E0,6.752545357E0,1.050449133E0,-4.031906128E0
3.109497364E0,6.786045074E0,1.110269666E0,-3.862015724E0
3.114252416E0,6.831508636E0,7.393822074E-1,-4.024727821E0
3.119007520E0,6.649653912E0,2.608176768E-1,-3.761517286E0
3.123762572E0,6.173482418E0,-2.057827413E-1,-3.814159393E0
3.128517624E0,4.754538536E0,3.349951655E-2,-3.584448338E0
3.133272729E0,4.321437836E0,-1.031306505E0,-3.383451223E0
3.138027781E0,4.426722050E0,-3.019742250E0,-4.412364960E0
3.142782885E0,4.709074974E0,-4.972285271E0,-5.175675392E0
3.147537937E0,4.237689018E0,-6.173482418E0,-6.159125328E0
3.152292989E0,4.132404804E0,-7.274180889E0,-6.699903488E0
3.157048093E0,4.077369690E0,-8.439485550E0,-6.616154671E0
3.161803145E0,2.696711063E0,-8.559126854E0,-6.240481377E0
3.166558197E0,1.150947690E0,-7.822137356E0,-6.242874146E0
3.171313301E0,4.986642361E0,-1.218903828E1,-4.711467743E0
3.176068354E0,5.565705299E0,-1.162672520E1,-2.952743053E0
3.180823458E0,6.242874146E0,-1.150229836E1,-2.639283419E0
3.185578510E0,3.180061340E0,-9.458827972E0,-4.098905087E0
3.190333562E0,4.967499733E0,-1.029870892E1,-3.586841106E0
3.195088666E0,6.238088608E0,-9.903892517E0,-2.500499725E0
3.199843718E0,7.030112743E0,-9.449256897E0,-2.505285263E0
3.204598770E0,7.367500782E0,-9.260223389E0,-2.739781857E0
3.209353874E0,8.523234367E0,-9.533005714E0,-2.455035925E0
3.214108926E0,9.803394318E0,-9.714859962E0,-2.210968018E0
3.218863979E0,9.332008362E0,-9.233902931E0,-2.644068956E0
3.223619083E0,4.673182487E0,-8.087740898E0,-4.783252239E0
3.228374135E0,5.558526993E0,-1.010967541E1,-5.690132141E0
3.233129187E0,5.757131100E0,-9.978070259E0,-4.390829563E0
3.237884291E0,5.515456200E0,-9.753145218E0,-4.405186653E0
3.242639343E0,5.903093338E0,-1.026042366E1,-4.749752998E0
3.247394447E0,4.816751957E0,-8.087740898E0,-3.515056372E0
3.252149499E0,7.228717327E0,-9.351150513E0,-5.592026711E0
3.256904551E0,9.121439934E0,-1.038963604E1,-5.266602516E0
3.261659656E0,1.103091240E1,-1.181575775E1,-4.694717884E0
3.266414708E0,1.194257736E1,-1.242592812E1,-4.017549038E0
3.271169760E0,1.054516983E1,-1.157169056E1,-4.333401680E0
3.275924864E0,9.420542717E0,-1.147837067E1,-4.168296814E0
3.280679916E0,8.039883614E0,-1.062891865E1,-4.694717884E0
3.285434968E0,6.927221775E0,-9.812965393E0,-4.436293125E0
3.290190072E0,6.642475605E0,-9.327222824E0,-4.419543266E0
3.294945124E0,6.345765591E0,-8.882157326E0,-4.304687977E0
3.299700176E0,6.946363926E0,-9.597611427E0,-4.285545349E0
3.304455281E0,5.682953835E0,-8.693124771E0,-4.139583111E0
3.309210333E0,6.003592014E0,-9.542576790E0,-3.914657831E0
3.313965385E0,5.565705299E0,-9.722038269E0,-3.785445452E0
3.318720489E0,6.307480335E0,-1.143051338E1,-3.445664644E0
3.323475541E0,5.733202934E0,-1.168175983E1,-3.359523058E0
3.328230593E0,5.577669621E0,-1.214118195E1,-3.479164124E0
3.332985697E0,5.312066078E0,-1.217468166E1,-3.826123476E0
3.337740749E0,5.113461971E0,-1.195693493E1,-4.192225456E0
3.342495801E0,5.000999451E0,-1.167697430E1,-4.577469826E0
3.347250906E0,4.737788677E0,-1.124626637E1,-5.005784988E0
3.352005958E0,4.311866283E0,-1.087059307E1,-5.381458282E0
3.356761010E0,3.845266104E0,-1.041595650E1,-5.541777134E0
3.361516114E0,3.170490026E0,-9.702896118E0,-5.453242779E0
3.366271166E0,2.294716835E0,-8.542376518E0,-5.211567879E0
3.371026218E0,1.251446247E0,-6.903293133E0,-4.871787071E0
3.375781322E0,4.737788737E-1,-5.228317261E0,-4.512863636E0
3.380536374E0,6.939185411E-2,-3.692125320E0,-4.005585194E0
3.385291479E0,2.560320199E-1,-2.340180635E0,-3.337987661E0
3.390046531E0,8.159525394E-1,-1.194018483E0,-2.780459881E0
3.394801583E0,1.560120344E0,-5.096712112E-1,-2.440679073E0
3.399556635E0,2.452643156E0,-7.417750359E-2,-1.978864312E0
3.404311739E0,3.364308596E0,2.871387303E-1,-1.533799291E0
3.409066791E0,4.606183529E0,5.958128572E-1,-1.186840057E0
3.413821843E0,6.202196121E0,8.470591903E-1,-1.411765337E0
3.418576947E0,7.125825882E0,1.076770186E0,-1.756331801E0
3.423331999E0,7.733603001E0,1.371087432E0,-2.038684845E0
3.428087051E0,8.312665939E0,1.476371527E0,-2.421536446E0
3.432842156E0,9.121439934E0,1.402194023E0,-2.991028309E0
3.437597208E0,9.841679573E0,1.256231904E0,-3.694518089E0
3.442352260E0,1.057149029E1,1.069591761E0,-4.304687977E0
3.447107364E0,1.163629627E1,6.412764788E-1,-4.776073933E0
3.451862416E0,1.257188988E1,-3.828516230E-2,-5.058426857E0
3.456617468E0,1.336630726E1,-1.031306505E0,-5.223531723E0
3.461372572E0,1.397886944E1,-2.325823545E0,-5.079962254E0
3.466127624E0,1.382333660E1,-4.034298897E0,-4.768895626E0
3.470882676E0,1.248814106E1,-5.577669621E0,-4.646861553E0
3.475637781E0,1.082512951E1,-6.513263226E0,-4.479363918E0
3.480392833E0,9.181260109E0,-7.051648140E0,-4.139583111E0
3.485147885E0,7.800601959E0,-7.262216568E0,-3.797409534E0
3.489902937E0,6.831508636E0,-7.499105930E0,-3.531806231E0
3.494658041E0,6.233303070E0,-7.702496052E0,-3.373879910E0
3.499413093E0,5.852844238E0,-7.884350777E0,-3.256631613E0
3.504168145E0,5.702096462E0,-8.056633949E0,-3.206382275E0
3.508923249E0,5.608776093E0,-8.152346611E0,-3.136990547E0
3.513678301E0,5.608776093E0,-8.178668022E0,-3.072384357E0
3.518433354E0,5.659025669E0,-8.135597229E0,-3.043670416E0
3.523188458E0,5.678168297E0,-8.003992081E0,-3.096312523E0
3.527943510E0,5.759523869E0,-7.860422611E0,-3.256631613E0
3.532698562E0,5.783452511E0,-7.683353424E0,-3.495913982E0
3.537453666E0,5.840879917E0,-7.525427341E0,-3.730410576E0
3.542208718E0,5.867201328E0,-7.336394310E0,-3.938585997E0
3.546963770E0,5.965306759E0,-7.130611420E0,-4.036691666E0
3.551718874E0,5.960521221E0,-6.908079147E0,-4.077369690E0
3.556473926E0,5.982056618E0,-6.690331936E0,-4.074976921E0
3.561228979E0,5.991627693E0,-6.498906136E0,-4.024727821E0
3.565984031E0,6.159125328E0,-6.388836384E0,-3.878765583E0
3.570739135E0,6.192625046E0,-6.376872540E0,-3.771088600E0
3.575494187E0,6.137589931E0,-6.441478729E0,-3.637090445E0
3.580249239E0,6.087340832E0,-6.431907177E0,-3.534198999E0
3.585004343E0,5.919843197E0,-6.338587284E0,-3.594019651E0
3.589759395E0,5.850451469E0,-6.250052929E0,-3.591626883E0
3.594514447E0,5.867201328E0,-6.171089649E0,-3.481556892E0
3.599269551E0,5.874379635E0,-6.171089649E0,-3.292523861E0
3.604024604E0,5.970092297E0,-6.173482418E0,-3.160918713E0
3.608779656E0,6.166304111E0,-5.977271080E0,-3.146561861E0
3.613534708E0,6.312266350E0,-6.082555294E0,-3.192025423E0
3.618289812E0,6.285944939E0,-6.056233883E0,-3.177668571E0
3.623044864E0,6.245266914E0,-5.888736725E0,-3.132204771E0
3.627799916E0,6.259624004E0,-5.761917114E0,-3.072384357E0
3.632555020E0,6.317051888E0,-5.675775528E0,-3.050848961E0
3.637310072E0,6.338587284E0,-5.491528034E0,-3.084348440E0
3.642065124E0,6.556334019E0,-5.453242779E0,-3.215953588E0
3.646820229E0,6.573083878E0,-5.357530117E0,-3.270988464E0
3.651575281E0,6.673582554E0,-5.446064472E0,-3.273381472E0
3.656330333E0,6.879364967E0,-5.491528034E0,-3.244667530E0
3.661085385E0,7.051648140E0,-5.271388054E0,-3.127419233E0
3.665840489E0,7.022934437E0,-5.666203976E0,-2.926422119E0
3.670595541E0,7.326822758E0,-5.797809124E0,-2.696711063E0
3.675350593E0,7.305287361E0,-5.958128452E0,-2.725425005E0
3.680105697E0,7.412964344E0,-6.051448345E0,-2.904886723E0
3.684860749E0,7.293323517E0,-6.099305153E0,-3.177668571E0
3.689615801E0,7.180860519E0,-6.049055576E0,-3.515056372E0
3.694370854E0,6.994220734E0,-5.953342915E0,-3.787838221E0
3.699125958E0,6.872186661E0,-5.848058701E0,-3.881158352E0
3.703881010E0,6.872186661E0,-5.893522263E0,-3.823730469E0
3.708636062E0,6.994220734E0,-5.974878311E0,-3.694518089E0
3.713391166E0,7.164111137E0,-6.075376511E0,-3.512663603E0
3.718146218E0,7.329215527E0,-6.118447304E0,-3.402593851E0
3.722901270E0,7.441678524E0,-6.139982700E0,-3.359523058E0
3.727656322E0,7.506284714E0,-6.082555294E0,-3.349951744E0
3.732411426E0,7.458428383E0,-5.974878311E0,-3.333201885E0
3.737166479E0,7.444071293E0,-5.857629776E0,-3.326023579E0
3.741921531E0,7.460821152E0,-5.831308842E0,-3.347558975E0
3.746676635E0,7.472784996E0,-5.836094379E0,-3.369094372E0
3.751431687E0,7.439285755E0,-5.871986866E0,-3.397808075E0
3.756186739E0,7.458428383E0,-5.950950146E0,-3.428914785E0
3.760941791E0,7.451249599E0,-6.008377552E0,-3.524627686E0
3.765696895E0,7.410571575E0,-6.116054535E0,-3.615555048E0
3.770451947E0,7.403393269E0,-6.216553211E0,-3.701696634E0
3.775206999E0,7.389036179E0,-6.297909260E0,-3.802195072E0
3.779962051E0,7.288537979E0,-6.364908218E0,-3.873979807E0
3.784717156E0,7.197610378E0,-6.396014690E0,-3.917050600E0
3.789472208E0,7.142575741E0,-6.427121639E0,-3.931407690E0
3.794227260E0,7.049255371E0,-6.448657036E0,-3.885943890E0
3.798982312E0,6.989434719E0,-6.465406895E0,-3.833301783E0
3.803737416E0,6.888936520E0,-6.453442574E0,-3.802195072E0
3.808492468E0,6.795616150E0,-6.448657036E0,-3.773481369E0
3.813247520E0,6.733402729E0,-6.398407936E0,-3.749552965E0
3.818002624E0,6.628118515E0,-6.326622963E0,-3.730410576E0
3.822757676E0,6.539584160E0,-6.218945980E0,-3.706482172E0
3.827512729E0,6.465406895E0,-6.142375946E0,-3.672982693E0
3.832267781E0,6.403193474E0,-6.089733601E0,-3.665804386E0
3.837022885E0,6.396014690E0,-5.998806477E0,-3.653840065E0
3.841777937E0,6.343372822E0,-5.950950146E0,-3.653840065E0
3.846532989E0,6.276373863E0,-5.915057659E0,-3.675375462E0
3.851288041E0,6.245266914E0,-5.893522263E0,-3.720839262E0
3.856043145E0,6.204588890E0,-5.898307800E0,-3.754338741E0
3.860798197E0,6.171089649E0,-5.900700569E0,-3.749552965E0
3.865553249E0,6.183053493E0,-5.922235966E0,-3.720839262E0
3.870308301E0,6.144768715E0,-5.917450428E0,-3.677768469E0
3.875063406E0,6.161518097E0,-5.941378593E0,-3.625126362E0
3.879818458E0,6.178267956E0,-5.972485542E0,-3.550948858E0
3.884573510E0,6.185446739E0,-5.948556900E0,-3.550948858E0
3.889328614E0,6.206982136E0,-5.946164131E0,-3.546163082E0
3.894083666E0,6.264409542E0,-5.929414749E0,-3.538984776E0
3.898838718E0,6.331408501E0,-5.888736725E0,-3.491128206E0
3.903593770E0,6.396014690E0,-5.881557941E0,-3.469592810E0
3.908348822E0,6.458228111E0,-5.826523304E0,-3.443271875E0
3.913103926E0,6.520441532E0,-5.771488190E0,-3.424129248E0
3.917858979E0,6.580262184E0,-5.728417397E0,-3.419343472E0
3.922614031E0,6.654439926E0,-5.649454117E0,-3.457628727E0
3.927369135E0,6.659225464E0,-5.582455158E0,-3.450450182E0
3.932124187E0,6.714260101E0,-5.565705299E0,-3.404986620E0
3.936879239E0,6.719046116E0,-5.525027275E0,-3.345165968E0
3.941634291E0,6.709474564E0,-5.513063431E0,-3.292523861E0
3.946389343E0,6.714260101E0,-5.491528034E0,-3.223132133E0
3.951144447E0,6.709474564E0,-5.486742496E0,-3.182454109E0
3.955899499E0,6.726224422E0,-5.474778175E0,-3.156133175E0
3.960654551E0,6.697510719E0,-5.474778175E0,-3.151347399E0
3.965409604E0,6.616154671E0,-5.491528034E0,-3.144168854E0
3.970164708E0,6.580262184E0,-5.496313572E0,-3.134597778E0
3.974919760E0,6.541976929E0,-5.532206059E0,-3.122633457E0
3.979674812E0,6.513263226E0,-5.556134224E0,-3.122633457E0
3.984429864E0,6.541976929E0,-5.601597786E0,-3.120240688E0
3.989184968E0,6.537191391E0,-5.642275810E0,-3.148954630E0
3.993940020E0,6.549155712E0,-5.663811207E0,-3.153740168E0
3.998695072E0,6.625725746E0,-5.716453075E0,-3.132204771E0
4.003450124E0,6.769295216E0,-5.749952793E0,-3.036491871E0
4.008205176E0,6.929614544E0,-5.807380676E0,-2.981456995E0
4.012960281E0,7.054041386E0,-5.864808083E0,-2.998206854E0
4.017715333E0,7.116254330E0,-5.941378593E0,-3.091526747E0
4.022470385E0,7.142575741E0,-5.948556900E0,-3.168097258E0
4.027225437E0,7.137789726E0,-5.970092297E0,-3.201596737E0
4.031980541E0,7.166503906E0,-5.986842155E0,-3.208775282E0
4.036735593E0,7.278966427E0,-6.061019897E0,-3.187239647E0
4.041490645E0,7.276573658E0,-6.099305153E0,-3.175275564E0
4.046245697E0,7.173682213E0,-6.108876228E0,-3.172882795E0
4.051000801E0,7.080362320E0,-6.125626087E0,-3.120240688E0
4.055755854E0,6.979863644E0,-6.082555294E0,-3.034099102E0
4.060510906E0,6.872186661E0,-6.051448345E0,-2.914458036E0
4.065265958E0,6.728617191E0,-5.982056618E0,-2.849851847E0
4.070021010E0,6.599404812E0,-5.888736725E0,-2.828316450E0
4.074776114E0,6.451049805E0,-5.852844238E0,-2.809173822E0
4.079531166E0,6.302694798E0,-5.819344521E0,-2.818745136E0
4.084286218E0,6.187839508E0,-5.821737289E0,-2.818745136E0
4.089041270E0,6.032305717E0,-5.826523304E0,-2.828316450E0
4.093796374E0,5.864808083E0,-5.862415314E0,-2.849851847E0
4.098551426E0,5.711667538E0,-5.946164131E0,-2.857030153E0
4.103306479E0,5.644668579E0,-6.080162525E0,-2.818745136E0
4.108061531E0,5.592026711E0,-6.206982136E0,-2.756531715E0
4.112816583E0,5.541777134E0,-6.336194515E0,-2.672782898E0
4.117571687E0,5.544169903E0,-6.498906136E0,-2.565105915E0
4.122326739E0,5.527420521E0,-6.673582554E0,-2.467000246E0
4.127081791E0,5.556134224E0,-6.836294174E0,-2.409572363E0
4.131836843E0,5.558526993E0,-6.939185619E0,-2.447857618E0
4.136591895E0,5.568098068E0,-7.006184578E0,-2.450250387E0
4.141346999E0,5.594419479E0,-7.116254330E0,-2.385644197E0
4.146102051E0,5.828916073E0,-7.491927624E0,-2.227717876E0
4.150857104E0,5.972485542E0,-7.661818027E0,-2.242074728E0
4.155612156E0,5.936593056E0,-7.800601959E0,-2.301895380E0
4.160367208E0,5.910272121E0,-7.688138962E0,-2.433500528E0
4.165122312E0,5.809773445E0,-8.001599312E0,-2.373680115E0
4.169877364E0,5.960521221E0,-8.128418922E0,-2.249253273E0
4.174632416E0,6.041877270E0,-8.197810173E0,-2.153540373E0
4.179387468E0,6.049055576E0,-8.216953278E0,-2.098505497E0
4.184142572E0,6.173482418E0,-8.207381248E0,-2.100898266E0
4.188897624E0,6.317051888E0,-8.190631866E0,-2.153540373E0
4.193652676E0,6.501298904E0,-8.173882484E0,-2.210968018E0
4.198407729E0,6.690331936E0,-8.137989998E0,-2.280359983E0
4.203162781E0,6.908079147E0,-8.070990562E0,-2.333002090E0
4.207917885E0,7.030112743E0,-8.011170387E0,-2.316252232E0
4.212672937E0,7.049255371E0,-7.944170952E0,-2.301895380E0
4.217427989E0,7.032505512E0,-7.850851059E0,-2.335394859E0
4.222183041E0,7.027719975E0,-7.781459332E0,-2.433500528E0
4.226938093E0,6.996613503E0,-7.709674358E0,-2.505285263E0
4.231693197E0,6.903293133E0,-7.683353424E0,-2.603390932E0
4.236448249E0,6.766902447E0,-7.578069210E0,-2.701496840E0
4.241203301E0,6.635297298E0,-7.278966427E0,-2.770888567E0
4.245958354E0,6.754938126E0,-7.453642368E0,-2.782852650E0
4.250713406E0,6.853044033E0,-7.408178806E0,-2.718246460E0
4.255468458E0,6.865008354E0,-7.348358154E0,-2.778067112E0
4.260223562E0,6.855436802E0,-7.233502865E0,-2.902493954E0
4.264978614E0,6.853044033E0,-7.142575741E0,-3.022135019E0
4.269733666E0,6.881757736E0,-7.037291527E0,-3.019742250E0
4.274488718E0,6.948757172E0,-6.903293133E0,-2.878565550E0
4.279243822E0,6.958328247E0,-6.766902447E0,-2.651247501E0
4.283998874E0,6.996613503E0,-6.675975323E0,-2.471785784E0
4.288753926E0,6.946363926E0,-6.568298340E0,-2.428714991E0
4.293508979E0,6.814758778E0,-6.484549522E0,-2.445464849E0
4.298264031E0,6.719046116E0,-6.439085960E0,-2.421536446E0
4.303019083E0,6.604190350E0,-6.400800705E0,-2.445464849E0
4.307774187E0,6.558726788E0,-6.419943333E0,-2.392822742E0
4.312529239E0,6.489335060E0,-6.494120598E0,-2.368894339E0
4.317284291E0,6.379265308E0,-6.515655994E0,-2.251646042E0
4.322039343E0,6.283552170E0,-6.515655994E0,-2.218146563E0
4.326794395E0,6.233303070E0,-6.443871498E0,-2.139183521E0
4.331549447E0,6.228517532E0,-6.740581512E0,-1.890329838E0
4.336304551E0,6.374479294E0,-6.807580471E0,-1.691725612E0
4.341059604E0,6.551548481E0,-6.903293133E0,-1.593619823E0
4.345814656E0,6.446264267E0,-6.872186661E0,-1.639083505E0
4.350569708E0,6.379265308E0,-6.948757172E0,-1.574477315E0
4.355324760E0,6.434299946E0,-7.092326164E0,-1.457229018E0
4.360079812E0,6.467799664E0,-7.214360237E0,-1.462014675E0
4.364834916E0,6.659225464E0,-7.271788120E0,-1.509871125E0
4.369589968E0,6.446264267E0,-7.293323517E0,-1.483550072E0
4.374345020E0,6.518048763E0,-7.228717327E0,-1.545763373E0
4.379100072E0,6.396014690E0,-7.381857872E0,-1.588834286E0
4.383855124E0,6.412764549E0,-7.558926582E0,-1.682154298E0
4.388610176E0,6.455835342E0,-7.671389580E0,-1.775474429E0
4.393365281E0,6.508477688E0,-7.750352383E0,-1.899901152E0
4.398120333E0,6.513263226E0,-7.781459332E0,-1.957328916E0
4.402875385E0,6.668796539E0,-7.728816986E0,-2.093719721E0
4.407630437E0,6.386443615E0,-7.637889862E0,-2.050648928E0
4.412385489E0,6.360122681E0,-7.575676441E0,-2.007578135E0
4.417140593E0,6.357729912E0,-7.534998417E0,-1.964507341E0
4.421895645E0,6.417550564E0,-7.420143127E0,-1.923829436E0
4.426650697E0,6.448657036E0,-7.314858913E0,-1.871187329E0
4.431405749E0,6.460621357E0,-7.192824841E0,-1.794616938E0
4.436160801E0,6.417550564E0,-7.121040344E0,-1.749153376E0
4.440915854E0,6.352943897E0,-7.022934437E0,-1.751546144E0
4.445670906E0,6.288337708E0,-6.979863644E0,-1.797009826E0
4.450426010E0,6.199803352E0,-6.965506554E0,-1.775474429E0
4.455181062E0,6.384050846E0,-6.977470875E0,-1.758724689E0
4.459936114E0,6.187839508E0,-6.977470875E0,-1.493121386E0
4.464691166E0,6.233303070E0,-7.006184578E0,-1.311266780E0
4.469446218E0,6.199803352E0,-7.073183537E0,-1.229910851E0
4.474201270E0,6.163911343E0,-7.111468792E0,-1.249053478E0
4.478956374E0,6.149554253E0,-7.185646534E0,-1.292124271E0
4.483711426E0,6.123233318E0,-7.221538544E0,-1.296909928E0
4.488466479E0,6.139982700E0,-7.235895634E0,-1.167697430E0
4.493221531E0,6.175875187E0,-7.219145775E0,-9.403793216E-1
4.497976583E0,6.230910301E0,-7.214360237E0,-7.465606928E-1
4.502731635E0,6.312266350E0,-7.159325123E0,-6.125625968E-1
4.507486687E0,6.364908218E0,-7.085147858E0,-5.766702294E-1
4.512241791E0,6.520441532E0,-7.001399040E0,-6.053841114E-1
4.516996843E0,6.683153629E0,-6.924828529E0,-6.508477330E-1
4.521751895E0,6.941578388E0,-6.833901405E0,-6.628118753E-1
4.526506947E0,7.166503906E0,-6.731009960E0,-5.575276613E-1
4.531261999E0,7.367500782E0,-6.604190350E0,-4.283152521E-1
4.536017051E0,7.477570534E0,-6.489335060E0,-4.450650215E-1
4.540772104E0,7.685746193E0,-6.352943897E0,-5.479564071E-1
4.545527208E0,7.692924976E0,-6.206982136E0,-7.322037220E-1
4.550282260E0,7.664210796E0,-6.106483459E0,-1.004985452E0
4.555037312E0,7.707281590E0,-6.075376511E0,-1.256231904E0
4.559792364E0,7.714460373E0,-6.151947021E0,-1.445264935E0
4.564547416E0,7.838887215E0,-6.312266350E0,-1.641476393E0
4.569302468E0,7.946564198E0,-6.597012043E0,-1.852044702E0
4.574057520E0,8.030312538E0,-6.912864685E0,-2.060220242E0
4.578812624E0,8.173882484E0,-7.374679565E0,-2.167897224E0
4.583567676E0,8.202595711E0,-7.724031448E0,-2.249253273E0
4.588322729E0,8.140382767E0,-8.037490845E0,-2.201396942E0
4.593077781E0,7.941778183E0,-7.922635555E0,-2.055434704E0
4.597832833E0,7.769495010E0,-8.274380684E0,-1.868794441E0
4.602587885E0,7.798209190E0,-8.571090698E0,-1.459621787E0
4.607342937E0,7.692924976E0,-8.695517540E0,-1.462014675E0
4.612097989E0,7.207181931E0,-8.705088615E0,-1.928615093E0
4.616853093E0,6.800402164E0,-8.597412109E0,-2.498106956E0
4.621608145E0,6.053841114E0,-8.528019905E0,-2.773281336E0
4.626363197E0,5.723631859E0,-8.391629219E0,-2.873780012E0
4.631118249E0,5.369493961E0,-8.173882484E0,-2.821137905E0
4.635873301E0,5.089533806E0,-7.936992645E0,-2.706282377E0
4.640628354E0,4.941178799E0,-7.704888821E0,-2.471785784E0
4.645383406E0,4.867001057E0,-7.496713161E0,-2.225325108E0
4.650138458E0,4.797609329E0,-7.281359196E0,-2.045863390E0
4.654893562E0,4.728217602E0,-7.109076023E0,-1.957328916E0
4.659648614E0,4.689932346E0,-6.979863644E0,-1.986042738E0
4.664403666E0,4.618147850E0,-6.908079147E0,-2.000399828E0
4.669158718E0,4.931607246E0,-6.783652306E0,-2.043470621E0
4.673913770E0,4.622933388E0,-6.766902447E0,-1.926222205E0
4.678668822E0,4.668396950E0,-6.709474564E0,-1.820937991E0
4.683423874E0,4.658825874E0,-6.683153629E0,-1.746760488E0
4.688178926E0,5.005784988E0,-6.654439926E0,-1.923829436E0
4.692934031E0,4.845465660E0,-6.726224422E0,-2.100898266E0
4.697689083E0,5.032105923E0,-6.754938126E0,-2.222932339E0
4.702444135E0,5.283352375E0,-6.821937561E0,-2.213361025E0
4.707199187E0,5.553741455E0,-6.903293133E0,-2.129612207E0
4.711954239E0,5.850451469E0,-7.001399040E0,-2.033899307E0
4.716709291E0,6.056233883E0,-7.077969551E0,-2.038684845E0
4.721464343E0,6.192625046E0,-7.154539585E0,-2.146361828E0
4.726219395E0,6.285944939E0,-7.271788120E0,-2.306680918E0
4.730974447E0,6.391229153E0,-7.384250641E0,-2.431107759E0
4.735729499E0,6.484549522E0,-7.520641804E0,-2.478964329E0
4.740484604E0,6.771687984E0,-7.592426300E0,-2.541177750E0
4.745239656E0,6.608976364E0,-7.714460373E0,-2.557927370E0
4.749994708E0,6.726224422E0,-7.838887215E0,-2.512463808E0
4.754749760E0,6.781259537E0,-7.925028801E0,-2.467000246E0
4.759504812E0,6.853044033E0,-8.035098076E0,-2.440679073E0
4.764259864E0,7.032505512E0,-8.128418922E0,-2.388036966E0
4.769014916E0,7.183253765E0,-8.195417404E0,-2.323430777E0
4.773769968E0,7.046862602E0,-8.228917122E0,-2.053041935E0
4.778525020E0,7.144968510E0,-7.965706348E0,-1.722832322E0
4.783280072E0,6.802794933E0,-8.188239098E0,-1.320838094E0
4.788035176E0,6.608976364E0,-8.286344528E0,-1.112662554E0
4.792790229E0,6.407979012E0,-8.317451477E0,-1.115055323E0
4.797545281E0,6.391229153E0,-8.374878883E0,-1.366301775E0
4.802300333E0,5.984449387E0,-8.449056625E0,-1.538584948E0
4.807055385E0,5.821737289E0,-8.487341881E0,-1.639083505E0
4.811810437E0,6.041877270E0,-8.307880402E0,-1.801795483E0
4.816565489E0,5.685346603E0,-8.597412109E0,-1.842473388E0
4.821320541E0,5.711667538E0,-8.791230202E0,-1.828116536E0
4.826075593E0,5.797809124E0,-8.906085968E0,-1.844866276E0
4.830830645E0,5.891129494E0,-9.023334503E0,-1.952543259E0
4.835585697E0,6.197410583E0,-9.040083885E0,-2.029113531E0
4.840340749E0,5.943771362E0,-9.071190834E0,-1.895115495E0
4.845095854E0,5.883950710E0,-9.052047729E0,-1.684547186E0
4.849850906E0,5.761917114E0,-9.102297783E0,-1.459621787E0
4.854605958E0,5.548955917E0,-9.068798065E0,-1.378265858E0
4.859361010E0,5.682953835E0,-8.999405861E0,-1.416550994E0
4.864116062E0,5.225924492E0,-8.956335068E0,-1.385444283E0
4.868871114E0,4.929214478E0,-8.906085968E0,-1.421336651E0
4.873626166E0,4.831109047E0,-8.858229637E0,-1.392622828E0
4.878381218E0,4.601397991E0,-8.843872070E0,-1.268195987E0
4.883136270E0,4.438685894E0,-8.841479301E0,-1.138983607E0
4.887891322E0,4.278367043E0,-8.831908226E0,-1.048056364E0
4.892646374E0,4.036691666E0,-8.855836868E0,-9.619147182E-1
4.897401426E0,3.878765583E0,-8.839086533E0,-9.451649189E-1
4.902156531E0,3.687339783E0,-8.920442581E0,-9.571290612E-1
4.906911583E0,3.594019651E0,-8.989834785E0,-1.079162955E0
4.911666635E0,3.917050600E0,-8.987442017E0,-1.292124271E0
4.916421687E0,3.634697676E0,-9.119047165E0,-1.416550994E0
4.921176739E0,3.675375462E0,-9.138189316E0,-1.562513232E0
4.925931791E0,3.857230186E0,-9.195617676E0,-1.722832322E0
4.930686843E0,4.235296249E0,-9.288937569E0,-1.861616015E0
4.935441895E0,4.500899315E0,-9.449256897E0,-1.854437590E0
4.940196947E0,4.819144726E0,-9.542576790E0,-1.808973908E0
4.944951999E0,5.091926575E0,-9.564111710E0,-1.713261008E0
4.949707051E0,5.271388054E0,-9.554540634E0,-1.672582984E0
4.954462104E0,5.517848969E0,-9.482755661E0,-1.574477315E0
4.959217156E0,5.728417397E0,-9.375079155E0,-1.514656782E0
4.963972208E0,5.836094379E0,-9.245866776E0,-1.524227977E0
4.968727312E0,5.946164131E0,-9.111868858E0,-1.555334687E0
4.973482364E0,6.039484501E0,-8.956335068E0,-1.639083505E0
4.978237416E0,6.104090691E0,-8.812766075E0,-1.658226132E0
4.982992468E0,6.295516491E0,-8.628518105E0,-1.624726534E0
4.987747520E0,6.388836384E0,-8.508877754E0,-1.476371527E0
4.992502572E0,6.312266350E0,-8.413164139E0,-1.174875975E0
4.997257624E0,6.312266350E0,-8.281558990E0,-8.422735929E-1
5.002012676E0,6.230910301E0,-8.082955360E0,-5.335994363E-1
5.006767729E0,6.053841114E0,-7.860422611E0,-3.302095234E-1
5.011522781E0,5.781059742E0,-7.609176159E0,-2.201396823E-1
5.016277833E0,5.477170944E0,-7.338787079E0,-2.009970993E-1
5.021032885E0,5.180460930E0,-7.073183537E0,-2.584248483E-1
5.025787937E0,4.893322468E0,-6.819544315E0,-3.254238665E-1
5.030542989E0,4.615755081E0,-6.585047722E0,-3.326023519E-1
5.035298041E0,4.407579422E0,-6.352943897E0,-3.541377485E-1
5.040053093E0,4.374079704E0,-6.094519138E0,-4.857429862E-1
5.044808145E0,4.228117466E0,-6.017949104E0,-5.455635786E-1
5.049563197E0,4.151547432E0,-5.972485542E0,-5.623133183E-1
5.054318249E0,4.170690060E0,-5.984449387E0,-5.862415433E-1
5.059073354E0,4.266402721E0,-6.029912949E0,-7.441678643E-1
5.063828406E0,4.429114819E0,-6.159125328E0,-9.020941257E-1
5.068583458E0,4.728217602E0,-6.295516491E0,-1.057627559E0
5.073338510E0,4.996213913E0,-6.506084919E0,-1.182054400E0
5.078093562E0,5.194818020E0,-6.738188744E0,-1.239482164E0
5.082848614E0,5.381458282E0,-7.027719975E0,-1.251446247E0
5.087603666E0,5.601597786E0,-7.278966427E0,-1.282552958E0
5.092358718E0,5.838487148E0,-7.539783955E0,-1.308874011E0
5.097113770E0,6.104090691E0,-7.776673794E0,-1.342373490E0
5.101868822E0,6.364908218E0,-8.042277336E0,-1.366301775E0
5.106623874E0,6.604190350E0,-8.286344528E0,-1.325623751E0
5.111378926E0,6.788437843E0,-8.480163574E0,-1.272981644E0
5.116133979E0,6.884150982E0,-8.606983185E0,-1.208375454E0
5.120889031E0,6.948757172E0,-8.731410027E0,-1.122233868E0
5.125644083E0,6.955935478E0,-8.805587769E0,-1.069591761E0
5.130399135E0,6.934400082E0,-8.841479301E0,-1.060020447E0
5.135154187E0,6.912864685E0,-8.827122688E0,-1.021735311E0
5.139909239E0,6.843472958E0,-8.810373306E0,-1.009771109E0
5.144664291E0,6.824330330E0,-8.764909744E0,-1.071984529E0
5.149419343E0,6.661618233E0,-8.729017258E0,-1.112662554E0
5.154174395E0,6.807580471E0,-8.126026154E0,-1.215553880E0
5.158929447E0,6.398407936E0,-8.401200294E0,-1.323230863E0
5.163684499E0,6.132804394E0,-8.666803360E0,-1.409372568E0
5.168439551E0,6.056233883E0,-8.623732567E0,-1.433300734E0
5.173194604E0,5.948556900E0,-8.650053978E0,-1.459621787E0
5.177949656E0,5.893522263E0,-8.683553696E0,-1.548156261E0
5.182704708E0,5.910272121E0,-8.669196129E0,-1.610369682E0
5.187459760E0,5.934200287E0,-8.664410591E0,-1.730010748E0
5.192214812E0,6.025127411E0,-8.633303642E0,-1.832902193E0
5.196969916E0,6.092126369E0,-8.580661774E0,-1.904686809E0
5.201724916E0,6.094519138E0,-8.499305725E0,-1.974078655E0
5.206480020E0,6.163911343E0,-8.358129501E0,-2.067398787E0
5.211235072E0,5.836094379E0,-8.394021988E0,-2.153540373E0
5.215990124E0,5.563312531E0,-8.310273170E0,-2.177468538E0
5.220745176E0,5.594419479E0,-7.925028801E0,-2.055434704E0
5.225500229E0,5.161318302E0,-8.386843681E0,-1.861616015E0
5.230255281E0,5.146961689E0,-8.673981667E0,-1.655833244E0
5.235010333E0,5.230710506E0,-8.793622971E0,-1.512263894E0
5.239765385E0,5.249852657E0,-8.836693764E0,-1.399801254E0
5.244520437E0,5.316852093E0,-8.772088051E0,-1.289731383E0
5.249275489E0,5.335994720E0,-8.669196129E0,-1.167697430E0
5.254030541E0,5.374279499E0,-8.549555779E0,-1.045663476E0
5.258785593E0,5.352744102E0,-8.405985832E0,-9.260223508E-1
5.263540645E0,5.347958565E0,-8.209774017E0,-8.590233326E-1
5.268295697E0,5.357530117E0,-8.011170387E0,-8.159525394E-1
5.273050749E0,5.376672268E0,-7.774280548E0,-7.704889178E-1
5.277805801E0,5.319244862E0,-7.494320393E0,-7.465606928E-1
5.282560854E0,5.307280540E0,-7.231110096E0,-6.819544435E-1
5.287315906E0,5.283352375E0,-6.975078106E0,-5.479564071E-1
5.292070958E0,5.228317261E0,-6.692724705E0,-4.187439680E-1
5.296826010E0,5.158925533E0,-6.436692715E0,-3.134597540E-1
5.301581062E0,5.058426857E0,-6.192625046E0,-1.890329868E-1
5.306336114E0,4.962714195E0,-5.974878311E0,-9.332008660E-2
5.311091166E0,4.917250633E0,-5.764309883E0,-4.307080805E-2
5.315846218E0,4.931607246E0,-5.505885124E0,-9.092725813E-2
5.320601270E0,5.008177757E0,-5.271388054E0,-3.134597540E-1
5.325356322E0,5.221138954E0,-5.056034088E0,-6.460621357E-1
5.330111374E0,5.611168861E0,-4.929214478E0,-1.086341500E0
5.334866426E0,6.139982700E0,-4.919643402E0,-1.517049551E0
5.339621479E0,6.774080753E0,-4.957928658E0,-1.816152334E0
5.344376531E0,7.467999458E0,-5.087141037E0,-1.959721804E0
5.349131583E0,8.099704742E0,-5.204389095E0,-1.952543259E0
5.353886635E0,8.642875671E0,-5.314459324E0,-1.868794441E0
5.358641635E0,9.073583603E0,-5.407779217E0,-1.777867198E0
5.363396739E0,9.427721024E0,-5.520241737E0,-1.643869162E0
5.368151791E0,9.667003632E0,-5.651846886E0,-1.473978758E0
5.372906843E0,9.822537422E0,-5.831308842E0,-1.354337573E0
5.377661843E0,9.949356079E0,-6.020341873E0,-1.313659668E0
5.382416895E0,1.013121128E1,-6.245266914E0,-1.328016520E0
5.387171947E0,1.031785107E1,-6.446264267E0,-1.430907965E0
5.391927051E0,1.044227791E1,-6.632904530E0,-1.543370605E0
5.396682051E0,1.060259724E1,-6.809973240E0,-1.703689694E0
5.401437104E0,1.073420238E1,-6.898507595E0,-1.739582062E0
5.406192156E0,1.074616623E1,-6.965506554E0,-1.710868239E0
5.410947208E0,1.056191921E1,-7.010970116E0,-1.531406522E0
5.415702260E0,1.043270683E1,-6.975078106E0,-1.263410330E0
5.420457312E0,1.029631615E1,-6.934400082E0,-9.858429432E-1
5.425212364E0,1.006181908E1,-6.838686943E0,-7.250252366E-1
5.429967416E0,9.736394882E0,-6.707081795E0,-5.694918036E-1
5.434722468E0,9.305686951E0,-6.585047722E0,-5.240281820E-1
5.439477520E0,8.853444099E0,-6.494120598E0,-5.694918036E-1
5.444232572E0,8.403593063E0,-6.431907177E0,-7.082754970E-1
5.448987624E0,8.006384850E0,-6.410371780E0,-8.997012973E-1
5.453742676E0,7.659425259E0,-6.467799664E0,-1.081555843E0
5.458497729E0,7.391428947E0,-6.496513367E0,-1.220339537E0
5.463252781E0,7.173682213E0,-6.486942291E0,-1.301695466E0
5.468007833E0,7.030112743E0,-6.441478729E0,-1.347159147E0
5.472762885E0,6.915257454E0,-6.364908218E0,-1.313659668E0
5.477517937E0,6.848258495E0,-6.297909260E0,-1.261017561E0
5.482272989E0,6.845865726E0,-6.190232277E0,-1.143769264E0
5.487028041E0,6.917650223E0,-6.082555294E0,-1.076770186E0
5.491783093E0,7.063612461E0,-5.996413708E0,-1.024128079E0
5.496538145E0,7.235895634E0,-5.862415314E0,-1.019342422E0
5.501293197E0,7.377072334E0,-5.812166214E0,-1.026520967E0
5.506048249E0,7.537391186E0,-5.747560024E0,-1.040877819E0
5.510803301E0,7.769495010E0,-5.742774487E0,-1.134197950E0
5.515558354E0,8.078168869E0,-5.716453075E0,-1.220339537E0
5.520313406E0,8.327022552E0,-5.733202934E0,-1.225125194E0
5.525068458E0,8.551948547E0,-5.718846321E0,-1.239482164E0
5.529823510E0,8.717052460E0,-5.716453075E0,-1.186840057E0
5.534578562E0,8.841479301E0,-5.654240131E0,-1.122233868E0
5.539333562E0,8.956335068E0,-5.596812248E0,-1.095912814E0
5.544088614E0,9.109476089E0,-5.572884083E0,-1.105484009E0
5.548843666E0,9.217152596E0,-5.548955917E0,-1.110269666E0
5.553598718E0,9.255437851E0,-5.498706341E0,-1.112662554E0
5.558353770E0,9.336793900E0,-5.405386448E0,-1.170090318E0
5.563108822E0,9.406186104E0,-5.302495003E0,-1.287338614E0
5.567863874E0,9.456435204E0,-5.120640278E0,-1.493121386E0
5.572618926E0,9.549755096E0,-4.972285271E0,-1.775474429E0
5.577373979E0,9.573683739E0,-4.831109047E0,-2.000399828E0
5.582129031E0,9.480362892E0,-4.706682205E0,-2.060220242E0
5.586884083E0,9.375079155E0,-4.632504463E0,-1.986042738E0
5.591639135E0,9.236295700E0,-4.543970108E0,-1.818545222E0
5.596394187E0,9.145368576E0,-4.493721008E0,-1.651047587E0
5.601149239E0,9.097511292E0,-4.465006828E0,-1.452443361E0
5.605904291E0,9.138189316E0,-4.436293125E0,-1.318445325E0
5.610659343E0,9.111868858E0,-4.374079704E0,-1.263410330E0
5.615414395E0,9.150154114E0,-4.374079704E0,-1.272981644E0
5.620169447E0,9.128618240E0,-4.283152580E0,-1.272981644E0
5.624924447E0,9.138189316E0,-4.197010994E0,-1.198804140E0
5.629679499E0,9.229117393E0,-4.187439442E0,-1.143769264E0
5.634434551E0,9.482755661E0,-4.220939159E0,-1.091127157E0
5.639189604E0,9.839286804E0,-4.290330887E0,-9.547362328E-1
5.643944656E0,1.029153061E1,-4.520041943E0,-9.068797827E-1
5.648699708E0,1.072463131E1,-4.826323509E0,-9.475577474E-1
5.653454760E0,1.109312534E1,-5.261816978E0,-1.107876897E0
5.658209812E0,1.124865913E1,-5.714060307E0,-1.296909928E0
5.662964864E0,1.117448139E1,-6.149554253E0,-1.524227977E0
5.667719916E0,1.093280697E1,-6.608976364E0,-1.682154298E0
5.672474968E0,1.058106136E1,-6.948757172E0,-1.727617979E0
5.677230020E0,1.022213840E1,-7.176074982E0,-1.684547186E0
5.681985072E0,9.681360245E0,-7.401000500E0,-1.593619823E0
5.686740124E0,9.202795982E0,-7.372286797E0,-1.387837172E0
5.691495176E0,8.767302513E0,-7.252645493E0,-1.205982566E0
5.696250176E0,8.492127419E0,-6.941578388E0,-1.091127157E0
5.701005229E0,8.288737297E0,-6.563512325E0,-1.031306505E0
5.705760281E0,8.159524918E0,-6.123233318E0,-1.033699393E0
5.710515333E0,8.027919769E0,-5.670989513E0,-1.052842021E0
5.715270385E0,7.824530125E0,-5.307280540E0,-1.088734269E0
5.720025437E0,7.635497093E0,-4.962714195E0,-1.127019525E0
5.724780489E0,7.393822193E0,-4.689932346E0,-1.141376376E0
5.729535541E0,7.118647575E0,-4.515256405E0,-1.196411371E0
5.734290593E0,6.888936520E0,-4.359723091E0,-1.225125194E0
5.739045645E0,6.668796539E0,-4.261617184E0,-1.299302697E0
5.743800697E0,6.515655994E0,-4.220939159E0,-1.349551916E0
5.748555749E0,6.357729912E0,-4.115654945E0,-1.452443361E0
5.753310801E0,6.120840549E0,-4.094119549E0,-1.517049551E0
5.758065801E0,5.893522263E0,-4.046263218E0,-1.517049551E0
5.762820854E0,5.821737289E0,-3.972085476E0,-1.533799291E0
5.767575906E0,5.477170944E0,-4.041477680E0,-1.512263894E0
5.772330958E0,5.168497086E0,-3.943371773E0,-1.411765337E0
5.777086010E0,4.831109047E0,-3.926621914E0,-1.339980721E0
5.781841062E0,4.792823792E0,-3.840480328E0,-1.287338614E0
5.786596114E0,4.936393261E0,-3.718446493E0,-1.263410330E0
5.791351166E0,5.178068161E0,-3.617947817E0,-1.263410330E0
5.796106218E0,5.407779217E0,-3.471985579E0,-1.311266780E0
5.800861270E0,5.635097504E0,-3.335594654E0,-1.397408366E0
5.805616322E0,5.651846886E0,-3.378665686E0,-1.426122308E0
5.810371322E0,5.745167255E0,-3.443271875E0,-1.519442320E0
5.815126374E0,6.008377552E0,-3.577269793E0,-1.684547186E0
5.819881426E0,6.204588890E0,-3.809373617E0,-1.780260086E0
5.824636479E0,6.556334019E0,-4.074976921E0,-1.928615093E0
5.829391531E0,7.077969551E0,-4.342973232E0,-1.981257200E0
5.834146583E0,7.661818027E0,-4.637290478E0,-1.978864312E0
5.838901635E0,8.226524353E0,-4.945964336E0,-1.995614052E0
5.843656687E0,8.817551613E0,-5.190032482E0,-2.041077614E0
5.848411739E0,9.456435204E0,-5.441278458E0,-2.143969059E0
5.853166791E0,1.025324535E1,-5.642275810E0,-2.352144718E0
5.857921791E0,1.108833981E1,-5.852844238E0,-2.608176708E0
5.862676843E0,1.179183006E1,-6.149554253E0,-2.868994236E0
5.867431895E0,1.213878918E1,-6.424728870E0,-2.969492912E0
5.872186947E0,1.210768223E1,-6.805187702E0,-2.861815929E0
5.876941999E0,1.197846985E1,-7.025327206E0,-2.577069998E0
5.881697051E0,1.118405342E1,-7.408178806E0,-2.342573404E0
5.886452104E0,1.013360405E1,-7.508677483E0,-1.969292998E0
5.891207156E0,8.975478172E0,-7.570890903E0,-1.572084427E0
5.895962208E0,8.188239098E0,-7.506284714E0,-1.201196909E0
5.900717260E0,7.838887215E0,-7.276573658E0,-1.074377418E0
5.905472260E0,7.925028801E0,-6.821937561E0,-1.272981644E0
5.910227312E0,8.173882484E0,-6.295516491E0,-1.550549030E0
5.914982364E0,8.618947029E0,-5.781059742E0,-1.691725612E0
5.919737416E0,9.042476654E0,-5.369493961E0,-1.591227055E0
5.924492468E0,9.379864693E0,-4.998606682E0,-1.282552958E0
5.929247520E0,9.468399048E0,-4.677968502E0,-9.332008362E-1
5.934002572E0,9.248259544E0,-4.424329281E0,-7.704889178E-1
5.938757624E0,8.748159409E0,-4.132404804E0,-7.920243144E-1
5.943512676E0,8.020741463E0,-3.871587038E0,-9.068797827E-1
5.948267676E0,7.250252724E0,-3.601198196E0,-1.081555843E0
5.953022729E0,6.386443615E0,-3.321237803E0,-1.414158225E0
5.957777781E0,5.642275810E0,-3.062813044E0,-1.926222205E0
5.962532833E0,5.048855782E0,-2.816352367E0,-2.373680115E0
5.967287885E0,4.694717884E0,-2.565105915E0,-2.498106956E0
5.972042937E0,4.469792843E0,-2.333002090E0,-2.285145521E0
5.976797989E0,4.534399033E0,-2.100898266E0,-1.981257200E0
5.981553041E0,4.584648132E0,-1.902294040E0,-1.794616938E0
5.986308041E0,4.685146809E0,-1.713261008E0,-1.808973908E0
5.991063093E0,4.912465096E0,-1.557727575E0,-1.976471543E0
5.995818145E0,5.125426292E0,-1.387837172E0,-2.175075769E0
6.000573197E0,5.383851051E0,-1.237089276E0,-2.280359983E0
6.005328249E0,5.656632900E0,-1.136590719E0,-2.230110645E0
6.010083301E0,5.840879917E0,-1.093519926E0,-1.945364833E0
6.014838354E0,6.099305153E0,-1.067198873E0,-1.483550072E0
6.019593406E0,6.297909260E0,-1.103091240E0,-1.021735311E0
6.024348406E0,6.496513367E0,-1.160519004E0,-5.958128572E-1
6.029103458E0,6.496513367E0,-1.225125194E0,-4.091726840E-1
6.033858510E0,6.427121639E0,-1.399801254E0,-3.589234054E-1
6.038613562E0,6.238088608E0,-1.617548108E0,-4.857429862E-1
6.043368614E0,6.317051888E0,-1.873580098E0,-6.843472719E-1
6.048123666E0,6.707081795E0,-2.203789711E0,-1.045663476E0
6.052878718E0,7.159325123E0,-2.589034081E0,-1.440479279E0
6.057633770E0,7.566105366E0,-2.871387243E0,-1.651047587E0
6.062388770E0,7.843672752E0,-3.058027267E0,-1.672582984E0
6.067143822E0,7.994420528E0,-3.148954630E0,-1.665404558E0
6.071898874E0,8.061419487E0,-3.144168854E0,-1.694118381E0
6.076653926E0,8.001599312E0,-3.072384357E0,-1.804188251E0
6.081408979E0,7.922635555E0,-2.979064226E0,-2.036292076E0
6.086164031E0,7.865208149E0,-2.931207657E0,-2.246860504E0
6.090919083E0,7.936992645E0,-2.739781857E0,-2.361716032E0
6.095674135E0,8.018348694E0,-2.598605394E0,-2.426322222E0
6.100429135E0,8.037490845E0,-2.557927370E0,-2.553141832E0
6.105184187E0,7.898707390E0,-2.591426849E0,-2.648854733E0
6.109939239E0,7.640282631E0,-2.663211584E0,-2.701496840E0
6.114694291E0,7.350750923E0,-2.730210543E0,-2.653640270E0
6.119449343E0,7.044469833E0,-2.775674343E0,-2.522035122E0
6.124204395E0,6.898507595E0,-2.677568436E0,-2.361716032E0
6.128959395E0,6.967899323E0,-2.545963287E0,-2.187039852E0
6.133714447E0,7.168896675E0,-2.361716032E0,-2.112862349E0
6.138469499E0,7.494320393E0,-2.105684042E0,-2.129612207E0
6.143224551E0,7.807780266E0,-1.887937069E0,-2.301895380E0
6.147979604E0,8.013563156E0,-1.696511269E0,-2.519642353E0
6.152734656E0,8.178668022E0,-1.524227977E0,-2.723032236E0
6.157489708E0,8.315058708E0,-1.435693622E0,-2.821137905E0
6.162244708E0,8.449056625E0,-1.411765337E0,-2.720639229E0
6.166999760E0,8.664410591E0,-1.426122308E0,-2.481357098E0
6.171754812E0,9.068798065E0,-1.311266780E0,-2.277967215E0
6.176509864E0,9.384650230E0,-1.328016520E0,-2.227717876E0
6.181264916E0,9.765109062E0,-1.330409408E0,-2.392822742E0
6.186019968E0,1.007617569E1,-1.428515077E0,-2.679961443E0
6.190774968E0,1.029153061E1,-1.576870084E0,-2.888136864E0
6.195530020E0,1.043749237E1,-1.816152334E0,-3.014956474E0
6.200285072E0,1.053081226E1,-2.139183521E0,-2.959921598E0
6.205040124E0,1.049970531E1,-2.493321180E0,-2.778067112E0
6.209795176E0,1.050449181E1,-2.900100946E0,-2.567498684E0
6.214550229E0,1.054756260E1,-3.302095175E0,-2.426322222E0
6.219305281E0,1.058824062E1,-3.696911097E0,-2.419143677E0
6.224060281E0,1.066481018E1,-4.096512318E0,-2.488535643E0
6.228815333E0,1.072702408E1,-4.479363918E0,-2.574677229E0
6.233570385E0,1.072463131E1,-4.804787636E0,-2.699103832E0
6.238325437E0,1.070788097E1,-5.103890896E0,-2.854637384E0
6.243080489E0,1.059781170E1,-5.324030399E0,-2.938386202E0
6.247835541E0,1.035135078E1,-5.498706341E0,-2.897708178E0
6.252590593E0,1.009053326E1,-5.575276852E0,-2.727817774E0
6.257345593E0,9.812965393E0,-5.558526993E0,-2.404786825E0
6.262100645E0,9.542576790E0,-5.496313572E0,-2.108076811E0
6.266855697E0,9.250652313E0,-5.338387489E0,-1.902294040E0
6.271610749E0,8.884550095E0,-5.134997368E0,-1.775474429E0
6.276365801E0,8.422736168E0,-4.922036171E0,-1.703689694E0
6.281120854E0,7.975277901E0,-4.682754040E0,-1.591227055E0
6.285875854E0,7.484749317E0,-4.419543266E0,-1.409372568E0
6.290630906E0,7.061219692E0,-4.189832687E0,-1.172483087E0
6.295385958E0,6.661618233E0,-3.950550079E0,-9.858429432E-1
6.300141010E0,6.276373863E0,-3.744767427E0,-8.709874153E-1
6.304896062E0,5.989234924E0,-3.558127165E0,-8.063812256E-1
6.309651114E0,5.752345562E0,-3.366701365E0,-7.704889178E-1
6.314406166E0,5.594419479E0,-3.223132133E0,-7.537391186E-1
6.319161166E0,5.558526993E0,-3.122633457E0,-7.345965505E-1
6.323916218E0,5.694917679E0,-3.065205812E0,-7.322037220E-1
6.328671270E0,5.903093338E0,-3.029313564E0,-8.303094506E-1
6.333426322E0,6.350551128E0,-3.000599623E0,-9.978070259E-1
6.338181374E0,6.996613503E0,-2.993421078E0,-1.225125194E0
6.342936426E0,7.630711555E0,-3.046063185E0,-1.356730461E0
6.347691426E0,8.185846329E0,-3.177668571E0,-1.397408366E0
6.352446479E0,8.595019341E0,-3.366701365E0,-1.304088354E0
6.357201531E0,8.836693764E0,-3.617947817E0,-1.093519926E0
6.361956583E0,8.863015175E0,-3.957728624E0,-9.260223508E-1
6.366711635E0,8.819944382E0,-4.371686935E0,-8.566305041E-1
6.371466635E0,8.788837433E0,-4.792823792E0,-9.188438654E-1
6.376221687E0,8.853444099E0,-5.175675392E0,-1.055234790E0
6.380976739E0,8.965906143E0,-5.565705299E0,-1.205982566E0
6.385731791E0,9.111868858E0,-5.943771362E0,-1.284945726E0
6.390486843E0,9.231510162E0,-6.295516491E0,-1.392622828E0
6.395241895E0,9.162117958E0,-6.618547440E0,-1.555334687E0
6.399996895E0,8.918049812E0,-6.874579430E0,-1.672582984E0
6.404751947E0,8.571090698E0,-7.101897717E0,-1.756331801E0
6.409506999E0,8.154739380E0,-7.288537979E0,-1.725225091E0
6.414262051E0,7.735995770E0,-7.434499741E0,-1.545763373E0
6.419017104E0,7.353144169E0,-7.463213921E0,-1.332802176E0
6.423772156E0,7.018148899E0,-7.369893551E0,-1.186840057E0
6.428527156E0,6.759724140E0,-7.178467751E0,-1.160519004E0
6.433282208E0,6.534798622E0,-6.845865726E0,-1.239482164E0
6.438037260E0,6.293123722E0,-6.439085960E0,-1.294517040E0
6.442792312E0,6.118447304E0,-5.970092297E0,-1.237089276E0
6.447547364E0,6.063412666E0,-5.517848969E0,-1.019342422E0
6.452302416E0,6.058627129E0,-5.125426292E0,-7.345965505E-1
6.457057416E0,6.099305153E0,-4.802394867E0,-5.694918036E-1
6.461812468E0,6.166304111E0,-4.589433670E0,-5.144568682E-1
6.466567520E0,6.257231236E0,-4.453042984E0,-5.766702294E-1
6.471322572E0,6.340980053E0,-4.419543266E0,-7.298108935E-1
6.476077624E0,6.393621922E0,-4.500899315E0,-8.925228715E-1
6.480832624E0,6.446264267E0,-4.658825874E0,-9.738788009E-1
6.485587676E0,6.498906136E0,-4.855037212E0,-9.619147182E-1
6.490342729E0,6.561119556E0,-5.070391178E0,-8.446664214E-1
6.495097781E0,6.690331936E0,-5.266602516E0,-6.867401004E-1
6.499852833E0,6.821937561E0,-5.443671703E0,-5.862415433E-1
6.504607885E0,6.920042992E0,-5.687739372E0,-4.402793646E-1
6.509362885E0,7.049255371E0,-5.919843197E0,-3.230310678E-1
6.514117937E0,7.106683254E0,-6.156732559E0,-2.584248483E-1
6.518872989E0,7.159325123E0,-6.443871498E0,-2.991028428E-1
6.523628041E0,7.130611420E0,-6.731009960E0,-5.096712112E-1
6.528383093E0,7.010970116E0,-7.049255371E0,-8.398807645E-1
6.533138145E0,6.917650223E0,-7.348358154E0,-1.170090318E0
6.537893145E0,6.874579430E0,-7.613961697E0,-1.428515077E0
6.542648197E0,6.759724140E0,-7.817351341E0,-1.643869162E0
6.547403249E0,6.819544315E0,-8.147561073E0,-1.665404558E0
6.552158301E0,6.972685337E0,-8.441878319E0,-1.629512191E0
6.556913354E0,7.032505512E0,-8.671588898E0,-1.627119422E0
6.561668406E0,6.996613503E0,-8.839086533E0,-1.672582984E0
6.566423406E0,6.884150982E0,-8.944371223E0,-1.806581140E0
6.571178458E0,6.666403770E0,-9.035298347E0,-2.069791555E0
6.575933510E0,6.458228111E0,-9.111868858E0,-2.385644197E0
6.580688562E0,6.331408501E0,-9.219545364E0,-2.541177750E0
6.585443614E0,6.216553211E0,-9.281759262E0,-2.419143677E0
6.590198666E0,6.101697922E0,-9.348757744E0,-2.088934183E0
6.594953666E0,6.056233883E0,-9.415757179E0,-1.584048629E0
6.599708718E0,6.094519138E0,-9.415757179E0,-1.141376376E0
6.604463770E0,6.075376511E0,-9.377471924E0,-8.207381964E-1
6.609218822E0,6.139982700E0,-9.267401695E0,-6.723831892E-1
6.613973874E0,6.185446739E0,-9.116654396E0,-7.537391186E-1
6.618728874E0,6.384050846E0,-8.903693199E0,-9.810572863E-1
6.623483926E0,6.661618233E0,-8.705088615E0,-1.201196909E0
6.628238979E0,6.989434719E0,-8.518448830E0,-1.354337573E0
6.632994031E0,7.365108013E0,-8.350951195E0,-1.557727575E0
6.637749083E0,7.709674358E0,-8.128418922E0,-1.629512191E0
6.642504135E0,8.092526436E0,-7.932207108E0,-1.552941918E0
6.647259135E0,8.690732002E0,-7.743174076E0,-1.428515077E0
6.652014187E0,9.332008362E0,-7.554141045E0,-1.227517962E0
6.656769239E0,9.946963310E0,-7.396214962E0,-1.062413216E0
6.661524291E0,1.050209904E1,-7.250252724E0,-9.212366939E-1
6.666279343E0,1.097348499E1,-7.154539585E0,-8.422735929E-1
6.671034343E0,1.134197903E1,-7.099504948E0,-8.829515576E-1
6.675789395E0,1.159801102E1,-7.049255371E0,-9.619147182E-1
6.680544447E0,1.177268696E1,-7.044469833E0,-1.057627559E0
6.685299499E0,1.182054424E1,-7.046862602E0,-1.036092162E0
6.690054551E0,1.180140114E1,-7.034898758E0,-8.757730722E-1
6.694809551E0,1.176790142E1,-7.085147858E0,-5.886343718E-1
6.699564604E0,1.161954689E1,-7.087540627E0,-2.560320199E-1
6.704319656E0,1.138744259E1,-7.063612461E0,7.896314561E-2
6.709074708E0,1.098784161E1,-6.982256413E0,3.230310678E-1
6.713829760E0,1.050927734E1,-6.891329288E0,4.977070987E-1
6.718584812E0,9.942177773E0,-6.774080753E0,5.359922647E-1
6.723339812E0,9.346364975E0,-6.702296257E0,3.637090325E-1
6.728094864E0,8.717052460E0,-6.704689026E0,7.178467698E-3
6.732849916E0,8.190631866E0,-6.740581512E0,-7.034898400E-1
6.737604968E0,7.508677483E0,-6.838686943E0,-1.596012712E0
6.742360020E0,7.094718933E0,-6.975078106E0,-2.187039852E0
6.747115020E0,6.934400082E0,-7.185646534E0,-2.112862349E0
6.751870072E0,6.922435760E0,-7.479963779E0,-1.402194023E0
6.756625124E0,7.020541668E0,-7.771887779E0,-4.546363056E-1
6.761380176E0,7.168896675E0,-8.049455643E0,3.397808075E-1
6.766135229E0,6.965506554E0,-8.269595146E0,9.116654396E-1
6.770890281E0,6.496513367E0,-8.403593063E0,1.244267821E0
6.775645281E0,5.994020939E0,-8.470592499E0,1.280160069E0
6.780400333E0,5.395814896E0,-8.506484032E0,1.100698471E0
6.785155385E0,4.711467743E0,-8.480163574E0,6.747759581E-1
6.789910437E0,4.161118507E0,-8.403593063E0,4.307080805E-2
6.794665489E0,3.656233072E0,-8.377271652E0,-6.963114142E-1
6.799420489E0,3.014956474E0,-8.528019905E0,-1.421336651E0
6.804175541E0,2.646461725E0,-8.597412109E0,-2.050648928E0
6.808930593E0,2.392822742E0,-8.714659691E0,-2.490928411E0
6.813685645E0,2.390429735E0,-8.848658562E0,-2.804388046E0
6.818440697E0,2.021935225E0,-9.020941734E0,-2.926422119E0
6.823195697E0,1.904686809E0,-9.169296265E0,-2.967100143E0
6.827950749E0,1.887937069E0,-9.320044518E0,-2.890529871E0
6.832705801E0,2.167897224E0,-9.451649666E0,-2.780459881E0
6.837460854E0,2.268395901E0,-9.566504478E0,-2.490928411E0
6.842215906E0,2.778067112E0,-9.614361763E0,-2.230110645E0
6.846970906E0,3.333201885E0,-9.643074989E0,-2.115255117E0
6.851725958E0,3.926621914E0,-9.626325607E0,-2.033899307E0
6.856481010E0,4.462614059E0,-9.600004196E0,-1.964507341E0
6.861236062E0,4.922036171E0,-9.521040916E0,-1.806581140E0
6.865991114E0,5.245067120E0,-9.489934921E0,-1.576870084E0
6.870746166E0,5.491528034E0,-9.396614075E0,-1.284945726E0
6.875501166E0,5.769095421E0,-9.375079155E0,-1.019342422E0
6.880256218E0,6.017949104E0,-9.391828537E0,-8.829515576E-1
6.885011270E0,6.230910301E0,-9.442078590E0,-8.350951076E-1
6.889766322E0,6.348158360E0,-9.533005714E0,-8.709874153E-1
6.894521322E0,6.465406895E0,-9.588040352E0,-9.690931439E-1
6.899276374E0,6.546762943E0,-9.640682220E0,-1.119840980E0
6.904031426E0,6.582654953E0,-9.686145782E0,-1.191625714E0
6.908786479E0,6.618547440E0,-9.726823807E0,-1.217946768E0
6.913541531E0,6.618547440E0,-9.726823807E0,-1.146162033E0
6.918296531E0,6.642475605E0,-9.674181938E0,-1.016949654E0
6.923051583E0,6.510870457E0,-9.643074989E0,-8.901300430E-1
6.927806635E0,6.283552170E0,-9.602396965E0,-7.178468108E-1
6.932561687E0,6.027520180E0,-9.509077072E0,-5.240281820E-1
6.937316739E0,5.826523304E0,-9.394221306E0,-3.876372576E-1
6.942071791E0,5.572884083E0,-9.269794464E0,-3.517449200E-1
6.946826791E0,5.400600910E0,-9.181260109E0,-3.230310678E-1
6.951581843E0,5.302495003E0,-9.023334503E0,-3.708875179E-1
6.956336895E0,5.252245903E0,-8.846264839E0,-4.833501875E-1
6.961091947E0,5.290530682E0,-8.618947029E0,-6.795616150E-1
6.965846999E0,5.414957523E0,-8.408378601E0,-8.781659007E-1
6.970601999E0,5.469992638E0,-8.204988480E0,-1.040877819E0
6.975357051E0,5.501099110E0,-8.035098076E0,-1.153340459E0
6.980112104E0,5.469992638E0,-7.886743546E0,-1.222732425E0
6.984867156E0,5.474778175E0,-7.759923935E0,-1.296909928E0
6.989622208E0,5.453242779E0,-7.618747234E0,-1.450050473E0
6.994377208E0,5.498706341E0,-7.415357590E0,-1.691725612E0
6.999132260E0,5.565705299E0,-7.216753006E0,-1.974078655E0
7.003887312E0,5.685346603E0,-7.027719975E0,-2.261217356E0
7.008642364E0,5.929414749E0,-6.821937561E0,-2.550748825E0
7.013397416E0,6.235695839E0,-6.731009960E0,-2.775674343E0
7.018152416E0,6.592226505E0,-6.709474564E0,-2.849851847E0
7.022907468E0,7.085147858E0,-6.738188744E0,-2.845066071E0
7.027662520E0,7.649854183E0,-6.809973240E0,-2.809173822E0
7.032417572E0,8.216953278E0,-6.910471916E0,-2.737389088E0
7.037172572E0,8.671588898E0,-7.010970116E0,-2.557927370E0
7.041927624E0,9.004191399E0,-7.051648140E0,-2.364108801E0
7.046682676E0,9.219545364E0,-7.066005230E0,-2.191825628E0
7.051437729E0,9.339186668E0,-7.092326164E0,-2.031506538E0
7.056192781E0,9.444471359E0,-6.972685337E0,-1.849651933E0
7.060947781E0,9.487542152E0,-6.821937561E0,-1.646261930E0
7.065702833E0,9.511469841E0,-6.824330330E0,-1.452443361E0
7.070457885E0,9.561718941E0,-6.948757172E0,-1.277767301E0
7.075212937E0,9.413364410E0,-7.068397999E0,-1.143769264E0
7.079967989E0,9.176474571E0,-7.207181931E0,-1.026520967E0
7.084722989E0,8.851051331E0,-7.386643410E0,-1.031306505E0
7.089478041E0,8.425128937E0,-7.489534855E0,-1.052842021E0
7.094233093E0,7.951349735E0,-7.434499741E0,-1.050449133E0
7.098988145E0,7.604390144E0,-7.283751965E0,-1.074377418E0
7.103743197E0,7.051648140E0,-7.467999458E0,-9.236295223E-1
7.108498197E0,7.166503906E0,-7.630711555E0,-6.604190469E-1
7.113253249E0,7.568498135E0,-8.425128937E0,-7.178468108E-1
7.118008301E0,7.700103283E0,-8.432307243E0,-1.380658627E0
7.122763354E0,7.405786037E0,-7.791030407E0,-1.732403636E0
7.127518406E0,6.855436802E0,-7.668996811E0,-1.761117458E0
7.132273406E0,6.929614544E0,-7.381857872E0,-6.221339107E-1
7.137028458E0,7.637889862E0,-6.654439926E0,6.460621208E-2
7.141783510E0,8.176275253E0,-5.946164131E0,-5.694918036E-1
7.146538562E0,8.360522270E0,-5.149354458E0,-1.593619823E0
7.151293614E0,8.597412109E0,-4.486542225E0,-2.371287346E0
7.156048614E0,8.915657043E0,-3.907479286E0,-2.818745136E0
7.160803666E0,9.363115311E0,-3.723232031E0,-2.931207657E0
7.165558718E0,9.755537987E0,-3.933800459E0,-2.778067112E0
7.170313770E0,9.963713646E0,-4.414757729E0,-2.533999205E0
7.175068822E0,1.003789139E1,-4.878965378E0,-2.325823545E0
7.179823822E0,9.937392235E0,-5.304887772E0,-2.031506538E0
7.184578874E0,9.786644936E0,-5.575276852E0,-1.718046665E0
7.189333926E0,9.597611427E0,-5.759523869E0,-1.409372568E0
7.194088979E0,9.410971642E0,-5.831308842E0,-1.160519004E0
7.198843979E0,9.281759262E0,-5.814558983E0,-9.786644578E-1
7.203599031E0,9.241081238E0,-5.728417397E0,-9.475577474E-1
7.208354083E0,9.214759827E0,-5.587240696E0,-9.858429432E-1
7.213109135E0,9.212367058E0,-5.486742496E0,-1.026520967E0
7.217864187E0,9.298508644E0,-5.355136871E0,-9.762716293E-1
7.222619187E0,9.327222824E0,-5.175675392E0,-8.805587292E-1
7.227374239E0,9.336793900E0,-5.000999451E0,-7.657032609E-1
7.232129291E0,9.312865257E0,-4.752145767E0,-6.747759581E-1
7.236884343E0,9.260223389E0,-4.627718925E0,-6.053841114E-1
7.241639395E0,9.152546883E0,-4.453042984E0,-6.077769399E-1
7.246394395E0,9.032905579E0,-4.374079704E0,-6.987041831E-1
7.251149447E0,8.927620888E0,-4.299902439E0,-9.284151793E-1
7.255904499E0,8.779266357E0,-4.237689018E0,-1.191625714E0
7.260659551E0,8.578269005E0,-4.156332970E0,-1.497906923E0
7.265414604E0,8.405985832E0,-4.132404804E0,-1.715653777E0
7.270169604E0,8.319844246E0,-4.106083870E0,-1.811366796E0
7.274924656E0,8.324629784E0,-4.137190342E0,-1.830509305E0
7.279679708E0,8.334200859E0,-4.208974838E0,-1.801795483E0
7.284434760E0,8.336593628E0,-4.311866283E0,-1.751546144E0
7.289189760E0,8.379665375E0,-4.469792843E0,-1.792224169E0
7.293944812E0,8.461020470E0,-4.898108006E0,-1.945364833E0
7.298699864E0,8.559126854E0,-5.242674351E0,-2.232503414E0
7.303454916E0,8.678768158E0,-5.675775528E0,-2.586641312E0
7.308209968E0,8.740981102E0,-6.063412666E0,-2.895315409E0
7.312964968E0,8.870193481E0,-5.967699528E0,-2.995813847E0
7.317720020E0,8.614161491E0,-5.996413708E0,-3.050848961E0
7.322475072E0,8.585447311E0,-5.910272121E0,-2.778067112E0
7.327230124E0,8.889336586E0,-6.001199245E0,-2.445464849E0
7.331985176E0,9.190832138E0,-6.214160442E0,-2.333002090E0
7.336740176E0,9.286544800E0,-6.623332977E0,-2.407179594E0
7.341495229E0,9.353543282E0,-6.740581512E0,-2.617748022E0
7.346250281E0,9.174081802E0,-6.735795975E0,-2.677568436E0
7.351005333E0,8.944371223E0,-6.900900364E0,-2.718246460E0
7.355760333E0,8.178668022E0,-7.283751965E0,-2.615355253E0
7.360515385E0,7.226324558E0,-7.202396393E0,-2.462214470E0
7.365270437E0,6.752545357E0,-7.211967468E0,-2.210968018E0
7.370025489E0,6.455835342E0,-7.424928665E0,-1.947757602E0
7.374780541E0,5.821737289E0,-7.575676441E0,-1.612762451E0
7.379535541E0,5.024927616E0,-7.511070251E0,-1.172483087E0
7.384290593E0,4.771288395E0,-7.204789162E0,-7.178468108E-1
7.389045645E0,4.967499733E0,-6.747759819E0,-4.546363056E-1
7.393800697E0,5.268995285E0,-5.962913990E0,-3.062812984E-1
7.398555749E0,5.374279499E0,-5.000999451E0,-1.244267747E-1
7.403310749E0,4.931607246E0,-2.955136061E0,4.546362907E-2
7.408065801E0,-2.294716835E0,1.212203979E1,-2.069791555E0
7.412820854E0,1.533799291E0,1.240439224E1,-2.163111687E0
7.417575906E0,9.164510727E0,9.379864931E-1,1.988435626E0
7.422330906E0,9.095118523E0,-1.722832322E0,2.813959360E0
7.427085958E0,6.601797581E0,-1.459621787E0,1.880758643E0
7.431841010E0,5.505885124E0,-2.974278450E0,1.186840057E0
7.436596062E0,4.512863636E0,-4.443471432E0,5.096712112E-1
7.441351062E0,2.962314367E0,-4.718646049E0,-2.153540403E-1
7.446106114E0,2.409572363E0,-4.900500774E0,-6.532405615E-1
7.450861166E0,2.574677229E0,-4.859822750E0,-1.141376376E0
7.455616218E0,3.077169895E0,-4.395615101E0,-1.811366796E0
7.460371270E0,3.682554007E0,-3.888336897E0,-2.222932339E0
7.465126270E0,4.512863636E0,-3.582055569E0,-2.242074728E0
7.469881322E0,5.517848969E0,-3.682554007E0,-1.947757602E0
7.474636374E0,6.262016773E0,-3.701696634E0,-1.576870084E0
7.479391426E0,6.910471916E0,-3.558127165E0,-1.205982566E0
7.484146479E0,7.436892986E0,-3.390629768E0,-7.896314859E-1
7.488901479E0,7.893921852E0,-3.455235958E0,-4.307080805E-1
7.493656531E0,8.173882484E0,-3.763910055E0,-4.666004181E-1
7.498411583E0,7.939385414E0,-4.007977962E0,-9.882357717E-1
7.503166635E0,7.582854748E0,-4.146761417E0,-1.603191137E0
7.507921635E0,7.319644451E0,-4.149154663E0,-1.966900229E0
7.512676687E0,7.369893551E0,-3.969692707E0,-2.026720762E0
7.517431739E0,7.647460938E0,-3.747160196E0,-1.962114573E0
7.522186791E0,7.965706348E0,-3.550948858E0,-1.875972986E0
7.526941843E0,8.221738815E0,-3.349951744E0,-1.909472466E0
7.531696843E0,8.238488197E0,-2.991028309E0,-2.009970903E0
7.536451895E0,8.338987350E0,-2.737389088E0,-2.213361025E0
7.541206947E0,8.492127419E0,-2.538784742E0,-2.402393818E0
7.545961999E0,8.925228119E0,-2.548356056E0,-2.397608280E0
7.550716999E0,9.152546883E0,-2.333002090E0,-2.316252232E0
7.555472051E0,9.212367058E0,-1.741974831E0,-2.258824587E0
7.560227104E0,9.425328255E0,-1.205982566E0,-2.249253273E0
7.564982156E0,9.657432556E0,-7.393822074E-1,-2.452643156E0
7.569737208E0,9.779465675E0,-5.599204898E-1,-2.878565550E0
7.574492208E0,9.652647018E0,-8.446664214E-1,-3.189632654E0
7.579247260E0,8.946763992E0,-1.251446247E0,-3.261417150E0
7.584002312E0,7.879564762E0,-1.655833244E0,-2.991028309E0
7.588757364E0,6.764509678E0,-1.832902193E0,-2.553141832E0
7.593512364E0,5.989234924E0,-1.911865234E0,-2.165504456E0
7.598267416E0,5.692524910E0,-2.036292076E0,-1.859223247E0
7.603022468E0,5.692524910E0,-2.132004976E0,-1.725225091E0
7.607777520E0,5.807380676E0,-2.210968018E0,-1.727617979E0
7.612532572E0,5.831308842E0,-2.311466694E0,-1.751546144E0
7.617287572E0,5.819344521E0,-2.383251429E0,-1.832902193E0
7.622042624E0,6.065805435E0,-2.974278450E0,-1.667797327E0
7.626797676E0,5.982056618E0,-3.390629768E0,-1.572084427E0
7.631552729E0,5.680561066E0,-3.507878065E0,-1.531406522E0
7.636307729E0,5.458028316E0,-3.462414265E0,-1.454836130E0
7.641062781E0,5.120640278E0,-2.962314367E0,-1.414158225E0
7.645817833E0,5.027320385E0,-2.404786825E0,-1.306481123E0
7.650572885E0,4.587040901E0,-1.246660590E0,-1.512263894E0
7.655327885E0,4.395615101E0,3.014956415E-1,-1.856830359E0
7.660082937E0,5.747560024E0,1.100698411E-1,-1.780260086E0
7.664837989E0,7.448856831E0,-1.201196909E0,-1.548156261E0
7.669593041E0,8.212167740E0,-2.136790514E0,-1.562513232E0
7.674348093E0,8.149953842E0,-2.658426046E0,-1.715653777E0
7.679103093E0,7.848458290E0,-2.847458839E0,-1.971685886E0
7.683858145E0,7.532605648E0,-2.828316450E0,-2.239681959E0
7.688613197E0,6.991827965E0,-2.589034081E0,-2.366501570E0
7.693368249E0,6.582654953E0,-2.404786825E0,-2.605783939E0
7.698123249E0,6.429514408E0,-2.340180635E0,-2.904886723E0
7.702878301E0,8.312665939E0,-4.247260094E0,-2.574677229E0
7.707633354E0,8.626125336E0,-4.816751957E0,-2.493321180E0
7.712388406E0,8.023134232E0,-4.704289436E0,-2.529213428E0
7.717143458E0,7.482356548E0,-4.802394867E0,-2.349751949E0
7.721898458E0,7.063612461E0,-4.874179840E0,-2.237289190E0
7.726653510E0,6.798008919E0,-4.991427898E0,-2.196611166E0
7.731408562E0,7.432106972E0,-5.230710506E0,-2.002792597E0
7.736163614E0,8.011170387E0,-4.974678040E0,-2.048256159E0
7.740918614E0,8.559126854E0,-5.053641319E0,-2.330609322E0
7.745673666E0,9.300901413E0,-5.264209747E0,-2.522035122E0
7.750428718E0,9.623932838E0,-5.283352375E0,-2.634497643E0
7.755183770E0,9.762716293E0,-5.541777134E0,-2.636890650E0
7.759938770E0,9.705288887E0,-5.867201328E0,-2.524427891E0
7.764693822E0,9.188439369E0,-6.061019897E0,-2.328216314E0
7.769448874E0,8.702695847E0,-6.254838467E0,-2.165504456E0
7.774203926E0,8.061419487E0,-6.388836384E0,-2.165504456E0
7.778958979E0,7.635497093E0,-6.597012043E0,-2.210968018E0
7.783713979E0,7.099504948E0,-6.582654953E0,-2.352144718E0
7.788469031E0,6.680760860E0,-6.589833736E0,-2.438286304E0
7.793224083E0,6.477370739E0,-6.632904530E0,-2.289931297E0
7.797979135E0,6.159125328E0,-6.467799664E0,-2.029113531E0
7.802734135E0,6.159125328E0,-6.384050846E0,-1.634297848E0
7.807489187E0,5.742774487E0,-6.001199245E0,-1.476371527E0
7.812244239E0,5.173282623E0,-5.670989513E0,-1.328016520E0
7.816999291E0,4.582255363E0,-5.209175110E0,-1.469193101E0
7.821754291E0,3.730410576E0,-4.484149456E0,-1.859223247E0
7.826509343E0,2.993421078E0,-3.998406649E0,-2.079362869E0
7.831264395E0,2.347358942E0,-3.146561861E0,-1.916650891E0
7.836019447E0,2.309073925E0,-2.201396942E0,-5.216353536E-1
7.840774499E0,3.400201082E0,-2.433500528E0,1.103091240E0
7.845529499E0,3.775874138E0,-2.976671457E0,2.218146563E0
7.850284551E0,4.228117466E0,-3.694518089E0,2.885744095E0
7.855039604E0,4.764110088E0,-4.469792843E0,2.933600664E0
7.859794656E0,5.264209747E0,-5.309673309E0,2.579462767E0
7.864549708E0,5.479563713E0,-6.008377552E0,2.543570518E0
7.869304708E0,5.862415314E0,-6.776473522E0,1.658226132E0
7.874059760E0,5.938985825E0,-7.747959614E0,8.805587292E-1
7.878814812E0,5.747560024E0,-8.767302513E0,-9.092725813E-2
7.883569812E0,6.405586243E0,-1.084905815E1,-1.732403636E0
7.888324864E0,6.551548481E0,-1.226321602E1,-2.239681959E0
7.893079916E0,6.506084919E0,-1.239721394E1,-3.158525825E-1
7.897834968E0,8.472985268E0,-1.519442368E1,-1.165304661E0
7.902590020E0,8.975478172E0,-1.689572144E1,-3.754338741E0
7.907345020E0,8.063812256E0,-1.694118500E1,-5.017749310E0
7.912100072E0,8.044670105E0,-1.726182175E1,-5.848058701E0
7.916854997E0,7.881958008E0,-1.719721603E1,-5.778666496E0
7.921610049E0,7.343572617E0,-1.654397583E1,-5.082355499E0
7.926365049E0,6.805187702E0,-1.605344772E1,-3.888336897E0
7.931120102E0,6.580262184E0,-1.596251965E1,-2.624926329E0
7.935875154E0,6.053841114E0,-1.566580963E1,-1.153340459E0
7.940630206E0,5.639883041E0,-1.547438431E1,1.363908947E-1
7.945385258E0,5.314459324E0,-1.540499210E1,1.048056364E0
7.950140258E0,5.036891460E0,-1.525903034E1,1.366301775E0
7.954895310E0,4.804787636E0,-1.490010643E1,1.201196909E0
7.959650362E0,4.567898273E0,-1.440479279E1,6.771687865E-1
7.964405362E0,4.508078098E0,-1.389751434E1,1.698904037E-1
7.969160414E0,4.563112736E0,-1.334237862E1,-1.674975902E-1
7.973915466E0,4.764110088E0,-1.257667542E1,-2.344966233E-1
7.978670518E0,4.969892502E0,-1.197129154E1,-1.004985496E-1
7.983425570E0,4.993820667E0,-1.159322548E1,1.076770201E-1
7.988180570E0,4.893322468E0,-1.137308598E1,2.679961324E-1
7.992935622E0,4.711467743E0,-1.123430252E1,3.637090325E-1
7.997690674E0,4.476971149E0,-1.107159042E1,4.019941986E-1
8.002445727E0,4.163511276E0,-1.093041420E1,3.062812984E-1
8.007200779E0,3.912265062E0,-1.083709335E1,9.810572863E-2
8.011955779E0,3.775874138E0,-1.072702408E1,-8.135596663E-2
8.016710831E0,3.823730469E0,-1.062413216E1,-2.321037948E-1
8.021465883E0,3.967299938E0,-1.048056316E1,-2.919243574E-1
8.026220935E0,4.204189301E0,-1.027238750E1,-3.661018610E-1
8.030975935E0,4.496113777E0,-9.992427826E0,-5.694918036E-1
8.035730987E0,4.867001057E0,-9.717252731E0,-8.542376757E-1
8.040486039E0,5.321637630E0,-9.549755096E0,-6.388836503E-1
8.045241091E0,5.618347645E0,-9.123832703E0,-7.657032609E-1
8.049996091E0,5.771488190E0,-8.729017258E0,-9.858429432E-1
8.054751143E0,5.874379635E0,-8.343772888E0,-1.083948612E0
8.059506195E0,5.850451469E0,-7.953742504E0,-1.079162955E0
8.064261247E0,5.733202934E0,-7.642675400E0,-8.446664214E-1
8.069016247E0,5.613562107E0,-7.439285755E0,-3.349951804E-1
8.073771299E0,5.572884083E0,-7.408178806E0,7.417750359E-2
8.078526352E0,5.728417397E0,-7.343572617E0,2.201396823E-1
8.083281404E0,5.938985825E0,-7.278966427E0,2.392822644E-3
8.088036404E0,6.116054535E0,-7.152146816E0,-3.828516304E-1
8.092791456E0,6.214160442E0,-7.056434155E0,-7.872386575E-1
8.097546508E0,6.240481377E0,-7.010970116E0,-1.110269666E0
8.102301560E0,6.216553211E0,-7.087540627E0,-1.299302697E0
8.107056612E0,6.312266350E0,-7.310073376E0,-1.409372568E0
8.111811612E0,6.515655994E0,-7.680960655E0,-1.497906923E0
8.116566664E0,6.762116909E0,-8.109275818E0,-1.691725612E0
8.121321716E0,6.958328247E0,-8.618947029E0,-2.014756680E0
8.126076768E0,6.999006271E0,-9.171689034E0,-2.371287346E0
8.130831768E0,6.900900364E0,-9.664610863E0,-2.689532757E0
8.135586820E0,6.685546398E0,-1.022931671E1,-2.787638426E0
8.140341872E0,6.455835342E0,-1.075334454E1,-2.543570518E0
8.145096924E0,6.226124287E0,-1.122951698E1,-1.923829436E0
8.149851924E0,5.972485542E0,-1.159561825E1,-1.189232826E0
8.154606977E0,5.606383324E0,-1.189472103E1,-4.067798555E-1
8.159362029E0,5.139782906E0,-1.203350544E1,2.512463629E-1
8.164117081E0,4.584648132E0,-1.213639641E1,7.609176040E-1
8.168872081E0,4.070191383E0,-1.221775246E1,9.643075466E-1
8.173627133E0,3.603590965E0,-1.226800156E1,8.925228715E-1
8.178382185E0,3.280559778E0,-1.231585789E1,6.771687865E-1
8.183137237E0,3.213560820E0,-1.223450184E1,5.120640397E-1
8.187892237E0,3.268595695E0,-1.211246777E1,4.283152521E-1
8.192647289E0,3.393022537E0,-1.197846985E1,3.326023519E-1
8.197402341E0,3.613162279E0,-1.176790142E1,2.488535494E-1
8.202157393E0,3.926621914E0,-1.148076344E1,1.100698411E-1
8.206912445E0,4.323830605E0,-1.121037388E1,-1.076770201E-1
8.211667445E0,4.716253281E0,-1.087777138E1,-3.158525825E-1
8.216422497E0,4.905286312E0,-1.047099209E1,-4.450650215E-1
8.221177549E0,4.747360229E0,-1.016710377E1,-5.527420044E-1
8.225932602E0,4.180261135E0,-9.908679008E0,-8.470591903E-1
8.230687602E0,3.543770313E0,-9.750752449E0,-1.301695466E0
8.235442654E0,2.813959360E0,-9.238688469E0,-1.574477315E0
8.240197706E0,2.158325911E0,-8.961120605E0,-1.722832322E0
8.244952758E0,1.734796405E0,-8.827122688E0,-1.679761529E0
8.249707758E0,1.584048629E0,-8.537590981E0,-1.603191137E0
8.254462810E0,1.813759565E0,-8.317451477E0,-1.631905079E0
8.259217862E0,2.368894339E0,-7.853243828E0,-1.825723648E0
8.263972914E0,2.988635540E0,-7.238288403E0,-2.026720762E0
8.268727914E0,3.527020693E0,-6.946363926E0,-2.127219439E0
8.273482966E0,4.285545349E0,-6.924828529E0,-2.100898266E0
8.278238018E0,5.297709465E0,-6.671189308E0,-1.689332843E0
8.282993070E0,6.496513367E0,-6.917650223E0,-9.571290612E-1
8.287748070E0,7.647460938E0,-7.628318787E0,-4.307080805E-2
8.292503122E0,8.152346611E0,-8.255238533E0,7.585247755E-1
8.297258174E0,8.422736168E0,-8.618947029E0,1.143769264E0
8.302013227E0,8.906085968E0,-9.078369141E0,1.043270707E0
8.306768279E0,9.274580956E0,-9.083154678E0,7.202396393E-1
8.311523279E0,9.480362892E0,-9.131011009E0,1.196411327E-1
8.316278331E0,9.592825890E0,-9.169296265E0,-6.317051649E-1
8.321033383E0,9.671789169E0,-9.095118523E0,-1.268195987E0
8.325788435E0,9.652647018E0,-9.059226990E0,-1.655833244E0
8.330543435E0,9.683753014E0,-8.896514893E0,-1.500299811E0
8.335298487E0,9.592825890E0,-8.575876236E0,-8.279166222E-1
8.340053539E0,9.466006279E0,-8.293522835E0,-9.571290575E-3
8.344808591E0,9.346364975E0,-8.099704742E0,7.130611539E-1
8.349563591E0,9.099904060E0,-8.104490280E0,1.165304661E0
8.354318643E0,8.831908226E0,-8.176275253E0,1.363908887E0
8.359073695E0,8.394021988E0,-8.204988480E0,1.330409408E0
8.363828747E0,7.556533813E0,-8.157132149E0,1.014556766E0
8.368583747E0,6.391229153E0,-8.173882484E0,5.335994363E-1
8.373338799E0,5.273781300E0,-8.142775536E0,9.332008660E-2
8.378093852E0,4.560719967E0,-8.008777618E0,-3.254238665E-1
8.382848904E0,4.469792843E0,-7.769495010E0,-6.293123364E-1
8.387603956E0,4.945964336E0,-7.640282631E0,-7.226324677E-1
8.392358956E0,5.417350292E0,-7.238288403E0,-5.048855543E-1
8.397114008E0,5.618347645E0,-6.860222340E0,-1.339980662E-1
8.401869060E0,5.670989513E0,-6.556334019E0,3.278166950E-1
8.406624112E0,5.496313572E0,-6.283552170E0,8.135597110E-1
8.411379112E0,5.199603558E0,-6.034698486E0,1.237089276E0
8.416134164E0,4.914857864E0,-5.836094379E0,1.440479279E0
8.420889216E0,4.802394867E0,-5.687739372E0,1.399801254E0
8.425644268E0,4.850251675E0,-5.601597786E0,1.048056364E0
8.430399268E0,5.173282623E0,-5.558526993E0,5.168496966E-1
8.435154320E0,5.690132141E0,-5.613562107E0,9.571290575E-3
8.439909372E0,6.379265308E0,-5.663811207E0,-4.163511395E-1
8.444664424E0,7.161718369E0,-5.790630817E0,-6.532405615E-1
8.449419424E0,7.960920811E0,-5.893522263E0,-6.675975323E-1
8.454174477E0,8.748159409E0,-6.075376511E0,-5.000999570E-1
8.458929529E0,9.415757179E0,-6.348158360E0,-2.440679073E-1
8.463684581E0,9.990034103E0,-6.678368092E0,-4.546362907E-2
8.468439581E0,1.042792130E1,-7.058826923E0,1.100698411E-1
8.473194633E0,1.055234814E1,-7.434499741E0,1.698904037E-1
8.477949685E0,1.028913784E1,-7.755138397E0,1.866401732E-1
8.482704737E0,9.585647583E0,-7.982456207E0,2.488535494E-1
8.487459789E0,8.571090698E0,-7.999206066E0,-1.483550072E-1
8.492214789E0,7.417750359E0,-8.032705307E0,-3.541377485E-1
8.496969841E0,6.611369133E0,-7.747959614E0,-3.278166950E-1
8.501724893E0,6.192625046E0,-7.398607731E0,-3.948157430E-1
8.506479945E0,6.233303070E0,-6.879364967E0,-4.378865361E-1
8.511234945E0,6.754938126E0,-6.364908218E0,-5.407779217E-1
8.515989997E0,7.367500782E0,-5.970092297E0,-5.264210105E-1
8.520745049E0,7.735995770E0,-5.678168297E0,-3.445664644E-1
8.525500102E0,7.733603001E0,-5.606383324E0,-2.632104978E-2
8.530255102E0,7.721638680E0,-5.771488190E0,4.187439680E-1
8.535010154E0,7.802994728E0,-5.936593056E0,8.255237937E-1
8.539765206E0,7.963313580E0,-6.087340832E0,1.079162955E0
8.544520258E0,8.202595711E0,-6.312266350E0,1.103091240E0
8.549275310E0,8.422736168E0,-6.568298340E0,9.116654396E-1
8.554030310E0,8.743373871E0,-6.915257454E0,5.766702294E-1
8.558785362E0,9.305686951E0,-7.401000500E0,2.608176768E-1
8.563540414E0,1.006899738E1,-8.123632431E0,-6.699903309E-2
8.568295466E0,1.071506023E1,-8.724231720E0,-1.746760458E-1
8.573050518E0,1.101655579E1,-9.226723671E0,-1.986042857E-1
8.577805518E0,1.132283688E1,-9.614361763E0,5.742774159E-2
8.582560570E0,1.106441212E1,-1.001156998E1,-3.996013701E-1
8.587315622E0,9.896714211E0,-1.066481018E1,-8.925228715E-1
8.592070674E0,7.980063438E0,-1.057388306E1,-1.296909928E0
8.596825674E0,5.970092297E0,-1.069591713E1,-1.952543259E0
8.601580727E0,4.536791801E0,-1.089212894E1,-2.349751949E0
8.606335779E0,3.814159393E0,-1.089452171E1,-2.225325108E0
8.611090831E0,3.495913982E0,-1.080120182E1,-1.765903115E0
8.615845831E0,3.017349243E0,-1.058824062E1,-1.143769264E0
8.620600883E0,2.287538528E0,-1.019581699E1,-5.120640397E-1
8.625355935E0,1.607976794E0,-9.616754532E0,-8.853443712E-2
8.630110987E0,1.263410330E0,-8.851051331E0,1.244267747E-1
8.634866039E0,1.296909928E0,-7.869993687E0,2.727817893E-1
8.639621039E0,1.485942841E0,-6.924828529E0,2.177468538E-1
8.644376091E0,1.768295884E0,-5.974878311E0,1.986042857E-1
8.649131143E0,2.182254314E0,-5.041677475E0,9.332008660E-2
8.653886195E0,2.538784742E0,-4.175475597E0,-1.244267747E-1
8.658641247E0,2.754138947E0,-3.314059258E0,-5.766702294E-1
8.663396247E0,2.916850805E0,-2.567498684E0,-9.595218897E-1
8.668151299E0,2.842673302E0,-1.885544300E0,-1.112662554E0
8.672906352E0,2.730210543E0,-1.471585870E0,-9.236295223E-1
8.677661404E0,2.483749866E0,-1.201196909E0,-4.378865361E-1
8.682416404E0,2.081755638E0,-8.374879360E-1,3.828516304E-1
8.687171456E0,1.591227055E0,-7.585247755E-1,1.272981644E0
8.691926508E0,1.225125194E0,-7.178468108E-1,2.124826431E0
8.696681560E0,1.519442320E0,-8.015955687E-1,2.782852650E0
8.701436612E0,2.029113531E0,-9.116654396E-1,3.139383316E0
8.706191612E0,2.600998163E0,-9.140582681E-1,2.864208698E0
8.710946664E0,3.261417150E0,-7.752745152E-1,1.950150490E0
8.715701716E0,4.146761417E0,-6.460621357E-1,8.015955687E-1
8.720456768E0,4.737788677E0,-7.058826685E-1,-2.081755698E-1
8.725211820E0,4.907679081E0,-9.475577474E-1,-7.920243144E-1
8.729966820E0,4.972285271E0,-1.462014675E0,-7.345965505E-1
8.734721872E0,5.381458282E0,-2.213361025E0,-3.134597540E-1
8.739476924E0,6.123233318E0,-3.134597778E0,1.172483116E-1
8.744231977E0,7.125825882E0,-3.969692707E0,2.847459018E-1
8.748987029E0,8.377271652E0,-4.642076015E0,7.178467698E-3
8.753742029E0,9.683753014E0,-5.123033047E0,-6.532405615E-1
8.758497081E0,1.095194912E1,-5.510670662E0,-1.607976794E0
8.763252133E0,1.183490086E1,-5.778666496E0,-2.469393015E0
8.768007185E0,1.194257736E1,-5.905486107E0,-2.861815929E0
8.772762237E0,1.100459099E1,-6.029912949E0,-2.773281336E0
8.777517237E0,9.310472488E0,-6.173482418E0,-2.268395901E0
8.782272289E0,7.453642368E0,-6.496513367E0,-1.586441398E0
8.787027341E0,5.965306759E0,-6.857829571E0,-8.542376757E-1
8.791782393E0,5.072783947E0,-7.123433113E0,-1.411765367E-1
8.796537445E0,4.931607246E0,-7.101897717E0,2.344966233E-1
8.801292497E0,5.395814896E0,-6.577869415E0,-6.460621208E-2
8.806047497E0,5.898307800E0,-5.910272121E0,-9.954141974E-1
8.810802549E0,5.843272686E0,-5.309673309E0,-1.978864312E0
8.815557602E0,5.395814896E0,-4.881358147E0,-2.610569477E0
8.820312654E0,4.957928658E0,-4.476971149E0,-2.756531715E0
8.825067706E0,4.694717884E0,-4.106083870E0,-2.555534601E0
8.829822706E0,4.780859470E0,-3.763910055E0,-2.072184324E0
8.834577758E0,5.108676434E0,-3.361915827E0,-1.536192179E0
8.839332810E0,5.536991596E0,-3.007778168E0,-1.249053478E0
8.844087862E0,5.998806477E0,-2.758924484E0,-1.299302697E0
8.848842914E0,6.106483459E0,-2.778067112E0,-1.426122308E0
8.853597966E0,5.759523869E0,-2.904886723E0,-1.332802176E0
8.858352966E0,5.314459324E0,-3.101098061E0,-1.179661512E0
8.863108018E0,4.926821709E0,-3.237488985E0,-1.210768223E0
8.867863070E0,4.555934429E0,-3.345165968E0,-1.191625714E0
8.872618122E0,4.378865242E0,-3.457628727E0,-1.074377418E0
8.877373174E0,4.359723091E0,-3.546163082E0,-1.033699393E0
8.882128174E0,4.395615101E0,-3.596412420E0,-1.203589797E0
8.886883227E0,4.290330887E0,-3.639483213E0,-1.402194023E0
8.891638279E0,4.063013077E0,-3.706482172E0,-1.600798368E0
8.896393331E0,3.845266104E0,-3.728017569E0,-1.746760488E0
8.901148383E0,3.670589924E0,-3.699303865E0,-1.777867198E0
8.905903435E0,3.505485058E0,-3.589233875E0,-1.739582062E0
8.910658435E0,3.620340586E0,-3.538984776E0,-1.574477315E0
8.915413487E0,3.725624800E0,-3.299702406E0,-1.466800332E0
8.920168539E0,3.907479286E0,-2.979064226E0,-1.490728498E0
8.924923591E0,4.292723656E0,-2.732603550E0,-1.643869162E0
8.929678643E0,4.838287354E0,-2.467000246E0,-1.739582062E0
8.934433695E0,5.513063431E0,-2.206182480E0,-1.787438512E0
8.939188695E0,6.214160442E0,-2.048256159E0,-1.868794441E0
8.943943747E0,6.884150982E0,-1.978864312E0,-2.029113531E0
8.948698799E0,7.463213921E0,-1.981257200E0,-2.084148407E0
8.953453852E0,8.020741463E0,-2.081755638E0,-1.988435626E0
8.958208904E0,8.571090698E0,-2.239681959E0,-1.725225091E0
8.962963904E0,9.073583603E0,-2.486142635E0,-1.395015597E0
8.967718956E0,9.451649666E0,-2.825923443E0,-1.050449133E0
8.972474008E0,9.626325607E0,-3.309273720E0,-7.441678643E-1
8.977229060E0,9.683753014E0,-3.991228104E0,-5.288137794E-1
8.981984112E0,9.710074425E0,-4.905286312E0,-5.240281820E-1
8.986739164E0,9.719645500E0,-6.159125328E0,-7.489534616E-1
8.991494164E0,9.827322960E0,-7.432106972E0,-9.714859724E-1
8.996249216E0,9.858428955E0,-8.616554260E0,-1.155733347E0
9.001004268E0,9.839286804E0,-9.597611427E0,-1.215553880E0
9.005759320E0,9.772287369E0,-1.035374355E1,-1.275374413E0
9.010514372E0,9.772287369E0,-1.097587776E1,-1.261017561E0
9.015269424E0,9.635896683E0,-1.142812061E1,-1.265803218E0
9.020024477E0,9.377471924E0,-1.166022491E1,-1.380658627E0
9.024779477E0,8.858229637E0,-1.177508068E1,-1.505085468E0
9.029534529E0,8.221738815E0,-1.180379391E1,-1.512263894E0
9.034289581E0,7.467999458E0,-1.163868904E1,-1.418943882E0
9.039044633E0,6.783652306E0,-1.129172993E1,-1.304088354E0
9.043799685E0,6.096911907E0,-1.096391296E1,-1.081555843E0
9.048554737E0,5.527420521E0,-1.045184898E1,-7.752745152E-1
9.053309789E0,5.020142078E0,-9.805787086E0,-3.804588020E-1
9.058064841E0,4.661218643E0,-9.095118523E0,-1.627119333E-1
9.062819841E0,4.498506546E0,-8.372486115E0,-5.742774159E-2
9.067574893E0,4.570291042E0,-7.685746193E0,-1.698904037E-1
9.072329945E0,5.041677475E0,-7.156932354E0,-3.541377485E-1
9.077084997E0,5.879165173E0,-6.762116909E0,-4.091726840E-1
9.081840049E0,6.905686378E0,-6.477370739E0,-3.134597540E-1
9.086595102E0,7.846065521E0,-6.276373863E0,-2.105683982E-1
9.091350102E0,8.726624489E0,-6.192625046E0,-1.148554832E-1
9.096105154E0,9.391828537E0,-6.190232277E0,4.067798331E-2
9.100860206E0,9.700503349E0,-6.357729912E0,2.033899277E-1
9.105615258E0,9.875179291E0,-6.716653347E0,3.110669553E-1
9.110370310E0,9.870393753E0,-7.283751965E0,1.818545163E-1
9.115125362E0,9.772287369E0,-8.090133667E0,-1.387837082E-1
9.119880414E0,9.544969559E0,-8.951549530E0,-3.756731451E-1
9.124635414E0,9.422935486E0,-9.803394318E0,-3.804588020E-1
9.129390466E0,9.353543282E0,-1.065523911E1,-2.632105052E-1
9.134145518E0,9.312865257E0,-1.144965649E1,-5.264209956E-2
9.138900570E0,9.272188187E0,-1.227517986E1,2.249253243E-1
9.143655622E0,9.183652878E0,-1.309591866E1,4.689932466E-1
9.148410674E0,8.903693199E0,-1.385204983E1,5.934200287E-1
9.153165727E0,8.583054543E0,-1.452204037E1,6.077769399E-1
9.157920779E0,8.111668587E0,-1.497906971E1,4.881358147E-1
9.162675779E0,7.630711555E0,-1.518724537E1,3.445664644E-1
9.167430831E0,7.056434155E0,-1.513938904E1,1.220339537E-1
9.172185883E0,6.321837425E0,-1.473260880E1,-9.571290761E-2
9.176940935E0,5.532206059E0,-1.397647667E1,-2.823530734E-1
9.181695987E0,4.680361271E0,-1.297867012E1,-4.115654826E-1
9.186451039E0,3.756731510E0,-1.182532978E1,-4.139583111E-1
9.191206091E0,2.924029350E0,-1.061695385E1,-3.014956415E-1
9.195961143E0,2.361716032E0,-9.576076508E0,-2.177468538E-1
9.200716195E0,2.067398787E0,-8.645268440E0,-1.555334777E-1
9.205471195E0,2.014756680E0,-7.846065521E0,-7.896314561E-2
9.210226247E0,2.222932339E0,-7.188039303E0,3.828516230E-2
9.214981299E0,2.699103832E0,-6.707081795E0,1.722832322E-1
9.219736352E0,3.383451223E0,-6.331408501E0,2.703889608E-1
9.224491404E0,4.170690060E0,-6.051448345E0,3.110669553E-1
9.229246456E0,4.869394302E0,-5.848058701E0,3.086741269E-1
9.234001508E0,5.400600910E0,-5.704489231E0,1.938186288E-1
9.238756560E0,5.759523869E0,-5.517848969E0,-4.307080805E-2
9.243511560E0,5.903093338E0,-5.319244862E0,-3.469592929E-1
9.248266612E0,5.941378593E0,-5.123033047E0,-7.202396393E-1
9.253021664E0,5.867201328E0,-4.898108006E0,-9.810572863E-1
9.257776716E0,5.826523304E0,-4.766502857E0,-1.069591761E0
9.262531768E0,5.836094379E0,-4.807180882E0,-1.100698471E0
9.267286820E0,5.943771362E0,-5.077569485E0,-1.380658627E0
9.272041872E0,6.228517532E0,-5.491528034E0,-1.792224169E0
9.276796924E0,6.747759819E0,-6.051448345E0,-1.880758643E0
9.281551977E0,7.403393269E0,-6.522834301E0,-1.540977836E0
9.286307029E0,7.915457249E0,-6.915257454E0,-1.194018483E0
9.291062029E0,8.099704742E0,-7.200003147E0,-1.119840980E0
9.295817081E0,7.963313580E0,-7.546962738E0,-1.447657704E0
9.300572133E0,7.664210796E0,-7.992027760E0,-2.148754835E0
9.305327185E0,7.424928665E0,-8.628518105E0,-3.170490026E0
9.310082237E0,7.422535896E0,-9.470791817E0,-4.304687977E0
9.314837289E0,7.695317745E0,-1.044706345E1,-5.072783947E0
9.319592341E0,8.228917122E0,-1.148076344E1,-5.096712112E0
9.324347393E0,8.846264839E0,-1.240199947E1,-4.460221291E0
9.329102445E0,9.444471359E0,-1.315813160E1,-3.510270834E0
9.333857445E0,9.982855797E0,-1.374676609E1,-2.581855536E0
9.338612497E0,1.051406288E1,-1.422772312E1,-1.713261008E0
9.343367549E0,1.090648556E1,-1.455554008E1,-1.050449133E0
9.348122602E0,1.113141060E1,-1.467757416E1,-5.742774606E-1
9.352877654E0,1.104526901E1,-1.461536026E1,-3.326023519E-1
9.357632706E0,1.056191921E1,-1.425165176E1,-1.866401732E-1
9.362387758E0,9.664610863E0,-1.376112270E1,-1.842473447E-1
9.367142810E0,8.434700012E0,-1.304088306E1,-2.991028428E-1
9.371897862E0,7.219145775E0,-1.222253799E1,-5.096712112E-1
9.376652914E0,6.187839508E0,-1.146162033E1,-7.345965505E-1
9.381407966E0,5.292923450E0,-1.076530933E1,-9.212366939E-1
9.386163018E0,4.536791801E0,-1.015274620E1,-1.055234790E0
9.390918070E0,3.938585997E0,-9.619147301E0,-1.220339537E0
9.395673070E0,3.500699520E0,-9.186046600E0,-1.397408366E0
9.400428122E0,3.127419233E0,-8.839086533E0,-1.493121386E0
9.405183174E0,2.670390129E0,-8.578269005E0,-1.380658627E0
9.409938227E0,2.112862349E0,-8.401200294E0,-1.160519004E0
9.414693279E0,1.529013634E0,-8.260024071E0,-9.044869542E-1
9.419448331E0,1.028913736E0,-8.231309891E0,-6.317051649E-1
9.424203383E0,7.178468108E-1,-8.243273735E0,-3.469592929E-1
9.428958435E0,6.747759581E-1,-8.370093346E0,-1.938186288E-1
9.433713487E0,9.284151793E-1,-8.595019341E0,-1.292124242E-1
9.438468539E0,1.385444283E0,-8.927620888E0,-1.914258152E-1
9.443223591E0,1.988435626E0,-9.262616158E0,-3.278166950E-1
9.447978643E0,2.641676188E0,-9.576076508E0,-4.378865361E-1
9.452733695E0,3.304488182E0,-9.856036186E0,-3.756731451E-1
9.457488695E0,3.986442566E0,-1.006660461E1,-7.657032460E-2
9.462243747E0,4.658825874E0,-1.020299530E1,3.828516304E-1
9.466998799E0,5.149354458E0,-1.029631615E1,9.020941257E-1
9.471753852E0,5.534598827E0,-1.026281643E1,1.421336651E0
9.476508904E0,5.864808083E0,-1.012642574E1,1.739582062E0
9.481263956E0,6.113661766E0,-9.915857315E0,1.883151412E0
9.486019008E0,6.407979012E0,-9.662218094E0,1.746760488E0
9.490774060E0,6.678368092E0,-9.343972206E0,1.330409408E0
9.495529112E0,7.006184578E0,-9.032905579E0,6.460621357E-1
9.500284164E0,7.389036179E0,-8.697910309E0,-8.614161611E-2
9.505039216E0,7.685746193E0,-8.336593628E0,-6.269195080E-1
9.509794268E0,7.922635555E0,-8.020741463E0,-9.714859724E-1
9.514549320E0,8.161917686E0,-7.740781307E0,-1.100698471E0
9.519304372E0,8.422736168E0,-7.475177765E0,-1.110269666E0
9.524059424E0,8.678768158E0,-7.233502865E0,-1.062413216E0
9.528814424E0,8.903693199E0,-7.013363361E0,-9.810572863E-1
9.533569477E0,9.042476654E0,-6.814758778E0,-8.853443861E-1
9.538324529E0,9.245866776E0,-6.568298340E0,-7.728816867E-1
9.543079581E0,9.523433685E0,-6.355337143E0,-6.843472719E-1
9.547834633E0,9.970891953E0,-6.123233318E0,-6.173482537E-1
9.552589685E0,1.010728264E1,-5.998806477E0,-4.737788737E-1
9.557344737E0,1.000678444E1,-5.891129494E0,-3.038884699E-1
9.562099789E0,9.573683739E0,-5.793023586E0,-4.546362907E-2
9.566854841E0,8.855836868E0,-5.759523869E0,3.852444589E-1
9.571609893E0,7.783852100E0,-5.721239090E0,8.709874153E-1
9.576364945E0,6.656832695E0,-5.627918720E0,1.287338614E0
9.581119997E0,5.793023586E0,-5.505885124E0,1.430907965E0
9.585875049E0,5.352744102E0,-5.328815937E0,1.191625714E0
9.590630102E0,5.388636589E0,-5.170889854E0,6.436693072E-1
9.595385154E0,5.831308842E0,-5.067998409E0,-1.196411345E-2
9.600140206E0,6.668796539E0,-5.089533806E0,-5.096712112E-1
9.604895258E0,7.633104324E0,-5.213960648E0,-6.221339107E-1
9.609650310E0,8.532805443E0,-5.486742496E0,-5.431707501E-1
9.614405310E0,9.272188187E0,-6.003592014E0,-4.426721931E-1
9.619160362E0,9.781859398E0,-6.692724705E0,-3.469592929E-1
9.623915414E0,9.956535339E0,-7.558926582E0,-4.187439680E-1
9.628670466E0,9.793823242E0,-8.551948547E0,-6.628118753E-1
9.633425518E0,9.322437286E0,-9.470791817E0,-9.738788009E-1
9.638180570E0,8.803194046E0,-9.999606133E0,-9.403793216E-1
9.642935622E0,7.757531166E0,-1.099980545E1,-1.471585870E0
9.647690674E0,6.800402164E0,-1.125583744E1,-1.301695466E0
9.652445727E0,6.211767673E0,-1.135155106E1,-1.028913736E0
9.657200779E0,6.257231236E0,-1.129890823E1,-6.101697683E-1
9.661955831E0,7.077969551E0,-1.095434189E1,-3.828516230E-2
9.666710883E0,8.111668587E0,-1.057388306E1,4.235295951E-1
9.671465935E0,8.877371788E0,-1.026520920E1,6.987041831E-1
9.676220987E0,9.509077072E0,-1.008335495E1,6.628118753E-1
9.680976039E0,1.019342422E1,-9.884750366E0,2.584248483E-1
9.685731091E0,1.116969585E1,-9.573683739E0,-4.426721931E-1
9.690486143E0,1.235175037E1,-9.188439369E0,-1.215553880E0
9.695241195E0,1.336870003E1,-8.874979019E0,-1.806581140E0
9.699996247E0,1.391187096E1,-8.736195564E0,-2.187039852E0
9.704751299E0,1.363669586E1,-8.827122688E0,-2.428714991E0
9.709506352E0,1.243310642E1,-9.092725754E0,-2.419143677E0
9.714261404E0,1.085145092E1,-9.358329773E0,-2.361716032E0
9.719016456E0,9.430113792E0,-9.511469841E0,-2.122433662E0
9.723771508E0,8.511270523E0,-9.576076508E0,-1.837687731E0
9.728526560E0,8.128418922E0,-9.446864128E0,-1.440479279E0
9.733281560E0,8.202595711E0,-9.090332985E0,-1.081555843E0
9.738036664E0,8.305487633E0,-8.621339798E0,-7.968099117E-1
9.742791664E0,8.367700577E0,-8.070990562E0,-5.335994363E-1
9.747546716E0,8.140382767E0,-7.491927624E0,-3.708875179E-1
9.752301768E0,7.654639721E0,-6.979863644E0,-3.086741269E-1
9.757056820E0,6.943971157E0,-6.498906136E0,-3.158525825E-1
9.761811872E0,6.319444656E0,-6.151947021E0,-3.469592929E-1
9.766566924E0,5.398207664E0,-5.613562107E0,-4.953143001E-1
9.771321977E0,4.615755081E0,-5.178068161E0,-7.728816867E-1
9.776077029E0,4.046263218E0,-4.618147850E0,-1.091127157E0
9.780832081E0,3.699303865E0,-4.005585194E0,-1.442872047E0
9.785587133E0,3.235096216E0,-3.373879910E0,-1.593619823E0
9.790342185E0,2.646461725E0,-2.782852650E0,-1.495514154E0
9.795097237E0,1.907079697E0,-2.222932339E0,-1.239482164E0
9.799852289E0,1.265803218E0,-1.775474429E0,-7.345965505E-1
9.804607341E0,7.848458290E-1,-1.471585870E0,1.914258115E-2
9.809362393E0,1.507478207E-1,-1.076770186E0,9.547362328E-1
9.814117445E0,-4.689932466E-1,-6.939185858E-1,1.674975872E0
9.818872497E0,-8.590233326E-1,-3.493520916E-1,2.067398787E0
9.823627549E0,-1.550549030E0,-8.614161611E-2,1.947757602E0
