Time (s),Acceleration x (m/s^2),Acceleration y (m/s^2),Acceleration z (m/s^2)
9.001004268,0.5806190969162379,0.6017060255300971,0.13757271106807634
9.00575932,0.331478737232414,0.7614883946701668,0.17420873918102894
9.010514372,0.09496002220386558,0.9112199547292924,0.21001345706307917
9.015269424,-0.12505736333841225,1.0487044506050103,0.24505081566481846
9.020024477,-0.3251125798779075,1.171823734821338,0.27941323012938646
9.024779477,-0.502248757829435,1.2785673467466199,0.3132164071675153
9.029534529,-0.6540872961393386,1.367065908890148,0.3465938536015302
9.034289581,-0.7788892758653735,1.4356282506966291,0.3796912382779556
9.039044633,-0.8756021359670556,1.4827818214016841,0.4126607523206475
9.043799685,-0.9438900233108078,1.5073155926554853,0.4456555763730062
9.048554737,-0.9841465577747136,1.5083243001795061,0.4788245223146161
9.053309789,-0.9974891470017737,1.4852525528351803,0.5123068767342687
9.058064841,-0.9857344389941242,1.4379370671168128,0.5462274403566469
9.062819841,-0.9513550046949357,1.3666450833633725,0.5806917372829182
9.067574893,-0.8974178832635288,1.2721069028834318,0.6157813640324352
9.072329945,-0.8275061825485245,1.1555404655426238,0.6515494608724142
9.077084997,-0.7456254851703504,1.0186659731589818,0.6880163120818731
9.081840049,-0.65609734153748,0.8637087569891514,0.7251651098935548
9.086595102,-0.5634426065839145,0.6933888827335865,0.7629379416827209
9.091350102,-0.472257767847299,0.5108963731586857,0.8012320780513553
9.096105154,-0.387087693552072,0.31985139191393214,0.8398966516624443
9.100860206,-0.31229838423885564,0.12424925526172172,0.8787298260800372
9.105615258,-0.25195333483174503,-0.0716092976136945,0.9174765632280645
9.11037031,-0.20969701091342982,-0.26320156089597385,0.9558271088696025
9.115125362,-0.18864872642198888,-0.44587844852668945,0.9934163276650995
9.119880414,-0.19130989758503444,-0.6149700598233749,1.029824030418556
9.124635414,-0.2194872584351981,-0.7658985725344037,1.0645764405701297
9.129390466,-0.27423417445176546,-0.8942953895431228,1.0971489381095159
9.134145518,-0.3558116983108229,-0.9961191443639149,1.126970192937394
9.13890057,-0.4636704880405683,-1.067770966763876,1.1534277581676613
9.143655622,-0.5964541628954958,-1.1062033334805828,1.1758751438588169
9.148410674,-0.7520241144671612,-1.109018885134711,1.1936403417042034
9.153165727,-0.9275052291717338,-1.0745557801880328,1.2060357281591871
9.157920779,-1.1193514247922498,-1.0019564777625558,1.212369240752633
9.162675779,-1.3234293722696155,-0.8912172866766653,1.211956699376187
9.167430831,-1.5351182800817165,-0.7432165761301902,1.204135127351362
9.172185883,-1.7494231779340095,-0.5597201958100958,1.1882769106392015
9.176940935,-1.9610987634889578,-0.3433633753108792,1.1638046125705561
9.181695987,-2.1647805834244673,-0.0976091348446757,1.1302062324066215
9.186451039,-2.3551201198862266,0.17331599242375714,1.0870506575754955
9.191206091,-2.526920255342192,0.4645073867348063,1.0340030128069895
9.195961143,-2.6752676000842373,0.7704867005031382,0.9708395585055187
9.200716195,-2.7956582899062017,1.0853223480171468,0.8974617416805106
9.205471195,-2.884114093387057,1.4027628515392636,0.8139089625802336
9.210226247,-2.937285997721583,1.7163794200233349,0.7203695948450964
9.214981299,-2.952542851009138,2.019713914504836,0.6171897904457656
9.219736352,-2.9280431043335584,2.306428256199859,0.504879615162604
9.224491404,-2.862788193724867,2.570451352310346,0.3841160973859912
9.229246456,-2.7566566051216324,2.806119740501495,0.2557428333913275
9.234001508,-2.610418151910123,3.0083083743377395,0.1207658753969297
9.23875656,-2.425728446564758,3.172548276392417,-0.019654267959239222
9.24351156,-2.2051039547204976,3.295128161285811,-0.16421457034230677
9.248266612,-1.951878379063367,3.373177566400355,-0.3114852897560119
9.253021664,-1.6701414356898816,3.4047295135514237,-0.45992942971147466
9.257776716,-1.3646613647744106,3.3887612516575967,-0.6079255343106724
9.262531768,-1.0407927689649956,3.32521218996446,-0.7537933844812074
9.26728682,-0.7043716036321709,3.214978714179265,-0.8958220713499854
9.272041872,-0.3615993562233095,3.0598861721378565,-1.032299847337027
9.276796924,-0.018918646636949338,2.862638906136742,-1.1615450949671218
9.281551977,0.31711734836601363,2.6267497776007906,-1.2819377087853294
9.286307029,0.6399791049046949,2.356451157244158,-1.391950159283017
9.291062029,0.9432959583849735,2.056589823521573,-1.490177498015536
9.295817081,1.2209896259235125,1.7325086120519144,-1.5753655634457517
9.300572133,1.4674033770453059,1.3899179824501788,-1.6464366505792538
9.305327185,1.6774242490287308,1.0347609139529874,-1.7025119147645318
9.310082237,1.8465958073744524,0.6730747051987989,-1.7429298023867634
9.314837289,1.9712190841884112,0.310853332307935,-1.7672598570696636
9.319592341,2.048439481653613,-0.04608599386769628,-1.775311357827809
9.324347393,2.0763176067955973,-0.39222854387275513,-1.7671364155131282
9.329102445,2.0538822174946434,-0.7224767517648694,-1.7430273807887129
9.333857445,1.981163721332061,-1.0322508842997824,-1.7035086783110922
9.338612497,1.8592069894603813,-1.317573149886108,-1.6493234436969606
9.343367549,1.6900626327090065,-1.5751332221837637,-1.5814155677103017
9.348122602,1.476756335554341,-1.8023337476853347,-1.500907921237781
9.352877654,1.2232363487426747,-1.9973150518172866,-1.4090776340243036
9.357632706,0.9342997915746138,-2.15895893067873,-1.3073293307485454
9.362387758,0.6154989930074221,-2.286872090721245,-1.1971671987854562
9.36714281,0.27302968356657037,-2.3813504504034184,-1.0801666861676857
9.371897862,-0.08639659129010113,-2.4433261196211657,-0.9579465204472569
9.376652914,-0.455692963065275,-2.47429939919985,-0.8321416136256181
9.381407966,-0.8275473471664604,-2.4762585718378474,-0.7043772881543381
9.386163018,-1.1945785654140721,-2.451590570833142,-0.5762451355166207
9.39091807,-1.5494946937894833,-2.4029858039456555,-0.44928071070640946
9.39567307,-1.8852497733734421,-2.333340474577762,-0.32494317837793124
9.400428122,-2.195195063803061,-2.245659685247135,-0.20459696205795475
9.405183174,-2.473221163548603,-2.142964437958788,-0.08949540734444124
9.409938227,-2.7138875589956455,-2.0282053748195112,0.019233547192179422
9.414693279,-2.912536484411565,-1.9041857448417023,0.12059969456320148
9.419448331,-3.065388369312426,-1.773495655876391,0.21376086505261302
9.424203383,-3.169616612651793,-1.6384591915748807,0.2980311749826261
9.428958435,-3.2233999486295386,-1.50109546031252,0.3728871583547935
9.433713487,-3.2259512474076435,-1.3630941144812205,0.4379717063711762
9.438468539,-3.1775222106985437,-1.2258053529590942,0.4930957351760848
9.443223591,-3.079384056483403,-1.0902439153270025,0.538237507345231
9.447978643,-2.933784914775669,-0.9571061114191001,0.5735395447139573
9.452733695,-2.7438852526978605,-0.8267985203945702,0.5993030846519861
9.457488695,-2.5136731903172977,-0.6994766530134945,0.6159800450450968
9.462243747,-2.247862041656392,-0.5750916083638339,0.6241624742093378
9.466998799,-1.9517728063315958,-0.45344257670196747,0.6245694745575032
9.471753852,-1.631204639535922,-0.33423294417273475,0.6180316111868053
9.476508904,-1.29229653927152,-0.21712774048589545,0.6054728584241115
9.481263956,-0.9413836120296518,-0.1018102318269738,0.5878902063674614
9.486019008,-0.5848513173494104,0.0119644094771293,0.5663311479382684
9.49077406,-0.22899105556628196,0.12432023965058248,0.5418693904746738
9.495529112,0.12013964074848613,0.2352181292380069,0.5155792734651392
9.500284164,0.45684921608703866,0.3444211765176668,0.4885095096097343
9.505039216,0.7759336272405074,0.45146902999305344,0.4616569813839888
9.509794268,1.0727847018809598,0.5556618913041552,0.435941401978344
9.51454932,1.3434830371196969,0.6560546540348842,0.41218167546081336
9.519304372,1.5848735153185718,0.7514613205244766,0.39107476243652584
9.524059424,1.794621909425862,0.8404695350484167,0.37317777937783786
9.528814424,1.971251471705824,0.9214647835096298,0.3588939430568577
9.533569477,2.1141588405313327,0.9926635419894846,0.3484628287850288
9.538324529,2.2236090528952777,1.0521544135007397,0.34195525388951037
9.543079581,2.300709908206921,1.097946078098309,0.3392729351162289
9.547834633,2.347366384255082,1.1280207000129978,0.340152907346476
9.552589685,2.3662162522090306,1.1403912904367621,0.3441765364168295
9.557344737,2.360548468952534,1.1331614193252286,0.3507828150557384
9.562099789,2.3342063365809818,1.104585606293916,0.3592855015407532
9.566854841,2.2914778015753057,1.0531286999664615,0.3688935493965078
9.571609893,2.236975604940109,0.9775225761679504,0.37873418790258273
9.576364945,2.17551026916116,0.8768185465221805,0.387877952981593
9.581119997,2.111959096049135,0.75043396841653,0.39536494215697465
9.585875049,2.051134431857129,0.5981916832106478,0.40023157996738473
9.590630102,1.9976544208294569,0.42035108079962874,0.4015372308341355
9.595385154,1.955819316632984,0.2176297944859468,0.3983900767168071
9.600140206,1.929496168420549,-0.008784730513601064,0.38997177159613644
9.604895258,1.922014371566081,-0.2572342814402033,0.3755604755024211
9.60965031,1.9360742050121869,-0.5255997263245443,0.3545519425623448
9.61440531,1.9736700995128211,-0.8113215453710674,0.32647838448900673
9.619160362,2.036030019303159,-1.1114306076367977,0.29102485736436196
9.623915414,2.1235720092613763,-1.4225884476792088,0.2480429358024839
9.628670466,2.235878664704085,-1.7411360145642973,0.1975614546842441
9.633425518,2.371690016088791,-2.063149625321728,0.13979411985880977
9.63818057,2.528915073356632,-2.3845026719603744,0.07514381507528416
9.642935622,2.7046620275090563,-2.7009315167978967,0.004203458989518218
9.647690674,2.895286842440928,-3.008103969999369,-0.07224671060265973
9.652445727,3.0964596720946784,-3.3016887739643876,-0.15324552965084492
9.657200779,3.303248195093698,-3.577424613947177,-0.2376610665947669
9.661955831,3.510216568168359,-3.83118732018944,-0.3242046168670638
9.666710883,3.7115382719801313,-4.059054106228846,-0.41144857062448176
9.671465935,3.9011206855446456,-4.257363881060758,-0.49784813351261703
9.676220987,4.072738815817801,-4.422772861316445,-0.5817667890592644
9.680976039,4.2201752631146805,-4.55230488007142,-0.6615052651058577
9.685731091,4.337363245356315,-4.643395933916792,-0.735333612537086
9.690486143,4.418529346499381,-4.693932627643586,-0.8015258375660543
9.695241195,4.4583326027118435,-4.702284267185965,-0.8583963695908685
9.699996247,4.451996600031027,-4.667328417236986,-0.9043375164953684
9.704751299,4.395431435109223,-4.5884697810229325,-0.9378569745848001
9.709506352,4.2853426845091835,-4.465652279314417,-0.9576144284285959
9.714261404,4.119324921148828,-4.299364211757652,-0.9624562946196671
9.719016456,3.8959377751214874,-4.090636388343541,-0.9514477242335728
9.723771508,3.6147630158004884,-3.841033135961516,-0.9239010701052265
9.72852656,3.276441591126859,-3.5526361253962664,-0.8794001351838711
9.73328156,2.8826899728007582,-3.228021033082236,-0.8178196364496118
9.738036664,2.436295519581088,-2.8702271485623787,-0.7393394360710263
9.742791664,1.941090899901341,-2.4827201570222948,-0.6444532007505014
9.747546716,1.4019079316057335,-2.0693484574292906,-0.5339712475818549
9.752301768,0.8245115190224513,-1.6342935107442371,-0.4090174195763778
9.75705682,0.2155147034905015,-1.1820148408308568,-0.271019908507157
9.761811872,-0.4177238110576272,-0.7171904273846359,-0.12169601108071824
9.766566924,-1.0672179529002932,-0.24465333299244565,0.036969128000049124
9.771321977,-1.7244863679129516,0.2306745046599224,0.20274966015845555
9.776077029,-2.380695972184861,0.7038503085529475,0.3732118558797706
9.780832081,-3.026814397294056,1.16997925649661,0.5457523006414575
9.785587133,-3.653768550808485,1.6242829164699946,0.7176410411363982
9.790342185,-4.252606360943492,2.06216617663768,0.886069119917426
9.795097237,-4.8146586674809635,2.479281516556961,1.0481997760177906
9.799852289,-5.3316981597757565,2.871589484819922,1.201222413675208
9.804607341,-5.796092249923609,3.2354142945848072,1.34240826347659
9.809362393,-6.20094681095848,3.567493521546679,1.4691664967688576
9.814117445,-6.540237811595318,3.8650209860858658,1.579099423608031
9.818872497,-6.80892804304123,4.125682018774393,1.6700553246770538
9.823627549,-7.00306636023805,4.3476804428452365,1.7401774519968602
9.828382602,-7.119867149244195,4.529756756659592,1.7879477865247788
9.833137654,-7.157768083186052,4.671197162241754,1.8122242561368598
9.837892706,-7.116464638542614,4.771833260783081,1.8122702797329386
9.842647758,-6.996920305344421,4.832032419991064,1.7877756961893945
9.84740281,-6.801351927618383,4.85267900721665,1.7388683512714067
9.852157862,-6.533190137056713,4.83514687015738,1.6661158506116769
9.856912914,-6.197015373811737,4.781263625343194,1.57051724546391
9.861667966,-5.798470506233343,4.693267475525825,1.4534846996491113
9.866423018,-5.344151557358404,4.573757415653622,1.3168154819956062
9.87117807,-4.841478523831003,4.425637802903775,1.1626549216936328
9.875933122,-4.298548747018937,4.252058362542227,0.9934512353871877
9.880688174,-3.723975781453194,4.056350784462816,0.8119033713065233
9.885443227,-3.1267172051387546,3.8419631435825825,0.6209032132496977
9.890198279,-2.515895309669144,3.6123934577270624,0.42347364728074954
9.894953331,-1.900615048465619,3.3711237780569094,0.2227041180483836
9.899708383,-1.2897839422258814,3.121556276317595,0.0216853891337055
9.904463435,-0.6919387751162662,2.8669528286329196,-0.1765547291046839
9.909218487,-0.11508381966065472,2.610379576850344,-0.3691129159275705
9.913973539,0.433455005766629,2.3546578652805303,-0.553267425920938
9.918728591,0.9471561915282946,2.1023228046118523,-0.7265291403705139
9.923483643,1.4204057651610802,1.8555905149316152,-0.8866852244851235
9.928238695,1.8485751823827312,1.6163348580331014,-1.0318343426846626
9.932993747,2.2280725438206113,1.3860741982121387,-1.1604127562202216
9.937748799,2.556366566985226,1.1659684437376603,-1.2712110159790013
9.942503852,2.8319835629725345,0.9568263311787731,-1.3633813262607466
9.947258904,3.054478424453361,0.7591226334251218,-1.4364359650385694
9.952013956,3.2243813273962014,0.5730247083264695,-1.490237393212845
9.956769008,3.3431224930427006,0.39842756292857395,-1.524980873493835
9.96152406,3.4129379521249064,0.23499638765351927,-1.541170559095555
9.966279112,3.4367597849396656,0.08221531118395331,-1.5395901145717248
9.971034164,3.418094741385725,-0.060559062601261454,-1.5212690041450792
9.975789216,3.360895426017156,-0.19404094602137772,-1.48744562955801
9.980544268,3.2694283271354494,-0.31895724193976716,-1.439528516662345
9.98529932,3.148142868201509,-0.4359898607861416,-1.3790567313486726
9.990054372,3.001545388118021,-0.5457203965173385,-1.307660646017696
9.994809424,2.8340815551874616,-0.6485790798771759,-1.227024077126383
9.999564477,2.6500302289191957,-0.7447998722746386,-1.1388486770584914
10.00431953,2.4534112358309548,-0.8343834510128523,-1.0448212993396209
10.00907458,2.2479089402629047,-0.9170696674207767,-0.9465848792044735
10.01382963,2.036812881949639,-0.9923208352456714,-0.8457131975670932
10.01858468,1.8229761311448862,-1.0593169293476987,-0.7436897378593201
10.02333974,1.608791397828519,-1.1169634469270875,-0.6418907067745697
10.02809479,1.396184349919541,-1.1639123098688549,-0.5415721691165187
10.03284984,1.1866230759217125,-1.1985957753334155,-0.4438611374017513
10.03760489,0.9811421956052157,-1.219272884160009,-0.34975035317815806
10.04235995,0.7803797929929859,-1.2240875277027397,-0.26009639866931655
10.047115,0.5846251195835647,-1.2111367701658713,-0.17562069091589583
10.05187005,0.39387487989940406,-1.178547643205352,-0.09691284846605469
10.0566251,0.2078958464730784,-1.124560250202629,-0.024435895558832563
10.06138015,0.026291538357827767,-1.0476146951856788,0.041467213801453934
10.06613521,-0.15142927623457275,-0.9464390989531262,0.10056621516499145
10.07089026,-0.32578443108240357,-0.8201357923697127,0.152735682738116
10.07564531,-0.49725264755345794,-0.6682626909747696,0.19794701077052398
10.08040036,-0.6662122000630027,-0.49090686047668164,0.23626044961505493
10.08515541,-0.8328857333247446,-0.28874738152137386,0.26781734695214554
10.08991047,-0.9972927952067586,-0.0631048137583817,0.29283268137086843
10.09466552,-1.1592114130941122,0.1840251598162662,0.31158791981602013
10.09942057,-1.31814978616578,0.4499559630932365,0.32442418132893247
10.10417567,-1.4733288985429036,0.7313138469836287,0.33173564633385455
10.10893067,-1.6236765850536299,1.0240622087756204,0.33396311400215273
10.11368573,-1.7678333070614185,1.323547057605876,0.3315875832054069
10.11844083,-1.9041696230220426,1.6245635663180256,0.3251237210140447
10.12319588,-2.0308150664385964,1.9214430148258625,0.3151130918308256
10.12795094,-2.145697868431133,2.208158785639695,0.3021170507981498
10.13270599,-2.246594677895731,2.478449439792081,0.2867092519348317
10.13746104,-2.3311891365535446,2.725956302380191,0.26946777572311437
10.14221609,-2.3971378620880794,2.9443724414546604,0.25096693398754555
10.14697114,-2.442142090246067,3.127599450506366,0.23176885651997128
10.1517262,-2.464022943551963,3.2699080595883796,0.21241500259554358
10.15648125,-2.460798052117463,3.3660983162951355,0.1934177723824587
10.1612363,-2.4307570734801693,3.4116549049596316,0.17525241934556565
10.16599135,-2.3725335631675124,3.402893116806388,0.15834948397508472
10.1707464,-2.2851706505058376,3.3370910490646746,0.143087977758547
10.17550146,-2.1681780836959006,3.2126037986429994,0.1297895394188276
10.18025651,-2.0215784258857648,3.0289557251579216,0.11871375987955649
10.18501156,-1.8459405035261973,2.786907285906086,0.11005482882057532
10.18976661,-1.642398615225231,2.4884934865385793,0.1039395990894416
10.19452166,-1.4126564821252938,2.1370316382077172,0.1004271040526615
10.19927672,-1.1589754334009161,1.7370968545427927,0.09950950673553714
10.20403177,-0.8841468454434837,1.2944645462824946,0.10111441607411857
10.20878682,-0.5914493656209286,0.8160200600551087,0.10510847809628833
10.21354187,-0.28459193123112503,0.3096365387678674,0.1113021360501675
10.21829692,0.032355972625327155,-0.21597697152206619,0.119455446882496
10.22305198,0.3550449951497821,-0.7514542087229724,0.12928483465341395
10.22780703,0.6789354047291377,-1.2869733256276614,0.14047064915629864
10.23256208,0.9993929873495111,-1.8124767993235893,0.1526653778239724
10.23731713,1.3117887818825353,-2.3179042440394295,0.16550233099542128
10.24207219,1.611599952748189,-2.7934321748367195,0.17860458700151535
10.24682724,1.8945090435372114,-3.2297143474263175,0.1915939489873205
10.25158234,2.1564988679375667,-3.6181160524244675,0.2040996370529146
10.25633739,2.3939403818244545,-3.9509356870663646,0.21576642561267745
10.26109245,2.6036710467432806,-4.221607076399223,0.22626194446389783
10.2658475,2.7830614416201818,-4.424876376633939,0.2352828973731654
10.27060255,2.9300682043080726,-4.556947966411139,0.2425600137335492
10.2753576,3.0432717814868253,-4.615594510710305,0.2478616316591748
10.28011265,3.121897923762313,-4.600227352785303,0.2509959053758294
10.28486771,3.1658223669965584,-4.511924529378138,0.25181172449388267
10.28962276,3.175558671417738,-4.353414981553766,0.2501985166236354
10.29437781,3.152229723863837,-4.129018904037038,0.24608516925589832
10.29913286,3.0975239182143435,-3.844545582159765,0.23943834689637664
10.30388791,3.013637483762553,-3.507151436679612,0.23026049317342687
10.30864297,2.9032048033640865,-3.125162257353977,0.21858779497218078
10.31339802,2.7692188385908443,-2.7078646914360287,0.20448834785920905
10.31815307,2.614943961824815,-2.265272922507416,0.18806070192603114
10.32290812,2.4438236015958585,-1.8078771135188574,0.1694328890664791
10.32766317,2.2593851561802203,-1.3463805982535646,0.14876194264274123
10.33241823,2.065144636309711,-0.8914329982583323,0.12623382679294867
10.33717333,1.8645134706691857,-0.45336643117735614,0.10206360605506251
10.34192838,1.6607098533497386,-0.04194177634421582,0.07649561745373802
10.34668344,1.4566769320145192,0.33388840989257834,0.04980336360640852
10.35143849,1.2550100261148167,0.666194267319648,0.02228882748177891
10.35619354,1.0578949189455593,0.9482549030921237,-0.005719085545045592
10.36094859,0.867059076205403,1.1747119649058708,-0.0338672455636862
10.36570364,0.6837373976956914,1.3416868174936003,-0.061782349735084716
10.3704587,0.5086538011854348,1.446858603487491,-0.08907645517448481
10.37521375,0.34201956625140745,1.4895015091752624,-0.11535399929961739
10.3799688,0.18354893438763084,1.4704806319160528,-0.1402201652193441
10.38472385,0.03249197770598903,1.392206935197524,-0.1632902917217739
10.3894789,-0.11231577702456129,1.2585528548294678,-0.18419988246195965
10.39423396,-0.2523880362755102,1.0747311598830147,-0.20261465760111377
10.39898901,-0.38950837322715776,0.8471406481173254,-0.2182400279010558
10.40374406,-0.5256389988060499,0.5831831406384625,-0.23082936323819625
10.40849911,-0.6628203878032928,0.29105700714187654,-0.24019047550515313
10.41325422,-0.8030649426974483,-0.02046692507917354,-0.24618983741430872
10.41800927,-0.9482482556335193,-0.34228077164475784,-0.24875421060936284
10.42276432,-1.100001795901421,-0.6651797274860953,-0.24786955410380476
10.42751937,-1.259610986132189,-0.9801002969339407,-0.24357731646119074
10.43227442,-1.427922618405575,-1.2783501103801211,-0.23596845951186557
10.43702948,-1.6052653891415933,-1.5518231584840798,-0.2251757826990199
10.44178453,-1.7913869939499352,-1.793194809143562,-0.21136527600701252
10.44653958,-1.985410724919294,-1.996091688575851,-0.19472729557425494
10.45129463,-2.185813867180634,-2.155232382816587,-0.17546831969027096
10.45604968,-2.390429421724192,-2.266535917062467,-0.15380391779248193
10.46080474,-2.5964718181358264,-2.3271960553116022,-0.12995338310161822
10.46555979,-2.800586362373639,-2.335720581536245,-0.10413627850863638
10.47031489,-2.998921235205628,-2.2919358222190565,-0.07657095635586841
10.47506995,-3.1872199642561228,-2.1969576971541094,-0.04747495244930467
10.479825,-3.360931485003633,-2.0531314988487814,-0.017067025815836957
10.48458005,-3.515334227727186,-1.8639433720535752,0.014429485751673861
10.4893351,-3.6456701518054317,-1.6339070794241866,0.046782402418807253
10.49409015,-3.7472843133246783,-1.3684300943722811,0.07974599452978381
10.49884521,-3.8157653982214463,-1.0736633630282557,0.11305632304372723
10.50360026,-3.8470826722127307,-0.7563392335830214,0.1464271209670129
10.50835531,-3.8377149767339183,-0.4236020749771371,0.17954667660798834
10.51311036,-3.784767721528554,-0.0828360111092331,0.2120761155874505
10.51786541,-3.686074272990228,0.2585060045664169,0.243649386182473
10.52262047,-3.5402786942703175,0.593067841480213,0.27387513859409
10.52737552,-3.3468974356328074,0.9137470072907763,0.30234056227529066
10.53213057,-3.1063582732874924,1.2138394912830144,0.3286171163537286
10.53688567,-2.8200155202737944,1.4871699752460992,0.3522679654224585
10.54164073,-2.4901412532311222,1.7282052544102338,0.37285682407844073
10.54639578,-2.1198929887615297,1.9321492276129242,0.3899578247474044
10.55115083,-1.7132588844361876,2.0950183321754596,0.40316595962541807
10.55590588,-1.274982120503513,2.2136968034735522,0.4121076128996354
10.56066094,-0.8104666314508676,2.2859716222803077,0.41645069627599857
10.56541599,-0.32566679642970786,2.3105474663983374,0.4159139300446011
10.57017104,0.17303594048335813,2.2870423994733757,0.41027487201390295
10.57492609,0.6789662697810043,2.2159654022169955,0.39937638326125513
10.5796812,1.1852945918579538,2.098677172961241,0.38313132557095636
10.5844362,1.6851794165763223,1.9373358900009832,0.36152540184919174
10.5891913,2.1719090091540463,1.7348298344178958,0.334618168354867
10.59394635,2.6390387526014045,1.494698919292963,0.3025423562656515
10.5987014,3.0805208130477015,1.22104726296976,0.2655017289864109
10.60345646,3.4908228749378565,0.9184489861152124,0.22376775988997
10.60821151,3.8650329592459025,0.591849411384972,0.17767543469755173
10.61296656,4.19894765523201,0.2464638068670558,0.12761846103156074
10.61772161,4.489141493744537,-0.1123242546168303,0.07404411041938178
10.62247666,4.733015676396595,-0.47906294503836494,0.017447838976718547
10.62723172,4.92882495411311,-0.848328786362821,-0.04163224864143971
10.63198682,5.0756821151099745,-1.2148181048891527,-0.1026210917396949
10.63674187,5.173540278039119,-1.5734317991538418,-0.16491255343725672
10.64149692,5.223153958415117,-1.9193520808387734,-0.2278755091666656
10.64625198,5.226020641159821,-2.24811006574132,-0.2908601178972224
10.65100703,5.184305298400905,-2.555643328749129,-0.3532041804705621
10.65576208,5.100750889300764,-2.838342787542566,-0.4142394213899158
10.66051713,4.978578324280155,-3.093088537434613,-0.4732974895002962
10.66527219,4.8213796387599075,-3.317274516817328,-0.5297154767579064
10.67002724,4.6330081886620755,-3.508822132598682,-0.5828408068324699
10.67478229,4.417469559760049,-3.666183213373498,-0.6320354378251661
10.67953734,4.1788166035903505,-3.7883328820437088,-0.6766794380849626
10.68429244,3.921051614417408,-3.8747531459752476,-0.7161741088578358
10.6890475,3.6480381864645266,-3.925408186256915,-0.7499449212175275
10.69380255,3.36342477209464,-3.940712480737305,-0.7774445923520547
10.6985576,3.070581422495998,-3.921493010069132,-0.7981566412750669
10.70331265,2.7725506477724484,-3.8689468651852166,-0.8115997372368242
10.70806771,2.472012797024148,-3.784595594780519,-0.8173330908789731
10.71282276,2.171265847970785,-3.6702376025619055,-0.8149630463005724
10.71757781,1.872219029742159,-3.527899829790987,-0.8041509212101531
10.72233291,1.576399300762512,-3.35978984541005,-0.7846220230895823
10.72708797,1.2849693803740043,-3.168249322663043,-0.75617565283077
10.73184302,0.9987557945546383,-2.955709718310215,-0.7186958029019025
10.73659807,0.7182852412132209,-2.7246507998704312,-0.67216217051166
10.74135312,0.443827500510348,-2.4775624989256744,-0.616661039503046
10.74610817,0.17544309687510182,-2.216910413667325,-0.5523955377939154
10.75086323,-0.08696605418070573,-1.9451051482561315,-0.47969475012131557
10.75561828,-0.3436047246618474,-1.6644755644860618,-0.39902115964651724
10.76037333,-0.5947328112128397,-1.377245934922557,-0.3109759079475373
10.76512838,-0.8406156689961473,-1.0855169261845172,-0.21630140127698164
10.76988349,-1.0814777648179776,-0.7912503038695582,-0.11588084976831703
10.77463854,-1.3174609302086637,-0.4962572321323458,-0.01073440160166621
10.77939359,-1.548588323372997,-0.2021900355874774,0.09798837857256812
10.78414864,-1.7747350068131102,0.08946270625274445,0.20901984180627858
10.7889037,-1.9956058199070128,0.37737785624983866,0.32098944910933747
10.79365875,-2.2107209827061407,0.6603963289429567,0.4324427670601629
10.7984138,-2.4194096207429685,0.9375187336092259,0.5418640805434985
10.80316885,-2.6208111611169222,1.2078981810844824,0.6477023020281196
10.80792396,-2.8138843244976535,1.470830398742301,0.7483997085161296
10.81267901,-2.99742323039545,1.725741316832055,0.8424228815496835
10.81743406,-3.1700799481103235,1.9721723117452865,0.9282950711105963
10.82218911,-3.3303926677339413,2.209763318497235,1.0046290639923707
10.82694416,-3.476818538271719,2.43823405754915,1.0701595279809903
10.83169922,-3.6077701242377693,2.657363661768623,1.1237737426269077
10.83645427,-3.721654365154112,2.8669690388411895,1.1645396292340802
10.84120932,-3.816912879612423,3.0668823628702975,1.191730061284206
10.84596437,-3.8920624341884285,3.2569281555659613,1.2048425646474399
10.85071948,-3.9457344008441515,3.4369004910723464,1.203613688658207
10.85547453,-3.9767120649555077,3.6065409360536584,1.1880275260841042
10.86022958,-3.9839647328215406,3.7655179114586166,1.1583180677685558
10.86498463,-3.9666777303047858,3.9134082244885744,1.1149652885123864
10.86973968,-3.9242775797232574,4.049681558478819,1.0586850709884208
10.87449474,-3.8564518748375716,4.1736887171345405,0.9904132802997735
10.87924979,-3.763163620939438,4.284654394164262,0.9112844971034484
10.88400484,-3.644660045216921,4.381675179419137,0.8226060944341461
10.88875994,-3.5014760926057953,4.46372341977216,0.7258284942398642
10.893515,-3.334432991387576,4.529657429889547,0.6225125559242849
10.89827005,-3.144632394272135,4.578238398077372,0.5142951240018644
10.9030251,-2.933446672341567,4.608154158144247,0.40285379104853225
10.90778015,-2.7025059601332226,4.618049800067809,0.28987191408681634
10.91253521,-2.4536825199842496,4.6065648687304535,0.177004859588586
10.91729026,-2.189072916298452,4.57237665093057,0.06584835173697515
10.92204536,-1.9109783779288476,4.5142487810000755,-0.04209032777895169
10.92680041,-1.6218835997659444,4.43108411566046,-0.14541768074416025
10.93155547,-1.3244341147454626,4.32198055506452,-0.24287541463718673
10.93631052,-1.0214122706219657,4.18628823717485,-0.33335764058502954
10.94106557,-0.7157117785716102,4.0236663240313435,-0.41592369975105936
10.94582062,-0.41031076260597854,3.8341374458731052,-0.4898066269120224
10.95057567,-0.10824322677067037,3.6181377834011603,-0.5544174029640369
10.95533078,0.18743113224242153,3.376560755867418,-0.6093452665690234
10.96008583,0.4736588093758232,3.1107923447621664,-0.6543544421244099
10.96484088,0.7474260680371142,2.822736217665991,-0.689377697027614
10.96959594,1.0057941434774758,2.5148270198592066,-0.714507172541824
10.97435099,1.245935929752613,2.190030466283705,-0.7299829483299213
10.97910604,1.4651739132187576,1.8518291857326719,-0.7361798072689031
10.98386109,1.6610190026439147,1.5041936339002648,-0.7335926665123462
10.98861614,1.831209775312653,1.1515377925471044,-0.7228211317563532
10.9933712,1.9737515155412881,0.7986597980966839,-0.7045536116035169
10.9981263,2.0869542772618006,0.45066808298202404,-0.6795513948011108
11.00288135,2.169469069665302,0.11289405443879433,-0.6486330429784939
11.0076364,2.220321159070346,-0.209207234904714,-0.6126593857814604
11.01239146,2.2389394139699004,-0.5101665648002237,-0.5725193272525395
11.01714651,2.2251806023022986,-0.7846179430402399,-0.5291165874124528
11.02190156,2.179347584433339,-1.027421361710802,-0.4833574183667997
11.02665661,2.102200432229386,-1.233788082035183,-0.4361392579270461
11.03141172,1.994959640954587,-1.3994054018198674,-0.38834022318996353
11.03616677,1.8593007809633872,-1.5205577151194212,-0.34080930695667444
11.04092182,1.6973401526149325,-1.5942406073281297,-0.29435712329277874
11.04567687,1.5116112513310729,-1.6182647474016536,-0.24974705413179515
11.05043192,1.305032109910436,-1.5913464467815062,-0.20768667405714963
11.05518698,1.0808638510400197,-1.5131819530652695,-0.1688193718769552
11.05994208,0.8426610439206845,-1.3845028330752718,-0.1337161415109559
11.06469713,0.5942147065121716,-1.207110168674569,-0.10286757686917533
11.06945219,0.339489022485971,-0.9838857306032128,-0.07667617130469842
11.07420724,0.08255304367128458,-0.7187788004189385,-0.05544908707020452
11.07896229,-0.17249118091093568,-0.416767867583413,-0.03939161906035773
11.08371734,-0.42158247370555785,-0.08379702667559072,-0.028601625005803367
11.08847239,-0.6607747228935351,0.2733124738638007,-0.02306522633403521
11.0932275,-0.8863096735751188,0.6469744395765374,-0.02265409620324571
11.09798255,-1.0946865716094816,1.0289719639813752,-0.027124642284558374
11.1027376,-1.2827269429418988,1.4106113384306131,-0.036119363348362334
11.10749265,-1.4476328624793224,1.7828927036027995,-0.04917061387940408
11.11224771,-1.5870371827542948,2.1366939777088327,-0.06570695238034407
11.11700276,-1.6990443534570332,2.4629641360240444,-0.08506217752813319
11.12175781,-1.782260666869099,2.752921542171404,-0.10648707189053723
11.12651291,-1.835813008513044,2.998252757984699,-0.129163776679323
11.13126797,-1.8593554732554531,3.1913070973463,-0.15222261704583226
11.13602302,-1.8530635206476587,3.3252821480003782,-0.1747610926042679
11.14077807,-1.817615685340646,3.3943955677051636,-0.1958646503019021
11.14553312,-1.7541632241855158,3.3940386669124747,-0.2146287733438946
11.15028817,-1.6642884643604283,3.320907615759675,-0.23018185425964957
11.15504328,-1.549953006231971,3.173108552292164,-0.2417082722341675
11.15979833,-1.4134373158100497,2.9502334135690202,-0.24847106207191166
11.16455338,-1.257273595277263,2.653403952484974,-0.24983354206191447
11.16930844,-1.08417412339222,2.2852821300742514,-0.24527925943916173
11.17406349,-0.8969574865049179,1.8500458723548798,-0.23442961597479425
11.17881854,-0.6984752539494786,1.3533300349432058,-0.217058555475986
11.18357359,-0.4915416738773094,0.8021333054404166,-0.19310373439014333
11.1883287,-0.2788688704575352,0.20469266667528432,-0.16267366170422365
11.19308375,-0.06300981035043546,-0.4296720845769384,-0.12605038916018266
11.1978388,0.15368901997880724,-1.090740445314912,-0.083687458713106
11.20259385,0.3691237121285613,-1.7675958708523294,-0.03620296845548574
11.2073489,0.5814568005473563,-2.4488482688094764,0.015632205370905247
11.21210401,0.7891284362039405,-3.122869052059042,0.07091080292112074
11.21685906,0.9908549678040944,-3.7780330713916066,0.128609771512232
11.22161411,1.1856155578666965,-4.4029614917806175,0.18761444708516198
11.22636916,1.372627936276369,-4.986759584573999,0.2467455560629456
11.23112422,1.5513148014201088,-5.519243490021865,0.3047881373675455
11.23587927,1.7212627130701827,-5.991150263207182,0.36052140381537245
11.24063437,1.8821755809675,-6.394325949577496,0.41274854170588615
11.24538942,2.0338250381469356,-6.721887036760084,0.4603254898737524
11.25014448,2.1760000954757284,-6.968351384244039,0.5021878378360052
11.25489953,2.308458497871297,-7.129735621768938,0.5373751223797639
11.25965458,2.4308821363633735,-7.203617003505524,0.5650519654163946
11.26440963,2.5428387085145974,-7.189158775122158,0.5845256670001706
11.26916469,2.6437515628274193,-7.087099215991055,0.5952600334384504
11.27391979,2.7328793180020834,-6.89970561365033,0.5968853715788999
11.27867484,2.8093064293364027,-6.630695460251076,0.5892047077813684
11.28342989,2.871945400998541,-6.285128077868158,0.5721963857000656
11.28818495,2.919550836225905,-5.869270635288996,0.5460132561838825
11.29294,2.9507450012505627,-5.39044308236108,0.5109786974856447
11.2976951,2.964054076937629,-4.856846886943978,0.46757970401483634
11.30245015,2.9579538080610273,-4.277382618335827,0.41645727054714454
11.30720521,2.9309228549815405,-3.6614613953871578,0.3583942887291549
11.31196026,2.881501823736037,-3.0188150292907934,0.29430117176155673
11.31671531,2.8083557114549818,-2.3593093651760673,0.2251994324514764
11.32147036,2.710337364079978,-1.6927648893533578,0.15220345463668636
11.32622547,2.586549508503291,-1.0287881470144218,0.0765007121969243
11.33098052,2.4364029927769217,-0.3766169350226259,-0.0006692983305192789
11.33573557,2.259669040637233,0.2550183778702446,-0.07803713210195719
11.34049062,2.0565235873545347,0.8580156708278699,-0.15432617704531904
11.34524567,1.8275820931613893,1.4250029028987312,-0.2282758110983851
11.35000073,1.5739236042948657,1.9494203991659211,-0.2986645685941981
11.35475583,1.297103225243759,2.4255835522543934,-0.364332912449677
11.35951088,0.9991525569093975,2.8487263577385122,-0.42420517756726334
11.36426594,0.6825680267369159,3.2150265914910494,-0.4773102264613925
11.36902099,0.35028737675125854,3.521613756930584,-0.5228003403644779
11.37377604,0.005654877158702618,3.766561181853419,-0.5599678586282053
11.37853114,-0.3476239060073858,3.9488638312102036,-0.5882590801706623
11.3832862,-0.7055367405231973,4.068403527607473,-0.6072849612843688
11.38804125,-1.0638275240608737,4.1259033394934574,-0.6168281949362173
11.3927963,-1.418065867834089,4.122872912334424,-0.6168463461854495
11.39755135,-1.7637219707732565,4.061546485878539,-0.6074708476242374
11.4023064,-2.0962451957421817,3.9448152672567933,-0.5890018190586747
11.40706151,-2.4111446936703573,3.776155722662857,-0.5618988497696493
11.41181656,-2.704070384177069,3.5595552178967425,-0.526768048285315
11.41657161,-2.97089259745684,3.2994362885984883,-0.4843458040183227
11.42132666,-3.2077787170548215,3.000580662693718,-0.4354798047740548
11.42608172,-3.4112652389014766,2.6680539979752296,-0.38110791127908655
11.43083682,-3.5783237761969016,2.30713214366524,-0.32223551104149706
11.43559187,-3.706419685863807,1.9232295920099132,-0.25991197150889106
11.44034692,-3.7935621618125404,1.5218306586351948,-0.19520680010222535
11.44510198,-3.8383448254219985,1.1084238207319972,-0.12918610568433017
11.44985703,-3.839976038833274,0.6884395504456684,-0.0628899447395947
11.45461208,-3.798298367823408,0.2671919060927608,0.0026888782183714616
11.45936719,-3.713796824303116,-0.15017591581038287,0.06662401048985014
11.46412224,-3.58759571980427,-0.5587419115423246,0.12807224785975652
11.46887729,-3.4214441571338607,-0.9538513643970152,0.18628729044798883
11.47363234,-3.217690375241263,-1.3311586102522661,0.24063021167030407
11.47838745,-2.9792453410461515,-1.686664403549671,0.29057641006222074
11.4831425,-2.7095361512989475,-2.0167488277026373,0.3357189486875844
11.48789755,-2.4124499680327247,-2.318199703599141,0.37576833258227815
11.4926526,-2.0922693636007406,-2.5882364550359687,0.41054892013108973
11.49740765,-1.7536000959197624,-2.824529392145123,0.43999229709742543
11.50216271,-1.401292470375841,-3.0252143755165455,0.4641280504070156
11.50691781,-1.0403575700005863,-3.188902827498827,0.4830724535240827
11.51167286,-0.6758797484519793,-3.3146870654674188,0.49701561182480464
11.51642791,-0.3129268805816968,-3.4021409461400656,0.5062076161408612
11.52118297,0.04354004708080754,-3.451315830319605,0.5109442225561689
11.52593802,0.38875634952791904,-3.462731902484098,0.5115525273252899
11.53069312,0.7182403458159965,-3.437364907563533,0.5083770490392855
11.53544817,1.027875600429747,-3.3766283960676757,0.501766574855309
11.54020323,1.3139869472484955,-3.2823515965644097,0.4920620776787259
11.54495828,1.5734085741939547,-3.1567530602875733,0.47958596594799785
11.54971333,1.8035425277258934,-3.0024102471877874,0.464632884378324
11.55446844,2.0024061263846167,-2.8222252487187074,0.4474622404330199
11.55922349,2.1686669498784026,-2.619386873472437,0.42829258662585357
11.56397854,2.3016642912051415,-2.39732936020157,0.40729794319686596
11.56873359,2.4014162202522837,-2.1596880298221985,0.3846060994981441
11.57348864,2.4686117055879375,-1.910252242354209,0.3602988852404776
11.57824375,2.5045875752591336,-1.6529160832402328,0.33441435359345206
11.5829988,2.511290465637252,-1.3916272624599446,0.30695076618649225
11.58775385,2.4912243059040726,-1.13033476624488,0.2778722163966872
11.5925089,2.4473843074120705,-0.8729358527145549,0.24711567635370105
11.59726396,2.3831788597803736,-0.62322302796035,0.21459921240677418
11.60201906,2.3023411605062987,-0.38483167728850526,0.1802310917576017
11.60677411,2.208832795938542,-0.16118905687981663,0.14391950503287027
11.61152916,2.1067418169602856,0.044534627245460735,0.10558265478479344
11.61628422,2.000178080797453,0.22947231545347171,0.06515899965255605
11.62103927,1.8931687365762344,0.39110263115934074,0.022617484251695703
11.62579437,1.789556706195345,0.5272881410680061,-0.022032388818768536
11.63054942,1.6929048600236198,0.6363086559660848,-0.0687307869895627
11.63530448,1.6064083301219758,0.7168889388061026,-0.11735824567924219
11.64005953,1.5328170731130026,0.768220252167719,-0.16772706011498192
11.64481458,1.4743704236082085,0.7899752575243567,-0.21957366497115666
11.64956969,1.4327449949235518,0.7823158732338095,-0.2725523665673372
11.65432474,1.4090169046995484,0.7458938056993549,-0.3262308470151434
11.65907979,1.4036389379284273,0.6818435873165716,-0.3800878837269314
11.66383484,1.4164329120062136,0.5917680835668434,-0.43351371191845595
11.66858989,1.4465971785010483,0.4777165668604124,-0.48581339937101575
11.673345,1.4927288840719863,0.3421555924981387,-0.5362135051383535
11.67810005,1.5528603176208704,0.1879330479152749,-0.5838721655739634
11.6828551,1.624508391897809,0.018235875625797142,-0.6278926037199891
11.68761015,1.7047360460130712,-0.16345791078366412,-0.6673399041355464
11.69236526,1.7902241119694997,-0.3534321918201493,-0.7012607455352229
11.69712031,1.877351965188718,-0.5477898694226987,-0.7287056463693333
11.70187536,1.9622850792144055,-0.7425132580151151,-0.7487531589500575
11.70663041,2.0410674343292263,-0.9335267760835032,-0.7605353485432979
11.71138547,2.1097165978505066,-1.1167609264486131,-0.7632638162163742
11.71614057,2.1643192112337903,-1.2882165218421497,-0.756255469623603
11.72089562,2.201124596200591,-1.444028098088303,-0.738957217054366
11.72565067,2.216634237293863,-1.5805254601681729,-0.7109687606408243
11.73040573,2.207685017264169,-1.6942923279610862,-0.6720626979934854
11.73516083,2.171524276376137,-1.7822210910196394,-0.6222012089522738
11.73991588,2.105875032682147,-1.8415627471526022,-0.5615487027529645
11.74467094,2.0089900246711614,-1.8699711872611497,-0.49047992294035025
11.74942599,1.8796935996294248,-1.865541096136295,-0.4095831419995631
11.75418104,1.7174108452407073,-1.8268388624233824,-0.3196582149138589
11.75893614,1.522183723496694,-1.7529260273369063,-0.2217093944399093
11.7636912,1.294674294942373,-1.643374947633024,-0.11693293863839885
11.76844625,1.0361554058074773,-1.4982765005056788,-0.006699663505367182
11.7732013,0.7484894477559892,-1.318239812995604,0.1074672880897553
11.77795635,0.4340959944867843,-1.1043841520046145,0.2239190737050956
11.78271146,0.09590928088028002,-0.858323257630401,0.34091167162902003
11.78746651,-0.2626733698854427,-0.5821425354672174,0.4566396749655084
11.79222156,-0.6378509384580278,-0.27836963541496285,0.5692726251724718
11.79697661,-1.0254845686503316,0.05006097053825887,0.6769930396890834
11.80173172,-1.4211684338693502,0.39984874352699,0.7780351868720826
11.80648677,-1.8203040636676777,0.7673724696359159,0.8707235773042578
11.81124182,-2.2181765317750997,1.148739584669643,0.9535100824332379
11.81599687,-2.6100309020992656,1.5398387329865026,1.0250085685710786
11.82075192,-2.9911473754567277,1.9363948688612744,1.0840259559117764
11.82550703,-3.3569136737743017,2.3340262113102686,1.1295886874531025
11.83026208,-3.702893332692346,2.728302357280478,1.160963727920792
11.83501713,-4.024888740577778,3.114802843539473,1.1776734081988618
11.83977219,-4.318997956488506,3.489175426890752,1.1795036773964531
11.84452729,-4.581664557147278,3.8471933294070975,1.1665056036089545
11.84928234,-4.809719998129064,4.1848106754778245,1.1389902496443132
11.85403739,-5.000418219853604,4.498215337050001,1.0975173142662011
11.85879244,-5.151462474831708,4.783878409345826,1.0428781506630416
11.86354755,-5.261024586887705,5.038599567375572,0.9760739388135594
11.8683026,-5.3277570620122745,5.259547607158228,0.8982898944876021
11.87305765,-5.350798639929258,5.444295554910034,0.8108664509317917
11.87781271,-5.3297739929364,5.59084982951833,0.7152683604165488
11.88256776,-5.264788335954792,5.697673063014318,0.6130526410231912
11.88732286,-5.1564177077265825,5.7637003146219214,0.5058362441470595
11.89207791,-5.005695625041872,5.788348551739924,0.395264242712782
11.89683297,-4.81409671449606,5.771519412688481,0.2829792438472765
11.90158802,-4.583517806988478,5.713595407236332,0.1705926213242931
11.90634312,-4.316256853876767,5.615429845632115,0.05965805186196476
11.91109817,-4.014989900901395,5.478330907877177,-0.04835226829646824
11.91585323,-3.6827462433107607,5.3040403659493185,-0.1520684517549674
11.92060828,-3.3228817861180273,5.094707547340228,-0.2502406140512766
11.92536333,-2.939050547060363,4.852859173704667,-0.34175334357695
11.93011844,-2.535174165450373,4.581365719559053,-0.42563693991687723
11.93487349,-2.1154092183783133,4.283404911382659,-0.5010754877443295
11.93962854,-1.6841121009992088,3.9624229301880325,-0.5674118990942799
11.94438359,-1.2458012074431826,3.622093798480997,-0.6241501123855656
11.9491387,-0.8051161613018247,3.2662773366861715,-0.6709546800014718
11.95389375,-0.36677389520840753,2.8989759764636056,-0.7076480057430423
11.9586488,0.06447853114399629,2.5242906294064005,-0.7342055088625109
11.96340385,0.48391435944157224,2.146375737800691,-0.7507489945485314
11.96815896,0.8868806372901932,1.7693935857863665,-0.7575385042784931
11.97291401,1.2688544517436544,1.397467928639186,-0.7549629050550467
11.97766906,1.625501354867244,1.0346370071860596,-0.7435294548488776
11.98242411,1.9527352500342143,0.6848060538695913,-0.7238525535303526
11.98717916,2.2467788181114505,0.35169946530235996,-0.6966418563248026
11.99193427,2.50422338880716,0.038812910220185244,-0.6626898931563936
11.99668932,2.722087016044307,-0.2506342432632195,-0.6228593047125204
12.00144437,2.8978694079220833,-0.5137456677931852,-0.5780697768464176
12.00619942,3.0296022991449845,-0.747993335078366,-0.5292847312400594
12.01095453,3.115893840868432,-0.9512605095735089,-0.4774978144759063
12.01570958,3.155965621428315,-1.1218815730294025,-0.42371922185111455
12.02046463,3.1496810215756756,-1.258677675152677,-0.36896189697557746
12.02521969,3.0975637486236853,-1.3609871357688743,-0.31422766198138213
12.02997479,3.0008055828341393,-1.428689491746372,-0.2604933532576651
12.03472984,2.8612626017306098,-1.4622220928581011,-0.2086970609193988
12.03948489,2.6814394163263042,-1.4625882082071457,-0.1597245937027632
12.04423995,2.464461247411653,-1.4313557104936894,-0.11439631196033007
12.04899505,2.2140339787459196,-1.3706455588734923,-0.07345448848193238
12.0537501,1.9343926363439152,-1.283109499740862,-0.03755137070921641
12.05850515,1.6302390492808665,-1.1718966435647444,-0.007238130781970582
12.06326021,1.3066697386349633,-1.0406088483586087,0.017045096291897162
12.06801531,0.9690953488369523,-0.8932451386842164,0.03497787082323438
12.07277036,0.6231531715028329,-0.7341357043990109,0.046366572186520454
12.07752541,0.2746145076332613,-0.5678663457873547,0.05114974482094138
12.08228047,-0.07071123783897632,-0.39919455054255887,0.04940141747059519
12.08703557,-0.40707374111568057,-0.23295869187689372,0.041332151883828265
12.09179062,-0.7288781999647871,-0.07398211411897825,0.02728759624310259
12.09654567,-1.030779027443598,0.07302588878891493,0.007744352386381309
12.10130073,-1.307768874801427,0.20357000558521518,-0.01669698605707444
12.10605578,-1.5552611884924703,0.3134674202037366,-0.04532170617535647
12.11081088,-1.7691646808221577,0.39894250295269523,-0.0773137669509279
12.11556594,-1.9459483079479947,0.456715275802639,-0.11177143210111326
12.12032099,-2.0826955959617925,0.48408131478236377,-0.1477255715595814
12.12507604,-2.1771474276204033,0.47898089074220657,-0.1841603530145912
12.12983114,-2.2277326900354475,0.44005535625881875,-0.22003593384465933
12.1345862,-2.2335864777505225,0.3666890562812897,-0.25431265427903543
12.13934125,-2.1945558362060407,0.2590353662030616,-0.2859761336329958
12.1440963,-2.1111933074759075,0.11802583465965018,-0.3140625924523212
12.1488514,-1.9847387935346166,-0.05463818057769547,-0.3376836729854379
12.15360646,-1.8170904738130342,-0.25651155794939046,-0.356050014592825
12.15836151,-1.6107656976272076,-0.48444886171202384,-0.36849286081427085
12.16311656,-1.3688529152174298,-0.7346644662507794,-0.37448302716807175
12.16787166,-1.0949558130457475,-1.0028081845763874,-0.3736466368863045
12.17262672,-0.7931308813857257,-1.28405481339033,-0.3657771292395578
12.17738177,-0.46781966909053463,-1.5732056251088165,-0.35084315656916426
12.18213682,-0.12377697748173952,-1.864799500386626,-0.32899210692468134
12.18689192,0.2340037809715999,-2.1532311122916026,-0.30054911455716055
12.19164698,0.600366876767574,-2.432873354350027,-0.2660115457850589
12.19640203,0.9700710822301153,-2.6982010577012914,-0.22603906877819194
12.20115708,1.337865947266703,-2.9439129747909973,-0.18143952921946713
12.20591218,1.6985665256994398,-3.1650490234017474,-0.13315095720183706
12.21066724,2.047125605273989,-3.3570998874194946,-0.0822201228337724
12.21542229,2.378702550187435,-3.5161062583791622,-0.029778138658136905
12.22017734,2.688727917872638,-3.6387452701475294,0.022986323436904398
12.22493244,2.972963065074636,-3.7224020207179565,0.07485557426136571
12.2296875,3.227554016564865,-3.7652244801722397,0.12461253396149312
12.23444255,3.4490789378385514,-3.7661605405992717,0.17107073358590355
12.23919765,3.6345886347916565,-3.7249764582817986,0.21310396147222394
12.24395271,3.7816396014788953,-3.6422564542914615,0.24967482141165273
12.24870776,3.8883192522497314,-3.519383757387773,0.2798614860153021
12.25346281,3.953263104106396,-3.3585038714721236,0.3028819650580972
12.25821786,3.9756638132924005,-3.162471308282595,0.3181152640630112
12.26297297,3.955272110555082,-2.934781428272188,0.32511888150814483
12.26772802,3.8923898176490943,-2.6794893685910863,0.3236421815327095
12.27248307,3.787855261146445,-2.4011183022010956,0.3136352794121089
12.27723812,3.6430215273492568,-2.1045594652919197,0.2952531845786964
12.28199323,3.459728122733517,-1.79496651192484,0.26885505559384903
12.28674828,3.2402667154688922,-1.477646806442751,0.2349985301529296
12.29150333,2.987341731289723,-1.1579522473525221,0.19442920113808795
12.29625844,2.7040266563659183,-0.8411721337056549,0.1480654195386693
12.30101349,2.3937169558245968,-0.5324304406664607,0.09697871928778419
12.30576854,2.0600805451594937,-0.23658967102184408,0.04237027805432442
12.31052359,1.7070067503049131,0.04183679856366756,-0.014456051002785372
12.3152787,1.3385546596625002,0.29876224504870985,-0.07212348430518184
12.32003375,0.9589017089642918,0.5305926857544349,-0.12921407188611952
12.3247888,0.5722932511396044,0.7342805456688749,-0.1843016371832143
12.32954385,0.1829937543554804,0.9073652696023845,-0.23598499335854461
12.33429896,-0.2047598499802888,1.0480005816163174,-0.2829205185790977
12.33905401,-0.5868022722840917,1.1549684163666032,-0.32385319817729397
12.34380906,-0.9590811452713982,1.2276798439668541,-0.3576453123683737
12.34856411,-1.3176953082488785,1.2661635745727913,-0.3833020593946719
12.35331922,-1.6589300109259133,1.2710428563141198,-0.3999935446834497
12.35807427,-1.9792890181234106,1.2435017678649345,-0.40707272185272936
12.36282932,-2.2755236406606483,1.1852420544873534,-0.4040890253173951
12.36758442,-2.544658742134312,1.0984317656522093,-0.390797573655342
12.37233948,-2.7840157805400962,0.9856470269832377,-0.3671639398445939
12.37709453,-2.9912329432031393,0.8498083238984507,-0.33336457676635844
12.38184958,-3.164282428900483,0.6941126936563145,-0.2897830562221507
12.38660468,-3.301484926925742,0.5219632208676559,-0.23700233190337874
12.39135974,-3.401521341655525,0.3368972126460958,-0.1757932769398407
12.39611479,-3.4634418129609474,0.1425143965604471,-0.10709978029388811
12.40086984,-3.486672085484214,-0.05759356028375998,-0.03202071785367121
12.40562495,-3.4710172802511314,-0.25991096817776277,0.04821085347945937
12.41038,-3.4166631175552875,-0.4610622909180428,0.1322508960961887
12.41513505,-3.3241746290817415,-0.6578714815492059,0.21866956817230598
12.4198901,-3.1944923796976443,-0.8474154681030354,0.30597792295144505
12.42464521,-3.0289261957306044,-1.027070883932463,0.39265564497366284
12.42940026,-2.8291463675752566,-1.1945532576692814,0.477179310550958
12.43415531,-2.597172261194071,-1.347948015887553,0.5580506415427027
12.43891036,-2.335358237488985,-1.4857328075317502,0.6338242144181611
12.44366547,-2.0463767436961,-1.6067908318093647,0.703134092317459
12.44842052,-1.7331984108081557,-1.710415037826547,0.7647188669616324
12.45317557,-1.3990689698939576,-1.7963032608798073,0.8174446297626676
12.45793067,-1.0474827925578,-1.8645445620503736,0.8603254367389861
12.46268573,-0.682152871211924,-1.9155972385641613,0.8925408885774577
12.46744078,-0.30697708779682814,-1.9502591655536892,0.9134505134072586
12.47219583,0.07399932091225372,-1.969631308508668,0.9226047129812679
12.47695094,0.4566251045202542,-1.9750754031736122,0.9197521100432704
12.48170599,0.8366880314476844,-1.9681669298188977,0.904843212657265
12.48646104,1.2099633518643917,-1.9506446065980652,0.8780303874451064
12.49121614,1.5722652639494485,-1.924357688594633,0.8396642059332762
12.4959712,1.9195007778818036,-1.8912123834211034,0.79028629534875
12.50072625,2.247725192660547,-1.853118680970414,0.7306188869668162
12.5054813,2.5531982322618036,-1.81193884609427,0.6615513120078798
12.5102364,2.832439740719923,-1.7694387420374529,0.5841237479096378
12.51499146,3.0822837205623386,-1.7272430436794224,0.4995085668878954
12.51974651,3.2999294249302737,-1.68679526786908,0.40898968303910693
12.52450156,3.482988188530969,-1.6493233989492968,0.31394033108140923
12.52925666,3.6295247111317273,-1.6158117272425288,0.21579973518739184
12.53401172,3.7380915901508285,-1.5869793533736607,0.11604913639686174
12.53876677,3.80775603244886,-1.563265647997205,0.016187639639666018
12.54352182,3.838117853459671,-1.54482279979795,-0.08229168330843495
12.54827692,3.8293180866588257,-1.5315154379214593,-0.17792503799754564
12.55303198,3.7820377690844187,-1.5229271799609965,-0.2693001513724918
12.55778703,3.697486729032594,-1.518373833684885,-0.3550772232519996
12.56254213,3.5773824698455288,-1.516922869366338,-0.43400834732439125
12.56729719,3.423919509593745,-1.5174186789078052,-0.5049552140153686
12.57205224,3.2397297919463774,-1.518513046872868,-0.5669049506892899
12.57680729,3.027835019994365,-1.5187001762481442,-0.6189839891844113
12.58156239,2.791591973223398,-1.5163555379097713,-0.6604698764806591
12.58631744,2.534632039600938,-1.5097777476036158,-0.6908009622608787
12.5910725,2.260796322842512,-1.4972326186321063,-0.7095839088622587
12.59582755,1.9740677652026257,-1.4769984936374287,-0.7165989763992967
12.60058265,1.6785017580544237,-1.447411926105158,-0.7118030402399123
12.60533771,1.3781566989164211,-1.406912762431249,-0.6953303008448715
12.61009276,1.0770258995208184,-1.3540876693910358,-0.6674906484168432
12.61484786,0.7789721611482681,-1.2877111603703397,-0.6287656480321753
12.61960291,0.4876662175390869,-1.206783197274329,-0.5798021164414237
12.62435797,0.206530109395232,-1.1105624836707146,-0.5214032718929167
12.62911302,-0.061313595178102025,-0.9985946182849096,-0.454517456677926
12.63386812,-0.3130859769049795,-0.8707343466902082,-0.3802244625770216
12.63862317,-0.5463887404930337,-0.7271612339346516,-0.2997195347940589
12.64337823,-0.7592335501159733,-0.5683881833887766,-0.21429519029266048
12.64813328,-0.9500634432222618,-0.3952623486645237,-0.1253210581766222
12.65288838,-1.1177661929301699,-0.2089581269770362,-0.03422202639381129
12.65764344,-1.2616796352253004,-0.010962083934759975,0.057544947347576564
12.66239849,-1.3815891147061685,0.19695015970307225,0.14851493965716642
12.66715359,-1.4777173299289283,0.41274485194467575,0.23723961351090483
12.67190864,-1.5507069752236686,0.6341684077013227,0.3223117249823978
12.6766637,-1.6015966790936087,0.8587924284029594,0.4023890854650182
12.6814188,-1.6317908284511258,1.0840645733462755,0.4762174926951298
12.68617385,-1.6430239410703866,1.307364203283739,0.5426521715080712
12.6909289,-1.6373203041394355,1.5260615235213297,0.6006773043038692
12.69568396,-1.6169496340047422,1.7375787867373311,0.6494232778097822
12.70043906,-1.5843795314869904,1.9394519840078888,0.6881813226079577
12.70519411,-1.5422255101998639,2.1293913638365147,0.7164152708765941
12.70994916,-1.4931993659993508,2.3053390792382493,0.7337702035672035
12.71470422,-1.4400566402308659,2.4655222762926217,0.740077801471789
12.71945932,-1.3855439143813661,2.6085000061301367,0.735358258071553
12.72421437,-1.3323466631402012,2.7332024652485405,0.7198186588998188
12.72896942,-1.283038387050342,2.838961242568448,0.6938477853848818
12.73372453,-1.2400317420873963,2.925529469776656,0.6580073637467663
12.73847958,-1.2055323771273594,2.9930910273783793,0.6130198540775723
12.74323463,-1.181496177616029,3.0422582460952086,0.5597529616296013
12.74798968,-1.1695905942684288,3.0740578565844046,0.49920114786989683
12.75274479,-1.1711607109174862,3.089905274435763,0.43246451542993514
12.75749984,-1.1872006754640774,3.0915676541210204,0.3607255298943699
12.76225489,-1.218331078221116,3.0811164944797205,0.2852241156216275
12.76701,-1.2647828073804608,3.0608709176840763,0.20723171940340399
12.77176505,-1.3263878387016381,3.0333330616038445,0.12802497547490177
12.7765201,-1.4025773263386767,3.0011173104575652,0.04885963074802248
12.78127515,-1.4923872569511814,2.966875329204043,-0.029054599127506797
12.78603026,-1.594471812725721,2.933219052203439,-0.10457757813049702
12.79078531,-1.7071244612202816,2.9026438955940397,-0.1766600690641197
12.79554036,-1.8283066491270157,2.877454505816836,-0.24436225332601572
12.80029547,-1.9556838206252891,2.8596953159643763,-0.30686897790991885
12.80505052,-2.0866683087167868,2.851088053090684,-0.36350138087784123
12.80980557,-2.218468464507959,2.8529781250800115,-0.4137246875610219
12.81456062,-2.3481432055427898,2.8662915238628863,-0.45715211436500186
12.81931573,-2.4726609942288285,2.8915035276303893,-0.49354495396509696
12.82407078,-2.5889621135242913,2.928620087072172,-0.5228090365670635
12.82882583,-2.694022995212174,2.9771723596307336,-0.54498786170562
12.83358094,-2.784921274902046,3.0362244308363686,-0.5602527723237852
12.83833599,-2.858900192387155,3.104393851170994,-0.568890600389376
12.84309104,-2.9134309229310946,3.179884236996961,-0.5712892568845268
12.84784609,-2.946271416434365,3.260528848347761,-0.5679217738551208
12.8526012,-2.9555203437174518,3.3438437740541795,-0.5593293333972809
12.85735625,-2.9396648098380638,3.4270891304368627,-0.5461038346013731
12.8621113,-2.897620598565638,3.5073365145997526,-0.528870549439675
12.8668664,-2.8287638611847625,3.5815408458586955,-0.5082713987406279
12.87162146,-2.732953354177225,3.6466146765677543,-0.48494933921898764
12.87637651,-2.610542557916072,3.699503053621568,-0.4595342938768621
12.88113156,-2.4623812628320496,3.7372570608120586,-0.4326309831546041
12.88588666,-2.289806478746971,3.757104265920926,-0.40480892429913257
12.89064172,-2.0946227947888123,3.756514430212184,-0.3765947624302772
12.89539677,-1.8790725802653618,3.733259006606254,-0.348466980720717
12.90015187,-1.6457966618797213,3.6854631503539625,-0.32085291365101387
12.90490692,-1.3977863327613704,3.6116491858306548,-0.2941278648136105
12.90966198,-1.1383277394788474,3.510770708260518,-0.2686160207427168
12.91441703,-0.8709398527220316,3.3822367434254272,-0.2445927670806447
12.91917213,-0.5993073562588764,3.2259256362414694,-0.22228796268916018
12.92392718,-0.3272098888863927,3.0421885856882653,-0.2018897149389389
12.92868224,-0.05844914697829103,2.8318429844675346,-0.18354822274487156
12.93343734,0.203224599090053,2.5961559526211087,-0.16737930593222786
12.93819239,0.4541850049582385,2.3368186709749983,-0.15346731162422
12.94294745,0.6909996155916449,2.0559123187112442,-0.14186717205805724
12.9477025,0.9104957920212926,1.7558665958912436,-0.13260547622145422
12.9524576,1.1098211939914302,1.4394119630588842,-0.12568050502788636
12.95721265,1.2864975420793114,1.1095268533655411,-0.12106126436961544
12.96196771,1.438466549347205,0.7693812056623871,-0.11868563163116949
12.96672281,1.5641271083075088,0.4222777275531853,-0.11845780759232645
12.97147786,1.662363035650323,0.07159232330733403,-0.12024533376097962
12.97623291,1.732560905910069,-0.27928488936027335,-0.12387599041806344
12.98098802,1.7746177381952126,-0.6270065990535539,-0.12913492826105966
12.98574307,1.788938531369794,-0.9683220709057069,-0.13576240292144165
12.99049812,1.7764238683261475,-1.3001265072477217,-0.1434524755069245
12.99525317,1.738448025184116,-1.619504998648489,-0.1518530148836784
13.00000828,1.6768282213498824,-1.923770253199222,-0.16056729157832395
13.00476333,1.593785825061308,-2.210493501212799,-0.16915739238518787
13.00951838,1.4919004798535078,-2.4775281960170576,-0.1771496120252689
13.01427344,1.3740582352397492,-2.723026361774825,-0.1840418956350045
13.01902854,1.2433948473319105,-2.9454476685899906,-0.1893133149053554
13.02378359,1.1032354627096301,-3.1435615361412474,-0.19243546311332013
13.02853864,0.9570319152278173,-3.316442773054794,-0.1928855535924164
13.03329375,0.8082988566023115,-3.4634614443237015,-0.19016090856898218
13.0380488,0.6605499142365324,-3.5842678177237586,-0.18379443900532783
13.04280385,0.5172350291046259,-3.678773366453244,-0.17337064875262978
13.04755896,0.38168007467505677,-3.7471288929902133,-0.15854165140981336
13.05231401,0.25702979367252116,-3.789700882988257,-0.13904266373807853
13.05706906,0.14619501011628527,-3.8070471943987596,-0.11470643027894499
13.06182411,0.051804976984456366,-3.7998931350345,-0.08547603705546787
13.06657922,-0.023834396152066516,-3.769108883470461,-0.051415590030429545
13.07133427,-0.07877582536728914,-3.715689068354426,-0.01271827159750989
13.07608932,-0.11145898366325203,-3.640735147135075,0.030288650584884082
13.08084442,-0.12073157988564852,-3.5454410256124036,0.07714220509087133
13.08559948,-0.10586304738156255,-3.431082143706647,0.12724573266417055
13.09035453,-0.06655086673055129,-3.299008029660674,0.179874674826443
13.09510958,-0.0029197038308217825,-3.150638104190645,0.23418616624990213
13.09986468,0.08448630652460232,-2.987460308127052,0.28923235548585874
13.10461974,0.19471766339678373,-2.8110319421083734,0.34397727172147174
13.10937479,0.3264393968248402,-2.6229819542613284,0.3973169467752395
13.11412989,0.47795606262604057,-2.425013799402473,0.4481023926616166
13.11888495,0.6472410583331174,-2.218907927241615,0.49516492994017847
13.12364,0.8319694350686909,-2.00652294137738,0.5373432675140776
13.1283951,1.0295533680015356,-1.7897945071228585,0.573511658534431
13.13315015,1.237179475137615,-1.5707311734160294,0.6026084063951036
13.13790521,1.451847239369609,-1.3514064090893765,0.6236639725253207
13.14266026,1.6704078866173997,-1.1339463317885972,0.6358279420734804
13.14741536,1.8896031953913934,-0.920512822528214,0.6383941295946973
13.15217041,2.1061038507837253,-0.7132819617319476,0.6308231491106467
13.15692547,2.316547098523908,-0.5144179818052189,0.6127618277109321
13.16168057,2.517573591117999,-0.3260431915432947,0.5840589074469824
13.16643562,2.7058634367827104,-0.15020457201452014,0.5447765561643123
13.17119067,2.8781715533063,0.01116204369523109,0.49519729461436374
13.17594573,3.0313624873473333,0.15626912518584996,0.4358260459189931
13.18070083,3.1624448834497336,0.28351473347564354,0.36738712532355294
13.18545588,3.2686057778820143,0.391518678136552,0.2908161123908357
13.19021094,3.3472448540085558,0.479156265316526,0.20724668011933006
13.19496604,3.3960087328272373,0.5455883981967365,0.11799258836633347
13.19972109,3.4128252887187562,0.5902868776668929,0.024525173914754842
13.20447614,3.3959378795700963,0.61305387968847,-0.07155321993358668
13.2092312,3.343939265281644,0.6140347514035432,-0.1685393377863923
13.2139863,3.2558048632025773,0.5937234641249658,-0.26466201595938427
13.21874135,3.1309248584630334,0.552960280852186,-0.35811741397720187
13.2234964,2.9691345571768464,0.4929214317824985,-0.44710573249384084
13.22825151,2.770742246079605,0.41510083678792087,-0.5298686233255625
13.23300656,2.5365537070896416,0.32128416267125565,-0.6047264537967446
13.23776161,2.267892432806766,0.21351574838218038,-0.6701145596794704
13.24251672,1.9666145035915377,0.09405916525416187,-0.7246176165320224
13.24727177,1.635117025688242,-0.034647607547297225,-0.7670012861452882
13.25202682,1.2763390027355994,-0.17004122973982388,-0.7962403586263964
13.25678187,0.8937535314293964,-0.3094849641121985,-0.8115427116668591
13.26153698,0.49135028697014993,-0.4503221600509417,-0.8123685399473859
13.26629203,0.0736074031507817,-0.5899298190606778,-0.7984444565020754
13.27104708,-0.35454794147831575,-0.725770821901022,-0.7697722190679456
13.27580219,-0.7877906487979867,-0.8554434679753478,-0.7266319751220607
13.28055724,-1.2204606278750727,-0.9767270969168907,-0.66958004134393
13.28531229,-1.6466372432206111,-1.0876227216874899,-0.599441333446722
13.29006739,-2.060224607412261,-1.1863877924538666,-0.5172966418855911
13.29482245,-2.4550466354265312,-1.271564421129853,-0.42446501275862447
13.2995775,-2.8249503833412404,-1.3420006176615908,-0.3224815481469589
13.3043326,-3.163915828613808,-1.3968643107326233,-0.21307099257430587
13.30908765,-3.466169928479331,-1.4356501380504096,-0.09811752645780022
13.31384271,-3.726302528665299,-1.4581791868036265,0.020368754759283004
13.31859776,-3.9393814941457737,-1.4645920374701416,0.1402881360829816
13.32335286,-4.101064301750355,-1.4553356102330592,0.25948975169894245
13.32810791,-4.207703274302357,-1.4311444308045385,0.3758115673682112
13.33286297,-4.256441650002337,-1.3930170206230537,0.487121166344042
13.33761807,-4.24529777032482,-1.3421881752842857,0.5913565892719336
13.34237312,-4.173234834664935,-1.280097925749442,0.6865664529194462
13.34712817,-4.040213909446278,-1.208357981461974,0.7709485633426102
13.35188323,-3.8472281921896894,-1.1287164362146196,0.8428862491148658
13.35663833,-3.5963169146115077,-1.0430214806605844,0.900981671342029
13.36139338,-3.2905577171944627,-0.9531848145832298,0.9440854183898517
13.36614844,-2.934036830246569,-0.8611453922448338,0.9713217606955075
13.37090354,-2.5317969386871084,-0.7688340695935822,0.982109019562635
13.37565859,-2.089763173228759,-0.6781396563973455,0.9761745888107488
13.38041364,-1.6146482429371392,-0.5908768125101137,0.953564236346185
13.38516875,-1.1138382879301552,-0.5087561678475337,0.9146454022858347
13.3899238,-0.5952615712100628,-0.43335699168300496,0.8601043003094148
13.39467885,-0.06724263001254754,-0.3661026889260032,0.7909367195043596
13.3994339,0.4616550456649627,-0.30823935858552054,0.7084325166212468
13.40418901,0.9827943609219011,-0.260817611416627,0.6141538867305018
13.40894406,1.4876342466383243,-0.22467780791216038,0.5099076082592545
13.41369911,1.9678996257975867,-0.20043884218595026,0.39771158019776814
13.41845416,2.415747668169195,-0.18849056010806625,0.2797561065898374
13.42320927,2.823926296761653,-0.18898986014091182,0.15836053502728664
13.42796432,3.1859210345950815,-0.20186048217583835,0.03592601735775982
13.43271937,3.4960865194399875,-0.22679644362973062,-0.08511467577650286
13.43747448,3.7497593625208343,-0.2632690344867923,-0.2023492013269085
13.44222953,3.94334947644341,-0.3105372358917164,-0.3134383364415142
13.44698458,4.074407535860345,-0.3676613824255595,-0.41616801158277555
13.45173969,4.141666845580434,-0.4335198478730025,-0.5084993367314071
13.45649474,4.145058555218988,-0.5068284984269079,-0.5886152853081038
13.46124979,4.085699855814052,-0.5861626246579916,-0.6549627640178582
13.46600489,3.965855501447423,-0.6699810319340248,-0.706288904433186
13.47075995,3.788873698795798,-0.7566519358712299,-0.741670553748233
13.475515,3.559098082731863,-0.8444802731519787,-0.7605361076818419
13.48027005,3.281758131616213,-0.9317359985465117,-0.7626790098897583
13.48502515,2.962840957497412,-1.0166828983176899,-0.7482624348720347
13.48978021,2.608947917887163,-1.0976074125747382,-0.7178148749536168
13.49453526,2.227139916203316,-1.1728469300303914,-0.6722165699802944
13.49929036,1.824775561284879,-1.2408170034232957,-0.6126769556905227
13.50404541,1.409346515747671,-1.3000369368084217,-0.5407035652386669
13.50880047,0.9883143595753818,-1.3491532192566218,-0.4580630933367547
13.51355557,0.5689531264268768,-1.3869603233290833,-0.36673561134358174
13.51831062,0.15820135072986696,-1.4124184491435354,-0.26886318599802433
13.52306567,-0.23747297774962964,-1.4246678725571518,-0.16669438427632105
13.52782073,-0.6121916833512356,-1.4230396445731748,-0.06252632410157608
13.53257583,-0.9607676089994028,-1.4070624837638328,0.04135395773414641
13.53733088,-1.2787860667988058,-1.376465799916167,0.14272700998140372
13.54208594,-1.5626654429344977,-1.3311788819067976,0.239495567915969
13.54684104,-1.8096964431048241,-1.2713263738259541,0.32973458100596553
13.55159609,-2.0180600128076027,-1.1972202493096997,0.4117351696642277
13.55635114,-2.1868244767694316,-1.109348574052683,0.4840412456373783
13.5611062,-2.3159229066698184,-1.0083614196864916,0.5454778136838442
13.5658613,-2.406112140009666,-0.8950543572558562,0.5951702943501025
13.57061635,-2.458915230710136,-0.7703500132854539,0.632554554042689
13.5753714,-2.4765494103991452,-0.6352782132298209,0.6573776822227954
13.58012651,-2.4618418760056904,-0.49095526336489387,0.6696898985242082
13.58488156,-2.41813589254477,-0.3385629311025908,0.6698282876604824
13.58963661,-2.3491898087254555,-0.1793276744863577,0.6583933319087373
13.59439172,-2.2590716268302033,-0.01450064433585325,0.6362194271463825
13.59914677,-2.152051747379558,0.15466106200057772,0.6043407191010463
13.60390182,-2.0324964243508137,0.32691147642557383,0.5639536753319593
13.60865687,-1.9047643210761347,0.501030819786703,0.516377813792698
13.61341198,-1.7731083568647639,0.6758382828995935,0.4630159445119626
13.61816703,-1.6415847898541944,0.8502023548059351,0.40531515678698227
13.62292208,-1.5139712042043942,1.0230486133257568,0.34472961555411535
13.62767719,-1.3936947704739902,1.1933649786700629,0.2826860360346798
13.63243224,-1.283771835509001,1.3602045104375458,0.22055250443049984
13.63718729,-1.186759578306992,1.522685900167296,0.1596111205466012
13.64194239,-1.104720145715084,1.6799918749903113,0.10103476679874218
13.64669745,-1.039197362320269,1.831365783062561,0.04586816196622995
13.6514525,-0.9912058002775483,1.9761066795382423,-0.004986763725345788
13.6562076,-0.9612317054189204,2.11356327385865,-0.05078123768086738
13.66096265,-0.9492450135319492,2.2431271348831276,-0.0909259110331292
13.66571771,-0.9547214623809006,2.3642255784265385,-0.12499325046196198
13.67047281,-0.9766736173837894,2.4763146799437643,-0.15271634986049448
13.67522786,-1.0136894872164905,2.578872861068871,-0.17398451088035563
13.67998291,-1.0639773143018876,2.6713954903183668,-0.18883598513261543
13.68473797,-1.1254150877314972,2.7533909135871437,-0.1974483023730965
13.68949307,-1.1956033448586507,2.8243782871458665,-0.2001266267845508
13.69424812,-1.2719199020322072,2.8838875227166905,-0.19729058536982633
13.69900317,-1.3515752806788415,2.931461569475646,-0.18945999635552732
13.70375828,-1.4316677653575545,2.9666611515342463,-0.177239890122139
13.70851333,-1.5092372364856448,2.989071953976355,-0.16130516133857262
13.71326838,-1.5813171497381242,2.9983141118895396,-0.14238512323293792
13.71802349,-1.6449842687731124,2.9940537156652036,-0.12124816267994154
13.72277854,-1.6974059754345365,2.9760159164267077,-0.09868663065900429
13.72753359,-1.73588515981104,2.943999112024154,-0.07550205795813551
13.73228864,-1.7579028150084353,2.8978896261302607,-0.05249076638942182
13.73704375,-1.761158518703027,2.837676263054768,-0.03042994991570282
13.7417988,-1.7436089718353553,2.7634641263904776,-0.010064321790057697
13.74655385,-1.7035046863810703,2.675487126705332,0.007906544662808865
13.75130896,-1.6394247770475454,2.5741186680154917,0.02284002005871775
13.75606401,-1.550309628383797,2.45988008790577,0.03416117715963481
13.76081906,-1.4354909955973933,2.3334465217162865,0.041372296417309794
13.76557411,-1.2947188765891882,2.195649956179741,0.04406091619062958
13.77032922,-1.1281842918058322,2.0474793236430244,0.04190625462197717
13.77508427,-0.9365369548876483,1.890077559794634,0.03468388491978577
13.77983932,-0.7208967319090824,1.7247356046989275,0.02226861875318427
13.78459442,-0.4828577822804716,1.5528833710745769,0.004635631488246801
13.78934948,-0.22448435350305704,1.3760777397002852,-0.018140065735154136
13.79410453,0.05170263875166172,1.195987675625885,-0.04588565011482826
13.79885963,0.34274888385322705,1.0143765965911398,-0.07833382452829173
13.80361469,0.6453001546025599,0.8330821709043768,-0.11512728642352459
13.80836974,0.9556460154180358,0.6539937767207317,-0.15582417188693962
13.81312484,1.2697734346380245,0.4790279151923357,-0.19990436151106958
13.81787989,1.5834296203324245,0.3101019310352999,-0.2467765870385215
13.82263494,1.8921930576436021,0.14910645008908333,-0.2957863300583988
13.82739,2.191551413149697,-0.0021230099388763954,-0.3462245469106956
13.8321451,2.476984697736898,-0.14183476475060405,-0.39733727963150667
13.83690015,2.7440518479748848,-0.268389512311792,-0.44833621620722497
13.84165521,2.988478698479489,-0.38028818377420875,-0.4984102423771238
13.84641031,3.206245177276054,-0.4761985771974742,-0.5467379817858572
13.85116536,3.393669469663183,-0.554980266307913,-0.5925012536975348
13.85592041,3.54748687371523,-0.6157072947960212,-0.6348992929458542
13.86067547,3.6649211231299295,-0.6576881893676197,-0.6731634842074412
13.86543057,3.743746088603833,-0.680482850667879,-0.7065722740666811
13.87018562,3.782335989914904,-0.6839159106304115,-0.7344658523289636
13.87494067,3.77970255365605,-0.6680861797449799,-0.7562601484340896
13.87969578,3.735517926024337,-0.633371851310982,-0.7714596741823114
13.88445083,3.6501225802388153,-0.5804311852584201,-0.7796687595255721
13.88920588,3.524517923463786,-0.5101984640364411,-0.7806007694114135
13.89396099,3.3603437863651924,-0.42387509827231895,-0.7740849505514105
13.89871604,3.1598414490698556,-0.3229158591492606,-0.7600706317117827
13.90347109,2.925803302618687,-0.20901032402745465,-0.738628585142199
13.9082262,2.661510649144261,-0.08405973593841332,-0.7099494468604728
13.91298125,2.3706614920832685,0.04985041026794439,-0.674339187370891
13.9177363,2.057290446852143,0.19048163755525246,-0.6322117201996817
13.92249135,1.725683103474697,0.3354771003826767,-0.5840788317569103
13.92724646,1.3802872910485093,0.482398948416873,-0.530537710276609
13.93200151,1.0256237288292176,0.6287677758744271,-0.4722564402311541
13.93675656,0.6661985021050473,0.7721034333672167,-0.40995790640968593
13.94151166,0.30641967730750674,0.9099664321967466,-0.3444026132520934
13.94626672,-0.04947982365030284,1.0399991368309056,-0.2763709657541184
13.95102177,-0.39751122706768766,1.1599659212773814,-0.20664557612335152
13.95577682,-0.733989237410372,1.2677914607767864,-0.13599415548334765
13.96053192,-1.055580496275971,1.3615963429330622,-0.06515352470261324
13.96528698,-1.3593403596985951,1.4397292131101744,0.005184762705560134
13.97004203,-1.6427375886518636,1.5007947186707713,0.07438674445535834
13.97479713,-1.9036669575906873,1.543676586411871,0.14188593776351263
13.97955219,-2.1404501850465234,1.5675552579156615,0.2071904759966624
13.98430724,-2.351825963507651,1.5719196179695474,0.2698872569161389
13.98906234,-2.536930198912959,1.5565724798098266,0.32964296515571234
13.99381739,-2.6952678508192993,1.5216296345853764,0.3862019549290192
13.99857244,-2.826677983198374,1.4675124272608655,0.4393811224141705
14.00332755,-2.93129378662175,1.3949339829073122,0.48906204915008145
14.0080826,-3.0094994121227066,1.3048793713191746,0.5351808427097564
14.01283765,-3.0618854647514215,1.1985801592063128,0.577716225301205
14.01759271,-3.089204942596782,1.0774839528400644,0.6166765165489406
14.02234781,-3.0923312791707676,0.9432196751859129,0.6520862203207272
14.02710286,-3.0722199607105387,0.7975594456886457,0.6839729557172122
14.03185791,-3.029874954903166,0.6423780336626761,0.712355466673516
14.03661302,-2.9663209150619587,0.4796109335772359,0.7372333990442178
14.04136807,-2.882581825605578,0.3112121587091641,0.7585794458278273
14.04612312,-2.7796664425268514,0.13911286579174054,0.7763343320829733
14.05087817,-2.658560568109245,-0.034818094075718155,0.7904049485688863
14.05563328,-2.5202258941282136,-0.2088106537126635,0.8006657591735385
14.06038833,-2.3656048634036644,-0.3812260752222608,0.8069634157823493
14.06514338,-2.1956307461380873,-0.5505847116829176,0.8091243291713405
14.06989849,-2.0112419140049846,-0.715588271073961,0.806964777890293
14.07465354,-1.813399129181406,-0.875136026138456,0.8003029986182062
14.07940859,-1.6031045539837179,-1.028334588425556,0.7889725978500152
14.0841637,-1.3814211346999195,-1.1745010514910428,0.7728365592998774
14.08891875,-1.1494910240714145,-1.3131595024167373,0.7518010940468434
14.0936738,-0.9085517815260873,-1.4440310976313098,0.7258285889512943
14.09842885,-0.6599492261130377,-1.5670180936234643,0.6949489502071233
14.10318396,-0.4051460079366077,-1.6821824101950191,0.6592687099991934
14.10793901,-0.14572520088261737,-1.7897194774356115,0.618977362023358
14.11269406,0.11661150793185579,-1.8899282715645174,0.574350512914177
14.11744916,0.380051160772418,-1.9831785733961633,0.5257495779483032
14.12220422,0.6426822294132384,-2.069876580754596,0.4736179063675652
14.12695927,0.9025122060239006,-2.1504300673825836,0.41847338829033365
14.13171437,1.1574893571624727,-2.2252143018847796,0.3608977638528221
14.13646942,1.405527702657638,-2.2945399195827765,0.3015230176378586
14.14122448,1.6445341362670127,-2.358623879215698,0.24101538967833377
14.14597953,1.872436535390743,-2.4175645387631044,0.18005766140697307
14.15073463,2.0872117158158727,-2.4713217548338307,0.11933047489596334
14.15548969,2.286912170873866,-2.519702752762243,0.059493511403171516
14.16024474,2.469690682724486,-2.562354334842498,0.001167385907049177
14.16499984,2.6338220916564783,-2.5987617978523123,-0.055082896629274486
14.16975489,2.77772173869605,-2.6282547246376495,-0.108762134516061
14.17450994,2.899960337771596,-2.6500196045515634,-0.1594560896961556
14.17926505,2.999275268104069,-2.6631190299998027,-0.20683908868929352
14.1840201,3.074578490832193,-2.666517016501377,-0.25067773807944765
14.18877515,3.1249614760568787,-2.659109805921418,-0.290830661536287
14.19353021,3.14969767163877,-2.6397613407852187,-0.3272444116579314
14.19828531,3.1482431502514236,-2.6073424457982965,-0.3599459449297839
14.20304036,3.1202361344886373,-2.5607726248244056,-0.3890322462055936
14.20779541,3.0654961191779733,-2.4990632808429756,-0.41465782886604347
14.21255047,2.984023283397194,-2.421361094876094,-0.43702090564453805
14.21730557,2.8759988112615864,-2.3269902587538267,-0.45634902215146006
14.22206062,2.7417866221324316,-2.2154922471292773,-0.4728848805208565
14.22681567,2.5819368522107435,-2.086661838467034,-0.48687297182492967
14.23157078,2.3971912380417235,-1.9405781557589594,-0.4985475032958427
14.23632583,2.1884903385195593,-1.7776295982396157,-0.5081219695721931
14.24108088,1.956982308387069,-1.59853167661045,-0.5157805920469162
14.24583599,1.704032717666043,-1.4043369449430352,-0.5216717464598559
14.25059104,1.4312347134421446,-1.1964364383679822,-0.5259034181624788
14.25534609,1.1404186582848432,-0.976552270225365,-0.5285406629825709
14.26010114,0.833660266605972,-0.746721306833867,-0.5296050025943807
14.26485625,0.5132862043097373,-0.5092701113490686,-0.5290756403468595
14.2696113,0.1818761178487956,-0.26678161690965446,-0.5268923422899802
14.27436635,-0.15773989095437765,-0.022054239587632873,-0.5229597870295626
14.27912146,-0.5024892377436921,0.22194563767646777,-0.5171531482390711
14.28387651,-0.8490710470183865,0.4621366948551672,-0.5093246391087071
14.28863156,-1.1939771825810033,0.6953799582340603,-0.4993107246744722
14.29338666,-1.533520561183227,0.9185389718456223,-0.48693970217312504
14.29814172,-1.8638709917302652,1.1285414238751175,-0.472039365818981
14.30289677,-2.1810985556879836,1.3224407639027067,-0.45444451133797725
14.30765182,-2.481224294133257,1.4974763506830904,-0.43400409287777436
14.31240692,-2.7602776965068476,1.6511307075325106,-0.4105879116905832
14.31716198,-3.014360201416352,1.7811825317388033,-0.38409278114164747
14.32191703,-3.239713629676517,1.8857542036181645,-0.35444816571070686
14.32667208,-3.4327921862389,1.9633526670440586,-0.3216213251606337
14.33142718,-3.590336405438595,2.0129027030052464,-0.2856220049422906
14.33618224,-3.7094471887765446,2.0337717872601226,-0.24650669956170312
14.34093729,-3.7876579106041732,2.0257859086656667,-0.20438247967570225
14.34569239,-3.8230024553129067,1.989235922687049,-0.15941032209584127
14.35044744,-3.8140770061908835,1.924874221625549,-0.11180782357854076
14.3552025,-3.7600934338301273,1.8339017159713538,-0.06185112439226012
14.3599576,-3.6609222325290816,1.7179453364380828,-0.009875825175724487
14.36471265,-3.517123128724189,1.5790264797194253,0.04372334328214634
14.36946771,-3.329961738742606,1.419521028591404,0.09849433981746039
14.37422276,-3.1014109855151277,1.2421117742417425,0.15393134373887163
14.37897786,-2.834136393040736,1.0497342510869305,0.2094801732320711
14.38373291,-2.5314648550947347,0.8455171572410844,0.2645456965845599
14.38848797,-2.197337005336239,0.6327186726866035,0.3185012404538216
14.39324307,-1.8362438764466844,0.4146600976995366,0.3706998655728381
14.39799812,-1.4531490967046725,0.19465831222233146,0.42048721700580954
14.40275317,-1.0533984009368758,-0.024041400524790483,0.4672154790554704
14.40750823,-0.6426186986749574,-0.23833061761406918,0.5102578025743033
14.41226333,-0.22660932213473325,-0.4452996105759192,0.5490224575419389
14.41701838,0.18877164411483838,-0.6422943012169401,0.5829659218019738
14.42177344,0.5977228778225915,-0.826966990755337,0.6116041587070203
14.42652854,0.9946140408726023,-0.9973196443089142,0.6345214585213059
14.43128359,1.3740956159114142,-1.1517386696745904,0.6513764068682075
14.43603864,1.7312014156727522,-1.289020310035794,0.6619047782093617
14.4407937,2.0614410733040365,-1.408385972719798,0.6659194093003543
14.4455488,2.3608801642551467,-1.5094870388757748,0.6633073594262292
14.45030385,2.6262060321445717,-1.5923989403781635,0.654024881338036
14.4550589,2.8547778753589155,-1.6576045481638004,0.6380908815190842
14.45981396,3.044660175254241,-1.7059671870625734,0.6155796224464481
14.46456906,3.1946390833680565,-1.738693870636305,0.5866134107378793
14.46932411,3.304221905895508,-1.7572896283907697,0.5513559384750045
14.47407916,3.3736203058686773,-1.763504068089918,0.510006826411091
14.47883427,3.4037182737839395,-1.7592715675008195,0.46279778353541545
14.48358932,3.3960262920096542,-1.7466467117547761,0.4099906653523638
14.48834437,3.3526234375607618,-1.7277367739760014,0.3518775886210447
14.49309948,3.276089430258604,-1.7046331683259255,0.2887831381225034
14.49785453,3.1694288323101185,-1.6793438780002325,0.22106857166321878
14.50260958,3.035989730286119,-1.6537288698270163,0.14913778610559858
14.50736463,2.8793792710457513,-1.629440448577071,0.07344465155064633
14.51211974,2.703378374617477,-1.607870377915595,-0.005498834673968198
14.51687479,2.511857813274516,-1.590105404384839,-0.08711425815836024
14.52162984,2.308697638782086,-1.5768925719971076,-0.17074914127725518
14.52638489,2.0977116755599337,-1.5686154164229253,-0.25567076190010773
14.53114,1.8825784947177386,-1.565281790050685,-0.34106223974109195
14.53589505,1.6667799614409489,-1.56652370500399,-0.4260216168160086
14.5406501,1.4535481243097503,-1.5716092046052141,-0.5095645315300947
14.54540521,1.2458209060360224,-1.5794658993353161,-0.5906309195420388
14.55016026,1.0462067735257754,-1.5887154449151801,-0.6680959820473477
14.55491531,0.8569583199796061,-1.5977179097981389,-0.740785456871556
14.55967036,0.679954488538844,-1.604624686885133,-0.807495021055867
14.56442547,0.5166910087563069,-1.6074383572123314,-0.8670134535426182
14.56918052,0.3682785043341859,-1.6040777174606997,-0.9181489985972465
14.57393557,0.2354476607357717,-1.5924460425933824,-0.9597581993591698
14.57869062,0.11856080917349493,-1.5705005723443377,-0.9907763216546634
14.58344573,0.01762928108493007,-1.5363211864853565,-1.010248367136567
14.58820078,-0.06766409578196095,-1.4881762677528527,-1.0173595886902724
14.59295583,-0.13793796357044918,-1.4245838402043858,-1.011464376737625
14.59771088,-0.19408144463056462,-1.3443662102693883,-0.9921123887971011
14.60246599,-0.2372197676465846,-1.2466965226691304,-0.959070850384946
14.60722104,-0.2686770893322414,-1.1311358685277273,-0.9123420632135212
14.61197609,-0.28993712016015116,-0.9976598435148497,-0.8521753126526137
14.6167312,-0.30260220996333864,-0.8466737444758465,-0.7790725631248879
14.62148625,-0.3083516093919215,-0.6790159069159726,-0.6937875572757657
14.6262413,-0.30889968794902656,-0.49594901411366815,-0.5973181796596334
14.63099635,-0.30595494958660757,-0.2991395412315074,-0.4908921938492634
14.63575146,-0.30118073314645555,-0.09062582381780554,-0.3759466987837682
14.64050651,-0.29615850757729745,0.12722445050440995,-0.2541018631884827
14.64526156,-0.2923546613796531,0.3517662440146308,-0.12712967661281138
14.65001661,-0.2910916338495917,0.5801373283460973,0.0030814035683571256
14.65477172,-0.29352413655804205,0.8093250475737646,0.13456492973503428
14.65952677,-0.3006210651748799,1.0362379516950537,0.2653170257970488
14.66428182,-0.31315350786053714,1.257780428948721,0.39333796713881425
14.66903692,-0.3316890272148022,1.4709283716425028,0.5166737169906576
14.67379198,-0.3565921441323877,1.6728038644669032,0.6334563856938814
14.67854703,-0.3880307028110147,1.8607468895818227,0.7419426262949474
14.68330208,-0.4259875653076372,2.0323821009634964,0.8405490429319028
14.68805719,-0.47027688727050776,2.185678832213005,0.9278837679361874
14.69281224,-0.5205640748923392,2.3190026664037777,1.0027734618430806
14.69756729,-0.5763884224390564,2.4311571110415655,1.064285109667329
14.70232234,-0.6371873808579377,2.521414181194216,1.1117421258977742
14.70707745,-0.7023214082782604,2.5895329921194206,1.144734434054188
14.7118325,-0.7710983971264643,2.635765789397822,1.1631223453967943
14.71658755,-0.8427967523541977,2.6608511877523084,1.1670342175007058
14.7213426,-0.9166863024658722,2.6659947368845454,1.156858023707854
14.72609771,-0.9920463522587539,2.652837272437331,1.133227110454568
14.73085276,-1.0681803280509274,2.6234118336870575,1.0970005633506519
14.73560781,-1.1444266187969336,2.580090230490953,1.0492387434175483
14.74036286,-1.2201653767122773,2.5255206158296066,0.9911746866673284
14.74511797,-1.2948212061596458,2.4625576628946724,0.924182175985645
14.74987302,-1.3678618376415,2.3941871522628215,0.8497413871823281
14.75462807,-1.4387930535459765,2.3234469392729253,0.7694030745541952
14.75938312,-1.5071503021111985,2.2533463871738553,0.6847522884605378
14.76413823,-1.5724876013628455,2.1867864100247836,0.5973726021074025
14.76889328,-1.6343644860717919,2.1264822628730173,0.5088117648324733
14.77364833,-1.6923318745261198,2.07489113968749,0.42054959958249577
14.77840338,-1.7459178148003043,2.034146491035667,0.33396883540059535
14.78315849,-1.7946141041584553,2.0060007593671525,0.25032942850473155
14.78791354,-1.8378647595996924,1.991777962041762,0.17074679388175693
14.79266859,-1.8750572573514408,1.992337246802796,0.09617425315655051
14.79742364,-1.9055173611444525,2.0080482181344634,0.027389905924844495
14.80217875,-1.92850822890289,2.038778501539616,-0.03501195300915064
14.8069338,-1.94323432859602,2.0838936893623696,-0.09062482519572489
14.81168885,-1.948850509061304,2.1422695063086845,-0.13922943936599955
14.81644396,-1.9444763639394764,2.2123157521828656,-0.18078873142046797
14.82119901,-1.9292158015060878,2.292011328070342,-0.2154385696593819
14.82595406,-1.9021814969873863,2.3789494329552707,-0.2434745144719945
14.83070911,-1.8625236649020005,2.4703918316030227,-0.2653349990417914
14.83546416,-1.809462355712192,2.5633309408633997,-0.28158141426436933
14.84021927,-1.7423222631324673,2.654558358435213,-0.29287567111419477
14.84497432,-1.6605688366279514,2.7407383629690503,-0.2999558913968963
14.84972937,-1.56384433963536,2.818484844517276,-0.303610938591332
14.85448448,-1.4520023895211605,2.8844400773831733,-0.30465454097776146
14.85923953,-1.3251394709654098,2.9353537214194754,-0.3038997763204239
14.86399458,-1.1836219389604792,2.968160431626057,-0.3021346773130605
14.86874963,-1.028107125860531,2.980054469654439,-0.30009967661513426
14.87350474,-0.8595573384875468,2.968559746144797,-0.2984675389068979
14.87825979,-0.6792457695689379,2.9315937822532447,-0.29782632731157155
14.88301484,-0.4887536399837651,2.8675241650139194,-0.29866582715911866
14.88776989,-0.28995821646161596,2.7752161866315834,-0.3013677071548911
14.89252495,-0.08501169226375967,2.6540705038204733,-0.306199543966886
14.89728005,0.1236887457219068,2.5040498299159224,-0.3133126803578919
14.9020351,0.33353902993626333,2.325693878023742,-0.3227437400210911
14.90679015,0.5417736002432297,2.12012200474111,-0.3344194951744886
14.91154521,0.745516935405502,1.889023256708057,-0.348164684693371
14.91630031,0.9418399139127178,1.6346337913860267,-0.3637123157060026
14.92105536,1.1278195498738088,1.3597019232060847,-0.38071594944089904
14.92581041,1.3006005491735808,1.0674413300465035,-0.39876346799151074
14.93056547,1.4574570697980487,0.761473235866647,-0.41739183592273366
14.93532057,1.5958530496626984,0.44575865607418164,-0.43610240174785103
14.94007562,1.7134994885836685,0.1245220458134093,-0.45437632122607435
14.94483067,1.8084071416070544,-0.19783207879880849,-0.4716897201029152
14.94958573,1.8789332001713521,-0.516807776533369,-0.4875282446660775
14.95434083,1.9238207031051653,-0.8279096397653372,-0.5014006753298584
14.95909588,1.9422296245519346,-1.1267360186258575,-0.5128513056674258
14.96385094,1.9337588206927738,-1.4090713761710674,-0.5214708211667761
14.96860599,1.8984582708918254,-1.670975613614769,-0.5269054501513369
14.97336104,1.8368313126755123,-1.9088682314718286,-0.5288642026394144
14.97811614,1.749826837996631,-2.119605273586819,-0.5271240594433069
14.9828712,1.6388216870082013,-2.300547135566181,-0.5215330227957582
14.98762625,1.5055937412969203,-2.4496155047378494,-0.5120109922450673
14.9923813,1.3522864748348407,-2.5653379323381564,-0.49854848720924166
14.9971364,1.1813659583132599,-2.6468788168332664,-0.48120330144632106
15.00189146,0.995571520046965,-2.6940558962972823,-0.4600952440471448
15.00664651,0.7978614344625814,-2.707341702423154,-0.43539919351568973
15.01140156,0.5913551304242002,-2.6878498119799397,-0.40733676146692904
15.01615661,0.3792734825316205,-2.637306134518578,-0.37616692508970945
15.02091172,0.16487876790448122,-2.5580058872297444,-0.34217603784280487
15.02566677,-0.048584160201170776,-2.4527573163969127,-0.30566766229297804
15.03042182,-0.25794400990165567,-2.3248136155493984,-0.2669526856022674
15.03517687,-0.46015515152145076,-2.177794847989486,-0.2263401759544278
15.03993198,-0.6523444995592657,-2.015601990106148,-0.18412941634720706
15.04468703,-0.831852196657714,-1.8423254561389548,-0.1406035094983015
15.04944208,-0.9962653562554173,-1.662150630811104,-0.09602488257229179
15.05419713,-1.14344438257291,-1.4792630130761313,-0.050632931914427096
15.05895218,-1.2715416657345253,-1.2977555565873071,-0.00464393707456616
15.06370729,-1.379012734977064,-1.1215406803094499,0.04174675498841406
15.06846234,-1.4646202314019419,-0.9542692212987351,0.08836041187902474
15.07321739,-1.5274313203753676,-0.7992583213960462,0.13502873548047464
15.07797244,-1.5668093893790296,-0.6594298947032435,0.18158621283025456
15.08272755,-1.5824010573807312,-0.5372609301397784,0.22786149003590103
15.0874826,-1.5741196457079305,-0.4347464612786724,0.2736683289437927
15.09223765,-1.542126320326336,-0.35337560246833233,0.3187967397349636
15.09699271,-1.4868101086723273,-0.294120623936413,0.36300488095691236
15.10174776,-1.4087679237187516,-0.25743863586244414,0.40601228285949903
15.10650286,-1.3087856016590456,-0.2432850867904854,0.44749488271791826
15.11125791,-1.187820788431264,-0.2511379668951628,0.48708226592653137
15.11601297,-1.0469883061971694,-0.2800313504437513,0.5243573897211837
15.12076802,-0.8875484054924815,-0.32859672073379664,0.5588589353451225
15.12552312,-0.7108980731781197,-0.39511039847260027,0.5900862993202222
15.13027817,-0.518565331158536,-0.4775453415361285,0.6175071062410109
15.13503323,-0.31220623613484627,-0.5736255980676099,0.6405670141345787
15.13978828,-0.09360408581427733,-0.6808817716625255,0.6587014955737368
15.14454333,0.13532983916461375,-0.7967059908694187,0.6713492154836717
15.14929844,0.37255480750489267,-0.9184050574710055,0.6779665878054586
15.15405349,0.6158993486392325,-1.043250669382169,0.6780430731042887
15.15880854,0.8630610940433528,-1.1685258636776277,0.6711167725225564
15.16356359,1.1116086941806622,-1.291567091216353,0.656789876073465
15.16831864,1.358986701873691,-1.4098016030184215,0.6347435332256434
15.17307375,1.6025242120828653,-1.5207800851275897,0.604751731483116
15.1778288,1.8394479075299046,-1.622204708076153,0.5666937963216737
15.18258385,2.0668999872063063,-1.7119529453193936,0.52056516545905
15.1873389,2.2819612593975807,-1.7880976507218103,0.4664861419711537
15.19209401,2.481679471529651,-1.8489239609476795,0.4047083910247355
15.19684906,2.6631027346650935,-1.892943602252133,0.33561900833504793
15.20160411,2.82331768887336,-1.9189071360983654,0.2597420487602166
15.20635916,2.9594918542238644,-1.9258145825629531,0.1777374559229214
15.21111422,3.0689194274843485,-1.9129247265903966,0.0903973753275407
15.21586932,3.149069622962218,-1.8797632540691087,-0.0013601378197552632
15.22062437,3.197636522772469,-1.8261296977329529,-0.09649998944038905
15.22537942,3.2125893012040754,-1.7521030122520287,-0.19388146430919018
15.23013448,3.1922216218335,-1.6580454575511487,-0.29227215619362595
15.23488953,3.1351989750836533,-1.5446043612386726,-0.39036436392322066
15.23964463,3.040602728372957,-1.412711264180386,-0.4867938743705562
15.24439969,2.907969701420304,-1.26357793348653,-0.580160993707035
15.24915474,2.737326154891798,-1.098688755889556,-0.6690536020702446
15.25390979,2.5292151874733606,-0.9197890980008405,-0.7520719010069601
15.25866484,2.284716667518825,-0.7288693299956035,-0.8278544089716809
15.26341994,2.005458971911678,-0.5281443446515984,-0.8951046503127289
15.268175,1.6936219585799686,-0.32002855215969606,-0.9526178892917323
15.27293005,1.3519307548232071,-0.10710648150299351,-0.9993071924662883
15.2776851,0.9836400993724542,0.10790073730862997,-1.0342280674136046
15.28244015,0.5925091326115518,0.32217260494119065,-1.0566009278953539
15.28719526,0.18276668796700063,0.5328296776972166,-1.0658306770922077
15.29195031,-0.2409327014844175,0.7369765658107698,-1.061522780196252
15.29670536,-0.6735617044796326,0.9317468015511031,-1.0434953102838722
15.30146041,-1.1097814616557362,1.11434880455625,-1.011786587926777
15.30621547,-1.5440105239252553,1.2821121165701068,-0.9666581835038037
15.31097057,-1.9705006021587448,1.4325330363709363,-0.9085931988323476
15.31572562,-2.3834181215833494,1.5633187590412239,-0.8382898802396072
15.32048067,-2.7769304347657235,1.6724291133578009,-0.7566507310430158
15.32523573,-3.145295420550241,1.7581149987453812,-0.6647673854598583
15.32999078,-3.4829530852829604,1.8189526505071394,-0.563901581464362
15.33474588,-3.784617688620496,1.8538729100183902,-0.45546263377685403
15.33950094,-4.045368840499349,1.8621847457323837,-0.3409818669348208
15.34425599,-4.260739960751539,1.8435923610168405,-0.2220845265659882
15.34901104,-4.426802462422922,1.7982053352424148,-0.10045974521437853
15.35376609,-4.540244018996891,1.7265413739903743,0.022170805125650554
15.3585212,-4.598439308473272,1.6295213911670972,0.14408489284331744
15.36327625,-4.599511695251242,1.5084568081193572,0.2635916219513622
15.3680313,-4.542384412954157,1.3650291298069455,0.37906250826012383
15.37278635,-4.426819944787282,1.2012620422648537,0.48896100790425767
15.3775414,-4.253446459400337,1.0194864646006456,0.5918698017135601
15.38229651,-4.023770346902927,0.8222991769876935,0.6865151968352263
15.38705156,-3.7401741098034385,0.6125158266408385,0.7717880871036782
15.39180661,-3.405899095432758,0.3931192790293381,0.8467610099324664
15.39656166,-3.0250128075387033,0.1672044241566258,0.9107009434941151
15.40131672,-2.6023608023194362,-0.062079339060688105,0.9630775983241235
15.40607177,-2.1435034553359293,-0.29158663892879955,1.003567068789487
15.41082682,-1.6546381781150996,-0.5182343465561817,1.0320508204994991
15.41558192,-1.1425079645875953,-0.7390581305189067,1.0486100995778747
15.42033698,-0.6142974546421892,-0.9512660508742297,1.053515959568518
15.42509203,-0.07751801018259441,-1.1522879708130305,1.0472152125310805
15.42984708,0.4601163982167305,-1.3398196755888014,1.030312722456155
15.43460219,0.9908204060816451,-1.5118607278224694,1.0035505690475868
15.43935724,1.5068732148241613,-1.6667452500961706,0.9677847126667546
15.44411229,2.0007567031514593,-1.8031650042038385,0.9239598786382617
15.44886734,2.465292902146226,-1.9201843262770228,0.873083442244685
15.45362239,2.8937779047952716,-2.0172466734780987,0.8161991275333075
15.45837745,3.2801092030388865,-2.0941727365104157,0.7543613301854649
15.46313255,3.618903441254931,-2.151150268426732,0.6886108376106763
15.4678876,3.905601654209948,-2.1887159700254206,0.6199526510140192
15.47264265,4.136559228492647,-2.2077299519812357,0.5493365183037954
15.47739771,4.309118095274558,-2.209343460850674,0.477640667703519
15.48215276,4.421659030613847,-2.1949607076969238,0.405659095267374
15.48690781,4.473632403078751,-2.166195771829047,0.3340926126522423
15.49166291,4.465566255680509,-2.124825665266732,0.26354371403431814
15.49641797,4.399051221280616,-2.072740732704478,0.1945151829955158
15.50117302,4.27670242268758,-2.011893623344866,0.12741223921053216
15.50592807,4.102099170589574,-1.9442481017014839,0.06254792417107648
15.51068312,3.8797039121834027,-1.8717289619080226,0.0001513442080317865
15.51543817,3.614762470002135,-1.7961742732395127,-0.05962167560040967
15.52019328,3.3131881169370168,-1.7192911145256125,-0.11667602560049532
15.52494833,2.981432438557243,-1.6426158550122898,-0.17096337665045366
15.52970338,2.626346224460035,-1.567479913421792,-0.22246745532765327
15.53445844,2.25503380308219,-1.4949817803575909,-0.27118913551234997
15.53921349,1.8747042946885648,-1.425965926546607,-0.31713196589139736
15.54396854,1.4925232170833693,-1.3610090450418604,-0.36028874657574617
15.54872364,1.115467753276217,-1.3004138934180458,-0.40062973649783296
15.5534787,0.7501887956444024,-1.2442108159783796,-0.43809301304592885
15.55823375,0.4028826310654066,-1.1921668396620122,-0.4725774160427494
15.5629888,0.07917483725611124,-1.1438020540286182,-0.5039383924517753
15.56774385,-0.21598136926839787,-1.0984128084519358,-0.5319869218366312
15.5724989,-0.47839045209919967,-1.0551010915116625,-0.5564915537701565
15.57725396,-0.7046820423212926,-1.0128093019613376,-0.5771834367083576
15.58200906,-0.8923594996516399,-0.9703594814255909,-0.5937640730834057
15.58676411,-1.0398288729792322,-0.9264959599447515,-0.6059154062666532
15.59151916,-1.1464080180927858,-0.8799302699585617,-0.6133117388584794
15.59627422,-1.2123160675384148,-0.8293871150864203,-0.6156329047144581
15.60102927,-1.238643881320012,-0.7736501392874326,-0.6125780748541628
15.60578432,-1.2273065274434238,-0.7116062309160714,-0.6038795739671874
15.61053942,-1.1809792362918632,-0.6422871149505198,-0.589316119968321
15.61529448,-1.1030186297607887,-0.564907034448796,-0.5687249694029867
15.62004953,-0.99737133314805,-0.47889539783106994,-0.5420125480591366
15.62480458,-0.8684723256587092,-0.38392337077032407,-0.5091632586798892
15.62955963,-0.7211355673547015,-0.2799235197639384,-0.4702462752002321
15.63431469,-0.560439551758722,-0.16710176907695626,-0.42542024384733923
15.63906979,-0.3916104714052886,-0.045941114308196314,-0.3749359046410065
15.64382484,-0.21990564849917146,0.08280325552870425,-0.3191367144076956
15.64857989,-0.05049977788579213,0.2181175411954709,-0.2584575920747971
15.65333495,0.11162363867543532,0.358751479259528,-0.1934219219698421
15.65809,0.26177351005698113,0.5032486368974111,-0.12463694759789408
15.66284505,0.395643132545542,0.6499841632327988,-0.05278767395087259
15.6676001,0.5093913264586091,0.7972090309291658,0.021370623416010724
15.67235521,0.5997114416434246,0.9430995435086228,0.0970212054436118
15.67711026,0.6638872521778323,1.0858106531381364,0.1732959348531957
15.68186531,0.6998350648611014,1.2235314412905873,0.24928655536457403
15.68662036,0.7061316577366893,1.3545409703502176,0.32405714424229126
15.69137541,0.682027944241933,1.4772626265971487,0.39665768643754445
15.69613047,0.6274485320861443,1.5903150527102219,0.4661386877399872
15.70088552,0.5429776220972717,1.6925578192697404,0.5315666900462065
15.70564062,0.42983197344943946,1.7831301151017502,0.5920404742199155
15.71039567,0.28982193821615376,1.8614809446983909,0.646707641908007
15.71515073,0.12530182044406313,1.9273895987799758,0.6947811706432915
15.71990578,-0.060888977825126915,1.9809754969198747,0.7355554528132219
15.72466083,-0.2654924119462155,2.0226968716811147,0.7684212724675561
15.72941588,-0.48490415052126523,2.053338153940437,0.7928791540728652
15.73417094,-0.715250094808238,2.073986312027096,0.808550540318755
15.73892604,-0.9524653331832208,2.085996778121299,0.815186324454833
15.74368109,-1.192373848308359,2.0909499519432093,0.8126723729234263
15.74843614,-1.430767376063204,2.0905995948844516,0.8010318149968032
15.7531912,-1.6634819322621601,2.0868147102528,0.7804240305455912
15.75794625,-1.8864706760835017,2.0815167407157174,0.7511404169871397
15.7627013,-2.0958719653182714,2.0766140954258105,0.7135971483757341
15.76745635,-2.2880716702485473,2.073936139439433,0.6683252471871379
15.77221146,-2.4597590373878613,2.0751688300959095,0.6159583731831076
15.77696651,-2.6079756155198073,2.0817941636738597,0.5572187980009459
15.78172156,-2.730156958113461,2.0950354982257906,0.4929020811153429
15.78647661,-2.824166984569301,2.1158106460308517,0.42386098868045563
15.79123166,-2.8883250094106274,2.1446943863697077,0.3509891926814957
15.79598672,-2.9214255316090036,2.18189174425029,0.27520524674036956
15.80074177,-2.922750920145488,2.2272230241619093,0.19743725767789944
15.80549682,-2.8920771460570163,2.280121193861602,0.11860856838571728
15.81025187,-2.829672708341694,2.339641798094394,0.03962465340001559
15.81500698,-2.736290895878035,2.404485163242389,-0.038638678857391556
15.81976203,-2.6131555348101956,2.4730302469833685,-0.11534576875803311
15.82451708,-2.4619404022654847,2.543379105355401,-0.18971031919750847
15.82927213,-2.2847425465396145,2.61341060429777,-0.26100340983462866
15.83402719,-2.0840498348067356,2.680841704154434,-0.32856038138538796
15.83878224,-1.862703139231269,2.743294404242938,-0.3917866471530527
15.84353729,-1.6238536584500456,2.7983662601833363,-0.450162471610167
15.84829234,-1.3709159463260752,2.843702286533288,-0.5032467358798696
15.85304745,-1.1075172823715513,2.877066034835986,-0.550679687740786
15.8578025,-0.8374440706478213,2.8964076919127977,-0.5921846515769867
15.86255755,-0.5645859983104492,2.899927170991981,-0.6275686572825676
15.8673126,-0.292878720059896,2.8861303614046987,-0.6567219440280266
15.87206765,-0.02624585570106682,2.8538769496335634,-0.6796163106109733
15.87682271,0.23145891136897864,2.8024185106251016,-0.6963023196165823
15.88157776,0.47650886966267214,2.7314258774468616,-0.7069054132751962
15.88633281,0.7053597259982792,2.641005115559502,-0.7116210563859005
15.89108791,0.9147027898366742,2.531701745093042,-0.7107090757298256
15.89584297,1.1015152676487223,2.4044931639348537,-0.7044874057460749
15.90059802,1.2631070696773874,2.2607695213053463,-0.6933254688505508
15.90535307,1.3971635434874674,2.1023035714138105,-0.6776374118743198
15.91010812,1.5017835446144656,1.931210295195622,-0.6578753883436081
15.91486317,1.5755122410204385,1.7498973102809208,-0.6345230232553164
15.91961823,1.6173680358998388,1.5610072908039794,-0.60808912798998
15.92437328,1.6268629977780322,1.367353786387659,-0.5791016557366527
15.92912833,1.6040162242659226,1.1718519631585407,-0.5481018127520114
15.93388344,1.5493596479281333,0.9774458913723206,-0.5156381798840687
15.93863849,1.4639359200810456,0.7870340780078469,-0.4822606624499578
15.94339354,1.34928816944005,0.6033949913909413,-0.4485140806622512
15.94814859,1.2074416097066707,0.4291143489437133,-0.41493123805084975
15.95290364,1.040877147717518,0.26651593677518653,-0.38202535888229927
15.9576587,0.8524973118068551,0.11759769826040918,-0.35028186271367273
15.96241375,0.6455849731507715,-0.016025235019334512,-0.32014953842520966
15.9671688,0.4237554673275214,-0.13316899565096108,-0.2920312825001733
15.97192385,0.1909028362490848,-0.23311947911758224,-0.2662746660387373
15.97667896,-0.0488589991146014,-0.31565963004830594,-0.24316268032988853
15.98143401,-0.2912592558343011,-0.3810844768509303,-0.22290507114813243
15.98618906,-0.5319365657592169,-0.4302031350225686,-0.20563069967819378
15.99094411,-0.7665075453434536,-0.4643272938273035,-0.19138136024049743
15.99569916,-0.9906366665833748,-0.485246023048117,-0.18010744442606008
16.00045422,-1.2001064200287912,-0.49518707723002386,-0.17166577470003136
16.00520927,-1.3908867511389345,-0.49676522478025265,-0.16581984606268882
16.00996432,-1.559202749296975,-0.49291847925406573,-0.16224261872290238
16.01471937,-1.7015995750100414,-0.486833451462505,-0.1605219033137285
16.01947442,-1.815003624443074,-0.4818613656626052,-0.1601682785897381
16.02422948,-1.89677894944639,-0.481426583552132,-0.16062538663303216
16.02898458,-1.9447779735513309,-0.48892974890239665,-0.1612823695718171
16.03373963,-1.9573855694373938,-0.507647896183755,-0.16148815032357086
16.03849468,-1.9335555930266013,-0.5406340508166452,-0.1605672200043329
16.04324974,-1.8728390080402515,-0.5906189784697741,-0.15783657377642052
16.04800479,-1.775402788538823,-0.6599178075999237,-0.15262342839277082
16.05275984,-1.6420388618924315,-0.7503442452245773,-0.14428335092046585
16.05751489,-1.474162456491279,-0.8631350243188056,-0.1322184244984409
16.06226994,-1.2737993526087756,-0.9988870581208643,-0.11589507391014314
16.067025,-1.0435617063662455,-1.157509530977218,-0.09486117506165416
16.07178005,-0.786612330024126,-1.3381928300545738,-0.06876208177434459
16.0765351,-0.506617568099081,-1.5393958242779944,-0.037355220801638014
16.08129021,-0.20768920361364218,-1.7588525360397473,-0.0005229270531447217
16.08604526,0.10568384943222466,-1.9935987386267113,0.04171679231949773
16.09080031,0.42871298003512165,-2.2400184598824735,0.08920187133706028
16.09555536,0.7563950330828271,-2.493909793927281,0.14162049092480478
16.10031041,1.0836034846851221,-2.750568833762214,0.1985084068333216
16.10506547,1.4051837028472574,-3.004889957043563,0.2592496361597795
16.10982052,1.7160501764819143,-3.2514801466774395,0.3230808178447118
16.11457557,2.0112834835756677,-3.4847845300719533,0.3890994984622207
16.11933062,2.2862247270838756,-3.6992198981973488,0.4562764831483559
16.12408567,2.536565193454405,-3.8893126378290415,0.5234722420516941
16.12884073,2.758429080134557,-4.049837293514675,0.5894571948663513
16.13359578,2.948447290866705,-4.175951881467554,0.6529355318489141
16.13835088,3.103820507374764,-4.263326112604978,0.71257208590172
16.14310594,3.222370010454842,-4.308258848529298,0.7670216540927937
16.14786099,3.3025750394435107,-4.307781409745184,0.814960077035129
16.15261604,3.343595840190295,-4.259743772008458,0.8551163148224621
16.15737109,3.3452819455877245,-4.16288121132277,0.8863047025978609
16.16212614,3.3081656406864246,-4.01685957178296,0.9074565252646567
16.1668812,3.2334409642383766,-3.8222980070641466,0.9176500238531297
16.17163625,3.1229289688741733,-3.5807687525613914,0.9161379456140052
16.1763913,2.9790302867499996,-3.2947741842060507,0.9023717862836554
16.18114635,2.804666317634935,-2.9677020779816714,0.8760219503741647
16.1859014,2.603210570923483,-2.6037605756259814,0.8369931690268805
16.19065646,2.3784118564541386,-2.2078948713045254,0.785434653725989
16.19541156,2.1343111384862468,-1.785688053525075,0.7217446158737418
16.20016656,1.875153949756068,-1.3432488633683721,0.6465689378115304
16.20492166,1.6053003128764847,-0.8870893636163173,0.5607939347557908
16.20967672,1.329134136040232,-0.42399565431681185,0.4655332959679909
16.21443177,1.0509740383931603,0.03910517867574253,0.3621094355817393
16.21918682,0.7749875162592162,0.4952787299197089,0.2520296189918745
16.22394187,0.5051102835679137,0.9377145165237816,0.13695736152351407
16.22869692,0.2449725075937896,1.3598519430153333,0.01867972497290315
16.23345198,-0.0021664860397834023,1.7554983857860853,-0.10092873429687323
16.23820703,-0.2334736471902052,2.1189370991538965,-0.2199444879432504
16.24296208,-0.44658659817633956,2.445022994774115,-0.3364350400856735
16.24771713,-0.6396460673347846,2.72926472852047,-0.44849934005432346
16.25247219,-0.8113157127935123,2.9678919314341514,-0.5543074854734443
16.25722724,-0.9607889986228219,3.1579068308846896,-0.6521386040150519
16.26198234,-1.0877831172853498,3.2971199115062833,-0.7404158633825586
16.26673739,-1.1925202986835242,3.384169649577496,-0.8177376723260467
16.27149244,-1.2756971941373392,3.4185267065348715,-0.8829042915437949
16.2762475,-1.3384433562887577,3.4004832759317076,-0.9349392585287452
16.28100255,-1.3822701338901007,3.331128534932116,-0.9731052295454535
16.2857576,-1.4090115455922874,3.212311352103587,-0.9969140416335338
16.29051265,-1.4207588765787245,3.0465915483997477,-1.0061309885554932
16.29526771,-1.419790851669167,2.837181102806706,-1.0007734809076252
16.30002276,-1.408501281368572,2.5878767460843988,-0.9811044166099384
16.30477781,-1.389326061135587,2.3029854042678126,-0.9476207168304112
16.30953286,-1.3646713392822292,1.9872439466444858,-0.9010375768820874
16.31428791,-1.336844567166496,1.6457346685489394,-0.8422690368764001
16.31904297,-1.3079900186843147,1.2837979044196648,-0.7724054931752192
16.32379802,-1.2800302246399413,0.906943127060534,-0.6926887560878559
16.32855307,-1.2546146177364763,0.5207598494633838,-0.6044852251975391
16.33330817,-1.23307652763376,0.13082960846770844,-0.5092577173836399
16.33806317,-1.2163995009035078,-0.2573597248915726,-0.4085364583341152
16.34281828,-1.205193743265854,-0.6384960977906063,-0.30388974473837344
16.34757333,-1.199683285527488,-1.0075207194776796,-0.19689480245059654
16.35232838,-1.199704255023723,-1.3596996764637117,-0.0891093989969194
16.35708344,-1.204714388388762,-1.690688669281988,0.017955196125273704
16.36183849,-1.2138136502023826,-1.9965899163429768,0.12285928894948427
16.36659354,-1.2257755304124238,-2.274000393594384,0.2242572700735886
16.37134859,-1.2390882893205624,-2.5200507297969934,0.3209169962177828
16.37610364,-1.2520051124560512,-2.7324342534679738,0.41173557501627667
16.3808587,-1.2626018408711432,-2.909425883544371,0.49575121295643754
16.38561375,-1.268840668842393,-3.0498907643090605,0.5721509470542813
16.3903688,-1.2686379649845847,-3.153282758277214,0.6402742609728566
16.39512385,-1.259934188459503,-3.2196331212865963,0.6996127708042912
16.3998789,-1.2407637520556802,-3.2495298854736574,0.7498063380948492
16.40463396,-1.2093226386760523,-3.2440886621027514,0.7906361120263917
16.40938901,-1.16403161358397,-3.20491574139078,0.822015106140743
16.41414406,-1.1035929933090145,-3.1340645045234905,0.8439769695139956
16.41889911,-1.0270391308537328,-3.033986268146767,0.8566636153072654
16.42365416,-0.9337710500434303,-2.9074767488012503,0.8603123243400902
16.42840922,-0.8235860004395176,-2.757619361092772,0.8552428564783888
16.43316427,-0.6966930943393781,-2.5877265486651297,0.8418449914312593
16.43791937,-0.5537166101563122,-2.4012802940509053,0.8205667985921171
16.44267442,-0.3956869805443926,-2.2018728676441213,0.791903817929679
16.44742948,-0.22401990879768804,-1.9931487646117663,0.7563892328464298
16.45218453,-0.04048445639698352,-1.7787486496259708,0.714585039527506
16.45693958,0.152838695810087,-1.5622559911537608,0.6670741694087858
16.46169463,0.35360730270262014,-1.3471469279673227,0.6144535015909417
16.46644968,0.5592741719165213,-1.136743778476773,0.5573277062097299
16.47120474,0.7671484174041444,-0.9341724853845758,0.4963038811108696
16.47595979,0.9744593329613893,-0.7423241892702752,0.43198697431387434
16.48071484,1.1784208601591324,-0.5638210481897857,0.364976014861364
16.48546989,1.3762946953991237,-0.40098636711991836,0.29586119625757146
16.49022494,1.5654502226224905,-0.25581906981931674,0.2252218624191921
16.49498,1.7434196596436982,-0.1299725333000557,0.1536254304825529
16.49973505,1.9079470522655224,-0.024737807240170665,0.08162724554533113
16.5044901,2.0570300248478453,0.05896874767755857,0.009771301369074694
16.50924515,2.1889534830435577,0.12061335245989435,-0.06140831467482381
16.51400021,2.3023147510938093,0.1600481680013785,-0.13138547297646164
16.51875526,2.39603990377681,0.17751004292921754,-0.19963983847626132
16.52351031,2.4693913170402784,0.17361457396762278,-0.2656548282918913
16.52826536,2.521966708921757,0.14934541243706348,-0.32891604158732735
16.53302041,2.553690171419995,0.10603877517637275,-0.38891049540280603
16.53777547,2.5647959015876385,0.045363157459326196,-0.4451269502870658
16.54253052,2.5558055221136073,-0.030705701444926934,-0.4970575330875226
16.54728557,2.5275000328705572,-0.11991448467518515,-0.5442007698238073
16.55204062,2.4808875494747356,-0.21976640705928865,-0.5860660399585321
16.55679567,2.4171680567721054,-0.3275594981560124,-0.62217936617113
16.56155073,2.3376964288892914,-0.4404287057887445,-0.6520903712590669
16.56630578,2.243944939655102,-0.555391380298951,-0.6753801728046588
16.57106083,2.1374664079230956,-0.6693956123637193,-0.6916699488090016
16.57581588,2.019858996316964,-0.7793708104671304,-0.7006298913819725
16.58057094,1.8927335185986596,-0.8822798197870628,-0.7019882657287274
16.58532599,1.75768392330088,-0.9751718044896538,-0.6955403020531425
16.59008104,1.6162614241804363,-1.0552350427241808,-0.6811566633955025
16.59483609,1.469952555319945,-1.1198487208352572,-0.6587912494236804
16.59959114,1.3201612513961978,-1.1666327634050457,-0.62848811295851
16.60434625,1.1681948994332243,-1.1934947016424053,-0.5903872816129851
16.60910125,1.0152541823463792,-1.198672567578513,-0.5447292914019742
16.61385635,0.8624264399102642,-1.180772809324891,-0.4918582539913531
16.6186114,0.7106822102495225,-1.1388022573810768,-0.4322232967678609
16.62336646,0.5608745821086426,-1.0721932369448304,-0.3663782365196251
16.62812151,0.4137409793558738,-0.9808210178113791,-0.294979372120517
16.63287656,0.2699070072916234,-0.865012921241611,-0.2187813065611053
16.63763161,0.12989200919717314,-0.7255485604481913,-0.1386307327805587
16.64238666,-0.005883992792392916,-0.5636508756154203,-0.05545814337175121
16.64714172,-0.13709226838012326,-0.38096783216827906,0.029732543760477643
16.65189677,-0.2634865250347688,-0.17954487775379005,0.11587640888926702
16.65665182,-0.38489346121340184,0.03821150668363608,0.20186191307479956
16.66140687,-0.5012029313330497,0.2695785803194222,0.2865470843921338
16.66616192,-0.6123579065317014,0.511569614940957,0.3687772809323901
16.67091698,-0.7183444037685623,0.7609926079393368,0.4474042319784596
16.67567203,-0.8191815528942262,1.0145141641193722,0.5213059918686725
16.68042708,-0.9149119750021752,1.2687270908682688,0.5894073835267105
16.68518213,-1.0055926524535899,1.520220105367023,0.6507004638123305
16.68993718,-1.0912864765466037,1.7656479514683334,0.7042645126545457
16.69469224,-1.1720546565590775,2.0018001723987044,0.7492850328110462
16.69944729,-1.2479501584629347,2.2256667868907787,0.7850712463957293
16.70420234,-1.3190123110113963,2.4344991727002747,0.8110715870370429
16.70895739,-1.385262672727356,2.625864572360445,0.8268867123612681
16.71371245,-1.4467021997952851,2.7976927983084825,0.8322796013194376
16.7184675,-1.5033096985152676,2.9483139232124644,0.8271823563179264
16.72322255,-1.555041494629133,3.0764859906679964,0.811699402734217
16.7279776,-1.601832211570576,3.181412064711053,0.7861068689540136
16.73273265,-1.6435965222135667,3.2627462456698897,0.7508480374097112
16.73748771,-1.6802317218573493,3.320588605245613,0.7065248770687893
16.74224276,-1.7116209614536806,3.3554693247410143,0.6538857934643341
16.74699781,-1.7376369796973878,3.3683226452485484,0.593809856302335
16.75175286,-1.7581461840056096,3.360451544442539,0.5272878821862064
16.75650791,-1.7730129575549467,3.333484328195712,0.4554008600468078
16.76126297,-1.7821041127919377,3.2893245545147898,0.3792963099437707
16.76601802,-1.7852934652708583,3.2300958828288127,0.30016325983818565
16.77077307,-1.7824665538681008,3.158083557655619,0.21920660147416676
16.77552812,-1.7735255711759481,3.0756742900685223,0.13762163149874407
16.78028317,-1.758394580843986,2.985296293866243,0.056569582691363474
16.78503823,-1.7370250826132705,2.8893611677729973,-0.02284510445283765
16.78979328,-1.7094019436314614,2.7902091927189687,-0.09959512224968758
16.79454833,-1.6755496550289193,2.6900594379800493,-0.17274773667392107
16.79930338,-1.635538807473142,2.590965848282775,-0.24147896817937284
16.80405844,-1.5894926197430874,2.494780226119186,-0.30508430547974724
16.80881349,-1.5375933076660218,2.403122742597189,-0.3629858913782942
16.81356854,-1.4800880496231332,2.3173603206215145,-0.41473625239799783
16.81832359,-1.4172942888426585,2.2385929501010606,-0.46001875854929297
16.82307864,-1.349604110951726,2.1676477285371765,-0.4986450928223526
16.8278337,-1.277487447120924,2.105080181814889,-0.5305500800409826
16.8325887,-1.2014938772255888,2.051182217050963,-0.5557842707204119
16.8373438,-1.1222528408161419,2.005995897315046,-0.5745046975944115
16.8420988,-1.0404721024038248,1.9693321096279774,-0.5869642223185302
16.84685385,-0.9569343577505087,1.9407931228157311,-0.5934998721557735
16.8516089,-0.8724919061696337,1.919797998126689,-0.5945205383384566
16.85636396,-0.7880593478509103,1.9056098189114574,-0.5904943763929167
16.86111901,-0.7046042940168694,1.8973637414095375,-0.5819362178720623
16.86587406,-0.6231361023672551,1.8940949323432101,-0.5693952716478702
16.87062911,-0.544692673449823,1.8947655465749222,-0.5534433567413122
16.87538416,-0.4703253690265468,1.8982900055763858,-0.5346638633926094
16.88013922,-0.4010821454588516,1.9035579607187207,-0.513641583848233
16.88489427,-0.33798903775322287,1.9094544601746304,-0.4909534927188855
16.88964932,-0.28203018609452213,1.9148769803363326,-0.46716049591040704
16.89440437,-0.23412666692654308,1.918749127915785,-0.4428001157523609
16.89915942,-0.19511447199885806,1.9200309630392727,-0.41838004531392353
16.90391448,-0.16572206476388665,1.9177260323353038,-0.39437249004251795
16.90866953,-0.14654802518560553,1.9108853300284911,-0.37120921766016896
16.91342458,-0.13803936255931204,1.8986085206876173,-0.34927725198469567
16.91817963,-0.14047112472716006,1.880042856639951,-0.32891516636322116
16.92293468,-0.15392795755892302,1.8543803040514042,-0.3104099518174678
16.92768974,-0.17828826976843118,1.8208534527644935,-0.2939944491742225
16.93244479,-0.21321163564736173,1.7787308251101963,-0.27984534087058904
16.93719984,-0.2581300235721821,1.727312217360405,-0.26808169756299843
16.94195489,-0.31224337316600925,1.6659247038795426,-0.25876407105939275
16.94670995,-0.37451996102673657,1.5939199083384827,-0.25189412361391594
16.951465,-0.4437018960851472,1.5106730989438344,-0.2474147885034779
16.95622005,-0.5183159726735328,1.4155845961978353,-0.24521096975749215
16.9609751,-0.5966899838291838,1.3080838931287389,-0.24511080813948005
16.96573015,-0.676974461152833,1.1876367804374146,-0.24688756068815873
16.97048521,-0.7571696634492227,1.0537556445049585,-0.250262155271708
16.97524026,-0.8351574880070923,0.9060129676044376,-0.25490648398013294
16.97999531,-0.9087378297625958,0.7440579108543417,-0.2604474880189443
16.98475036,-0.975668768810989,0.5676357061037222,-0.2664720647519212
16.98950541,-1.0337098299997551,0.376609428315234,-0.2725328002470919
16.99426041,-1.0806674343856149,0.1709835710143726,-0.2781545044900953
16.99901547,-1.1144415566848451,-0.04907128953126438,-0.28284150672252173
17.00377057,-1.1330725216145445,-0.2831935740436119,-0.28608565786076395
17.00852557,-1.1347868210586747,-0.5308064504471535,-0.2873749846581415
17.01328062,-1.118040817528595,-0.7910952460952295,-0.28620294204737073
17.01803567,-1.0815612191752988,-1.0629875460930112,-0.282078210648988
17.02279073,-1.0243812669603942,-1.3451369994401303,-0.274534981152533
17.02754578,-0.9458716626896616,-1.6359118158334511,-0.2631436529921695
17.03230083,-0.8457653827087629,-1.9333888600500997,-0.24752184985032802
17.03705588,-0.7241756600768342,-2.2353541386888796,-0.22734561925037092
17.04181094,-0.5816065718606132,-2.539310327916365,-0.202360639823263
17.04656599,-0.41895583294998257,-2.842491814421283,-0.17239321069938734
17.05132104,-0.23750957018578997,-3.141887520130219,-0.13736074580367041
17.05607609,-0.03892902830127585,-3.4342715605873653,-0.0972814442776532
17.06083114,0.17477065996691235,-3.7162415541227425,-0.05228275998354654
17.0655862,0.4012493257012176,-3.9842641615284844,-0.002608252905661378
17.07034125,0.6378777441113148,-4.234727202288727,0.051377619759987773
17.0750963,0.8817800753305122,-4.463997472350212,0.10918721692997711
17.07985135,1.12988193203113,-4.668483188382536,0.1702103477489847
17.0846064,1.378963088356085,-4.844699811581381,0.23371818326398802
17.08936146,1.625713712253088,-4.9893378660653,0.29887071386331826
17.09411651,1.866792895948728,-5.099331267210434,0.36472790959349555
17.09887156,2.0988881823887438,-5.171924616457572,0.4302646132789334
17.10362656,2.318774743728247,-5.204737901531038,0.49438905668544
