"Time (s)","Gyroscope x (rad/s)","Gyroscope y (rad/s)","Gyroscope z (rad/s)"
1.805887000E-3,-9.376774728E-2,-4.934260249E-1,-2.212857604E-1
6.655678000E-3,-1.224783882E-1,-5.453495383E-1,-1.864664704E-1
1.150573100E-2,-2.049451321E-1,-5.783362389E-1,-1.082757786E-1
1.635562600E-2,-2.580903769E-1,-5.795579553E-1,-6.856957078E-2
2.120557400E-2,-3.167333901E-1,-5.630646348E-1,-2.764163166E-2
2.605552200E-2,-3.692677617E-1,-5.141954422E-1,2.183841541E-2
3.090541800E-2,-4.126391709E-1,-4.543306828E-1,8.475748450E-2
3.575536600E-2,-4.437932670E-1,-3.932442069E-1,1.586721241E-1
4.060526200E-2,-4.621191919E-1,-3.309359848E-1,2.331976295E-1
4.545521000E-2,-4.682278633E-1,-2.747364342E-1,3.034470677E-1
5.030510600E-2,-4.608974755E-1,-2.222020626E-1,3.614792228E-1
5.515505300E-2,-4.395172000E-1,-1.782197952E-1,4.036289155E-1
6.000500100E-2,-4.046979249E-1,-1.513417512E-1,4.311178327E-1
6.485489700E-2,-3.601047993E-1,-1.409570426E-1,4.396699369E-1
6.970484500E-2,-3.094030023E-1,-1.342375278E-1,4.262309074E-1
7.455474100E-2,-2.617555559E-1,-1.299614757E-1,3.938550651E-1
7.940468900E-2,-2.159406990E-1,-1.397353113E-1,3.504836559E-1
8.425463700E-2,-1.731801629E-1,-1.672242284E-1,3.010036349E-1
8.910453300E-2,-1.316413581E-1,-1.983783394E-1,2.509126961E-1
9.395448100E-2,-9.193515033E-2,-2.215912044E-1,2.038761228E-1
9.880437600E-2,-5.894844979E-2,-2.331976295E-1,1.641699076E-1
1.036543240E-1,-3.634645417E-2,-2.423606068E-1,1.366809905E-1
1.085042200E-1,-2.596175298E-2,-2.557996213E-1,1.244636998E-1
1.133541680E-1,-2.657261863E-2,-2.784016132E-1,1.269071549E-1
1.182041160E-1,-3.390299529E-2,-3.034470677E-1,1.415679157E-1
1.230540120E-1,-4.489856213E-2,-3.272708058E-1,1.629481763E-1
1.279039600E-1,-5.833758786E-2,-3.498727977E-1,1.879936308E-1
1.327538560E-1,-7.299833745E-2,-3.718639314E-1,2.136499584E-1
1.376038030E-1,-8.460476995E-2,-3.938550651E-1,2.362519503E-1
1.424537510E-1,-8.765909821E-2,-4.097375572E-1,2.539670467E-1
1.473036470E-1,-8.155044913E-2,-4.170679152E-1,2.643517256E-1
1.521535950E-1,-6.750056148E-2,-4.237874448E-1,2.667951882E-1
1.570034910E-1,-4.795288667E-2,-4.421133697E-1,2.698495090E-1
1.618534390E-1,-2.718348242E-2,-4.524980783E-1,2.729038298E-1
1.667033870E-1,-8.246674202E-3,-4.506655037E-1,2.771798968E-1
1.715532830E-1,1.069013402E-2,-4.341721535E-1,2.753472924E-1
1.764032310E-1,2.840521187E-2,-4.072940946E-1,2.710712552E-1
1.812531260E-1,4.367683083E-2,-3.755291104E-1,2.570213675E-1
1.861030740E-1,5.894844979E-2,-3.352120519E-1,2.386954129E-1
1.909530220E-1,6.994401664E-2,-2.887863219E-1,2.148716897E-1
1.958029180E-1,7.910698652E-2,-2.606865466E-1,1.855501831E-1
2.006528660E-1,8.826996386E-2,-2.496909797E-1,1.488982886E-1
2.055027620E-1,1.035415828E-1,-2.435823381E-1,1.104138121E-1
2.103527100E-1,1.249218509E-1,-2.270889878E-1,7.070759684E-2
2.152026060E-1,1.511890292E-1,-2.026543915E-1,2.611446939E-2
2.200525530E-1,1.768453568E-1,-1.757763475E-1,-1.664606482E-2
2.249025010E-1,1.994473487E-1,-1.519526094E-1,-5.574141070E-2
2.297523970E-1,2.153298408E-1,-1.330158114E-1,-8.506292105E-2
2.346023450E-1,2.220493406E-1,-1.214093715E-1,-1.015562713E-1
2.394522410E-1,2.189950198E-1,-1.201876476E-1,-1.070540547E-1
2.442095850E-1,2.079994529E-1,-1.275180280E-1,-1.015562713E-1
2.489644810E-1,1.933387071E-1,-1.427896470E-1,-8.811724186E-2
2.537193240E-1,1.744018942E-1,-1.629481763E-1,-6.795870513E-2
2.584742200E-1,1.536324918E-1,-1.824958473E-1,-4.535670951E-2
2.632290640E-1,1.304196268E-1,-1.977674663E-1,-2.031125315E-2
2.679839600E-1,1.072067693E-1,-2.093739063E-1,1.679878100E-3
2.727388560E-1,8.460476995E-2,-2.234237939E-1,2.306014486E-2
2.774936990E-1,6.566796452E-2,-2.393062711E-1,4.138609022E-2
2.822485950E-1,5.161807314E-2,-2.564104795E-1,5.543597788E-2
2.870034390E-1,4.367683083E-2,-2.741255760E-1,6.459894776E-2
2.917583350E-1,4.062250629E-2,-2.881754637E-1,7.131846249E-2
2.965132310E-1,4.428769648E-2,-3.022253513E-1,7.498364896E-2
3.012680740E-1,5.039634556E-2,-3.168860972E-1,7.803797722E-2
3.060229700E-1,5.894844979E-2,-3.315468729E-1,7.620538026E-2
3.107778140E-1,6.750056148E-2,-3.455967605E-1,7.131846249E-2
3.155327100E-1,7.605266571E-2,-3.578140438E-1,6.215549260E-2
3.202876060E-1,8.216131479E-2,-3.663661480E-1,5.177079141E-2
3.250424490E-1,8.521563560E-2,-3.712530732E-1,4.016435891E-2
3.297973450E-1,8.521563560E-2,-3.651444316E-1,3.100138716E-2
3.345522410E-1,8.216131479E-2,-3.474293351E-1,2.550360374E-2
3.393070850E-1,7.544180006E-2,-3.181078434E-1,2.367101051E-2
3.440619810E-1,6.505709887E-2,-2.826776803E-1,2.733619884E-2
3.488168240E-1,4.978547990E-2,-2.460257858E-1,3.344484791E-2
3.535717200E-1,3.207040206E-2,-2.112064958E-1,3.894263133E-2
3.583266160E-1,1.435532235E-2,-1.788306683E-1,4.382954910E-2
3.630814600E-1,-3.359756200E-3,-1.513417512E-1,4.993819445E-2
3.678363560E-1,-2.107483521E-2,-1.146898642E-1,6.215549260E-2
3.725911990E-1,-4.001164436E-2,-8.048143238E-2,7.376192510E-2
3.773460950E-1,-5.955931544E-2,-8.048143238E-2,8.414662629E-2
3.821009910E-1,-7.299833745E-2,-1.055268943E-1,9.269873053E-2
3.868558350E-1,-7.483093441E-2,-1.317940801E-1,9.758564830E-2
3.916107310E-1,-6.505709887E-2,-1.446222365E-1,1.024725661E-1
3.963656260E-1,-4.978547990E-2,-1.550069451E-1,1.055268943E-1
4.011204700E-1,-3.084867075E-2,-1.751654744E-1,1.091920808E-1
4.058753660E-1,-1.313359290E-2,-2.032652497E-1,1.128572673E-1
4.106302100E-1,1.527161920E-3,-2.368628234E-1,1.165224537E-1
4.153851060E-1,1.252272818E-2,-2.741255760E-1,1.177441850E-1
4.201400010E-1,1.740964688E-2,-3.119991720E-1,1.171333194E-1
4.248948450E-1,1.863137633E-2,-3.535379767E-1,1.153007299E-1
4.296497410E-1,1.374445762E-2,-3.969093859E-1,1.104138121E-1
4.344045850E-1,7.024944760E-3,-4.286743701E-1,9.941824526E-2
4.391594810E-1,-8.857538924E-3,-4.457785785E-1,8.170316368E-2
4.439143760E-1,-3.207040206E-2,-4.494437575E-1,5.604684353E-2
4.486692200E-1,-6.017018110E-2,-4.476111531E-1,2.244928107E-2
4.534241160E-1,-9.071341902E-2,-4.353938699E-1,-1.603520103E-2
4.581790120E-1,-1.218675226E-1,-4.176788032E-1,-6.307178736E-2
4.629338560E-1,-1.505781710E-1,-3.920224607E-1,-1.204930767E-1
4.676887510E-1,-1.768453568E-1,-3.627009690E-1,-1.919642538E-1
4.724435950E-1,-2.018908113E-1,-3.321577311E-1,-2.738201320E-1
4.771984910E-1,-2.220493406E-1,-3.028362095E-1,-3.642281294E-1
4.819533870E-1,-2.348775119E-1,-2.802342176E-1,-4.607447684E-1
4.867082310E-1,-2.367101014E-1,-2.667951882E-1,-5.554288030E-1
4.914631260E-1,-2.293797284E-1,-2.637408674E-1,-6.433933377E-1
4.962180220E-1,-2.104429156E-1,-2.771798968E-1,-7.118101716E-1
5.009728660E-1,-1.847866029E-1,-3.052796721E-1,-7.631227970E-1
5.057277620E-1,-1.554650813E-1,-3.712530732E-1,-8.064942360E-1
5.104826060E-1,-1.267544478E-1,-5.001455545E-1,-8.419243693E-1
5.152375010E-1,-1.010981202E-1,-6.870701313E-1,-8.688024282E-1
5.199923970E-1,-8.460476995E-2,-8.642209172E-1,-9.017891288E-1
5.247472410E-1,-8.643736690E-2,-1.025489211E0,-9.402735829E-1
5.295021370E-1,-1.114828214E-1,-1.186146736E0,-9.848667383E-1
5.342569810E-1,-1.658497900E-1,-1.357799649E0,-1.025794625E0
5.390118760E-1,-2.452622056E-1,-1.544724345E0,-1.053894520E0
5.437667720E-1,-3.368919194E-1,-1.708436131E0,-1.067944407E0
5.485216160E-1,-4.431824088E-1,-1.812893987E0,-1.073442101E0
5.532765120E-1,-5.635227561E-1,-1.864206553E0,-1.077107310E0
5.580314080E-1,-6.930260658E-1,-1.877645612E0,-1.067944407E0
5.627862510E-1,-8.268054724E-1,-1.866650105E0,-1.036179423E0
5.675411470E-1,-9.550870657E-1,-1.834885120E0,-9.812015295E-1
5.722959910E-1,-1.072373152E0,-1.775631189E0,-9.066760540E-1
5.770508870E-1,-1.172554970E0,-1.693775296E0,-8.126028776E-1
5.818057830E-1,-1.259908557E0,-1.599702120E0,-7.050906420E-1
5.865606260E-1,-1.336266756E0,-1.503185511E0,-5.945241451E-1
5.913155220E-1,-1.403461814E0,-1.399949312E0,-4.882336855E-1
5.960704180E-1,-1.460272312E0,-1.274722099E0,-3.862192631E-1
6.008252620E-1,-1.507308841E0,-1.132390618E0,-2.976438701E-1
6.055801580E-1,-1.540295601E0,-9.802852273E-1,-2.298378795E-1
6.103350530E-1,-1.551901937E0,-8.318451047E-1,-1.852447391E-1
6.150898970E-1,-1.541517258E0,-6.919570565E-1,-1.601992846E-1
6.198447930E-1,-1.512806654E0,-5.734493136E-1,-1.498145908E-1
6.245996370E-1,-1.463326573E0,-4.952586293E-1,-1.516471803E-1
6.293545330E-1,-1.404072642E0,-4.415025115E-1,-1.675296724E-1
6.341094280E-1,-1.354592681E0,-3.895790279E-1,-2.047924101E-1
6.388642720E-1,-1.274569392E0,-3.547597229E-1,-2.524398565E-1
6.436191680E-1,-1.144455194E0,-3.633118272E-1,-2.970330119E-1
6.483740640E-1,-1.005177975E0,-3.895790279E-1,-3.404043913E-1
6.531289080E-1,-8.695660233E-1,-4.054614902E-1,-3.868301213E-1
6.578838030E-1,-7.302888632E-1,-3.798051775E-1,-4.277580678E-1
6.626386990E-1,-5.965094566E-1,-3.431532979E-1,-4.625773430E-1
6.673935430E-1,-4.712821841E-1,-3.614792228E-1,-4.961749315E-1
6.721484390E-1,-3.503309488E-1,-4.250091612E-1,-5.224421024E-1
6.769033350E-1,-2.373209596E-1,-4.659371078E-1,-5.438223481E-1
6.816581780E-1,-1.408043355E-1,-4.867065251E-1,-5.615374446E-1
6.864130740E-1,-5.772672221E-2,-4.928151667E-1,-5.725330114E-1
6.911679180E-1,8.857538924E-3,-4.628827870E-1,-5.774199367E-1
6.959228140E-1,5.772672221E-2,-4.415025115E-1,-5.755873322E-1
7.006777100E-1,8.704823256E-2,-4.567741454E-1,-5.664243698E-1
7.054325530E-1,9.926552325E-2,-4.995346665E-1,-5.432115197E-1
7.101874490E-1,9.865466505E-2,-5.477929711E-1,-5.090031028E-1
7.149423450E-1,8.949168772E-2,-5.929969549E-1,-4.540252388E-1
7.196971890E-1,7.116574794E-2,-6.070469022E-1,-3.843866587E-1
7.244520850E-1,3.573558852E-2,-5.697841048E-1,-3.129154742E-1
7.292069810E-1,-1.374445762E-2,-5.148062706E-1,-2.451094985E-1
7.339618240E-1,-6.933315098E-2,-4.543306828E-1,-1.840230078E-1
7.387167200E-1,-1.261435747E-1,-4.121810198E-1,-1.253799945E-1
7.434715640E-1,-1.701258421E-1,-4.158461988E-1,-6.490438432E-2
7.482264600E-1,-1.963930279E-1,-4.072940946E-1,-2.596175298E-3
7.529813560E-1,-2.012799382E-1,-3.584249020E-1,5.910116807E-2
7.577361990E-1,-1.872300506E-1,-2.838993967E-1,1.165224537E-1
7.624910950E-1,-1.597411335E-1,-1.910479665E-1,1.727220118E-1
7.672459910E-1,-1.237001196E-1,-7.192932814E-2,2.295324355E-1
7.720008350E-1,-8.460476995E-2,6.979130208E-2,2.906189263E-1
7.767557310E-1,-5.039634556E-2,2.060141414E-1,3.541488647E-1
7.815106260E-1,-2.535088919E-2,3.159697950E-1,4.176788032E-1
7.862654700E-1,-1.863137633E-2,3.837758005E-1,4.763218164E-1
7.910203660E-1,-2.718348242E-2,3.984365463E-1,5.312996507E-1
7.957752620E-1,-4.673115537E-2,3.593412042E-1,5.777253509E-1
8.005301060E-1,-7.116574794E-2,2.725984156E-1,6.180424690E-1
8.052850010E-1,-9.865466505E-2,1.455385387E-1,6.516399980E-1
8.100398970E-1,-1.230892539E-1,-8.399390616E-3,6.803506613E-1
8.147947410E-1,-1.432477981E-1,-1.776089370E-1,7.011200786E-1
8.195496370E-1,-1.603520066E-1,-3.529271185E-1,7.151699662E-1
8.243044810E-1,-1.713475734E-1,-5.435169339E-1,7.249437571E-1
8.290593760E-1,-1.744018942E-1,-7.365502119E-1,7.328850031E-1
8.338142720E-1,-1.682932526E-1,-9.124792814E-1,7.426588535E-1
8.385691160E-1,-1.511890292E-1,-1.050534725E0,7.542653084E-1
8.433240120E-1,-1.249218509E-1,-1.144607902E0,7.677043080E-1
8.480789080E-1,-9.132428467E-2,-1.202640057E0,7.854194045E-1
8.528337510E-1,-5.345066637E-2,-1.231350660E0,8.086322546E-1
8.575886470E-1,-1.496618707E-2,-1.214246511E0,8.416189551E-1
8.623435430E-1,1.802051067E-2,-1.144607902E0,8.843795061E-1
8.670983870E-1,4.428769648E-2,-1.033430457E0,9.375247359E-1
8.718532830E-1,6.383536756E-2,-8.813251853E-1,9.943351150E-1
8.766081780E-1,7.177661359E-2,-6.925679445E-1,1.040760875E0
8.813630220E-1,6.811141968E-2,-4.903717041E-1,1.062141180E0
8.861179180E-1,5.772672221E-2,-2.881754637E-1,1.056643367E0
8.908728140E-1,4.062250629E-2,-1.000291109E-1,1.021213174E0
8.956276580E-1,1.802051067E-2,8.139773458E-2,9.564615488E-1
9.003825530E-1,-6.414080039E-3,2.591593862E-1,8.727730513E-1
9.051373970E-1,-3.084867075E-2,4.271472096E-1,7.915280461E-1
9.098922930E-1,-5.161807314E-2,5.682569742E-1,7.322741747E-1
9.146471890E-1,-6.444623321E-2,6.745474339E-1,6.986765862E-1
9.194020850E-1,-5.955931544E-2,7.570141554E-1,6.803506613E-1
9.241569280E-1,-3.268126398E-2,8.266527653E-1,6.730202436E-1
9.289118240E-1,1.618791744E-2,8.877392411E-1,6.803506613E-1
9.336666680E-1,7.788526267E-2,9.146173000E-1,6.986765862E-1
9.384215640E-1,1.469129771E-1,8.926261663E-1,7.304415703E-1
9.431764600E-1,2.238819450E-1,8.040507436E-1,7.683151960E-1
9.479313030E-1,3.118464649E-1,6.666061878E-1,8.006910086E-1
9.526861990E-1,4.034761786E-1,4.925097227E-1,8.220712543E-1
9.574410950E-1,4.871646762E-1,3.129154742E-1,8.306233883E-1
9.621959390E-1,5.476402640E-1,1.424842030E-1,8.312342763E-1
9.669508350E-1,5.885682106E-1,-1.145371422E-2,8.165735006E-1
9.717057310E-1,6.166679859E-1,-1.482874304E-1,7.823650837E-1
9.764605740E-1,6.386591196E-1,-2.643517256E-1,7.170025110E-1
9.812154700E-1,6.600393653E-1,-3.303251266E-1,6.192641854E-1
9.859703660E-1,6.795870662E-1,-3.236056268E-1,4.964803457E-1
9.907252100E-1,6.973021626E-1,-2.777907550E-1,3.584249020E-1
9.954801060E-1,7.156280875E-1,-1.989891976E-1,2.228129357E-1
1.000235001E0,7.327322960E-1,-1.073594838E-1,9.819651395E-2
1.004989845E0,7.321214676E-1,-3.100138716E-2,-9.315688163E-3
1.009744741E0,7.040216327E-1,7.483093534E-3,-9.117157012E-2
1.014499637E0,6.533198953E-1,1.237001177E-2,-1.302669197E-1
1.019254481E0,5.922334194E-1,3.207040019E-3,-1.296560466E-1
1.024009376E0,5.262600183E-1,-2.000582218E-2,-1.027780026E-1
1.028764272E0,4.621191919E-1,-4.077522457E-2,-6.918043643E-2
1.033519116E0,4.193586707E-1,-3.833176568E-2,-3.375028074E-2
1.038274012E0,3.882045746E-1,-4.688387364E-2,-6.872228812E-3
1.043028908E0,3.619373739E-1,-6.826414168E-2,4.581485991E-4
1.047783751E0,3.375027776E-1,-9.208786488E-2,-3.207040019E-3
1.052538647E0,3.155116439E-1,-1.091920808E-1,-1.359174121E-2
1.057293543E0,2.977965772E-1,-1.293506175E-1,-2.641990222E-2
1.062048387E0,2.898553312E-1,-1.495091617E-1,-3.741546720E-2
1.066803283E0,2.910770774E-1,-1.543960720E-1,-4.108065739E-2
1.071558178E0,3.039052188E-1,-1.391244531E-1,-3.497200832E-2
1.076313022E0,3.265072107E-1,-9.025526792E-2,-1.114828233E-2
1.081067918E0,3.546070158E-1,-6.566796452E-3,2.855792828E-2
1.085822814E0,3.759872615E-1,5.696314201E-2,5.910116807E-2
1.090577658E0,3.949240744E-1,9.361502528E-2,7.131846249E-2
1.095332553E0,4.205803871E-1,1.149952933E-1,7.559451461E-2
1.100087449E0,4.511236250E-1,1.467602700E-1,8.109229803E-2
1.104842293E0,4.865537882E-1,1.986837685E-1,9.086613357E-2
1.109597189E0,5.299251676E-1,2.573267817E-1,1.067486182E-1
1.114352085E0,5.769617558E-1,3.086394370E-1,1.256854236E-1
1.119106928E0,6.209440231E-1,3.550651670E-1,1.464548260E-1
1.123861824E0,6.588176489E-1,3.874409795E-1,1.647807807E-1
1.128616668E0,6.911935210E-1,4.002691507E-1,1.855501831E-1
1.133371564E0,7.168498039E-1,4.100429714E-1,2.105956376E-1
1.138126460E0,7.382301092E-1,4.442514181E-1,2.356410921E-1
1.142881356E0,7.541125417E-1,4.845684767E-1,2.570213675E-1
1.147636199E0,7.663298845E-1,5.114465356E-1,2.790125012E-1
1.152391095E0,7.761036754E-1,5.212203860E-1,2.936732471E-1
1.157145939E0,7.816014886E-1,5.120574236E-1,2.991710305E-1
1.161900835E0,7.767145634E-1,4.692968726E-1,2.820668221E-1
1.166655731E0,7.638863921E-1,3.911061883E-1,2.307541668E-1
1.171410626E0,7.638863921E-1,3.269653618E-1,1.721111536E-1
1.176165470E0,7.638863921E-1,2.671006322E-1,1.171333194E-1
1.180920366E0,7.571669221E-1,1.944077164E-1,7.681624591E-2
1.185675262E0,7.486147881E-1,1.278234571E-1,4.871646687E-2
1.190430106E0,7.400626540E-1,8.384118974E-2,3.649916872E-2
1.195185001E0,7.296779752E-1,6.734783947E-2,3.466657549E-2
1.199939897E0,7.168498039E-1,7.101303339E-2,3.894263133E-2
1.204694741E0,6.979129910E-1,8.506292105E-2,4.688387364E-2
1.209449637E0,6.747001410E-1,9.728021920E-2,5.543597788E-2
1.214204533E0,6.453786492E-1,1.009454057E-1,6.215549260E-2
1.218959376E0,6.160571575E-1,9.728021920E-2,7.009673119E-2
1.223714272E0,5.916225314E-1,9.117157012E-2,7.620538026E-2
1.228469168E0,5.708531141E-1,8.811724186E-2,8.048143238E-2
1.233224012E0,5.610793233E-1,1.015562713E-1,8.659008145E-2
1.237978908E0,5.592467189E-1,1.259908676E-1,1.012508348E-1
1.242733803E0,5.482511520E-1,1.351538301E-1,1.091920808E-1
1.247488647E0,5.189296007E-1,1.266017258E-1,1.030834317E-1
1.252243543E0,4.682278633E-1,1.156061590E-1,8.720094711E-2
1.256998439E0,4.016436040E-1,1.211039424E-1,6.643154472E-2
1.261753283E0,3.277289569E-1,1.455385387E-1,5.421425030E-2
1.266508178E0,2.507599890E-1,1.705839932E-1,5.726857483E-2
1.271263074E0,1.756236255E-1,2.023489624E-1,7.437278330E-2
1.276017918E0,1.041524485E-1,2.573267817E-1,9.697478265E-2
1.280772814E0,2.535088919E-2,3.061959743E-1,1.214093715E-1
1.285527710E0,-6.017018110E-2,3.318522871E-1,1.403461844E-1
1.290282553E0,-1.481347084E-1,3.275762498E-1,1.537852138E-1
1.295037449E0,-2.348775119E-1,2.921460867E-1,1.617264450E-1
1.299792345E0,-3.087921441E-1,2.322813272E-1,1.617264450E-1
1.304547189E0,-3.692677617E-1,1.638644785E-1,1.525634825E-1
1.309302085E0,-4.163043499E-1,9.483675659E-2,1.305723488E-1
1.314056981E0,-4.486801922E-1,3.191768378E-2,9.880737960E-2
1.318811824E0,-4.596757591E-1,-1.756236330E-2,5.726857483E-2
1.323566720E0,-4.517345130E-1,-6.093376130E-2,7.177661173E-3
1.328321616E0,-4.218021333E-1,-1.061377525E-1,-4.596757516E-2
1.333076460E0,-3.747655451E-1,-1.452330947E-1,-9.605848789E-2
1.337831356E0,-3.118464649E-1,-1.800523996E-1,-1.375972927E-1
1.342586251E0,-2.391535640E-1,-2.179260105E-1,-1.614210159E-1
1.347341095E0,-1.676823795E-1,-2.478583902E-1,-1.663079411E-1
1.352095991E0,-1.072067693E-1,-2.667951882E-1,-1.516471803E-1
1.356850887E0,-6.322450191E-2,-2.820668221E-1,-1.217148080E-1
1.361605783E0,-3.940077871E-2,-2.863428593E-1,-7.773254067E-2
1.366360626E0,-3.573558852E-2,-2.747364342E-1,-2.153298259E-2
1.371115522E0,-4.978547990E-2,-2.527453005E-1,4.444041103E-2
1.375870418E0,-7.849612087E-2,-2.301433086E-1,1.146898642E-1
1.380625262E0,-1.206457913E-1,-2.179260105E-1,1.824958473E-1
1.385380158E0,-1.695149690E-1,-2.289215773E-1,2.435823381E-1
1.390135053E0,-2.134972364E-1,-2.631300092E-1,2.936732471E-1
1.394889897E0,-2.409861535E-1,-3.058905303E-1,3.346011937E-1
1.399644793E0,-2.440404743E-1,-3.449858725E-1,3.681987524E-1
1.404399689E0,-2.183841616E-1,-3.773617148E-1,3.987419903E-1
1.409154533E0,-1.627954692E-1,-4.079049528E-1,4.256200492E-1
1.413909428E0,-8.032871783E-2,-4.372264743E-1,4.488328993E-1
1.418664324E0,2.168569900E-2,-4.641045034E-1,4.696022868E-1
1.423419168E0,1.353065521E-1,-4.799869955E-1,4.891499579E-1
1.428174064E0,2.574795187E-1,-4.867065251E-1,5.141954422E-1
1.432928960E0,3.759872615E-1,-4.799869955E-1,5.435169339E-1
1.437683803E0,4.816668928E-1,-4.696022868E-1,5.722275972E-1
1.442438699E0,5.665770769E-1,-4.604393244E-1,5.991056561E-1
1.447193595E0,6.307178736E-1,-4.573850036E-1,6.223185062E-1
1.451948439E0,6.759218574E-1,-4.537198246E-1,6.455313563E-1
1.456703335E0,7.076868415E-1,-4.512763619E-1,6.693550944E-1
1.461458231E0,7.272345424E-1,-4.421133697E-1,6.944005489E-1
1.466213074E0,7.345649004E-1,-4.213439822E-1,7.218894362E-1
1.470967970E0,7.345649004E-1,-3.908007443E-1,7.481566668E-1
1.475722866E0,7.296779752E-1,-3.578140438E-1,7.713695168E-1
1.480477710E0,7.235693336E-1,-3.217730224E-1,7.744238377E-1
1.485232606E0,7.192932963E-1,-2.832885385E-1,7.677043080E-1
1.489987501E0,7.027999163E-1,-2.118173689E-1,7.548761368E-1
1.494742345E0,6.740893126E-1,-1.348484010E-1,7.396045327E-1
1.499497241E0,6.533198953E-1,-1.091920808E-1,7.298306823E-1
1.504252137E0,6.417134404E-1,-1.275180280E-1,7.279980779E-1
1.509006981E0,6.246092319E-1,-1.989891976E-1,7.389936447E-1
1.513761876E0,5.989528894E-1,-2.930623889E-1,7.573196292E-1
1.518516772E0,5.739074349E-1,-3.749182522E-1,7.707586288E-1
1.523271616E0,5.488619804E-1,-4.207331240E-1,7.756455541E-1
1.528026512E0,5.207622051E-1,-4.470002949E-1,7.695369124E-1
1.532781408E0,4.896081090E-1,-4.726566374E-1,7.530435324E-1
1.537536251E0,4.547888339E-1,-5.031998754E-1,7.273872495E-1
1.542291147E0,4.211912751E-1,-5.404626131E-1,6.937896609E-1
1.547046043E0,3.894262910E-1,-5.862774849E-1,6.565269232E-1
1.551800887E0,3.607156575E-1,-6.327031851E-1,6.223185062E-1
1.556555783E0,3.289506733E-1,-6.815723777E-1,6.015490890E-1
1.561310678E0,2.977965772E-1,-7.310523987E-1,5.942187309E-1
1.566065522E0,2.800815105E-1,-7.524327040E-1,5.881100893E-1
1.570820418E0,2.745837271E-1,-7.457131743E-1,5.813905597E-1
1.575575314E0,2.776380479E-1,-7.206677198E-1,5.740602016E-1
1.580330210E0,2.788597643E-1,-6.840158105E-1,5.593994260E-1
1.585085053E0,2.764163017E-1,-6.406444311E-1,5.367974043E-1
1.589839949E0,2.739728391E-1,-5.984947681E-1,5.093085170E-1
1.594594845E0,2.745837271E-1,-5.661189556E-1,4.751000702E-1
1.599349689E0,2.770271897E-1,-5.386300087E-1,4.390590489E-1
1.604104585E0,2.788597643E-1,-5.093085170E-1,4.066832364E-1
1.608859481E0,2.806923687E-1,-4.726566374E-1,3.810268939E-1
1.613614324E0,2.819140851E-1,-4.250091612E-1,3.614792228E-1
1.618369220E0,2.806923687E-1,-3.657552898E-1,3.462076187E-1
1.623124116E0,2.733619809E-1,-3.132209182E-1,3.346011937E-1
1.627878960E0,2.605338395E-1,-2.777907550E-1,3.156643808E-1
1.632633856E0,2.440404743E-1,-2.380845547E-1,2.942841053E-1
1.637388751E0,2.092211843E-1,-2.356410921E-1,2.698495090E-1
1.642143595E0,1.585194170E-1,-2.643517256E-1,2.203694731E-1
1.646898491E0,1.224783882E-1,-2.655734718E-1,1.708894223E-1
1.651653387E0,1.029307172E-1,-2.503018379E-1,1.317940801E-1
1.656408231E0,9.621120244E-2,-2.319758981E-1,1.012508348E-1
1.661163126E0,9.315688163E-2,-2.258672565E-1,7.315105945E-2
1.665918022E0,9.010255337E-2,-2.283107042E-1,4.505127668E-2
1.670672866E0,7.360920310E-2,-2.093739063E-1,7.788525894E-3
1.675427762E0,5.039634556E-2,-1.989891976E-1,-3.313941509E-2
1.680182658E0,2.962694131E-2,-2.283107042E-1,-7.101303339E-2
1.684937501E0,1.618791744E-2,-2.814559340E-1,-1.027780026E-1
1.689692397E0,1.007926930E-2,-3.510945439E-1,-1.284343153E-1
1.694447293E0,1.007926930E-2,-4.372264743E-1,-1.485928595E-1
1.699202137E0,1.557705179E-2,-5.374082923E-1,-1.638644785E-1
1.703957033E0,2.779434808E-2,-6.498073936E-1,-1.779143661E-1
1.708711928E0,5.345066637E-2,-7.719803452E-1,-1.852447391E-1
1.713466772E0,9.254601598E-2,-9.020945430E-1,-1.821904182E-1
1.718221668E0,1.432477981E-1,-1.022434950E0,-1.632536054E-1
1.722976564E0,2.073885947E-1,-1.125671029E0,-1.253799945E-1
1.727731408E0,2.886336148E-1,-1.225242019E0,-6.612611562E-2
1.732486303E0,3.906480372E-1,-1.336419463E0,1.206457894E-2
1.737241199E0,5.170970559E-1,-1.456759810E0,1.098029464E-1
1.741996043E0,6.673697829E-1,-1.593593478E0,2.240346521E-1
1.746750939E0,8.378010392E-1,-1.737146735E0,3.510945439E-1
1.751505835E0,1.029612541E0,-1.912464857E0,4.830413163E-1
1.756260678E0,1.231197953E0,-2.115272045E0,6.094903350E-1
1.761015574E0,1.421787739E0,-2.357174397E0,7.237220407E-1
1.765770470E0,1.590997338E0,-2.631452799E0,8.226821423E-1
1.770525314E0,1.730274439E0,-2.916115761E0,9.027054310E-1
1.775280210E0,1.832899809E0,-3.172678947E0,9.741765857E-1
1.780035106E0,1.876271129E0,-3.380983829E0,1.036484838E0
1.784789949E0,1.846338749E0,-3.551415205E0,1.075580120E0
1.789544845E0,1.755930781E0,-3.683362007E0,1.101847291E0
1.794299741E0,1.629481792E0,-3.770104647E0,1.123838425E0
1.799054585E0,1.487150311E0,-3.806756496E0,1.142775297E0
1.803809481E0,1.338710189E0,-3.793928385E0,1.159879446E0
1.808564376E0,1.193324327E0,-3.735896349E0,1.184924960E0
1.813319220E0,1.057712317E0,-3.643655777E0,1.225852847E0
1.818074116E0,9.392045736E-1,-3.527591467E0,1.280830741E0
1.822829012E0,8.439096808E-1,-3.403585911E0,1.346804142E0
1.827583856E0,7.785471678E-1,-3.282023668E0,1.431103468E0
1.832338751E0,7.553343177E-1,-3.173900604E0,1.534339666E0
1.837093647E0,7.773254514E-1,-3.088379622E0,1.656512618E0
1.841848491E0,8.426879644E-1,-3.026071310E0,1.787237644E0
1.846603387E0,9.416480660E-1,-2.991863012E0,1.923460484E0
1.851358283E0,1.059544921E0,-3.010799885E0,2.068235397E0
1.856113126E0,1.167667985E0,-3.115257740E0,2.225838423E0
1.860868022E0,1.274569392E0,-3.256978273E0,2.384052515E0
1.865622918E0,1.378416419E0,-3.414581299E0,2.530049086E0
1.870377762E0,1.468213439E0,-3.571573734E0,2.660163403E0
1.875132658E0,1.539073825E0,-3.717570305E0,2.770118952E0
1.879887553E0,1.580612659E0,-3.842797518E0,2.859916210E0
1.884642397E0,1.564119220E0,-3.899608135E0,2.929554701E0
1.889397293E0,1.474933028E0,-3.891666889E0,2.980256557E0
1.894152137E0,1.340542793E0,-3.877006054E0,3.017519236E0
1.898907033E0,1.205541611E0,-3.866621256E0,3.047451735E0
1.903661928E0,1.098640323E0,-3.820195675E0,3.069442749E0
1.908416824E0,1.032056093E0,-3.724900723E0,3.087768793E0
1.913171668E0,9.978476167E-1,-3.600895166E0,3.106705666E0
1.917926564E0,9.892954826E-1,-3.471391916E0,3.123809814E0
1.922681408E0,1.007010579E0,-3.352884054E0,3.137859583E0
1.927436303E0,1.056490660E0,-3.252091408E0,3.143968344E0
1.932191199E0,1.141400814E0,-3.175122499E0,3.143357515E0
1.936946095E0,1.257465124E0,-3.140303135E0,3.137859583E0
1.941700939E0,1.410792232E0,-3.118922949E0,3.114035845E0
1.946455835E0,1.576947451E0,-3.123809814E0,3.078605890E0
1.951210731E0,1.702174664E0,-3.147022724E0,3.046840906E0
1.955965574E0,1.731496215E0,-3.158628941E0,3.036456108E0
1.960720470E0,1.648418665E0,-3.130529165E0,3.053560257E0
1.965475314E0,1.474933028E0,-3.043175697E0,3.083492756E0
1.970230210E0,1.255021691E0,-2.902676821E0,3.105483770E0
1.974985106E0,1.027169108E0,-2.733467102E0,3.107316494E0
1.979739949E0,8.133664727E-1,-2.533103466E0,3.095099211E0
1.984494845E0,6.227766275E-1,-2.341291904E0,3.063945055E0
1.989249741E0,4.657844007E-1,-2.193462610E0,3.014464855E0
1.994004585E0,3.472766280E-1,-2.101222038E0,2.950935125E0
1.998759481E0,2.709185183E-1,-2.038913965E0,2.877020359E0
2.003514376E0,2.391535640E-1,-1.988823056E0,2.794553757E0
2.008269220E0,2.599229515E-1,-1.928958297E0,2.716362953E0
2.013024116E0,3.307832778E-1,-1.845269799E0,2.654665709E0
2.017779012E0,4.334085584E-1,-1.750585794E0,2.609461546E0
2.022533856E0,5.494728684E-1,-1.665064692E0,2.570366383E0
2.027288751E0,6.679806113E-1,-1.589928269E0,2.525773048E0
2.032043647E0,7.858775258E-1,-1.530063510E0,2.474460602E0
2.036798491E0,9.086613655E-1,-1.490357399E0,2.422537088E0
2.041553387E0,1.031445146E0,-1.479972601E0,2.377943754E0
2.046308283E0,1.154229045E0,-1.498909473E0,2.341291904E0
2.051063126E0,1.273958445E0,-1.539226532E0,2.309526920E0
2.055818022E0,1.391855359E0,-1.587484837E0,2.275318623E0
2.060572918E0,1.504865408E0,-1.634521484E0,2.233168840E0
2.065327762E0,1.612988472E0,-1.668729901E0,2.186132431E0
2.070082658E0,1.710726857E0,-1.690110087E0,2.133597851E0
2.074837501E0,1.792582750E0,-1.693775296E0,2.080452681E0
2.079592397E0,1.850003958E0,-1.681558013E0,2.028529167E0
2.084347293E0,1.880547166E0,-1.658345103E0,1.975994825E0
2.089102137E0,1.881768942E0,-1.614362955E0,1.918573499E0
2.093857033E0,1.854279995E0,-1.551443815E0,1.848324060E0
2.098611928E0,1.801745653E0,-1.482416153E0,1.768911719E0
2.103366772E0,1.722944140E0,-1.416442752E0,1.687666655E0
2.108121668E0,1.623373151E0,-1.354134440E0,1.602145553E0
2.112876564E0,1.510974050E0,-1.283274174E0,1.509294152E0
2.117631408E0,1.397353172E0,-1.232572436E0,1.409723163E0
2.122386303E0,1.280067086E0,-1.188590169E0,1.290604591E0
2.127141199E0,1.129183531E0,-1.156825185E0,1.164155602E0
2.131896043E0,9.685261250E-1,-1.083521366E0,1.063973784E0
2.136650939E0,8.139773011E-1,-9.827287197E-1,9.570723772E-1
2.141405783E0,6.459894776E-1,-8.465058804E-1,8.617774844E-1
2.146160678E0,4.101957083E-1,-6.986765862E-1,7.768672705E-1
2.150915574E0,1.139262840E-1,-5.697841048E-1,6.632464528E-1
2.155670418E0,-2.012799382E-1,-4.977020919E-1,5.056433082E-1
2.160425314E0,-5.317577720E-1,-4.476111531E-1,3.333794475E-1
2.165180210E0,-8.781180978E-1,-4.195113778E-1,1.782197952E-1
2.169935053E0,-1.187215686E0,-3.150535226E-1,8.353576064E-2
2.174689949E0,-1.434615970E0,-1.409570426E-1,4.871646687E-2
2.179444845E0,-1.613599300E0,9.911280870E-2,7.803797722E-2
2.184199689E0,-1.740048289E0,3.782780170E-1,1.195767820E-1
2.188954585E0,-1.857334375E0,5.542070866E-1,1.299614757E-1
2.193709481E0,-1.986226797E0,5.902481079E-1,1.165224537E-1
2.198464324E0,-2.095571518E0,5.853611827E-1,8.903354406E-2
2.203219220E0,-2.152382135E0,5.658134818E-1,4.810560122E-2
2.207974064E0,-2.143218994E0,5.413789153E-1,5.955931731E-3
2.212728960E0,-2.049756765E0,5.700895786E-1,1.267544460E-2
2.217483856E0,-1.887877584E0,5.590940118E-1,6.276635826E-2
2.222238699E0,-1.684459686E0,4.686860144E-1,1.055268943E-1
2.226993595E0,-1.458439708E0,3.019199073E-1,1.269071549E-1
2.231748491E0,-1.200654745E0,1.345429718E-1,1.220202371E-1
2.236503335E0,-9.062178731E-1,-1.023198478E-2,8.903354406E-2
2.241258231E0,-5.873464942E-1,-1.397353113E-1,4.627300799E-2
2.246013126E0,-2.623664141E-1,-2.747364342E-1,4.123337101E-3
2.250767970E0,4.428769648E-2,-4.243983030E-1,-3.863719851E-2
2.255522866E0,3.100138903E-1,-5.801688433E-1,-7.773254067E-2
2.260277762E0,5.323686600E-1,-7.225003242E-1,-1.082757786E-1
2.265032606E0,7.058542371E-1,-8.287907839E-1,-1.400407553E-1
2.269787501E0,8.249728680E-1,-8.849903345E-1,-1.791360974E-1
2.274542345E0,8.872811198E-1,-9.014837146E-1,-2.145662606E-1
2.279297241E0,8.793398738E-1,-8.880446553E-1,-2.371682525E-1
2.284052137E0,8.078686595E-1,-8.501710296E-1,-2.347247899E-1
2.288806981E0,6.759218574E-1,-7.903063297E-1,-2.145662606E-1
2.293561876E0,5.073232055E-1,-6.980656981E-1,-1.870773435E-1
2.298316772E0,3.307832778E-1,-5.807796717E-1,-1.577558219E-1
2.303071616E0,1.536324918E-1,-4.922043085E-1,-1.382081509E-1
2.307826512E0,-2.107483521E-2,-4.641045034E-1,-1.327103674E-1
2.312581408E0,-1.731801629E-1,-3.779725730E-1,-1.223256737E-1
2.317336251E0,-2.929096520E-1,-2.454149276E-1,-1.003345400E-1
2.322091147E0,-3.515526950E-1,-5.849030241E-2,-8.384118974E-2
2.326846043E0,-3.484983444E-1,1.577558219E-1,-8.261945844E-2
2.331600887E0,-3.130682111E-1,3.251327872E-1,-9.361502528E-2
2.336355783E0,-2.654207349E-1,4.027126133E-1,-8.689551800E-2
2.341110626E0,-2.012799382E-1,4.308123887E-1,-4.108065739E-2
2.345865522E0,-1.029307172E-1,4.589121640E-1,3.711003438E-2
2.350620418E0,2.229656465E-2,4.931205809E-1,1.201876476E-1
2.355375262E0,1.585194170E-1,5.187768936E-1,1.886045039E-1
2.360130158E0,2.849684060E-1,5.138899684E-1,2.362519503E-1
2.364885001E0,3.998109996E-1,4.864010811E-1,2.655734718E-1
2.369639897E0,5.170970559E-1,4.552469850E-1,2.826776803E-1
2.374394793E0,6.276635528E-1,4.222602844E-1,2.967275679E-1
2.379149637E0,7.241802216E-1,3.892735839E-1,3.113883138E-1
2.383904533E0,7.980948091E-1,3.550651670E-1,3.297142684E-1
2.388659428E0,8.457422853E-1,3.214675784E-1,3.523162603E-1
2.393414272E0,8.622356653E-1,2.805396616E-1,3.822486401E-1
2.398169168E0,8.512400985E-1,2.267835438E-1,4.109592736E-1
2.402924064E0,8.341358304E-1,1.889099330E-1,4.280634820E-1
2.407678908E0,8.133664727E-1,1.760817766E-1,4.390590489E-1
2.412433803E0,7.858775258E-1,1.608101577E-1,4.384481907E-1
2.417188699E0,7.589994669E-1,1.406516135E-1,4.250091612E-1
2.421943543E0,7.199041247E-1,1.027780026E-1,4.011854529E-1
2.426698439E0,6.630937457E-1,7.895427197E-2,3.675878942E-1
2.431453283E0,5.928442478E-1,7.467821985E-2,3.327685893E-1
2.436208178E0,4.999928176E-1,9.483675659E-2,3.089448512E-1
2.440963074E0,3.851502538E-1,1.430950761E-1,3.010036349E-1
2.445717918E0,2.562577724E-1,2.170097083E-1,2.955058515E-1
2.450472814E0,1.267544478E-1,3.123046160E-1,2.832885385E-1
2.455227658E0,5.803215317E-3,4.167625010E-1,2.429714650E-1
2.459982553E0,-8.704823256E-2,5.028944016E-1,1.562286615E-1
2.464737449E0,-1.505781710E-1,5.535961986E-1,2.733619884E-2
2.469492293E0,-1.780670881E-1,5.694786906E-1,-1.198822111E-1
2.474247189E0,-1.805105358E-1,5.456549525E-1,-2.695440948E-1
2.479002085E0,-1.621845961E-1,4.864010811E-1,-4.179842174E-1
2.483756928E0,-1.194240674E-1,3.978256881E-1,-5.652026534E-1
2.488511824E0,-5.894844979E-2,2.927569449E-1,-7.020363212E-1
2.493266720E0,7.635809947E-3,1.809686869E-1,-8.193224072E-1
2.498021564E0,6.994401664E-2,5.268708616E-2,-9.176716208E-1
2.502776460E0,1.249218509E-1,-7.131846249E-2,-9.946405888E-1
2.507531303E0,1.634063274E-1,-1.886045039E-1,-1.056948781E0
2.512286199E0,1.829539984E-1,-2.790125012E-1,-1.099098444E0
2.517041095E0,1.695149690E-1,-3.248273432E-1,-1.114370108E0
2.521795939E0,1.139262840E-1,-3.266599476E-1,-1.097265840E0
2.526550835E0,2.351829410E-2,-2.832885385E-1,-1.060003161E0
2.531305731E0,-8.888082206E-2,-1.849393100E-1,-1.017242551E0
2.536060574E0,-2.196058929E-1,-5.177079141E-2,-9.744820595E-1
2.540815470E0,-3.539961278E-1,8.017600328E-2,-9.378301501E-1
2.545570366E0,-4.773908257E-1,1.974620372E-1,-8.993456960E-1
2.550325210E0,-5.812378526E-1,2.897026241E-1,-8.541416526E-1
2.555080106E0,-6.588176489E-1,3.520108163E-1,-8.009964228E-1
2.559834949E0,-7.095194459E-1,3.849975169E-1,-7.472403646E-1
2.564589845E0,-7.376192212E-1,3.825540543E-1,-7.075341344E-1
2.569344741E0,-7.498365045E-1,3.691150546E-1,-6.928733587E-1
2.574099585E0,-7.535017133E-1,3.605629504E-1,-7.111993432E-1
2.578854481E0,-7.736602426E-1,3.459021747E-1,-7.619010806E-1
2.583609376E0,-8.426879644E-1,3.269653618E-1,-8.315396905E-1
2.588364220E0,-9.703587294E-1,3.397935331E-1,-9.054543376E-1
2.593119116E0,-1.138346553E0,3.300196826E-1,-9.647082090E-1
2.597874012E0,-1.280678034E0,3.025307953E-1,-9.995275140E-1
2.602628856E0,-1.331990600E0,2.866483033E-1,-9.903645515E-1
2.607383751E0,-1.279456258E0,2.793179154E-1,-9.488257170E-1
2.612138595E0,-1.127961874E0,3.000873327E-1,-8.553634286E-1
2.616893491E0,-9.361502528E-1,3.385718167E-1,-7.166970968E-1
2.621648387E0,-7.669407129E-1,3.685041666E-1,-5.926915407E-1
2.626403231E0,-6.417134404E-1,3.623955250E-1,-4.906771481E-1
2.631158126E0,-5.726857185E-1,3.214675784E-1,-4.222602844E-1
2.635912970E0,-5.476402640E-1,2.945895493E-1,-4.124864340E-1
2.640667866E0,-5.726857185E-1,2.744309902E-1,-4.473057389E-1
2.645422762E0,-6.789761782E-1,1.803578287E-1,-5.364919901E-1
2.650177606E0,-7.510582209E-1,1.437059343E-1,-6.299542785E-1
2.654932501E0,-7.516691089E-1,1.565341055E-1,-7.276926637E-1
2.659687397E0,-7.064651251E-1,2.451094985E-1,-8.339831233E-1
2.664442241E0,-6.679806113E-1,3.843866587E-1,-9.292780161E-1
2.669197137E0,-6.551524997E-1,4.870119393E-1,-9.952514172E-1
2.673951981E0,-6.600393653E-1,5.309942365E-1,-1.047785759E0
2.678706876E0,-7.009673119E-1,5.358811021E-1,-1.076496482E0
2.683461772E0,-7.773254514E-1,5.010618567E-1,-1.089324594E0
2.688216616E0,-8.781180978E-1,4.454731345E-1,-1.080161691E0
2.692971512E0,-9.935715795E-1,4.674642682E-1,-1.056337953E0
2.697726408E0,-1.080925226E0,5.138899684E-1,-1.030681610E0
2.702481251E0,-1.137124777E0,5.597048402E-1,-1.013577342E0
2.707236147E0,-1.174387574E0,6.036871076E-1,-9.781472087E-1
2.711990991E0,-1.193324327E0,6.391173005E-1,-9.195042253E-1
2.716745887E0,-1.206152558E0,7.026472092E-1,-8.187115192E-1
2.721500783E0,-1.194546103E0,7.655662894E-1,-6.549997330E-1
2.726255626E0,-1.150563836E0,8.229875565E-1,-4.320341051E-1
2.731010522E0,-1.063210130E0,8.413135409E-1,-1.534797698E-1
2.735765418E0,-9.178243279E-1,8.297070861E-1,1.647807807E-1
2.740520262E0,-7.199041247E-1,7.851139307E-1,4.946477413E-1
2.745275158E0,-5.219839811E-1,6.543889046E-1,7.108938694E-1
2.750030001E0,-3.118464649E-1,5.120574236E-1,7.762564421E-1
2.754784897E0,-8.093958348E-2,3.678933084E-1,7.597630620E-1
2.759539793E0,1.621845961E-1,2.096793354E-1,7.017309070E-1
2.764294637E0,3.863719702E-1,6.734783947E-2,6.339249015E-1
2.769049533E0,5.696313977E-1,-2.916879393E-2,6.027708054E-1
2.773804428E0,6.973021626E-1,-7.131846249E-2,5.936078429E-1
2.778559272E0,7.687733173E-1,-5.971203372E-2,5.807796717E-1
2.783314168E0,7.761036754E-1,-4.321868345E-2,5.606211424E-1
2.788069012E0,6.979129910E-1,-1.012508348E-1,4.989238083E-1
2.792823908E0,6.331613660E-1,-7.437278330E-2,4.726566374E-1
2.797578803E0,5.922334194E-1,5.390881747E-2,5.001455545E-1
2.802333647E0,5.482511520E-1,2.664897740E-1,5.276344419E-1
2.807088543E0,4.902189970E-1,4.827359021E-1,5.539016128E-1
2.811843387E0,4.022544622E-1,5.920807123E-1,5.954404473E-1
2.816598283E0,3.197877109E-1,5.939132571E-1,6.785180569E-1
2.821353178E0,2.544251680E-1,5.242747068E-1,8.110756874E-1
2.826108022E0,1.701258421E-1,4.399753511E-1,9.747874737E-1
2.830862918E0,6.750056148E-2,4.192059636E-1,1.126281977E0
2.835617814E0,-3.878991306E-2,4.674642682E-1,1.237459302E0
2.840372658E0,-1.267544478E-1,5.487092733E-1,1.275943756E0
2.845127553E0,-2.006690800E-1,6.275108457E-1,1.239902735E0
2.849882397E0,-2.666424811E-1,6.830995679E-1,1.153770804E0
2.854637293E0,-3.332267404E-1,7.026472092E-1,1.046258688E0
2.859392189E0,-4.034761786E-1,7.209731340E-1,9.540180564E-1
2.864147033E0,-4.841103256E-1,7.594576478E-1,8.898772597E-1
2.868901928E0,-5.720748901E-1,8.272636533E-1,8.501710296E-1
2.873656772E0,-6.618719697E-1,9.133955836E-1,8.300125003E-1
2.878411668E0,-7.382301092E-1,1.005025268E0,8.275690675E-1
2.883166564E0,-7.925970554E-1,1.089324594E0,8.495602012E-1
2.887921408E0,-8.206968307E-1,1.159574032E0,8.898772597E-1
2.892676303E0,-8.335250020E-1,1.220660567E0,9.448550940E-1
2.897431199E0,-8.481857181E-1,1.270751476E0,1.011439323E0
2.902186043E0,-8.561269641E-1,1.318398952E0,1.056032538E0
2.906940939E0,-8.518509269E-1,1.365435481E0,1.061530232E0
2.911695783E0,-8.518509269E-1,1.397200465E0,1.046258688E0
2.916450678E0,-8.640682101E-1,1.403919935E0,1.001665473E0
2.921205522E0,-8.946114779E-1,1.368489861E0,9.454659820E-1
2.925960418E0,-9.306524992E-1,1.310457706E0,8.953750730E-1
2.930715314E0,-9.605848789E-1,1.227990866E0,8.629992008E-1
2.935470158E0,-9.844086170E-1,1.105817914E0,8.361211419E-1
2.940225053E0,-1.007010579E0,9.506583214E-1,7.762564421E-1
2.944979897E0,-9.801325202E-1,8.443678617E-1,7.127264738E-1
2.949734793E0,-9.031635523E-1,7.765618563E-1,6.614138484E-1
2.954489689E0,-8.390227556E-1,7.173079848E-1,6.210967898E-1
2.959244533E0,-8.035926223E-1,6.378955245E-1,5.984947681E-1
2.963999428E0,-7.779362798E-1,5.542070866E-1,6.107120514E-1
2.968754324E0,-7.553343177E-1,4.949531853E-1,6.717985272E-1
2.973509168E0,-7.205150127E-1,4.827359021E-1,7.860302329E-1
2.978264064E0,-6.869174242E-1,5.224421024E-1,9.381355643E-1
2.983018908E0,-6.612611413E-1,6.042979956E-1,1.123838425E0
2.987773803E0,-6.514872909E-1,6.776017547E-1,1.330921650E0
2.992528699E0,-6.649262905E-1,6.824886799E-1,1.481805205E0
2.997283543E0,-6.759218574E-1,6.385064125E-1,1.500742078E0
3.002038439E0,-6.740893126E-1,5.939132571E-1,1.395673275E0
3.006793283E0,-6.643154621E-1,5.914698243E-1,1.235015869E0
3.011548178E0,-6.496546865E-1,6.525563002E-1,1.079245329E0
3.016303074E0,-6.258309484E-1,7.527381182E-1,9.552397728E-1
3.021057918E0,-5.916225314E-1,8.492547870E-1,8.611665964E-1
3.025812814E0,-5.610793233E-1,9.231693745E-1,8.074105382E-1
3.030567658E0,-5.372555852E-1,9.628756046E-1,7.884737253E-1
3.035322553E0,-5.158752799E-1,9.671516418E-1,8.104648590E-1
3.040077449E0,-4.896081090E-1,9.414953589E-1,8.562797308E-1
3.044832293E0,-4.511236250E-1,8.749110699E-1,8.972076178E-1
3.049587189E0,-3.985892832E-1,7.667880058E-1,9.167553186E-1
3.054342033E0,-3.197877109E-1,6.097957492E-1,9.124792814E-1
3.059096928E0,-2.208276242E-1,4.326449931E-1,8.886555433E-1
3.063851824E0,-1.059850380E-1,2.591593862E-1,8.342885971E-1
3.068606668E0,1.985310577E-2,1.046105921E-1,7.658717036E-1
3.073361564E0,1.591302752E-1,-4.627300799E-2,6.956222653E-1
3.078116408E0,3.002400398E-1,-1.989891976E-1,6.314814687E-1
3.082871303E0,4.248564541E-1,-3.058905303E-1,5.716167092E-1
3.087626147E0,5.170970559E-1,-3.596466482E-1,5.245801210E-1
3.092381043E0,5.769617558E-1,-3.724747896E-1,4.989238083E-1
3.097135939E0,6.142245531E-1,-3.853029609E-1,5.068650246E-1
3.101890783E0,6.441569328E-1,-4.152353406E-1,5.404626131E-1
3.106645678E0,6.795870662E-1,-4.696022868E-1,5.905535221E-1
3.111400574E0,7.315105796E-1,-5.447386503E-1,6.565269232E-1
3.116155418E0,7.925970554E-1,-6.241511106E-1,7.316632867E-1
3.120910314E0,8.359684348E-1,-7.157807946E-1,8.067996502E-1
3.125665158E0,8.591812849E-1,-7.976366878E-1,8.654426932E-1
3.130420053E0,8.732311726E-1,-8.923207521E-1,9.027054310E-1
3.135174949E0,8.787289858E-1,-1.043815136E0,9.240856767E-1
3.139929793E0,9.062178731E-1,-1.225242019E0,9.301943183E-1
3.144684689E0,9.703587294E-1,-1.423162222E0,9.204205275E-1
3.149439533E0,1.075427413E0,-1.618028045E0,8.868229389E-1
3.154194428E0,1.212261200E0,-1.815948248E0,8.477275968E-1
3.158949324E0,1.401629210E0,-2.033416033E0,8.190169334E-1
3.163704168E0,1.592829943E0,-2.166584730E0,8.159626126E-1
3.168459064E0,1.718668103E0,-2.202014923E0,8.171843290E-1
3.173213908E0,1.791360974E0,-2.211177826E0,8.061888218E-1
3.177968803E0,1.831678033E0,-2.217286348E0,7.670934200E-1
3.182723647E0,1.875049472E0,-2.227671146E0,7.304415703E-1
3.187478543E0,2.020435333E0,-2.464686632E0,7.793107629E-1
3.192233439E0,2.238513947E0,-2.831205606E0,8.715513349E-1
3.196988283E0,2.430936337E0,-3.096931696E0,9.375247359E-1
3.201743178E0,2.575711250E0,-3.126864195E0,9.485203028E-1
3.206498022E0,2.622137070E0,-2.977813005E0,8.965967894E-1
3.211252918E0,2.559828758E0,-2.801273108E0,8.147408962E-1
3.216007762E0,2.364352226E0,-2.671769857E0,7.341067195E-1
3.220762658E0,2.035095930E0,-2.584416151E0,6.571378112E-1
3.225517553E0,1.580001712E0,-2.439641237E0,5.563451052E-1
3.230272397E0,1.072983980E0,-2.238055944E0,4.237874448E-1
3.235027293E0,5.555815101E-1,-1.988823056E0,2.680169344E-1
3.239782137E0,7.788526267E-2,-1.634521484E0,1.055268943E-1
3.244537033E0,-3.521635532E-1,-1.203250885E0,-2.641990222E-2
3.249291876E0,-7.803797722E-1,-8.312342763E-1,-1.278234571E-1
3.254046772E0,-1.207985044E0,-5.624537468E-1,-1.956294477E-1
3.258801668E0,-1.621540546E0,-3.969093859E-1,-2.310595959E-1
3.263556512E0,-2.005163670E0,-3.113883138E-1,-2.396117151E-1
3.268311408E0,-2.345415354E0,-2.118173689E-1,-2.463312149E-1
3.273066251E0,-2.646571636E0,-6.459894776E-2,-2.658788860E-1
3.277821147E0,-2.895804405E0,1.424842030E-1,-3.061959743E-1
3.282575991E0,-3.083339930E0,3.654498458E-1,-3.794997334E-1
3.287330887E0,-3.198182583E0,5.487092733E-1,-4.821250141E-1
3.292085783E0,-3.233612776E0,6.543889046E-1,-6.073523164E-1
3.296840626E0,-3.184132576E0,6.562215090E-1,-7.509055138E-1
3.301595522E0,-3.051574945E0,5.859720111E-1,-9.054543376E-1
3.306350366E0,-2.853654861E0,4.650208056E-1,-1.061224818E0
3.311105262E0,-2.601978540E0,3.202458620E-1,-1.200502038E0
3.315860106E0,-2.313650370E0,1.705839932E-1,-1.320842385E0
3.320615001E0,-2.015548229E0,4.718930274E-2,-1.427132845E0
3.325369897E0,-1.711337686E0,-3.161225095E-2,-1.517540812E0
3.330124741E0,-1.408348799E0,-1.030834317E-1,-1.589012027E0
3.334879637E0,-1.116355419E0,-1.965457499E-1,-1.658650637E0
3.339634481E0,-8.707877398E-1,-2.784016132E-1,-1.743560791E0
3.344389376E0,-7.272345424E-1,-3.352120519E-1,-1.826027513E0
3.349144220E0,-7.137954831E-1,-4.011854529E-1,-1.913992047E0
3.353899116E0,-8.188642263E-1,-5.618428588E-1,-2.003178358E0
3.358653960E0,-9.825760126E-1,-8.043562174E-1,-2.058156252E0
3.363408856E0,-1.135292172E0,-1.015104532E0,-2.100916624E0
3.368163751E0,-1.231808782E0,-1.073747516E0,-2.166279316E0
3.372918595E0,-1.276401997E0,-9.900590777E-1,-2.235917807E0
3.377673491E0,-1.330768943E0,-8.849903345E-1,-2.278678417E0
3.382428335E0,-1.388801098E0,-7.524327040E-1,-2.271958828E0
3.387183231E0,-1.456607103E0,-6.278162599E-1,-2.192546368E0
3.391938126E0,-1.545793295E0,-5.380191803E-1,-2.059377909E0
3.396692970E0,-1.617875338E0,-4.482220411E-1,-1.919489861E0
3.401447866E0,-1.632536173E0,-3.394880891E-1,-1.779601812E0
3.406202710E0,-1.585499525E0,-2.283107042E-1,-1.658650637E0
3.410957606E0,-1.508530617E0,-9.330959618E-2,-1.554803610E0
3.415712449E0,-1.404683590E0,3.252854943E-2,-1.480278134E0
3.420467345E0,-1.261130333E0,1.101083755E-1,-1.436295867E0
3.425222189E0,-1.087644696E0,1.070540547E-1,-1.424689412E0
3.429977085E0,-8.885028362E-1,2.580903657E-2,-1.430798054E0
3.434731928E0,-6.960803866E-1,-1.128572673E-1,-1.451567411E0
3.439486824E0,-5.250383019E-1,-2.722929716E-1,-1.471115112E0
3.444241720E0,-3.735437989E-1,-4.439459741E-1,-1.493106246E0
3.448996564E0,-2.519817352E-1,-6.021599770E-1,-1.509599566E0
3.453751460E0,-1.713475734E-1,-7.212786078E-1,-1.509599566E0
3.458506303E0,-1.285870373E-1,-7.933606505E-1,-1.504101753E0
3.463261199E0,-1.127045527E-1,-8.263473511E-1,-1.495549679E0
3.468016095E0,-1.237001196E-1,-8.220712543E-1,-1.470504284E0
3.472770939E0,-1.481347084E-1,-7.854194045E-1,-1.419191599E0
3.477525835E0,-1.927278340E-1,-7.463240623E-1,-1.345276952E0
3.482280678E0,-2.568686306E-1,-6.980656981E-1,-1.257312417E0
3.487035574E0,-3.313941360E-1,-6.534726024E-1,-1.160184979E0
3.491790418E0,-4.114174247E-1,-6.339249015E-1,-1.064890027E0
3.496545314E0,-4.767799675E-1,-6.107120514E-1,-9.879210591E-1
3.501300158E0,-5.262600183E-1,-5.893318057E-1,-9.292780161E-1
3.506055053E0,-5.690205693E-1,-5.630646348E-1,-8.944587708E-1
3.510809949E0,-6.142245531E-1,-4.970912039E-1,-8.907935619E-1
3.515564793E0,-6.728675365E-1,-3.718639314E-1,-8.846849203E-1
3.520319689E0,-7.449495792E-1,-1.898262352E-1,-8.614720702E-1
3.525074533E0,-8.243620396E-1,-5.345067009E-3,-8.211549520E-1
3.529829428E0,-9.037744403E-1,1.595884264E-1,-7.967203856E-1
3.534584272E0,-9.666935205E-1,3.208567202E-1,-7.973312736E-1
3.539339168E0,-1.023503900E0,4.625773430E-1,-8.144354820E-1
3.544094012E0,-1.068097115E0,5.505418777E-1,-8.407026529E-1
3.548848908E0,-1.099251151E0,5.755873322E-1,-8.364266157E-1
3.553603803E0,-1.090699077E0,6.073523164E-1,-8.083268404E-1
3.558358647E0,-1.038164735E0,6.342303753E-1,-7.667880058E-1
3.563113543E0,-9.868520498E-1,5.719221234E-1,-6.995928884E-1
3.567868387E0,-9.221003652E-1,4.992292523E-1,-6.177369952E-1
3.572623283E0,-8.371901512E-1,4.735729098E-1,-5.297724605E-1
3.577378126E0,-7.437278628E-1,4.967857897E-1,-4.589121640E-1
3.582133022E0,-6.441569328E-1,5.413789153E-1,-4.155407548E-1
3.586887866E0,-5.531380773E-1,5.609265566E-1,-3.807214797E-1
3.591642762E0,-4.651735425E-1,5.597048402E-1,-3.568977416E-1
3.596397606E0,-3.796524704E-1,5.480984449E-1,-3.483456373E-1
3.601152501E0,-3.087921441E-1,5.340485573E-1,-3.342957497E-1
3.605907397E0,-2.593120933E-1,5.316050649E-1,-3.116937578E-1
3.610662241E0,-2.122755051E-1,5.432115197E-1,-2.811505198E-1
3.615417137E0,-1.731801629E-1,5.774199367E-1,-2.371682525E-1
3.620171981E0,-1.444695145E-1,5.963567495E-1,-1.882990748E-1
3.624926876E0,-1.157588735E-1,6.159043908E-1,-1.369864196E-1
3.629681720E0,-7.971785218E-2,6.372846961E-1,-8.078686893E-2
3.634436616E0,-4.428769648E-2,6.714931130E-1,-1.786779426E-2
3.639191512E0,-1.618791744E-2,7.185297012E-1,4.932733253E-2
3.643946356E0,4.581485875E-3,7.625119686E-1,1.116355360E-1
3.648701251E0,3.145953640E-2,8.181006312E-1,1.324049383E-1
3.653456095E0,5.039634556E-2,8.651372194E-1,1.104138121E-1
3.658210991E0,4.856374860E-2,9.036217332E-1,4.321868345E-2
3.662965835E0,3.023780696E-2,9.714277387E-1,-2.764163166E-2
3.667720731E0,1.802051067E-2,9.799798131E-1,2.977965772E-2
3.672475574E0,1.679878123E-2,9.201150537E-1,1.678351015E-1
3.677230470E0,3.817904741E-2,8.718567491E-1,2.784016132E-1
3.681985314E0,1.120936871E-1,8.846849203E-1,3.700313270E-1
3.686740210E0,2.104429156E-1,9.164499044E-1,5.056433082E-1
3.691495106E0,2.855792940E-1,7.496837974E-1,6.430879235E-1
3.696249949E0,3.704894781E-1,4.442514181E-1,6.950113773E-1
3.701004845E0,4.944950342E-1,1.125518382E-1,6.962331533E-1
3.705759689E0,6.197223067E-1,-2.044869810E-1,6.760746241E-1
3.710514585E0,6.954695582E-1,-5.349648595E-1,6.534726024E-1
3.715269428E0,7.553343177E-1,-8.880446553E-1,6.663007736E-1
3.720024324E0,7.962622643E-1,-1.136055827E0,6.889027357E-1
3.724779168E0,7.803797722E-1,-1.234405041E0,6.772963405E-1
3.729534064E0,7.235693336E-1,-1.239902735E0,6.125446558E-1
3.734288960E0,6.563742161E-1,-1.173929334E0,5.392408967E-1
3.739043803E0,6.026180983E-1,-1.151938200E0,4.311178327E-1
3.743798699E0,6.099484563E-1,-1.104290843E0,2.142608166E-1
3.748553543E0,6.624828577E-1,-1.001665473E0,-5.574141070E-2
3.753308439E0,7.205150127E-1,-9.191987514E-1,-2.774853408E-1
3.758063283E0,7.486147881E-1,-8.513928056E-1,-4.308123887E-1
3.762818178E0,7.266236544E-1,-7.805324793E-1,-5.169443488E-1
3.767573022E0,6.404917240E-1,-7.701478004E-1,-5.389354229E-1
3.772327918E0,4.957167804E-1,-8.465058804E-1,-5.181660652E-1
3.777082814E0,3.778198659E-1,-8.196278214E-1,-4.033234715E-1
3.781837658E0,2.825249732E-1,-7.218894362E-1,-2.273944169E-1
3.786592553E0,1.860083193E-1,-5.612320304E-1,-5.329795182E-2
3.791347397E0,4.184423760E-2,-4.280634820E-1,8.475748450E-2
3.796102293E0,-1.615737379E-1,-3.938550651E-1,2.105956376E-1
3.800857137E0,-4.016436040E-1,-4.347830117E-1,3.565923274E-1
3.805612033E0,-6.441569328E-1,-5.435169339E-1,5.349648595E-1
3.810366928E0,-8.481857181E-1,-6.992874742E-1,7.475457788E-1
3.815121772E0,-9.874629378E-1,-7.927497625E-1,9.717331529E-1
3.819876668E0,-1.061988473E0,-8.000801206E-1,1.196531415E0
3.824631512E0,-1.101083755E0,-7.396045327E-1,1.425605655E0
3.829386408E0,-1.147509456E0,-6.253728271E-1,1.668118954E0
3.834141251E0,-1.218980670E0,-5.190823674E-1,1.919184446E0
3.838896147E0,-1.307556033E0,-4.451677203E-1,2.171471596E0
3.843650991E0,-1.388190269E0,-4.170679152E-1,2.419482708E0
3.848405887E0,-1.388801098E0,-2.643517256E-1,2.608850718E0
3.853160783E0,-1.296560526E0,-3.100138716E-2,2.719417334E0
3.857915626E0,-1.123074889E0,2.188423127E-1,2.749349594E0
3.862670522E0,-9.679152369E-1,3.721693754E-1,2.703534842E0
3.867425366E0,-8.646790981E-1,4.008800089E-1,2.601520300E0
3.872180262E0,-7.846558094E-1,4.289797843E-1,2.473849535E0
3.876935106E0,-6.911935210E-1,5.377137065E-1,2.359617949E0
3.881690001E0,-5.800161362E-1,6.580541134E-1,2.289368391E0
3.886444897E0,-4.627300799E-1,6.788234711E-1,2.278373003E0
3.891199741E0,-3.759872615E-1,4.900662601E-1,2.303418398E0
3.895954637E0,-3.442223072E-1,1.638644785E-1,2.341291904E0
3.900709481E0,-3.918697536E-1,-2.570213675E-1,2.363893986E0
3.905464376E0,-4.993819594E-1,-7.225003242E-1,2.404821873E0
3.910219220E0,-5.836812854E-1,-1.087186575E0,2.528216600E0
3.914974116E0,-6.178897023E-1,-1.334586859E0,2.741408348E0
3.919729012E0,-5.879573226E-1,-1.469587922E0,3.039510489E0
3.924483856E0,-5.140427351E-1,-1.480583549E0,3.405418396E0
3.929238751E0,-4.144717455E-1,-1.438433886E0,3.814697742E0
3.933993595E0,-2.935205400E-1,-1.407279730E0,4.236805439E0
3.938748491E0,-1.237001196E-1,-1.410334110E0,4.628369808E0
3.943503335E0,9.743293375E-2,-1.393229842E0,4.957015038E0
3.948258231E0,3.430005610E-1,-1.381012559E0,5.223962784E0
3.953013126E0,5.800161362E-1,-1.421940446E0,5.442041397E0
3.957767970E0,7.852666974E-1,-1.511126757E0,5.652179241E0
3.962522866E0,9.575305581E-1,-1.567937136E0,5.889194489E0
3.967277710E0,1.095585942E0,-1.557552457E0,6.137816429E0
3.972032606E0,1.189659119E0,-1.481805205E0,6.369945049E0
3.976787449E0,1.216537237E0,-1.398116708E0,6.544652462E0
3.981542345E0,1.187215686E0,-1.315649986E0,6.688205719E0
3.986297241E0,1.116966248E0,-1.252730966E0,6.803048134E0
3.991052085E0,1.011897564E0,-1.198974848E0,6.881849766E0
3.995806981E0,8.842267394E-1,-1.100014806E0,6.928886414E0
4.000561824E0,7.388409376E-1,-9.472985864E-1,6.961262226E0
4.005316720E0,5.983420610E-1,-7.707586288E-1,6.986307621E0
4.010071564E0,4.682278633E-1,-6.168206930E-1,7.008909702E0
4.014826460E0,3.503309488E-1,-5.221366882E-1,7.032733440E0
4.019581356E0,2.318231910E-1,-4.860956371E-1,7.045561790E0
4.024336199E0,1.310304999E-1,-4.714348912E-1,7.046783447E0
4.029091095E0,5.161807314E-2,-5.044215918E-1,7.037009716E0
4.033845939E0,-1.679878123E-2,-6.516399980E-1,7.015629292E0
4.038600835E0,-8.155044913E-2,-9.418007731E-1,6.990583897E0
4.043355731E0,-1.353065521E-1,-1.348636746E0,6.964316845E0
4.048110574E0,-1.621845961E-1,-1.762803078E0,6.922166824E0
4.052865470E0,-8.888082206E-2,-1.974773169E0,6.799383163E0
4.057620314E0,1.041524485E-1,-1.889862895E0,6.551372051E0
4.062375210E0,3.784307241E-1,-1.542280793E0,6.153698921E0
4.067130106E0,6.985238791E-1,-1.008385062E0,5.632631302E0
4.071884949E0,1.043662429E0,-3.510945439E-1,5.039481640E0
4.076639845E0,1.383914113E0,3.349066079E-1,4.413345337E0
4.081394689E0,1.664911985E0,8.254310489E-1,3.711461782E0
4.086149585E0,1.818849921E0,8.755219579E-1,2.748738766E0
4.090904428E0,1.872606039E0,6.464476585E-1,1.613141179E0
4.095659324E0,1.878714681E0,3.788888752E-1,5.288561583E-1
4.100414220E0,1.853669167E0,1.656970680E-1,-3.672824502E-1
4.105169064E0,1.810297728E0,1.374445739E-3,-1.007468700E0
4.109923960E0,1.689957380E0,-2.832885385E-1,-1.430798054E0
4.114678803E0,1.466991782E0,-6.559160352E-1,-1.696524262E0
4.119433699E0,1.224478483E0,-8.636100888E-1,-1.844964385E0
4.124188595E0,1.039997339E0,-7.725912333E-1,-1.906050801E0
4.128943439E0,9.001092315E-1,-4.543306828E-1,-1.890779257E0
4.133698335E0,7.895427346E-1,1.237001177E-2,-1.802814722E0
4.138453178E0,7.113520503E-1,5.529853702E-1,-1.645822406E0
4.143208074E0,6.514872909E-1,1.063057423E0,-1.450345755E0
4.147962970E0,6.142245531E-1,1.500436664E0,-1.226158381E0
4.152717814E0,6.130027771E-1,1.879172802E0,-9.866993427E-1
4.157472710E0,6.453786492E-1,2.207818031E0,-7.405208349E-1
4.162227553E0,7.052434087E-1,2.459494352E0,-5.016726851E-1
4.166982449E0,7.699950337E-1,2.607323647E0,-2.774853408E-1
4.171737293E0,8.432988524E-1,2.651305914E0,-7.467821985E-2
4.176492189E0,9.153808951E-1,2.573115110E0,1.134681329E-1
4.181247085E0,9.868520498E-1,2.388633966E0,2.936732471E-1
4.186001928E0,1.032666922E0,2.108857870E0,4.641045034E-1
4.190756824E0,1.047938585E0,1.753334641E0,6.052142978E-1
4.195511668E0,1.041218996E0,1.358716011E0,7.151699662E-1
4.200266564E0,9.929606915E-1,9.934188724E-1,8.165735006E-1
4.205021460E0,8.940005898E-1,7.185297012E-1,9.375247359E-1
4.209776303E0,7.547234297E-1,5.175551772E-1,1.092073560E0
4.214531199E0,5.885682106E-1,3.391826749E-1,1.268002510E0
4.219286043E0,4.095848203E-1,1.534797698E-1,1.460425019E0
4.224040939E0,2.171624303E-1,-3.161225095E-2,1.660177708E0
4.228795835E0,2.474002354E-2,-1.904370934E-1,1.858708858E0
4.233550678E0,-1.646280587E-1,-3.144426346E-1,2.040746450E0
4.238305574E0,-3.332267404E-1,-3.962985277E-1,2.161697626E0
4.243060418E0,-4.773908257E-1,-3.834703565E-1,2.183078051E0
4.247815314E0,-5.781835318E-1,-3.291034102E-1,2.115272045E0
4.252570210E0,-6.288852692E-1,-3.083339930E-1,2.018144608E0
4.257325053E0,-6.331613660E-1,-3.217730224E-1,1.911854029E0
4.262079949E0,-6.062833071E-1,-3.443750143E-1,1.799454927E0
4.266834793E0,-5.561923981E-1,-3.578140438E-1,1.672394991E0
4.271589689E0,-4.932733178E-1,-3.498727977E-1,1.534339666E0
4.276344585E0,-4.230238497E-1,-3.126100600E-1,1.385899425E0
4.281099428E0,-3.466657698E-1,-2.753472924E-1,1.232572436E0
4.285854324E0,-2.550360560E-1,-2.704603672E-1,1.093295217E0
4.290609168E0,-1.566868126E-1,-2.637408674E-1,9.729548693E-1
4.295364064E0,-5.100720748E-2,-2.228129357E-1,8.678861260E-1
4.300118960E0,7.116574794E-2,-1.721111536E-1,7.793107629E-1
4.304873803E0,2.055560052E-1,-1.299614757E-1,7.060069442E-1
4.309628699E0,3.637699783E-1,-1.232419685E-1,6.467530727E-1
4.314383543E0,5.476402640E-1,-1.605047137E-1,6.033816934E-1
4.319138439E0,7.486147881E-1,-2.197586000E-1,5.862774849E-1
4.323893335E0,9.611957073E-1,-3.022253513E-1,5.917752385E-1
4.328648178E0,1.171944022E0,-3.938550651E-1,6.107120514E-1
4.333403074E0,1.340542793E0,-4.647153914E-1,6.314814687E-1
4.338157918E0,1.450498462E0,-5.618428588E-1,6.406444311E-1
4.342912814E0,1.515250087E0,-7.487674952E-1,6.308705807E-1
4.347667710E0,1.547015071E0,-1.000443816E0,6.076577306E-1
4.352422553E0,1.569006205E0,-1.271667719E0,5.887209177E-1
4.357177449E0,1.609934092E0,-1.555109024E0,5.905535221E-1
4.361932293E0,1.674685836E0,-1.825111270E0,6.046034098E-1
4.366687189E0,1.768759012E0,-2.041357279E0,6.430879235E-1
4.371442085E0,1.875660300E0,-2.172082424E0,7.163916826E-1
4.376196928E0,1.963014007E0,-2.192240953E0,8.239038587E-1
4.380951824E0,2.007606983E0,-2.101222038E0,9.497420192E-1
4.385706720E0,1.992335439E0,-1.904523611E0,1.076191068E0
4.390461564E0,1.941022873E0,-1.659566879E0,1.201418281E0
4.395216460E0,1.868329883E0,-1.398116708E0,1.377958179E0
4.399971303E0,1.796247840E0,-1.106734276E0,1.537393928E0
4.404726199E0,1.742491841E0,-8.471167088E-1,1.663232088E0
4.409481095E0,1.702174664E0,-6.320923567E-1,1.756694436E0
4.414235939E0,1.675907493E0,-4.842630625E-1,1.825111270E0
4.418990835E0,1.655138135E0,-4.280634820E-1,1.878256440E0
4.423745678E0,1.616653681E0,-4.256200492E-1,1.927125692E0
4.428500574E0,1.528078198E0,-3.596466482E-1,1.954614520E0
4.433255470E0,1.345429659E0,-9.758564830E-2,1.925903916E0
4.438010314E0,1.109025002E0,1.705839932E-1,1.841604590E0
4.442765210E0,8.567378521E-1,3.306305707E-1,1.684001446E0
4.447520053E0,6.490437984E-1,3.391826749E-1,1.432936072E0
4.452274949E0,4.877755344E-1,2.060141414E-1,1.096349597E0
4.457029845E0,3.448331654E-1,-1.679878100E-3,6.650790572E-1
4.461784689E0,2.000582218E-1,-2.429714650E-1,1.727220118E-1
4.466539585E0,2.840521187E-2,-4.873173833E-1,-3.226893246E-1
4.471294481E0,-1.884517819E-1,-7.005091906E-1,-8.009964228E-1
4.476049324E0,-4.737256467E-1,-8.342885971E-1,-1.209054112E0
4.480804220E0,-8.432988524E-1,-8.654426932E-1,-1.494938850E0
4.485559064E0,-1.282510638E0,-8.116865754E-1,-1.630550861E0
4.490313960E0,-1.782808900E0,-7.121156454E-1,-1.617111802E0
4.495068856E0,-2.313650370E0,-6.479747891E-1,-1.464395642E0
4.499823699E0,-2.790735722E0,-6.363683939E-1,-1.188284755E0
4.504578595E0,-3.108385324E0,-6.443096399E-1,-8.975130916E-1
4.509333439E0,-3.251327753E0,-6.766854525E-1,-7.173079848E-1
4.514088335E0,-3.309360027E0,-7.066178322E-1,-7.038689256E-1
4.518843231E0,-3.335016251E0,-6.608029604E-1,-8.022181988E-1
4.523598074E0,-3.313636065E0,-5.795579553E-1,-8.761327863E-1
4.528352970E0,-3.266599417E0,-4.970912039E-1,-8.889609575E-1
4.533107866E0,-3.193906546E0,-3.584249020E-1,-8.541416526E-1
4.537862710E0,-3.082729101E0,-2.215912044E-1,-8.028290272E-1
4.542617606E0,-2.943451881E0,-1.317940801E-1,-7.539598346E-1
4.547372449E0,-2.802953005E0,-4.505127668E-2,-7.087558508E-1
4.552127345E0,-2.666730165E0,4.046979174E-2,-6.696605086E-1
4.556882241E0,-2.528063774E0,1.369864196E-1,-6.446150541E-1
4.561637085E0,-2.376569510E0,2.402225733E-1,-6.452259421E-1
4.566391981E0,-2.218966246E0,3.440696001E-1,-6.617192626E-1
4.571146876E0,-2.086408615E0,4.778489769E-1,-7.221949100E-1
4.575901720E0,-1.991724610E0,6.262891293E-1,-8.510873318E-1
4.580656616E0,-1.926972985E0,7.344121933E-1,-1.052061915E0
4.585411460E0,-1.902538300E0,8.150463104E-1,-1.264031887E0
4.590166356E0,-1.901316643E0,9.585995674E-1,-1.264642835E0
4.594921251E0,-1.945909739E0,1.166904449E0,-1.180954337E0
4.599676095E0,-2.046702385E0,1.435074091E0,-1.204778075E0
4.604430991E0,-2.168875456E0,1.739284754E0,-1.283579588E0
4.609185835E0,-2.299600363E0,2.036775827E0,-1.348331332E0
4.613940731E0,-2.449262381E0,2.317162752E0,-1.420413375E0
4.618695626E0,-2.597091675E0,2.560286999E0,-1.488830209E0
4.623450470E0,-2.728427649E0,2.747211695E0,-1.535866737E0
4.628205366E0,-2.827998400E0,2.884656191E0,-1.571296930E0
4.632960262E0,-2.851822138E0,2.980561972E0,-1.591455460E0
4.637715106E0,-2.784627199E0,3.080743790E0,-1.609170556E0
4.642470001E0,-2.640463114E0,3.207803726E0,-1.604283571E0
4.647224845E0,-2.452927589E0,3.278053045E0,-1.585346818E0
4.651979741E0,-2.246455193E0,3.180925608E0,-1.557247043E0
4.656734637E0,-2.041815519E0,2.886488914E0,-1.504712701E0
4.661489481E0,-1.851836562E0,2.421009779E0,-1.423467636E0
4.666244376E0,-1.682016134E0,1.868177176E0,-1.309846759E0
4.670999272E0,-1.521358728E0,1.307403326E0,-1.172402263E0
4.675754116E0,-1.339931846E0,8.260418773E-1,-1.023351192E0
4.680509012E0,-1.141400814E0,4.552469850E-1,-8.608611822E-1
4.685263856E0,-9.477567077E-1,2.023489624E-1,-7.057015300E-1
4.690018751E0,-7.834340930E-1,6.001746282E-2,-5.749764442E-1
4.694773647E0,-6.679806113E-1,5.818486959E-2,-4.986183643E-1
4.699528491E0,-6.203331947E-1,1.950185746E-1,-4.796815813E-1
4.704283387E0,-6.178897023E-1,4.118755758E-1,-4.882336855E-1
4.709038283E0,-6.349939108E-1,6.403390169E-1,-5.456549525E-1
4.713793126E0,-6.533198953E-1,8.229875565E-1,-6.659952998E-1
4.718548022E0,-6.630937457E-1,9.378301501E-1,-8.584177494E-1
4.723302918E0,-6.478220820E-1,9.952514172E-1,-1.093600631E0
4.728057762E0,-6.068941355E-1,1.037401080E0,-1.367268085E0
4.732812658E0,-5.256491303E-1,1.006247044E0,-1.659261465E0
4.737567501E0,-4.156934917E-1,8.345940113E-1,-1.928652883E0
4.742322397E0,-3.203985691E-1,5.603157282E-1,-2.149174929E0
4.747077293E0,-2.623664141E-1,2.493855506E-1,-2.299447775E0
4.751832137E0,-2.403752953E-1,-6.459894776E-2,-2.370918989E0
4.756587033E0,-2.409861535E-1,-3.578140438E-1,-2.371529818E0
4.761341876E0,-2.403752953E-1,-6.058251262E-1,-2.318995476E0
4.766096772E0,-2.342666388E-1,-8.067996502E-1,-2.222478867E0
4.770851668E0,-2.324340492E-1,-9.729548693E-1,-2.101527452E0
4.775606512E0,-2.428187430E-1,-1.131779671E0,-1.979965448E0
4.780361408E0,-2.544251680E-1,-1.264948249E0,-1.877340198E0
4.785116303E0,-2.409861535E-1,-1.352912784E0,-1.798538685E0
4.789871147E0,-1.933387071E-1,-1.410334110E0,-1.724013090E0
4.794626043E0,-1.328630894E-1,-1.519068003E0,-1.644600749E0
4.799380939E0,-7.544180006E-2,-1.747531414E0,-1.535866737E0
4.804135783E0,-3.451386094E-2,-2.012035847E0,-1.380707145E0
4.808890678E0,3.970621154E-3,-2.213621140E0,-1.213940978E0
4.813645522E0,7.422006875E-2,-2.348011494E0,-1.060003161E0
4.818400418E0,1.774562150E-1,-2.423758745E0,-9.317215085E-1
4.823155314E0,2.739728391E-1,-2.409097910E0,-8.260418773E-1
4.827910158E0,3.271180987E-1,-2.327242136E0,-7.380773425E-1
4.832665053E0,3.460549116E-1,-2.243553638E0,-6.849321127E-1
4.837419949E0,3.552178741E-1,-2.153756380E0,-6.452259421E-1
4.842174793E0,3.668242991E-1,-2.063348532E0,-5.578722358E-1
4.846929689E0,3.814850450E-1,-1.999207735E0,-4.332558513E-1
4.851684533E0,3.998109996E-1,-1.997375131E0,-3.013090491E-1
4.856439428E0,4.315759540E-1,-2.100611210E0,-1.644753367E-1
4.861194324E0,4.847212136E-1,-2.316857338E0,-2.092211880E-2
4.865949168E0,5.659661889E-1,-2.586859703E0,9.697478265E-2
4.870704064E0,6.643154621E-1,-2.861137867E0,1.983783394E-1
4.875458960E0,7.907644510E-1,-3.138470411E0,2.997818887E-1
4.880213803E0,9.135482907E-1,-3.366934061E0,3.877464235E-1
4.884968699E0,1.000901937E0,-3.502545834E0,4.659371078E-1
4.889723595E0,1.048549414E0,-3.548971653E0,5.539016128E-1
4.894478439E0,1.069929719E0,-3.513541460E0,6.546943188E-1
4.899233335E0,1.076038361E0,-3.445124626E0,7.725912333E-1
4.903988178E0,1.062599301E0,-3.413359642E0,9.106466770E-1
4.908743074E0,1.020449638E0,-3.431074858E0,1.064584613E0
4.913497970E0,9.489784241E-1,-3.489717722E0,1.207526922E0
4.918252814E0,8.487966061E-1,-3.580736637E0,1.321758628E0
4.923007710E0,7.363975048E-1,-3.693746567E0,1.396895051E0
4.927762606E0,5.952877402E-1,-3.776824236E0,1.444542527E0
4.932517449E0,4.004218578E-1,-3.762774229E0,1.491579056E0
4.937272345E0,1.322522312E-1,-3.652818680E0,1.542280793E0
4.942027241E0,-2.391535640E-1,-3.411527157E0,1.567326307E0
4.946782085E0,-6.789761782E-1,-2.990030289E0,1.536783099E0
4.951536981E0,-1.065653563E0,-2.349233150E0,1.404225469E0
4.956291876E0,-1.287397504E0,-1.534950495E0,1.165377259E0
4.961046720E0,-1.279456258E0,-6.956222653E-1,8.733839393E-1
4.965801616E0,-1.039386392E0,3.863719851E-2,5.673406720E-1
4.970556460E0,-6.563742161E-1,6.177369952E-1,2.802342176E-1
4.975311356E0,-2.470948100E-1,1.049618363E0,4.749473557E-2
4.980066251E0,7.483093441E-2,1.403309107E0,-1.375972927E-1
4.984821095E0,2.403752953E-1,1.780823588E0,-3.092502952E-1
4.989575991E0,2.672533393E-1,2.096640587E0,-4.619664848E-1
4.994330887E0,1.847866029E-1,2.337932110E0,-6.018545032E-1
4.999085731E0,1.191186346E-2,2.491259336E0,-7.160862088E-1
5.003840626E0,-2.202167511E-1,2.560897827E0,-8.009964228E-1
5.008595522E0,-4.712821841E-1,2.563952208E0,-8.834632039E-1
5.013350366E0,-6.856957078E-1,2.527911186E0,-9.799798131E-1
5.018105262E0,-8.219185472E-1,2.490037441E0,-1.080161691E0
5.022860158E0,-8.976657987E-1,2.488204956E0,-1.162017584E0
5.027615001E0,-9.837977290E-1,2.524856806E0,-1.213940978E0
5.032369897E0,-1.107192397E0,2.560897827E0,-1.189506412E0
5.037124793E0,-1.172554970E0,2.588386774E0,-1.153465390E0
5.041879637E0,-1.093142509E0,2.629925489E0,-1.174845695E0
5.046634533E0,-8.555161357E-1,2.538295984E0,-1.247538567E0
5.051389376E0,-4.951058924E-1,2.205985546E0,-1.323896646E0
5.056144272E0,-9.376774728E-2,1.683696032E0,-1.403309107E0
5.060899168E0,2.672533393E-1,1.173623919E0,-1.490662813E0
5.065654012E0,5.323686600E-1,8.315396905E-1,-1.570075154E0
5.070408908E0,6.924152374E-1,5.578722358E-1,-1.604283571E0
5.075163803E0,7.388409376E-1,1.638644785E-1,-1.542586327E0
5.079918647E0,6.814196706E-1,-4.586067200E-1,-1.344666123E0
5.084673543E0,5.238165259E-1,-1.262504816E0,-1.029459834E0
5.089428439E0,2.623664141E-1,-2.212399483E0,-6.360629797E-1
5.094183283E0,1.130099874E-2,-3.161683321E0,-1.846338809E-1
5.098938178E0,-2.718348242E-2,-3.771326542E0,2.814559340E-1
5.103693074E0,1.456912458E-1,-3.702909470E0,5.917752385E-1
5.108447918E0,4.456258714E-1,-3.099375248E0,7.438805699E-1
5.113202814E0,7.944296598E-1,-2.203236580E0,7.652608752E-1
5.117957658E0,1.119409680E0,-1.207526922E0,6.889027357E-1
5.122712553E0,1.357646942E0,-3.217730224E-1,5.722275972E-1
5.127467449E0,1.483485103E0,3.043633699E-1,5.013672709E-1
5.132222293E0,1.493258953E0,7.307469845E-1,4.891499579E-1
5.136977189E0,1.395520568E0,1.060613990E0,5.123628378E-1
5.141732085E0,1.225700140E0,1.341000915E0,5.496255755E-1
5.146486928E0,1.032056093E0,1.557857871E0,5.911644101E-1
5.151241824E0,8.420770764E-1,1.688583016E0,6.510291100E-1
5.155996720E0,6.740893126E-1,1.747226000E0,7.481566668E-1
5.160751564E0,5.348120928E-1,1.724013090E0,8.746056557E-1
5.165506460E0,4.101957083E-1,1.640935540E0,1.002887249E0
5.170261356E0,3.173442483E-1,1.505323529E0,1.140942693E0
5.175016199E0,2.813032269E-1,1.331837893E0,1.341917157E0
5.179771095E0,3.002400398E-1,1.124754786E0,1.591760874E0
5.184525939E0,3.680460155E-1,8.785762787E-1,1.861763120E0
5.189280835E0,4.663952589E-1,5.871937871E-1,2.112217665E0
5.194035731E0,5.971203446E-1,2.860374451E-1,2.311970472E0
5.198790574E0,7.565560341E-1,3.558287397E-2,2.462854147E0
5.203545470E0,9.434806705E-1,-1.159115955E-1,2.584416151E0
5.208300366E0,1.145066023E0,-1.360701323E-1,2.696815252E0
5.213055210E0,1.342375398E0,-1.756236330E-2,2.809214354E0
5.217810106E0,1.519526124E0,2.163988501E-1,2.914894104E0
5.222565001E0,1.666744590E0,5.364919901E-1,3.012632370E0
5.227319845E0,1.776700258E0,8.981239200E-1,3.117701054E0
5.232074741E0,1.840230107E0,1.262199402E0,3.246593475E0
5.236829637E0,1.856723547E0,1.610392332E0,3.397477150E0
5.241584481E0,1.829234600E0,1.940259218E0,3.547139168E0
5.246339376E0,1.759595990E0,2.245080709E0,3.695579290E0
5.251094272E0,1.642920852E0,2.508363485E0,3.838521481E0
5.255849116E0,1.470656991E0,2.715446711E0,3.973522663E0
5.260604012E0,1.247691274E0,2.873049736E0,4.090808868E0
5.265358856E0,1.006399751E0,2.976285934E0,4.176329613E0
5.270113751E0,7.883210182E-1,3.007440090E0,4.223366261E0
5.274868647E0,6.123919487E-1,2.987892389E0,4.252077103E0
5.279623543E0,4.889972508E-1,2.910312414E0,4.277122498E0
5.284378387E0,4.205803871E-1,2.771035433E0,4.292394161E0
5.289133283E0,4.022544622E-1,2.625649452E0,4.293004990E0
5.293888178E0,4.389063418E-1,2.477820158E0,4.285674572E0
5.298643022E0,5.274817348E-1,2.326936722E0,4.274679184E0
5.303397918E0,6.551524997E-1,2.274402380E0,4.223366261E0
5.308152814E0,7.950404882E-1,2.366032124E0,4.093252182E0
5.312907658E0,9.392045736E-1,2.535852432E0,3.905105829E0
5.317662553E0,1.091920853E0,2.703840256E0,3.705353022E0
5.322417397E0,1.237306595E0,2.789361238E0,3.510487080E0
5.327172293E0,1.371086001E0,2.794248104E0,3.307069302E0
5.331927189E0,1.504865408E0,2.747211695E0,3.113425016E0
5.336682033E0,1.646586061E0,2.695288181E0,2.903898478E0
5.341436928E0,1.796858788E0,2.642753839E0,2.704145670E0
5.346191824E0,1.954461813E0,2.581667185E0,2.531881809E0
5.350946668E0,2.114508390E0,2.470489979E0,2.365115643E0
5.355701564E0,2.269057274E0,2.280510902E0,2.194684505E0
5.360456460E0,2.401614904E0,2.008676052E0,2.036470413E0
5.365211303E0,2.497520685E0,1.669035316E0,1.891084671E0
5.369966199E0,2.550055027E0,1.296407819E0,1.730427146E0
5.374721095E0,2.542724609E0,9.188933372E-1,1.559995890E0
5.379475939E0,2.480416536E0,5.468766689E-1,1.400560260E0
5.384230835E0,2.380234718E0,2.127336562E-1,1.249065757E0
5.388985731E0,2.254396439E0,-3.772090003E-2,1.120173335E0
5.393740574E0,2.109010696E0,-2.057087123E-1,1.017547965E0
5.398495470E0,1.944688082E0,-2.997818887E-1,9.253074527E-1
5.403250366E0,1.751654744E0,-3.547597229E-1,8.617774844E-1
5.408005210E0,1.526856542E0,-3.871355653E-1,8.306233883E-1
5.412760106E0,1.264184713E0,-4.231765866E-1,8.342885971E-1
5.417515001E0,9.660826325E-1,-4.048506320E-1,8.507819176E-1
5.422269845E0,6.514872909E-1,-3.229947388E-1,8.892664313E-1
5.427024741E0,3.491092324E-1,-2.240346521E-1,9.527963400E-1
5.431779585E0,8.460476995E-2,-1.262962967E-1,1.030376196E0
5.436534481E0,-1.279761642E-1,-1.817322709E-2,1.119562387E0
5.441289376E0,-2.782489061E-1,1.278234571E-1,1.209970355E0
5.446044220E0,-3.442223072E-1,2.768744528E-1,1.279608965E0
5.450799116E0,-3.228420317E-1,3.440696001E-1,1.332143426E0
5.455554012E0,-2.360992432E-1,3.300196826E-1,1.374293089E0
5.460308856E0,-1.072067693E-1,2.646571696E-1,1.404225469E0
5.465063751E0,3.634645417E-2,1.730274558E-1,1.410334110E0
5.469818647E0,1.695149690E-1,7.528908551E-2,1.387121201E0
5.474573491E0,2.922987938E-1,-2.550360374E-2,1.348025799E0
5.479328387E0,4.046979249E-1,-1.000291109E-1,1.303432703E0
5.484083283E0,5.158752799E-1,-1.311832070E-1,1.271667719E0
5.488838126E0,6.246092319E-1,-9.453132749E-2,1.246011376E0
5.493593022E0,7.284562588E-1,-7.177661173E-3,1.225852847E0
5.498347918E0,8.078686595E-1,1.327103674E-1,1.205694318E0
5.503102762E0,8.310815096E-1,3.373500705E-1,1.182481527E0
5.507857658E0,7.816014886E-1,6.104066372E-1,1.151938200E0
5.512612553E0,6.520981789E-1,9.024000168E-1,1.117118955E0
5.517367397E0,4.560105503E-1,1.171180487E0,1.082910538E0
5.522122293E0,2.226602137E-1,1.376431108E0,1.047480345E0
5.526877189E0,-2.138026757E-3,1.510821342E0,1.001665473E0
5.531632033E0,-1.835648715E-1,1.594509840E0,9.436333776E-1
5.536386928E0,-3.002400398E-1,1.642157197E0,8.843795061E-1
5.541141824E0,-3.521635532E-1,1.636048555E0,8.226821423E-1
5.545896668E0,-3.576613367E-1,1.563966513E0,7.615956664E-1
5.550651564E0,-3.246746361E-1,1.449123979E0,7.011200786E-1
5.555406460E0,-2.605338395E-1,1.323896646E0,6.479747891E-1
5.560161303E0,-1.725693047E-1,1.192560792E0,5.936078429E-1
5.564916199E0,-7.360920310E-2,1.077718139E0,5.502364635E-1
5.569671095E0,1.496618707E-2,9.634864926E-1,5.209149122E-1
5.574425939E0,7.483093441E-2,8.504765034E-1,5.007563829E-1
5.579180835E0,9.560033679E-2,7.643445730E-1,4.940368831E-1
5.583935731E0,8.155044913E-2,7.105884552E-1,4.934260249E-1
5.588690574E0,4.489856213E-2,6.898190379E-1,4.830413163E-1
5.593445470E0,-1.252272818E-2,7.582359314E-1,4.378373325E-1
5.598200366E0,-9.132428467E-2,8.999565244E-1,3.559814394E-1
5.602955210E0,-1.853974611E-1,1.006247044E0,2.405280024E-1
5.607710106E0,-2.855792940E-1,1.026405573E0,9.330959618E-2
5.612465001E0,-3.918697536E-1,9.579886794E-1,-7.162389904E-2
5.617219845E0,-4.920515716E-1,8.089376688E-1,-2.432768941E-1
5.621974741E0,-5.739074349E-1,5.761982203E-1,-3.923279047E-1
5.626729637E0,-6.185005903E-1,3.184132576E-1,-5.059487820E-1
5.631484481E0,-6.160571575E-1,1.082757786E-1,-5.902481079E-1
5.636239376E0,-5.757400393E-1,-1.023198478E-2,-6.556106210E-1
5.640994272E0,-5.500837564E-1,-3.588830680E-2,-7.111993432E-1
5.645749116E0,-5.836812854E-1,-1.267544460E-2,-7.893900275E-1
5.650504012E0,-6.930260658E-1,8.093958721E-3,-9.201150537E-1
5.655258908E0,-8.756746650E-1,-1.939495653E-2,-1.077107310E0
5.660013751E0,-1.099251151E0,-6.948586553E-2,-1.256701589E0
5.664768647E0,-1.317940712E0,-1.018617004E-1,-1.460730433E0
5.669523543E0,-1.484706879E0,-1.024725661E-1,-1.684306860E0
5.674278387E0,-1.580612659E0,-9.697478265E-2,-1.920100689E0
5.679033283E0,-1.608712435E0,-1.281288862E-1,-2.154672861E0
5.683788178E0,-1.606268883E0,-2.093739063E-1,-2.362977743E0
5.688543022E0,-1.594051600E0,-3.455967605E-1,-2.540739298E0
5.693297918E0,-1.574504018E0,-4.970912039E-1,-2.698953390E0
5.698052814E0,-1.554345489E0,-5.923861265E-1,-2.841895580E0
5.702807658E0,-1.528689146E0,-5.887209177E-1,-2.976896763E0
5.707562553E0,-1.488372087E0,-5.374082923E-1,-3.108843565E0
5.712317449E0,-1.440113664E0,-4.842630625E-1,-3.232849121E0
5.717072293E0,-1.382692456E0,-4.329504073E-1,-3.355022192E0
5.721827189E0,-1.314886451E0,-3.724747896E-1,-3.482692719E0
5.726582085E0,-1.240971804E0,-2.875646055E-1,-3.598757029E0
5.731336928E0,-1.162170291E0,-1.861610413E-1,-3.701993227E0
5.736091824E0,-1.078481793E0,-7.681624591E-2,-3.809505463E0
5.740846720E0,-1.003956318E0,1.053741761E-2,-3.934732676E0
5.745601564E0,-9.440914989E-1,5.207622424E-2,-4.085616589E0
5.750356460E0,-9.068287611E-1,2.825249545E-2,-4.256658554E0
5.755111356E0,-8.958331943E-1,-6.887500733E-2,-4.433198452E0
5.759866199E0,-9.202677608E-1,-2.148716897E-1,-4.592023373E0
5.764621095E0,-9.728021622E-1,-3.584249020E-1,-4.722137451E0
5.769375991E0,-1.045495033E0,-4.482220411E-1,-4.800328255E0
5.774130835E0,-1.129183531E0,-4.427242577E-1,-4.802160740E0
5.778885731E0,-1.196378708E0,-3.034470677E-1,-4.709919930E0
5.783640626E0,-1.223867536E0,-9.621120058E-3,-4.513832569E0
5.788395522E0,-1.211650252E0,3.849975169E-1,-4.225504398E0
5.793150366E0,-1.169500589E0,8.132137656E-1,-3.880976677E0
5.797905262E0,-1.121853113E0,1.266475439E0,-3.501629591E0
5.802660106E0,-1.071151376E0,1.753334641E0,-3.107011080E0
5.807415001E0,-1.014951825E0,2.259741545E0,-2.731940031E0
5.812169897E0,-9.489784241E-1,2.747211695E0,-2.408792496E0
5.816924793E0,-8.622356653E-1,3.146717310E0,-2.155283689E0
5.821679637E0,-7.651081085E-1,3.422217131E0,-1.959806919E0
5.826434533E0,-6.661480665E-1,3.548666239E0,-1.816253662E0
5.831189428E0,-5.671879649E-1,3.523620844E0,-1.718515396E0
5.835944272E0,-4.670061171E-1,3.390452147E0,-1.652541995E0
5.840699168E0,-3.564395905E-1,3.190088511E0,-1.608559728E0
5.845454064E0,-2.159406990E-1,2.899317026E0,-1.581681609E0
5.850208908E0,-5.528326333E-2,2.519969940E0,-1.563355684E0
5.854963803E0,1.200349256E-1,2.080147266E0,-1.549305797E0
5.859718699E0,3.057378232E-1,1.581681609E0,-1.537088513E0
5.864473543E0,4.938841760E-1,1.044731498E0,-1.531590700E0
5.869228439E0,6.753110290E-1,5.377137065E-1,-1.535255909E0
5.873983335E0,8.359684348E-1,9.422589093E-2,-1.549916625E0
5.878738178E0,9.599739909E-1,-2.564104795E-1,-1.579849005E0
5.883493074E0,1.032666922E0,-4.830413163E-1,-1.624442220E0
5.888247970E0,1.051603675E0,-5.936078429E-1,-1.689193845E0
5.893002814E0,1.026558280E0,-6.168206930E-1,-1.774103999E0
5.897757710E0,9.654718041E-1,-5.923861265E-1,-1.866955519E0
5.902512606E0,8.823941946E-1,-5.343539715E-1,-1.961639524E0
5.907267449E0,7.907644510E-1,-4.763218164E-1,-2.047771454E0
5.912022345E0,7.009673119E-1,-4.433351159E-1,-2.115577459E0
5.916777241E0,6.203331947E-1,-4.329504073E-1,-2.157727003E0
5.921532137E0,5.616901517E-1,-4.372264743E-1,-2.157727003E0
5.926286981E0,5.342012644E-1,-4.775435328E-1,-2.110690594E0
5.931041876E0,5.305360556E-1,-5.563451052E-1,-2.022726059E0
5.935796772E0,5.458076596E-1,-6.510291100E-1,-1.896887898E0
5.940551616E0,5.897899270E-1,-7.365502119E-1,-1.738673925E0
5.945306512E0,6.563742161E-1,-8.080213666E-1,-1.559079647E0
5.950061408E0,7.266236544E-1,-8.886555433E-1,-1.369100690E0
5.954816251E0,7.852666974E-1,-1.000443816E0,-1.177899957E0
5.959571147E0,8.274163604E-1,-1.129947066E0,-1.014799118E0
5.964326043E0,8.506292105E-1,-1.228296399E0,-8.926261663E-1
5.969080887E0,8.585704565E-1,-1.255785227E0,-8.156571984E-1
5.973835783E0,8.500183225E-1,-1.227685452E0,-7.783944607E-1
5.978590678E0,8.280271888E-1,-1.170875072E0,-7.735075355E-1
5.983345522E0,8.035926223E-1,-1.107345104E0,-7.930551767E-1
5.988100418E0,7.767145634E-1,-1.043815136E0,-8.181006312E-1
5.992855314E0,7.467821836E-1,-9.821178317E-1,-8.352048993E-1
5.997610158E0,7.144063711E-1,-9.418007731E-1,-8.309288025E-1
6.002365053E0,6.881392002E-1,-9.259182811E-1,-7.973312736E-1
6.007119949E0,6.789761782E-1,-9.051488638E-1,-7.252492309E-1
6.011874845E0,6.820304990E-1,-8.746056557E-1,-6.177369952E-1
6.016629689E0,6.930260658E-1,-8.446732759E-1,-4.900662601E-1
6.021384585E0,7.058542371E-1,-8.147408962E-1,-3.471239209E-1
6.026139481E0,7.174606919E-1,-7.872520089E-1,-2.017380893E-1
6.030894324E0,7.217367291E-1,-7.750346661E-1,-6.979130208E-2
6.035649220E0,7.150171995E-1,-7.878628373E-1,4.627300799E-2
6.040404116E0,6.991347671E-1,-8.129082918E-1,1.507308781E-1
6.045158960E0,6.814196706E-1,-8.397863507E-1,2.423606068E-1
6.049913856E0,6.649262905E-1,-8.654426932E-1,3.211621642E-1
6.054668751E0,6.557633281E-1,-8.807142973E-1,3.938550651E-1
6.059423595E0,6.594285369E-1,-8.868229389E-1,4.610501826E-1
6.064178491E0,6.740893126E-1,-8.849903345E-1,5.251910090E-1
6.068933387E0,6.899717450E-1,-8.837686181E-1,5.923861265E-1
6.073688283E0,6.979129910E-1,-8.892664313E-1,6.614138484E-1
6.078443126E0,6.832522750E-1,-9.027054310E-1,7.273872495E-1
6.083198022E0,6.362156868E-1,-9.222530723E-1,7.860302329E-1
6.087952918E0,5.488619804E-1,-9.399681687E-1,8.379537463E-1
6.092707762E0,4.285216331E-1,-9.540180564E-1,8.831577301E-1
6.097462658E0,2.819140851E-1,-9.662353396E-1,9.179770350E-1
6.102217553E0,1.316413581E-1,-9.747874737E-1,9.301943183E-1
6.106972397E0,-3.970621154E-3,-9.821178317E-1,8.996511102E-1
6.111727293E0,-1.157588735E-1,-9.863939285E-1,8.098539710E-1
6.116482189E0,-2.012799382E-1,-9.821178317E-1,6.546943188E-1
6.121237033E0,-2.318231910E-1,-9.674571157E-1,4.268417656E-1
6.125991928E0,-1.554650813E-1,-9.210313559E-1,1.342375278E-1
6.130746824E0,4.062250629E-2,-8.770490885E-1,-2.328922004E-1
6.135501720E0,3.051269650E-1,-8.422298431E-1,-6.525563002E-1
6.140256564E0,5.830704570E-1,-7.212786078E-1,-1.115591764E0
6.145011460E0,8.274163604E-1,-3.822486401E-1,-1.630550861E0
6.149766356E0,9.880737662E-1,2.671006322E-1,-2.199265957E0
6.154521251E0,1.047938585E0,1.136361241E0,-2.794248104E0
6.159276095E0,9.972367287E-1,2.042273760E0,-3.370904684E0
6.164030991E0,8.732311726E-1,2.872438908E0,-3.875478983E0
6.168785887E0,7.089085579E-1,3.570046425E0,-4.268264771E0
6.173540731E0,5.024362803E-1,4.080729485E0,-4.532769203E0
6.178295626E0,2.965748608E-1,4.435030937E0,-4.632340431E0
6.183050522E0,1.255327165E-1,4.695259571E0,-4.552317142E0
6.187805366E0,-5.192350596E-3,4.831482410E0,-4.290256023E0
6.192560262E0,-7.238747925E-2,4.758178711E0,-3.790568590E0
6.197315158E0,-5.161807314E-2,4.387994289E0,-2.992168427E0
6.202070053E0,4.428769648E-2,3.817446709E0,-1.927431107E0
6.206824897E0,2.092211843E-1,3.243844748E0,-7.637336850E-1
6.211579793E0,4.621191919E-1,2.810741663E0,1.934914142E-1
6.216334689E0,7.779362798E-1,2.565784693E0,7.298306823E-1
6.221089533E0,1.074816585E0,2.454607487E0,9.161444306E-1
6.225844428E0,1.247691274E0,2.392910004E0,9.057597518E-1
6.230599324E0,1.202487350E0,2.323271513E0,8.171843290E-1
6.235354220E0,8.640682101E-1,2.154672861E0,7.133373618E-1
6.240109064E0,2.513708472E-1,1.794873476E0,6.192641854E-1
6.244863960E0,-4.505127668E-1,1.194393396E0,5.123628378E-1
6.249618856E0,-9.960150123E-1,3.135263622E-1,3.541488647E-1
6.254373699E0,-1.244637012E0,-8.764382601E-1,1.379027218E-1
6.259128595E0,-1.225700140E0,-2.214843035E0,-1.027780026E-1
6.263883491E0,-1.059544921E0,-3.413359642E0,-3.086394370E-1
6.268638335E0,-8.066469431E-1,-4.313163280E0,-4.204276800E-1
6.273393231E0,-4.670061171E-1,-4.874548435E0,-4.234820008E-1
6.278148126E0,1.527161920E-3,-4.978395462E0,-3.220784664E-1
6.282903022E0,5.989528894E-1,-4.464046955E0,-1.327103674E-1
6.287657866E0,1.149342060E0,-3.335169077E0,9.453132749E-2
6.292412762E0,1.329547167E0,-1.744477153E0,2.753472924E-1
6.297167658E0,1.107803226E0,-3.327685893E-1,3.798051775E-1
6.301922553E0,6.710349321E-1,5.059487820E-1,4.341721535E-1
6.306677397E0,2.623664141E-1,7.185297012E-1,4.738783538E-1
6.311432293E0,-2.596175298E-2,5.749764442E-1,5.038107038E-1
6.316187189E0,-2.232710719E-1,3.538434207E-1,5.025889874E-1
6.320942033E0,-3.729329407E-1,1.852447391E-1,4.665479660E-1
6.325696928E0,-5.042688847E-1,1.033888608E-1,4.121810198E-1
6.330451824E0,-6.044507027E-1,1.088866442E-1,3.523162603E-1
6.335206668E0,-6.557633281E-1,2.005163580E-1,2.918406427E-1
6.339961564E0,-6.545416117E-1,3.385718167E-1,2.283107042E-1
6.344716460E0,-6.435460448E-1,4.894554019E-1,1.672242284E-1
6.349471356E0,-6.423243284E-1,6.586649418E-1,1.275180280E-1
6.354226199E0,-6.459894776E-1,8.407026529E-1,1.098029464E-1
6.358981095E0,-6.459894776E-1,1.030681610E0,1.183550507E-1
6.363735991E0,-6.423243284E-1,1.229212642E0,1.623373181E-1
6.368490887E0,-6.294961572E-1,1.446680546E0,2.405280024E-1
6.373245731E0,-6.142245531E-1,1.667202711E0,3.492619395E-1
6.378000626E0,-6.117810607E-1,1.842520833E0,4.854847789E-1
6.382755522E0,-6.294961572E-1,1.937815785E0,6.284271479E-1
6.387510366E0,-6.704241037E-1,1.964082956E0,7.695369124E-1
6.392265262E0,-7.327322960E-1,1.936594009E0,8.978185058E-1
6.397020158E0,-8.072578311E-1,1.863901138E0,1.001054645E0
6.401775053E0,-8.823941946E-1,1.764941096E0,1.072525859E0
6.406529897E0,-9.495893121E-1,1.653763652E0,1.114064693E0
6.411284793E0,-1.007010579E0,1.534034133E0,1.133001447E0
6.416039689E0,-1.055268884E0,1.402087331E0,1.135444880E0
6.420794585E0,-1.100472927E0,1.247538567E0,1.128725410E0
6.425549428E0,-1.148120403E0,1.057559609E0,1.123227596E0
6.430304324E0,-1.206152558E0,8.290961981E-1,1.126281977E0
6.435059220E0,-1.275180221E0,5.584831238E-1,1.144607902E0
6.439814064E0,-1.353981733E0,2.438877672E-1,1.186146736E0
6.444568960E0,-1.439502835E0,-1.049160287E-1,1.260061383E0
6.449323856E0,-1.526245594E0,-4.964803457E-1,1.372460485E0
6.454078751E0,-1.608101487E0,-9.363030195E-1,1.523344040E0
6.458833595E0,-1.667966247E0,-1.403614521E0,1.698662281E0
6.463588491E0,-1.678350925E0,-1.869704366E0,1.880699992E0
6.468343387E0,-1.622762322E0,-2.329074621E0,2.056628942E0
6.473098283E0,-1.492648125E0,-2.796997070E0,2.215453863E0
6.477853126E0,-1.290451884E0,-3.253923893E0,2.340070248E0
6.482608022E0,-1.019227862E0,-3.678474903E0,2.421315193E0
6.487362918E0,-6.936369538E-1,-4.038274288E0,2.456745386E0
6.492117762E0,-3.228420317E-1,-4.307665825E0,2.448804140E0
6.496872658E0,8.277218044E-2,-4.475042820E0,2.406043768E0
6.501627553E0,5.024362803E-1,-4.536128998E0,2.340681076E0
6.506382449E0,9.166026115E-1,-4.495811939E0,2.269209862E0
6.511137293E0,1.309388638E0,-4.357756615E0,2.206290960E0
6.515892189E0,1.666744590E0,-4.137845516E0,2.155589104E0
6.520647085E0,1.978285551E0,-3.862956047E0,2.117715359E0
6.525401981E0,2.229351044E0,-3.564854145E0,2.089615583E0
6.530156824E0,2.412610531E0,-3.271639109E0,2.068846226E0
6.534911720E0,2.524398804E0,-3.029736519E0,2.049298525E0
6.539666616E0,2.572046041E0,-2.858694553E0,2.036470413E0
6.544421512E0,2.562883139E0,-2.750571489E0,2.038913965E0
6.549176356E0,2.504240274E0,-2.694982767E0,2.057850838E0
6.553931251E0,2.402836561E0,-2.649778605E0,2.092059135E0
6.558686147E0,2.266002893E0,-2.599076986E0,2.131154537E0
6.563441043E0,2.115119219E0,-2.542266607E0,2.167806387E0
6.568195887E0,1.970344305E0,-2.459188938E0,2.192851782E0
6.572950783E0,1.840841055E0,-2.324187756E0,2.203847408E0
6.577705678E0,1.733328819E0,-2.137874126E0,2.195295334E0
6.582460574E0,1.658192396E0,-1.911243200E0,2.172082424E0
6.587215418E0,1.614821076E0,-1.657123446E0,2.129321814E0
6.591970314E0,1.598327637E0,-1.391397238E0,2.067624569E0
6.596725210E0,1.600771189E0,-1.132390618E0,1.990655541E0
6.601480106E0,1.608712435E0,-8.898772597E-1,1.905134559E0
6.606234949E0,1.619097114E0,-6.632464528E-1,1.818391681E0
6.610989845E0,1.628870964E0,-4.451677203E-1,1.731648922E0
6.615744741E0,1.637423038E0,-2.276998460E-1,1.647349596E0
6.620499585E0,1.645364285E0,-1.328630932E-2,1.566715479E0
6.625254481E0,1.657581568E0,2.054032832E-1,1.488524795E0
6.630009376E0,1.673464060E0,4.338667095E-1,1.417664409E0
6.634764272E0,1.699731231E0,6.739365458E-1,1.356577992E0
6.639519168E0,1.753487349E0,1.125976562E0,1.297934890E0
6.644274012E0,1.702174664E0,2.676962137E0,1.243567944E0
6.649028908E0,1.385135889E0,5.113701820E0,1.224020243E0
6.653783803E0,1.006399751E0,6.807629585E0,1.273500323E0
6.658538647E0,7.461713552E-1,7.347634315E0,1.344971538E0
6.663293543E0,5.775726438E-1,7.193696499E0,1.406668901E0
6.668048439E0,4.492910504E-1,6.699506760E0,1.448818564E0
6.672803335E0,3.289506733E-1,6.064207554E0,1.479972601E0
6.677558231E0,2.299905866E-1,5.353771687E0,1.497687697E0
6.682313074E0,1.823431402E-1,4.580416679E0,1.497076869E0
6.687067970E0,1.896735132E-1,3.753916740E0,1.477529168E0
6.691822866E0,1.847866029E-1,2.891375780E0,1.444542527E0
6.696577762E0,9.560033679E-2,1.998291373E0,1.407890558E0
6.701332606E0,-7.116574794E-2,1.099709272E0,1.354134440E0
6.706087501E0,-2.183841616E-1,2.603811026E-1,1.271667719E0
6.710842397E0,-2.733619809E-1,-4.500546157E-1,1.165377259E0
6.715597293E0,-2.556469142E-1,-1.008995891E0,1.054199934E0
6.720352137E0,-2.159406990E-1,-1.423162222E0,9.625701904E-1
6.725107033E0,-1.933387071E-1,-1.683390617E0,9.014837146E-1
6.729861928E0,-2.055560052E-1,-1.779907227E0,8.660535216E-1
6.734616824E0,-2.495382577E-1,-1.693775296E0,8.403972387E-1
6.739371668E0,-3.210094273E-1,-1.418275356E0,8.202387094E-1
6.744126564E0,-4.089739621E-1,-9.650136232E-1,8.006910086E-1
6.748881460E0,-5.079340935E-1,-3.981311321E-1,7.835868001E-1
6.753636356E0,-6.105593443E-1,1.779143661E-1,7.609847784E-1
6.758391199E0,-7.144063711E-1,6.788234711E-1,7.389936447E-1
6.763146095E0,-8.084795475E-1,1.027627230E0,7.206677198E-1
6.767900991E0,-8.756746650E-1,1.166904449E0,7.072287202E-1
6.772655887E0,-8.891136646E-1,1.124143958E0,7.011200786E-1
6.777410731E0,-8.274163604E-1,9.634864926E-1,6.986765862E-1
6.782165626E0,-6.826413870E-1,7.405208349E-1,6.907353401E-1
6.786920522E0,-4.633409381E-1,4.967857897E-1,6.663007736E-1
6.791675418E0,-2.012799382E-1,2.579376400E-1,6.180424690E-1
6.796430314E0,5.222893879E-2,5.024362728E-2,5.306887627E-1
6.801185158E0,1.737910360E-1,-2.901607659E-3,3.834703565E-1
6.805940053E0,3.054323897E-4,3.098611534E-1,1.556178033E-1
6.810694949E0,-4.101957083E-1,8.333722949E-1,-8.933897316E-2
6.815449845E0,-8.335250020E-1,1.192560792E0,-2.756527364E-1
6.820204741E0,-1.102305532E0,1.228601813E0,-3.990474045E-1
6.824959585E0,-1.223867536E0,1.087491989E0,-5.065596104E-1
6.829714481E0,-1.272125959E0,9.561560750E-1,-6.275108457E-1
6.834469376E0,-1.300225735E0,9.030108452E-1,-7.655662894E-1
6.839224220E0,-1.308777809E0,8.797979951E-1,-9.097303748E-1
6.843979116E0,-1.290451884E0,7.942769527E-1,-1.058781385E0
6.848734012E0,-1.277623653E0,6.268999577E-1,-1.222493172E0
6.853488908E0,-1.311221242E0,4.198168218E-1,-1.408196092E0
6.858243803E0,-1.396742344E0,2.102901936E-1,-1.617111802E0
6.862998647E0,-1.502421975E0,1.603520103E-2,-1.838855743E0
6.867753543E0,-1.586110353E0,-1.782197952E-1,-2.053269148E0
6.872508439E0,-1.586110353E0,-4.072940946E-1,-2.247524261E0
6.877263335E0,-1.507308841E0,-6.608029604E-1,-2.418566465E0
6.882018178E0,-1.379027247E0,-8.794925809E-1,-2.573115110E0
6.886773074E0,-1.237917423E0,-1.024267554E0,-2.717890024E0
6.891527970E0,-1.106581569E0,-1.106734276E0,-2.857778072E0
6.896282866E0,-9.978476167E-1,-1.154992580E0,-2.987281561E0
6.901037762E0,-9.141591191E-1,-1.183703184E0,-3.103956699E0
6.905792658E0,-8.634573817E-1,-1.198974848E0,-3.212079763E0
6.910547501E0,-8.506292105E-1,-1.184924960E0,-3.313483238E0
6.915302397E0,-8.707877398E-1,-1.121394992E0,-3.420995474E0
6.920057293E0,-9.123265743E-1,-1.017547965E0,-3.546222687E0
6.924812189E0,-9.715804458E-1,-9.020945430E-1,-3.692830324E0
6.929567033E0,-1.035721183E0,-7.817541957E-1,-3.857152939E0
6.934321928E0,-1.109635830E0,-6.553052068E-1,-4.033082008E0
6.939076824E0,-1.194546103E0,-5.117519498E-1,-4.212065220E0
6.943831720E0,-1.279456258E0,-3.071122766E-1,-4.386161804E0
6.948586564E0,-1.364977360E0,1.908952370E-2,-4.547430038E0
6.953341460E0,-1.449276686E0,5.041161776E-1,-4.665327072E0
6.958096356E0,-1.512195706E0,1.128419995E0,-4.730078697E0
6.962851251E0,-1.528689146E0,1.874896765E0,-4.729467869E0
6.967606147E0,-1.499978423E0,2.722777128E0,-4.670214176E0
6.972360991E0,-1.430950761E0,3.590815783E0,-4.565755844E0
6.977115887E0,-1.334434152E0,4.428922176E0,-4.423424721E0
6.981870783E0,-1.230587125E0,5.235874653E0,-4.243219376E0
6.986625678E0,-1.101083755E0,5.995790482E0,-4.023919106E0
6.991380522E0,-9.618065953E-1,6.651859283E0,-3.758803606E0
6.996135418E0,-8.695660233E-1,7.144216537E0,-3.427715063E0
7.000890314E0,-8.677334189E-1,7.349466801E0,-3.054476500E0
7.005645210E0,-9.062178731E-1,7.095346928E0,-2.710559845E0
7.010400106E0,-8.555161357E-1,6.327490330E0,-2.460105181E0
7.015155001E0,-6.191114783E-1,5.247481346E0,-2.292728186E0
7.019909845E0,-2.208276242E-1,4.086838245E0,-2.150396824E0
7.024664741E0,2.470948100E-1,2.953683853E0,-1.995847940E0
7.029419637E0,7.046325207E-1,1.854738235E0,-1.822973251E0
7.034174533E0,1.079092622E0,8.425352573E-1,-1.631772518E0
7.038929428E0,1.331990600E0,-1.069013379E-3,-1.436295867E0
7.043684272E0,1.472489595E0,-6.937896609E-1,-1.249981999E0
7.048439168E0,1.517082691E0,-1.264337420E0,-1.088102937E0
7.053194064E0,1.482874274E0,-1.729205489E0,-9.598212838E-1
7.057948960E0,1.372918606E0,-2.082285404E0,-8.657481074E-1
7.062703856E0,1.220813274E0,-2.320522547E0,-8.003855944E-1
7.067458699E0,1.057101488E0,-2.447582483E0,-7.606793642E-1
7.072213595E0,9.123265743E-1,-2.455523729E0,-7.411317229E-1
7.076968491E0,8.017600179E-1,-2.345567942E0,-7.380773425E-1
7.081723387E0,7.266236544E-1,-2.159254313E0,-7.533490062E-1
7.086478283E0,6.936369538E-1,-1.920406103E0,-7.900008559E-1
7.091233126E0,7.052434087E-1,-1.646127820E0,-8.419243693E-1
7.095988022E0,7.431169748E-1,-1.397505879E0,-9.066760540E-1
7.100742918E0,7.938187718E-1,-1.197753072E0,-9.732602835E-1
7.105497814E0,8.420770764E-1,-1.046869516E0,-1.033125043E0
7.110252710E0,8.823941946E-1,-9.436333776E-1,-1.076496482E0
7.115007553E0,9.111047983E-1,-8.886555433E-1,-1.097265840E0
7.119762449E0,9.355394244E-1,-8.587231636E-1,-1.094822407E0
7.124517345E0,9.544762373E-1,-8.171843290E-1,-1.071609497E0
7.129272241E0,9.728021622E-1,-7.457131743E-1,-1.030681610E0
7.134027137E0,9.886846542E-1,-6.296488643E-1,-9.897536635E-1
7.138781981E0,1.000901937E0,-4.738783538E-1,-9.622647166E-1
7.143536876E0,1.002734542E0,-3.071122766E-1,-9.482148290E-1
7.148291772E0,9.996802211E-1,-1.543960720E-1,-9.378301501E-1
7.153046668E0,9.862411618E-1,-2.061668597E-2,-9.298889041E-1
7.157801564E0,9.703587294E-1,1.033888608E-1,-9.243911505E-1
7.162556408E0,9.605848789E-1,2.200640440E-1,-9.140064120E-1
7.167311303E0,9.611957073E-1,3.263545036E-1,-8.920152783E-1
7.172066199E0,9.685261250E-1,4.185950756E-1,-8.498656154E-1
7.176821095E0,9.770781994E-1,4.912880063E-1,-7.875574231E-1
7.181575991E0,9.831868410E-1,5.297724605E-1,-7.099775672E-1
7.186330887E0,9.813542962E-1,5.187768936E-1,-6.091849208E-1
7.191085731E0,9.703587294E-1,4.521926641E-1,-4.882336855E-1
7.195840626E0,9.532544613E-1,3.373500705E-1,-3.507890999E-1
7.200595522E0,9.263764620E-1,1.889099330E-1,-2.047924101E-1
7.205350418E0,8.885028362E-1,2.092211880E-2,-5.329795182E-2
7.210105314E0,8.445205688E-1,-1.434005052E-1,9.941824526E-2
7.214860158E0,7.925970554E-1,-2.906189263E-1,2.551887631E-1
7.219615053E0,7.302888632E-1,-4.127918780E-1,4.146244824E-1
7.224369949E0,6.569850445E-1,-5.074759126E-1,5.606211424E-1
7.229124845E0,5.757400393E-1,-5.716167092E-1,6.846266985E-1
7.233879741E0,4.883863926E-1,-6.088794470E-1,7.878628373E-1
7.238634585E0,3.912588954E-1,-6.394227147E-1,8.788816929E-1
7.243389481E0,2.855792940E-1,-6.663007736E-1,9.564615488E-1
7.248144376E0,1.658497900E-1,-6.840158105E-1,1.025489211E0
7.252899272E0,3.329212964E-2,-6.711876988E-1,1.085964918E0
7.257654168E0,-1.120936871E-1,-6.229293346E-1,1.142775297E0
7.262409064E0,-2.666424811E-1,-5.520690680E-1,1.189200997E0
7.267163908E0,-4.120282829E-1,-4.696022868E-1,1.209970355E0
7.271918803E0,-5.366446972E-1,-3.816377819E-1,1.196531415E0
7.276673699E0,-6.142245531E-1,-3.291034102E-1,1.140942693E0
7.281428595E0,-6.227766275E-1,-3.865246773E-1,1.036484838E0
7.286183491E0,-5.140427351E-1,-6.174315810E-1,8.776599765E-1
7.290938387E0,-2.507599890E-1,-1.098793030E0,6.895136237E-1
7.295693231E0,1.762344837E-1,-1.905134559E0,4.989238083E-1
7.300448126E0,6.924152374E-1,-2.928333044E0,3.193295598E-1
7.305203022E0,1.156672478E0,-3.812865257E0,1.324049383E-1
7.309957918E0,1.443778872E0,-4.023613453E0,-8.323032409E-2
7.314712814E0,1.459661365E0,-3.390146732E0,-3.000873327E-1
7.319467710E0,1.231197953E0,-2.244775295E0,-4.515817761E-1
7.324222553E0,8.689551353E-1,-9.821178317E-1,-4.827359021E-1
7.328977449E0,4.798342884E-1,1.754709035E-1,-3.654498458E-1
7.333732345E0,1.279761642E-1,1.200502038E0,-1.198822111E-1
7.338487241E0,-1.359174103E-1,2.094197273E0,1.751654744E-1
7.343242137E0,-2.813032269E-1,2.840673923E0,3.920224607E-1
7.347997033E0,-2.953531146E-1,3.432601929E0,4.390590489E-1
7.352751876E0,-2.110537887E-1,3.899913549E0,3.535379767E-1
7.357506772E0,-7.238747925E-2,4.234667301E0,2.081521749E-1
7.362261668E0,8.643736690E-2,4.420370102E0,7.376192510E-2
7.367016564E0,2.507599890E-1,4.439307213E0,-1.114828233E-2
7.371771460E0,4.071413875E-1,4.232223988E0,-3.252854943E-2
7.376526356E0,5.696313977E-1,3.745364666E0,1.511890348E-2
7.381281199E0,7.608320713E-1,3.050200462E0,1.146898642E-1
7.386036095E0,1.000901937E0,2.356258154E0,2.374736816E-1
7.390790991E0,1.289840937E0,1.898109555E0,3.535379767E-1
7.395545887E0,1.623983979E0,1.755778074E0,4.384481907E-1
7.400300783E0,1.873216867E0,1.728900075E0,4.824304581E-1
7.405055678E0,1.820071578E0,1.620777011E0,5.025889874E-1
7.409810574E0,1.367420793E0,1.438128352E0,5.264127254E-1
7.414565418E0,4.951058924E-1,1.261588454E0,6.027708054E-1
7.419320314E0,-5.610793233E-1,1.057559609E0,7.212786078E-1
7.424075210E0,-1.394298911E0,6.769908667E-1,7.713695168E-1
7.428830106E0,-1.782197952E0,-7.788525894E-3,7.047852278E-1
7.433585001E0,-1.731496215E0,-9.582940936E-1,5.569559336E-1
7.438339897E0,-1.426674724E0,-1.991877317E0,3.926333487E-1
7.443094741E0,-1.032666922E0,-2.981478214E0,2.674060464E-1
7.447849637E0,-6.056724191E-1,-3.898997068E0,2.167042792E-1
7.452604533E0,-1.566868126E-1,-4.696175575E0,2.710712552E-1
7.457359428E0,3.136790693E-1,-5.272831917E0,4.524980783E-1
7.462114324E0,7.675516009E-1,-5.520843029E0,7.499892116E-1
7.466869220E0,1.146898627E0,-5.396837711E0,1.090240955E0
7.471624116E0,1.375362039E0,-4.837896347E0,1.380401731E0
7.476378960E0,1.311221242E0,-3.731009245E0,1.549000382E0
7.481133856E0,9.538653493E-1,-2.355952740E0,1.578932762E0
7.485888751E0,4.572322965E-1,-1.182481527E0,1.516013622E0
7.490643647E0,1.435532235E-2,-5.245801210E-1,1.423773050E0
7.495398543E0,-2.953531146E-1,-3.187187016E-1,1.310763121E0
7.500153439E0,-4.841103256E-1,-3.620901108E-1,1.168431640E0
7.504908335E0,-6.050615907E-1,-4.708240330E-1,1.014493704E0
7.509663231E0,-7.015781999E-1,-5.551233888E-1,8.770490885E-1
7.514418074E0,-7.993165851E-1,-6.027708054E-1,7.609847784E-1
7.519172970E0,-9.092722535E-1,-6.290380359E-1,6.681333780E-1
7.523927866E0,-1.021671295E0,-6.418661475E-1,6.003273726E-1
7.528682762E0,-1.131016135E0,-6.394227147E-1,5.575668216E-1
7.533437658E0,-1.223867536E0,-6.058251262E-1,5.404626131E-1
7.538192553E0,-1.290451884E0,-5.282453299E-1,5.447386503E-1
7.542947449E0,-1.332601547E0,-4.097375572E-1,5.587885380E-1
7.547702293E0,-1.353981733E0,-2.625191510E-1,5.783362389E-1
7.552457189E0,-1.358257890E0,-9.086613357E-2,5.954404473E-1
7.557212085E0,-1.350316644E0,1.015562713E-1,6.070469022E-1
7.561966981E0,-1.334434152E0,3.092502952E-1,6.113229394E-1
7.566721876E0,-1.312443018E0,5.236638188E-1,6.027708054E-1
7.571476772E0,-1.289840937E0,7.362447977E-1,5.850557685E-1
7.576231668E0,-1.270904183E0,9.353867173E-1,5.679515004E-1
7.580986564E0,-1.262352109E0,1.114370108E0,5.612320304E-1
7.585741408E0,-1.263573766E0,1.264642835E0,5.703949928E-1
7.590496303E0,-1.281899691E0,1.380096197E0,5.929969549E-1
7.595251199E0,-1.316108227E0,1.449734807E0,6.253728271E-1
7.600006095E0,-1.364366531E0,1.466228127E0,6.730202436E-1
7.604760991E0,-1.427896380E0,1.425300241E0,7.402154207E-1
7.609515887E0,-1.501200199E0,1.324507594E0,8.312342763E-1
7.614270783E0,-1.576336622E0,1.165071845E0,9.485203028E-1
7.619025678E0,-1.641699076E0,9.427170753E-1,1.096349597E0
7.623780522E0,-1.677129269E0,6.647735834E-1,1.270446062E0
7.628535418E0,-1.652694702E0,3.740019500E-1,1.462257624E0
7.633290314E0,-1.557399750E0,7.467821985E-2,1.643684387E0
7.638045210E0,-1.404072642E0,-2.594648004E-1,1.793346286E0
7.642800106E0,-1.193935156E0,-6.327031851E-1,1.902691126E0
7.647555001E0,-9.349285364E-1,-1.030987024E0,1.964999318E0
7.652309897E0,-6.313287616E-1,-1.421329618E0,1.979049206E0
7.657064741E0,-2.996291816E-1,-1.756694436E0,1.964388371E0
7.661819637E0,3.878991306E-2,-1.996153355E0,1.947895050E0
7.666574533E0,3.790415823E-1,-2.139095783E0,1.939953804E0
7.671329428E0,7.186824083E-1,-2.195906162E0,1.941786408E0
7.676084324E0,1.046716809E0,-2.181245327E0,1.944840789E0
7.680839220E0,1.350927472E0,-2.121991634E0,1.941786408E0
7.685594116E0,1.618486285E0,-2.045633316E0,1.932623386E0
7.690349012E0,1.834121466E0,-1.977216601E0,1.916130066E0
7.695103908E0,1.989892006E0,-1.937510371E0,1.891695499E0
7.699858803E0,2.085797787E0,-1.932012558E0,1.859319687E0
7.704613647E0,2.125504017E0,-1.953392863E0,1.820224285E0
7.709368543E0,2.116341114E0,-1.981492639E0,1.776242018E0
7.714123439E0,2.072358847E0,-2.012035847E0,1.730427146E0
7.718878335E0,2.000887632E0,-2.035859585E0,1.693775296E0
7.723633231E0,1.909868717E0,-2.049909592E0,1.669951558E0
7.728388126E0,1.817017317E0,-2.071900606E0,1.663232088E0
7.733143022E0,1.728441834E0,-2.087783098E0,1.663842916E0
7.737897866E0,1.644142509E0,-2.052352905E0,1.665675521E0
7.742652814E0,1.567784429E0,-1.958890676E0,1.668118954E0
7.747407658E0,1.504254460E0,-1.812893987E0,1.669340730E0
7.752162553E0,1.457828760E0,-1.621693254E0,1.669340730E0
7.756917449E0,1.427896380E0,-1.402392864E0,1.670562506E0
7.761672345E0,1.416900873E0,-1.173929334E0,1.677281976E0
7.766427241E0,1.423009515E0,-9.387464523E-1,1.687666655E0
7.771182137E0,1.438281178E0,-6.974548697E-1,1.699883938E0
7.775937033E0,1.460883141E0,-4.518872201E-1,1.707825184E0
7.780691928E0,1.488982916E0,-2.099847645E-1,1.713933825E0
7.785446772E0,1.520747900E0,2.458730713E-2,1.712712169E0
7.790201668E0,1.553734541E0,2.524398565E-1,1.705381751E0
7.794956564E0,1.590386510E0,4.760163724E-1,1.688888431E0
7.799711460E0,1.625816584E0,6.928733587E-1,1.666286349E0
7.804466356E0,1.651472926E0,8.981239200E-1,1.639408350E0
7.809221251E0,1.663690209E0,1.092989802E0,1.614362955E0
7.813976147E0,1.678350925E0,1.293964267E0,1.592371821E0
7.818731043E0,1.758985162E0,1.565799117E0,1.567937136E0
7.823485939E0,1.922086000E0,1.984241486E0,1.542280793E0
7.828240835E0,1.999665856E0,3.014770508E0,1.525176644E0
7.832995731E0,1.470046043E0,4.738630772E0,1.498909473E0
7.837750574E0,5.109884143E-1,5.827802658E0,1.467755318E0
7.842505470E0,-3.833176494E-1,5.896219730E0,1.457981467E0
7.847260366E0,-8.084795475E-1,5.247481346E0,1.485470414E0
7.852015262E0,-7.962622643E-1,4.241386890E0,1.537393928E0
7.856770158E0,-5.904008150E-1,3.092961073E0,1.586874008E0
7.861525053E0,-3.448331654E-1,1.898109555E0,1.613141179E0
7.866279949E0,-1.359174103E-1,7.338013053E-1,1.607643366E0
7.871034845E0,-6.414080039E-3,-3.297142684E-1,1.566715479E0
7.875789741E0,3.084867075E-2,-1.236237645E0,1.491579056E0
7.880544637E0,-1.313359290E-2,-1.917962670E0,1.387732029E0
7.885299533E0,-1.090393662E-1,-2.304029226E0,1.266780853E0
7.890054428E0,-2.306014597E-1,-2.365726471E0,1.139720917E0
7.894809272E0,-3.515526950E-1,-2.123213291E0,1.025489211E0
7.899564168E0,-4.645626545E-1,-1.623525858E0,9.301943183E-1
7.904319064E0,-5.641336441E-1,-9.601266980E-1,8.513928056E-1
7.909073960E0,-6.520981789E-1,-2.215912044E-1,7.890845537E-1
7.913828856E0,-7.278453708E-1,4.870119393E-1,7.463240623E-1
7.918583751E0,-7.883210182E-1,1.039233685E0,7.255546451E-1
7.923338647E0,-8.133664727E-1,1.345276952E0,7.255546451E-1
7.928093543E0,-7.803797722E-1,1.430187106E0,7.408262491E-1
7.932848439E0,-6.759218574E-1,1.353218198E0,7.603739500E-1
7.937603335E0,-4.987711012E-1,1.167515278E0,7.689260244E-1
7.942358231E0,-2.678641975E-1,9.109520912E-1,7.457131743E-1
7.947113074E0,-1.618791744E-2,6.055197120E-1,6.779071689E-1
7.951867970E0,2.159406990E-1,2.872591615E-1,5.551233888E-1
7.956622866E0,3.900371492E-1,1.359174121E-2,3.877464235E-1
7.961377762E0,4.853320718E-1,-1.715002805E-1,2.008218020E-1
7.966132658E0,4.743365049E-1,-2.325867712E-1,2.428187430E-2
7.970887553E0,1.530216336E-1,-1.679878100E-3,-1.033888608E-1
7.975642449E0,-5.726857185E-1,6.397281289E-1,-1.620318890E-1
7.980397345E0,-1.268460751E0,1.298851252E0,-1.773035079E-1
7.985152241E0,-1.596495152E0,1.692248106E0,-1.980729103E-1
7.989907137E0,-1.601992846E0,1.831525326E0,-2.506072819E-1
7.994662033E0,-1.471267819E0,1.817475438E0,-3.361283541E-1
7.999416928E0,-1.354592681E0,1.707519770E0,-4.454731345E-1
8.004171824E0,-1.327714562E0,1.534645081E0,-5.700895786E-1
8.008926720E0,-1.353370905E0,1.297018647E0,-7.081450224E-1
8.013681564E0,-1.346040487E0,9.921970963E-1,-8.602503538E-1
8.018436460E0,-1.298393130E0,6.433933377E-1,-1.021518588E0
8.023191356E0,-1.262962937E0,2.952004075E-1,-1.186452150E0
8.027946251E0,-1.284954071E0,1.175914705E-2,-1.358716011E0
8.032701147E0,-1.373529434E0,-1.592829973E-1,-1.540753722E0
8.037456043E0,-1.499978423E0,-2.167042792E-1,-1.722791433E0
8.042210939E0,-1.601992846E0,-2.148716897E-1,-1.889557481E0
8.046965835E0,-1.613599300E0,-2.350302190E-1,-2.025780439E0
8.051720731E0,-1.524413109E0,-3.132209182E-1,-2.127183914E0
8.056475626E0,-1.369864225E0,-4.415025115E-1,-2.211483240E0
8.061230522E0,-1.189048290E0,-5.850557685E-1,-2.299447775E0
8.065985418E0,-1.015562654E0,-7.206677198E-1,-2.419788122E0
8.070740314E0,-8.683443069E-1,-8.348994255E-1,-2.578001976E0
8.075495210E0,-7.565560341E-1,-9.240856767E-1,-2.769813538E0
8.080250053E0,-6.850848794E-1,-9.833396077E-1,-2.978729486E0
8.085004949E0,-6.533198953E-1,-1.009606719E0,-3.186423302E0
8.089759845E0,-6.563742161E-1,-9.949460030E-1,-3.376402378E0
8.094514741E0,-6.844739914E-1,-9.320269227E-1,-3.551720619E0
8.099269637E0,-7.302888632E-1,-8.361211419E-1,-3.721540928E0
8.104024533E0,-7.834340930E-1,-7.170025110E-1,-3.889528751E0
8.108779428E0,-8.426879644E-1,-5.826122761E-1,-4.051407814E0
8.113534324E0,-9.159917235E-1,-4.286743701E-1,-4.207789421E0
8.118289220E0,-1.011286616E0,-2.368628234E-1,-4.353785992E0
8.123044116E0,-1.126129270E0,2.336557768E-2,-4.488176346E0
8.127799012E0,-1.256243467E0,3.941605091E-1,-4.590801716E0
8.132553908E0,-1.377194643E0,8.688024282E-1,-4.637837887E0
8.137308803E0,-1.462715745E0,1.460730433E0,-4.626842499E0
8.142063699E0,-1.484095931E0,2.121685982E0,-4.561480045E0
8.146818595E0,-1.438892007E0,2.804022074E0,-4.454578876E0
8.151573491E0,-1.341764450E0,3.516901255E0,-4.314690590E0
8.156328335E0,-1.185383081E0,4.273762703E0,-4.147924423E0
8.161083231E0,-9.563088417E-1,4.981754780E0,-3.953669548E0
8.165838126E0,-6.643154621E-1,5.529089928E0,-3.734979868E0
8.170593022E0,-3.820959330E-1,5.870563030E0,-3.477805853E0
8.175347918E0,-2.409861535E-1,5.940201759E0,-3.159545422E0
8.180102814E0,-2.874118686E-1,5.609724045E0,-2.830900192E0
8.184857710E0,-3.533852696E-1,4.949989796E0,-2.563341379E0
8.189612606E0,-2.825249732E-1,4.175413609E0,-2.366642952E0
8.194367501E0,-5.833758786E-2,3.453371286E0,-2.205985546E0
8.199122397E0,2.483165264E-1,2.835176229E0,-2.052047491E0
8.203877293E0,5.641336441E-1,2.272569656E0,-1.901774764E0
8.208632189E0,8.604030609E-1,1.708741546E0,-1.748447657E0
8.213387085E0,1.121242285E0,1.102152824E0,-1.595120668E0
8.218141981E0,1.325881958E0,4.723511934E-1,-1.444237113E0
8.222896876E0,1.461493969E0,-1.177441850E-1,-1.292742610E0
8.227651772E0,1.531743407E0,-6.394227147E-1,-1.154076338E0
8.232406668E0,1.538462996E0,-1.105512500E0,-1.027016401E0
8.237161564E0,1.496313334E0,-1.542280793E0,-9.115629792E-1
8.241916460E0,1.409570456E0,-1.936899543E0,-8.126028776E-1
8.246671356E0,1.278845429E0,-2.250273228E0,-7.362447977E-1
8.251426199E0,1.115744472E0,-2.433532476E0,-6.928733587E-1
8.256181095E0,9.428697824E-1,-2.438419580E0,-6.739365458E-1
8.260935991E0,7.938187718E-1,-2.261879444E0,-6.684387922E-1
8.265690887E0,6.930260658E-1,-1.961944938E0,-6.782126427E-1
8.270445783E0,6.539307237E-1,-1.607643366E0,-7.087558508E-1
8.275200678E0,6.661480665E-1,-1.257617831E0,-7.582359314E-1
8.279955574E0,7.125737667E-1,-9.692896605E-1,-8.205441236E-1
8.284710470E0,7.822123766E-1,-7.719803452E-1,-8.889609575E-1
8.289465366E0,8.567378521E-1,-6.516399980E-1,-9.543235302E-1
8.294220262E0,9.257655740E-1,-5.893318057E-1,-1.006247044E0
8.298975158E0,9.813542962E-1,-5.618428588E-1,-1.041066289E0
8.303730053E0,1.020449638E0,-5.282453299E-1,-1.061224818E0
8.308484949E0,1.036942959E0,-4.500546157E-1,-1.062446594E0
8.313239845E0,1.024725676E0,-3.095557392E-1,-1.045953274E0
8.317994741E0,9.886846542E-1,-1.385135949E-1,-1.009912252E0
8.322749637E0,9.385937452E-1,2.153298259E-2,-9.585995674E-1
8.327504533E0,8.885028362E-1,1.553123742E-1,-8.944587708E-1
8.332259428E0,8.414662480E-1,2.444986254E-1,-8.211549520E-1
8.337014324E0,8.017600179E-1,2.811505198E-1,-7.466294765E-1
8.341769220E0,7.706059217E-1,2.756527364E-1,-6.721040010E-1
8.346524116E0,7.522799969E-1,2.444986254E-1,-5.926915407E-1
8.351279012E0,7.443387508E-1,1.882990748E-1,-5.059487820E-1
8.356033908E0,7.443387508E-1,1.131627038E-1,-4.094321132E-1
8.360788803E0,7.492256761E-1,3.130681813E-2,-3.080285788E-1
8.365543699E0,7.522799969E-1,-3.955349326E-2,-2.035706937E-1
8.370298595E0,7.486147881E-1,-1.030834317E-1,-9.911280870E-2
8.375053491E0,7.357866168E-1,-1.653916389E-1,2.901607659E-3
8.379808387E0,7.095194459E-1,-2.295324355E-1,1.012508348E-1
8.384563231E0,6.759218574E-1,-2.869537175E-1,1.941022873E-1
8.389318126E0,6.374374032E-1,-3.339903057E-1,2.790125012E-1
8.394073022E0,5.958985686E-1,-3.694204688E-1,3.627009690E-1
8.398827918E0,5.568032265E-1,-3.865246773E-1,4.476111531E-1
8.403582814E0,5.195404887E-1,-3.712530732E-1,5.435169339E-1
8.408337710E0,4.834994674E-1,-3.242164850E-1,6.479747891E-1
8.413092606E0,4.450149834E-1,-2.606865466E-1,7.506000996E-1
8.417847501E0,3.955349326E-1,-2.008218020E-1,8.452841640E-1
8.422602397E0,3.289506733E-1,-1.556178033E-1,9.259182811E-1
8.427357293E0,2.379318327E-1,-1.281288862E-1,9.918916821E-1
8.432112189E0,1.291978955E-1,-1.061377525E-1,1.049312949E0
8.436867085E0,8.857538924E-3,-8.170316368E-2,1.102458239E0
8.441621981E0,-1.145371497E-1,-5.299251899E-2,1.151327372E0
8.446376876E0,-2.342666388E-1,-2.672533318E-2,1.187979221E0
8.451131772E0,-3.521635532E-1,-4.734201822E-3,1.202029228E0
8.455886668E0,-4.682278633E-1,8.093958721E-3,1.181259751E0
8.460641564E0,-5.720748901E-1,-4.734201822E-3,1.124449372E0
8.465396460E0,-6.172788739E-1,-1.421787739E-1,1.019991517E0
8.470151356E0,-5.164861679E-1,-5.288561583E-1,8.849903345E-1
8.474906251E0,-2.165515572E-1,-1.247843981E0,7.719803452E-1
8.479661147E0,2.354883701E-1,-2.256381750E0,7.182242870E-1
8.484416043E0,7.211259007E-1,-3.242928505E0,7.078395486E-1
8.489170939E0,1.129183531E0,-3.737728834E0,7.225003242E-1
8.493925835E0,1.365588188E0,-3.539808750E0,7.579304576E-1
8.498680731E0,1.397964001E0,-2.843422890E0,8.251255751E-1
8.503435626E0,1.278845429E0,-1.932623386E0,9.601266980E-1
8.508190522E0,1.055268884E0,-1.007774115E0,1.148273110E0
8.512945418E0,7.883210182E-1,-2.026543915E-1,1.293048024E0
8.517700314E0,5.384773016E-1,4.882336855E-1,1.312595725E0
8.522455210E0,3.368919194E-1,1.121700406E0,1.191644430E0
8.527210106E0,1.994473487E-1,1.736841321E0,9.668462276E-1
8.531965001E0,1.279761642E-1,2.313497543E0,6.852375865E-1
8.536719897E0,1.114828214E-1,2.806465626E0,3.956876695E-1
8.541474793E0,1.340848207E-1,3.193753719E0,1.434005052E-1
8.546229689E0,1.792888194E-1,3.447873592E0,-3.741546720E-2
8.550984585E0,2.391535640E-1,3.568824768E0,-1.412624866E-1
8.555739481E0,3.197877109E-1,3.541946650E0,-1.791360974E-1
8.560494376E0,4.334085584E-1,3.335474491E0,-1.736383140E-1
8.565249272E0,6.056724191E-1,2.982394457E0,-1.449276656E-1
8.570004168E0,8.530726433E-1,2.601214886E0,-1.039997265E-1
8.574759064E0,1.166446328E0,2.353814602E0,-6.062832847E-2
8.579513960E0,1.496313334E0,2.282343626E0,-4.657844082E-2
8.584268856E0,1.671020627E0,2.214537621E0,-5.940660089E-2
8.589023751E0,1.542128086E0,2.025780439E0,-8.750637621E-2
8.593778647E0,1.029001713E0,1.818697214E0,-1.211039424E-1
8.598533543E0,2.342666388E-1,1.670867920E0,-1.449276656E-1
8.603288439E0,-4.505127668E-1,1.373987556E0,-2.017380893E-1
8.608043335E0,-8.035926223E-1,7.252492309E-1,-3.019199073E-1
8.612798231E0,-8.573487401E-1,-2.276998460E-1,-4.173733592E-1
8.617553126E0,-7.223476171E-1,-1.268613458E0,-5.187768936E-1
8.622308022E0,-4.792234302E-1,-2.254549265E0,-5.829176903E-1
8.627062918E0,-1.560759544E-1,-3.120755434E0,-5.719221234E-1
8.631817814E0,1.994473487E-1,-3.815308809E0,-4.424188137E-1
8.636572710E0,5.189296007E-1,-4.305222034E0,-1.620318890E-1
8.641327606E0,7.516691089E-1,-4.573391914E0,2.130390853E-1
8.646082501E0,8.567378521E-1,-4.561785221E0,5.728384256E-1
8.650837397E0,7.431169748E-1,-4.178773403E0,8.281798959E-1
8.655592293E0,4.407389462E-1,-3.545917273E0,9.686788321E-1
8.660347189E0,5.161807314E-2,-2.857472658E0,1.024267554E0
8.665102085E0,-3.020726442E-1,-2.303418398E0,1.023656607E0
8.669856981E0,-5.470294356E-1,-1.948505878E0,9.876156449E-1
8.674611876E0,-6.887500286E-1,-1.713933825E0,9.143118858E-1
8.679366772E0,-7.620537877E-1,-1.504407287E0,8.098539710E-1
8.684121668E0,-8.042035103E-1,-1.278387308E0,7.084504366E-1
8.688876564E0,-8.396336436E-1,-1.040150046E0,6.155989766E-1
8.693631460E0,-8.878919482E-1,-7.982475758E-1,5.319104791E-1
8.698386356E0,-9.526436329E-1,-5.612320304E-1,4.708240330E-1
8.703141251E0,-1.026558280E0,-3.358229101E-1,4.366155863E-1
8.707896147E0,-1.094975114E0,-1.214093715E-1,4.311178327E-1
8.712651043E0,-1.156061649E0,9.789107740E-2,4.506655037E-1
8.717405939E0,-1.204930782E0,3.300196826E-1,4.879282415E-1
8.722160835E0,-1.242804408E0,5.737547278E-1,5.416843295E-1
8.726915731E0,-1.268460751E0,8.205441236E-1,6.070469022E-1
8.731670626E0,-1.284954071E0,1.062446594E0,6.736311316E-1
8.736425522E0,-1.295949578E0,1.296407819E0,7.377719283E-1
8.741180418E0,-1.308166981E0,1.515097380E0,7.921388745E-1
8.745935314E0,-1.325271130E0,1.711795807E0,8.379537463E-1
8.750690210E0,-1.349705696E0,1.871231556E0,8.727730513E-1
8.755445106E0,-1.383914113E0,1.983019829E0,8.990402222E-1
8.760200001E0,-1.425452948E0,2.054491043E0,9.185879230E-1
8.764954897E0,-1.474933028E0,2.078925610E0,9.418007731E-1
8.769709793E0,-1.536019444E0,2.042273760E0,9.729548693E-1
8.774464689E0,-1.609934092E0,1.954309106E0,1.012050271E0
8.779219585E0,-1.690568328E0,1.820529819E0,1.063362837E0
8.783974481E0,-1.769369841E0,1.643378973E0,1.130558014E0
8.788729376E0,-1.848171353E0,1.413082957E0,1.220355153E0
8.793484272E0,-1.920253396E0,1.121089578E0,1.330921650E0
8.798239168E0,-1.983172536E0,7.576250434E-1,1.458592415E0
8.802994064E0,-2.019824505E0,3.263545036E-1,1.599091291E0
8.807748960E0,-1.995389819E0,-1.812741160E-1,1.738979340E0
8.812503856E0,-1.881158113E0,-7.457131743E-1,1.865428329E0
8.817258751E0,-1.671631455E0,-1.327256441E0,1.962555766E0
8.822013647E0,-1.386968493E0,-1.872758746E0,2.023031473E0
8.826768543E0,-1.061377525E0,-2.319911718E0,2.055407286E0
8.831523439E0,-7.107411623E-1,-2.654054642E0,2.065181017E0
8.836278335E0,-3.411679864E-1,-2.886183262E0,2.066402912E0
8.841033231E0,4.734202102E-2,-3.024238825E0,2.070068121E0
8.845788126E0,4.523453712E-1,-3.076162338E0,2.080452681E0
8.850543022E0,8.567378521E-1,-3.049895048E0,2.092669964E0
8.855297918E0,1.243415236E0,-2.949713230E0,2.102443933E0
8.860052814E0,1.590997338E0,-2.788444996E0,2.102443933E0
8.864807710E0,1.879936337E0,-2.618624687E0,2.092669964E0
8.869562606E0,2.094960690E0,-2.495840788E0,2.071289778E0
8.874317553E0,2.242789984E0,-2.431699991E0,2.040135622E0
8.879072449E0,2.329532862E0,-2.402378559E0,2.001040220E0
8.883827345E0,2.357021809E0,-2.391993761E0,1.955836296E0
8.888582241E0,2.333198071E0,-2.394437313E0,1.904523611E0
8.893337137E0,2.265392065E0,-2.398713350E0,1.855043650E0
8.898092033E0,2.163377523E0,-2.391382933E0,1.816559196E0
8.902846928E0,2.044259071E0,-2.368780851E0,1.794568062E0
8.907601824E0,1.916588187E0,-2.322966099E0,1.788459301E0
8.912356720E0,1.786473989E0,-2.230114698E0,1.798844099E0
8.917111616E0,1.656970739E0,-2.090226650E0,1.817170024E0
8.921866512E0,1.537852049E0,-1.907577991E0,1.838550329E0
8.926621408E0,1.432172418E0,-1.694997072E0,1.859319687E0
8.931376303E0,1.343597054E0,-1.464701056E0,1.877645612E0
8.936131199E0,1.269071579E0,-1.224020243E0,1.896582365E0
8.940886095E0,1.214704633E0,-9.796743989E-1,1.914297462E0
8.945640991E0,1.176831007E0,-7.444914579E-1,1.930790901E0
8.950395887E0,1.154229045E0,-5.251910090E-1,1.943619013E0
8.955150783E0,1.145676851E0,-3.181078434E-1,1.949727654E0
8.959905678E0,1.152396441E0,-1.207985133E-1,1.945451617E0
8.964660574E0,1.172554970E0,6.795870513E-2,1.932012558E0
8.969415470E0,1.206763387E0,2.499964088E-1,1.909410596E0
8.974170366E0,1.261130333E0,4.283689260E-1,1.876423836E0
8.978925262E0,1.414457440E0,6.629409790E-1,1.831219912E0
8.983680158E0,1.746767879E0,1.044731498E0,1.778074622E0
8.988435053E0,2.206138134E0,1.535255909E0,1.727372885E0
8.993189949E0,2.640463114E0,2.006232738E0,1.694997072E0
8.997944845E0,2.718653679E0,2.830900192E0,1.669951558E0
9.002699741E0,1.798080444E0,4.433198452E0,1.587484837E0
9.007454637E0,4.529562294E-1,5.345219612E0,1.483637810E0
9.012209585E0,-4.254673123E-1,5.237096310E0,1.442709923E0
9.016964481E0,-7.034108043E-1,4.444193840E0,1.486081243E0
9.021719376E0,-6.575959325E-1,3.322646141E0,1.599702120E0
9.026474272E0,-5.293143392E-1,2.110690594E0,1.740811944E0
9.031229168E0,-4.016436040E-1,9.237802625E-1,1.839161158E0
9.035984064E0,-3.130682111E-1,-1.715002805E-1,1.878256440E0
9.040738960E0,-2.641990185E-1,-1.133612275E0,1.852600217E0
9.045493856E0,-2.446513474E-1,-1.932623386E0,1.779907227E0
9.050248751E0,-2.440404743E-1,-2.534936190E0,1.661399484E0
9.055003647E0,-2.568686306E-1,-2.884350777E0,1.512348533E0
9.059758543E0,-2.751945853E-1,-2.929554701E0,1.347414970E0
9.064513439E0,-2.916879356E-1,-2.649167776E0,1.183092356E0
9.069268335E0,-3.063486814E-1,-2.082896233E0,1.040760875E0
9.074023231E0,-3.289506733E-1,-1.331532478E0,9.216422439E-1
9.078778126E0,-3.686569035E-1,-5.068650246E-1,8.281798959E-1
9.083533022E0,-4.291325212E-1,2.860374451E-1,7.603739500E-1
9.088287918E0,-5.122101307E-1,9.152281284E-1,7.231112123E-1
9.093042814E0,-6.081159115E-1,1.262810230E0,7.163916826E-1
9.097797710E0,-6.856957078E-1,1.331837893E0,7.328850031E-1
9.102552606E0,-7.137954831E-1,1.200502038E0,7.579304576E-1
9.107307553E0,-6.698132157E-1,9.482148290E-1,7.762564421E-1
9.112062449E0,-5.427533388E-1,6.378955245E-1,7.762564421E-1
9.116817345E0,-3.393353820E-1,3.043633699E-1,7.432697415E-1
9.121572241E0,-8.582650125E-2,-2.916879393E-2,6.644681692E-1
9.126327137E0,1.737910360E-1,-3.443750143E-1,5.398517251E-1
9.131082033E0,3.979783952E-1,-6.125446558E-1,3.810268939E-1
9.135836928E0,5.592467189E-1,-8.098539710E-1,2.032652497E-1
9.140591824E0,6.496546865E-1,-9.265291691E-1,2.916879393E-2
9.145346720E0,6.643154621E-1,-9.521854520E-1,-1.351538301E-1
9.150101616E0,4.395172000E-1,-6.766854525E-1,-2.903134823E-1
9.154856512E0,-3.613265157E-1,3.434587121E-1,-4.558578432E-1
9.159611408E0,-1.341153622E0,1.534645081E0,-6.275108457E-1
9.164366303E0,-1.863443017E0,2.188270330E0,-8.113811612E-1
9.169121199E0,-1.857945204E0,2.279900074E0,-1.008690476E0
9.173876095E0,-1.606879830E0,2.043495417E0,-1.213940978E0
9.178630991E0,-1.330158114E0,1.606116176E0,-1.412472129E0
9.183385887E0,-1.171944022E0,1.070998669E0,-1.595731497E0
9.188140835E0,-1.213482857E0,5.780308247E-1,-1.771660566E0
9.192895731E0,-1.426674724E0,2.188423127E-1,-1.959806919E0
9.197650626E0,-1.650251150E0,-3.222311661E-2,-2.159559727E0
9.202405522E0,-1.740048289E0,-2.533561587E-1,-2.342208385E0
9.207160418E0,-1.689346552E0,-4.494437575E-1,-2.492480993E0
9.211915314E0,-1.553734541E0,-6.015490890E-1,-2.608545303E0
9.216670210E0,-1.382692456E0,-6.950113773E-1,-2.702618599E0
9.221425106E0,-1.223867536E0,-7.444914579E-1,-2.793637276E0
9.226180001E0,-1.096196890E0,-7.701478004E-1,-2.896262646E0
9.230934897E0,-9.990693331E-1,-7.884737253E-1,-3.011105299E0
9.235689793E0,-9.288198948E-1,-8.080213666E-1,-3.132056475E0
9.240444689E0,-8.836159110E-1,-8.165735006E-1,-3.249342442E0
9.245199585E0,-8.683443069E-1,-7.927497625E-1,-3.365406752E0
9.249954481E0,-8.830050230E-1,-7.151699662E-1,-3.490633965E0
9.254709428E0,-9.233221412E-1,-5.813905597E-1,-3.634187222E0
9.259464272E0,-9.801325202E-1,-4.042397738E-1,-3.788125277E0
9.264219220E0,-1.044884205E0,-1.904370934E-1,-3.956723928E0
9.268974116E0,-1.118188024E0,6.246092543E-2,-4.146091938E0
9.273729012E0,-1.196378708E0,3.733910918E-1,-4.351342678E0
9.278483908E0,-1.277012825E0,7.521272302E-1,-4.565145016E0
9.283238803E0,-1.363755584E0,1.221882224E0,-4.763676167E0
9.287993699E0,-1.441946268E0,1.782045245E0,-4.918225288E0
9.292748595E0,-1.487150311E0,2.422842503E0,-5.011687279E0
9.297503491E0,-1.473100424E0,3.097237110E0,-5.034289360E0
9.302258387E0,-1.401018381E0,3.753916740E0,-4.980533123E0
9.307013283E0,-1.282510638E0,4.389827251E0,-4.853473186E0
9.311768178E0,-1.109025002E0,5.007411480E0,-4.665327072E0
9.316523074E0,-8.610138893E-1,5.548637390E0,-4.409985542E0
9.321278022E0,-5.708531141E-1,5.956695080E0,-4.085005283E0
9.326032918E0,-3.784307241E-1,6.162556648E0,-3.692219496E0
9.330787814E0,-4.095848203E-1,5.997622967E0,-3.251785994E0
9.335542710E0,-5.244274139E-1,5.457618713E0,-2.852891207E0
9.340297606E0,-5.048797131E-1,4.761232853E0,-2.532187223E0
9.345052501E0,-2.880227566E-1,4.028194904E0,-2.272569656E0
9.349807397E0,4.978547990E-2,3.272555351E0,-2.042273760E0
9.354562293E0,4.242455959E-1,2.452163935E0,-1.841299176E0
9.359317189E0,7.675516009E-1,1.601229310E0,-1.658039689E0
9.364072085E0,1.021671295E0,8.138245940E-1,-1.485775828E0
9.368826981E0,1.165835381E0,1.443168074E-1,-1.330005288E0
9.373581876E0,1.206763387E0,-4.042397738E-1,-1.194393396E0
9.378336772E0,1.171333194E0,-8.367320299E-1,-1.090546370E0
9.383091720E0,1.093753338E0,-1.195920467E0,-1.020296931E0
9.387846616E0,1.013119221E0,-1.528841853E0,-9.738711715E-1
9.392601512E0,9.410371780E-1,-1.804952741E0,-9.384410381E-1
9.397356408E0,8.817833066E-1,-1.996153355E0,-9.176716208E-1
9.402111303E0,8.268054724E-1,-2.069457054E0,-9.152281284E-1
9.406866199E0,7.736602426E-1,-1.988823056E0,-9.274454713E-1
9.411621095E0,7.266236544E-1,-1.773187757E0,-9.482148290E-1
9.416375991E0,7.052434087E-1,-1.495244265E0,-9.757037759E-1
9.421130887E0,7.076868415E-1,-1.239291906E0,-1.004414439E0
9.425885783E0,7.321214676E-1,-1.047480345E0,-1.031292439E0
9.430640678E0,7.589994669E-1,-9.173662066E-1,-1.052061915E0
9.435395574E0,7.858775258E-1,-8.361211419E-1,-1.063057423E0
9.440150522E0,8.127555847E-1,-7.835868001E-1,-1.062446594E0
9.444905418E0,8.420770764E-1,-7.438805699E-1,-1.060613990E0
9.449660314E0,8.744529486E-1,-6.907353401E-1,-1.056948781E0
9.454415210E0,8.952223063E-1,-6.039925218E-1,-1.040455461E0
9.459170106E0,8.988875151E-1,-4.934260249E-1,-1.005636096E0
9.463925001E0,8.817833066E-1,-3.749182522E-1,-9.677625299E-1
9.468679897E0,8.512400985E-1,-2.582430840E-1,-9.329432249E-1
9.473434793E0,8.145881891E-1,-1.556178033E-1,-9.017891288E-1
9.478189689E0,7.797688842E-1,-7.437278330E-2,-8.724676371E-1
9.482944585E0,7.498365045E-1,-7.177661173E-3,-8.462004066E-1
9.487699481E0,7.315105796E-1,6.307178736E-2,-8.205441236E-1
9.492454428E0,7.241802216E-1,1.308777779E-1,-7.991638184E-1
9.497209324E0,7.272345424E-1,1.779143661E-1,-7.735075355E-1
9.501964220E0,7.357866168E-1,2.047924101E-1,-7.289143801E-1
9.506719116E0,7.449495792E-1,2.231183648E-1,-6.586649418E-1
9.511474012E0,7.467821836E-1,2.029598206E-1,-5.658134818E-1
9.516228908E0,7.315105796E-1,1.296560466E-1,-4.564687014E-1
9.520983803E0,7.034108043E-1,1.114828233E-2,-3.349066079E-1
9.525738699E0,6.655371785E-1,-1.299614757E-1,-2.054032832E-1
9.530493595E0,6.239983439E-1,-2.729038298E-1,-7.284562290E-2
9.535248543E0,5.732966065E-1,-4.048506320E-1,6.215549260E-2
9.540003439E0,5.128209591E-1,-5.148062706E-1,1.983783394E-1
9.544758335E0,4.413498044E-1,-5.936078429E-1,3.358229101E-1
9.549513231E0,3.570504785E-1,-6.333140731E-1,4.714348912E-1
9.554268126E0,2.660316229E-1,-6.333140731E-1,5.997164845E-1
9.559023022E0,1.689041108E-1,-5.997164845E-1,7.176133990E-1
9.563777918E0,6.872228533E-2,-5.447386503E-1,8.116865754E-1
9.568532814E0,-3.573558852E-2,-4.763218164E-1,8.801034093E-1
9.573287710E0,-1.432477981E-1,-4.097375572E-1,9.332486391E-1
9.578042606E0,-2.544251680E-1,-3.437641561E-1,9.796743989E-1
9.582797553E0,-3.674351573E-1,-2.735147178E-1,1.021213174E0
9.587552449E0,-4.841103256E-1,-1.837175786E-1,1.052978158E0
9.592307345E0,-6.001746655E-1,-7.009673119E-2,1.067028046E0
