"Time (s)","Acceleration x (m/s^2)","Acceleration y (m/s^2)","Acceleration z (m/s^2)"
1.016536900E-2,-1.266532660E0,3.023876667E0,9.229947090E0
1.216536900E-2,-1.386242747E0,3.155557871E0,9.261071205E0
1.416536900E-2,-1.474828243E0,3.268085241E0,9.282619476E0
1.616536900E-2,-1.534683347E0,3.354276657E0,9.292196274E0
1.816536900E-2,-1.577778935E0,3.418920040E0,9.296984673E0
2.016561900E-2,-1.601720929E0,3.457227230E0,9.289801598E0
2.216581900E-2,-1.606509328E0,3.469198227E0,9.270648003E0
2.416598500E-2,-1.601720929E0,3.466804028E0,9.249100685E0
2.616612700E-2,-1.582567334E0,3.440467834E0,9.220370293E0
2.817500200E-2,-1.544260144E0,3.394978046E0,9.182063103E0
3.017511300E-2,-1.501164436E0,3.347094059E0,9.143755913E0
3.217521300E-2,-1.443703651E0,3.284844637E0,9.100660324E0
3.417530300E-2,-1.383848548E0,3.220201254E0,9.057564735E0
3.617530300E-2,-1.307234168E0,3.141192675E0,9.009679794E0
3.817530300E-2,-1.218648672E0,3.050212860E0,8.957007408E0
4.017366000E-2,-1.137245774E0,2.964021683E0,8.906729698E0
4.217186000E-2,-1.048660398E0,2.870647907E0,8.854057312E0
4.417186000E-2,-9.624691010E-1,2.774879694E0,8.796596527E0
4.617186000E-2,-8.858546019E-1,2.688688517E0,8.743924141E0
4.817186000E-2,-8.092401624E-1,2.602497339E0,8.686463356E0
5.017133300E-2,-7.326257229E-1,2.518700123E0,8.626607895E0
5.217133300E-2,-6.631938815E-1,2.449268341E0,8.576330185E0
5.417109400E-2,-5.985504389E-1,2.387019157E0,8.523657799E0
5.617109400E-2,-5.339069963E-1,2.329558372E0,8.478167534E0
5.817122400E-2,-4.788403511E-1,2.279279947E0,8.439860344E0
6.017122400E-2,-4.261679053E-1,2.233790159E0,8.415918350E0
6.217122400E-2,-3.806780577E-1,2.200271368E0,8.399158478E0
6.417122400E-2,-3.423708379E-1,2.171540976E0,8.396764755E0
6.617122400E-2,-2.992752194E-1,2.145204782E0,8.408735275E0
6.817125900E-2,-2.609679997E-1,2.123656988E0,8.425495148E0
7.017129300E-2,-2.226607651E-1,2.106897593E0,8.454225540E0
7.217089300E-2,-1.843535304E-1,2.097320795E0,8.494926453E0
7.417135900E-2,-1.484405100E-1,2.090138197E0,8.535628319E0
7.617139200E-2,-1.077390760E-1,2.087743998E0,8.585906982E0
7.817142500E-2,-6.943184882E-2,2.090138197E0,8.645761490E0
8.017142500E-2,-3.591302410E-2,2.092532396E0,8.703222275E0
8.217139100E-2,-7.182605099E-3,2.094926596E0,8.772654533E0
8.417135700E-2,1.436521020E-2,2.099714994E0,8.844480515E0
8.617132300E-2,3.351882473E-2,2.109291792E0,8.911518097E0
8.816895600E-2,4.548983276E-2,2.121262789E0,8.983344078E0
9.016892200E-2,5.746084079E-2,2.133233786E0,9.057564735E0
9.216888800E-2,6.703764945E-2,2.142810583E0,9.124602318E0
9.416885400E-2,6.943184882E-2,2.157175779E0,9.191639900E0
9.616885400E-2,6.943184882E-2,2.171540976E0,9.251494408E0
9.816888700E-2,6.703764945E-2,2.188300371E0,9.308955193E0
1.001696870E-1,5.985504389E-2,2.202665567E0,9.354445457E0
1.021706200E-1,5.027823523E-2,2.214636564E0,9.392752647E0
1.041706530E-1,3.830722719E-2,2.224213362E0,9.421483040E0
1.061706860E-1,2.633621916E-2,2.233790159E0,9.443030357E0
1.081707190E-1,1.197100803E-2,2.243366957E0,9.455001831E0
1.101710850E-1,-7.182605099E-3,2.250549555E0,9.455001831E0
1.121711180E-1,-2.873042040E-2,2.260126352E0,9.450213432E0
1.141712840E-1,-5.027823523E-2,2.272097349E0,9.438241959E0
1.161712840E-1,-6.943184882E-2,2.279279947E0,9.416694641E0
1.181711840E-1,-8.858546615E-2,2.284068346E0,9.392752647E0
1.201711840E-1,-1.101332754E-1,2.296039343E0,9.354445457E0
1.221711840E-1,-1.316810995E-1,2.305616140E0,9.296984673E0
1.241711840E-1,-1.460463107E-1,2.312798738E0,9.239523888E0
1.261711840E-1,-1.532289088E-1,2.315192938E0,9.165303230E0
1.281711500E-1,-1.580173075E-1,2.315192938E0,9.069535255E0
1.301711160E-1,-1.604115069E-1,2.315192938E0,8.976161003E0
1.321715160E-1,-1.580173075E-1,2.308010340E0,8.866027832E0
1.341710490E-1,-1.580173075E-1,2.298433542E0,8.748712540E0
1.361710150E-1,-1.604115069E-1,2.284068346E0,8.640973091E0
1.381709810E-1,-1.604115069E-1,2.260126352E0,8.528446198E0
1.401709470E-1,-1.628057212E-1,2.238578558E0,8.432677269E0
1.421709470E-1,-1.651999205E-1,2.217030764E0,8.348880768E0
1.441709470E-1,-1.675941199E-1,2.193088770E0,8.279448509E0
1.461709800E-1,-1.675941199E-1,2.169146776E0,8.224382401E0
1.481710460E-1,-1.628057212E-1,2.138022184E0,8.193257332E0
1.501710790E-1,-1.580173075E-1,2.102109194E0,8.186075211E0
1.521711120E-1,-1.532289088E-1,2.068590164E0,8.186075211E0
1.541711450E-1,-1.508347094E-1,2.027888775E0,8.205228806E0
1.561711780E-1,-1.460463107E-1,1.980004787E0,8.241141319E0
1.581711780E-1,-1.436520964E-1,1.939303398E0,8.279448509E0
1.601711780E-1,-1.436520964E-1,1.903390408E0,8.322544098E0
1.621711440E-1,-1.436520964E-1,1.872265697E0,8.368034363E0
1.641711100E-1,-1.412578970E-1,1.848323703E0,8.413523674E0
1.661710760E-1,-1.221042871E-1,1.831564307E0,8.468590736E0
1.681710420E-1,-9.337386489E-2,1.819593310E0,8.523657799E0
1.701710080E-1,-4.548983276E-2,1.817199111E0,8.581118584E0
1.721705740E-1,1.675941236E-2,1.821987510E0,8.643367767E0
1.741705740E-1,7.661445439E-2,1.826775908E0,8.710405350E0
1.761706070E-1,1.221042871E-1,1.829170108E0,8.798990250E0
1.781706400E-1,1.436520964E-1,1.826775908E0,8.901941299E0
1.801706730E-1,1.460463107E-1,1.819593310E0,9.002497673E0
1.821707060E-1,1.101332754E-1,1.788468719E0,9.122207642E0
1.841707390E-1,2.154781483E-2,1.738190413E0,9.256282806E0
1.861707720E-1,-7.182604820E-2,1.685518026E0,9.387964249E0
1.881708050E-1,-1.867477298E-1,1.618480325E0,9.536404610E0
1.901708380E-1,-3.136404157E-1,1.537077546E0,9.687239647E0
1.921708380E-1,-4.285621047E-1,1.460463047E0,9.821314812E0
1.941708380E-1,-5.506663918E-1,1.371877551E0,9.952995300E0
1.961708380E-1,-6.631938815E-1,1.290474772E0,1.006073475E1
1.981708380E-1,-7.876923680E-1,1.204283476E0,1.013495541E1
2.001708380E-1,-9.289502501E-1,1.106121182E0,1.017565632E1
2.021704380E-1,-1.058237195E0,1.019929886E0,1.020199299E1
2.041704380E-1,-1.180341482E0,9.337386489E-1,1.021635818E1
2.061704040E-1,-1.288080573E0,8.403648138E-1,1.020917511E1
2.081703370E-1,-1.376665950E0,7.541735172E-1,1.018523312E1
2.101703030E-1,-1.448492050E0,6.607996821E-1,1.012537861E1
2.121702690E-1,-1.503558636E0,5.674257874E-1,1.002482224E1
2.141702350E-1,-1.544260144E0,4.836287498E-1,9.921871185E0
2.161702010E-1,-1.556231141E0,3.998316824E-1,9.799766541E0
2.181701670E-1,-1.551442742E0,3.280056417E-1,9.675268173E0
2.201701330E-1,-1.544260144E0,2.561795712E-1,9.512462616E0
2.221701330E-1,-1.532289028E0,1.819593310E-1,9.311349869E0
2.241701660E-1,-1.522712231E0,1.173158810E-1,9.119813919E0
2.261701990E-1,-1.513135433E0,6.224924326E-2,8.904335022E0
2.281702320E-1,-1.501164436E0,2.154781483E-2,8.676886559E0
2.301702650E-1,-1.467645645E0,-2.394201700E-3,8.444648743E0
2.321702980E-1,-1.417367458E0,-9.576806799E-3,8.241141319E0
2.341703310E-1,-1.271321058E0,3.112462163E-2,8.073547363E0
2.361703310E-1,-1.074996591E0,1.149216816E-1,7.946654797E0
2.381703310E-1,-8.283938169E-1,2.968810201E-1,7.870040417E0
2.401702970E-1,-6.631938815E-1,5.243301988E-1,7.865252018E0
2.421702630E-1,-5.554547906E-1,7.350199223E-1,7.898770809E0
2.441702290E-1,-5.027823448E-1,9.552865028E-1,7.999327183E0
2.461701950E-1,-4.740519226E-1,1.144428372E0,8.104672432E0
2.481701610E-1,-4.692635238E-1,1.304839969E0,8.200440407E0
2.501701270E-1,-4.979939461E-1,1.410184860E0,8.253112793E0
2.521701270E-1,-5.410895944E-1,1.479616642E0,8.272266388E0
2.541701600E-1,-6.153098345E-1,1.515529633E0,8.238747597E0
2.561701930E-1,-7.158663273E-1,1.513135433E0,8.159738541E0
2.581702260E-1,-8.140285611E-1,1.491587639E0,8.073547363E0
2.601702590E-1,-9.241618514E-1,1.422155857E0,7.965808392E0
2.621706920E-1,-1.053448796E0,1.254561663E0,7.841310024E0
2.641707250E-1,-1.204283476E0,1.022324085E0,7.721599579E0
2.661707580E-1,-1.367089152E0,6.943184733E-1,7.609072208E0
2.681707910E-1,-1.448492050E0,3.591302633E-1,7.522881031E0
2.701707910E-1,-1.472434044E0,6.464344263E-2,7.453449249E0
2.721707910E-1,-1.391031146E0,-2.011129409E-1,7.393594265E0
2.741707910E-1,-1.283292055E0,-4.189853072E-1,7.345710278E0
2.761707910E-1,-1.144428372E0,-5.961562395E-1,7.324162483E0
2.781708570E-1,-1.007958889E0,-7.302315235E-1,7.350498676E0
2.801708570E-1,-8.954314590E-1,-8.259995580E-1,7.403171062E0
2.821708570E-1,-7.972691655E-1,-8.738836050E-1,7.515698433E0
2.841708230E-1,-7.182605267E-1,-8.786720037E-1,7.673715591E0
2.861707890E-1,-6.584054828E-1,-8.667010069E-1,7.834127426E0
2.881707550E-1,-6.272808313E-1,-8.283938169E-1,8.025663376E0
2.901707210E-1,-6.272808313E-1,-7.852981687E-1,8.236352921E0
2.921710870E-1,-6.440402865E-1,-7.469909191E-1,8.432677269E0
2.941710530E-1,-6.871358752E-1,-7.086837292E-1,8.640973091E0
2.961710190E-1,-7.517793179E-1,-6.775590777E-1,8.851662636E0
2.981709850E-1,-8.164227605E-1,-6.536170840E-1,9.038411140E0
3.001709850E-1,-8.882488012E-1,-6.392518282E-1,9.208398819E0
3.021710180E-1,-9.576807022E-1,-6.296750307E-1,9.352050781E0
3.041710510E-1,-1.036689281E0,-6.344634295E-1,9.469367027E0
3.061710840E-1,-1.127668977E0,-6.584054828E-1,9.553164482E0
3.081711170E-1,-1.218648672E0,-6.871358752E-1,9.608230591E0
3.101711500E-1,-1.331176162E0,-7.302315235E-1,9.620202065E0
3.121711830E-1,-1.460463047E0,-7.852981687E-1,9.586683273E0
3.141711830E-1,-1.584961534E0,-8.403648138E-1,9.534010887E0
3.161711830E-1,-1.726219416E0,-9.050082564E-1,9.438241959E0
3.181711490E-1,-1.881842494E0,-9.672574997E-1,9.296984673E0
3.201711150E-1,-2.025494576E0,-1.019929886E0,9.148544312E0
3.221710810E-1,-2.178723574E0,-1.065419793E0,8.961795807E0
3.241706470E-1,-2.341529369E0,-1.103726983E0,8.741529465E0
3.261706130E-1,-2.489969730E0,-1.137245774E0,8.528446198E0
3.281705790E-1,-2.645592928E0,-1.165976286E0,8.284236908E0
3.301705790E-1,-2.798821688E0,-1.189918280E0,8.013691902E0
3.321706120E-1,-2.930502892E0,-1.211466074E0,7.762300968E0
3.341706450E-1,-3.045424461E0,-1.230619669E0,7.484573841E0
3.361706780E-1,-3.131615877E0,-1.247379065E0,7.225999832E0
3.381706440E-1,-3.169923067E0,-1.266532660E0,6.945878506E0
3.401706770E-1,-3.150769472E0,-1.292868972E0,6.651391506E0
3.421707100E-1,-3.102885485E0,-1.321599364E0,6.383241177E0
3.441707430E-1,-2.980781078E0,-1.371877551E0,6.107907772E0
3.461707760E-1,-2.786850691E0,-1.443703651E0,5.839757442E0
3.481707760E-1,-2.585737944E0,-1.515529633E0,5.605125427E0
3.501707760E-1,-2.336740971E0,-1.604115129E0,5.384859085E0
3.521707760E-1,-2.099714994E0,-1.690306425E0,5.193322659E0
3.541707760E-1,-1.841141105E0,-1.783680320E0,5.023334503E0
3.561707760E-1,-1.570596337E0,-1.881842494E0,4.869806290E0
3.581707760E-1,-1.323993564E0,-1.968033791E0,4.738125324E0
3.601707760E-1,-1.067813993E0,-2.054224968E0,4.613626480E0
3.621707420E-1,-7.972691655E-1,-2.145204782E0,4.501099110E0
3.641704750E-1,-5.506663918E-1,-2.231395960E0,4.410119534E0
3.661704410E-1,-2.920926213E-1,-2.334346771E0,4.345476151E0
3.681704070E-1,-3.830722719E-2,-2.454056740E0,4.311957359E0
3.701703730E-1,2.035071403E-1,-2.600103140E0,4.314351559E0
3.721703390E-1,4.141969085E-1,-2.746149302E0,4.335899353E0
3.741703050E-1,6.057330370E-1,-2.920926094E0,4.400542736E0
3.761702710E-1,7.613561153E-1,-3.088520288E0,4.481945515E0
3.781702710E-1,8.762778044E-1,-3.282450438E0,4.608838081E0
3.801703040E-1,9.552865028E-1,-3.459621429E0,4.738125324E0
3.821703370E-1,9.792284966E-1,-3.634398222E0,4.898836136E0
3.841707700E-1,9.481038451E-1,-3.801992416E0,5.076006889E0
3.861708030E-1,8.954314590E-1,-3.943250179E0,5.238812447E0
3.881708360E-1,7.924807668E-1,-4.065354347E0,5.411195278E0
3.901708690E-1,6.512228847E-1,-4.170699596E0,5.588366032E0
3.921708690E-1,4.860229492E-1,-4.256890774E0,5.765536785E0
3.941712690E-1,3.280056417E-1,-4.323928356E0,5.925948620E0
3.961708350E-1,1.508347094E-1,-4.367023945E0,6.093542576E0
3.981708010E-1,-1.197100803E-2,-4.395754337E0,6.244377136E0
4.001711670E-1,-1.843535304E-1,-4.405331135E0,6.397606373E0
4.021711330E-1,-3.639186621E-1,-4.407725334E0,6.550835133E0
4.041710990E-1,-5.267243981E-1,-4.405331135E0,6.684910297E0
4.061710650E-1,-6.919242740E-1,-4.407725334E0,6.814197540E0
4.081710650E-1,-8.451532125E-1,-4.412513733E0,6.926724911E0
4.101708650E-1,-1.007958889E0,-4.419696331E0,7.032069683E0
4.121708980E-1,-1.173158884E0,-4.426878929E0,7.123049259E0
4.141709310E-1,-1.323993564E0,-4.434061527E0,7.199663639E0
4.161705970E-1,-1.477222443E0,-4.441244125E0,7.261912823E0
4.181706300E-1,-1.625662923E0,-4.441244125E0,7.300220490E0
4.201706630E-1,-1.757344007E0,-4.436455727E0,7.321768284E0
4.221706960E-1,-1.877054095E0,-4.426878929E0,7.319374084E0
4.241709620E-1,-1.980004787E0,-4.417302132E0,7.297826290E0
4.261709620E-1,-2.061407566E0,-4.410119534E0,7.269095421E0
4.281709620E-1,-2.123656988E0,-4.407725334E0,7.228394032E0
4.301709620E-1,-2.161964178E0,-4.414907932E0,7.173327446E0
4.321709620E-1,-2.185906172E0,-4.431667328E0,7.118260860E0
4.341709620E-1,-2.193088770E0,-4.472368717E0,7.053617477E0
4.361709620E-1,-2.195482969E0,-4.520252705E0,6.991368294E0
4.381709620E-1,-2.185906172E0,-4.592078686E0,6.917148113E0
4.401709280E-1,-2.173935175E0,-4.687847137E0,6.828562737E0
4.421708940E-1,-2.164358377E0,-4.788403511E0,6.742371082E0
4.441708600E-1,-2.159569979E0,-4.913201332E0,6.646603107E0
4.461708260E-1,-2.157175779E0,-5.059247494E0,6.541258335E0
4.481707920E-1,-2.157175779E0,-5.198111057E0,6.443096161E0
4.501707580E-1,-2.166752577E0,-5.348946095E0,6.332962990E0
4.521703240E-1,-2.188300371E0,-5.509357452E0,6.208464146E0
4.541698900E-1,-2.214636564E0,-5.660192013E0,6.086359978E0
4.561702900E-1,-2.257732153E0,-5.822998047E0,5.952284813E0
4.581703230E-1,-2.303221941E0,-5.973832607E0,5.822998047E0
4.601699560E-1,-2.375048161E0,-6.131849766E0,5.676951408E0
4.621699890E-1,-2.482787132E0,-6.292261124E0,5.518934250E0
4.641700220E-1,-2.597708941E0,-6.435913563E0,5.372888088E0
4.661700550E-1,-2.748543501E0,-6.577171326E0,5.217264652E0
4.681700880E-1,-2.937685490E0,-6.713640690E0,5.064035892E0
4.701699210E-1,-3.169923067E0,-6.842927933E0,4.917989731E0
4.721699210E-1,-3.397372246E0,-6.957849503E0,4.790797710E0
4.741698870E-1,-3.663128614E0,-7.067982674E0,4.675876141E0
4.761702200E-1,-3.916913986E0,-7.168539047E0,4.580107689E0
4.781701860E-1,-4.206612587E0,-7.269095421E0,4.503493309E0
4.801713190E-1,-4.527435303E0,-7.367258072E0,4.441244125E0
4.821712850E-1,-4.829104900E0,-7.458237648E0,4.393360138E0
4.841712510E-1,-5.150227070E0,-7.546823025E0,4.357447147E0
4.861709840E-1,-5.447108269E0,-7.623437405E0,4.331110954E0
4.881709840E-1,-5.767930984E0,-7.692869186E0,4.307168961E0
4.901710170E-1,-6.105513573E0,-7.759906769E0,4.285621166E0
4.921710500E-1,-6.416759968E0,-7.814973831E0,4.268861771E0
4.941710830E-1,-6.751947880E0,-7.860463619E0,4.252102375E0
4.961711160E-1,-7.108684063E0,-7.903559208E0,4.230554581E0
4.981711490E-1,-7.439084053E0,-7.939472198E0,4.211400986E0
5.001711820E-1,-7.786243439E0,-7.982567787E0,4.192247391E0
5.021712150E-1,-8.150161743E0,-8.020874977E0,4.177882195E0
5.041712150E-1,-8.485349655E0,-8.052000046E0,4.168305397E0
5.061712150E-1,-8.827720642E0,-8.073547363E0,4.165910721E0
5.081712150E-1,-9.174880028E0,-8.090307236E0,4.170699596E0
5.101712150E-1,-9.490914345E0,-8.099884033E0,4.180276394E0
5.121716150E-1,-9.816526413E0,-8.111854553E0,4.206612587E0
5.141716150E-1,-1.011340714E1,-8.128614426E0,4.240131378E0
5.161716150E-1,-1.041507626E1,-8.162133217E0,4.297592163E0
5.181712810E-1,-1.070956326E1,-8.205228806E0,4.378994942E0
5.201712470E-1,-1.096334839E1,-8.250718117E0,4.462791920E0
5.221712130E-1,-1.120037460E1,-8.317755699E0,4.575319290E0
5.241711790E-1,-1.143500614E1,-8.401553154E0,4.709394932E0
5.261711450E-1,-1.164330196E1,-8.482955933E0,4.836287498E0
5.281714450E-1,-1.185399151E1,-8.573935509E0,4.987421513E0
5.301718110E-1,-1.205989361E1,-8.662521362E0,5.155015469E0
5.321717770E-1,-1.224185276E1,-8.739135742E0,5.313032627E0
5.341717770E-1,-1.241902351E1,-8.815750122E0,5.490203857E0
5.361714100E-1,-1.258422375E1,-8.889969826E0,5.679345608E0
5.381714430E-1,-1.272548103E1,-8.957007408E0,5.851728439E0
5.401703090E-1,-1.284279728E1,-9.031228065E0,6.036081791E0
5.421703420E-1,-1.293377686E1,-9.105448723E0,6.203675747E0
5.441703750E-1,-1.299842072E1,-9.201216698E0,6.380846977E0
5.461706750E-1,-1.305109310E1,-9.308955193E0,6.562806129E0
5.481707080E-1,-1.309658241E1,-9.409511566E0,6.725611687E0
5.501707080E-1,-1.314686108E1,-9.519645691E0,6.888417721E0
5.521708410E-1,-1.319953346E1,-9.622595787E0,7.046434879E0
5.541708070E-1,-1.324741745E1,-9.703998566E0,7.187692642E0
5.561707730E-1,-1.330248356E1,-9.763854027E0,7.324162483E0
5.581707390E-1,-1.335994434E1,-9.794978142E0,7.455843449E0
5.601701390E-1,-1.341022301E1,-9.806949615E0,7.573159218E0
5.621701050E-1,-1.344853020E1,-9.778219223E0,7.695263386E0
5.641701050E-1,-1.347247219E1,-9.737517357E0,7.824550629E0
5.661694380E-1,-1.348683739E1,-9.665691376E0,7.944260597E0
5.681685710E-1,-1.348923206E1,-9.572318077E0,8.075942039E0
5.701677040E-1,-1.348923206E1,-9.483732224E0,8.200440407E0
5.721668370E-1,-1.349402046E1,-9.397541046E0,8.329727173E0
5.741659700E-1,-1.351556778E1,-9.323320389E0,8.463802338E0
5.761651030E-1,-1.354429817E1,-9.263465881E0,8.585906982E0
5.781645690E-1,-1.359457684E1,-9.220370293E0,8.708010674E0
5.801641020E-1,-1.366161442E1,-9.177274704E0,8.818143845E0
5.821639680E-1,-1.372386360E1,-9.129390717E0,8.906729698E0
5.841634680E-1,-1.376935291E1,-9.026439667E0,8.916306496E0
5.861629680E-1,-1.376456451E1,-8.889969826E0,8.834903717E0
5.881625010E-1,-1.373344040E1,-8.693645477E0,8.461407661E0
5.901620010E-1,-1.364006615E1,-8.482955933E0,7.848492622E0
5.921615010E-1,-1.354908657E1,-8.272266388E0,7.249941826E0
5.941613670E-1,-1.354669285E1,-7.968202591E0,6.687304497E0
5.961618330E-1,-1.370471001E1,-7.527669430E0,6.282684326E0
5.981612990E-1,-1.390103436E1,-7.072771072E0,5.997774601E0
6.001607650E-1,-1.411890697E1,-6.531681538E0,5.854122639E0
6.021602310E-1,-1.427213573E1,-5.945102215E0,5.854122639E0
6.041600640E-1,-1.437748051E1,-5.406406879E0,5.935525417E0
6.061595300E-1,-1.444212437E1,-4.860229492E0,6.222829342E0
6.081589960E-1,-1.449000835E1,-4.364629745E0,6.701669693E0
6.101584620E-1,-1.452352715E1,-3.967192173E0,7.206846237E0
6.121577950E-1,-1.451634407E1,-3.694253206E0,7.824550629E0
6.141573280E-1,-1.448761368E1,-3.521870613E0,8.403946877E0
6.161572280E-1,-1.441099930E1,-3.509899616E0,8.992920876E0
6.181567610E-1,-1.428410625E1,-3.622427225E0,9.538799286E0
6.201568610E-1,-1.415003109E1,-3.763684988E0,1.000088024E1
6.221563940E-1,-1.399440861E1,-3.950432777E0,1.040789413E1
6.241559270E-1,-1.383160210E1,-4.151545525E0,1.075744724E1
6.261561270E-1,-1.368316174E1,-4.333505154E0,1.105193424E1
6.281568930E-1,-1.353232765E1,-4.522646904E0,1.129853725E1
6.301577590E-1,-1.338388634E1,-4.728548527E0,1.149486160E1
6.321586250E-1,-1.325220585E1,-4.932354927E0,1.165527344E1
6.341594910E-1,-1.312291908E1,-5.188534260E0,1.178216553E1
6.361603570E-1,-1.299123764E1,-5.504569054E0,1.185638618E1
6.381611900E-1,-1.287152767E1,-5.818209171E0,1.189469337E1
6.401616560E-1,-1.274463463E1,-6.203675747E0,1.188032818E1
6.421617890E-1,-1.260816574E1,-6.579565525E0,1.183723259E1
6.441622890E-1,-1.248366737E1,-7.010521889E0,1.178934860E1
6.461627890E-1,-1.235916805E1,-7.467814445E0,1.171752262E1
6.481629220E-1,-1.224664116E1,-7.879617214E0,1.163851357E1
6.501634220E-1,-1.213411331E1,-8.289025307E0,1.151401520E1
6.521638550E-1,-1.201679802E1,-8.696040154E0,1.133205605E1
6.541639880E-1,-1.191145229E1,-9.059958458E0,1.114052010E1
6.561638880E-1,-1.180131912E1,-9.426271439E0,1.088673401E1
6.581643880E-1,-1.168879223E1,-9.785401344E0,1.056591129E1
6.601648880E-1,-1.158823586E1,-1.010383034E1,1.024269390E1
6.621654210E-1,-1.148289108E1,-1.041507626E1,9.840468407E0
6.641655870E-1,-1.136318016E1,-1.069280434E1,9.361627579E0
6.661661200E-1,-1.124107647E1,-1.092025280E1,8.897152901E0
6.681666530E-1,-1.108784771E1,-1.109263611E1,8.353669167E0
6.701681530E-1,-1.090349388E1,-1.118840408E1,7.740753174E0
6.721686860E-1,-1.072153473E1,-1.123628807E1,7.161356449E0
6.741691860E-1,-1.050366211E1,-1.121234608E1,6.534075737E0
6.761692860E-1,-1.029297256E1,-1.116206741E1,5.954679012E0
6.781693520E-1,-1.004876423E1,-1.106629944E1,5.356128693E0
6.801698180E-1,-9.778219223E0,-1.095855999E1,4.769249916E0
6.821702840E-1,-9.529222488E0,-1.086279202E1,4.252102375E0
6.841707500E-1,-9.265859604E0,-1.077660084E1,3.754108191E0
6.861712160E-1,-8.992920876E0,-1.071674633E1,3.280056238E0
6.881713160E-1,-8.741529465E0,-1.067843914E1,2.861071110E0
6.901713160E-1,-8.478167534E0,-1.065928555E1,2.461239338E0
6.921713490E-1,-8.200440407E0,-1.065689087E1,2.080561161E0
6.941713820E-1,-7.949048996E0,-1.065928555E1,1.747767210E0
6.961714150E-1,-7.690474987E0,-1.065449715E1,1.436521053E0
6.981714480E-1,-7.455843449E0,-1.064492035E1,1.168370485E0
7.001714810E-1,-7.223605633E0,-1.061379528E1,9.313444495E-1
7.021715140E-1,-7.003339291E0,-1.055394077E1,7.445967197E-1
7.041715470E-1,-6.811803341E0,-1.048450851E1,6.009446383E-1
7.061715800E-1,-6.641814709E0,-1.039113426E1,5.075707436E-1
7.081715800E-1,-6.490980148E0,-1.029057789E1,4.740519226E-1
7.101715800E-1,-6.368875980E0,-1.017805099E1,5.051765442E-1
7.121707460E-1,-6.275501728E0,-1.007031155E1,5.602431893E-1
7.141707460E-1,-6.213252544E0,-9.941024780E0,6.895300746E-1
7.161707460E-1,-6.172551155E0,-9.816526413E0,8.403648138E-1
7.181707460E-1,-6.172551155E0,-9.675268173E0,1.055842996E0
7.201707460E-1,-6.213252544E0,-9.541193008E0,1.340752959E0
7.221711120E-1,-6.268319130E0,-9.392752647E0,1.620874524E0
7.241710780E-1,-6.368875980E0,-9.234735489E0,1.958456993E0
7.261710440E-1,-6.479009151E0,-9.088688850E0,2.291250944E0
7.281710100E-1,-6.632237911E0,-8.930671692E0,2.679111719E0
7.301700100E-1,-6.797437668E0,-8.763077736E0,3.090914488E0
7.321699760E-1,-6.943484306E0,-8.609848976E0,3.464409828E0
7.341699420E-1,-7.070376873E0,-8.447042465E0,3.869029999E0
7.361699420E-1,-7.149385452E0,-8.274660110E0,4.357447147E0
7.381703420E-1,-7.202057838E0,-8.109460831E0,4.824316502E0
7.401703750E-1,-7.245153427E0,-7.922712803E0,5.313032627E0
7.421704080E-1,-7.281066418E0,-7.714416981E0,5.758354187E0
7.441704410E-1,-7.297826290E0,-7.520486832E0,6.143820763E0
7.461704740E-1,-7.278672218E0,-7.312191486E0,6.495768547E0
7.481711070E-1,-7.221211433E0,-7.101501465E0,6.787860870E0
7.501711400E-1,-7.149385452E0,-6.914753914E0,7.017704487E0
7.521711400E-1,-7.032069683E0,-6.739976883E0,7.199663639E0
7.541711060E-1,-6.902782917E0,-6.591536522E0,7.331345081E0
7.561710720E-1,-6.730400085E0,-6.464643955E0,7.369652271E0
7.581710380E-1,-6.498162746E0,-6.371270180E0,7.283460617E0
7.601710040E-1,-6.268319130E0,-6.299443722E0,7.154173851E0
7.621709700E-1,-5.995380402E0,-6.253953934E0,6.953061104E0
7.641709360E-1,-5.688922405E0,-6.227617741E0,6.713640690E0
7.661709020E-1,-5.399224281E0,-6.215646744E0,6.476614952E0
7.681709020E-1,-5.073612690E0,-6.249165535E0,6.129455566E0
7.701709350E-1,-4.740519524E0,-6.325780392E0,5.676951408E0
7.721718680E-1,-4.462791920E0,-6.402394772E0,5.265148640E0
7.741719010E-1,-4.206612587E0,-6.510133743E0,4.850652695E0
7.761719340E-1,-3.964797974E0,-6.622661114E0,4.491522312E0
7.781715340E-1,-3.746925592E0,-6.768707275E0,4.153939724E0
7.801715670E-1,-3.548206806E0,-6.960243702E0,3.761290789E0
7.821712000E-1,-3.392583847E0,-7.144597054E0,3.378218651E0
7.841717660E-1,-3.292027235E0,-7.350498676E0,2.930502892E0
7.861717660E-1,-3.268085241E0,-7.575553417E0,2.401384354E0
7.881717660E-1,-3.289633036E0,-7.783848763E0,1.896207690E0
7.901717660E-1,-3.397372246E0,-8.001721382E0,1.347935557E0
7.921717660E-1,-3.581725836E0,-8.229170799E0,8.092401624E-1
7.941717660E-1,-3.775655985E0,-8.442254066E0,3.375824392E-1
7.961717660E-1,-4.010287762E0,-8.662521362E0,-1.101332754E-1
7.981717660E-1,-4.261679173E0,-8.885181427E0,-5.339069963E-1
8.001717320E-1,-4.489128113E0,-9.091083527E0,-9.074024558E-1
8.021716980E-1,-4.716577530E0,-9.308955193E0,-1.266532660E0
8.041716640E-1,-4.913201332E0,-9.512462616E0,-1.582567334E0
8.061716300E-1,-5.087977886E0,-9.735123634E0,-1.884236693E0
8.081709960E-1,-5.238812447E0,-9.962572098E0,-2.152387381E0
8.101709620E-1,-5.344157696E0,-1.017326260E1,-2.375048161E0
8.121709280E-1,-5.408801079E0,-1.040549946E1,-2.537853718E0
8.141709280E-1,-5.413589478E0,-1.064492035E1,-2.621650934E0
8.161709280E-1,-5.384859085E0,-1.085082150E1,-2.686294317E0
8.181713280E-1,-5.298667431E0,-1.102081013E1,-2.760514498E0
8.201713610E-1,-5.169380665E0,-1.114530849E1,-2.839523315E0
8.221713940E-1,-5.035305500E0,-1.123149967E1,-2.918531895E0
8.241714270E-1,-4.879383087E0,-1.126501846E1,-3.031059265E0
8.261714600E-1,-4.714183331E0,-1.125544167E1,-3.220201254E0
8.281714930E-1,-4.572925091E0,-1.122431660E1,-3.445256233E0
8.301705930E-1,-4.472368717E0,-1.115249062E1,-3.773261786E0
8.321705590E-1,-4.412513733E0,-1.107108784E1,-4.089296341E0
8.341708250E-1,-4.414907932E0,-1.096334839E1,-4.402936935E0
8.361707910E-1,-4.467580318E0,-1.084124470E1,-4.671087742E0
8.381711910E-1,-4.539406300E0,-1.072871685E1,-4.886565685E0
8.401711570E-1,-4.666299343E0,-1.062097836E1,-5.047276497E0
8.421711230E-1,-4.855441093E0,-1.052521038E1,-5.147832870E0
8.441705560E-1,-5.052064896E0,-1.044141293E1,-5.205293655E0
8.461705560E-1,-5.298667431E0,-1.035761547E1,-5.183745861E0
8.481705890E-1,-5.590760231E0,-1.026663589E1,-5.073612690E0
8.501706220E-1,-5.866093636E0,-1.018283939E1,-4.932354927E0
8.521706550E-1,-6.165368557E0,-1.009664822E1,-4.692635536E0
8.572244230E-1,-6.479009151E0,-1.002242756E1,-4.362235546E0
8.592244560E-1,-6.763918877E0,-9.952995300E0,-4.027047157E0
8.612244890E-1,-7.048829079E0,-9.893140793E0,-3.620033026E0
8.632245220E-1,-7.307403088E0,-9.847650528E0,-3.222595453E0
8.652245550E-1,-7.568370819E0,-9.814131737E0,-2.760514498E0
8.672245550E-1,-7.829339027E0,-9.783007622E0,-2.255337954E0
8.692242210E-1,-8.066365242E0,-9.756670952E0,-1.788468719E0
8.712242210E-1,-8.315361977E0,-9.723152161E0,-1.297657371E0
8.732235210E-1,-8.573935509E0,-9.677662849E0,-7.996633649E-1
8.752235210E-1,-8.810961723E0,-9.629778862E0,-3.543418646E-1
8.772228540E-1,-9.055170059E0,-9.555558205E0,8.140286058E-2
8.792228540E-1,-9.294589996E0,-9.452607155E0,5.003881454E-1
8.812224540E-1,-9.500492096E0,-9.347262383E0,8.643068075E-1
8.832217540E-1,-9.687239647E0,-9.213187218E0,1.201889277E0
8.852217200E-1,-9.850045204E0,-9.081506729E0,1.498770237E0
8.872216860E-1,-9.984120369E0,-8.937853813E0,1.742978811E0
8.892209860E-1,-1.009904194E1,-8.794201851E0,1.939303398E0
8.912200520E-1,-1.019241619E1,-8.669703484E0,2.094926596E0
8.932202180E-1,-1.026903057E1,-8.559570312E0,2.205059767E0
8.952202180E-1,-1.034085655E1,-8.470984459E0,2.267308950E0
8.972195180E-1,-1.040310574E1,-8.399158478E0,2.298433542E0
8.992195510E-1,-1.046535492E1,-8.341697693E0,2.281674147E0
9.012189170E-1,-1.052999878E1,-8.293813705E0,2.217030764E0
9.032182830E-1,-1.058985329E1,-8.253112793E0,2.142810583E0
9.052180830E-1,-1.065210247E1,-8.219594002E0,2.027888775E0
9.072174490E-1,-1.070477486E1,-8.193257332E0,1.908178806E0
9.092174820E-1,-1.074547672E1,-8.174103737E0,1.754949808E0
9.112170820E-1,-1.077181244E1,-8.166921616E0,1.577778935E0
9.132165150E-1,-1.076941872E1,-8.169315338E0,1.376665950E0
9.152158150E-1,-1.075265884E1,-8.176498413E0,1.187524080E0
9.172157810E-1,-1.071195793E1,-8.183680534E0,9.911994934E-1
9.192150810E-1,-1.066646767E1,-8.190863609E0,8.140285611E-1
9.212150470E-1,-1.061379528E1,-8.202834129E0,6.368576288E-1
9.232146130E-1,-1.054915237E1,-8.224382401E0,4.644751251E-1
9.252136790E-1,-1.048450851E1,-8.248324394E0,3.184288144E-1
9.272127790E-1,-1.041028786E1,-8.279448509E0,1.891419291E-1
9.292122450E-1,-1.032649136E1,-8.312967300E0,7.422025502E-2
9.312113780E-1,-1.024987698E1,-8.356062889E0,-1.915361360E-2
9.332121780E-1,-1.016129112E1,-8.396764755E0,-9.337386489E-2
9.352122110E-1,-1.007031155E1,-8.425495148E0,-1.484405100E-1
9.372129110E-1,-9.988908768E0,-8.444648743E0,-1.867477298E-1
9.392122770E-1,-9.909899712E0,-8.451830864E0,-1.963245422E-1
9.412123100E-1,-9.845256805E0,-8.447042465E0,-1.891419291E-1
9.432123430E-1,-9.790189743E0,-8.418312073E0,-1.460463107E-1
9.452123430E-1,-9.756670952E0,-8.370428085E0,-6.943184882E-2
9.472122430E-1,-9.735123634E0,-8.315361977E0,1.675941236E-2
9.492129090E-1,-9.742305756E0,-8.245929718E0,1.436520964E-1
9.512138090E-1,-9.775824547E0,-8.162133217E0,3.064578176E-1
9.532141090E-1,-9.830891609E0,-8.063970566E0,5.051765442E-1
9.552141090E-1,-9.890746117E0,-7.975385189E0,6.991068721E-1
9.572145090E-1,-9.952995300E0,-7.884405613E0,9.265560508E-1
9.592144750E-1,-1.000566864E1,-7.805397034E0,1.146822572E0
9.612151080E-1,-1.003679276E1,-7.726387978E0,1.398213744E0
9.632157410E-1,-1.004158115E1,-7.656956196E0,1.668758631E0
9.652159410E-1,-1.002721596E1,-7.589918613E0,1.915361404E0
9.672165740E-1,-9.979331970E0,-7.525275230E0,2.166752577E0
9.692165400E-1,-9.924264908E0,-7.465420246E0,2.387019157E0
9.712169060E-1,-9.838073730E0,-7.403171062E0,2.597708941E0
9.732174390E-1,-9.718363762E0,-7.340921879E0,2.796427488E0
9.752181050E-1,-9.591471672E0,-7.285854816E0,2.966415882E0
9.772181380E-1,-9.414299965E0,-7.230788231E0,3.119644880E0
9.792188380E-1,-9.165303230E0,-7.187692642E0,3.253720045E0
9.812188710E-1,-8.901941299E0,-7.154173851E0,3.361459255E0
9.832193040E-1,-8.545205116E0,-7.132626057E0,3.447650433E0
9.852202370E-1,-7.989750385E0,-7.137414455E0,3.493140221E0
9.872215030E-1,-7.283460617E0,-7.175721645E0,3.495534420E0
9.892224030E-1,-5.890035629E0,-7.360075474E0,3.378218651E0
9.912233030E-1,-3.059789658E0,-7.654561996E0,3.177105665E0
9.932232030E-1,7.685387731E-1,-8.547599792E0,2.626439333E0
9.952231690E-1,8.696040154E0,-1.074787045E1,1.508347034E0
9.972231350E-1,1.739686775E1,-1.340064621E1,1.628057212E-1
9.992240350E-1,2.456061935E1,-1.591725159E1,-1.532289028E0
1.001224001E0,2.495326805E1,-1.580472374E1,-2.638410330E0
1.003224634E0,2.253243065E1,-1.451155567E1,-3.284844637E0
1.005224634E0,1.709519958E1,-1.194975948E1,-3.399766445E0
1.007224767E0,1.145415974E1,-9.459790230E0,-3.378218651E0
1.009224800E0,6.821380138E0,-7.484573841E0,-3.394978046E0
1.011223933E0,3.447650433E0,-6.146214962E0,-3.533841610E0
1.013224366E0,1.417367458E0,-5.439925671E0,-3.756502390E0
1.015224399E0,1.867477298E-1,-5.061641693E0,-3.945644379E0
1.017224432E0,-1.221042871E-1,-5.119102478E0,-4.003105164E0
1.019224465E0,-1.221042871E-1,-5.329792023E0,-3.986345768E0
1.021224498E0,1.364694983E-1,-5.739200592E0,-3.869029999E0
1.023224498E0,3.016694188E-1,-6.162974358E0,-3.660734415E0
1.025224498E0,3.519476354E-1,-6.502951145E0,-3.435679436E0
1.027224498E0,1.723825186E-1,-6.701669693E0,-3.138798475E0
1.029224498E0,-2.082955539E-1,-6.785466671E0,-2.738966703E0
1.031224498E0,-6.081272364E-1,-6.816591740E0,-2.322375536E0
1.033224498E0,-1.060631394E0,-6.783072472E0,-1.814804912E0
1.035224498E0,-1.515529633E0,-6.711246490E0,-1.314416766E0
1.037224464E0,-1.920149803E0,-6.637026310E0,-9.050082564E-1
1.039223764E0,-2.348711967E0,-6.546046734E0,-5.698199868E-1
1.041223730E0,-2.817975283E0,-6.428730965E0,-3.256114423E-1
1.043223696E0,-3.265691042E0,-6.306626320E0,-1.412578970E-1
1.045223662E0,-3.766079187E0,-6.143820763E0,-4.788403399E-3
1.047223295E0,-4.240131378E0,-5.978621006E0,9.576806426E-2
1.049222361E0,-4.752490520E0,-5.777507782E0,1.316810995E-1
1.051221927E0,-5.277119637E0,-5.569212437E0,9.337386489E-2
1.053221060E0,-5.739200592E0,-5.387253284E0,2.394201607E-2
1.055220193E0,-6.146214962E0,-5.243600845E0,-1.484405100E-1
1.057219326E0,-6.481403351E0,-5.157409668E0,-4.141969085E-1
1.059218192E0,-6.739976883E0,-5.111919880E0,-7.015010715E-1
1.061217325E0,-6.917148113E0,-5.147832870E0,-1.031900883E0
1.063216458E0,-7.063194275E0,-5.214870453E0,-1.307234168E0
1.065215591E0,-7.218817234E0,-5.325003624E0,-1.460463047E0
1.067215591E0,-7.494150639E0,-5.442319870E0,-1.438915253E0
1.069214924E0,-7.817368031E0,-5.533299446E0,-1.331176162E0
1.071215790E0,-8.317755699E0,-5.576395035E0,-1.120486379E0
1.073215756E0,-8.873210907E0,-5.619490623E0,-1.043871999E0
1.075215322E0,-9.332897186E0,-5.686528206E0,-1.094150186E0
1.077214888E0,-9.589076996E0,-5.863699436E0,-1.381454349E0
1.079213954E0,-9.457395554E0,-6.220435143E0,-1.881842494E0
1.081213020E0,-9.103054047E0,-6.646603107E0,-2.422932148E0
1.083212120E0,-8.317755699E0,-7.254730225E0,-3.009511471E0
1.085212120E0,-7.314585686E0,-7.939472198E0,-3.440467834E0
1.087212120E0,-6.347328186E0,-8.566753387E0,-3.780444384E0
1.089212120E0,-5.406406879E0,-9.158121109E0,-4.024652958E0
1.091211320E0,-4.704606533E0,-9.636960983E0,-4.213795185E0
1.093210420E0,-4.182670593E0,-9.979331970E0,-4.419696331E0
1.095209520E0,-3.842693806E0,-1.016607952E1,-4.728548527E0
1.097208620E0,-3.605667830E0,-1.026903057E1,-5.056853294E0
1.099208386E0,-3.442862034E0,-1.027142429E1,-5.516540051E0
1.101207519E0,-3.303998232E0,-1.021875191E1,-6.067206383E0
1.103207552E0,-3.184288263E0,-1.015410900E1,-6.593930721E0
1.105206685E0,-3.095702887E0,-1.007749462E1,-7.132626057E0
1.107205851E0,-3.033453465E0,-1.001763916E1,-7.668927193E0
1.109205884E0,-2.992752075E0,-9.981725693E0,-8.140584946E0
1.111205417E0,-3.023876667E0,-9.972148895E0,-8.492532730E0
1.113205417E0,-3.186682463E0,-9.976937294E0,-8.494926453E0
1.115205917E0,-3.354276657E0,-9.993697166E0,-8.332120895E0
1.117206117E0,-3.483563423E0,-1.000806236E1,-8.154950142E0
1.119206983E0,-3.641580820E0,-9.993697166E0,-7.824550629E0
1.121207183E0,-3.821146011E0,-9.960178375E0,-7.415142059E0
1.123208049E0,-4.062960148E0,-9.883563995E0,-6.771101475E0
1.125208915E0,-4.326322556E0,-9.761459351E0,-5.992986202E0
1.127208881E0,-4.548983097E0,-9.627384186E0,-5.296273232E0
1.129209514E0,-4.752490520E0,-9.431059837E0,-4.639962673E0
1.131209514E0,-4.941931725E0,-9.227552414E0,-4.079719543E0
1.133209547E0,-5.171774864E0,-8.978555679E0,-3.552995205E0
1.135209980E0,-5.485415459E0,-8.703222275E0,-3.050212860E0
1.137210413E0,-5.815814972E0,-8.449437141E0,-2.600103140E0
1.139211346E0,-6.244377136E0,-8.205228806E0,-2.169146776E0
1.141212279E0,-6.747159481E0,-7.972990990E0,-1.747767210E0
1.143213212E0,-7.223605633E0,-7.762300968E0,-1.376665950E0
1.145213245E0,-7.723993778E0,-7.530063629E0,-1.039083481E0
1.147213278E0,-8.200440407E0,-7.281066418E0,-7.924807668E-1
1.149213278E0,-8.597877502E0,-7.044040680E0,-6.129156351E-1
1.151214078E0,-8.913911819E0,-6.785466671E0,-5.363011956E-1
1.153214978E0,-9.110237122E0,-6.517316341E0,-5.482721925E-1
1.155215878E0,-9.244312286E0,-6.249165535E0,-5.674257874E-1
1.157216778E0,-9.344868660E0,-6.019322395E0,-5.578489900E-1
1.159217678E0,-9.409511566E0,-5.832574844E0,-5.099649429E-1
1.161218711E0,-9.387964249E0,-5.693710804E0,-3.615244627E-1
1.163218677E0,-9.285013199E0,-5.617096424E0,-1.364694983E-1
1.165219543E0,-9.134179115E0,-5.585971832E0,1.580173075E-1
1.167220376E0,-9.016862869E0,-5.571606636E0,4.692635238E-1
1.169221242E0,-9.004891396E0,-5.578789234E0,8.595184088E-1
1.171222108E0,-9.062353134E0,-5.581183434E0,1.242590666E0
1.173222974E0,-9.301773071E0,-5.528511047E0,1.721431017E0
1.175223340E0,-9.783007622E0,-5.358522892E0,2.138022184E0
1.177224006E0,-1.029536629E1,-5.169380665E0,2.391807556E0
1.179224039E0,-1.086039829E1,-4.929960728E0,2.343923569E0
1.181224739E0,-1.132966137E1,-4.711789131E0,2.145204782E0
1.183224772E0,-1.162654305E1,-4.558559895E0,1.666364431E0
1.185224805E0,-1.177019501E1,-4.491522312E0,1.063025594E0
1.187224838E0,-1.188990498E1,-4.460397720E0,5.147533417E-1
1.189224871E0,-1.200243282E1,-4.496310711E0,9.576806799E-3
1.191224904E0,-1.205749893E1,-4.604049683E0,-4.261679053E-1
1.193224904E0,-1.205989361E1,-4.764461517E0,-8.020575643E-1
1.195225070E0,-1.203355694E1,-4.922778130E0,-1.110909581E0
1.197225036E0,-1.191863537E1,-5.109525681E0,-1.369483352E0
1.199225002E0,-1.173667622E1,-5.291484833E0,-1.577778935E0
1.201224968E0,-1.137275696E1,-5.511751652E0,-1.800439715E0
1.203224934E0,-1.097771454E1,-5.715258598E0,-1.900996208E0
1.205224900E0,-1.060182476E1,-5.921160221E0,-1.771709204E0
1.207224866E0,-1.029776096E1,-6.081571579E0,-1.534683347E0
1.209224866E0,-1.008946514E1,-6.194098949E0,-1.206677675E0
1.211224899E0,-1.007270622E1,-6.222829342E0,-7.254431248E-1
1.213224932E0,-1.013734913E1,-6.201281548E0,-1.819593310E-1
1.215224965E0,-1.027860737E1,-6.141426563E0,2.250549644E-1
1.217224998E0,-1.059943008E1,-6.043264389E0,5.219359994E-1
1.219225031E0,-1.104714584E1,-5.911583424E0,5.195417404E-1
1.221224897E0,-1.141345882E1,-5.822998047E0,3.016694188E-1
1.223224930E0,-1.153316879E1,-5.839757442E0,-4.453215301E-1
1.225224963E0,-1.130571938E1,-5.942708015E0,-1.616086125E0
1.227224963E0,-1.091067600E1,-6.081571579E0,-2.782062292E0
1.229224963E0,-1.038395214E1,-6.282684326E0,-3.933673382E0
1.231224963E0,-9.869198799E0,-6.471826553E0,-4.869806290E0
1.233224963E0,-9.392752647E0,-6.660968304E0,-5.643432617E0
1.235224963E0,-8.798990250E0,-6.833351135E0,-6.368875980E0
1.237224096E0,-8.200440407E0,-6.977003098E0,-7.008127689E0
1.239223396E0,-7.542034626E0,-7.091924667E0,-7.561188221E0
1.241222696E0,-6.945878506E0,-7.185298443E0,-7.956231594E0
1.243222662E0,-6.467038155E0,-7.264307022E0,-8.224382401E0
1.245221962E0,-6.050446987E0,-7.345710278E0,-8.305785179E0
1.247221928E0,-5.688922405E0,-7.419930458E0,-8.226776123E0
1.249221228E0,-5.382464886E0,-7.486968040E0,-8.102277756E0
1.251220528E0,-5.090372086E0,-7.575553417E0,-7.901165009E0
1.253220494E0,-4.807557106E0,-7.702445984E0,-7.649773598E0
1.255220294E0,-4.517858505E0,-7.836521626E0,-7.345710278E0
1.257220327E0,-4.259284973E0,-7.949048996E0,-7.051223278E0
1.259219693E0,-4.017470360E0,-8.032846451E0,-6.761524677E0
1.261219059E0,-3.727771997E0,-8.083124161E0,-6.440701962E0
1.263219092E0,-3.406949043E0,-8.099884033E0,-6.100725174E0
1.265219125E0,-3.064578056E0,-8.083124161E0,-5.669768810E0
1.267219158E0,-2.729389906E0,-8.063970566E0,-5.190928459E0
1.269219191E0,-2.298433542E0,-8.052000046E0,-4.424484730E0
1.271218857E0,-1.874659896E0,-8.047211647E0,-3.598485231E0
1.273218823E0,-1.379060149E0,-8.059182167E0,-2.516305923E0
1.275218789E0,-8.283938169E-1,-8.087912560E0,-1.278503656E0
1.277218755E0,-3.663128614E-1,-8.107066154E0,-1.604115069E-1
1.279218721E0,1.436521020E-2,-8.066365242E0,8.619126081E-1
1.281218687E0,2.657563984E-1,-7.987356186E0,1.604115129E0
1.283218653E0,4.333505034E-1,-7.817368031E0,2.092532396E0
1.285218619E0,5.123591423E-1,-7.606678009E0,2.221819162E0
1.287218619E0,5.339069963E-1,-7.398382664E0,2.173935175E0
1.289218652E0,4.309563041E-1,-7.115866661E0,1.838746905E0
1.291218685E0,2.130839527E-1,-6.771101475E0,1.328781962E0
1.293218718E0,2.394201700E-3,-6.455067158E0,8.259995580E-1
1.295218751E0,-2.968810201E-1,-6.067206383E0,2.705447972E-1
1.297219651E0,-5.746083856E-1,-5.720046997E0,-2.011129409E-1
1.299220351E0,-8.259995580E-1,-5.413589478E0,-6.057330370E-1
1.301221051E0,-1.101332784E0,-5.133467674E0,-9.552865028E-1
1.303221084E0,-1.393425345E0,-4.884171486E0,-1.228225470E0
1.305221750E0,-1.680729628E0,-4.671087742E0,-1.388636947E0
1.307221750E0,-1.944091797E0,-4.496310711E0,-1.479616642E0
1.309222416E0,-2.233790159E0,-4.347870350E0,-1.462857246E0
1.311223082E0,-2.506729126E0,-4.228160381E0,-1.403002143E0
1.313223082E0,-2.806004286E0,-4.151545525E0,-1.256955862E0
1.315223682E0,-3.143586874E0,-4.055777550E0,-1.051054597E0
1.317223648E0,-3.447650433E0,-3.969586372E0,-8.379706144E-1
1.319224281E0,-3.751713991E0,-3.895366192E0,-6.081272364E-1
1.321224914E0,-4.024652958E0,-3.825934410E0,-3.998316824E-1
1.323224880E0,-4.292803764E0,-3.756502390E0,-2.035071403E-1
1.325224846E0,-4.551377296E0,-3.701435804E0,-3.112462163E-2
1.327224812E0,-4.776432514E0,-3.655946016E0,1.029506698E-1
1.329224778E0,-4.994604111E0,-3.629609823E0,1.723825186E-1
1.331225078E0,-5.202899456E0,-3.615244627E0,1.867477298E-1
1.333225078E0,-5.384859085E0,-3.612850428E0,1.747767180E-1
1.335225111E0,-5.578789234E0,-3.639186621E0,1.340752989E-1
1.337225144E0,-5.775113583E0,-3.687070608E0,8.140286058E-2
1.339225177E0,-5.949890614E0,-3.794809580E0,-2.394201700E-3
1.341225210E0,-6.127061367E0,-3.955221176E0,-9.576806426E-2
1.343225243E0,-6.285078526E0,-4.115632534E0,-1.843535304E-1
1.345225276E0,-6.452672958E0,-4.331110954E0,-2.777273953E-1
1.347225309E0,-6.605901718E0,-4.527435303E0,-3.495534360E-1
1.349225309E0,-6.742371082E0,-4.718971729E0,-3.998316824E-1
1.351225475E0,-6.866869926E0,-4.922778130E0,-4.309563041E-1
1.353225441E0,-6.967426300E0,-5.111919880E0,-4.477157295E-1
1.355225407E0,-7.039252281E0,-5.272331238E0,-4.309563041E-1
1.357225373E0,-7.099107265E0,-5.425560474E0,-4.046200812E-1
1.359225939E0,-7.182904243E0,-5.672163010E0,-4.525041282E-1
1.361225905E0,-7.257124424E0,-5.954679012E0,-5.770025849E-1
1.363225871E0,-7.333739281E0,-6.309020519E0,-7.781155705E-1
1.365225871E0,-7.417536259E0,-6.668150902E0,-9.289502501E-1
1.367225871E0,-7.503727436E0,-6.991368294E0,-1.051054597E0
1.369226537E0,-7.616254807E0,-7.333739281E0,-1.144428372E0
1.371226537E0,-7.733570576E0,-7.656956196E0,-1.225831270E0
1.373226537E0,-7.879617214E0,-7.994538784E0,-1.295263171E0
1.375225937E0,-8.013691902E0,-8.296208382E0,-1.357512355E0
1.377225937E0,-8.116642952E0,-8.528446198E0,-1.412579060E0
1.379225937E0,-8.159738541E0,-8.664915085E0,-1.455674648E0
1.381225037E0,-8.126219749E0,-8.746317863E0,-1.486799240E0
1.383225070E0,-8.071153641E0,-8.751106262E0,-1.508347034E0
1.385225103E0,-7.972990990E0,-8.696040154E0,-1.505952835E0
1.387225636E0,-7.838915825E0,-8.605060577E0,-1.484405041E0
1.389225669E0,-7.712022781E0,-8.504503250E0,-1.446097851E0
1.391225702E0,-7.568370819E0,-8.363245964E0,-1.374271750E0
1.393225735E0,-7.405565262E0,-8.190863609E0,-1.290474772E0
1.395226901E0,-7.240365028E0,-8.011298180E0,-1.218648672E0
1.397226901E0,-7.099107265E0,-7.846098423E0,-1.161187768E0
1.399226867E0,-6.979397297E0,-7.695263386E0,-1.125274777E0
1.401226833E0,-6.869264126E0,-7.558794022E0,-1.113303781E0
1.403226799E0,-6.756736279E0,-7.441478252E0,-1.108515382E0
1.405226765E0,-6.644208908E0,-7.316979885E0,-1.094150186E0
1.407226731E0,-6.550835133E0,-7.190086842E0,-1.072602391E0
1.409226697E0,-6.474220753E0,-7.034463882E0,-1.041477680E0
1.411226497E0,-6.411971569E0,-6.883629322E0,-1.010353088E0
1.413226497E0,-6.356904984E0,-6.696881294E0,-9.696516991E-1
1.415225630E0,-6.287472725E0,-6.488585949E0,-8.690952063E-1
1.417225663E0,-6.232406139E0,-6.323386192E0,-7.876923680E-1
1.419225096E0,-6.177339554E0,-6.155791759E0,-6.871358752E-1
1.421225129E0,-6.131849766E0,-6.002563000E0,-5.937620401E-1
1.423225162E0,-6.083965778E0,-5.832574844E0,-4.908113480E-1
1.425225195E0,-6.021716595E0,-5.645826817E0,-3.806780577E-1
1.427225161E0,-5.961861610E0,-5.478232861E0,-2.801215947E-1
1.429224494E0,-5.913977623E0,-5.327397823E0,-1.867477298E-1
1.431224494E0,-5.861305237E0,-5.186140060E0,-7.900865376E-2
1.433224494E0,-5.811026573E0,-5.064035892E0,2.633621916E-2
1.435224494E0,-5.734412193E0,-4.958691120E0,1.484405100E-1
1.437224294E0,-5.669768810E0,-4.869806290E0,2.561795712E-1
1.439223627E0,-5.617096424E0,-4.797980309E0,3.519476354E-1
1.441224527E0,-5.571606636E0,-4.754884720E0,4.644751251E-1
1.443224493E0,-5.530905247E0,-4.730942726E0,5.793967843E-1
1.445224459E0,-5.497386456E0,-4.805162907E0,6.823474765E-1
1.447223925E0,-5.456685066E0,-4.893748283E0,7.637503147E-1
1.449223825E0,-5.392041683E0,-4.987421513E0,8.044517636E-1
1.451223791E0,-5.303455830E0,-5.126285076E0,8.092401624E-1
1.453223757E0,-5.243600845E0,-5.336975098E0,8.259995580E-1
1.455222657E0,-5.212476254E0,-5.609913826E0,8.499416113E-1
1.457222623E0,-5.190928459E0,-5.882853031E0,8.786720037E-1
1.459222623E0,-5.181351662E0,-6.208464146E0,9.074024558E-1
1.461222656E0,-5.178957462E0,-6.522104740E0,9.241618514E-1
1.463222689E0,-5.178957462E0,-6.871658325E0,9.265560508E-1
1.465222722E0,-5.198111057E0,-7.249941826E0,9.289502501E-1
1.467222355E0,-5.224447250E0,-7.599495411E0,9.361328483E-1
1.469222388E0,-5.279513836E0,-7.961019993E0,9.481038451E-1
1.471222421E0,-5.344157696E0,-8.284236908E0,9.576807022E-1
1.473222454E0,-5.427954674E0,-8.600272179E0,9.385270476E-1
1.475223354E0,-5.535693645E0,-8.894758224E0,9.002198577E-1
1.477223320E0,-5.648221016E0,-9.143755913E0,8.595184088E-1
1.479223286E0,-5.811026573E0,-9.366415977E0,8.259995580E-1
1.481223252E0,-6.031293392E0,-9.548376083E0,7.996633649E-1
1.483223218E0,-6.246771336E0,-9.687239647E0,7.757213712E-1
1.485223184E0,-6.505345345E0,-9.766247749E0,7.374141216E-1
1.487223217E0,-6.725611687E0,-9.816526413E0,6.871358752E-1
1.489223217E0,-6.909965515E0,-9.840468407E0,6.248866320E-1
1.491223217E0,-7.067982674E0,-9.816526413E0,5.339069963E-1
1.493223250E0,-7.178115845E0,-9.747094154E0,4.237737060E-1
1.495223283E0,-7.307403088E0,-9.703998566E0,3.112462163E-1
1.497223516E0,-7.446266651E0,-9.694421768E0,2.082955539E-1
1.499224216E0,-7.609072208E0,-9.723152161E0,1.125274822E-1
1.501224249E0,-7.872434616E0,-9.830891609E0,1.915361360E-2
1.503224282E0,-8.233959198E0,-9.981725693E0,-6.943184882E-2
1.505224315E0,-8.664915085E0,-1.012537861E1,-1.651999205E-1
1.507224315E0,-9.071929932E0,-1.023311710E1,-2.585737705E-1
1.509224381E0,-9.469367027E0,-1.028578949E1,-3.543418646E-1
1.511224381E0,-9.802161217E0,-1.030494308E1,-4.285621047E-1
1.513224381E0,-1.003439903E1,-1.023790550E1,-4.716577232E-1
1.515224281E0,-1.012059021E1,-1.007270622E1,-4.812345505E-1
1.517224281E0,-1.012777233E1,-9.883563995E0,-4.812345505E-1
1.519224281E0,-1.000088024E1,-9.624990463E0,-4.764461517E-1
1.521224247E0,-9.797372818E0,-9.385569572E0,-4.788403511E-1
1.523224213E0,-9.598653793E0,-9.177274704E0,-4.836287498E-1
1.525224179E0,-9.390357971E0,-9.019257545E0,-4.860229492E-1
1.527224979E0,-9.201216698E0,-8.909123421E0,-4.860229492E-1
1.529224945E0,-8.973767281E0,-8.868422508E0,-4.764461517E-1
1.531224911E0,-8.691251755E0,-8.866027832E0,-4.405331016E-1
1.533224877E0,-8.411129951E0,-8.875604630E0,-3.902548850E-1
1.535224843E0,-8.052000046E0,-8.928277016E0,-2.992752194E-1
1.537224843E0,-7.743147373E0,-8.988132477E0,-2.154781520E-1
1.539224876E0,-7.486968040E0,-9.045593262E0,-1.340752989E-1
1.541224909E0,-7.271489620E0,-9.095871925E0,-3.830722719E-2
1.543224942E0,-7.089530468E0,-9.141361237E0,7.422025502E-2
1.545224975E0,-6.929119110E0,-9.179668427E0,2.035071403E-1
1.547225008E0,-6.778284073E0,-9.210793495E0,3.232172430E-1
1.549225041E0,-6.603507519E0,-9.237129211E0,4.357447028E-1
1.551225074E0,-6.428730965E0,-9.251494408E0,5.674257874E-1
1.553225074E0,-6.206069946E0,-9.241917610E0,7.278373241E-1
1.555225040E0,-5.930737019E0,-9.217975616E0,8.978256583E-1
1.557225006E0,-5.657797813E0,-9.186851501E0,1.051054597E0
1.559224972E0,-5.325003624E0,-9.148544312E0,1.206677675E0
1.561224938E0,-4.987421513E0,-9.110237122E0,1.343147159E0
1.563224904E0,-4.572925091E0,-9.062353134E0,1.472434044E0
1.565224870E0,-4.115632534E0,-9.014469147E0,1.580173135E0
1.567224870E0,-3.694253206E0,-8.964190483E0,1.671152830E0
1.569224870E0,-3.260902643E0,-8.909123421E0,1.759738207E0
1.571224903E0,-2.863465309E0,-8.846874237E0,1.838746905E0
1.573224936E0,-2.537853718E0,-8.787019730E0,1.905784607E0
1.575224969E0,-2.281674147E0,-8.717587471E0,1.953668594E0
1.577225002E0,-2.080561161E0,-8.652944565E0,1.987187386E0
1.579225035E0,-1.939303398E0,-8.593089104E0,2.003946781E0
1.581225068E0,-1.836352706E0,-8.542811394E0,1.987187386E0
1.583225101E0,-1.764526606E0,-8.499714851E0,1.958456993E0
1.585225101E0,-1.711854219E0,-8.447042465E0,1.881842494E0
1.587224667E0,-1.675941229E0,-8.396764755E0,1.800439715E0
1.589224667E0,-1.651999116E0,-8.348880768E0,1.716642618E0
1.591224667E0,-1.647210717E0,-8.300996780E0,1.611297727E0
1.593224667E0,-1.649604917E0,-8.245929718E0,1.489193439E0
1.595224667E0,-1.647210717E0,-8.169315338E0,1.347935557E0
1.597224667E0,-1.642422318E0,-8.090307236E0,1.216254473E0
1.599224233E0,-1.632845521E0,-7.989750385E0,1.074996591E0
1.601224199E0,-1.618480325E0,-7.889194012E0,9.409212470E-1
1.603224165E0,-1.601720929E0,-7.767089367E0,7.948749661E-1
1.605224131E0,-1.575384736E0,-7.628225803E0,6.512228847E-1
1.607224097E0,-1.549048543E0,-7.491756439E0,5.243301988E-1
1.609224063E0,-1.515529633E0,-7.326556683E0,3.974374831E-1
1.611224029E0,-1.484405041E0,-7.173327446E0,2.849099934E-1
1.613223995E0,-1.448492050E0,-7.005733490E0,1.723825186E-1
1.615223995E0,-1.412579060E0,-6.823774338E0,7.182604820E-2
1.617224028E0,-1.381454349E0,-6.651391506E0,-1.675941236E-2
1.619224061E0,-1.350329757E0,-6.462249756E0,-1.101332754E-1
1.621224094E0,-1.323993564E0,-6.258742332E0,-1.939303428E-1
1.623224127E0,-1.297657371E0,-6.071994781E0,-2.681505978E-1
1.625224160E0,-1.271321058E0,-5.873276234E0,-3.471592367E-1
1.627224193E0,-1.244984865E0,-5.688922405E0,-4.261679053E-1
1.629224226E0,-1.225831270E0,-5.487809658E0,-4.979939461E-1
1.631224226E0,-1.206677675E0,-5.272331238E0,-5.746083856E-1
1.633224192E0,-1.185129881E0,-5.061641693E0,-6.512228847E-1
1.635224158E0,-1.161187768E0,-4.860229492E0,-7.326257229E-1
1.637224124E0,-1.132457376E0,-4.685452938E0,-8.068459630E-1
1.639224090E0,-1.101332784E0,-4.529829502E0,-8.762778044E-1
1.641223790E0,-1.067813993E0,-4.374206543E0,-9.409212470E-1
1.643223623E0,-1.027112484E0,-4.218583584E0,-1.005564690E0
1.645223623E0,-9.840168953E-1,-4.058171749E0,-1.058237195E0
1.647223623E0,-9.433154464E-1,-3.912125587E0,-1.094150186E0
1.649223656E0,-9.002198577E-1,-3.761290789E0,-1.098938584E0
1.651223689E0,-8.667010069E-1,-3.620033026E0,-1.091755986E0
1.653223722E0,-8.451532125E-1,-3.462015629E0,-1.053448796E0
1.655223755E0,-8.331822157E-1,-3.284844637E0,-1.003170490E0
1.657223455E0,-8.259995580E-1,-3.126827478E0,-9.648633003E-1
1.659223888E0,-8.283938169E-1,-2.961627483E0,-9.361328483E-1
1.661223921E0,-8.331822157E-1,-2.813186884E0,-9.145850539E-1
1.663223154E0,-8.427590132E-1,-2.664746523E0,-9.097966552E-1
1.665223154E0,-8.595184088E-1,-2.525882721E0,-9.097966552E-1
1.667223154E0,-8.810662031E-1,-2.415749550E0,-9.265560508E-1
1.669223154E0,-9.121908545E-1,-2.324769735E0,-9.433154464E-1
1.671223154E0,-9.385270476E-1,-2.252943754E0,-9.481038451E-1
1.673223154E0,-9.600749016E-1,-2.197877169E0,-9.504981041E-1
1.675222687E0,-9.672574997E-1,-2.164358377E0,-9.600749016E-1
1.677222653E0,-9.696516991E-1,-2.138022184E0,-9.672574997E-1
1.679222619E0,-9.696516991E-1,-2.116474390E0,-9.720458984E-1
1.681222585E0,-9.720458984E-1,-2.106897593E0,-9.792284966E-1
1.683222551E0,-9.768342972E-1,-2.104503393E0,-9.911994934E-1
1.685222517E0,-9.768342972E-1,-2.116474390E0,-1.010353088E0
1.687222483E0,-9.768342972E-1,-2.128445387E0,-1.029506683E0
1.689222449E0,-9.792284966E-1,-2.140416384E0,-1.046266198E0
1.691222415E0,-9.768342972E-1,-2.157175779E0,-1.036689281E0
1.693222415E0,-9.696516991E-1,-2.166752577E0,-1.005564690E0
1.695222448E0,-9.672574997E-1,-2.176329374E0,-1.000776291E0
1.697222481E0,-9.672574997E-1,-2.183511972E0,-1.010353088E0
1.699222514E0,-9.840168953E-1,-2.202665567E0,-1.063025594E0
1.701222814E0,-9.959878922E-1,-2.221819162E0,-1.122880578E0
1.703222980E0,-9.911994934E-1,-2.231395960E0,-1.163581967E0
1.705223013E0,-9.624691010E-1,-2.233790159E0,-1.187524080E0
1.707223046E0,-9.337386489E-1,-2.226607561E0,-1.206677675E0
1.709223046E0,-9.026140571E-1,-2.190694571E0,-1.218648672E0
1.711223012E0,-8.690952063E-1,-2.145204782E0,-1.213860273E0
1.713222978E0,-8.236053586E-1,-2.094926596E0,-1.201889277E0
1.715222944E0,-7.685387731E-1,-2.042253971E0,-1.182735682E0
1.717223244E0,-7.230489254E-1,-1.994369984E0,-1.151610970E0
1.719223210E0,-6.847416759E-1,-1.953668594E0,-1.086967587E0
1.721223176E0,-6.655880809E-1,-1.910573006E0,-9.720458984E-1
1.723223942E0,-6.488286853E-1,-1.867477298E0,-8.547300100E-1
1.725223942E0,-6.344634295E-1,-1.829170108E0,-6.991068721E-1
1.727223975E0,-6.296750307E-1,-1.814804912E0,-5.746083856E-1
1.729224008E0,-6.296750307E-1,-1.821987510E0,-4.764461517E-1
1.731224041E0,-6.440402865E-1,-1.867477298E0,-4.165911078E-1
1.733224074E0,-6.991068721E-1,-1.994369984E0,-4.141969085E-1
1.735224574E0,-7.996633649E-1,-2.336740971E0,-3.327940404E-1
1.737224607E0,-9.002198577E-1,-2.738966703E0,-2.729389966E-1
1.739224640E0,-9.959878922E-1,-3.208230257E0,-1.939303428E-1
1.741224673E0,-9.720458984E-1,-4.067748547E0,-5.746084079E-2
1.743224673E0,-7.422025204E-1,-5.147832870E0,1.556231081E-1
1.745224673E0,-4.070142806E-1,-6.328174591E0,5.626373887E-1
1.747224673E0,-9.097966552E-2,-7.407959461E0,1.022324085E0
1.749224673E0,2.106897533E-1,-8.391976357E0,1.587355733E0
1.751224673E0,4.261679053E-1,-9.165303230E0,2.061407566E0
1.753224673E0,5.793967843E-1,-9.754277229E0,2.470816135E0
1.755224639E0,6.703764796E-1,-1.049169159E1,2.813186884E0
1.757224605E0,6.296750307E-1,-1.146613121E1,3.090914488E0
1.759224571E0,2.489969730E-1,-1.354669285E1,3.313575268E0
1.761224537E0,-3.591302633E-1,-1.623328590E1,3.493140221E0
1.763224503E0,-9.433154464E-1,-2.109351540E1,3.727771997E0
1.765224469E0,-1.508347034E0,-2.738817024E1,3.907337189E0
1.767224435E0,-1.920149803E0,-3.316777420E1,4.031835556E0
1.769224401E0,-2.106897593E0,-3.837546158E1,4.096478939E0
1.771224401E0,-2.015917778E0,-4.255094910E1,4.031835556E0
1.773224434E0,-1.841141105E0,-4.574990082E1,3.909731388E0
1.775224467E0,-1.414973259E0,-4.746654510E1,3.560178041E0
1.777224500E0,-1.003170490E0,-4.848408127E1,3.213018656E0
1.779224533E0,-6.368576288E-1,-4.893418884E1,2.887407303E0
1.781224566E0,-3.711012602E-1,-4.856548309E1,2.557007313E0
1.783224599E0,-2.011129409E-1,-4.749288177E1,2.205059767E0
1.785224632E0,-1.077390760E-1,-4.577863312E1,1.826775908E0
1.787224632E0,-8.619125932E-2,-4.397549820E1,1.477222443E0
1.789224598E0,-1.436520964E-1,-4.211520386E1,1.156399369E0
1.791224564E0,-3.902548850E-1,-3.985507965E1,8.427590132E-1
1.793224530E0,-8.427590132E-1,-3.739144516E1,5.458779931E-1
1.795224496E0,-1.503558636E0,-3.491823578E1,3.303998411E-1
1.797224462E0,-2.181117773E0,-3.273442459E1,1.891419291E-1
1.799224428E0,-2.997540474E0,-3.062752533E1,1.388636976E-1
1.801224394E0,-3.761290789E0,-2.876723099E1,1.029506698E-1
1.803224394E0,-4.525041103E0,-2.692848396E1,5.027823523E-2
1.805224427E0,-5.159803867E0,-2.508494949E1,-4.309562966E-2
1.807224460E0,-5.633855820E0,-2.342307472E1,-1.436520964E-1
1.809224493E0,-5.947496414E0,-2.171361351E1,-2.561795712E-1
1.811224026E0,-6.117484570E0,-1.996345139E1,-3.711012602E-1
1.813224059E0,-6.208464146E0,-1.837849045E1,-4.692635238E-1
1.815224092E0,-6.191704750E0,-1.676958656E1,-5.506663918E-1
1.817224125E0,-6.129455566E0,-1.533067226E1,-6.009446383E-1
1.819224158E0,-5.952284813E0,-1.389863968E1,-6.105214357E-1
1.821224158E0,-5.660192013E0,-1.249803257E1,-6.105214357E-1
1.823224158E0,-5.344157696E0,-1.125544167E1,-6.081272364E-1
1.825224158E0,-4.833893299E0,-9.938630104E0,-6.009446383E-1
1.827224158E0,-4.343081951E0,-8.796596527E0,-5.913678408E-1
1.829224158E0,-3.871424198E0,-7.807791233E0,-5.770025849E-1
1.831223758E0,-3.349488258E0,-6.886023521E0,-5.434837937E-1
1.833223724E0,-2.798821688E0,-6.052841187E0,-5.051765442E-1
1.835223590E0,-2.248155355E0,-5.315426826E0,-4.764461517E-1
1.837223556E0,-1.764526606E0,-4.704606533E0,-4.572925270E-1
1.839222856E0,-1.333570361E0,-4.201824188E0,-4.429273009E-1
1.841222822E0,-9.002198577E-1,-3.790021181E0,-4.405331016E-1
1.843222788E0,-4.764461517E-1,-3.471592426E0,-4.548983276E-1
1.845222754E0,-7.422025502E-2,-3.251325846E0,-4.884171486E-1
1.847222720E0,2.753331959E-1,-3.098097086E0,-5.339069963E-1
1.849222720E0,6.057330370E-1,-3.038241863E0,-6.129156351E-1
1.851222753E0,8.906430602E-1,-3.026270866E0,-6.991068721E-1
1.853222786E0,1.163581967E0,-3.100491285E0,-7.900865674E-1
1.855222819E0,1.429338455E0,-3.248931646E0,-8.882488012E-1
1.857222852E0,1.661576033E0,-3.418920040E0,-9.792284966E-1
1.859222885E0,1.884236693E0,-3.651157618E0,-1.077390790E0
1.861222918E0,2.102109194E0,-3.938461781E0,-1.180341482E0
1.863222951E0,2.296039343E0,-4.228160381E0,-1.273715258E0
1.865222717E0,2.487575531E0,-4.575319290E0,-1.374271750E0
1.867222683E0,2.669534922E0,-4.908412933E0,-1.470039845E0
1.869222649E0,2.837129116E0,-5.286696434E0,-1.568202138E0
1.871223115E0,3.014299870E0,-5.708076000E0,-1.663970232E0
1.873223081E0,3.186682463E0,-6.105513573E0,-1.762132406E0
1.875223047E0,3.361459255E0,-6.610690117E0,-1.855506301E0
1.877222780E0,3.526659012E0,-7.077559471E0,-1.936909199E0
1.879222746E0,3.689464808E0,-7.510910034E0,-2.008735180E0
1.881222746E0,3.866635799E0,-7.970596790E0,-2.078166962E0
1.883222779E0,4.055777550E0,-8.435071945E0,-2.138022184E0
1.885222812E0,4.261679173E0,-8.887576103E0,-2.185906172E0
1.887222845E0,4.450820923E0,-9.285013199E0,-2.221819162E0
1.889222878E0,4.639962673E0,-9.670479774E0,-2.236184359E0
1.891223311E0,4.807557106E0,-1.000327396E1,-2.240972757E0
1.893223344E0,4.970662117E0,-1.030015469E1,-2.212242365E0
1.895223477E0,5.135861874E0,-1.056112289E1,-2.138022184E0
1.897223510E0,5.277119637E0,-1.077181244E1,-2.047042370E0
1.899224176E0,5.404012680E0,-1.093222427E1,-1.891419291E0
1.901223509E0,5.511751652E0,-1.105432892E1,-1.719036818E0
1.903223509E0,5.609913826E0,-1.113094330E1,-1.482010841E0
1.905222842E0,5.698499203E0,-1.116206741E1,-1.189918280E0
1.907222442E0,5.772719383E0,-1.117164421E1,-9.097966552E-1
1.909221775E0,5.822998047E0,-1.114052010E1,-5.865794420E-1
1.911221975E0,5.858911037E0,-1.107587624E1,-2.322375625E-1
1.913221941E0,5.882853031E0,-1.100644493E1,8.858546615E-2
1.915221907E0,5.885247231E0,-1.092264748E1,4.189853072E-1
1.917221873E0,5.870882034E0,-1.083406162E1,7.422025204E-1
1.919221839E0,5.858911037E0,-1.074787045E1,1.019929886E0
1.921218845E0,5.858911037E0,-1.064731407E1,1.249773264E0
1.923218811E0,5.861305237E0,-1.054675770E1,1.426944256E0
1.925219011E0,5.856516838E0,-1.040071106E1,1.553836942E0
1.927219011E0,5.846940041E0,-1.026184750E1,1.656787634E0
1.929219044E0,5.830180645E0,-1.013016701E1,1.740584612E0
1.931219077E0,5.799055576E0,-9.986514091E0,1.805228114E0
1.933219110E0,5.746383190E0,-9.840468407E0,1.841141105E0
1.935219176E0,5.667374611E0,-9.694421768E0,1.850717902E0
1.937219442E0,5.581183434E0,-9.565135002E0,1.848323703E0
1.939219475E0,5.463867664E0,-9.447818756E0,1.819593310E0
1.941219108E0,5.348946095E0,-9.347262383E0,1.781286120E0
1.943219108E0,5.212476254E0,-9.261071205E0,1.714248419E0
1.945219074E0,5.064035892E0,-9.184456825E0,1.618480325E0
1.947219040E0,4.929960728E0,-9.124602318E0,1.520318031E0
1.949219006E0,4.778826714E0,-9.081506729E0,1.403002143E0
1.951218972E0,4.635174274E0,-9.050381660E0,1.292868972E0
1.953218938E0,4.486733913E0,-9.038411140E0,1.175553083E0
1.955218904E0,4.333505154E0,-9.045593262E0,1.065419793E0
1.957218870E0,4.189853191E0,-9.059958458E0,9.696516991E-1
1.959218870E0,4.036623955E0,-9.088688850E0,8.810662031E-1
1.961219570E0,3.869029999E0,-9.124602318E0,8.068459630E-1
1.963219603E0,3.713406801E0,-9.160514832E0,7.493851185E-1
1.965220303E0,3.536235809E0,-9.196428299E0,7.015010715E-1
1.967220736E0,3.378218651E0,-9.234735489E0,6.655880809E-1
1.969221436E0,3.234566450E0,-9.270648003E0,6.392518282E-1
1.971221236E0,3.083731890E0,-9.306561470E0,6.153098345E-1
1.973221269E0,2.923320293E0,-9.340080261E0,5.961562395E-1
1.975221302E0,2.750937700E0,-9.371204376E0,5.793967843E-1
1.977220902E0,2.592920542E0,-9.395146370E0,5.626373887E-1
1.979220902E0,2.446874142E0,-9.416694641E0,5.482721925E-1
1.981220902E0,2.286462545E0,-9.435848236E0,5.291185975E-1
1.983220902E0,2.126051188E0,-9.450213432E0,5.099649429E-1
1.985220902E0,1.963245392E0,-9.459790230E0,4.932055473E-1
1.987220902E0,1.817199111E0,-9.466972351E0,4.788403511E-1
1.989220868E0,1.666364431E0,-9.471760750E0,4.668693244E-1
1.991220834E0,1.532289028E0,-9.474155426E0,4.572925270E-1
1.993220800E0,1.393425345E0,-9.478943825E0,4.525041282E-1
1.995221233E0,1.252167463E0,-9.478943825E0,4.548983276E-1
1.997221199E0,1.127668977E0,-9.476549149E0,4.596867263E-1
1.999221165E0,1.010353088E0,-9.471760750E0,4.692635238E-1
2.001221531E0,9.074024558E-1,-9.469367027E0,4.812345505E-1
2.003221497E0,8.092401624E-1,-9.466972351E0,4.979939461E-1
2.005221497E0,7.254431248E-1,-9.469367027E0,5.195417404E-1
2.007221530E0,6.584054828E-1,-9.469367027E0,5.434837937E-1
2.009221563E0,6.033388376E-1,-9.469367027E0,5.650315881E-1
2.011221596E0,5.578489900E-1,-9.466972351E0,5.865794420E-1
2.013221629E0,5.267243981E-1,-9.464578629E0,6.081272364E-1
2.015221662E0,5.147533417E-1,-9.466972351E0,6.272808313E-1
2.017221695E0,5.147533417E-1,-9.466972351E0,6.416460276E-1
2.019221728E0,5.243301988E-1,-9.466972351E0,6.512228847E-1
2.021221728E0,5.506663918E-1,-9.462183952E0,6.560112834E-1
2.023221428E0,5.889736414E-1,-9.450213432E0,6.536170840E-1
2.025221394E0,6.392518282E-1,-9.435848236E0,6.464344859E-1
2.027221360E0,6.919242740E-1,-9.419088364E0,6.320692301E-1
2.029221326E0,7.469909191E-1,-9.402329445E0,6.153098345E-1
2.031220892E0,8.092401624E-1,-9.378387451E0,5.865794420E-1
2.033220858E0,8.810662031E-1,-9.349657059E0,5.482721925E-1
2.035220824E0,9.552865028E-1,-9.316138268E0,5.027823448E-1
2.037221224E0,1.022324085E0,-9.280224800E0,4.572925270E-1
2.039220590E0,1.094150186E0,-9.244312286E0,4.046200812E-1
2.041221090E0,1.158793569E0,-9.210793495E0,3.543418646E-1
2.043221123E0,1.228225470E0,-9.174880028E0,2.968810201E-1
2.045221156E0,1.302445769E0,-9.136572838E0,2.370259613E-1
2.047220789E0,1.371877551E0,-9.100660324E0,1.819593310E-1
2.049220155E0,1.443703651E0,-9.067141533E0,1.221042871E-1
2.051220421E0,1.520318031E0,-9.036016464E0,6.464344263E-2
2.053220454E0,1.592144132E0,-9.009679794E0,1.436521020E-2
2.055219420E0,1.666364431E0,-8.988132477E0,-3.351882473E-2
2.057219420E0,1.733402014E0,-8.968978882E0,-7.661445439E-2
2.059218753E0,1.802833915E0,-8.952219009E0,-1.197100878E-1
2.061218753E0,1.879448295E0,-8.933065414E0,-1.628057212E-1
2.063218753E0,1.951274395E0,-8.918700218E0,-2.035071403E-1
2.065218753E0,2.027888775E0,-8.901941299E0,-2.418143749E-1
2.067218719E0,2.097320795E0,-8.887576103E0,-2.729389966E-1
2.069218285E0,2.159569979E0,-8.873210907E0,-2.968810201E-1
2.071217351E0,2.221819162E0,-8.863634109E0,-3.136404157E-1
2.073216651E0,2.276885748E0,-8.854057312E0,-3.232172430E-1
2.075216617E0,2.329558372E0,-8.844480515E0,-3.232172430E-1
2.077216583E0,2.377442360E0,-8.834903717E0,-3.184288144E-1
2.079216549E0,2.422932148E0,-8.825326920E0,-3.016694188E-1
2.081216515E0,2.461239338E0,-8.813355446E0,-2.849099934E-1
2.083216781E0,2.492363930E0,-8.801384926E0,-2.585737705E-1
2.085216814E0,2.518700123E0,-8.791808128E0,-2.274491638E-1
2.087216847E0,2.540247917E0,-8.779836655E0,-1.987187415E-1
2.089216880E0,2.554613113E0,-8.772654533E0,-1.651999205E-1
2.091217313E0,2.564189911E0,-8.763077736E0,-1.364694983E-1
2.093217346E0,2.568978310E0,-8.755894661E0,-1.101332754E-1
2.095217379E0,2.566584110E0,-8.751106262E0,-8.619125932E-2
2.097217412E0,2.561795712E0,-8.743924141E0,-6.703764945E-2
2.099218078E0,2.557007313E0,-8.736741066E0,-5.027823523E-2
2.101217578E0,2.547430515E0,-8.729558945E0,-3.591302410E-2
2.103217544E0,2.535459518E0,-8.724770546E0,-2.154781483E-2
2.105217510E0,2.518700123E0,-8.719982147E0,-7.182605099E-3
2.107217876E0,2.494758129E0,-8.715193748E0,2.394201700E-3
2.109218509E0,2.470816135E0,-8.712799072E0,1.436521020E-2
2.111218242E0,2.444479942E0,-8.708010674E0,3.112462163E-2
2.113218208E0,2.415749550E0,-8.703222275E0,4.309562966E-2
2.115218741E0,2.384624958E0,-8.698433876E0,5.746084079E-2
2.117218774E0,2.355894566E0,-8.696040154E0,6.943184882E-2
2.119219474E0,2.327163935E0,-8.693645477E0,8.140286058E-2
2.121219507E0,2.300827742E0,-8.691251755E0,9.097966552E-2
2.123219540E0,2.279279947E0,-8.686463356E0,1.029506698E-1
2.125219573E0,2.257732153E0,-8.681674957E0,1.197100878E-1
2.127219206E0,2.238578558E0,-8.679280281E0,1.388636976E-1
2.129219639E0,2.214636564E0,-8.681674957E0,1.604115069E-1
2.131220572E0,2.195482969E0,-8.684068680E0,1.819593310E-1
2.133221238E0,2.178723574E0,-8.691251755E0,2.035071403E-1
2.135221238E0,2.164358377E0,-8.703222275E0,2.250549644E-1
2.137221238E0,2.149993181E0,-8.715193748E0,2.442085743E-1
2.139221238E0,2.138022184E0,-8.736741066E0,2.633621991E-1
2.141221238E0,2.128445387E0,-8.758289337E0,2.825157940E-1
2.143221238E0,2.116474390E0,-8.784625053E0,2.992752194E-1
2.145221204E0,2.104503393E0,-8.815750122E0,3.208230138E-1
2.147221170E0,2.092532396E0,-8.844480515E0,3.399766386E-1
2.149221136E0,2.082955360E0,-8.880393028E0,3.543418646E-1
2.151221102E0,2.082955360E0,-8.925883293E0,3.687070608E-1
2.153221068E0,2.082955360E0,-8.968978882E0,3.830722570E-1
2.155221034E0,2.082955360E0,-9.024045944E0,3.974374831E-1
2.157221000E0,2.080561161E0,-9.074323654E0,4.046200812E-1
2.159220966E0,2.075772762E0,-9.129390717E0,4.094084799E-1
2.161220299E0,2.078166962E0,-9.189245224E0,4.141969085E-1
2.163220299E0,2.085349798E0,-9.241917610E0,4.213795066E-1
2.165220332E0,2.104503393E0,-9.299378395E0,4.381389022E-1
2.167220365E0,2.126051188E0,-9.352050781E0,4.548983276E-1
2.169220398E0,2.147598982E0,-9.402329445E0,4.692635238E-1
2.171219764E0,2.171540976E0,-9.455001831E0,4.884171486E-1
2.173219130E0,2.193088770E0,-9.507674217E0,5.099649429E-1
2.175219163E0,2.214636564E0,-9.560346603E0,5.339069963E-1
2.177219163E0,2.231395960E0,-9.605836868E0,5.578489900E-1
2.179219129E0,2.250549555E0,-9.648932457E0,5.770025849E-1
2.181219095E0,2.264914751E0,-9.687239647E0,5.913678408E-1
2.183219061E0,2.281674147E0,-9.720758438E0,6.057330370E-1
2.185219027E0,2.291250944E0,-9.751882553E0,6.200982332E-1
2.187219393E0,2.298433542E0,-9.778219223E0,6.296750307E-1
2.189219359E0,2.305616140E0,-9.802161217E0,6.320692301E-1
2.191219325E0,2.310404539E0,-9.823708534E0,6.272808313E-1
2.193219325E0,2.310404539E0,-9.845256805E0,6.153098345E-1
2.195219325E0,2.308010340E0,-9.864410400E0,5.913678408E-1
2.197219325E0,2.305616140E0,-9.881169319E0,5.650315881E-1
2.199219325E0,2.296039343E0,-9.900322914E0,5.291185975E-1
2.201219325E0,2.279279947E0,-9.919476509E0,4.788403511E-1
2.203219325E0,2.260126352E0,-9.936236382E0,4.285621047E-1
2.205219325E0,2.233790159E0,-9.945813179E0,3.639186621E-1
2.207219325E0,2.212242365E0,-9.948206902E0,2.920926213E-1
2.209219325E0,2.193088770E0,-9.950601578E0,2.274491638E-1
2.211219725E0,2.169146776E0,-9.950601578E0,1.580173075E-1
2.213219758E0,2.147598982E0,-9.945813179E0,8.619125932E-2
2.215219791E0,2.130839586E0,-9.941024780E0,1.436521020E-2
2.217220624E0,2.114080191E0,-9.938630104E0,-5.027823523E-2
2.219220657E0,2.099714994E0,-9.936236382E0,-1.077390760E-1
2.221221357E0,2.094926596E0,-9.929053307E0,-1.580173075E-1
2.223221390E0,2.092532396E0,-9.917082787E0,-2.035071403E-1
2.225221390E0,2.092532396E0,-9.897929192E0,-2.418143749E-1
2.227221356E0,2.097320795E0,-9.881169319E0,-2.705447972E-1
2.229221322E0,2.116474390E0,-9.862015724E0,-2.944868207E-1
2.231221955E0,2.138022184E0,-9.840468407E0,-3.112462163E-1
2.233222588E0,2.166752577E0,-9.811738014E0,-3.184288144E-1
2.235222554E0,2.200271368E0,-9.775824547E0,-3.184288144E-1
2.237222520E0,2.231395960E0,-9.744700432E0,-3.136404157E-1
2.239221853E0,2.252943754E0,-9.713575363E0,-2.992752194E-1
2.241221853E0,2.276885748E0,-9.682451248E0,-2.801215947E-1
2.243221886E0,2.298433542E0,-9.646537781E0,-2.537853718E-1
2.245221919E0,2.322375536E0,-9.605836868E0,-2.154781520E-1
2.247221952E0,2.346317768E0,-9.567529678E0,-1.747767180E-1
2.249221985E0,2.372653961E0,-9.531616211E0,-1.268926859E-1
2.251222018E0,2.401384354E0,-9.495702744E0,-6.703764945E-2
2.253222051E0,2.430114746E0,-9.464578629E0,-7.182605099E-3
2.255222084E0,2.473210335E0,-9.431059837E0,7.900865376E-2
2.257222084E0,2.513911724E0,-9.397541046E0,1.604115069E-1
2.259222084E0,2.549824715E0,-9.366415977E0,2.394201756E-1
2.261222084E0,2.580949545E0,-9.332897186E0,3.256114423E-1
2.263222084E0,2.607285738E0,-9.296984673E0,4.165911078E-1
2.265222084E0,2.626439333E0,-9.261071205E0,5.051765442E-1
2.267222084E0,2.640804529E0,-9.227552414E0,5.817909837E-1
2.269222084E0,2.650381327E0,-9.196428299E0,6.488286853E-1
2.271221684E0,2.652775526E0,-9.165303230E0,7.134721279E-1
2.273221650E0,2.650381327E0,-9.141361237E0,7.733271718E-1
2.275221616E0,2.638410330E0,-9.119813919E0,8.259995580E-1
2.277221049E0,2.624045134E0,-9.105448723E0,8.714894056E-1
2.279221015E0,2.604891539E0,-9.091083527E0,9.097966552E-1
2.281220981E0,2.588132143E0,-9.076718330E0,9.385270476E-1
2.283220947E0,2.566584110E0,-9.069535255E0,9.600749016E-1
2.285220913E0,2.542642117E0,-9.067141533E0,9.744400978E-1
2.287220913E0,2.518700123E0,-9.067141533E0,9.864110947E-1
2.289220946E0,2.492363930E0,-9.069535255E0,9.911994934E-1
2.291220979E0,2.466027737E0,-9.071929932E0,9.911994934E-1
2.293221012E0,2.442085743E0,-9.076718330E0,9.888052940E-1
2.295221045E0,2.418143749E0,-9.086295128E0,9.840168953E-1
2.297221078E0,2.398990154E0,-9.098265648E0,9.816226959E-1
2.299221778E0,2.375048161E0,-9.119813919E0,9.744400978E-1
2.301221811E0,2.355894566E0,-9.143755913E0,9.624691010E-1
2.303221811E0,2.339135170E0,-9.165303230E0,9.504981041E-1
2.305221777E0,2.319981337E0,-9.191639900E0,9.385270476E-1
2.307221543E0,2.303221941E0,-9.220370293E0,9.265560508E-1
2.309221509E0,2.286462545E0,-9.246706009E0,9.169792533E-1
2.311221475E0,2.264914751E0,-9.275436401E0,9.026140571E-1
2.313221441E0,2.240972757E0,-9.304166794E0,8.834604025E-1
2.315221407E0,2.214636564E0,-9.328108788E0,8.619126081E-1
2.317221407E0,2.190694571E0,-9.354445457E0,8.427590132E-1
2.319221407E0,2.166752577E0,-9.378387451E0,8.212111592E-1
2.321221440E0,2.142810583E0,-9.404723167E0,7.996633649E-1
2.323221473E0,2.118868589E0,-9.431059837E0,7.685387731E-1
2.325221506E0,2.099714994E0,-9.459790230E0,7.350199223E-1
2.327221539E0,2.082955360E0,-9.488520622E0,7.038952708E-1
2.329221572E0,2.061407566E0,-9.522039413E0,6.679822803E-1
2.331221605E0,2.042253971E0,-9.550769806E0,6.320692301E-1
2.333221638E0,2.023100376E0,-9.579500198E0,5.961562395E-1
2.335221638E0,2.006340981E0,-9.608230591E0,5.602431893E-1
2.337221371E0,1.989581585E0,-9.634567261E0,5.267243981E-1
2.339221371E0,1.970427990E0,-9.663297653E0,4.932055473E-1
2.341221371E0,1.944091797E0,-9.687239647E0,4.668693244E-1
2.343221371E0,1.922544003E0,-9.708786964E0,4.453215301E-1
2.345221371E0,1.898601890E0,-9.730335236E0,4.261679053E-1
2.347221371E0,1.877054095E0,-9.747094154E0,4.118026793E-1
2.349221337E0,1.857900500E0,-9.756670952E0,3.950432837E-1
2.351221303E0,1.843535304E0,-9.763854027E0,3.782838583E-1
2.353221269E0,1.829170108E0,-9.771036148E0,3.639186621E-1
2.355220835E0,1.810016513E0,-9.778219223E0,3.471592367E-1
2.357220801E0,1.790862918E0,-9.783007622E0,3.351882398E-1
2.359220767E0,1.774103403E0,-9.787796021E0,3.232172430E-1
2.361220733E0,1.762132406E0,-9.794978142E0,3.160346150E-1
2.363220699E0,1.750161409E0,-9.804554939E0,3.112462163E-1
2.365220699E0,1.738190413E0,-9.814131737E0,3.112462163E-1
2.367221332E0,1.728613615E0,-9.821314812E0,3.112462163E-1
2.369221365E0,1.716642618E0,-9.826103210E0,3.088520169E-1
2.371221398E0,1.707065821E0,-9.833285332E0,3.064578176E-1
2.373221431E0,1.702277422E0,-9.835680008E0,3.064578176E-1
2.375221464E0,1.695094824E0,-9.835680008E0,3.064578176E-1
2.377221497E0,1.690306425E0,-9.835680008E0,3.040636182E-1
2.379221530E0,1.685518026E0,-9.835680008E0,3.016694188E-1
2.381221530E0,1.680729628E0,-9.835680008E0,2.992752194E-1
2.383221496E0,1.675941229E0,-9.830891609E0,2.968810201E-1
2.385221462E0,1.673547029E0,-9.821314812E0,2.944868207E-1
2.387221428E0,1.673547029E0,-9.809343338E0,2.873041928E-1
2.389221394E0,1.675941229E0,-9.797372818E0,2.801215947E-1
2.391221360E0,1.680729628E0,-9.780612946E0,2.681505978E-1
2.393221326E0,1.687912226E0,-9.766247749E0,2.561795712E-1
2.395221326E0,1.695094824E0,-9.749488831E0,2.442085743E-1
2.397222326E0,1.702277422E0,-9.730335236E0,2.370259613E-1
2.399222359E0,1.711854219E0,-9.713575363E0,2.298433632E-1
2.401222392E0,1.726219416E0,-9.694421768E0,2.226607651E-1
2.403222425E0,1.735796213E0,-9.677662849E0,2.154781520E-1
2.405222458E0,1.747767210E0,-9.648932457E0,2.130839527E-1
2.407222491E0,1.754949808E0,-9.620202065E0,2.130839527E-1
2.409222524E0,1.762132406E0,-9.596260071E0,2.154781520E-1
2.411222557E0,1.766920805E0,-9.574711800E0,2.250549644E-1
2.413222590E0,1.778891921E0,-9.550769806E0,2.394201756E-1
2.415222990E0,1.790862918E0,-9.529222488E0,2.585737705E-1
2.417222990E0,1.802833915E0,-9.510068893E0,2.729389966E-1
2.419222990E0,1.819593310E0,-9.493309021E0,2.873041928E-1
2.421222990E0,1.836352706E0,-9.478943825E0,2.992752194E-1
2.423222990E0,1.848323703E0,-9.469367027E0,3.064578176E-1
2.425222990E0,1.862688899E0,-9.462183952E0,3.040636182E-1
2.427222556E0,1.872265697E0,-9.459790230E0,2.992752194E-1
2.429222522E0,1.879448295E0,-9.457395554E0,2.873041928E-1
2.431221822E0,1.884236693E0,-9.455001831E0,2.729389966E-1
2.433221788E0,1.886630893E0,-9.457395554E0,2.513911724E-1
2.435221754E0,1.886630893E0,-9.457395554E0,2.250549644E-1
2.437221720E0,1.884236693E0,-9.455001831E0,1.987187415E-1
2.439221020E0,1.881842494E0,-9.455001831E0,1.651999205E-1
2.441220986E0,1.874659896E0,-9.450213432E0,1.316810995E-1
2.443220986E0,1.867477298E0,-9.447818756E0,1.005564705E-1
2.445221019E0,1.860294700E0,-9.443030357E0,6.703764945E-2
2.447221052E0,1.850717902E0,-9.443030357E0,3.591302410E-2
2.449221085E0,1.838746905E0,-9.443030357E0,9.576806799E-3
2.451221118E0,1.824381709E0,-9.447818756E0,-1.675941236E-2
2.453221151E0,1.807622313E0,-9.455001831E0,-4.070143029E-2
2.455221184E0,1.793257117E0,-9.466972351E0,-5.746084079E-2
2.457219817E0,1.778891921E0,-9.481337547E0,-7.182604820E-2
2.459219817E0,1.762132406E0,-9.495702744E0,-8.140286058E-2
2.461219783E0,1.745373011E0,-9.512462616E0,-8.619125932E-2
2.463219749E0,1.726219416E0,-9.529222488E0,-9.097966552E-2
2.465219715E0,1.702277422E0,-9.541193008E0,-9.576806426E-2
2.467219681E0,1.683123827E0,-9.550769806E0,-1.029506698E-1
2.469219647E0,1.666364431E0,-9.562741280E0,-1.077390760E-1
2.471219613E0,1.651999116E0,-9.572318077E0,-1.149216816E-1
2.473219579E0,1.640028119E0,-9.581894875E0,-1.221042871E-1
2.475219579E0,1.625662923E0,-9.589076996E0,-1.292868853E-1
2.477219612E0,1.616086125E0,-9.593865395E0,-1.388636976E-1
2.479219645E0,1.606509328E0,-9.596260071E0,-1.508347094E-1
2.481219678E0,1.601720929E0,-9.596260071E0,-1.628057212E-1
2.483219711E0,1.601720929E0,-9.601048470E0,-1.747767180E-1
2.485219744E0,1.601720929E0,-9.601048470E0,-1.915361285E-1
2.487219777E0,1.606509328E0,-9.601048470E0,-2.082955539E-1
2.489219810E0,1.616086125E0,-9.601048470E0,-2.226607651E-1
2.491220510E0,1.628057122E0,-9.601048470E0,-2.418143749E-1
2.493220510E0,1.642422318E0,-9.601048470E0,-2.585737705E-1
2.495220510E0,1.661576033E0,-9.608230591E0,-2.681505978E-1
2.497220510E0,1.680729628E0,-9.615413666E0,-2.801215947E-1
2.499221176E0,1.697489023E0,-9.620202065E0,-2.920926213E-1
2.501221176E0,1.716642618E0,-9.627384186E0,-2.992752194E-1
2.503221176E0,1.735796213E0,-9.636960983E0,-3.040636182E-1
2.505221142E0,1.754949808E0,-9.651326180E0,-3.112462163E-1
2.507221108E0,1.774103403E0,-9.663297653E0,-3.184288144E-1
2.509221074E0,1.793257117E0,-9.675268173E0,-3.232172430E-1
2.511220640E0,1.817199111E0,-9.687239647E0,-3.280056417E-1
2.513220606E0,1.845929503E0,-9.696816444E0,-3.327940404E-1
2.515220572E0,1.879448295E0,-9.703998566E0,-3.375824392E-1
2.517220538E0,1.912967205E0,-9.713575363E0,-3.399766386E-1
2.519220504E0,1.951274395E0,-9.718363762E0,-3.399766386E-1
2.521220504E0,1.984793186E0,-9.723152161E0,-3.423708379E-1
2.523220537E0,2.030282974E0,-9.730335236E0,-3.447650373E-1
2.525220570E0,2.082955360E0,-9.735123634E0,-3.471592367E-1
2.527220603E0,2.133233786E0,-9.737517357E0,-3.471592367E-1
2.529220636E0,2.185906172E0,-9.732728958E0,-3.471592367E-1
2.531220669E0,2.238578558E0,-9.727940559E0,-3.447650373E-1
2.533220702E0,2.286462545E0,-9.720758438E0,-3.423708379E-1
2.535221635E0,2.336740971E0,-9.713575363E0,-3.399766386E-1
2.537221635E0,2.384624958E0,-9.706393242E0,-3.375824392E-1
2.539221601E0,2.434903145E0,-9.699210167E0,-3.351882398E-1
2.541221567E0,2.487575531E0,-9.692028046E0,-3.327940404E-1
2.543221533E0,2.530671120E0,-9.684844971E0,-3.303998411E-1
2.545221499E0,2.578555346E0,-9.670479774E0,-3.232172430E-1
2.547221165E0,2.619256735E0,-9.658509254E0,-3.160346150E-1
2.549221131E0,2.652775526E0,-9.646537781E0,-3.088520169E-1
2.551221097E0,2.681505919E0,-9.627384186E0,-2.944868207E-1
2.553221097E0,2.707842112E0,-9.608230591E0,-2.777273953E-1
2.555221130E0,2.729389906E0,-9.591471672E0,-2.609679997E-1
2.557221163E0,2.741360903E0,-9.574711800E0,-2.394201756E-1
2.559221196E0,2.746149302E0,-9.557952881E0,-2.178723514E-1
2.561221229E0,2.743755102E0,-9.543587685E0,-1.939303428E-1
2.563221262E0,2.731784105E0,-9.534010887E0,-1.675941199E-1
2.565221295E0,2.712630510E0,-9.522039413E0,-1.412578970E-1
2.567221328E0,2.691082716E0,-9.514857292E0,-1.173158810E-1
2.569221361E0,2.659958124E0,-9.510068893E0,-9.337386489E-2
2.571221761E0,2.631227732E0,-9.510068893E0,-7.182604820E-2
2.573221761E0,2.592920542E0,-9.512462616E0,-5.027823523E-2
2.575221761E0,2.547430515E0,-9.514857292E0,-3.351882473E-2
2.577221761E0,2.504334927E0,-9.517251015E0,-1.915361360E-2
2.579221761E0,2.454056740E0,-9.526827812E0,-7.182605099E-3
2.581221761E0,2.396595955E0,-9.536404610E0,2.394201700E-3
2.583221227E0,2.341529369E0,-9.545981407E0,9.576806799E-3
2.585221193E0,2.279279947E0,-9.557952881E0,1.675941236E-2
2.587221159E0,2.221819162E0,-9.567529678E0,2.394201607E-2
2.589221125E0,2.161964178E0,-9.579500198E0,2.873042040E-2
2.591221091E0,2.102109194E0,-9.591471672E0,2.633621916E-2
2.593221057E0,2.051830769E0,-9.603442192E0,1.915361360E-2
2.595220123E0,1.994369984E0,-9.613018990E0,1.197100803E-2
2.597220089E0,1.941697598E0,-9.622595787E0,4.788403399E-3
2.599220089E0,1.893813491E0,-9.632172585E0,-2.394201700E-3
2.601220122E0,1.848323703E0,-9.636960983E0,-1.436521020E-2
2.603220155E0,1.805228114E0,-9.641749382E0,-2.873042040E-2
2.605220188E0,1.766920805E0,-9.644144058E0,-4.070143029E-2
2.607220521E0,1.731007814E0,-9.651326180E0,-5.267243832E-2
2.609220554E0,1.699883223E0,-9.656114578E0,-6.464344263E-2
2.611220587E0,1.675941229E0,-9.658509254E0,-7.422025502E-2
2.613220220E0,1.649604917E0,-9.663297653E0,-8.619125932E-2
2.615220220E0,1.628057122E0,-9.665691376E0,-9.816227108E-2
2.617220186E0,1.613691926E0,-9.668086052E0,-1.101332754E-1
2.619220152E0,1.599326730E0,-9.668086052E0,-1.244984865E-1
2.621220118E0,1.592144132E0,-9.668086052E0,-1.340752989E-1
2.623220084E0,1.584961534E0,-9.665691376E0,-1.436520964E-1
2.625219317E0,1.580173135E0,-9.665691376E0,-1.556231081E-1
2.627219283E0,1.575384736E0,-9.663297653E0,-1.651999205E-1
2.629219249E0,1.577778935E0,-9.658509254E0,-1.747767180E-1
2.631219249E0,1.582567334E0,-9.658509254E0,-1.843535304E-1
2.633219282E0,1.589749932E0,-9.656114578E0,-1.915361285E-1
2.635219315E0,1.594538331E0,-9.656114578E0,-1.963245422E-1
2.637219748E0,1.596932530E0,-9.656114578E0,-2.011129409E-1
2.639219114E0,1.601720929E0,-9.658509254E0,-2.035071403E-1
2.641219147E0,1.608903527E0,-9.663297653E0,-2.059013397E-1
2.643219680E0,1.613691926E0,-9.665691376E0,-2.059013397E-1
2.645219713E0,1.620874524E0,-9.668086052E0,-2.059013397E-1
2.647219746E0,1.628057122E0,-9.670479774E0,-2.059013397E-1
2.649219746E0,1.635239720E0,-9.675268173E0,-2.035071403E-1
2.651219746E0,1.651999116E0,-9.677662849E0,-2.011129409E-1
2.653219746E0,1.668758631E0,-9.682451248E0,-2.059013397E-1
2.655219746E0,1.687912226E0,-9.692028046E0,-2.059013397E-1
2.657219746E0,1.702277422E0,-9.696816444E0,-2.035071403E-1
2.659219746E0,1.714248419E0,-9.701604843E0,-2.011129409E-1
2.661219712E0,1.723825216E0,-9.703998566E0,-1.987187415E-1
2.663219678E0,1.738190413E0,-9.706393242E0,-1.939303428E-1
2.665219644E0,1.745373011E0,-9.706393242E0,-1.867477298E-1
2.667219210E0,1.750161409E0,-9.703998566E0,-1.819593310E-1
2.669219176E0,1.757344007E0,-9.703998566E0,-1.747767180E-1
2.671219142E0,1.764526606E0,-9.701604843E0,-1.699883193E-1
2.673218875E0,1.771709204E0,-9.701604843E0,-1.675941199E-1
2.675218841E0,1.778891921E0,-9.699210167E0,-1.651999205E-1
2.677218841E0,1.786074519E0,-9.694421768E0,-1.628057212E-1
2.679218874E0,1.790862918E0,-9.687239647E0,-1.628057212E-1
2.681218907E0,1.795651317E0,-9.682451248E0,-1.580173075E-1
2.683218940E0,1.800439715E0,-9.675268173E0,-1.532289088E-1
2.685219706E0,1.802833915E0,-9.672874451E0,-1.484405100E-1
2.687219739E0,1.807622313E0,-9.668086052E0,-1.460463107E-1
2.689219772E0,1.812410712E0,-9.660902977E0,-1.460463107E-1
2.691219805E0,1.817199111E0,-9.653720856E0,-1.460463107E-1
2.693219805E0,1.817199111E0,-9.648932457E0,-1.484405100E-1
2.695219771E0,1.817199111E0,-9.641749382E0,-1.532289088E-1
2.697219737E0,1.819593310E0,-9.634567261E0,-1.580173075E-1
2.699220370E0,1.819593310E0,-9.627384186E0,-1.651999205E-1
2.701220336E0,1.824381709E0,-9.620202065E0,-1.747767180E-1
2.703220302E0,1.829170108E0,-9.610625267E0,-1.867477298E-1
2.705220268E0,1.833958507E0,-9.598653793E0,-2.011129409E-1
2.707220234E0,1.838746905E0,-9.589076996E0,-2.130839527E-1
2.709220234E0,1.838746905E0,-9.581894875E0,-2.298433632E-1
2.711220067E0,1.836352706E0,-9.574711800E0,-2.466027737E-1
2.713220100E0,1.833958507E0,-9.569923401E0,-2.657563984E-1
2.715220133E0,1.833958507E0,-9.565135002E0,-2.873041928E-1
2.717220166E0,1.833958507E0,-9.562741280E0,-3.064578176E-1
2.719220199E0,1.831564307E0,-9.560346603E0,-3.232172430E-1
2.721220232E0,1.829170108E0,-9.557952881E0,-3.375824392E-1
2.723220265E0,1.831564307E0,-9.555558205E0,-3.519476354E-1
2.725220298E0,1.829170108E0,-9.553164482E0,-3.639186621E-1
2.727220698E0,1.824381709E0,-9.553164482E0,-3.711012602E-1
2.729220698E0,1.817199111E0,-9.550769806E0,-3.782838583E-1
2.731220698E0,1.810016513E0,-9.550769806E0,-3.854664862E-1
2.733221331E0,1.805228114E0,-9.553164482E0,-3.926490843E-1
2.735221331E0,1.805228114E0,-9.557952881E0,-3.974374831E-1
2.737221331E0,1.805228114E0,-9.565135002E0,-4.022258818E-1
2.739221297E0,1.802833915E0,-9.572318077E0,-4.070142806E-1
2.741221263E0,1.805228114E0,-9.579500198E0,-4.118026793E-1
2.743221229E0,1.810016513E0,-9.584288597E0,-4.141969085E-1
2.745221195E0,1.812410712E0,-9.591471672E0,-4.189853072E-1
2.747221161E0,1.814804912E0,-9.598653793E0,-4.213795066E-1
2.749221127E0,1.817199111E0,-9.601048470E0,-4.213795066E-1
2.751221093E0,1.819593310E0,-9.603442192E0,-4.189853072E-1
2.753221059E0,1.821987510E0,-9.605836868E0,-4.165911078E-1
2.755221059E0,1.821987510E0,-9.601048470E0,-4.118026793E-1
2.757221092E0,1.824381709E0,-9.598653793E0,-4.046200812E-1
2.759221125E0,1.826775908E0,-9.596260071E0,-3.974374831E-1
2.761221158E0,1.826775908E0,-9.596260071E0,-3.902548850E-1
2.763221191E0,1.829170108E0,-9.598653793E0,-3.854664862E-1
2.765221224E0,1.826775908E0,-9.601048470E0,-3.782838583E-1
2.767221257E0,1.824381709E0,-9.603442192E0,-3.687070608E-1
2.769221290E0,1.826775908E0,-9.603442192E0,-3.591302633E-1
2.771221490E0,1.829170108E0,-9.601048470E0,-3.495534360E-1
2.773221456E0,1.831564307E0,-9.601048470E0,-3.423708379E-1
2.775221422E0,1.831564307E0,-9.601048470E0,-3.327940404E-1
2.777221388E0,1.831564307E0,-9.601048470E0,-3.232172430E-1
2.779221354E0,1.831564307E0,-9.601048470E0,-3.160346150E-1
2.781220920E0,1.829170108E0,-9.601048470E0,-3.064578176E-1
2.783220886E0,1.821987510E0,-9.601048470E0,-2.992752194E-1
2.785220852E0,1.819593310E0,-9.605836868E0,-2.896983922E-1
2.787221285E0,1.817199111E0,-9.610625267E0,-2.825157940E-1
2.789221318E0,1.812410712E0,-9.615413666E0,-2.753331959E-1
2.791221351E0,1.810016513E0,-9.622595787E0,-2.681505978E-1
2.793221384E0,1.805228114E0,-9.627384186E0,-2.585737705E-1
2.795221417E0,1.800439715E0,-9.629778862E0,-2.489969730E-1
2.797221450E0,1.795651317E0,-9.632172585E0,-2.418143749E-1
2.799221483E0,1.790862918E0,-9.639355659E0,-2.394201756E-1
2.801221516E0,1.790862918E0,-9.648932457E0,-2.370259613E-1
2.803221549E0,1.788468719E0,-9.656114578E0,-2.370259613E-1
2.805221549E0,1.786074519E0,-9.665691376E0,-2.346317619E-1
2.807221549E0,1.781286120E0,-9.672874451E0,-2.346317619E-1
2.809221549E0,1.778891921E0,-9.677662849E0,-2.370259613E-1
2.811221549E0,1.778891921E0,-9.682451248E0,-2.370259613E-1
2.813221549E0,1.776497602E0,-9.684844971E0,-2.394201756E-1
2.815221782E0,1.776497602E0,-9.687239647E0,-2.442085743E-1
2.817221748E0,1.776497602E0,-9.684844971E0,-2.537853718E-1
2.819221714E0,1.776497602E0,-9.680056572E0,-2.633621991E-1
2.821221680E0,1.776497602E0,-9.675268173E0,-2.729389966E-1
2.823221646E0,1.781286120E0,-9.670479774E0,-2.825157940E-1
2.825221612E0,1.788468719E0,-9.670479774E0,-2.968810201E-1
2.827221578E0,1.795651317E0,-9.670479774E0,-3.088520169E-1
2.829221544E0,1.807622313E0,-9.672874451E0,-3.208230138E-1
2.831221510E0,1.819593310E0,-9.672874451E0,-3.351882398E-1
2.833221510E0,1.829170108E0,-9.672874451E0,-3.447650373E-1
2.835221543E0,1.841141105E0,-9.670479774E0,-3.591302633E-1
2.837221576E0,1.855506301E0,-9.665691376E0,-3.711012602E-1
2.839220942E0,1.869871497E0,-9.658509254E0,-3.806780577E-1
2.841221375E0,1.886630893E0,-9.653720856E0,-3.878606856E-1
2.843220741E0,1.905784607E0,-9.648932457E0,-3.974374831E-1
2.845220807E0,1.929726601E0,-9.653720856E0,-4.070142806E-1
2.847220740E0,1.953668594E0,-9.660902977E0,-4.165911078E-1
2.849220073E0,1.977610588E0,-9.670479774E0,-4.261679053E-1
2.851220073E0,1.999158382E0,-9.694421768E0,-4.333505034E-1
2.853220073E0,2.111685991E0,-9.840468407E0,-4.668693244E-1
2.855220039E0,2.116474390E0,-9.845256805E0,-4.668693244E-1
2.857220005E0,2.104503393E0,-9.835680008E0,-4.644751251E-1
2.859219971E0,2.049436569E0,-9.785401344E0,-4.429273009E-1
2.861219937E0,2.006340981E0,-9.749488831E0,-4.189853072E-1
2.863219903E0,1.929726601E0,-9.668086052E0,-4.141969085E-1
2.865219903E0,1.855506301E0,-9.596260071E0,-3.926490843E-1
2.867219903E0,1.826775908E0,-9.572318077E0,-3.902548850E-1
2.869219903E0,1.795651317E0,-9.543587685E0,-4.022258818E-1
2.871219503E0,1.788468719E0,-9.541193008E0,-4.189853072E-1
2.873219503E0,1.798045516E0,-9.541193008E0,-4.309563041E-1
2.875219269E0,1.798045516E0,-9.560346603E0,-4.644751251E-1
2.877218369E0,1.812410712E0,-9.565135002E0,-4.764461517E-1
2.879218369E0,1.836352706E0,-9.584288597E0,-4.932055473E-1
2.881218369E0,1.841141105E0,-9.603442192E0,-5.171475410E-1
2.883218402E0,1.821987510E0,-9.613018990E0,-5.243301988E-1
2.885218435E0,1.774103403E0,-9.598653793E0,-5.243301988E-1
2.887218468E0,1.742978811E0,-9.586683273E0,-5.219359994E-1
2.889218501E0,1.711854219E0,-9.569923401E0,-5.075707436E-1
2.891218534E0,1.651999116E0,-9.550769806E0,-4.836287498E-1
2.893218567E0,1.611297727E0,-9.538799286E0,-4.644751251E-1
2.895218567E0,1.565807939E0,-9.517251015E0,-4.453215301E-1
2.897218567E0,1.572990537E0,-9.490914345E0,-4.381389022E-1
2.899219200E0,1.584961534E0,-9.474155426E0,-4.477157295E-1
2.901219166E0,1.572990537E0,-9.471760750E0,-4.381389022E-1
2.903219799E0,1.601720929E0,-9.452607155E0,-4.189853072E-1
2.905219732E0,1.635239720E0,-9.452607155E0,-4.333505034E-1
2.907220065E0,1.640028119E0,-9.445425034E0,-4.309563041E-1
2.909220698E0,1.663970232E0,-9.435848236E0,-4.165911078E-1
2.911220664E0,1.687912226E0,-9.452607155E0,-4.189853072E-1
2.913220630E0,1.723825216E0,-9.462183952E0,-4.070142806E-1
2.915220663E0,1.793257117E0,-9.471760750E0,-4.213795066E-1
2.917220696E0,1.810016513E0,-9.476549149E0,-4.381389022E-1
2.919220862E0,1.850717902E0,-9.514857292E0,-4.572925270E-1
2.921220895E0,1.922544003E0,-9.529222488E0,-4.596867263E-1
2.923220928E0,1.960851192E0,-9.543587685E0,-4.668693244E-1
2.925220961E0,2.030282974E0,-9.560346603E0,-4.860229492E-1
2.927220994E0,2.092532396E0,-9.560346603E0,-5.219359994E-1
2.929220994E0,2.128445387E0,-9.572318077E0,-5.386953950E-1
2.931221394E0,2.209848166E0,-9.589076996E0,-5.530605912E-1
2.933221394E0,2.298433542E0,-9.613018990E0,-5.770025849E-1
2.935221394E0,2.415749550E0,-9.617807388E0,-6.105214357E-1
2.937221894E0,2.480392933E0,-9.629778862E0,-6.392518282E-1
2.939221894E0,2.547430515E0,-9.634567261E0,-6.655880809E-1
2.941221894E0,2.669534922E0,-9.665691376E0,-7.062895298E-1
2.943221860E0,2.779668093E0,-9.677662849E0,-7.637503147E-1
2.945221826E0,2.899378300E0,-9.725546837E0,-8.283938169E-1
2.947221792E0,2.947262287E0,-9.749488831E0,-8.523358107E-1
2.949221758E0,3.050212860E0,-9.768642426E0,-9.074024558E-1
2.951221724E0,3.102885485E0,-9.778219223E0,-9.385270476E-1
2.953221690E0,3.165134668E0,-9.811738014E0,-9.911994934E-1
2.955221656E0,3.246537447E0,-9.830891609E0,-1.031900883E0
2.957221622E0,3.268085241E0,-9.840468407E0,-1.051054597E0
2.959221622E0,3.311181068E0,-9.864410400E0,-1.070208192E0
2.961221655E0,3.330334663E0,-9.871592522E0,-1.094150186E0
2.963221688E0,3.356670856E0,-9.876380920E0,-1.134851575E0
2.965221721E0,3.380612850E0,-9.838073730E0,-1.144428372E0
2.967220787E0,3.397372246E0,-9.830891609E0,-1.158793569E0
2.969220820E0,3.394978046E0,-9.814131737E0,-1.175553083E0
2.971220853E0,3.423708439E0,-9.785401344E0,-1.192312479E0
2.973220886E0,3.440467834E0,-9.766247749E0,-1.197100878E0
2.975220886E0,3.428496838E0,-9.713575363E0,-1.209071875E0
2.977220852E0,3.428496838E0,-9.656114578E0,-1.228225470E0
2.979220685E0,3.440467834E0,-9.629778862E0,-1.230619669E0
2.981220651E0,3.440467834E0,-9.562741280E0,-1.213860273E0
2.983220617E0,3.428496838E0,-9.536404610E0,-1.209071875E0
2.985220583E0,3.404554844E0,-9.435848236E0,-1.194706678E0
2.987220549E0,3.397372246E0,-9.402329445E0,-1.189918280E0
2.989220549E0,3.387795448E0,-9.361627579E0,-1.182735682E0
2.991220549E0,3.361459255E0,-9.304166794E0,-1.165976286E0
2.993220582E0,3.380612850E0,-9.251494408E0,-1.139639974E0
2.995220615E0,3.373430252E0,-9.208398819E0,-1.125274777E0
2.997221048E0,3.383007050E0,-9.186851501E0,-1.127668977E0
2.999221081E0,3.387795448E0,-9.124602318E0,-1.122880578E0
3.001221114E0,3.399766445E0,-9.105448723E0,-1.110909581E0
3.003220747E0,3.411737442E0,-9.069535255E0,-1.079784989E0
3.005220780E0,3.416525841E0,-9.052776337E0,-1.039083481E0
3.007220780E0,3.409343243E0,-9.047987938E0,-1.027112484E0
3.009220780E0,3.416525841E0,-9.045593262E0,-1.000776291E0
3.011220780E0,3.414131641E0,-9.045593262E0,-9.792284966E-1
3.013220780E0,3.375824451E0,-9.059958458E0,-9.409212470E-1
3.015220780E0,3.315969467E0,-9.083900452E0,-8.930372596E-1
3.017220780E0,3.282450438E0,-9.115025520E0,-8.690952063E-1
3.019220780E0,3.213018656E0,-9.203610420E0,-8.020575643E-1
3.021220746E0,3.107673883E0,-9.265859604E0,-7.493851185E-1
3.023220712E0,3.055001259E0,-9.311349869E0,-7.302315235E-1
3.025220678E0,2.932897091E0,-9.428665161E0,-7.062895298E-1
3.027198382E0,2.880224705E0,-9.505280495E0,-6.871358752E-1
3.029198348E0,2.822763920E0,-9.529222488E0,-6.727706790E-1
3.031198314E0,2.755726099E0,-9.572318077E0,-6.799532771E-1
3.033198280E0,2.712630510E0,-9.646537781E0,-7.278373241E-1
3.035198246E0,2.707842112E0,-9.723152161E0,-7.900865674E-1
3.037198246E0,2.710236311E0,-9.766247749E0,-8.427590132E-1
3.039198279E0,2.729389906E0,-9.806949615E0,-8.858546019E-1
3.041198312E0,2.731784105E0,-9.876380920E0,-9.409212470E-1
3.043197445E0,2.698265314E0,-9.900322914E0,-9.768342972E-1
3.045196711E0,2.600103140E0,-9.852438927E0,-9.935936928E-1
3.047196744E0,2.542642117E0,-9.814131737E0,-9.864110947E-1
3.049196777E0,2.420537949E0,-9.718363762E0,-9.552865028E-1
3.051196810E0,2.329558372E0,-9.658509254E0,-9.361328483E-1
3.053196810E0,2.130839586E0,-9.522039413E0,-8.882488012E-1
3.055196776E0,1.946485996E0,-9.368810654E0,-8.068459630E-1
3.057195842E0,1.855506301E0,-9.292196274E0,-7.661445141E-1
3.059195808E0,1.644816518E0,-9.148544312E0,-6.871358752E-1
3.061195774E0,1.450886250E0,-9.076718330E0,-6.081272364E-1
3.063196140E0,1.338358760E0,-8.983344078E0,-5.817909837E-1
3.065196106E0,1.154005170E0,-8.959402084E0,-5.195417404E-1
3.067196439E0,1.048660398E0,-8.954613686E0,-4.812345505E-1
3.069196439E0,8.882488012E-1,-8.968978882E0,-3.830722570E-1
3.071196472E0,7.517793179E-1,-9.000102997E0,-3.208230138E-1
3.073196505E0,6.847416759E-1,-9.016862869E0,-2.873041928E-1
3.075196538E0,5.171475410E-1,-9.064746857E0,-1.388636976E-1
3.077196571E0,4.740519226E-1,-9.086295128E0,-1.101332754E-1
3.079196604E0,4.261679053E-1,-9.095871925E0,-8.858546615E-2
3.081196637E0,3.471592367E-1,-9.131784439E0,-2.633621916E-2
3.083196670E0,2.753331959E-1,-9.153332710E0,4.548983276E-2
3.085196670E0,2.250549644E-1,-9.191639900E0,9.576806426E-2
3.087196670E0,2.082955539E-1,-9.213187218E0,1.173158810E-1
3.089196670E0,1.843535304E-1,-9.244312286E0,1.292868853E-1
3.091196670E0,1.987187415E-1,-9.273042679E0,1.436520964E-1
3.093196670E0,2.250549644E-1,-9.323320389E0,1.316810995E-1
3.095196670E0,2.657563984E-1,-9.414299965E0,1.340752989E-1
3.097196270E0,3.064578176E-1,-9.464578629E0,1.221042871E-1
3.099196236E0,3.854664862E-1,-9.572318077E0,9.097966552E-2
3.101196202E0,4.165911078E-1,-9.610625267E0,7.182604820E-2
3.103197068E0,4.908113480E-1,-9.711181641E0,2.394201607E-2
3.105197801E0,5.506663918E-1,-9.809343338E0,0.000000000E0
3.107197767E0,5.937620401E-1,-9.857227325E0,-1.197100803E-2
3.109197733E0,6.560112834E-1,-9.948206902E0,-6.224924326E-2
3.111197699E0,7.110779285E-1,-1.006791782E1,-1.029506698E-1
3.113197665E0,7.302315235E-1,-1.011819553E1,-1.197100878E-1
3.115197998E0,7.661445141E-1,-1.021396351E1,-1.364694983E-1
3.117198931E0,7.829039693E-1,-1.024987698E1,-1.532289088E-1
3.119198964E0,7.876923680E-1,-1.030973148E1,-1.723825186E-1
3.121198897E0,8.164227605E-1,-1.036479855E1,-1.843535304E-1
3.123198930E0,8.092401624E-1,-1.039113426E1,-1.867477298E-1
3.125198963E0,7.733271718E-1,-1.043422985E1,-1.747767180E-1
3.127198396E0,7.637503147E-1,-1.045098972E1,-1.819593310E-1
3.129198429E0,7.613561153E-1,-1.047253704E1,-1.891419291E-1
3.131198429E0,7.374141216E-1,-1.046535492E1,-1.987187415E-1
3.133198395E0,7.326257229E-1,-1.042944145E1,-2.059013397E-1
3.135198361E0,7.038952708E-1,-1.040789413E1,-2.082955539E-1
3.137198327E0,6.847416759E-1,-1.038155746E1,-2.154781520E-1
3.139198293E0,6.296750307E-1,-1.031930828E1,-2.418143749E-1
3.141198193E0,6.009446383E-1,-1.028578949E1,-2.489969730E-1
3.143198159E0,5.674257874E-1,-1.020917511E1,-2.537853718E-1
3.145198159E0,5.315127969E-1,-1.012298393E1,-2.729389966E-1
3.147198159E0,5.147533417E-1,-1.007509995E1,-2.753331959E-1
3.149198192E0,4.908113480E-1,-9.993697166E0,-2.825157940E-1
3.151198225E0,4.908113480E-1,-9.948206902E0,-2.825157940E-1
3.153198258E0,5.003881454E-1,-9.881169319E0,-2.992752194E-1
3.155198291E0,5.506663918E-1,-9.818920135E0,-3.112462163E-1
3.157198724E0,5.770025849E-1,-9.787796021E0,-3.160346150E-1
3.159198757E0,6.775590777E-1,-9.744700432E0,-3.351882398E-1
3.161198790E0,7.829039693E-1,-9.723152161E0,-3.256114423E-1
3.163198823E0,8.307880163E-1,-9.706393242E0,-3.327940404E-1
3.165198823E0,9.481038451E-1,-9.680056572E0,-3.256114423E-1
3.167198823E0,1.072602391E0,-9.672874451E0,-3.208230138E-1
3.169198823E0,1.130063176E0,-9.653720856E0,-3.160346150E-1
3.171198823E0,1.225831270E0,-9.627384186E0,-2.992752194E-1
3.173198823E0,1.321599364E0,-9.596260071E0,-2.920926213E-1
3.175198489E0,1.398213744E0,-9.598653793E0,-2.777273953E-1
3.177198455E0,1.422155857E0,-9.593865395E0,-2.681505978E-1
3.179198421E0,1.453280449E0,-9.596260071E0,-2.609679997E-1
3.181198487E0,1.489193439E0,-9.598653793E0,-2.298433632E-1
3.183198453E0,1.534683347E0,-9.613018990E0,-2.274491638E-1
3.185198419E0,1.577778935E0,-9.627384186E0,-1.915361285E-1
3.187198652E0,1.606509328E0,-9.634567261E0,-1.795651317E-1
3.189198618E0,1.640028119E0,-9.639355659E0,-1.628057212E-1
3.191198584E0,1.668758631E0,-9.648932457E0,-1.580173075E-1
3.193198584E0,1.702277422E0,-9.663297653E0,-1.484405100E-1
3.195198617E0,1.776497602E0,-9.670479774E0,-1.388636976E-1
3.197198650E0,1.805228114E0,-9.684844971E0,-1.388636976E-1
3.199198683E0,1.838746905E0,-9.703998566E0,-1.460463107E-1
3.201198783E0,1.853112102E0,-9.713575363E0,-1.460463107E-1
3.203198816E0,1.908178806E0,-9.708786964E0,-1.292868853E-1
3.205198849E0,1.970427990E0,-9.689633369E0,-1.221042871E-1
3.207198882E0,1.999158382E0,-9.687239647E0,-1.101332754E-1
3.209198882E0,2.023100376E0,-9.694421768E0,-9.337386489E-2
3.211198848E0,2.061407566E0,-9.668086052E0,-7.900865376E-2
3.213198814E0,2.080561161E0,-9.658509254E0,-6.943184882E-2
3.215198780E0,2.118868589E0,-9.634567261E0,-5.506663769E-2
3.217199013E0,2.154781580E0,-9.610625267E0,-3.830722719E-2
3.219198979E0,2.176329374E0,-9.593865395E0,-2.394201607E-2
3.221198945E0,2.200271368E0,-9.574711800E0,-1.436521020E-2
3.223198911E0,2.209848166E0,-9.574711800E0,-4.788403399E-3
3.225198911E0,2.257732153E0,-9.531616211E0,2.873042040E-2
3.227198944E0,2.262520552E0,-9.524434090E0,3.830722719E-2
3.229198977E0,2.264914751E0,-9.517251015E0,4.309562966E-2
3.231199010E0,2.262520552E0,-9.469367027E0,6.703764945E-2
3.233199043E0,2.250549555E0,-9.447818756E0,7.661445439E-2
3.235198676E0,2.288856745E0,-9.426271439E0,8.619125932E-2
3.237198709E0,2.291250944E0,-9.433453560E0,9.097966552E-2
3.239198075E0,2.296039343E0,-9.431059837E0,8.140286058E-2
3.241198108E0,2.300827742E0,-9.421483040E0,7.661445439E-2
3.243198108E0,2.310404539E0,-9.395146370E0,4.070143029E-2
3.245198108E0,2.305616140E0,-9.390357971E0,2.633621916E-2
3.247198508E0,2.303221941E0,-9.378387451E0,2.154781483E-2
3.249198508E0,2.310404539E0,-9.364022255E0,-1.675941236E-2
3.251198508E0,2.317587137E0,-9.375992775E0,-3.112462163E-2
3.253198508E0,2.322375536E0,-9.409511566E0,-6.224924326E-2
3.255198474E0,2.317587137E0,-9.433453560E0,-1.244984865E-1
3.257198440E0,2.319981337E0,-9.435848236E0,-1.532289088E-1
3.259198406E0,2.296039343E0,-9.455001831E0,-2.011129409E-1
3.261198372E0,2.276885748E0,-9.474155426E0,-2.394201756E-1
3.263198338E0,2.269703150E0,-9.486125946E0,-2.585737705E-1
3.265198304E0,2.250549555E0,-9.529222488E0,-3.495534360E-1
3.267198270E0,2.226607561E0,-9.545981407E0,-3.687070608E-1
3.269198236E0,2.214636564E0,-9.545981407E0,-3.878606856E-1
3.271198536E0,2.200271368E0,-9.550769806E0,-4.453215301E-1
3.273198569E0,2.193088770E0,-9.569923401E0,-4.908113480E-1
3.275198602E0,2.154781580E0,-9.579500198E0,-5.386953950E-1
3.277198368E0,2.147598982E0,-9.586683273E0,-5.482721925E-1
3.279198401E0,2.135627985E0,-9.581894875E0,-5.626373887E-1
3.281198434E0,2.075772762E0,-9.579500198E0,-6.009446383E-1
3.283198467E0,2.042253971E0,-9.581894875E0,-6.248866320E-1
3.285198500E0,1.999158382E0,-9.601048470E0,-6.679822803E-1
3.287198500E0,1.982398987E0,-9.601048470E0,-6.799532771E-1
3.289198466E0,1.963245392E0,-9.603442192E0,-7.062895298E-1
3.291198432E0,1.939303398E0,-9.593865395E0,-7.206547260E-1
3.293198398E0,1.912967205E0,-9.579500198E0,-7.469909191E-1
3.295198764E0,1.905784607E0,-9.572318077E0,-7.757213712E-1
3.297198730E0,1.905784607E0,-9.565135002E0,-7.876923680E-1
3.299199363E0,1.889025092E0,-9.565135002E0,-7.900865674E-1
3.301199329E0,1.881842494E0,-9.572318077E0,-8.020575643E-1
3.303199329E0,1.884236693E0,-9.569923401E0,-8.068459630E-1
3.305199362E0,1.905784607E0,-9.584288597E0,-8.307880163E-1
3.307198595E0,1.920149803E0,-9.581894875E0,-8.379706144E-1
3.309198628E0,1.915361404E0,-9.562741280E0,-8.355764151E-1
3.311198661E0,1.946485996E0,-9.562741280E0,-8.403648138E-1
3.313198694E0,1.960851192E0,-9.567529678E0,-8.379706144E-1
3.315198727E0,1.963245392E0,-9.560346603E0,-8.379706144E-1
3.317198760E0,1.970427990E0,-9.548376083E0,-8.427590132E-1
3.319198793E0,1.977610588E0,-9.543587685E0,-8.499416113E-1
3.321198793E0,2.011129379E0,-9.545981407E0,-8.475474119E-1
3.323198793E0,2.023100376E0,-9.519645691E0,-8.523358107E-1
3.325198793E0,2.051830769E0,-9.519645691E0,-8.403648138E-1
3.327198793E0,2.075772762E0,-9.512462616E0,-8.355764151E-1
3.329198793E0,2.090138197E0,-9.500492096E0,-8.355764151E-1
3.331198493E0,2.097320795E0,-9.510068893E0,-8.236053586E-1
3.333198459E0,2.109291792E0,-9.529222488E0,-8.068459630E-1
3.335198425E0,2.123656988E0,-9.545981407E0,-7.996633649E-1
3.337198391E0,2.123656988E0,-9.545981407E0,-7.829039693E-1
3.339198357E0,2.106897593E0,-9.550769806E0,-7.637503147E-1
3.341198323E0,2.106897593E0,-9.565135002E0,-7.613561153E-1
3.343198289E0,2.106897593E0,-9.557952881E0,-7.206547260E-1
3.345198255E0,2.109291792E0,-9.557952881E0,-6.847416759E-1
3.347198221E0,2.118868589E0,-9.567529678E0,-6.679822803E-1
3.349198954E0,2.102109194E0,-9.586683273E0,-6.320692301E-1
3.351198987E0,2.080561161E0,-9.610625267E0,-6.033388376E-1
3.353199020E0,2.068590164E0,-9.610625267E0,-5.817909837E-1
3.355199053E0,2.037465572E0,-9.639355659E0,-5.482721925E-1
3.357199086E0,2.027888775E0,-9.646537781E0,-5.339069963E-1
3.359199119E0,2.032677174E0,-9.641749382E0,-4.932055473E-1
3.361199152E0,2.013523579E0,-9.617807388E0,-4.740519226E-1
3.363199185E0,2.013523579E0,-9.615413666E0,-4.477157295E-1
3.365199185E0,1.994369984E0,-9.613018990E0,-3.854664862E-1
3.367199551E0,1.996764183E0,-9.615413666E0,-3.663128614E-1
3.369199517E0,1.982398987E0,-9.610625267E0,-3.543418646E-1
3.371199483E0,1.953668594E0,-9.596260071E0,-3.232172430E-1
3.373199449E0,1.936909199E0,-9.584288597E0,-2.896983922E-1
3.375199415E0,1.912967205E0,-9.574711800E0,-2.633621991E-1
3.377199381E0,1.905784607E0,-9.567529678E0,-2.466027737E-1
3.379199347E0,1.910573006E0,-9.579500198E0,-2.346317619E-1
3.381199347E0,1.910573006E0,-9.586683273E0,-2.274491638E-1
3.383199380E0,1.898601890E0,-9.589076996E0,-2.011129409E-1
3.385199413E0,1.889025092E0,-9.596260071E0,-1.771709323E-1
3.387199446E0,1.867477298E0,-9.596260071E0,-1.747767180E-1
3.389199479E0,1.891419291E0,-9.603442192E0,-1.604115069E-1
3.391199512E0,1.898601890E0,-9.605836868E0,-1.412578970E-1
3.393199545E0,1.912967205E0,-9.605836868E0,-1.244984865E-1
3.395199578E0,1.900996208E0,-9.605836868E0,-1.029506698E-1
3.397199611E0,1.891419291E0,-9.617807388E0,-9.337386489E-2
3.399199611E0,1.908178806E0,-9.648932457E0,-9.337386489E-2
3.401199611E0,1.896207690E0,-9.651326180E0,-8.379705995E-2
3.403199611E0,1.893813491E0,-9.651326180E0,-6.703764945E-2
3.405199611E0,1.881842494E0,-9.665691376E0,-5.267243832E-2
3.407199611E0,1.867477298E0,-9.663297653E0,-5.267243832E-2
3.409198877E0,1.862688899E0,-9.670479774E0,-2.873042040E-2
3.411198843E0,1.826775908E0,-9.694421768E0,-1.436521020E-2
3.413198809E0,1.807622313E0,-9.706393242E0,-2.394201700E-3
3.415199009E0,1.802833915E0,-9.732728958E0,1.436521020E-2
3.417198975E0,1.778891921E0,-9.735123634E0,2.154781483E-2
3.419198941E0,1.764526606E0,-9.747094154E0,3.351882473E-2
3.421198907E0,1.757344007E0,-9.751882553E0,4.070143029E-2
3.423198873E0,1.709460020E0,-9.768642426E0,6.703764945E-2
3.425198839E0,1.697489023E0,-9.787796021E0,7.900865376E-2
3.427198839E0,1.685518026E0,-9.792584419E0,8.619125932E-2
3.429198872E0,1.678335428E0,-9.785401344E0,9.816227108E-2
3.431198905E0,1.663970232E0,-9.773430824E0,9.816227108E-2
3.433198938E0,1.656787634E0,-9.763854027E0,1.053448766E-1
3.435198971E0,1.637633920E0,-9.763854027E0,1.005564705E-1
3.437199004E0,1.637633920E0,-9.761459351E0,1.029506698E-1
3.439199037E0,1.642422318E0,-9.763854027E0,1.053448766E-1
3.441199070E0,1.642422318E0,-9.759065628E0,9.576806426E-2
3.443199070E0,1.647210717E0,-9.761459351E0,8.379705995E-2
3.445198370E0,1.616086125E0,-9.773430824E0,5.985504389E-2
3.447198736E0,1.632845521E0,-9.771036148E0,5.267243832E-2
3.449198702E0,1.647210717E0,-9.761459351E0,3.351882473E-2
3.451198668E0,1.644816518E0,-9.759065628E0,7.182605099E-3
3.453198634E0,1.649604917E0,-9.763854027E0,0.000000000E0
3.455198600E0,1.635239720E0,-9.768642426E0,-4.309562966E-2
3.457198566E0,1.630451322E0,-9.783007622E0,-6.464344263E-2
3.459198566E0,1.637633920E0,-9.792584419E0,-6.943184882E-2
3.461198566E0,1.637633920E0,-9.809343338E0,-1.029506698E-1
3.463198566E0,1.623268723E0,-9.809343338E0,-1.173158810E-1
3.465198566E0,1.589749932E0,-9.814131737E0,-1.508347094E-1
3.467198566E0,1.577778935E0,-9.821314812E0,-1.508347094E-1
3.469198566E0,1.565807939E0,-9.816526413E0,-1.580173075E-1
3.471198566E0,1.529894829E0,-9.814131737E0,-1.747767180E-1
3.473198566E0,1.482010841E0,-9.806949615E0,-1.747767180E-1
3.475198632E0,1.450886250E0,-9.811738014E0,-1.699883193E-1
3.477198665E0,1.424550056E0,-9.811738014E0,-1.699883193E-1
3.479198698E0,1.391031146E0,-9.826103210E0,-1.604115069E-1
3.481198731E0,1.369483352E0,-9.833285332E0,-1.580173075E-1
3.483198764E0,1.319205165E0,-9.818920135E0,-1.364694983E-1
3.485198797E0,1.288080573E0,-9.797372818E0,-1.173158810E-1
3.487198830E0,1.268926859E0,-9.790189743E0,-9.816227108E-2
3.489198830E0,1.230619669E0,-9.768642426E0,-4.788403213E-2
3.491198830E0,1.216254473E0,-9.747094154E0,-3.351882473E-2
3.493198796E0,1.197100878E0,-9.730335236E0,2.394201700E-3
3.495198762E0,1.185129881E0,-9.723152161E0,1.675941236E-2
3.497198728E0,1.177947283E0,-9.715970039E0,1.436521020E-2
3.499198694E0,1.197100878E0,-9.711181641E0,2.394201607E-2
3.501198660E0,1.209071875E0,-9.684844971E0,4.548983276E-2
3.503198626E0,1.209071875E0,-9.675268173E0,4.788403213E-2
3.505199292E0,1.242590666E0,-9.670479774E0,5.027823523E-2
3.507198925E0,1.261744261E0,-9.646537781E0,3.351882473E-2
3.509198958E0,1.273715258E0,-9.634567261E0,1.915361360E-2
3.511198991E0,1.283292055E0,-9.605836868E0,-9.576806799E-3
3.513199024E0,1.307234168E0,-9.593865395E0,-5.746084079E-2
3.515199057E0,1.345541358E0,-9.579500198E0,-1.077390760E-1
3.517199090E0,1.367089152E0,-9.553164482E0,-1.316810995E-1
3.519199123E0,1.381454349E0,-9.524434090E0,-1.556231081E-1
3.521199156E0,1.407790542E0,-9.495702744E0,-2.011129409E-1
3.523199156E0,1.417367458E0,-9.493309021E0,-2.513911724E-1
3.525199156E0,1.443703651E0,-9.483732224E0,-2.944868207E-1
3.527199156E0,1.453280449E0,-9.474155426E0,-3.208230138E-1
3.529199156E0,1.448492050E0,-9.462183952E0,-3.591302633E-1
3.531199156E0,1.455674648E0,-9.459790230E0,-3.734954596E-1
3.533199156E0,1.491587639E0,-9.447818756E0,-4.165911078E-1
3.535198522E0,1.510741234E0,-9.428665161E0,-4.548983276E-1
3.537198488E0,1.515529633E0,-9.421483040E0,-4.692635238E-1
3.539198454E0,1.525106430E0,-9.421483040E0,-5.003881454E-1
3.541198420E0,1.527500629E0,-9.421483040E0,-5.123591423E-1
3.543198386E0,1.522712231E0,-9.404723167E0,-5.339069963E-1
3.545198352E0,1.515529633E0,-9.395146370E0,-5.386953950E-1
3.547197952E0,1.525106430E0,-9.407117844E0,-5.410895944E-1
3.549197918E0,1.556231141E0,-9.426271439E0,-5.458779931E-1
3.551197884E0,1.549048543E0,-9.464578629E0,-5.434837937E-1
3.553197884E0,1.546654344E0,-9.483732224E0,-5.386953950E-1
3.555197917E0,1.546654344E0,-9.500492096E0,-5.099649429E-1
3.557197950E0,1.561019540E0,-9.505280495E0,-5.099649429E-1
3.559197983E0,1.565807939E0,-9.514857292E0,-5.123591423E-1
3.561198016E0,1.575384736E0,-9.517251015E0,-5.027823448E-1
3.563198049E0,1.601720929E0,-9.519645691E0,-4.812345505E-1
3.565198082E0,1.608903527E0,-9.510068893E0,-4.548983276E-1
3.567198082E0,1.620874524E0,-9.505280495E0,-4.453215301E-1
3.569198082E0,1.625662923E0,-9.510068893E0,-4.381389022E-1
3.571198048E0,1.654393315E0,-9.534010887E0,-4.189853072E-1
3.573198014E0,1.649604917E0,-9.545981407E0,-3.902548850E-1
3.575197980E0,1.675941229E0,-9.548376083E0,-3.734954596E-1
3.577197946E0,1.678335428E0,-9.541193008E0,-3.663128614E-1
3.579197912E0,1.695094824E0,-9.548376083E0,-3.639186621E-1
3.581197878E0,1.695094824E0,-9.541193008E0,-3.615244627E-1
3.583197878E0,1.714248419E0,-9.519645691E0,-3.615244627E-1
3.585197911E0,1.747767210E0,-9.495702744E0,-3.639186621E-1
3.587197944E0,1.757344007E0,-9.483732224E0,-3.687070608E-1
3.589197977E0,1.774103403E0,-9.493309021E0,-3.711012602E-1
3.591198010E0,1.805228114E0,-9.495702744E0,-3.758896589E-1
3.593198043E0,1.821987510E0,-9.507674217E0,-3.758896589E-1
3.595198409E0,1.843535304E0,-9.483732224E0,-3.854664862E-1
3.597198442E0,1.853112102E0,-9.471760750E0,-3.974374831E-1
3.599198475E0,1.889025092E0,-9.464578629E0,-4.141969085E-1
3.601198475E0,1.893813491E0,-9.462183952E0,-4.141969085E-1
3.603198475E0,1.891419291E0,-9.464578629E0,-4.237737060E-1
3.605198475E0,1.898601890E0,-9.443030357E0,-4.501099288E-1
3.607198375E0,1.900996208E0,-9.440636635E0,-4.453215301E-1
3.609198375E0,1.908178806E0,-9.440636635E0,-4.501099288E-1
3.611198375E0,1.922544003E0,-9.443030357E0,-4.453215301E-1
3.613198375E0,1.932120800E0,-9.457395554E0,-4.525041282E-1
3.615198341E0,1.939303398E0,-9.469367027E0,-4.525041282E-1
3.617198307E0,1.948880196E0,-9.486125946E0,-4.548983276E-1
3.619198273E0,1.958456993E0,-9.495702744E0,-4.644751251E-1
3.621198239E0,1.944091797E0,-9.505280495E0,-4.668693244E-1
3.623197839E0,1.968033791E0,-9.526827812E0,-4.788403511E-1
3.625197805E0,1.953668594E0,-9.543587685E0,-4.860229492E-1
3.627197771E0,1.946485996E0,-9.541193008E0,-4.788403511E-1
3.629197737E0,1.956062794E0,-9.553164482E0,-4.764461517E-1
3.631197737E0,1.965639591E0,-9.565135002E0,-4.836287498E-1
3.633197770E0,1.968033791E0,-9.593865395E0,-4.836287498E-1
3.635197803E0,1.965639591E0,-9.608230591E0,-4.884171486E-1
3.637198536E0,1.958456993E0,-9.610625267E0,-4.884171486E-1
3.639197902E0,1.965639591E0,-9.613018990E0,-5.051765442E-1
3.641197935E0,1.972822189E0,-9.608230591E0,-5.099649429E-1
3.643197968E0,1.963245392E0,-9.603442192E0,-5.075707436E-1
3.645197968E0,1.956062794E0,-9.629778862E0,-5.099649429E-1
3.647197968E0,1.956062794E0,-9.644144058E0,-5.147533417E-1
3.649197934E0,1.948880196E0,-9.624990463E0,-5.147533417E-1
3.651197900E0,1.932120800E0,-9.591471672E0,-5.003881454E-1
3.653197866E0,1.936909199E0,-9.581894875E0,-4.932055473E-1
3.655198132E0,1.939303398E0,-9.574711800E0,-4.979939461E-1
3.657198098E0,1.939303398E0,-9.562741280E0,-4.979939461E-1
3.659198064E0,1.934514999E0,-9.555558205E0,-5.075707436E-1
3.661197830E0,1.924938202E0,-9.550769806E0,-5.147533417E-1
3.663197830E0,1.917755604E0,-9.543587685E0,-5.147533417E-1
3.665197863E0,1.917755604E0,-9.534010887E0,-5.195417404E-1
3.667197963E0,1.924938202E0,-9.526827812E0,-5.075707436E-1
3.669197996E0,1.920149803E0,-9.531616211E0,-5.075707436E-1
3.671198029E0,1.915361404E0,-9.531616211E0,-5.099649429E-1
3.673198062E0,1.920149803E0,-9.507674217E0,-5.315127969E-1
3.675198095E0,1.929726601E0,-9.517251015E0,-5.243301988E-1
3.677198128E0,1.929726601E0,-9.510068893E0,-5.195417404E-1
3.679198128E0,1.939303398E0,-9.522039413E0,-5.363011956E-1
3.681198128E0,1.948880196E0,-9.519645691E0,-5.386953950E-1
3.683198494E0,1.975216389E0,-9.502885818E0,-5.410895944E-1
3.685198494E0,1.987187386E0,-9.522039413E0,-5.434837937E-1
3.687198494E0,1.994369984E0,-9.526827812E0,-5.434837937E-1
3.689198494E0,2.008735180E0,-9.538799286E0,-5.410895944E-1
3.691198494E0,2.001552582E0,-9.557952881E0,-5.506663918E-1
3.693198460E0,2.003946781E0,-9.560346603E0,-5.506663918E-1
3.695198426E0,2.030282974E0,-9.553164482E0,-5.530605912E-1
3.697196826E0,2.030282974E0,-9.548376083E0,-5.506663918E-1
3.699197459E0,2.039859772E0,-9.579500198E0,-5.626373887E-1
3.701197425E0,2.075772762E0,-9.596260071E0,-5.770025849E-1
3.703197391E0,2.080561161E0,-9.591471672E0,-5.722141862E-1
3.705197357E0,2.087743998E0,-9.603442192E0,-5.698199868E-1
3.707197323E0,2.092532396E0,-9.615413666E0,-5.722141862E-1
3.709197323E0,2.104503393E0,-9.620202065E0,-5.746083856E-1
3.711197356E0,2.116474390E0,-9.615413666E0,-5.865794420E-1
3.713197389E0,2.109291792E0,-9.608230591E0,-5.793967843E-1
3.715197655E0,2.090138197E0,-9.608230591E0,-5.698199868E-1
3.717197688E0,2.097320795E0,-9.615413666E0,-5.650315881E-1
3.719197721E0,2.082955360E0,-9.598653793E0,-5.674257874E-1
3.721197987E0,2.059013367E0,-9.591471672E0,-5.722141862E-1
3.723198020E0,2.059013367E0,-9.581894875E0,-5.770025849E-1
3.725198020E0,2.073378563E0,-9.565135002E0,-5.746083856E-1
3.727197986E0,2.078166962E0,-9.567529678E0,-5.793967843E-1
3.729197952E0,2.063801765E0,-9.562741280E0,-5.698199868E-1
3.731197918E0,2.051830769E0,-9.557952881E0,-5.626373887E-1
3.733197884E0,2.025494576E0,-9.562741280E0,-5.626373887E-1
3.735197850E0,2.013523579E0,-9.550769806E0,-5.554547906E-1
3.737197816E0,2.013523579E0,-9.555558205E0,-5.554547906E-1
3.739197816E0,1.975216389E0,-9.555558205E0,-5.410895944E-1
3.741197816E0,1.975216389E0,-9.550769806E0,-5.554547906E-1
3.743197849E0,1.972822189E0,-9.550769806E0,-5.554547906E-1
3.745197882E0,1.948880196E0,-9.548376083E0,-5.530605912E-1
3.747197915E0,1.927332401E0,-9.555558205E0,-5.434837937E-1
3.749197948E0,1.920149803E0,-9.555558205E0,-5.363011956E-1
3.751197981E0,1.910573006E0,-9.560346603E0,-5.219359994E-1
3.753198014E0,1.872265697E0,-9.572318077E0,-5.219359994E-1
3.755198047E0,1.826775908E0,-9.567529678E0,-5.243301988E-1
3.757199013E0,1.814804912E0,-9.567529678E0,-5.147533417E-1
3.759199013E0,1.807622313E0,-9.581894875E0,-5.099649429E-1
3.761199013E0,1.798045516E0,-9.596260071E0,-5.123591423E-1
3.763199013E0,1.783680320E0,-9.613018990E0,-5.027823448E-1
3.765199013E0,1.769315004E0,-9.632172585E0,-4.836287498E-1
3.767199013E0,1.752555609E0,-9.629778862E0,-4.836287498E-1
3.769199013E0,1.726219416E0,-9.627384186E0,-4.788403511E-1
3.771198979E0,1.731007814E0,-9.639355659E0,-4.788403511E-1
3.773198945E0,1.721431017E0,-9.656114578E0,-4.716577232E-1
3.775198378E0,1.699883223E0,-9.677662849E0,-4.644751251E-1
3.777198344E0,1.685518026E0,-9.687239647E0,-4.644751251E-1
3.779198310E0,1.678335428E0,-9.713575363E0,-4.668693244E-1
3.781198276E0,1.675941229E0,-9.715970039E0,-4.620809257E-1
3.783198242E0,1.678335428E0,-9.715970039E0,-4.596867263E-1
3.785198208E0,1.678335428E0,-9.744700432E0,-4.884171486E-1
3.787198208E0,1.675941229E0,-9.756670952E0,-4.884171486E-1
3.789198241E0,1.675941229E0,-9.780612946E0,-5.051765442E-1
3.791198274E0,1.666364431E0,-9.778219223E0,-5.075707436E-1
3.793198307E0,1.666364431E0,-9.775824547E0,-5.075707436E-1
3.795198340E0,1.671152830E0,-9.794978142E0,-5.171475410E-1
3.797198373E0,1.671152830E0,-9.790189743E0,-5.219359994E-1
3.799198406E0,1.659181833E0,-9.792584419E0,-5.267243981E-1
3.801198439E0,1.661576033E0,-9.799766541E0,-5.363011956E-1
3.803198439E0,1.685518026E0,-9.802161217E0,-5.410895944E-1
3.805198405E0,1.683123827E0,-9.794978142E0,-5.482721925E-1
3.807198371E0,1.680729628E0,-9.790189743E0,-5.386953950E-1
3.809198337E0,1.673547029E0,-9.780612946E0,-5.410895944E-1
3.811198303E0,1.673547029E0,-9.771036148E0,-5.482721925E-1
3.813198269E0,1.680729628E0,-9.754277229E0,-5.267243981E-1
3.815198235E0,1.666364431E0,-9.747094154E0,-5.291185975E-1
3.817197368E0,1.659181833E0,-9.735123634E0,-5.315127969E-1
3.819197368E0,1.651999116E0,-9.730335236E0,-5.219359994E-1
3.821197401E0,1.640028119E0,-9.723152161E0,-5.171475410E-1
3.823197434E0,1.644816518E0,-9.696816444E0,-5.195417404E-1
3.825197467E0,1.644816518E0,-9.699210167E0,-4.979939461E-1
3.827197500E0,1.632845521E0,-9.696816444E0,-4.908113480E-1
3.829197533E0,1.620874524E0,-9.687239647E0,-4.908113480E-1
3.831197566E0,1.625662923E0,-9.684844971E0,-4.908113480E-1
3.833197599E0,1.623268723E0,-9.687239647E0,-4.884171486E-1
3.835197599E0,1.630451322E0,-9.696816444E0,-4.812345505E-1
3.837197599E0,1.628057122E0,-9.692028046E0,-4.692635238E-1
3.839196932E0,1.630451322E0,-9.687239647E0,-4.692635238E-1
3.841196932E0,1.651999116E0,-9.682451248E0,-4.668693244E-1
3.843196932E0,1.647210717E0,-9.689633369E0,-4.644751251E-1
3.845196932E0,1.671152830E0,-9.687239647E0,-4.596867263E-1
3.847196998E0,1.675941229E0,-9.672874451E0,-4.596867263E-1
3.849196964E0,1.683123827E0,-9.665691376E0,-4.548983276E-1
3.851196930E0,1.683123827E0,-9.672874451E0,-4.405331016E-1
3.853196896E0,1.687912226E0,-9.687239647E0,-4.357447028E-1
3.855196862E0,1.697489023E0,-9.675268173E0,-4.429273009E-1
3.857196828E0,1.711854219E0,-9.684844971E0,-4.357447028E-1
3.859196794E0,1.709460020E0,-9.692028046E0,-4.261679053E-1
3.861196094E0,1.714248419E0,-9.680056572E0,-4.237737060E-1
3.863196060E0,1.742978811E0,-9.663297653E0,-4.165911078E-1
3.865196060E0,1.735796213E0,-9.665691376E0,-4.357447028E-1
3.867196093E0,1.742978811E0,-9.660902977E0,-4.309563041E-1
3.869196126E0,1.776497602E0,-9.648932457E0,-4.094084799E-1
3.871196159E0,1.781286120E0,-9.648932457E0,-4.070142806E-1
3.873196192E0,1.810016513E0,-9.656114578E0,-3.998316824E-1
3.875196225E0,1.829170108E0,-9.634567261E0,-4.261679053E-1
3.877197025E0,1.826775908E0,-9.632172585E0,-4.285621047E-1
3.879197058E0,1.848323703E0,-9.629778862E0,-4.189853072E-1
3.881197058E0,1.881842494E0,-9.624990463E0,-4.477157295E-1
3.883197024E0,1.898601890E0,-9.615413666E0,-4.429273009E-1
3.885196990E0,1.903390408E0,-9.584288597E0,-4.213795066E-1
3.887196956E0,1.896207690E0,-9.586683273E0,-4.357447028E-1
3.889196922E0,1.893813491E0,-9.574711800E0,-4.501099288E-1
3.891196888E0,1.924938202E0,-9.574711800E0,-4.453215301E-1
3.893196854E0,1.939303398E0,-9.569923401E0,-4.429273009E-1
3.895197354E0,1.956062794E0,-9.543587685E0,-4.333505034E-1
3.897197354E0,1.960851192E0,-9.538799286E0,-4.357447028E-1
3.899198054E0,1.956062794E0,-9.538799286E0,-4.501099288E-1
3.901198087E0,1.953668594E0,-9.534010887E0,-4.692635238E-1
3.903198120E0,1.958456993E0,-9.541193008E0,-4.932055473E-1
3.905198153E0,1.963245392E0,-9.536404610E0,-5.027823448E-1
3.907198519E0,1.984793186E0,-9.531616211E0,-5.051765442E-1
3.909198552E0,1.999158382E0,-9.526827812E0,-5.171475410E-1
3.911198585E0,1.987187386E0,-9.526827812E0,-5.219359994E-1
3.913198618E0,1.972822189E0,-9.512462616E0,-5.363011956E-1
3.915198618E0,1.970427990E0,-9.498097420E0,-5.363011956E-1
3.917198618E0,1.975216389E0,-9.498097420E0,-5.434837937E-1
3.919198151E0,1.982398987E0,-9.493309021E0,-5.650315881E-1
3.921198817E0,1.972822189E0,-9.483732224E0,-5.746083856E-1
3.923198817E0,1.960851192E0,-9.471760750E0,-5.722141862E-1
3.925198817E0,1.965639591E0,-9.478943825E0,-5.793967843E-1
3.927198783E0,1.960851192E0,-9.483732224E0,-5.817909837E-1
3.929198749E0,1.936909199E0,-9.478943825E0,-5.913678408E-1
3.931198715E0,1.934514999E0,-9.476549149E0,-5.985504389E-1
3.933198681E0,1.929726601E0,-9.481337547E0,-5.961562395E-1
3.935198647E0,1.900996208E0,-9.495702744E0,-5.937620401E-1
3.937198613E0,1.898601890E0,-9.490914345E0,-6.105214357E-1
3.939198313E0,1.881842494E0,-9.486125946E0,-6.129156351E-1
3.941198279E0,1.855506301E0,-9.474155426E0,-6.320692301E-1
3.943198279E0,1.843535304E0,-9.478943825E0,-6.344634295E-1
3.945198312E0,1.836352706E0,-9.510068893E0,-6.440402865E-1
3.947198345E0,1.814804912E0,-9.514857292E0,-6.464344859E-1
3.949198378E0,1.800439715E0,-9.529222488E0,-6.464344859E-1
3.951198411E0,1.790862918E0,-9.548376083E0,-6.584054828E-1
3.953198444E0,1.774103403E0,-9.557952881E0,-6.703764796E-1
3.955197577E0,1.776497602E0,-9.569923401E0,-6.871358752E-1
3.957197610E0,1.774103403E0,-9.565135002E0,-6.943184733E-1
3.959197610E0,1.759738207E0,-9.581894875E0,-6.871358752E-1
3.961197276E0,1.742978811E0,-9.581894875E0,-6.871358752E-1
3.963197242E0,1.728613615E0,-9.593865395E0,-6.895300746E-1
3.965197208E0,1.728613615E0,-9.596260071E0,-7.134721279E-1
3.967197074E0,1.721431017E0,-9.586683273E0,-7.254431248E-1
3.969197040E0,1.723825216E0,-9.581894875E0,-7.350199223E-1
3.971197006E0,1.719036818E0,-9.601048470E0,-7.374141216E-1
3.973196972E0,1.697489023E0,-9.603442192E0,-7.517793179E-1
3.975196972E0,1.687912226E0,-9.581894875E0,-7.733271718E-1
3.977197005E0,1.687912226E0,-9.567529678E0,-7.733271718E-1
3.979197505E0,1.680729628E0,-9.572318077E0,-7.733271718E-1
3.981197538E0,1.692700624E0,-9.572318077E0,-8.044517636E-1
3.983197571E0,1.695094824E0,-9.562741280E0,-8.092401624E-1
3.985197604E0,1.695094824E0,-9.557952881E0,-8.140285611E-1
3.987197637E0,1.699883223E0,-9.572318077E0,-8.379706144E-1
3.989197670E0,1.699883223E0,-9.577106476E0,-8.379706144E-1
3.991197703E0,1.709460020E0,-9.586683273E0,-8.379706144E-1
3.993197703E0,1.699883223E0,-9.603442192E0,-8.379706144E-1
3.995197703E0,1.716642618E0,-9.581894875E0,-8.403648138E-1
3.997197303E0,1.723825216E0,-9.591471672E0,-8.451532125E-1
3.999197569E0,1.723825216E0,-9.601048470E0,-8.475474119E-1
4.001197569E0,1.721431017E0,-9.598653793E0,-8.499416113E-1
4.003197569E0,1.747767210E0,-9.605836868E0,-8.547300100E-1
4.005197535E0,1.742978811E0,-9.608230591E0,-8.571242094E-1
4.007197501E0,1.747767210E0,-9.613018990E0,-8.475474119E-1
4.009197467E0,1.757344007E0,-9.620202065E0,-8.427590132E-1
4.011197433E0,1.771709204E0,-9.615413666E0,-8.355764151E-1
4.013197399E0,1.774103403E0,-9.617807388E0,-8.236053586E-1
4.015197399E0,1.769315004E0,-9.624990463E0,-8.164227605E-1
4.017197365E0,1.771709204E0,-9.613018990E0,-8.116343617E-1
4.019197331E0,1.786074519E0,-9.605836868E0,-7.948749661E-1
4.021197564E0,1.795651317E0,-9.610625267E0,-7.948749661E-1
4.023197597E0,1.795651317E0,-9.615413666E0,-7.852981687E-1
4.025197630E0,1.805228114E0,-9.601048470E0,-7.709329724E-1
4.027197530E0,1.802833915E0,-9.603442192E0,-7.757213712E-1
4.029197563E0,1.807622313E0,-9.605836868E0,-7.589619160E-1
4.031197596E0,1.829170108E0,-9.610625267E0,-7.493851185E-1
4.033197629E0,1.831564307E0,-9.610625267E0,-7.398083210E-1
4.035197662E0,1.857900500E0,-9.622595787E0,-7.350199223E-1
4.037197662E0,1.860294700E0,-9.620202065E0,-7.350199223E-1
4.039197628E0,1.857900500E0,-9.622595787E0,-7.326257229E-1
4.041197594E0,1.874659896E0,-9.617807388E0,-7.182605267E-1
4.043196860E0,1.891419291E0,-9.608230591E0,-7.254431248E-1
4.045195926E0,1.879448295E0,-9.603442192E0,-7.086837292E-1
4.047195892E0,1.889025092E0,-9.608230591E0,-7.062895298E-1
4.049195858E0,1.891419291E0,-9.605836868E0,-7.110779285E-1
4.051195824E0,1.908178806E0,-9.610625267E0,-7.134721279E-1
4.053195824E0,1.920149803E0,-9.605836868E0,-7.062895298E-1
4.055195857E0,1.927332401E0,-9.603442192E0,-6.895300746E-1
4.057195857E0,1.924938202E0,-9.593865395E0,-6.823474765E-1
4.059195657E0,1.920149803E0,-9.577106476E0,-6.871358752E-1
4.061195023E0,1.915361404E0,-9.572318077E0,-6.847416759E-1
4.063194723E0,1.932120800E0,-9.581894875E0,-6.751648784E-1
4.065194089E0,1.922544003E0,-9.574711800E0,-6.560112834E-1
4.067194322E0,1.927332401E0,-9.584288597E0,-6.536170840E-1
4.069194022E0,1.941697598E0,-9.562741280E0,-6.416460276E-1
4.071194022E0,1.951274395E0,-9.557952881E0,-6.416460276E-1
4.073194022E0,1.956062794E0,-9.567529678E0,-6.368576288E-1
4.075194388E0,1.960851192E0,-9.581894875E0,-6.392518282E-1
4.077194388E0,1.963245392E0,-9.572318077E0,-6.416460276E-1
