"Time (s)","Acceleration x (m/s^2)","Acceleration y (m/s^2)","Acceleration z (m/s^2)"
5.479524000E-3,-3.238685369E0,6.479763508E0,6.405586243E0
1.025598200E-2,-3.290131092E0,6.474380016E0,6.573681831E0
1.503238800E-2,-3.303291559E0,6.479165554E0,6.780063152E0
1.980884700E-2,-3.306880951E0,6.498308182E0,6.933203697E0
2.458530500E-2,-3.364308596E0,6.469594002E0,6.981658459E0
2.936176300E-2,-3.425923824E0,6.430710793E0,6.938587666E0
3.413817000E-2,-3.497708559E0,6.372684956E0,6.862615108E0
3.891462800E-2,-3.578466177E0,6.285944939E0,6.800402164E0
4.369108600E-2,-3.579064369E0,6.242874146E0,6.752545357E0
4.846749300E-2,-3.531208038E0,6.300302029E0,6.776473522E0
5.324395100E-2,-3.464807272E0,6.397211552E0,6.818946362E0
5.802040900E-2,-3.446861029E0,6.556334019E0,6.775875568E0
6.279686800E-2,-3.571287870E0,6.700501442E0,6.641877651E0
6.757327400E-2,-3.800998688E0,6.792026997E0,6.465406895E0
7.234973200E-2,-4.049852371E0,6.873383045E0,6.269793510E0
7.712619100E-2,-4.145565033E0,6.834499836E0,6.188437462E0
8.190259700E-2,-3.945764542E0,6.652047157E0,6.034100533E0
8.667905500E-2,-3.861417532E0,6.637690067E0,5.846862316E0
9.145551300E-2,-3.980460405E0,6.748358250E0,5.857031822E0
9.623197200E-2,-3.870988846E0,6.729215622E0,5.904289722E0
1.010083780E-1,-3.747160196E0,6.729215622E0,5.965905190E0
1.057848360E-1,-3.680161238E0,6.763313293E0,5.970690727E0
1.105612950E-1,-3.509074450E0,6.749554634E0,6.007779598E0
1.153377010E-1,-2.985046148E0,6.716653347E0,6.072385788E0
1.201141590E-1,-1.809572101E0,6.772884369E0,6.157330990E0
1.248772840E-1,-1.463809252E0,6.556334019E0,6.554539204E0
1.296670760E-1,-1.776072621E0,6.174678802E0,6.599404812E0
1.344434820E-1,-2.182254314E0,5.769095421E0,6.817749977E0
1.392199410E-1,-2.264806747E0,5.373681545E0,7.202396393E0
1.439963990E-1,-2.232503414E0,5.118247509E0,7.605587006E0
1.487728050E-1,-2.178066730E0,5.002793789E0,7.902894974E0
1.535359820E-1,-2.033899307E0,5.007579803E0,8.213961601E0
1.583257220E-1,-1.841277003E0,5.084748268E0,8.615956306E0
1.631021800E-1,-1.688136339E0,5.109274387E0,8.836095810E0
1.678653050E-1,-1.577468276E0,5.143372059E0,9.032307625E0
1.726550450E-1,-1.390828133E0,5.119443893E0,9.175278664E0
1.774315030E-1,-1.204786181E0,5.066802025E0,9.241081238E0
1.822079610E-1,-1.033101201E0,4.999803066E0,9.221340179E0
1.869843680E-1,-8.051848412E-1,4.962115765E0,9.119645119E0
1.917608260E-1,-5.258227587E-1,4.832903385E0,8.921639442E0
1.965239510E-1,-1.938186288E-1,4.713262558E0,8.699107170E0
2.013136910E-1,3.200400174E-1,4.618147850E0,8.585447311E0
2.060901490E-1,7.854440212E-1,4.532604218E0,8.449056625E0
2.108532740E-1,1.218544960E0,4.552943230E0,8.384450912E0
2.156430130E-1,1.589432478E0,4.611567497E0,8.416155815E0
2.204194720E-1,1.808375716E0,4.679762840E0,8.515457153E0
2.251825970E-1,1.980060697E0,4.704289436E0,8.557929993E0
2.299723880E-1,2.012962103E0,4.636692047E0,8.538188934E0
2.347487950E-1,1.979462504E0,4.429712772E0,8.322834969E0
2.395252530E-1,1.822134495E0,4.173680782E0,8.184649467E0
2.443017110E-1,1.599003673E0,3.956532240E0,8.066205025E0
2.490781180E-1,1.417747378E0,3.869194269E0,7.932805061E0
2.538545760E-1,1.402792215E0,3.783052683E0,7.798807144E0
2.586310340E-1,1.374676585E0,3.585046530E0,7.813164234E0
2.634074930E-1,1.280758262E0,3.613760471E0,8.005785942E0
2.681838990E-1,1.139581800E0,3.661616802E0,8.279764175E0
2.729603570E-1,9.355936646E-1,3.704089403E0,8.463413239E0
2.777368160E-1,8.309076428E-1,3.809971809E0,8.535796165E0
2.825132740E-1,7.417750359E-1,3.958925009E0,8.766703606E0
2.872896800E-1,7.716853023E-1,4.069592953E0,9.040083885E0
2.920661380E-1,7.495517135E-1,4.151547432E0,9.380462646E0
2.968425970E-1,5.216353536E-1,4.112065792E0,9.415159225E0
3.016190030E-1,-1.022931710E-1,3.899104595E0,9.207581520E0
3.063954610E-1,-4.971089065E-1,3.768097401E0,9.166903496E0
3.111719200E-1,-6.873382926E-1,3.825525284E0,9.143573761E0
3.159483780E-1,-5.641079545E-1,4.076173306E0,9.195617676E0
3.207247840E-1,-3.529413417E-2,4.308875561E0,9.513862610E0
3.255012430E-1,3.487538993E-1,4.511667252E0,1.009771156E1
3.302777010E-1,6.209374666E-1,4.651647091E0,1.033579731E1
3.350541070E-1,1.448255897E0,4.596014023E0,1.020718288E1
3.398172840E-1,2.214557409E0,4.409972191E0,1.028495026E1
3.446070240E-1,2.826521635E0,4.223331928E0,1.064148045E1
3.493834820E-1,3.200400352E0,3.920639992E0,1.091844940E1
3.541466070E-1,3.154338360E0,3.530609846E0,1.100518990E1
3.589363470E-1,2.779861689E0,3.433102369E0,1.113200951E1
3.637128050E-1,2.532802820E0,3.557528973E0,1.125284672E1
3.684892630E-1,2.380858421E0,3.658625841E0,1.133539867E1
3.732656700E-1,2.309672117E0,3.879363775E0,1.141256714E1
3.780421280E-1,2.232503414E0,3.975674868E0,1.141256714E1
3.828185860E-1,2.132004976E0,4.023531437E0,1.135573769E1
3.875949930E-1,2.065006018E0,4.018745422E0,1.125523949E1
3.923714510E-1,1.814357758E0,3.970290899E0,1.065643597E1
3.971479090E-1,1.768295884E0,3.922434568E0,1.011924744E1
4.019243680E-1,2.048854351E0,3.933202267E0,9.354740143E0
4.067007740E-1,2.120639086E0,3.957728624E0,8.687741280E0
4.114639510E-1,1.797009826E0,4.260420799E0,7.969295979E0
4.162536910E-1,1.307079315E0,4.568496704E0,7.304090977E0
4.210300970E-1,8.213363886E-1,4.813162804E0,6.668796539E0
4.257932740E-1,3.427718580E-1,4.936991215E0,6.214758396E0
4.305830130E-1,-4.486542568E-2,4.965106964E0,5.976672649E0
4.353594720E-1,-2.691925466E-1,4.974678040E0,5.839085579E0
4.401225970E-1,-3.367897868E-1,5.090131760E0,5.714658737E0
4.449123360E-1,-1.232303679E-1,5.273182869E0,5.684150219E0
4.496887950E-1,6.185446382E-1,5.106283665E0,6.337988853E0
4.544652530E-1,1.279561877E0,4.828716278E0,6.876972198E0
4.592416590E-1,1.389033556E0,4.765904427E0,6.847660065E0
4.640181180E-1,1.358525038E0,4.606781960E0,7.222136974E0
4.687945760E-1,1.465005636E0,4.616951466E0,7.495516777E0
4.735709820E-1,1.451246977E0,4.707878590E0,7.649255753E0
4.783474410E-1,1.094716311E0,4.731208801E0,7.775477409E0
4.831238990E-1,1.938186288E-1,4.507479668E0,8.126026154E0
4.879003570E-1,1.944168359E-1,4.348356724E0,8.154739380E0
4.926767630E-1,5.653043389E-1,4.276572227E0,8.023134232E0
4.974532220E-1,9.487541914E-1,4.340580463E0,7.867600918E0
5.022296800E-1,1.313659668E0,4.587639332E0,7.654639721E0
5.070061380E-1,1.932802439E0,4.926223755E0,7.228717327E0
5.117692630E-1,2.906083107E0,5.193621635E0,6.978667259E0
5.165590030E-1,3.245265722E0,5.175076962E0,7.264609337E0
5.213354610E-1,2.177468538E0,5.119443893E0,7.659425259E0
5.261118680E-1,1.899302959E0,4.805386066E0,7.872386456E0
5.308883260E-1,1.855035782E0,4.564309120E0,8.289934158E0
5.356647840E-1,1.910668850E0,4.444069862E0,8.818149567E0
5.404279090E-1,2.175075769E0,4.396213531E0,9.257830620E0
5.452176490E-1,2.410768747E0,4.459024906E0,9.606584549E0
5.499941070E-1,2.795415163E0,4.691128731E0,9.695717812E0
5.547572320E-1,3.636492252E0,5.063810825E0,9.681360245E0
5.595470240E-1,3.903291941E0,4.992624283E0,9.708877563E0
5.643234300E-1,4.112065792E0,4.877170563E0,9.554540634E0
5.690865550E-1,4.201198578E0,4.666004181E0,9.304491043E0
5.738763470E-1,5.078167915E0,4.027120590E0,9.190233231E0
5.786527530E-1,4.739583492E0,4.006781578E0,8.966505051E0
5.834292110E-1,4.100699902E0,4.179064751E0,8.859425545E0
5.882056700E-1,3.728615999E0,4.361517429E0,8.765507698E0
5.929821280E-1,3.650250912E0,4.525425911E0,8.548956871E0
5.977585340E-1,3.809971809E0,4.622334957E0,8.203194618E0
6.025349930E-1,3.865006685E0,4.723432064E0,7.910073280E0
6.073114510E-1,3.853042603E0,4.810171604E0,7.564908981E0
6.120745760E-1,3.473181963E0,4.954339504E0,7.019345284E0
6.168643160E-1,3.108276606E0,5.155336380E0,6.603592396E0
6.216407740E-1,2.911466837E0,5.357530117E0,6.427121639E0
6.264038990E-1,2.968894720E0,5.435296535E0,6.532405853E0
6.311936910E-1,3.093321562E0,5.440082073E0,6.661019802E0
6.359700970E-1,3.087937593E0,5.469394207E0,6.565307140E0
6.407465550E-1,3.277568817E0,5.276772022E0,6.323632240E0
6.455230130E-1,3.553939819E0,4.767100811E0,6.064010620E0
6.502994200E-1,3.802195072E0,4.392025948E0,6.053243160E0
6.550758780E-1,4.227519512E0,4.247858524E0,6.324230194E0
6.598523360E-1,5.545964718E0,3.697509289E0,6.159723759E0
6.646287950E-1,7.499105930E0,3.099303484E0,6.226722717E0
6.693919200E-1,7.035496712E0,3.508476257E0,6.046662807E0
6.741816590E-1,7.000202656E0,3.753740549E0,5.849853039E0
6.789581180E-1,7.009175777E0,3.932005882E0,5.801996708E0
6.837212430E-1,6.923034191E0,4.047459602E0,5.830710411E0
6.885109820E-1,6.993622303E0,4.071985722E0,5.720042706E0
6.932874410E-1,6.697510719E0,4.090530396E0,5.577669621E0
6.980638990E-1,6.384050846E0,3.872783422E0,5.574678421E0
7.028403570E-1,5.731408596E0,3.712464333E0,6.034100533E0
7.076167630E-1,5.283352375E0,3.623929977E0,6.674778938E0
7.123932220E-1,4.925027370E0,3.666402578E0,7.276573658E0
7.171696800E-1,4.570291042E0,3.728017569E0,7.547560692E0
7.219461380E-1,4.127619267E0,3.765704632E0,7.616952896E0
7.267092630E-1,3.717249870E0,3.783650875E0,7.402196884E0
7.314990030E-1,3.281756163E0,3.845266104E0,7.030711174E0
7.362754610E-1,2.927020311E0,3.796811342E0,6.595815659E0
7.410385860E-1,2.673381090E0,3.671188116E0,6.208178520E0
7.458283260E-1,2.543570518E0,3.516851187E0,5.944967747E0
7.506047840E-1,2.490330219E0,3.396611691E0,5.710471153E0
7.553679090E-1,2.532204628E0,3.194418192E0,5.398806095E0
7.601576490E-1,2.907279491E0,2.881556749E0,5.170889854E0
7.649341070E-1,2.925225735E0,2.655434847E0,4.854438782E0
7.697105660E-1,3.267399311E0,2.487937450E0,4.766502857E0
7.744870240E-1,3.408575773E0,2.373081923E0,4.377070904E0
7.792634300E-1,3.518645763E0,2.310868502E0,3.642474174E0
7.840266070E-1,4.159922123E0,2.211566210E0,3.466601849E0
7.888163470E-1,4.801198483E0,2.198405743E0,3.318845034E0
7.935928050E-1,6.264409542E0,2.173281193E0,2.970091105E0
7.983559300E-1,7.223931789E0,2.614158630E0,2.912065268E0
8.031456700E-1,6.379863262E0,2.712862730E0,3.445066452E0
8.079221280E-1,5.876772404E0,2.672782898E0,3.577269793E0
8.126985340E-1,5.302495003E0,2.599203587E0,3.800400496E0
8.174749930E-1,4.875974178E0,2.583650351E0,4.018745422E0
8.222514510E-1,4.937589645E0,2.578864574E0,4.042674065E0
8.270279090E-1,5.156532764E0,2.440080881E0,3.984049797E0
8.318043160E-1,5.096114159E0,2.300100803E0,4.099503517E0
8.365807740E-1,5.331208706E0,2.522633314E0,3.858426571E0
8.413438990E-1,6.965506554E0,3.342773199E0,-1.435693651E-1
8.461336910E-1,7.338188648E0,3.145365477E0,8.015955985E-2
8.509100970E-1,7.545167923E0,2.852244616E0,3.002992272E-1
8.556732740E-1,6.990631580E0,2.976073265E0,-8.392825127E-1
8.604630130E-1,7.204789162E0,3.141177893E0,-1.551147223E0
8.652394720E-1,8.424530029E0,3.963112593E0,-2.310868502E0
8.700025970E-1,9.503094673E0,4.414757729E0,-3.185445070E0
8.747923360E-1,9.230911255E0,3.444468260E0,-6.981059909E-1
8.795687950E-1,8.458627701E0,2.501696110E0,2.517249346E0
8.843319200E-1,9.114261627E0,3.142972469E0,3.387040377E0
8.891216590E-1,9.017352104E0,3.306282759E0,5.508875847E0
8.938981180E-1,8.339585304E0,3.573680639E0,6.908677101E0
8.986612430E-1,7.807182312E0,3.879961967E0,8.005187988E0
9.034510340E-1,6.030511379E0,3.157329559E0,9.602995872E0
9.082274410E-1,5.228317261E0,3.392424345E0,8.484351158E0
9.129905660E-1,4.485345840E0,3.713660717E0,6.995417118E0
9.177803570E-1,4.231108665E0,3.949353695E0,5.959922791E0
9.225568160E-1,4.454239368E0,4.191029072E0,5.238486767E0
9.273332220E-1,5.285147190E0,4.116253376E0,4.927420139E0
9.321096800E-1,6.086742401E0,4.513461590E0,4.688137531E0
9.368861380E-1,7.084549427E0,4.583451748E0,4.485944271E0
9.416492630E-1,8.561519623E0,3.797409534E0,3.691527128E0
9.464390030E-1,8.918647766E0,4.198207378E0,3.205185890E0
9.512154610E-1,9.280562401E0,4.560719967E0,2.569293261E0
9.559785860E-1,9.884152412E0,4.798805714E0,1.889731646E0
9.607683780E-1,1.254616737E1,3.913461447E0,1.727019787E0
9.655447840E-1,1.347817135E1,4.109074593E0,1.074975610E0
9.703079090E-1,1.417867088E1,4.496711731E0,-1.674975902E-1
9.750977010E-1,1.475713539E1,4.845465660E0,-1.111466169E0
9.798741590E-1,1.517767429E1,5.164907455E0,-2.212762833E0
9.846372840E-1,1.562214088E1,5.252843857E0,-3.318845034E0
9.894270240E-1,1.568136311E1,5.205585480E0,-4.581058979E0
9.942034820E-1,1.557907009E1,4.892724037E0,-5.123033047E0
9.989666070E-1,1.492044544E1,4.361517429E0,-5.066203594E0
1.003756347E0,1.391545963E1,4.199403763E0,-4.465605259E0
1.008532805E0,1.337288761E1,3.980460405E0,-3.037688255E0
1.013309263E0,1.344347572E1,3.233301640E0,-1.242473125E0
1.018085670E0,1.292602825E1,2.402992249E0,9.990034252E-2
1.022862128E0,1.199641609E1,1.764108539E0,1.026520967E0
1.027625253E0,1.163390350E1,1.680957913E0,1.527219057E0
1.032415045E0,1.145025444E1,1.487737536E0,1.706082582E0
1.037191503E0,1.126122189E1,1.217348576E0,1.755135417E0
1.041954628E0,1.167996597E1,1.006780148E0,1.690529227E0
1.046744368E0,1.191326618E1,7.417750359E-1,1.641476393E0
1.051520826E0,1.190668583E1,8.141579032E-1,1.363310695E0
1.056283951E0,1.164407349E1,9.684949517E-1,1.302293777E0
1.061073691E0,1.136052418E1,9.194421172E-1,8.099704385E-1
1.065850149E0,1.155673504E1,8.715856671E-1,1.944168359E-1
1.070626607E0,1.167757225E1,5.688936114E-1,-4.301098585E-1
1.075403066E0,1.178405285E1,2.614158690E-1,-1.092323542E0
1.080179472E0,1.215194988E1,1.328016520E-1,-1.689931035E0
1.084942597E0,1.259940720E1,-5.922235921E-2,-1.764108539E0
1.089732388E0,1.317428303E1,-2.793620527E-1,-2.726621389E0
1.094508847E0,1.274118233E1,-1.980060786E-1,-3.611965895E0
1.099271972E0,1.255394363E1,-1.345962733E-1,-4.657031059E0
1.104061711E0,1.227218914E1,-1.064806059E-1,-5.452644825E0
1.108838170E0,1.251206970E1,-1.537388563E-1,-6.053841114E0
1.113601295E0,1.324666595E1,-1.800599098E-1,-7.290930748E0
1.118391034E0,1.080838013E1,-9.284151793E-1,-6.485745907E0
1.123167493E0,8.941978455E0,-1.588834286E0,-6.221338749E0
1.127930618E0,7.248457909E0,-2.387438774E0,-5.889933109E0
1.132720409E0,6.205785751E0,-3.214159012E0,-5.701498032E0
1.137496816E0,7.245467186E0,-3.090928555E0,-6.014957905E0
1.142259993E0,7.499704361E0,-3.287738323E0,-5.775675774E0
1.147049732E0,7.639684677E0,-3.427120209E0,-5.483751297E0
1.151826191E0,9.029315948E0,-2.571686029E0,-5.059623718E0
1.156602597E0,8.412566185E0,-2.554338217E0,-3.914657831E0
1.161379055E0,8.136793137E0,-2.772084951E0,-3.240479946E0
1.166155513E0,8.247461319E0,-3.138186932E0,-3.178864956E0
1.170931972E0,8.924630165E0,-2.982055187E0,-3.532404423E0
1.175708378E0,8.736195564E0,-3.122035265E0,-3.325425386E0
1.180484836E0,9.870393753E0,-2.835494757E0,-2.913859844E0
1.185247961E0,1.053380394E1,-2.284547329E0,-2.336591244E0
1.190037753E0,1.101236820E1,-1.947159410E0,-8.422735929E-1
1.194814159E0,1.020479012E1,-2.614757061E0,4.725824594E-1
1.199577336E0,9.798010826E0,-3.202793121E0,-1.148554832E-1
1.204367076E0,1.018983555E1,-3.538386583E0,-1.681556106E0
1.209143534E0,1.000259686E1,-4.540380955E0,-3.143570662E0
1.213919993E0,1.043270683E1,-3.542573929E0,-1.634896040E0
1.218696399E0,1.040578747E1,-2.565704107E0,5.982056726E-3
1.223472857E0,1.027896786E1,-2.581257343E0,9.858429432E-1
1.228235982E0,9.697511673E0,-3.392424345E0,2.754737139E0
1.233025722E0,1.059781170E1,-3.794418573E0,1.200598717E0
1.237802180E0,1.467936897E1,-3.035893679E0,-3.226721287E0
1.242565305E0,1.565264893E1,-2.449652195E0,-4.714458942E0
1.247355097E0,1.284885979E1,-3.439084291E0,-3.984647989E0
1.252131555E0,1.039801121E1,-5.344369411E0,-2.799602509E0
1.256894680E0,9.627521515E0,-5.082953453E0,5.108676553E-1
1.261684420E0,9.159127235E0,-3.788436413E0,1.596610904E0
1.266460878E0,9.318249702E0,-2.357528448E0,2.770888567E0
1.271224003E0,1.025085258E1,-1.382453322E0,3.245265722E0
1.276013743E0,1.186840057E1,-1.508076429E0,2.487937450E0
1.280790201E0,1.494616890E1,-9.936196208E-1,2.644068897E-1
1.285553326E0,1.682632828E1,-4.923232496E-1,-1.617548108E0
1.290343118E0,1.624008751E1,2.207378894E-1,-3.750749588E0
1.295119524E0,1.455434418E1,3.702892959E-1,-3.871587038E0
1.299882701E0,1.374138260E1,9.607182741E-1,-2.802593470E0
1.304672441E0,1.268315601E1,1.170688510E0,-3.771088600E0
1.309448899E0,1.184925747E1,5.814558864E-1,-5.100301266E0
1.314212024E0,1.098963642E1,-2.590230405E-1,-6.041278839E0
1.319001763E0,9.182456970E0,-8.943174481E-1,-5.517251015E0
1.323778222E0,7.132406235E0,-1.776670814E0,-4.306482315E0
1.328541347E0,7.103094101E0,-2.707478762E0,-2.640479803E0
1.333331086E0,7.791628838E0,-3.598206997E0,-7.537391037E-2
1.338107545E0,6.565905571E0,-4.162314892E0,5.325226784E0
1.342870670E0,8.149953842E0,-3.512065411E0,3.272184849E0
1.347660461E0,6.700501442E0,-5.416752338E0,-5.491527915E-1
1.352436868E0,4.907679081E0,-6.759724140E0,-1.920838356E0
1.357200045E0,7.389036179E0,-4.044468403E0,-6.355337143E0
1.361989784E0,9.629914284E0,3.553341627E-1,-7.876574039E0
1.366766243E0,9.229715347E0,-6.897311211E-1,2.033899166E-2
1.371529368E0,1.024546814E1,-2.962912560E0,3.899104595E0
1.376319107E0,1.037886810E1,-4.603192329E0,1.009053326E1
1.381095566E0,1.162911797E1,-4.713262558E0,3.658027649E0
1.385858691E0,6.007779598E0,-5.176871777E0,8.438288689E0
1.390648482E0,7.071987152E0,-4.075575352E0,8.024331093E0
1.395424888E0,9.002995491E0,-3.272783279E0,4.265206456E-1
1.400188066E0,1.008694363E1,-1.990230203E0,-6.754340172E0
1.404977805E0,1.345065403E1,-2.697907448E0,-1.098066330E1
1.409754263E0,9.044869423E0,-5.084748268E-1,-7.662416458E0
1.414517388E0,8.067999840E0,1.175474167E0,-7.706085205E0
1.419307128E0,1.118704414E1,2.039881349E-1,-5.331807137E0
1.424083586E0,1.118883896E1,-2.356930375E-1,-2.937189817E0
1.428860045E0,1.037647533E1,-4.881358147E-1,-2.231905222E0
1.433636451E0,1.010189915E1,-4.360919297E-1,-1.861017823E0
1.438412909E0,9.753743172E0,-1.088734269E-1,-1.897508383E0
1.443176034E0,1.044945621E1,1.962114573E-1,-2.381456852E0
1.447965826E0,1.039561844E1,4.127618968E-1,-2.520240545E0
1.452742232E0,1.074197865E1,7.022934556E-1,-2.469393015E0
1.457518691E0,8.930013657E0,-9.631111473E-2,-1.907677889E0
1.462295149E0,7.714460373E0,-8.321040869E-1,-1.190429211E0
1.467071607E0,8.130811691E0,-1.626521230E0,-4.582255483E-1
1.471834732E0,8.059624672E0,-2.200200319E0,3.589233849E-3
1.476624472E0,8.539983749E0,-3.403790236E0,1.938186288E-1
1.481400930E0,8.949754715E0,-3.325425386E0,4.217349887E-1
1.486164055E0,8.177471161E0,-2.456232548E0,5.210371017E-1
1.490953847E0,7.649854183E0,-1.738983870E0,2.644068897E-1
1.495730253E0,7.681559086E0,-1.208375454E0,-4.851447940E-1
1.500506711E0,8.671588898E0,-1.764706731E0,-1.550549030E0
1.505283170E0,9.128020287E0,-3.054438114E0,-2.357528448E0
1.510059628E0,1.026520920E1,-3.128615618E0,-2.344367981E0
1.514822753E0,1.015095139E1,-3.591626883E0,-2.602194548E0
1.519612493E0,1.015274620E1,-3.683750391E0,-8.177471161E-1
1.524388951E0,1.043988514E1,-3.650250912E0,1.095912814E0
1.529165409E0,8.856434822E0,-3.137588739E0,-2.871387079E-2
1.533941868E0,8.682954788E0,-2.656033039E0,-9.308080077E-1
1.538718274E0,9.078967094E0,-1.884347796E0,-1.134796143E0
1.543494732E0,9.584450722E0,-1.622931957E0,-1.536192179E0
1.548271191E0,9.934999466E0,-1.400399446E0,-1.667797327E0
1.553047649E0,1.041296577E1,-7.435696125E-1,-1.761715651E0
1.557810774E0,9.195018768E0,-8.135596663E-2,-2.225923300E0
1.562600513E0,8.173882484E0,-7.148557901E-1,-3.093919754E0
1.567376972E0,9.420542717E0,-1.708475351E0,-4.375874519E0
1.572140097E0,1.028016472E1,-2.332403898E0,-4.140181541E0
1.576929836E0,1.014556789E1,-2.188236237E0,-4.268795490E0
1.581706295E0,9.597611427E0,-2.073979139E0,-4.338187218E0
1.586469472E0,9.684351921E0,-2.247458696E0,-4.290330887E0
1.591259211E0,1.006062317E1,-2.419741869E0,-4.191627026E0
1.596035670E0,9.914660454E0,-2.806182861E0,-3.427120209E0
1.600798795E0,9.438488960E0,-3.661018610E0,-2.406581402E0
1.605588534E0,8.694320679E0,-4.789832592E0,-2.565105915E0
1.610364993E0,7.517052174E0,-4.103690624E0,-2.478366137E0
1.615128118E0,7.114459991E0,-2.991626501E0,-2.467000246E0
1.619917857E0,7.238886833E0,-2.094916344E0,-3.380460262E0
1.624694316E0,8.081758499E0,-1.499701619E0,-4.508078098E0
1.629457493E0,8.961718559E0,-1.791625977E0,-4.675575256E0
1.634247232E0,9.870393753E0,-2.121237278E0,-4.858027935E0
1.639023691E0,1.003609657E1,-2.390429735E0,-5.093721390E0
1.643786816E0,1.097288609E1,-2.952144861E0,-4.767100811E0
1.648576555E0,1.065763187E1,-3.227917671E0,-4.381258488E0
1.653353013E0,1.038664532E1,-2.626721144E0,-4.034897327E0
1.658129472E0,9.720842361E0,-2.806781054E0,-3.258426189E0
1.662905878E0,9.531808853E0,-3.568894863E0,-2.695514679E0
1.667682336E0,9.266803741E0,-3.863810301E0,-1.796411633E0
1.672445461E0,8.664410591E0,-4.169493675E0,-3.170489892E-2
1.677235253E0,7.484749317E0,-4.784449100E0,4.444667995E-1
1.682011711E0,7.207779884E0,-5.218147755E0,-8.297112584E-1
1.686774836E0,7.984251022E0,-5.542973518E0,-2.417349100E0
1.691564576E0,8.337192535E0,-5.536991596E0,-3.043072224E0
1.696341034E0,8.946166039E0,-4.537988186E0,-3.171686411E0
1.701117493E0,8.493324280E0,-3.267997503E0,-1.956132531E0
1.705893899E0,7.037889481E0,-2.375474691E0,-1.401595831E0
1.710670357E0,7.441080093E0,-3.265604734E0,-2.036890268E0
1.715446816E0,8.629714966E0,-4.799404144E0,-3.011367321E0
1.720223274E0,8.536395073E0,-5.232504845E0,-3.716053486E0
1.724999680E0,7.527221680E0,-5.388636589E0,-4.617549419E0
1.729762857E0,6.767500877E0,-5.790032387E0,-5.477170944E0
1.734552597E0,6.760920525E0,-5.751149178E0,-5.750551224E0
1.739329055E0,6.501897335E0,-5.039284706E0,-5.668596745E0
1.744092180E0,7.629515171E0,-4.482355118E0,-5.377270699E0
1.748881920E0,8.965308189E0,-4.098905087E0,-5.255236626E0
1.753658378E0,8.960522652E0,-3.766901016E0,-5.145166874E0
1.758421503E0,9.541978836E0,-4.155136585E0,-5.219344616E0
1.763211295E0,9.033503532E0,-5.033302307E0,-5.590231895E0
1.767987701E0,9.534201622E0,-5.619544029E0,-4.974080086E0
1.772764159E0,9.253045082E0,-5.240281582E0,-4.070191383E0
1.777540618E0,8.603393555E0,-3.974478483E0,-5.286941528E0
1.782317076E0,8.243872643E0,-2.963510752E0,-6.044270039E0
1.787080201E0,8.032107353E0,-2.380260229E0,-6.158527374E0
1.791869941E0,6.997211456E0,-1.323829174E0,-5.946762562E0
1.796646399E0,6.159723759E0,-3.810569942E-1,-6.255436420E0
1.801409524E0,5.763711452E0,4.749752879E-1,-5.255835056E0
1.806199316E0,7.974679470E0,-1.438086390E0,-4.133601189E0
1.810975774E0,7.243672371E0,-2.865405083E0,-3.831507206E0
1.815738899E0,5.845067501E0,-3.239881754E0,-3.214159012E0
1.820528638E0,4.727619171E0,-3.271586657E0,-3.160320520E0
1.825305097E0,2.463410854E0,-2.973082066E0,-4.487739086E0
1.830068222E0,1.833500385E0,-3.095116138E0,-4.838885784E0
1.834858013E0,9.409775138E-1,-3.704089403E0,-5.616552830E0
1.839634420E0,9.302098155E-1,-3.723830223E0,-4.229912281E0
1.844397545E0,1.419542074E0,-3.530011654E0,-3.526422262E0
1.849187336E0,-2.721835673E-1,-3.390031576E0,-3.100499868E0
1.853963795E0,1.375873089E-1,-4.786243439E0,-2.953341246E0
1.858726920E0,-2.038086653E0,-5.562116146E0,-3.651447296E0
1.863516659E0,5.964110494E-1,-7.434499741E0,-4.000201225E0
1.868293118E0,3.239881754E0,-7.744968891E0,-6.038886070E0
1.873056243E0,1.073180914E0,-6.699903488E0,-6.541378975E0
1.877846034E0,2.443670034E0,-5.718247890E0,-6.107679844E0
1.882622441E0,8.618349075E0,-4.442873478E0,-3.126821041E0
1.887385618E0,1.522792339E1,-3.358326674E0,-7.914260626E-1
1.892175357E0,2.762095070E1,-3.463610709E-1,-8.721838593E-1
1.896951816E0,3.286721420E1,2.927618504E0,-2.009970993E-1
1.901714941E0,3.076093102E1,4.802394867E0,-1.266401410E0
1.906504680E0,2.990190887E1,4.290929317E0,-5.143970490E0
1.911281138E0,1.867717743E1,2.443071842E0,-5.554339409E0
1.916044263E0,1.120140076E1,-9.182456732E-1,-5.954539299E0
1.920834003E0,9.741181374E0,-3.239283562E0,-4.813162804E0
1.925610461E0,9.553344727E0,-4.213760853E0,-3.337987661E0
1.930373638E0,9.792626381E0,-4.170091629E0,-3.104687452E0
1.935163378E0,1.037049294E1,-3.739981890E0,-3.381058455E0
1.939939836E0,1.029631615E1,-3.301496983E0,-3.553939819E0
1.944702961E0,9.800403595E0,-3.249453068E0,-3.652045488E0
1.949492701E0,9.096315384E0,-3.410370588E0,-3.869194269E0
1.954269159E0,8.536395073E0,-3.560520172E0,-4.379463673E0
1.959032284E0,8.252845764E0,-3.421138287E0,-4.853840828E0
1.963822076E0,8.531010628E0,-3.194418192E0,-5.114060402E0
1.968598482E0,8.879764557E0,-2.904288530E0,-5.447260857E0
1.973361659E0,9.134600639E0,-2.532802820E0,-5.635695457E0
1.978151399E0,8.937790871E0,-2.542972326E0,-5.865406513E0
1.982927857E0,7.768897057E0,-3.904488325E0,-5.570491314E0
1.987690982E0,8.839086533E0,-4.321437836E0,-4.289732933E0
1.992480722E0,9.613762856E0,-3.466003656E0,-4.773681164E0
1.997257180E0,1.048415279E1,-2.722434044E0,-5.201398373E0
2.002033638E0,8.881559372E0,-2.533999205E0,-4.977669239E0
2.006810097E0,9.185447693E0,-2.151745796E0,-5.723033428E0
2.011586503E0,9.714262009E0,-2.849253654E0,-5.163711071E0
2.016362961E0,8.412566185E0,-4.182055950E0,-4.743172646E0
2.021139420E0,8.528019905E0,-5.304887772E0,-4.306482315E0
2.025915878E0,9.149555206E0,-6.001797199E0,-4.232305050E0
2.030679003E0,7.529614449E0,-4.970490932E0,-3.999004841E0
2.035468743E0,5.344369411E0,-4.276572227E0,-4.731806755E0
2.040245201E0,1.079821014E1,-4.721039295E0,-5.451447964E0
2.045008378E0,1.340399456E1,-3.838685751E0,-3.641277790E0
2.049798118E0,1.126241779E1,-2.697309256E0,-3.203989506E0
2.054574576E0,9.317651749E0,-2.580659151E0,-4.518845558E0
2.059351034E0,8.654839516E0,-2.697907448E0,-5.599802971E0
2.064127441E0,8.770891190E0,-2.745165825E0,-6.041877270E0
2.068903899E0,9.458827972E0,-2.420340061E0,-6.218348026E0
2.073667024E0,9.387641907E0,-1.837687731E0,-6.674180508E0
2.078456816E0,8.928817749E0,-1.559522152E0,-6.849454880E0
2.083233222E0,8.773882866E0,-1.564906001E0,-6.474977970E0
2.087996399E0,7.661818027E0,-1.909472466E0,-5.676373482E0
2.092786138E0,5.742774487E0,-2.381456852E0,-5.474778175E0
2.097562597E0,3.835694790E0,-3.243471146E0,-5.790032387E0
2.102325722E0,2.813361168E0,-3.467798233E0,-5.885147095E0
2.107115461E0,2.440080881E0,-3.270988464E0,-6.085546017E0
2.111891920E0,2.800798893E0,-2.961716175E0,-6.821339130E0
2.116655045E0,3.351148129E0,-2.834896564E0,-7.746165276E0
2.121444836E0,3.391826153E0,-2.815155745E0,-8.206783295E0
2.126221243E0,3.961916208E0,-3.184846878E0,-7.744370461E0
2.130997701E0,4.568496704E0,-3.400201082E0,-7.464410305E0
2.135774159E0,4.534399033E0,-2.885145903E0,-6.581458569E0
2.140550618E0,5.009972572E0,-2.571087837E0,-6.406184196E0
2.145327076E0,4.667798996E0,-2.678166628E0,-6.390032768E0
2.150103534E0,3.378665686E0,-1.828116536E0,-6.614359856E0
2.154879941E0,4.120440483E0,-1.335195065E0,-6.436094761E0
2.159643118E0,3.103491068E0,-1.235892892E0,-6.244070530E0
2.164432857E0,3.542573929E0,-1.490728498E0,-6.979863644E0
2.169209316E0,4.624129772E0,-2.595614433E0,-7.321439266E0
2.173985722E0,5.055436134E0,-3.120240688E0,-6.233901024E0
2.178762180E0,4.514657974E0,-3.121437073E0,-6.072385788E0
2.183538638E0,4.019941807E0,-3.069991350E0,-5.100301266E0
2.188301763E0,4.753940582E0,-2.991626501E0,-4.960321426E0
2.193091555E0,7.113263607E0,-2.537588358E0,-5.490929604E0
2.197867961E0,8.032107353E0,-2.438884497E0,-5.409573555E0
2.202631138E0,8.294719696E0,-2.616551638E0,-5.286343575E0
2.207420878E0,8.121838570E0,-2.313261271E0,-4.666004181E0
2.212197336E0,8.295317650E0,-2.024327993E0,-4.096512318E0
2.216960461E0,8.900702477E0,-1.907079697E0,-4.588835716E0
2.221750201E0,9.313464165E0,-2.185245275E0,-4.994419098E0
2.226526659E0,8.141578674E0,-2.525026083E0,-6.178267956E0
2.231289784E0,6.337390900E0,-2.909074068E0,-8.092526436E0
2.236079576E0,5.311468124E0,-1.953739643E0,-6.489933014E0
2.240855982E0,6.994818687E0,-1.588834286E0,-5.735595703E0
2.245619159E0,8.246863365E0,-2.235494614E0,-6.773482800E0
2.250408899E0,8.282156944E0,-1.927418590E0,-5.497509956E0
2.255185357E0,8.237890244E0,-1.633699656E0,-5.502295494E0
2.259961816E0,8.167302132E0,-1.508076429E0,-6.888936520E0
2.264738222E0,9.236295700E0,-1.592423439E0,-6.448058605E0
2.269514680E0,1.003848934E1,-2.804986238E0,-5.779264927E0
2.274277805E0,1.009950638E1,-3.984647989E0,-7.262216568E0
2.279067597E0,1.006899738E1,-4.138985157E0,-6.124429703E0
2.283844055E0,1.073240757E1,-4.532006264E0,-6.827919483E0
2.288607180E0,8.364709854E0,-4.445864677E0,-8.106883049E0
2.293396920E0,9.648459435E0,-4.033700943E0,-7.207181931E0
2.298173378E0,1.020658493E1,-4.345963955E0,-6.360122681E0
2.302949836E0,9.005388260E0,-4.025924206E0,-6.589235306E0
2.307726295E0,9.866804123E0,-4.356133461E0,-6.650850773E0
2.312502701E0,9.349356651E0,-5.118845940E0,-6.125027657E0
2.317265878E0,9.917651176E0,-5.261816978E0,-6.544968128E0
2.322055618E0,9.740582466E0,-4.886742115E0,-6.558726788E0
2.326832076E0,9.000003815E0,-4.363312244E0,-6.123831272E0
2.331608534E0,8.740981102E0,-4.344767570E0,-5.599205017E0
2.336384941E0,7.810771465E0,-4.887340069E0,-5.464608669E0
2.341161399E0,6.160321712E0,-5.257031441E0,-5.681159019E0
2.345924524E0,5.622535229E0,-4.771886349E0,-5.352146149E0
2.350714316E0,4.717449665E0,-3.777070522E0,-5.132604599E0
2.355490722E0,5.673980713E0,-3.890131474E0,-5.132604599E0
2.360267180E0,6.353542328E0,-3.589832067E0,-5.078765869E0
2.365043638E0,7.044469833E0,-3.303889751E0,-4.722235680E0
2.369820097E0,7.467999458E0,-3.192025423E0,-4.657031059E0
2.374596555E0,7.816753387E0,-3.075973511E0,-4.289732933E0
2.379372961E0,7.853842258E0,-2.584846735E0,-4.194618225E0
2.384149420E0,7.350750923E0,-2.353939295E0,-4.691128731E0
2.388925878E0,6.774679184E0,-2.359921217E0,-5.590231895E0
2.393702336E0,5.729015827E0,-2.690130949E0,-6.361917019E0
2.398478795E0,5.276174068E0,-2.854637384E0,-6.565905571E0
2.403241920E0,4.513461590E0,-3.179463148E0,-6.240481377E0
2.408031659E0,3.598805189E0,-3.856033802E0,-6.019145489E0
2.412808118E0,3.410968781E0,-4.511667252E0,-5.945566177E0
2.417571243E0,3.736990690E0,-5.017150879E0,-5.783452511E0
2.422361034E0,3.916452408E0,-5.546562672E0,-5.529813290E0
2.427137441E0,4.094717979E0,-6.168098450E0,-5.468197823E0
2.431900618E0,4.548157692E0,-6.571289062E0,-5.513063431E0
2.436690357E0,5.166702271E0,-6.916453838E0,-5.607579708E0
2.441466816E0,5.808577061E0,-7.016354084E0,-5.749952793E0
2.446229941E0,6.497111797E0,-6.850651264E0,-5.791827202E0
2.451019680E0,6.929614544E0,-6.421139717E0,-5.736792088E0
2.455796138E0,7.201199532E0,-6.232704639E0,-5.589633465E0
2.460559316E0,7.310671329E0,-6.232106686E0,-5.528018475E0
2.465349055E0,7.443472862E0,-6.303891182E0,-5.653043270E0
2.470125513E0,7.652844906E0,-6.400202274E0,-5.625525951E0
2.474888638E0,8.016553879E0,-6.384648800E0,-5.358726501E0
2.479678378E0,8.001599312E0,-5.989833355E0,-5.224728107E0
2.484454836E0,8.033304214E0,-5.286941528E0,-4.399802685E0
2.489217961E0,6.915855408E0,-4.268795490E0,-2.902493954E0
2.494007753E0,5.810969830E0,-4.511667252E0,-3.236890793E0
2.498784211E0,5.733202934E0,-4.415954113E0,-3.505485058E0
2.503560618E0,5.571089268E0,-4.155734539E0,-4.147958279E0
2.508337076E0,5.594419479E0,-4.034897327E0,-4.863411903E0
2.513113534E0,5.928816319E0,-4.028914928E0,-5.478965759E0
2.517876659E0,6.204588890E0,-3.830909014E0,-6.244070530E0
2.522666451E0,6.532405853E0,-3.627519131E0,-6.951149940E0
2.527442857E0,6.632306099E0,-3.558725595E0,-7.652246952E0
2.532206034E0,6.652645111E0,-3.366103172E0,-8.103293419E0
2.536995774E0,6.325426579E0,-3.622733593E0,-7.305287361E0
2.541772232E0,5.737390518E0,-3.937987804E0,-5.703890800E0
2.546535357E0,4.845465660E0,-4.176671982E0,-4.542175770E0
2.551325097E0,4.291527271E0,-4.105485439E0,-4.866403103E0
2.556101555E0,4.497310162E0,-3.820739508E0,-5.990431309E0
2.560878013E0,5.188836098E0,-4.135993958E0,-6.717849731E0
2.565654472E0,5.718846321E0,-4.771288395E0,-6.864409924E0
2.570430930E0,5.962316036E0,-5.670989513E0,-7.129415035E0
2.575194055E0,6.610770702E0,-6.055635929E0,-5.467001438E0
2.579983795E0,7.019943237E0,-5.949155331E0,-5.493322372E0
2.584760253E0,6.960721016E0,-6.145965099E0,-6.001797199E0
2.589536711E0,6.649653912E0,-6.228517532E0,-6.263811588E0
2.594313170E0,6.439683914E0,-6.257829189E0,-6.411568165E0
2.599089576E0,6.342176437E0,-5.983851433E0,-6.593422890E0
2.603866034E0,6.778268337E0,-5.490929604E0,-6.662814617E0
2.608642493E0,6.683153629E0,-5.072185993E0,-6.394220352E0
2.613418951E0,6.431907177E0,-4.740779877E0,-6.067001820E0
2.618195409E0,6.303891182E0,-4.533800602E0,-5.864210129E0
2.622971816E0,6.294918060E0,-4.427918434E0,-5.778068542E0
2.627748274E0,6.422934055E0,-4.331008911E0,-5.754738331E0
2.632524732E0,6.560521603E0,-4.282554150E0,-5.736194134E0
2.637301191E0,6.427719593E0,-4.311866283E0,-5.726024628E0
2.642077649E0,6.161518097E0,-4.283750534E0,-5.724828243E0
2.646854107E0,6.099305153E0,-4.235894203E0,-5.767899036E0
2.651630513E0,6.055635929E0,-4.173082829E0,-5.849255085E0
2.656406972E0,5.992824078E0,-4.028914928E0,-5.930611134E0
2.661183430E0,6.131608009E0,-4.052245140E0,-5.854040623E0
2.665959888E0,6.188437462E0,-4.100699902E0,-5.878567219E0
2.670736347E0,6.074180126E0,-4.144368649E0,-5.887540340E0
2.675512753E0,6.150750637E0,-4.225724697E0,-5.834897995E0
2.680289211E0,6.346364021E0,-4.326223373E0,-5.812166214E0
2.685065670E0,6.451049805E0,-4.384249210E0,-5.874977589E0
2.689842128E0,6.479763508E0,-4.456034184E0,-5.841478348E0
2.694618586E0,6.555736065E0,-4.484747887E0,-5.918646812E0
2.699394993E0,6.516852379E0,-4.523631096E0,-6.058028698E0
2.704171451E0,6.564708710E0,-4.590630054E0,-6.043671608E0
2.708947909E0,6.503093719E0,-4.605585575E0,-5.990431309E0
2.713724368E0,6.541378975E0,-4.624728203E0,-6.005386829E0
2.718500826E0,6.555736065E0,-4.629513741E0,-6.005386829E0
2.723277232E0,6.512664795E0,-4.643870354E0,-5.976074696E0
2.728053691E0,6.555736065E0,-4.667798996E0,-5.947360516E0
2.732830149E0,6.551548481E0,-4.677370071E0,-5.937789440E0
2.737606607E0,6.589235306E0,-4.672584534E0,-5.918646812E0
2.742383066E0,6.603592396E0,-4.628915310E0,-5.885147095E0
2.747159524E0,6.702894211E0,-4.484747887E0,-5.924030781E0
2.751935982E0,7.106683254E0,-4.117449760E0,-5.878567219E0
2.756712388E0,9.093324661E0,-1.612164259E0,-6.504888535E0
2.761475513E0,9.334999084E0,7.645068169E-1,-8.504690170E0
2.766265305E0,6.303891182E0,-8.285148144E-1,-6.236892223E0
2.771041763E0,5.338387489E0,-1.554736495E0,-4.969294548E0
2.775818170E0,5.797211170E0,-2.005783558E0,-5.000401020E0
2.780594628E0,6.414559364E0,-2.640479803E0,-5.449055195E0
2.785371086E0,6.882954121E0,-3.400201082E0,-5.503491879E0
2.790147545E0,7.302894592E0,-4.141377926E0,-5.716453075E0
2.794924003E0,7.539186001E0,-4.569094658E0,-6.149554253E0
2.799700409E0,7.432705402E0,-4.549952030E0,-6.489335060E0
2.804476868E0,6.981060028E0,-4.729413986E0,-6.583253384E0
2.809253326E0,6.711867332E0,-4.759324074E0,-6.135795593E0
2.814029784E0,6.836892605E0,-4.599603176E0,-5.958128452E0
2.818806243E0,7.088737011E0,-4.329812527E0,-5.868397713E0
2.823582701E0,7.234699249E0,-4.141377926E0,-5.950950146E0
2.828359107E0,7.195217609E0,-3.732205153E0,-6.038288116E0
2.833135566E0,7.174878597E0,-3.264408350E0,-5.951548100E0
2.837912024E0,6.993024349E0,-2.682354212E0,-5.845067501E0
2.842688482E0,7.339983463E0,-2.040479422E0,-5.483152866E0
2.847451607E0,7.271788120E0,-1.173679471E0,-5.349154949E0
2.852241347E0,6.818347931E0,-5.922235847E-1,-5.298905849E0
2.857017805E0,6.531209469E0,-2.991028428E-1,-5.316852093E0
2.861780982E0,6.759724140E0,-5.246263742E-1,-5.490929604E0
2.866570722E0,7.116254330E0,-1.053440213E0,-5.784648895E0
2.871347180E0,6.971488953E0,-1.699502230E0,-5.745167255E0
2.876123638E0,7.043871880E0,-2.561516523E0,-6.009573936E0
2.880900045E0,7.568498135E0,-2.935993433E0,-5.910272121E0
2.885676503E0,7.938189030E0,-2.819941521E0,-5.413761139E0
2.890452961E0,7.582256794E0,-3.181855917E0,-5.368297577E0
2.895229420E0,7.284948349E0,-3.553341627E0,-5.213362217E0
2.900005878E0,7.357331276E0,-4.252045631E0,-5.404788017E0
2.904769003E0,8.202595711E0,-4.500301361E0,-5.812166214E0
2.909558743E0,9.101698875E0,-3.920041800E0,-6.359524250E0
2.914335201E0,9.579067230E0,-2.656631231E0,-6.895516872E0
2.919098326E0,9.485747337E0,-1.558325768E0,-6.871588230E0
2.923888118E0,9.503693581E0,-6.861419082E-1,-6.541378975E0
2.928664576E0,9.397212982E0,-1.124626622E-1,-6.574878216E0
2.933427701E0,8.928219795E0,4.785645306E-1,-6.597012043E0
2.938217441E0,8.758927345E0,1.350150228E0,-6.591628075E0
2.942993899E0,8.081758499E0,1.671386600E0,-6.741777897E0
2.947757024E0,7.959724426E0,1.184447169E0,-6.812964439E0
2.952546816E0,7.521838188E0,1.670190215E0,-7.257431030E0
2.957323274E0,7.167101860E0,2.228316069E0,-6.651448727E0
2.962086399E0,7.560721397E0,1.655833244E0,-7.147361279E0
2.966876138E0,8.182256699E0,5.294120312E-1,-6.477969170E0
2.971652597E0,8.285148621E0,-2.793620527E-1,-7.231708050E0
2.976429055E0,8.030911446E0,-1.141974568E0,-7.258627415E0
2.981205513E0,7.386643410E0,-2.578266263E-1,-7.077371120E0
2.985981972E0,7.414759159E0,-7.483552694E-1,-7.427919865E0
2.990758378E0,6.765706062E0,-9.242277741E-1,-6.306283951E0
2.995534836E0,6.117250919E0,-1.836491376E-1,-6.140581131E0
3.000311295E0,5.878567219E0,7.543373108E-1,-4.993222713E0
3.005074420E0,5.669793129E0,8.697910309E-1,-5.677569866E0
3.009864211E0,5.696712494E0,7.154539824E-1,-5.193621635E0
3.014640670E0,6.324828625E0,5.623133183E-1,-4.404588223E0
3.019417076E0,6.672984123E0,-3.373879790E-1,-5.519045353E0
3.024193534E0,6.614359856E0,-1.092921734E0,-6.223731518E0
3.028969993E0,6.332006931E0,-1.845464468E0,-6.087938786E0
3.033733118E0,5.916254044E0,-1.759921074E0,-5.552545071E0
3.038522909E0,6.611967087E0,-1.280758262E0,-5.849255085E0
3.043299368E0,6.649055958E0,-1.247258782E0,-5.979663849E0
3.048075774E0,6.515655994E0,-1.474576950E0,-5.397609711E0
3.052852232E0,6.635895252E0,-2.389233351E0,-5.680561066E0
3.057628691E0,6.862615108E0,-3.511467218E0,-5.042873859E0
3.062391816E0,7.473383427E0,-4.049253941E0,-5.770291805E0
3.067181607E0,7.737790108E0,-5.455635548E0,-5.252245903E0
3.071958013E0,8.169096947E0,-7.198806763E0,-4.994419098E0
3.076721191E0,8.809176445E0,-8.589634895E0,-5.236692429E0
3.081510930E0,8.664410591E0,-9.794421196E0,-5.388636589E0
3.086287388E0,8.542376518E0,-1.039741230E1,-4.706083775E0
3.091050513E0,8.860024452E0,-1.095015430E1,-5.120042324E0
3.095840305E0,8.733204842E0,-1.086879826E1,-4.860421181E0
3.100616711E0,8.386843681E0,-1.069113159E1,-4.666602135E0
3.105379888E0,7.799405575E0,-1.076471043E1,-5.018945694E0
3.110169628E0,7.169494629E0,-1.131565857E1,-4.904688358E0
3.114946086E0,6.075376511E0,-1.196351528E1,-5.157729149E0
3.119709211E0,5.580062389E0,-1.211904812E1,-5.313262463E0
3.124499003E0,8.254041672E0,-1.098485088E1,-5.524429321E0
3.129275409E0,1.014796066E1,-7.482954502E0,-5.925227165E0
3.134038586E0,9.180662155E0,-4.536193371E0,-6.153143406E0
3.138828326E0,7.856235027E0,-3.498904943E0,-5.873183250E0
3.143604784E0,7.702496052E0,-3.032304525E0,-5.886941910E0
3.148367909E0,7.543971539E0,-2.632703066E0,-5.944369793E0
3.153157701E0,7.503891945E0,-2.232503414E0,-6.050251961E0
3.157934107E0,7.572087288E0,-1.871187329E0,-6.329015732E0
3.162697284E0,7.433303356E0,-1.510469317E0,-6.357729912E0
3.167487024E0,7.246065140E0,-1.424327731E0,-6.529414654E0
3.172263482E0,6.924828529E0,-1.458425403E0,-6.278168201E0
3.177026607E0,6.978667259E0,-1.308874011E0,-5.941977024E0
3.181816399E0,6.746563435E0,-1.536192179E0,-5.912066460E0
3.186592805E0,6.649055958E0,-1.411765337E0,-5.350351334E0
3.191355982E0,6.723831654E0,-8.668000102E-1,-5.255236626E0
3.196145722E0,6.779464722E0,-5.389832854E-1,-5.423332691E0
3.200922180E0,6.864409924E0,-6.209374666E-1,-5.611168861E0
3.205685305E0,6.954739094E0,-1.024726272E0,-5.803193092E0
3.210475097E0,7.097710133E0,-1.545165181E0,-5.981458187E0
3.215251503E0,7.355536938E0,-2.006381750E0,-6.083153248E0
3.220027961E0,7.555935860E0,-2.314457655E0,-6.122634888E0
3.224804420E0,7.637291908E0,-2.473580360E0,-6.093921185E0
3.229580878E0,7.685746193E0,-2.565105915E0,-6.069993019E0
3.234357336E0,7.690532207E0,-2.617748022E0,-6.046064377E0
3.239133795E0,7.690532207E0,-2.608176708E0,-6.007779598E0
3.243910253E0,7.680960655E0,-2.569891453E0,-5.998208046E0
3.248686659E0,7.661818027E0,-2.545963287E0,-5.998208046E0
3.253463118E0,7.647460938E0,-2.497508526E0,-5.983851433E0
3.258239576E0,7.623532772E0,-2.454437733E0,-5.988636971E0
3.263016034E0,7.609176159E0,-2.444866419E0,-6.012565136E0
3.267792493E0,7.576274872E0,-2.434697151E0,-6.016752720E0
3.272568951E0,7.566703320E0,-2.391626120E0,-5.988038540E0
3.277345357E0,7.552346706E0,-2.352742910E0,-5.958726406E0
3.282121816E0,7.542775154E0,-2.314457655E0,-5.930012703E0
3.286898274E0,7.542775154E0,-2.261217356E0,-5.882156372E0
3.291674732E0,7.542775154E0,-2.227717876E0,-5.863013744E0
3.296451191E0,7.533802032E0,-2.222932339E0,-5.843871117E0
3.301227649E0,7.509873867E0,-2.208575249E0,-5.819344521E0
3.306004055E0,7.505088329E0,-2.208575249E0,-5.795416355E0
3.310780513E0,7.467401028E0,-2.179861546E0,-5.804987907E0
3.315556972E0,7.457231998E0,-2.170290232E0,-5.824130535E0
3.320333430E0,7.428517818E0,-2.170290232E0,-5.862415314E0
3.325109888E0,7.428517818E0,-2.165504456E0,-5.881557941E0
3.329886347E0,7.404589653E0,-2.141576290E0,-5.891129494E0
3.334662805E0,7.395018578E0,-2.151147604E0,-5.910272121E0
3.339439211E0,7.418946743E0,-2.136790514E0,-5.924628735E0
3.344215670E0,7.461419106E0,-2.126621008E0,-5.958726406E0
3.348992128E0,7.451848030E0,-2.165504456E0,-5.967699528E0
3.353768586E0,7.451848030E0,-2.170290232E0,-5.997610092E0
3.358545045E0,7.475177765E0,-2.140978098E0,-6.016752720E0
3.363321503E0,7.517650604E0,-2.155334949E0,-6.113063812E0
3.368097909E0,7.456633568E0,-2.145763636E0,-5.973083496E0
3.372874368E0,7.479963779E0,-2.160718918E0,-5.983253002E0
3.377650826E0,7.513463020E0,-2.164906263E0,-6.011966705E0
3.382427284E0,7.503891945E0,-2.179861546E0,-6.035895348E0
3.387203743E0,7.484749317E0,-2.213361025E0,-6.035895348E0
3.391980201E0,7.499105930E0,-2.246860504E0,-6.031109333E0
3.396756659E0,7.494320393E0,-2.261217356E0,-6.031109333E0
3.401533066E0,7.475776196E0,-2.280958176E0,-6.031109333E0
3.406309524E0,7.485347271E0,-2.276172638E0,-6.031109333E0
3.411085982E0,7.494320393E0,-2.276172638E0,-6.040680885E0
3.415862441E0,7.479963779E0,-2.261815548E0,-6.064609051E0
3.420638899E0,7.442276478E0,-2.257030010E0,-6.069394588E0
3.425415357E0,7.413562775E0,-2.247458696E0,-6.087938786E0
3.430191763E0,7.432106972E0,-2.252244234E0,-6.107679844E0
3.434968222E0,7.422535896E0,-2.227717876E0,-6.098108292E0
3.439744680E0,7.332805157E0,-2.223530531E0,-6.025725842E0
3.444521138E0,7.370491982E0,-2.208575249E0,-6.073582172E0
3.449297597E0,7.356134892E0,-2.179861546E0,-6.073582172E0
3.454074055E0,7.242475986E0,-2.166102648E0,-6.010770321E0
3.458850461E0,7.208976269E0,-2.141576290E0,-6.020341873E0
3.463626920E0,7.204190731E0,-2.132004976E0,-6.029912949E0
3.468403378E0,7.228118896E0,-2.146361828E0,-6.025127411E0
3.473179836E0,7.228118896E0,-2.146361828E0,-6.010770321E0
3.477956295E0,7.261020184E0,-2.146361828E0,-6.034698486E0
3.482732753E0,7.251449108E0,-2.194816589E0,-6.135197163E0
3.487509211E0,7.198208809E0,-2.170888424E0,-6.202196121E0
3.492285618E0,7.226922512E0,-2.180459738E0,-6.168696880E0
3.497062076E0,7.269993305E0,-2.237887383E0,-6.154938221E0
3.501838534E0,7.280162811E0,-2.271386862E0,-6.150152206E0
3.506614993E0,7.298707485E0,-2.280958176E0,-6.150152206E0
3.511391451E0,7.375277519E0,-2.285743713E0,-6.145366669E0
3.516167909E0,7.393822193E0,-2.300100803E0,-6.217749596E0
3.520944368E0,7.383652687E0,-2.242672920E0,-6.299105644E0
3.525720774E0,7.460222721E0,-2.276172638E0,-6.256034851E0
3.530497232E0,7.512865067E0,-2.324028969E0,-6.203990936E0
3.535273691E0,7.456633568E0,-2.338385820E0,-6.083751678E0
3.540050149E0,7.475177765E0,-2.343171597E0,-6.083751678E0
3.544826607E0,7.674978733E0,-2.347957134E0,-6.166304111E0
3.549603066E0,7.783852100E0,-2.347358942E0,-6.224329948E0
3.554379524E0,7.517650604E0,-2.362314224E0,-6.227919102E0
3.559155930E0,7.033103943E0,-2.315654039E0,-6.057430744E0
3.563932388E0,7.180860519E0,-2.291127682E0,-5.991029739E0
3.568708847E0,7.266404152E0,-2.276770830E0,-6.053841114E0
3.573485305E0,7.327421188E0,-2.261815548E0,-6.111867428E0
3.578261763E0,7.336992264E0,-2.233101845E0,-6.154938221E0
3.583038222E0,7.380063057E0,-2.247458696E0,-6.116652966E0
3.587814628E0,7.298707485E0,-2.271386862E0,-6.164509296E0
3.592591086E0,7.303493023E0,-2.319841623E0,-6.250650883E0
3.597367545E0,7.307680130E0,-2.315055847E0,-6.312864304E0
3.602144003E0,7.431509018E0,-2.362912416E0,-6.303891182E0
3.606920461E0,7.479963779E0,-2.396411896E0,-6.193821430E0
3.611696920E0,7.436892986E0,-2.405983210E0,-6.160321712E0
3.616473378E0,7.403991699E0,-2.415554523E0,-6.193821430E0
3.621249784E0,7.470392227E0,-2.410768747E0,-6.141179085E0
3.626026243E0,7.399205685E0,-2.410768747E0,-6.131010056E0
3.630802701E0,7.336992264E0,-2.396411896E0,-6.183651924E0
3.635579159E0,7.432106972E0,-2.358126640E0,-6.232106686E0
3.640355618E0,7.630711555E0,-2.270788670E0,-6.352943897E0
3.645132076E0,7.369295597E0,-2.218146563E0,-6.284748554E0
3.649908534E0,7.103094101E0,-2.180459738E0,-6.225526333E0
3.654684941E0,6.803392887E0,-2.142772675E0,-6.195616245E0
3.659461399E0,6.812366009E0,-2.065604210E0,-6.272186279E0
3.664237857E0,6.854838848E0,-2.007578135E0,-6.334998131E0
3.669014316E0,6.906284332E0,-2.007578135E0,-6.407381058E0
3.673790774E0,6.901498795E0,-2.021935225E0,-6.450451851E0
3.678567232E0,6.844070911E0,-2.017149448E0,-6.497709751E0
3.683343691E0,6.815357208E0,-2.007578135E0,-6.579065800E0
3.688120149E0,6.876972198E0,-2.075175524E0,-6.608377934E0
3.692896555E0,6.934400082E0,-2.137388945E0,-6.574878216E0
3.697673013E0,6.972685337E0,-2.142174482E0,-6.556334019E0
3.702449472E0,7.010970116E0,-2.170888424E0,-6.546762943E0
3.707225930E0,7.043871880E0,-2.219342947E0,-6.585047722E0
3.712002388E0,7.077371120E0,-2.209173441E0,-6.619145870E0
3.716778847E0,7.006184578E0,-2.161317110E0,-6.575476646E0
3.721555253E0,7.058228493E0,-2.213959217E0,-6.561119556E0
3.726331711E0,7.072585583E0,-2.233700037E0,-6.565905571E0
3.731108170E0,7.077969551E0,-2.204387903E0,-6.503692150E0
3.735884628E0,7.015756130E0,-2.137388945E0,-6.551548481E0
3.740661086E0,6.915257454E0,-2.118246317E0,-6.560521603E0
3.745437545E0,6.801598549E0,-2.036890268E0,-6.478567123E0
3.750214003E0,6.772884369E0,-1.969292998E0,-6.492924213E0
3.754990409E0,6.824928284E0,-1.998006940E0,-6.502495766E0
3.759766868E0,6.867999077E0,-2.075175524E0,-6.488138676E0
3.764543326E0,6.944569588E0,-2.156531334E0,-6.503093719E0
3.769319784E0,6.920641422E0,-2.123031855E0,-6.517450809E0
3.774096243E0,6.967899323E0,-2.151745796E0,-6.608976364E0
3.778872701E0,6.948158741E0,-2.175673962E0,-6.656832695E0
3.783649159E0,7.095915318E0,-2.228316069E0,-6.686144829E0
3.788425566E0,7.129415035E0,-2.291127682E0,-6.652645111E0
3.793202024E0,7.120441914E0,-2.377867460E0,-6.609574318E0
3.797978482E0,7.067201614E0,-2.305484533E0,-6.714858532E0
3.802754941E0,6.976274490E0,-2.166102648E0,-6.781259537E0
3.807531399E0,7.234101295E0,-2.247458696E0,-6.624529362E0
3.812307857E0,6.987640381E0,-2.233700037E0,-6.498308182E0
3.817084316E0,7.011568546E0,-2.137388945E0,-6.455835342E0
3.821860774E0,7.068397999E0,-2.084148407E0,-6.422336102E0
3.826637180E0,7.021139622E0,-2.098505497E0,-6.345167637E0
3.831413638E0,7.030711174E0,-2.069791555E0,-6.306882381E0
3.836190097E0,7.025925636E0,-2.041077614E0,-6.349953175E0
3.840966555E0,7.058826923E0,-2.026720762E0,-6.384050846E0
3.845743013E0,6.958328247E0,-1.949552298E0,-6.440880299E0
3.850519472E0,6.829115868E0,-1.882553220E0,-6.570092678E0
3.855295930E0,6.918846607E0,-1.848455548E0,-6.599404812E0
3.860072388E0,6.919445038E0,-1.872383714E0,-6.550950050E0
3.864848795E0,6.829115868E0,-1.882553220E0,-6.570092678E0
3.869625253E0,6.957131863E0,-1.886740685E0,-6.604190350E0
3.874401711E0,7.005586624E0,-1.944766641E0,-6.556334019E0
3.879178170E0,7.028916359E0,-1.983051777E0,-6.565905571E0
3.883954628E0,6.996015072E0,-2.031506538E0,-6.527620316E0
3.888731086E0,6.996613503E0,-2.069791555E0,-6.479763508E0
3.893507545E0,7.010970116E0,-2.098505497E0,-6.451049805E0
3.898283951E0,6.978068829E0,-2.103889227E0,-6.474380016E0
3.903060409E0,6.991827965E0,-2.093719721E0,-6.469594002E0
3.907836868E0,6.996613503E0,-2.093719721E0,-6.474977970E0
3.912613326E0,6.934998035E0,-2.118246317E0,-6.488736629E0
3.917389784E0,6.930212498E0,-2.132603168E0,-6.531807423E0
3.922166243E0,6.920641422E0,-2.200200319E0,-6.522236347E0
3.926942701E0,6.968497753E0,-2.190030813E0,-6.531807423E0
3.931719107E0,7.010970116E0,-2.204387903E0,-6.551548481E0
3.936495566E0,6.915257454E0,-2.209771633E0,-6.627520561E0
3.941272024E0,7.000801086E0,-2.175673962E0,-6.642475605E0
3.946048482E0,6.996015072E0,-2.156531334E0,-6.647261143E0
3.950824941E0,7.000801086E0,-2.166102648E0,-6.666403770E0
3.955601399E0,7.000202656E0,-2.175673962E0,-6.695117950E0
3.960377857E0,6.948757172E0,-2.194816589E0,-6.652047157E0
3.965154316E0,6.991229534E0,-2.137388945E0,-6.632904530E0
3.969930722E0,6.981658459E0,-2.069791555E0,-6.637690067E0
3.974707180E0,6.938587666E0,-2.041077614E0,-6.584449768E0
3.979483638E0,6.881757736E0,-2.007578135E0,-6.555736065E0
3.984260097E0,6.886543751E0,-2.002792597E0,-6.613163471E0
3.989036555E0,6.693921566E0,-1.959721804E0,-6.803991318E0
3.993813013E0,6.728019238E0,-1.950150490E0,-6.717849731E0
3.998589472E0,6.757929325E0,-1.954936147E0,-6.607779503E0
4.003365930E0,6.737590313E0,-1.911267042E0,-6.641279221E0
4.008142336E0,6.689733982E0,-1.897508383E0,-6.713063717E0
4.012918795E0,6.665805817E0,-1.892722726E0,-6.780063152E0
4.017695253E0,6.722635269E0,-1.964507341E0,-6.780063152E0
4.022471711E0,6.708876610E0,-2.017747641E0,-6.794419765E0
4.027248170E0,6.651448727E0,-1.983649969E0,-6.818347931E0
4.032024628E0,6.736992359E0,-1.974078655E0,-6.833303452E0
4.036801086E0,6.770491600E0,-2.002792597E0,-6.852446079E0
4.041577545E0,6.698707104E0,-2.017747641E0,-6.866802692E0
4.046353951E0,6.689135551E0,-2.032104731E0,-6.861418724E0
4.051130409E0,6.751947403E0,-2.099103689E0,-6.814160824E0
4.055906868E0,6.665805817E0,-2.065604210E0,-6.794419765E0
4.060683326E0,6.671189308E0,-2.060818434E0,-6.741777897E0
4.065459784E0,6.647261143E0,-2.036890268E0,-6.741777897E0
4.070236243E0,6.666403770E0,-2.051247120E0,-6.741777897E0
4.075012701E0,6.632904530E0,-2.022533417E0,-6.745965004E0
4.079789107E0,6.632904530E0,-2.046461582E0,-6.755536556E0
4.084565566E0,6.556932449E0,-2.027318954E0,-6.755536556E0
4.089342024E0,6.647261143E0,-2.032104731E0,-6.732206345E0
4.094118482E0,6.628118515E0,-2.027318954E0,-6.726822853E0
4.098894941E0,6.671189308E0,-2.032104731E0,-6.760920525E0
4.103671399E0,6.617949009E0,-2.046461582E0,-6.832705021E0
4.108447857E0,6.727420807E0,-2.089532375E0,-6.866802692E0
4.113224316E0,6.775875568E0,-2.084746838E0,-6.828517437E0
4.118000774E0,6.785446644E0,-2.103889227E0,-6.818946362E0
4.122777180E0,6.818946362E0,-2.161915302E0,-6.795018196E0
4.127553638E0,6.747759819E0,-2.133201361E0,-6.795018196E0
4.132330097E0,6.814758778E0,-2.137388945E0,-6.766304016E0
4.137106555E0,6.814758778E0,-2.137388945E0,-6.728019238E0
4.141883013E0,6.876972198E0,-2.132603168E0,-6.651448727E0
4.146659472E0,6.820142746E0,-2.142772675E0,-6.646663189E0
4.151435930E0,6.857829571E0,-2.157129526E0,-6.637091637E0
4.156212388E0,6.872186661E0,-2.157129526E0,-6.622735023E0
4.160988795E0,6.829713821E0,-2.166700840E0,-6.627520561E0
4.165765253E0,6.853044033E0,-2.137388945E0,-6.651448727E0
4.170541711E0,6.857829571E0,-2.099103689E0,-6.665805817E0
4.175318170E0,6.843472958E0,-2.099103689E0,-6.665805817E0
4.180094628E0,6.891329288E0,-2.142174482E0,-6.670591354E0
4.184871086E0,6.876972198E0,-2.185843468E0,-6.656234264E0
4.189647545E0,6.924828529E0,-2.185843468E0,-6.646663189E0
4.194424003E0,7.024729252E0,-2.233700037E0,-6.618547440E0
4.199200461E0,7.067800045E0,-2.267199516E0,-6.657430649E0
4.203976868E0,7.091129780E0,-2.281556368E0,-6.690930367E0
4.208753326E0,7.115057945E0,-2.300698996E0,-6.690930367E0
4.213529784E0,7.158128738E0,-2.315055847E0,-6.690930367E0
4.218306243E0,7.162914753E0,-2.300698996E0,-6.633502483E0
4.223082701E0,7.163512707E0,-2.286342144E0,-6.571289062E0
4.227859159E0,7.187440872E0,-2.266601324E0,-6.518647194E0
4.232635618E0,7.206583500E0,-2.242672920E0,-6.504290104E0
4.237412076E0,7.177271366E0,-2.190030813E0,-6.513861656E0
4.242188482E0,7.182057381E0,-2.213959217E0,-6.518647194E0
4.246964941E0,7.234699249E0,-2.247458696E0,-6.524031162E0
4.251741399E0,7.272984505E0,-2.271386862E0,-6.504888535E0
4.256517857E0,7.287341595E0,-2.271386862E0,-6.466603279E0
4.261294316E0,7.320840836E0,-2.257030010E0,-6.437889099E0
4.266070774E0,7.363911629E0,-2.237289190E0,-6.428318024E0
4.270847232E0,7.387241840E0,-2.257030010E0,-6.448058605E0
4.275623691E0,7.401598454E0,-2.295315027E0,-6.438487530E0
4.280400149E0,7.435098171E0,-2.357528448E0,-6.438487530E0
4.285176555E0,7.416553974E0,-2.372483730E0,-6.424130440E0
4.289953013E0,7.421339512E0,-2.372483730E0,-6.375676155E0
4.294729472E0,7.421339512E0,-2.338385820E0,-6.356533527E0
4.299505930E0,7.426125050E0,-2.333600283E0,-6.361917019E0
4.304282388E0,7.383652687E0,-2.343171597E0,-6.370890141E0
4.309058847E0,7.374081135E0,-2.358126640E0,-6.346961975E0
4.313835305E0,7.269395351E0,-2.358126640E0,-6.327221394E0
4.318611763E0,7.079165936E0,-2.281556368E0,-6.335596085E0
4.323388222E0,7.074379921E0,-2.228914261E0,-6.311667919E0
4.328164628E0,7.016952515E0,-2.204986095E0,-6.349953175E0
4.332941086E0,6.935596466E0,-2.209771633E0,-6.407381058E0
4.337717545E0,6.892525673E0,-2.219342947E0,-6.473781586E0
4.342494003E0,6.892525673E0,-2.190629244E0,-6.512664795E0
4.347270461E0,6.882356167E0,-2.176272154E0,-6.574878216E0
4.352046920E0,6.839285374E0,-2.171486616E0,-6.603592396E0
4.356823378E0,6.862615108E0,-2.127817631E0,-6.641877651E0
4.361599836E0,6.896114826E0,-2.103889227E0,-6.646663189E0
4.366376295E0,6.809973240E0,-2.036292076E0,-6.699305058E0
4.371152701E0,6.842874527E0,-1.993221283E0,-6.718447685E0
4.375929159E0,6.804589272E0,-1.998006940E0,-6.708876610E0
4.380705618E0,6.799803734E0,-2.002792597E0,-6.728019238E0
4.385482076E0,6.814160824E0,-2.002792597E0,-6.699305058E0
4.390258534E0,6.818946362E0,-1.978864312E0,-6.704091072E0
4.395034993E0,6.894918442E0,-1.916052699E0,-6.742974281E0
4.399811451E0,7.135995388E0,-1.895713687E0,-6.897909641E0
4.404587909E0,6.760920525E0,-1.906481385E0,-6.809374809E0
4.409364316E0,6.533602238E0,-1.941177368E0,-6.630511761E0
4.414140774E0,6.723831654E0,-1.940579176E0,-6.636493683E0
4.418917232E0,6.833303452E0,-1.950150490E0,-6.656234264E0
4.423693691E0,6.876374245E0,-1.988435626E0,-6.656234264E0
4.428470149E0,6.876374245E0,-2.007578135E0,-6.719046116E0
4.433246607E0,6.923034191E0,-2.031506538E0,-6.809973240E0
4.438023066E0,6.961319447E0,-2.069791555E0,-6.829713821E0
4.442799524E0,6.985247612E0,-2.112862349E0,-6.863213539E0
4.447575982E0,7.004390240E0,-2.170888424E0,-6.834499836E0
4.452352388E0,7.066603661E0,-2.209173441E0,-6.791429043E0
4.457128847E0,7.019345284E0,-2.199602127E0,-6.772286415E0
4.461905305E0,7.023532867E0,-2.213959217E0,-6.810571671E0
4.466681763E0,7.018746853E0,-2.267199516E0,-6.839285374E0
4.471458222E0,7.062416077E0,-2.324627161E0,-6.801000118E0
4.476234680E0,6.986443996E0,-2.353939295E0,-6.733402729E0
4.481011138E0,6.915257454E0,-2.344367981E0,-6.699305058E0
4.485787597E0,6.882356167E0,-2.344367981E0,-6.622735023E0
4.490564055E0,6.859025955E0,-2.315654039E0,-6.531209469E0
4.495340461E0,6.806982040E0,-2.267797709E0,-6.526423931E0
4.500116920E0,6.797410965E0,-2.214557409E0,-6.531209469E0
4.504893378E0,6.773482800E0,-2.210369825E0,-6.516852379E0
4.509669836E0,6.749554634E0,-2.200798512E0,-6.559923172E0
4.514446295E0,6.768098831E0,-2.195414782E0,-6.559923172E0
4.519222753E0,6.705885410E0,-2.171486616E0,-6.564110756E0
4.523999211E0,6.695715904E0,-2.133201361E0,-6.635895252E0
4.528775670E0,6.757929325E0,-2.113460541E0,-6.669992924E0
4.533552128E0,6.757331371E0,-2.084746838E0,-6.713063717E0
4.538328534E0,6.699305058E0,-2.046461582E0,-6.756134510E0
4.543104993E0,6.757331371E0,-2.056032896E0,-6.766304016E0
4.547881451E0,6.766902447E0,-2.089532375E0,-6.790232658E0
4.552657909E0,6.776473522E0,-2.108675003E0,-6.771090031E0
4.557434368E0,6.780661106E0,-2.079961061E0,-6.785446644E0
4.562210826E0,6.771090031E0,-2.056032896E0,-6.809374809E0
4.566987284E0,6.799803734E0,-2.046461582E0,-6.780661106E0
4.571763743E0,6.814160824E0,-2.051247120E0,-6.756732941E0
4.576540201E0,6.728019238E0,-2.056032896E0,-6.746563435E0
4.581316659E0,6.714260101E0,-2.065604210E0,-6.689135551E0
4.586093066E0,6.728617191E0,-2.079961061E0,-6.641279221E0
4.590869524E0,6.753143787E0,-2.051247120E0,-6.593422890E0
4.595645982E0,6.753143787E0,-2.046461582E0,-6.598208427E0
4.600422441E0,6.772286415E0,-2.032104731E0,-6.636493683E0
4.605198899E0,6.805187702E0,-2.031506538E0,-6.651448727E0
4.609975357E0,6.857829571E0,-2.031506538E0,-6.661019802E0
4.614751816E0,6.881757736E0,-2.060818434E0,-6.637091637E0
4.619528274E0,6.891329288E0,-2.089532375E0,-6.637091637E0
4.624304732E0,6.952944279E0,-2.065006018E0,-6.632904530E0
4.629081138E0,7.000202656E0,-2.060220242E0,-6.661618233E0
4.633857597E0,6.985845566E0,-2.069791555E0,-6.685546398E0
4.638634055E0,7.033702374E0,-2.084148407E0,-6.681358814E0
4.643410513E0,7.057630539E0,-2.137388945E0,-6.657430649E0
4.648186972E0,7.071987152E0,-2.142174482E0,-6.609574318E0
4.652963430E0,7.058228493E0,-2.161317110E0,-6.561119556E0
4.657739888E0,7.106084824E0,-2.146960020E0,-6.533003807E0
4.662516347E0,7.101299286E0,-2.151745796E0,-6.508477688E0
4.667292805E0,7.110870838E0,-2.142174482E0,-6.489933014E0
4.672069263E0,7.111468792E0,-2.170888424E0,-6.465406895E0
4.676845670E0,7.121040344E0,-2.194816589E0,-6.455835342E0
4.681622128E0,7.087540627E0,-2.218744755E0,-6.441478729E0
4.686398586E0,7.106683254E0,-2.204387903E0,-6.431907177E0
4.691175045E0,7.063612461E0,-2.170888424E0,-6.465406895E0
4.695951503E0,7.110870838E0,-2.185245275E0,-6.499504566E0
4.700727961E0,7.096513748E0,-2.156531334E0,-6.513263226E0
4.705504420E0,7.130013466E0,-2.156531334E0,-6.504290104E0
4.710280878E0,7.110870838E0,-2.185245275E0,-6.494120598E0
4.715057336E0,7.077969551E0,-2.175673962E0,-6.465406895E0
4.719833795E0,7.087540627E0,-2.142174482E0,-6.446264267E0
4.724610201E0,7.134799004E0,-2.122433662E0,-6.446862221E0
4.729386659E0,7.082755089E0,-2.093719721E0,-6.436692715E0
4.734163118E0,7.054041386E0,-2.074577332E0,-6.470192432E0
4.738939576E0,7.015756130E0,-2.060220242E0,-6.465406895E0
4.743716034E0,6.968497753E0,-2.060220242E0,-6.455237389E0
4.748492493E0,6.954140663E0,-2.050648928E0,-6.450451851E0
4.753268951E0,6.934998035E0,-2.021935225E0,-6.474380016E0
4.758045409E0,6.934400082E0,-1.988435626E0,-6.517450809E0
4.762821868E0,6.924230576E0,-1.968694806E0,-6.579664230E0
4.767598326E0,6.914659023E0,-2.012363911E0,-6.617949009E0
4.772374732E0,6.909873486E0,-2.041077614E0,-6.646663189E0
4.777151191E0,6.924230576E0,-2.075175524E0,-6.647261143E0
4.781927649E0,6.943373203E0,-2.099103689E0,-6.632904530E0
4.786704107E0,6.938587666E0,-2.089532375E0,-6.652047157E0
4.791480566E0,6.967301369E0,-2.079362869E0,-6.671189308E0
4.796257024E0,6.966702938E0,-2.088934183E0,-6.690331936E0
4.801033482E0,6.971488953E0,-2.113460541E0,-6.695117950E0
4.805809941E0,6.957729816E0,-2.127817631E0,-6.675975323E0
4.810586399E0,6.939185619E0,-2.161317110E0,-6.637690067E0
4.815362857E0,6.910471916E0,-2.137388945E0,-6.598806858E0
4.820139316E0,6.901498795E0,-2.113460541E0,-6.550950050E0
4.824915722E0,6.900900364E0,-2.094317913E0,-6.579664230E0
4.829692180E0,6.886543751E0,-2.108675003E0,-6.598806858E0
4.834468638E0,6.867999077E0,-2.123031855E0,-6.603592396E0
4.839245097E0,6.867999077E0,-2.132603168E0,-6.608377934E0
4.844021555E0,6.877570629E0,-2.161915302E0,-6.584449768E0
4.848798013E0,6.877570629E0,-2.200200319E0,-6.574878216E0
4.853574472E0,6.901498795E0,-2.176272154E0,-6.589235306E0
4.858350930E0,6.920042992E0,-2.190629244E0,-6.641877651E0
4.863127388E0,6.952944279E0,-2.214557409E0,-6.680760860E0
4.867903795E0,6.972086906E0,-2.233700037E0,-6.714260101E0
4.872680253E0,6.991229534E0,-2.248056889E0,-6.709474564E0
4.877456711E0,7.010372162E0,-2.276770830E0,-6.675975323E0
4.882233170E0,6.991229534E0,-2.257628202E0,-6.666403770E0
4.887009628E0,6.996015072E0,-2.228914261E0,-6.652047157E0
4.891786086E0,6.976872444E0,-2.190629244E0,-6.671189308E0
4.896562545E0,6.952944279E0,-2.151745796E0,-6.652047157E0
4.901339003E0,6.891329288E0,-2.146960020E0,-6.613163471E0
4.906115461E0,6.844070911E0,-2.147558212E0,-6.584449768E0
4.910891920E0,6.801598549E0,-2.128415823E0,-6.540780544E0
4.915668378E0,6.758527756E0,-2.089532375E0,-6.535995007E0
4.920444784E0,6.734599113E0,-2.051247120E0,-6.511468410E0
4.925221243E0,6.719644070E0,-2.036890268E0,-6.559923172E0
4.929997701E0,6.738786697E0,-2.046461582E0,-6.588637352E0
4.934774159E0,6.758527756E0,-2.084746838E0,-6.598208427E0
4.939550618E0,6.772286415E0,-2.133201361E0,-6.650850773E0
4.944327076E0,6.781857491E0,-2.152343988E0,-6.665207386E0
4.949103534E0,6.819544315E0,-2.157129526E0,-6.684948444E0
4.953879993E0,6.866802692E0,-2.127817631E0,-6.732804775E0
4.958656451E0,6.923632145E0,-2.132603168E0,-6.800402164E0
4.963432909E0,6.923632145E0,-2.137388945E0,-6.800402164E0
4.968209368E0,6.947560310E0,-2.185245275E0,-6.795616150E0
4.972985826E0,6.919445038E0,-2.214557409E0,-6.790830612E0
4.977762232E0,6.929016113E0,-2.233700037E0,-6.738188744E0
4.982538691E0,6.929016113E0,-2.214557409E0,-6.714260101E0
4.987315149E0,6.905686378E0,-2.123031855E0,-6.665805817E0
4.992091607E0,6.886543751E0,-2.127817631E0,-6.641877651E0
4.996868066E0,6.853044033E0,-2.079961061E0,-6.651448727E0
5.001644524E0,6.824928284E0,-2.060818434E0,-6.574280262E0
5.006420982E0,6.796812534E0,-2.079961061E0,-6.531209469E0
5.011197441E0,6.782455921E0,-2.079961061E0,-6.516852379E0
5.015973899E0,6.787241459E0,-2.060818434E0,-6.535995007E0
5.020750357E0,6.780661106E0,-1.998006940E0,-6.761518478E0
5.025526816E0,6.767500877E0,-1.964507341E0,-6.622136593E0
5.030303222E0,6.735197544E0,-2.065604210E0,-6.358327866E0
5.035079680E0,6.853642464E0,-2.046461582E0,-6.555736065E0
5.039856138E0,6.862615108E0,-2.060818434E0,-6.637091637E0
5.044632597E0,6.900302410E0,-2.094317913E0,-6.665805817E0
5.049409055E0,6.971488953E0,-2.084148407E0,-6.695117950E0
5.054185513E0,7.014559746E0,-2.079362869E0,-6.724429607E0
5.058961972E0,7.023532867E0,-2.093719721E0,-6.724429607E0
5.063738430E0,7.080960274E0,-2.098505497E0,-6.734001160E0
5.068514888E0,7.057032108E0,-2.088934183E0,-6.753143787E0
5.073291347E0,7.052844524E0,-2.112862349E0,-6.652645111E0
5.078067805E0,7.071987152E0,-2.127817631E0,-6.600003242E0
5.082844211E0,7.013363361E0,-2.031506538E0,-6.853642464E0
5.087620670E0,6.886543751E0,-1.954936147E0,-6.594020844E0
5.092397128E0,6.888338089E0,-2.051247120E0,-6.339783669E0
5.097173586E0,6.900900364E0,-2.002792597E0,-6.541378975E0
5.101950045E0,6.881757736E0,-1.978864312E0,-6.594020844E0
5.106726503E0,6.862615108E0,-2.012363911E0,-6.613163471E0
5.111502961E0,6.881757736E0,-2.036292076E0,-6.617949009E0
5.116279420E0,6.915257454E0,-2.026720762E0,-6.603592396E0
5.121055878E0,6.967301369E0,-2.041077614E0,-6.632904530E0
5.125832336E0,7.009773731E0,-2.026720762E0,-6.652047157E0
5.130608795E0,7.042675018E0,-2.055434704E0,-6.686144829E0
5.135385253E0,7.076174736E0,-2.103291035E0,-6.714858532E0
5.140161659E0,7.114459991E0,-2.127219439E0,-6.705287457E0
5.144938118E0,7.138388157E0,-2.146361828E0,-6.691528320E0
5.149714576E0,7.138388157E0,-2.151745796E0,-6.676573277E0
5.154491034E0,7.138388157E0,-2.122433662E0,-6.710670948E0
5.159267493E0,7.114459991E0,-2.132004976E0,-6.710072994E0
5.164043951E0,7.067201614E0,-2.137388945E0,-6.700501442E0
5.168820409E0,7.010372162E0,-2.161317110E0,-6.656832695E0
5.173596868E0,6.963113785E0,-2.127817631E0,-6.585047722E0
5.178373326E0,6.925426960E0,-2.099103689E0,-6.531807423E0
5.183149784E0,6.901498795E0,-2.065604210E0,-6.522236347E0
5.187926243E0,6.872784615E0,-2.070389748E0,-6.550950050E0
5.192702701E0,6.857829571E0,-2.065604210E0,-6.598806858E0
5.197479107E0,6.843472958E0,-2.079961061E0,-6.617949009E0
5.202255566E0,6.853044033E0,-2.099103689E0,-6.632306099E0
5.207032024E0,6.853044033E0,-2.132603168E0,-6.637091637E0
5.211808482E0,6.872186661E0,-2.113460541E0,-6.641877651E0
5.216584941E0,6.924230576E0,-2.094317913E0,-6.680760860E0
5.221361399E0,6.947560310E0,-2.094317913E0,-6.747759819E0
5.226137857E0,6.961917400E0,-2.108675003E0,-6.795616150E0
5.230914316E0,6.970890522E0,-2.108675003E0,-6.796214581E0
5.235690774E0,6.952346325E0,-2.137388945E0,-6.805187702E0
5.240467232E0,6.952346325E0,-2.142174482E0,-6.757331371E0
5.245243691E0,6.933801651E0,-2.123031855E0,-6.714260101E0
5.250020149E0,6.924230576E0,-2.075175524E0,-6.680760860E0
5.254796555E0,6.881159782E0,-2.051247120E0,-6.684948444E0
5.259573013E0,6.871588230E0,-2.046461582E0,-6.665805817E0
5.264349472E0,6.833901405E0,-2.051247120E0,-6.665805817E0
5.269125930E0,6.777071953E0,-2.051247120E0,-6.641279221E0
5.273902388E0,6.757929325E0,-2.056032896E0,-6.622136593E0
5.278678847E0,6.762714863E0,-2.036890268E0,-6.631708145E0
5.283455305E0,6.805187702E0,-2.002792597E0,-6.680162430E0
5.288231763E0,6.809374809E0,-2.012363911E0,-6.713662148E0
5.293008222E0,6.833303452E0,-2.021935225E0,-6.756732941E0
5.297784680E0,6.857231617E0,-2.045863390E0,-6.771687984E0
5.302561138E0,6.885347366E0,-2.079961061E0,-6.786045074E0
5.307337597E0,6.923632145E0,-2.075175524E0,-6.771687984E0
5.312114003E0,6.966702938E0,-2.065006018E0,-6.752545357E0
5.316890461E0,6.985247612E0,-2.050648928E0,-6.753143787E0
5.321666920E0,6.994818687E0,-2.045863390E0,-6.729215622E0
5.326443378E0,6.981060028E0,-2.036292076E0,-6.709474564E0
5.331219836E0,6.967301369E0,-2.036292076E0,-6.647261143E0
5.335996295E0,6.943373203E0,-2.036292076E0,-6.585047722E0
5.340772753E0,6.906284332E0,-2.031506538E0,-6.503093719E0
5.345549211E0,6.911069870E0,-1.993221283E0,-6.483951092E0
5.350325670E0,6.934400082E0,-1.978864312E0,-6.493522644E0
5.355102128E0,6.939185619E0,-1.978864312E0,-6.522236347E0
5.359878586E0,6.939185619E0,-2.007578135E0,-6.560521603E0
5.364655045E0,6.920042992E0,-2.026720762E0,-6.574878216E0
5.369431503E0,6.939185619E0,-2.060220242E0,-6.574878216E0
5.374207909E0,6.953542709E0,-2.089532375E0,-6.575476646E0
5.378984368E0,6.981658459E0,-2.099103689E0,-6.599404812E0
5.383760826E0,7.014559746E0,-2.084148407E0,-6.666403770E0
5.388537284E0,7.052844524E0,-2.123031855E0,-6.700501442E0
5.393313743E0,7.066603661E0,-2.142174482E0,-6.738786697E0
5.398090201E0,7.066603661E0,-2.156531334E0,-6.729215622E0
5.402866659E0,7.057630539E0,-2.175673962E0,-6.700501442E0
5.407643118E0,7.038487911E0,-2.185245275E0,-6.681358814E0
5.412419576E0,7.034300327E0,-2.175673962E0,-6.632904530E0
5.417196034E0,7.005586624E0,-2.151745796E0,-6.632904530E0
5.421972493E0,6.991229534E0,-2.132603168E0,-6.628118515E0
5.426748951E0,6.948158741E0,-2.113460541E0,-6.618547440E0
5.431525409E0,6.920042992E0,-2.108675003E0,-6.608377934E0
5.436301816E0,6.891329288E0,-2.103889227E0,-6.603592396E0
5.441078274E0,6.867999077E0,-2.084746838E0,-6.570092678E0
5.445854732E0,6.848856449E0,-2.060818434E0,-6.594020844E0
5.450631191E0,6.848258495E0,-2.065604210E0,-6.651448727E0
5.455407649E0,6.853044033E0,-2.084746838E0,-6.689733982E0
5.460184107E0,6.862017155E0,-2.079961061E0,-6.718447685E0
5.464960566E0,6.852446079E0,-2.094317913E0,-6.742375851E0
5.469737024E0,6.866802692E0,-2.108675003E0,-6.737590313E0
5.474513482E0,6.871588230E0,-2.113460541E0,-6.747161865E0
5.479289941E0,6.895516872E0,-2.113460541E0,-6.757331371E0
5.484066399E0,6.918846607E0,-2.113460541E0,-6.781259537E0
5.488842857E0,6.914061069E0,-2.123031855E0,-6.786045074E0
5.493619316E0,6.871588230E0,-2.123031855E0,-6.761518478E0
5.498395722E0,6.857231617E0,-2.113460541E0,-6.723233223E0
5.503172180E0,6.815357208E0,-2.123031855E0,-6.656234264E0
5.507948638E0,6.767500877E0,-2.103889227E0,-6.631708145E0
5.512725097E0,6.738188744E0,-2.070389748E0,-6.641279221E0
5.517501555E0,6.719046116E0,-2.032104731E0,-6.674778938E0
5.522278013E0,6.690331936E0,-2.017747641E0,-6.698707104E0
5.527054472E0,6.680760860E0,-2.032104731E0,-6.689135551E0
5.531830930E0,6.695117950E0,-2.056032896E0,-6.708278179E0
5.536607388E0,6.709474564E0,-2.065604210E0,-6.703492641E0
5.541383847E0,6.709474564E0,-2.046461582E0,-6.693921566E0
5.546160305E0,6.785446644E0,-2.046461582E0,-6.751947403E0
5.550936763E0,6.818946362E0,-2.065604210E0,-6.795018196E0
5.555713222E0,6.847062111E0,-2.099103689E0,-6.843472958E0
5.560489680E0,6.875775814E0,-2.132603168E0,-6.862615108E0
5.565266086E0,6.880561352E0,-2.181057930E0,-6.853044033E0
5.570042545E0,6.899703979E0,-2.185843468E0,-6.819544315E0
5.574819003E0,6.923632145E0,-2.146960020E0,-6.795616150E0
5.579595461E0,6.923632145E0,-2.113460541E0,-6.781259537E0
5.584371920E0,6.876374245E0,-2.103889227E0,-6.762116909E0
5.589148378E0,6.828517437E0,-2.084746838E0,-6.756732941E0
5.593924836E0,6.795616150E0,-2.075175524E0,-6.699305058E0
5.598701295E0,6.762714863E0,-2.060818434E0,-6.641279221E0
5.603477753E0,6.724429607E0,-2.046461582E0,-6.588637352E0
5.608254211E0,6.700501442E0,-2.017747641E0,-6.568896294E0
5.613030670E0,6.704689026E0,-1.978864312E0,-6.602993965E0
5.617807128E0,6.723831654E0,-1.959721804E0,-6.646064758E0
5.622583586E0,6.723233223E0,-1.993221283E0,-6.703492641E0
5.627360045E0,6.742375851E0,-2.027318954E0,-6.756134510E0
5.632136503E0,6.780661106E0,-2.051247120E0,-6.780661106E0
5.636912909E0,6.823731899E0,-2.075175524E0,-6.795018196E0
5.641689368E0,6.866204739E0,-2.065006018E0,-6.805187702E0
5.646465826E0,6.918248653E0,-2.069791555E0,-6.833901405E0
5.651242284E0,6.951747894E0,-2.074577332E0,-6.863213539E0
5.656018743E0,6.980462074E0,-2.084148407E0,-6.848856449E0
5.660795201E0,6.999604225E0,-2.123031855E0,-6.848856449E0
5.665571659E0,6.990033150E0,-2.137388945E0,-6.786643028E0
5.670348118E0,6.981060028E0,-2.108675003E0,-6.699903488E0
5.675124576E0,6.952944279E0,-2.074577332E0,-6.652047157E0
5.679901034E0,6.933801651E0,-2.055434704E0,-6.642475605E0
5.684677493E0,6.905087948E0,-2.031506538E0,-6.627520561E0
5.689453951E0,6.867401123E0,-2.031506538E0,-6.617949009E0
5.694230409E0,6.853044033E0,-2.026720762E0,-6.603592396E0
5.699006868E0,6.801000118E0,-2.017149448E0,-6.574280262E0
5.703783326E0,6.810571671E0,-2.021935225E0,-6.540780544E0
5.708559732E0,6.824928284E0,-2.017149448E0,-6.526423931E0
5.713336191E0,6.853044033E0,-2.007578135E0,-6.584449768E0
5.718112649E0,6.885945320E0,-2.026720762E0,-6.637091637E0
5.722889107E0,6.914659023E0,-2.055434704E0,-6.680760860E0
5.727665566E0,6.961917400E0,-2.088934183E0,-6.723831654E0
5.732442024E0,7.009773731E0,-2.118246317E0,-6.714858532E0
5.737218482E0,7.009773731E0,-2.108076811E0,-6.719644070E0
5.741994941E0,7.057032108E0,-2.103291035E0,-6.714858532E0
5.746771399E0,7.066603661E0,-2.103291035E0,-6.743572235E0
5.751547857E0,7.061817646E0,-2.084148407E0,-6.757929325E0
5.756324316E0,7.047461033E0,-2.079362869E0,-6.734001160E0
5.761100774E0,7.004988194E0,-2.079362869E0,-6.680760860E0
5.765877232E0,6.957729816E0,-2.060220242E0,-6.608976364E0
5.770653691E0,6.963113785E0,-2.055434704E0,-6.551548481E0
5.775430149E0,6.915257454E0,-2.007578135E0,-6.522236347E0
5.780206607E0,6.886543751E0,-1.983649969E0,-6.536593437E0
5.784983066E0,6.853044033E0,-1.974078655E0,-6.550950050E0
5.789759472E0,6.843472958E0,-1.978864312E0,-6.565307140E0
5.794535930E0,6.829713821E0,-2.007578135E0,-6.579664230E0
5.799312388E0,6.829713821E0,-2.026720762E0,-6.570092678E0
5.804088847E0,6.857829571E0,-2.017149448E0,-6.598806858E0
5.808865305E0,6.924230576E0,-2.002792597E0,-6.632904530E0
5.813641763E0,6.952346325E0,-2.021935225E0,-6.695117950E0
5.818418222E0,6.980462074E0,-2.055434704E0,-6.757929325E0
5.823194680E0,6.990033150E0,-2.084148407E0,-6.777071953E0
5.827971138E0,6.985247612E0,-2.098505497E0,-6.810571671E0
5.832747597E0,6.971488953E0,-2.127817631E0,-6.776473522E0
5.837524055E0,6.981060028E0,-2.118246317E0,-6.738188744E0
5.842300513E0,6.976274490E0,-2.074577332E0,-6.719046116E0
5.847076972E0,6.966702938E0,-2.065006018E0,-6.719046116E0
5.851853430E0,6.918846607E0,-2.074577332E0,-6.728617191E0
5.856629888E0,6.871588230E0,-2.079961061E0,-6.718447685E0
5.861406295E0,6.805187702E0,-2.089532375E0,-6.694519520E0
5.866182805E0,6.767500877E0,-2.070389748E0,-6.655636311E0
5.870959211E0,6.753143787E0,-2.046461582E0,-6.617351055E0
5.875735670E0,6.753143787E0,-2.012962103E0,-6.641279221E0
5.880512128E0,6.752545357E0,-1.988435626E0,-6.693921566E0
5.885288586E0,6.780661106E0,-2.007578135E0,-6.771090031E0
5.890065045E0,6.766304016E0,-2.041675806E0,-6.785446644E0
5.894841503E0,6.785446644E0,-2.099103689E0,-6.790232658E0
5.899617961E0,6.838088989E0,-2.084746838E0,-6.790232658E0
5.904394420E0,6.866802692E0,-2.070389748E0,-6.762116909E0
5.909170878E0,6.875775814E0,-2.084746838E0,-6.805187702E0
5.913947336E0,6.889534473E0,-2.074577332E0,-6.862615108E0
5.918723795E0,6.870990276E0,-2.099103689E0,-6.881757736E0
5.923500253E0,6.880561352E0,-2.137388945E0,-6.857829571E0
5.928276711E0,6.852446079E0,-2.137388945E0,-6.804589272E0
5.933053170E0,6.842874527E0,-2.113460541E0,-6.742375851E0
5.937829628E0,6.843472958E0,-2.065604210E0,-6.699305058E0
5.942606034E0,6.823731899E0,-2.036292076E0,-6.708876610E0
5.947382545E0,6.799803734E0,-2.036890268E0,-6.737590313E0
5.952158951E0,6.771687984E0,-2.041675806E0,-6.751947403E0
5.956935409E0,6.752545357E0,-2.065604210E0,-6.751348972E0
5.961711868E0,6.752545357E0,-2.079961061E0,-6.732206345E0
5.966488326E0,6.753143787E0,-2.075175524E0,-6.698707104E0
5.971264784E0,6.786045074E0,-2.056032896E0,-6.708876610E0
5.976041243E0,6.838088989E0,-2.041077614E0,-6.742375851E0
5.980817701E0,6.866204739E0,-2.055434704E0,-6.776473522E0
5.985594159E0,6.904489517E0,-2.069791555E0,-6.805187702E0
5.990370618E0,6.904489517E0,-2.084746838E0,-6.809973240E0
5.995147076E0,6.909275532E0,-2.103889227E0,-6.766902447E0
5.999923534E0,6.914061069E0,-2.079961061E0,-6.733402729E0
6.004699993E0,6.919445038E0,-2.045863390E0,-6.704689026E0
6.009476451E0,6.928418159E0,-2.026720762E0,-6.704689026E0
6.014252909E0,6.918846607E0,-2.026720762E0,-6.699903488E0
6.019029368E0,6.876374245E0,-2.031506538E0,-6.708876610E0
6.023805826E0,6.881159782E0,-2.055434704E0,-6.684948444E0
6.028582284E0,6.857829571E0,-2.045863390E0,-6.651448727E0
6.033358743E0,6.853044033E0,-2.026720762E0,-6.594020844E0
6.038135149E0,6.853044033E0,-1.988435626E0,-6.589235306E0
6.042911607E0,6.862017155E0,-1.983649969E0,-6.651448727E0
6.047688066E0,6.866802692E0,-1.993221283E0,-6.684948444E0
6.052464524E0,6.881159782E0,-2.012363911E0,-6.719046116E0
6.057240982E0,6.881159782E0,-2.050648928E0,-6.723831654E0
6.062017441E0,6.924230576E0,-2.074577332E0,-6.709474564E0
6.066793899E0,6.952346325E0,-2.060220242E0,-6.685546398E0
6.071570357E0,6.995417118E0,-2.031506538E0,-6.685546398E0
6.076346816E0,7.004390240E0,-2.026720762E0,-6.734001160E0
6.081123274E0,7.004390240E0,-2.055434704E0,-6.757929325E0
6.085899732E0,6.981060028E0,-2.093719721E0,-6.742974281E0
6.090676191E0,6.976274490E0,-2.088934183E0,-6.714260101E0
6.095452649E0,6.948158741E0,-2.089532375E0,-6.623332977E0
6.100229107E0,6.915257454E0,-2.070389748E0,-6.550950050E0
6.105005566E0,6.920042992E0,-2.036292076E0,-6.512664795E0
6.109782024E0,6.905686378E0,-2.017149448E0,-6.527021885E0
6.114558482E0,6.881757736E0,-2.017149448E0,-6.550950050E0
6.119334888E0,6.853044033E0,-2.026720762E0,-6.570092678E0
6.124111347E0,6.820142746E0,-2.032104731E0,-6.564708710E0
6.128887805E0,6.829713821E0,-2.046461582E0,-6.559923172E0
6.133664263E0,6.824928284E0,-2.036890268E0,-6.589235306E0
6.138440722E0,6.857829571E0,-2.036292076E0,-6.651448727E0
6.143217180E0,6.885945320E0,-2.041077614E0,-6.728617191E0
6.147993638E0,6.909275532E0,-2.074577332E0,-6.795616150E0
6.152770097E0,6.903891563E0,-2.089532375E0,-6.843472958E0
6.157546555E0,6.927819729E0,-2.132603168E0,-6.857829571E0
6.162323013E0,6.932605267E0,-2.146960020E0,-6.853044033E0
6.167099472E0,6.923632145E0,-2.118246317E0,-6.833901405E0
6.171875930E0,6.923034191E0,-2.099103689E0,-6.833901405E0
6.176652388E0,6.899703979E0,-2.103889227E0,-6.819544315E0
6.181428847E0,6.861418724E0,-2.094317913E0,-6.824330330E0
6.186205305E0,6.823731899E0,-2.089532375E0,-6.785446644E0
6.190981763E0,6.776473522E0,-2.089532375E0,-6.723233223E0
6.195758222E0,6.719046116E0,-2.079961061E0,-6.660421848E0
6.200534680E0,6.695715904E0,-2.041675806E0,-6.612565517E0
6.205311138E0,6.685546398E0,-2.003390789E0,-6.636493683E0
6.210087597E0,6.647859573E0,-2.008176327E0,-6.659823418E0
6.214864055E0,6.652047157E0,-2.027318954E0,-6.736992359E0
6.219640461E0,6.680162430E0,-2.056032896E0,-6.770491600E0
6.224416920E0,6.708876610E0,-2.084746838E0,-6.780063152E0
6.229193378E0,6.737590313E0,-2.094317913E0,-6.775277138E0
6.233969836E0,6.785446644E0,-2.094317913E0,-6.795018196E0
6.238746295E0,6.861418724E0,-2.084746838E0,-6.843472958E0
6.243522753E0,6.894320011E0,-2.108675003E0,-6.920042992E0
6.248299211E0,6.899106026E0,-2.146960020E0,-6.943971157E0
6.253075670E0,6.908677101E0,-2.175673962E0,-6.943971157E0
6.257852128E0,6.908677101E0,-2.181057930E0,-6.891329288E0
6.262628586E0,6.890132904E0,-2.151745796E0,-6.819544315E0
6.267405045E0,6.880561352E0,-2.113460541E0,-6.786045074E0
6.272181503E0,6.852446079E0,-2.075175524E0,-6.766304016E0
6.276957961E0,6.818946362E0,-2.051247120E0,-6.737590313E0
6.281734420E0,6.781259537E0,-2.041675806E0,-6.704091072E0
6.286510878E0,6.753143787E0,-2.051247120E0,-6.665207386E0
6.291287336E0,6.724429607E0,-2.060818434E0,-6.602993965E0
6.296063795E0,6.729215622E0,-2.041675806E0,-6.559923172E0
6.300840253E0,6.748956203E0,-2.008176327E0,-6.564708710E0
6.305616711E0,6.767500877E0,-2.008176327E0,-6.617351055E0
6.310393170E0,6.795616150E0,-2.027318954E0,-6.680162430E0
6.315169628E0,6.833303452E0,-2.046461582E0,-6.718447685E0
6.319946034E0,6.894918442E0,-2.060220242E0,-6.766902447E0
6.324722493E0,6.923632145E0,-2.108675003E0,-6.762116909E0
6.329498951E0,6.947560310E0,-2.108675003E0,-6.747759819E0
6.334275409E0,6.999604225E0,-2.113460541E0,-6.786643028E0
6.339051868E0,7.023532867E0,-2.108076811E0,-6.801000118E0
6.343828326E0,7.028318405E0,-2.098505497E0,-6.801000118E0
6.348604784E0,7.004390240E0,-2.123031855E0,-6.805785656E0
6.353381243E0,6.961917400E0,-2.123031855E0,-6.762116909E0
6.358157701E0,6.933801651E0,-2.118246317E0,-6.699903488E0
6.362934159E0,6.905686378E0,-2.079961061E0,-6.603592396E0
6.367710618E0,6.867401123E0,-2.046461582E0,-6.574878216E0
6.372487076E0,6.853044033E0,-2.012363911E0,-6.565307140E0
6.377263534E0,6.829713821E0,-1.988435626E0,-6.570092678E0
6.382039993E0,6.805785656E0,-2.007578135E0,-6.579065800E0
6.386816451E0,6.767500877E0,-2.022533417E0,-6.598208427E0
6.391592909E0,6.767500877E0,-2.041675806E0,-6.574280262E0
6.396369368E0,6.796214581E0,-2.017747641E0,-6.569494724E0
6.401145826E0,6.843472958E0,-2.012363911E0,-6.598806858E0
6.405922284E0,6.881159782E0,-2.021935225E0,-6.665805817E0
6.410698743E0,6.918846607E0,-2.050648928E0,-6.738188744E0
6.415475201E0,6.946962357E0,-2.065006018E0,-6.795616150E0
6.420251607E0,6.961319447E0,-2.103889227E0,-6.815357208E0
6.425028066E0,6.971488953E0,-2.118246317E0,-6.776473522E0
6.429804524E0,6.985845566E0,-2.103889227E0,-6.752545357E0
6.434580982E0,6.994818687E0,-2.065006018E0,-6.748358250E0
6.439357441E0,6.961917400E0,-2.065006018E0,-6.733402729E0
6.444133899E0,6.928418159E0,-2.084746838E0,-6.733402729E0
6.448910357E0,6.881159782E0,-2.084746838E0,-6.713662148E0
6.453686816E0,6.833901405E0,-2.089532375E0,-6.651448727E0
6.458463274E0,6.791429043E0,-2.075175524E0,-6.588637352E0
6.463239732E0,6.777669907E0,-2.036890268E0,-6.550352097E0
6.468016191E0,6.786643028E0,-2.003390789E0,-6.569494724E0
6.472792649E0,6.777071953E0,-1.988435626E0,-6.622136593E0
6.477569107E0,6.786045074E0,-2.017747641E0,-6.665805817E0
6.482345566E0,6.776473522E0,-2.065604210E0,-6.699305058E0
6.487122024E0,6.819544315E0,-2.075175524E0,-6.732804775E0
6.491898482E0,6.842874527E0,-2.084746838E0,-6.718447685E0
6.496674941E0,6.890730858E0,-2.079961061E0,-6.728617191E0
6.501451399E0,6.937989235E0,-2.065006018E0,-6.781259537E0
6.506227857E0,6.946962357E0,-2.084746838E0,-6.814758778E0
6.511004316E0,6.942176819E0,-2.094317913E0,-6.838686943E0
6.515780774E0,6.946962357E0,-2.132603168E0,-6.833901405E0
6.520557232E0,6.933203697E0,-2.166102648E0,-6.814758778E0
6.525333691E0,6.919445038E0,-2.166700840E0,-6.762116909E0
6.530110149E0,6.914659023E0,-2.113460541E0,-6.719046116E0
6.534886607E0,6.900302410E0,-2.089532375E0,-6.709474564E0
6.539663066E0,6.866802692E0,-2.070389748E0,-6.689733982E0
6.544439472E0,6.819544315E0,-2.070389748E0,-6.675376892E0
6.549215930E0,6.795616150E0,-2.079961061E0,-6.689733982E0
6.553992441E0,6.767500877E0,-2.109273195E0,-6.669992924E0
6.558768847E0,6.772286415E0,-2.099701881E0,-6.655636311E0
6.563545305E0,6.781857491E0,-2.070389748E0,-6.650850773E0
6.568321763E0,6.814758778E0,-2.036890268E0,-6.699305058E0
6.573098222E0,6.828517437E0,-2.056032896E0,-6.732804775E0
6.577874680E0,6.857231617E0,-2.084746838E0,-6.771090031E0
6.582651138E0,6.866802692E0,-2.118246317E0,-6.776473522E0
6.587427597E0,6.876374245E0,-2.161915302E0,-6.771687984E0
6.592204055E0,6.919445038E0,-2.146960020E0,-6.728617191E0
6.596980513E0,6.942774773E0,-2.113460541E0,-6.733402729E0
6.601756972E0,6.952346325E0,-2.094317913E0,-6.738188744E0
6.606533430E0,6.952346325E0,-2.099103689E0,-6.757331371E0
6.611309888E0,6.918846607E0,-2.118246317E0,-6.747759819E0
6.616086347E0,6.890730858E0,-2.132603168E0,-6.718447685E0
6.620862805E0,6.876972198E0,-2.118246317E0,-6.661019802E0
6.625639263E0,6.848258495E0,-2.070389748E0,-6.622735023E0
6.630415722E0,6.838686943E0,-2.041675806E0,-6.594020844E0
6.635192180E0,6.848258495E0,-2.012363911E0,-6.617949009E0
6.639968638E0,6.838686943E0,-2.031506538E0,-6.651448727E0
6.644745097E0,6.829115868E0,-2.056032896E0,-6.684948444E0
6.649521555E0,6.824330330E0,-2.089532375E0,-6.675376892E0
6.654298013E0,6.833901405E0,-2.094317913E0,-6.637091637E0
6.659074472E0,6.867401123E0,-2.070389748E0,-6.651448727E0
6.663850930E0,6.900302410E0,-2.045863390E0,-6.665805817E0
6.668627388E0,6.928418159E0,-2.069791555E0,-6.733402729E0
6.673403847E0,6.952346325E0,-2.088934183E0,-6.776473522E0
6.678180253E0,6.947560310E0,-2.103889227E0,-6.786045074E0
6.682956711E0,6.937989235E0,-2.132603168E0,-6.766902447E0
6.687733170E0,6.933801651E0,-2.156531334E0,-6.719046116E0
6.692509628E0,6.919445038E0,-2.123031855E0,-6.656832695E0
6.697286086E0,6.924230576E0,-2.074577332E0,-6.632904530E0
6.702062545E0,6.895516872E0,-2.070389748E0,-6.646663189E0
6.706839003E0,6.862615108E0,-2.065604210E0,-6.632306099E0
6.711615461E0,6.829115868E0,-2.065604210E0,-6.627520561E0
6.716391920E0,6.824928284E0,-2.089532375E0,-6.608377934E0
6.721168378E0,6.801000118E0,-2.094317913E0,-6.583851337E0
6.725944836E0,6.810571671E0,-2.079961061E0,-6.579065800E0
6.730721295E0,6.829115868E0,-2.056032896E0,-6.627520561E0
6.735497753E0,6.866802692E0,-2.055434704E0,-6.684948444E0
6.740274211E0,6.890730858E0,-2.089532375E0,-6.738188744E0
6.745050670E0,6.909275532E0,-2.151745796E0,-6.786045074E0
6.749827128E0,6.909873486E0,-2.190629244E0,-6.786045074E0
6.754603586E0,6.933203697E0,-2.146960020E0,-6.747759819E0
6.759380045E0,6.957131863E0,-2.123031855E0,-6.714260101E0
6.764156503E0,6.985845566E0,-2.108675003E0,-6.742974281E0
6.768932961E0,6.971488953E0,-2.123031855E0,-6.747759819E0
6.773709420E0,6.947560310E0,-2.118246317E0,-6.757331371E0
6.778485878E0,6.905087948E0,-2.146960020E0,-6.723831654E0
6.783262336E0,6.881757736E0,-2.156531334E0,-6.661019802E0
6.788038795E0,6.853642464E0,-2.123031855E0,-6.584449768E0
6.792815253E0,6.844070911E0,-2.075175524E0,-6.521637917E0
6.797591711E0,6.834499836E0,-2.036890268E0,-6.540780544E0
6.802368170E0,6.815357208E0,-2.046461582E0,-6.588637352E0
6.807144628E0,6.801000118E0,-2.079961061E0,-6.631708145E0
6.811921086E0,6.829115868E0,-2.084746838E0,-6.670591354E0
6.816697493E0,6.829115868E0,-2.127817631E0,-6.661019802E0
6.821473951E0,6.848258495E0,-2.113460541E0,-6.641877651E0
6.826250409E0,6.872186661E0,-2.079961061E0,-6.661019802E0
6.831026868E0,6.923632145E0,-2.079961061E0,-6.723831654E0
6.835803326E0,6.975676060E0,-2.093719721E0,-6.786643028E0
6.840579784E0,6.951747894E0,-2.137388945E0,-6.843472958E0
6.845356243E0,6.980462074E0,-2.151745796E0,-6.834499836E0
6.850132701E0,6.981060028E0,-2.166102648E0,-6.781259537E0
6.854909159E0,6.961917400E0,-2.142174482E0,-6.714260101E0
6.859685618E0,6.957729816E0,-2.123031855E0,-6.680760860E0
6.864462076E0,6.933801651E0,-2.065006018E0,-6.690331936E0
6.869238534E0,6.909873486E0,-2.070389748E0,-6.690331936E0
6.874014993E0,6.857829571E0,-2.079961061E0,-6.675376892E0
6.878791451E0,6.819544315E0,-2.084746838E0,-6.656234264E0
6.883567909E0,6.777669907E0,-2.089532375E0,-6.559923172E0
6.888344368E0,6.787241459E0,-2.060818434E0,-6.512066841E0
6.893120826E0,6.787241459E0,-2.036890268E0,-6.502495766E0
6.897897284E0,6.801000118E0,-2.032104731E0,-6.559923172E0
6.902673743E0,6.824330330E0,-2.032104731E0,-6.627520561E0
6.907450201E0,6.829115868E0,-2.070389748E0,-6.665805817E0
6.912226659E0,6.871588230E0,-2.099103689E0,-6.708876610E0
6.917003118E0,6.900302410E0,-2.132603168E0,-6.723831654E0
6.921779576E0,6.948158741E0,-2.132603168E0,-6.723831654E0
6.926556034E0,7.004390240E0,-2.108076811E0,-6.762714863E0
6.931332493E0,7.023532867E0,-2.098505497E0,-6.786643028E0
6.936108951E0,7.028318405E0,-2.132603168E0,-6.820142746E0
6.940885409E0,7.018746853E0,-2.166102648E0,-6.834499836E0
6.945661868E0,6.981060028E0,-2.194816589E0,-6.795616150E0
6.950438326E0,6.952944279E0,-2.175673962E0,-6.714260101E0
6.955214784E0,6.905686378E0,-2.146960020E0,-6.627520561E0
6.959991243E0,6.863213539E0,-2.084746838E0,-6.589235306E0
6.964767701E0,6.824928284E0,-2.041675806E0,-6.608377934E0
6.969544159E0,6.791429043E0,-2.041675806E0,-6.612565517E0
6.974320618E0,6.772286415E0,-2.051247120E0,-6.617351055E0
6.979097076E0,6.777071953E0,-2.084746838E0,-6.588637352E0
6.983873534E0,6.753741741E0,-2.109273195E0,-6.550352097E0
6.988649993E0,6.768098831E0,-2.070389748E0,-6.555137634E0
6.993426399E0,6.801000118E0,-2.070389748E0,-6.622136593E0
6.998202909E0,6.829115868E0,-2.079961061E0,-6.699305058E0
7.002979316E0,6.870990276E0,-2.084746838E0,-6.786045074E0
7.007755774E0,6.914061069E0,-2.132603168E0,-6.819544315E0
7.012532232E0,6.961917400E0,-2.161317110E0,-6.819544315E0
7.017308691E0,6.966702938E0,-2.156531334E0,-6.781259537E0
7.022085149E0,6.990631580E0,-2.127817631E0,-6.747759819E0
7.026861607E0,6.999604225E0,-2.112862349E0,-6.786643028E0
7.031638066E0,6.990033150E0,-2.108076811E0,-6.791429043E0
7.036414524E0,6.947560310E0,-2.123031855E0,-6.786045074E0
7.041190982E0,6.923632145E0,-2.123031855E0,-6.747759819E0
7.045967441E0,6.848258495E0,-2.123031855E0,-6.661019802E0
7.050743899E0,6.815357208E0,-2.084746838E0,-6.583851337E0
7.055520357E0,6.786643028E0,-2.036890268E0,-6.550352097E0
7.060296816E0,6.772286415E0,-1.988435626E0,-6.555137634E0
7.065073274E0,6.757929325E0,-2.008176327E0,-6.607779503E0
7.069849732E0,6.753143787E0,-2.041675806E0,-6.646064758E0
7.074626191E0,6.757929325E0,-2.046461582E0,-6.665207386E0
7.079402649E0,6.762714863E0,-2.084746838E0,-6.684350014E0
7.084179107E0,6.790830612E0,-2.089532375E0,-6.675376892E0
7.088955566E0,6.838686943E0,-2.079961061E0,-6.675376892E0
7.093732024E0,6.890730858E0,-2.065006018E0,-6.738188744E0
7.098508482E0,6.933203697E0,-2.074577332E0,-6.762116909E0
7.103284941E0,6.951747894E0,-2.099103689E0,-6.814758778E0
7.108061399E0,6.970890522E0,-2.132603168E0,-6.829713821E0
7.112837857E0,6.952346325E0,-2.142174482E0,-6.776473522E0
7.117614316E0,6.942774773E0,-2.118246317E0,-6.728617191E0
7.122390774E0,6.929016113E0,-2.079961061E0,-6.685546398E0
7.127167232E0,6.914659023E0,-2.055434704E0,-6.675975323E0
7.131943691E0,6.895516872E0,-2.036292076E0,-6.695117950E0
7.136720149E0,6.866802692E0,-2.045863390E0,-6.684948444E0
7.141496607E0,6.838686943E0,-2.089532375E0,-6.680162430E0
7.146273066E0,6.820142746E0,-2.103889227E0,-6.632306099E0
7.151049524E0,6.805785656E0,-2.089532375E0,-6.583851337E0
7.155825982E0,6.839285374E0,-2.065604210E0,-6.570092678E0
7.160602441E0,6.853044033E0,-2.065604210E0,-6.622735023E0
7.165378899E0,6.853044033E0,-2.094317913E0,-6.680162430E0
7.170155357E0,6.876374245E0,-2.127817631E0,-6.742375851E0
7.174931816E0,6.876374245E0,-2.161915302E0,-6.756732941E0
7.179708274E0,6.895516872E0,-2.195414782E0,-6.747759819E0
7.184484732E0,6.914659023E0,-2.176272154E0,-6.738188744E0
7.189261191E0,6.961917400E0,-2.137388945E0,-6.728617191E0
7.194037649E0,6.971488953E0,-2.098505497E0,-6.766902447E0
7.198814107E0,6.961917400E0,-2.127817631E0,-6.795616150E0
7.203590513E0,6.933203697E0,-2.151745796E0,-6.800402164E0
7.208366972E0,6.918846607E0,-2.166102648E0,-6.781259537E0
7.213143430E0,6.890730858E0,-2.137388945E0,-6.704091072E0
7.217919888E0,6.881757736E0,-2.118246317E0,-6.656234264E0
7.222696347E0,6.876972198E0,-2.070389748E0,-6.637091637E0
7.227472805E0,6.857829571E0,-2.051247120E0,-6.646663189E0
7.232249263E0,6.838686943E0,-2.036890268E0,-6.670591354E0
7.237025722E0,6.805187702E0,-2.075175524E0,-6.675376892E0
7.241802180E0,6.796214581E0,-2.065604210E0,-6.651448727E0
7.246578638E0,6.815357208E0,-2.060818434E0,-6.627520561E0
7.251355097E0,6.829115868E0,-2.036890268E0,-6.632306099E0
7.256131555E0,6.848258495E0,-2.031506538E0,-6.646663189E0
7.260908013E0,6.895516872E0,-2.036292076E0,-6.719046116E0
7.265684472E0,6.918846607E0,-2.036292076E0,-6.771687984E0
7.270460930E0,6.937989235E0,-2.074577332E0,-6.790830612E0
7.275237388E0,6.947560310E0,-2.118246317E0,-6.781259537E0
7.280013847E0,6.924230576E0,-2.137388945E0,-6.728617191E0
7.284790305E0,6.938587666E0,-2.094317913E0,-6.685546398E0
7.289566763E0,6.924230576E0,-2.060220242E0,-6.671189308E0
7.294343222E0,6.895516872E0,-2.055434704E0,-6.690331936E0
7.299119680E0,6.862017155E0,-2.065604210E0,-6.689733982E0
7.303896138E0,6.843472958E0,-2.084746838E0,-6.675376892E0
7.308672597E0,6.805785656E0,-2.094317913E0,-6.656234264E0
7.313449055E0,6.791429043E0,-2.084746838E0,-6.598208427E0
7.318225513E0,6.781857491E0,-2.041675806E0,-6.569494724E0
7.323001972E0,6.820142746E0,-2.002792597E0,-6.594020844E0
7.327778430E0,6.833901405E0,-2.007578135E0,-6.651448727E0
7.332554888E0,6.857231617E0,-2.060818434E0,-6.728019238E0
7.337331347E0,6.862017155E0,-2.118246317E0,-6.786045074E0
7.342107805E0,6.876374245E0,-2.142174482E0,-6.786045074E0
7.346884263E0,6.909873486E0,-2.123031855E0,-6.752545357E0
7.351660722E0,6.948158741E0,-2.113460541E0,-6.714260101E0
7.356437180E0,6.971488953E0,-2.099103689E0,-6.738188744E0
7.361213638E0,6.971488953E0,-2.099103689E0,-6.766902447E0
7.365990097E0,6.980462074E0,-2.123031855E0,-6.791429043E0
7.370766555E0,6.933203697E0,-2.146960020E0,-6.776473522E0
7.375543013E0,6.890730858E0,-2.157129526E0,-6.708876610E0
7.380319472E0,6.857829571E0,-2.118246317E0,-6.617949009E0
7.385095930E0,6.848856449E0,-2.060818434E0,-6.574878216E0
7.389872388E0,6.839285374E0,-2.036890268E0,-6.589235306E0
7.394648847E0,6.801000118E0,-2.032104731E0,-6.626922131E0
7.399425305E0,6.767500877E0,-2.036890268E0,-6.660421848E0
7.404201763E0,6.777071953E0,-2.060818434E0,-6.660421848E0
7.408978222E0,6.753143787E0,-2.075175524E0,-6.641279221E0
7.413754680E0,6.767500877E0,-2.056032896E0,-6.607779503E0
7.418531138E0,6.796214581E0,-2.027318954E0,-6.626922131E0
7.423307597E0,6.828517437E0,-2.041077614E0,-6.713662148E0
7.428084055E0,6.842874527E0,-2.065604210E0,-6.785446644E0
7.432860513E0,6.875775814E0,-2.084746838E0,-6.809973240E0
7.437636972E0,6.899703979E0,-2.108675003E0,-6.819544315E0
7.442413430E0,6.904489517E0,-2.127817631E0,-6.771687984E0
7.447189888E0,6.914061069E0,-2.118246317E0,-6.757331371E0
7.451966347E0,6.933203697E0,-2.094317913E0,-6.738188744E0
7.456742805E0,6.928418159E0,-2.065006018E0,-6.752545357E0
7.461519263E0,6.909275532E0,-2.074577332E0,-6.742974281E0
7.466295722E0,6.866802692E0,-2.079961061E0,-6.713662148E0
7.471072180E0,6.872186661E0,-2.084746838E0,-6.670591354E0
7.475848638E0,6.833901405E0,-2.094317913E0,-6.627520561E0
7.480625097E0,6.796812534E0,-2.079961061E0,-6.550352097E0
7.485401555E0,6.791429043E0,-2.036890268E0,-6.545566559E0
7.490178013E0,6.815357208E0,-2.002792597E0,-6.574280262E0
7.494954472E0,6.809973240E0,-2.002792597E0,-6.603592396E0
7.499730930E0,6.800402164E0,-2.041675806E0,-6.661019802E0
7.504507388E0,6.814758778E0,-2.075175524E0,-6.694519520E0
7.509283847E0,6.857231617E0,-2.099103689E0,-6.704091072E0
7.514060305E0,6.885945320E0,-2.113460541E0,-6.738188744E0
7.518836763E0,6.928418159E0,-2.089532375E0,-6.762116909E0
7.523613222E0,6.970890522E0,-2.088934183E0,-6.820142746E0
7.528389680E0,7.003791809E0,-2.108076811E0,-6.863213539E0
7.533166138E0,7.008577347E0,-2.132603168E0,-6.872784615E0
7.537942597E0,7.032505512E0,-2.156531334E0,-6.844070911E0
7.542719055E0,6.995417118E0,-2.170888424E0,-6.762714863E0
7.547495513E0,6.962515831E0,-2.127817631E0,-6.699903488E0
7.552271920E0,6.952944279E0,-2.074577332E0,-6.666403770E0
7.557048430E0,6.890730858E0,-2.050648928E0,-6.651448727E0
7.561824836E0,6.857829571E0,-2.065604210E0,-6.646663189E0
7.566601347E0,6.814758778E0,-2.060818434E0,-6.632306099E0
7.571377805E0,6.791429043E0,-2.056032896E0,-6.574280262E0
7.576154263E0,6.772884369E0,-2.046461582E0,-6.521637917E0
7.580930670E0,6.753741741E0,-2.017747641E0,-6.526423931E0
7.585707128E0,6.786643028E0,-1.993221283E0,-6.569494724E0
7.590483638E0,6.800402164E0,-2.007578135E0,-6.665805817E0
7.595260097E0,6.833303452E0,-2.041077614E0,-6.737590313E0
7.600036555E0,6.838088989E0,-2.084746838E0,-6.795018196E0
7.604812961E0,6.870990276E0,-2.108675003E0,-6.829115868E0
7.609589472E0,6.937989235E0,-2.094317913E0,-6.809973240E0
7.614365930E0,6.961319447E0,-2.093719721E0,-6.795616150E0
7.619142336E0,6.966104984E0,-2.088934183E0,-6.834499836E0
7.623918847E0,6.994220734E0,-2.079362869E0,-6.853642464E0
7.628695305E0,6.994818687E0,-2.084148407E0,-6.839285374E0
7.633471711E0,6.966104984E0,-2.098505497E0,-6.800402164E0
7.638248222E0,6.914659023E0,-2.113460541E0,-6.728617191E0
7.643024628E0,6.881757736E0,-2.108675003E0,-6.656234264E0
7.647801138E0,6.838686943E0,-2.046461582E0,-6.603592396E0
7.652577545E0,6.801000118E0,-2.002792597E0,-6.602993965E0
7.657354003E0,6.777071953E0,-1.993221283E0,-6.622136593E0
7.662130461E0,6.753143787E0,-1.988435626E0,-6.655636311E0
7.666906920E0,6.752545357E0,-2.027318954E0,-6.679564476E0
7.671683430E0,6.728617191E0,-2.056032896E0,-6.669992924E0
7.676459836E0,6.753143787E0,-2.046461582E0,-6.650850773E0
7.681236295E0,6.766902447E0,-2.036890268E0,-6.674778938E0
7.686012753E0,6.852446079E0,-2.026720762E0,-6.737590313E0
7.690789211E0,6.885347366E0,-2.050648928E0,-6.781259537E0
7.695565670E0,6.899106026E0,-2.074577332E0,-6.843472958E0
7.700342128E0,6.946962357E0,-2.099103689E0,-6.877570629E0
7.705118586E0,6.937391281E0,-2.137388945E0,-6.857829571E0
7.709895045E0,6.966104984E0,-2.123031855E0,-6.805187702E0
7.714671503E0,6.947560310E0,-2.103889227E0,-6.786045074E0
7.719447961E0,6.942176819E0,-2.055434704E0,-6.790830612E0
7.724224420E0,6.942774773E0,-2.074577332E0,-6.781259537E0
7.729000930E0,6.871588230E0,-2.079961061E0,-6.762116909E0
7.733777336E0,6.848258495E0,-2.089532375E0,-6.699305058E0
7.738553795E0,6.801000118E0,-2.075175524E0,-6.641279221E0
7.743330253E0,6.781857491E0,-2.041675806E0,-6.559923172E0
7.748106711E0,6.772884369E0,-2.022533417E0,-6.555137634E0
7.752883170E0,6.762714863E0,-2.032104731E0,-6.622136593E0
7.757659628E0,6.795616150E0,-2.017149448E0,-6.670591354E0
7.762436086E0,6.804589272E0,-2.046461582E0,-6.732804775E0
7.767212545E0,6.833901405E0,-2.103889227E0,-6.728019238E0
7.771989003E0,6.848258495E0,-2.132603168E0,-6.718447685E0
7.776765461E0,6.890730858E0,-2.108675003E0,-6.714260101E0
7.781541920E0,6.937989235E0,-2.065006018E0,-6.742974281E0
7.786318378E0,6.942176819E0,-2.069791555E0,-6.805187702E0
7.791094888E0,6.966104984E0,-2.079362869E0,-6.848856449E0
7.795871295E0,6.961319447E0,-2.113460541E0,-6.848856449E0
7.800647805E0,6.942774773E0,-2.123031855E0,-6.809973240E0
7.805424211E0,6.919445038E0,-2.123031855E0,-6.714260101E0
7.810200670E0,6.900302410E0,-2.079961061E0,-6.651448727E0
7.814977128E0,6.881757736E0,-2.031506538E0,-6.632306099E0
7.819753586E0,6.862615108E0,-2.026720762E0,-6.617949009E0
7.824530045E0,6.843472958E0,-2.026720762E0,-6.651448727E0
7.829306503E0,6.819544315E0,-2.041675806E0,-6.665805817E0
7.834082961E0,6.791429043E0,-2.041675806E0,-6.641279221E0
7.838859420E0,6.777071953E0,-2.036890268E0,-6.612565517E0
7.843635878E0,6.796214581E0,-2.041675806E0,-6.598208427E0
7.848412336E0,6.805187702E0,-2.021935225E0,-6.637091637E0
7.853188847E0,6.847660065E0,-2.021935225E0,-6.713662148E0
7.857965253E0,6.890132904E0,-2.050648928E0,-6.795616150E0
7.862741711E0,6.885347366E0,-2.094317913E0,-6.829115868E0
7.867518170E0,6.899703979E0,-2.137388945E0,-6.833901405E0
7.872294628E0,6.914061069E0,-2.123031855E0,-6.795616150E0
7.877071086E0,6.918846607E0,-2.089532375E0,-6.747759819E0
7.881847545E0,6.928418159E0,-2.089532375E0,-6.738188744E0
7.886624003E0,6.899703979E0,-2.079961061E0,-6.757331371E0
7.891400461E0,6.871588230E0,-2.079961061E0,-6.776473522E0
7.896176920E0,6.842874527E0,-2.089532375E0,-6.756732941E0
7.900953378E0,6.805187702E0,-2.099103689E0,-6.704091072E0
7.905729836E0,6.762714863E0,-2.065604210E0,-6.622136593E0
7.910506295E0,6.753143787E0,-2.022533417E0,-6.588637352E0
7.915282753E0,6.786643028E0,-1.993221283E0,-6.617351055E0
7.920059211E0,6.781259537E0,-1.998006940E0,-6.680162430E0
7.924835722E0,6.781259537E0,-2.027318954E0,-6.742375851E0
7.929612128E0,6.785446644E0,-2.036890268E0,-6.785446644E0
7.934388586E0,6.799803734E0,-2.079961061E0,-6.771090031E0
7.939165045E0,6.847660065E0,-2.070389748E0,-6.732804775E0
7.943941555E0,6.876374245E0,-2.065604210E0,-6.738188744E0
7.948717961E0,6.937989235E0,-2.055434704E0,-6.786045074E0
7.953494420E0,6.970890522E0,-2.065006018E0,-6.858428001E0
7.958270930E0,6.961319447E0,-2.108675003E0,-6.858428001E0
7.963047388E0,6.937391281E0,-2.127817631E0,-6.862615108E0
7.967823795E0,6.933203697E0,-2.127817631E0,-6.800402164E0
7.972600253E0,6.914659023E0,-2.099103689E0,-6.723831654E0
7.977376711E0,6.872186661E0,-2.056032896E0,-6.661019802E0
7.982153222E0,6.862615108E0,-2.026720762E0,-6.651448727E0
7.986929680E0,6.829115868E0,-2.007578135E0,-6.651448727E0
7.991706138E0,6.805187702E0,-2.012363911E0,-6.651448727E0
7.996482545E0,6.795616150E0,-2.012363911E0,-6.637091637E0
8.001259055E0,6.781857491E0,-2.027318954E0,-6.622136593E0
8.006035513E0,6.786643028E0,-2.012363911E0,-6.598208427E0
8.010811972E0,6.829115868E0,-1.988435626E0,-6.579664230E0
8.015588430E0,6.843472958E0,-1.983649969E0,-6.646663189E0
8.020364836E0,6.866802692E0,-2.021935225E0,-6.704091072E0
8.025141347E0,6.876374245E0,-2.036292076E0,-6.747759819E0
8.029917805E0,6.885347366E0,-2.079961061E0,-6.776473522E0
8.034694263E0,6.909275532E0,-2.099103689E0,-6.757331371E0
8.039470722E0,6.923632145E0,-2.089532375E0,-6.742974281E0
8.044247180E0,6.937989235E0,-2.050648928E0,-6.752545357E0
8.049023638E0,6.951747894E0,-2.060220242E0,-6.781259537E0
8.053800097E0,6.923034191E0,-2.065006018E0,-6.814758778E0
8.058576555E0,6.880561352E0,-2.108675003E0,-6.800402164E0
8.063353013E0,6.866802692E0,-2.113460541E0,-6.747161865E0
8.068129472E0,6.862615108E0,-2.099103689E0,-6.675376892E0
8.072905930E0,6.824928284E0,-2.079961061E0,-6.583851337E0
8.077682388E0,6.805785656E0,-2.046461582E0,-6.559923172E0
8.082458847E0,6.801000118E0,-2.017149448E0,-6.602993965E0
8.087235305E0,6.805187702E0,-2.021935225E0,-6.651448727E0
8.092011763E0,6.795616150E0,-2.060818434E0,-6.694519520E0
8.096788222E0,6.805187702E0,-2.084746838E0,-6.704091072E0
8.101564680E0,6.814758778E0,-2.089532375E0,-6.689733982E0
8.106341138E0,6.829115868E0,-2.075175524E0,-6.680162430E0
8.111117597E0,6.890730858E0,-2.075175524E0,-6.733402729E0
8.115894055E0,6.914061069E0,-2.069791555E0,-6.809973240E0
8.120670513E0,6.942176819E0,-2.084148407E0,-6.882356167E0
8.125446972E0,6.937391281E0,-2.108675003E0,-6.906284332E0
8.130223430E0,6.923034191E0,-2.151745796E0,-6.891329288E0
8.134999888E0,6.923632145E0,-2.132603168E0,-6.824330330E0
8.139776347E0,6.918846607E0,-2.094317913E0,-6.762116909E0
8.144552805E0,6.904489517E0,-2.065006018E0,-6.742974281E0
8.149329263E0,6.857231617E0,-2.065604210E0,-6.742375851E0
8.154105722E0,6.828517437E0,-2.065604210E0,-6.732804775E0
8.158882180E0,6.786045074E0,-2.065604210E0,-6.704091072E0
8.163658638E0,6.748358250E0,-2.056032896E0,-6.646064758E0
8.168435097E0,6.710072994E0,-2.056032896E0,-6.593422890E0
8.173211555E0,6.714858532E0,-2.022533417E0,-6.588637352E0
8.177988013E0,6.753143787E0,-1.983649969E0,-6.612565517E0
8.182764472E0,6.762116909E0,-1.983649969E0,-6.684350014E0
8.187540930E0,6.785446644E0,-2.027318954E0,-6.756732941E0
8.192317388E0,6.809374809E0,-2.051247120E0,-6.795018196E0
8.197093847E0,6.851847649E0,-2.079961061E0,-6.819544315E0
8.201870305E0,6.899703979E0,-2.079961061E0,-6.795616150E0
8.206647024E0,6.918846607E0,-2.079961061E0,-6.800402164E0
8.211423170E0,6.946962357E0,-2.055434704E0,-6.824330330E0
8.216199680E0,6.956533432E0,-2.065006018E0,-6.858428001E0
8.220976138E0,6.966104984E0,-2.065006018E0,-6.858428001E0
8.225752597E0,6.951747894E0,-2.132603168E0,-6.838686943E0
8.230529055E0,6.928418159E0,-2.099103689E0,-6.742974281E0
8.235305513E0,6.914659023E0,-2.079961061E0,-6.656832695E0
8.240081972E0,6.872186661E0,-2.031506538E0,-6.584449768E0
8.244858430E0,6.867401123E0,-1.998006940E0,-6.579664230E0
8.249634888E0,6.848258495E0,-2.002792597E0,-6.594020844E0
8.254411347E0,6.819544315E0,-2.007578135E0,-6.608377934E0
8.259187805E0,6.781857491E0,-2.036890268E0,-6.602993965E0
8.263964263E0,6.772884369E0,-2.051247120E0,-6.564708710E0
8.268740722E0,6.787241459E0,-2.046461582E0,-6.545566559E0
8.273517180E0,6.815357208E0,-2.007578135E0,-6.569494724E0
8.278293638E0,6.871588230E0,-2.007578135E0,-6.656234264E0
8.283070097E0,6.885945320E0,-2.036292076E0,-6.738188744E0
8.287846555E0,6.918846607E0,-2.055434704E0,-6.800402164E0
8.292623013E0,6.956533432E0,-2.094317913E0,-6.824928284E0
8.297399472E0,6.970890522E0,-2.118246317E0,-6.801000118E0
8.302175930E0,6.971488953E0,-2.108675003E0,-6.776473522E0
8.306952388E0,6.985247612E0,-2.069791555E0,-6.777071953E0
8.311728847E0,6.985247612E0,-2.065006018E0,-6.796214581E0
8.316505305E0,6.956533432E0,-2.065006018E0,-6.809973240E0
8.321281763E0,6.899703979E0,-2.084746838E0,-6.776473522E0
8.326058222E0,6.871588230E0,-2.094317913E0,-6.732804775E0
8.330834680E0,6.833901405E0,-2.099103689E0,-6.651448727E0
8.335611138E0,6.791429043E0,-2.051247120E0,-6.579065800E0
8.340387597E0,6.767500877E0,-2.012962103E0,-6.559923172E0
8.345164055E0,6.738188744E0,-2.003390789E0,-6.593422890E0
8.349940513E0,6.742974281E0,-2.017747641E0,-6.655636311E0
8.354716972E0,6.742375851E0,-2.032104731E0,-6.703492641E0
8.359493430E0,6.752545357E0,-2.065604210E0,-6.713063717E0
8.364269888E0,6.766902447E0,-2.079961061E0,-6.698707104E0
8.369046347E0,6.800402164E0,-2.051247120E0,-6.718447685E0
8.373822805E0,6.842874527E0,-2.036292076E0,-6.756732941E0
8.378599263E0,6.885347366E0,-2.050648928E0,-6.814758778E0
8.383375722E0,6.903891563E0,-2.069791555E0,-6.881757736E0
8.388152180E0,6.913462639E0,-2.089532375E0,-6.910471916E0
8.392928638E0,6.923034191E0,-2.123031855E0,-6.891329288E0
8.397705149E0,6.904489517E0,-2.127817631E0,-6.824330330E0
8.402481555E0,6.885945320E0,-2.084746838E0,-6.747759819E0
8.407258066E0,6.881159782E0,-2.045863390E0,-6.719046116E0
8.412034524E0,6.857231617E0,-2.036292076E0,-6.718447685E0
8.416810982E0,6.814160824E0,-2.046461582E0,-6.723233223E0
8.421587441E0,6.786045074E0,-2.060818434E0,-6.718447685E0
8.426363899E0,6.753143787E0,-2.056032896E0,-6.689135551E0
8.431140357E0,6.733402729E0,-2.046461582E0,-6.626922131E0
8.435916816E0,6.729215622E0,-2.046461582E0,-6.598208427E0
8.440693274E0,6.762714863E0,-2.017747641E0,-6.626922131E0
8.445469732E0,6.804589272E0,-2.007578135E0,-6.713662148E0
8.450246191E0,6.814160824E0,-2.026720762E0,-6.780661106E0
8.455022649E0,6.847062111E0,-2.070389748E0,-6.819544315E0
8.459799107E0,6.885347366E0,-2.099103689E0,-6.819544315E0
8.464575566E0,6.933203697E0,-2.099103689E0,-6.766902447E0
8.469352024E0,6.947560310E0,-2.088934183E0,-6.742974281E0
8.474128482E0,6.961917400E0,-2.065006018E0,-6.766902447E0
8.478904941E0,6.946962357E0,-2.074577332E0,-6.809973240E0
8.483681399E0,6.946962357E0,-2.074577332E0,-6.814758778E0
8.488457857E0,6.899703979E0,-2.084746838E0,-6.781259537E0
8.493234316E0,6.862017155E0,-2.108675003E0,-6.704091072E0
8.498010774E0,6.862615108E0,-2.075175524E0,-6.641877651E0
8.502787232E0,6.838686943E0,-2.012363911E0,-6.584449768E0
8.507563691E0,6.853044033E0,-2.012363911E0,-6.603592396E0
8.512340149E0,6.848258495E0,-2.021935225E0,-6.646663189E0
8.517116607E0,6.828517437E0,-2.026720762E0,-6.694519520E0
8.521893066E0,6.829115868E0,-2.056032896E0,-6.689733982E0
8.526669524E0,6.829115868E0,-2.079961061E0,-6.661019802E0
8.531445982E0,6.857829571E0,-2.089532375E0,-6.641877651E0
8.536222441E0,6.867401123E0,-2.070389748E0,-6.665805817E0
8.540998899E0,6.905087948E0,-2.060220242E0,-6.714260101E0
8.545775357E0,6.928418159E0,-2.079362869E0,-6.766902447E0
8.550551816E0,6.932605267E0,-2.089532375E0,-6.814758778E0
8.555328274E0,6.923632145E0,-2.113460541E0,-6.824330330E0
8.560104732E0,6.933203697E0,-2.137388945E0,-6.786045074E0
8.564881191E0,6.924230576E0,-2.113460541E0,-6.723831654E0
8.569657649E0,6.914659023E0,-2.069791555E0,-6.699903488E0
8.574434107E0,6.895516872E0,-2.036292076E0,-6.714260101E0
8.579210566E0,6.885945320E0,-2.045863390E0,-6.714260101E0
8.583987024E0,6.857231617E0,-2.050648928E0,-6.732804775E0
8.588763482E0,6.829115868E0,-2.075175524E0,-6.708876610E0
8.593539941E0,6.805187702E0,-2.046461582E0,-6.646663189E0
8.598316399E0,6.796214581E0,-2.022533417E0,-6.607779503E0
8.603092857E0,6.801000118E0,-1.988435626E0,-6.583851337E0
8.607869316E0,6.819544315E0,-1.988435626E0,-6.651448727E0
8.612645774E0,6.833303452E0,-2.007578135E0,-6.732804775E0
8.617422232E0,6.842874527E0,-2.046461582E0,-6.785446644E0
8.622198743E0,6.856633186E0,-2.079961061E0,-6.800402164E0
8.626975149E0,6.871588230E0,-2.103889227E0,-6.762116909E0
8.631751659E0,6.890730858E0,-2.079961061E0,-6.723831654E0
8.636528118E0,6.928418159E0,-2.050648928E0,-6.733402729E0
8.641304524E0,6.933203697E0,-2.050648928E0,-6.790830612E0
8.646080982E0,6.914061069E0,-2.084746838E0,-6.833901405E0
8.650857493E0,6.899703979E0,-2.094317913E0,-6.857829571E0
8.655633951E0,6.885347366E0,-2.099103689E0,-6.790830612E0
8.660410409E0,6.848258495E0,-2.103889227E0,-6.713662148E0
8.665186868E0,6.829115868E0,-2.065604210E0,-6.632306099E0
8.669963326E0,6.815357208E0,-2.022533417E0,-6.598806858E0
8.674739784E0,6.805187702E0,-2.008176327E0,-6.637091637E0
8.679516243E0,6.781259537E0,-2.017747641E0,-6.660421848E0
8.684292701E0,6.771687984E0,-2.036890268E0,-6.674778938E0
8.689069159E0,6.771687984E0,-2.046461582E0,-6.689135551E0
8.693845618E0,6.772286415E0,-2.041675806E0,-6.665207386E0
8.698622076E0,6.777071953E0,-2.041675806E0,-6.660421848E0
8.703398534E0,6.833303452E0,-2.027318954E0,-6.723233223E0
8.708174993E0,6.870990276E0,-2.036292076E0,-6.790830612E0
8.712951451E0,6.932605267E0,-2.084746838E0,-6.843472958E0
8.717727909E0,6.899703979E0,-2.089532375E0,-6.848258495E0
8.722504368E0,6.933203697E0,-2.123031855E0,-6.833901405E0
8.727280826E0,6.942774773E0,-2.127817631E0,-6.805187702E0
8.732057284E0,6.970890522E0,-2.084746838E0,-6.781857491E0
8.736833743E0,6.952346325E0,-2.069791555E0,-6.781259537E0
8.741610201E0,6.904489517E0,-2.065604210E0,-6.776473522E0
8.746386659E0,6.852446079E0,-2.065604210E0,-6.747161865E0
8.751163118E0,6.829115868E0,-2.070389748E0,-6.694519520E0
8.755939576E0,6.805785656E0,-2.084746838E0,-6.617351055E0
8.760716034E0,6.763313293E0,-2.060818434E0,-6.555137634E0
8.765492493E0,6.768098831E0,-2.012962103E0,-6.512066841E0
8.770268951E0,6.758527756E0,-1.974078655E0,-6.540780544E0
8.775045409E0,6.767500877E0,-1.993819475E0,-6.617351055E0
8.779821868E0,6.800402164E0,-2.022533417E0,-6.708876610E0
8.784598326E0,6.823731899E0,-2.056032896E0,-6.751947403E0
8.789374784E0,6.847660065E0,-2.089532375E0,-6.766304016E0
8.794151243E0,6.881159782E0,-2.089532375E0,-6.738188744E0
8.798927701E0,6.905087948E0,-2.070389748E0,-6.719046116E0
8.803704159E0,6.961319447E0,-2.045863390E0,-6.786045074E0
8.808480618E0,6.970890522E0,-2.050648928E0,-6.829713821E0
8.813257076E0,6.979863644E0,-2.103291035E0,-6.882356167E0
8.818033534E0,6.975676060E0,-2.137388945E0,-6.877570629E0
8.822810045E0,6.957131863E0,-2.132603168E0,-6.795616150E0
8.827586503E0,6.938587666E0,-2.118246317E0,-6.714260101E0
8.832362961E0,6.905686378E0,-2.084746838E0,-6.641877651E0
8.837139420E0,6.896114826E0,-2.045863390E0,-6.622735023E0
8.841915878E0,6.848258495E0,-2.046461582E0,-6.656234264E0
8.846692336E0,6.809973240E0,-2.036890268E0,-6.646663189E0
8.851468795E0,6.772286415E0,-2.060818434E0,-6.631708145E0
8.856245253E0,6.753741741E0,-2.070389748E0,-6.598208427E0
8.861021711E0,6.748956203E0,-2.046461582E0,-6.540780544E0
8.865798170E0,6.757929325E0,-2.027318954E0,-6.574280262E0
8.870574628E0,6.790830612E0,-2.017747641E0,-6.636493683E0
8.875351086E0,6.814758778E0,-2.036890268E0,-6.694519520E0
8.880127545E0,6.857231617E0,-2.050648928E0,-6.766304016E0
8.884904003E0,6.890132904E0,-2.079961061E0,-6.786045074E0
8.889680461E0,6.914061069E0,-2.123031855E0,-6.790830612E0
8.894456920E0,6.933203697E0,-2.137388945E0,-6.790830612E0
8.899233378E0,6.994818687E0,-2.093719721E0,-6.786643028E0
8.904009836E0,7.004390240E0,-2.084148407E0,-6.810571671E0
8.908786295E0,6.999604225E0,-2.103291035E0,-6.829713821E0
8.913562753E0,6.966104984E0,-2.142174482E0,-6.824928284E0
8.918339211E0,6.942774773E0,-2.137388945E0,-6.786045074E0
8.923115670E0,6.900302410E0,-2.127817631E0,-6.694519520E0
8.927892128E0,6.867401123E0,-2.099103689E0,-6.617949009E0
8.932668586E0,6.824928284E0,-2.051247120E0,-6.574280262E0
8.937445045E0,6.796214581E0,-2.032104731E0,-6.574280262E0
8.942221503E0,6.767500877E0,-2.027318954E0,-6.626922131E0
8.946997961E0,6.762714863E0,-2.036890268E0,-6.631708145E0
8.951774420E0,6.753143787E0,-2.065604210E0,-6.650850773E0
8.956550878E0,6.757929325E0,-2.075175524E0,-6.631708145E0
8.961327336E0,6.772286415E0,-2.056032896E0,-6.612565517E0
8.966103795E0,6.809973240E0,-2.036890268E0,-6.665805817E0
8.970880253E0,6.857231617E0,-2.051247120E0,-6.737590313E0
8.975656763E0,6.904489517E0,-2.060220242E0,-6.795616150E0
8.980433170E0,6.923034191E0,-2.084148407E0,-6.853044033E0
8.985209680E0,6.946962357E0,-2.123031855E0,-6.877570629E0
8.989986138E0,6.947560310E0,-2.151745796E0,-6.824330330E0
8.994762597E0,6.961917400E0,-2.108675003E0,-6.786045074E0
8.999539055E0,6.961917400E0,-2.069791555E0,-6.757331371E0
9.004315513E0,6.923632145E0,-2.060220242E0,-6.776473522E0
9.009091972E0,6.890132904E0,-2.070389748E0,-6.762116909E0
9.013868430E0,6.838088989E0,-2.065604210E0,-6.723233223E0
9.018644888E0,6.819544315E0,-2.065604210E0,-6.656234264E0
9.023421347E0,6.782455921E0,-2.075175524E0,-6.574280262E0
9.028197805E0,6.734001160E0,-2.046461582E0,-6.555137634E0
9.032974263E0,6.753143787E0,-2.008176327E0,-6.574280262E0
9.037750722E0,6.757929325E0,-2.022533417E0,-6.626922131E0
9.042527180E0,6.762116909E0,-2.032104731E0,-6.698707104E0
9.047303638E0,6.771687984E0,-2.056032896E0,-6.713662148E0
9.052080097E0,6.814758778E0,-2.084746838E0,-6.732804775E0
9.056856555E0,6.853044033E0,-2.099103689E0,-6.708876610E0
9.061633013E0,6.876374245E0,-2.099103689E0,-6.713662148E0
9.066409472E0,6.923632145E0,-2.079961061E0,-6.752545357E0
9.071185930E0,6.951747894E0,-2.084148407E0,-6.800402164E0
9.075962388E0,6.975676060E0,-2.108675003E0,-6.810571671E0
9.080738847E0,6.970890522E0,-2.156531334E0,-6.815357208E0
9.085515305E0,6.942774773E0,-2.161317110E0,-6.795616150E0
9.090291763E0,6.919445038E0,-2.127817631E0,-6.714260101E0
9.095068222E0,6.886543751E0,-2.084746838E0,-6.661019802E0
9.099844680E0,6.872186661E0,-2.060818434E0,-6.651448727E0
9.104621138E0,6.857829571E0,-2.036292076E0,-6.661019802E0
9.109397597E0,6.814758778E0,-2.051247120E0,-6.670591354E0
9.114174055E0,6.786045074E0,-2.051247120E0,-6.670591354E0
9.118950513E0,6.781857491E0,-2.070389748E0,-6.631708145E0
9.123727024E0,6.796214581E0,-2.079961061E0,-6.583851337E0
9.128503482E0,6.810571671E0,-2.046461582E0,-6.593422890E0
9.133279941E0,6.848258495E0,-2.041675806E0,-6.646663189E0
9.138056399E0,6.881159782E0,-2.060818434E0,-6.719046116E0
9.142832857E0,6.894918442E0,-2.103889227E0,-6.786045074E0
9.147609316E0,6.914061069E0,-2.123031855E0,-6.790830612E0
9.152385774E0,6.933203697E0,-2.146960020E0,-6.757331371E0
9.157162232E0,6.933801651E0,-2.132603168E0,-6.709474564E0
9.161938691E0,6.952944279E0,-2.094317913E0,-6.690331936E0
9.166715149E0,6.947560310E0,-2.065006018E0,-6.704689026E0
9.171491607E0,6.928418159E0,-2.065006018E0,-6.733402729E0
9.176268066E0,6.895516872E0,-2.099103689E0,-6.738188744E0
9.181044524E0,6.881159782E0,-2.108675003E0,-6.704091072E0
9.185820982E0,6.848258495E0,-2.108675003E0,-6.627520561E0
9.190597441E0,6.829713821E0,-2.079961061E0,-6.579664230E0
9.195373899E0,6.839285374E0,-2.046461582E0,-6.574878216E0
9.200150357E0,6.838686943E0,-2.036890268E0,-6.627520561E0
9.204926816E0,6.852446079E0,-2.041675806E0,-6.689733982E0
9.209703274E0,6.838686943E0,-2.079961061E0,-6.713662148E0
9.214479732E0,6.838686943E0,-2.103889227E0,-6.723233223E0
9.219256191E0,6.838686943E0,-2.108675003E0,-6.675376892E0
9.224032649E0,6.876374245E0,-2.094317913E0,-6.689733982E0
9.228809107E0,6.919445038E0,-2.070389748E0,-6.719046116E0
9.233585566E0,6.942774773E0,-2.079961061E0,-6.771687984E0
9.238362024E0,6.951747894E0,-2.094317913E0,-6.809973240E0
9.243138482E0,6.961319447E0,-2.118246317E0,-6.824928284E0
9.247914941E0,6.942774773E0,-2.151745796E0,-6.781259537E0
9.252691399E0,6.914659023E0,-2.152343988E0,-6.719046116E0
9.257467909E0,6.891329288E0,-2.113460541E0,-6.651448727E0
9.262244368E0,6.886543751E0,-2.070389748E0,-6.622735023E0
9.267020826E0,6.872186661E0,-2.060818434E0,-6.641877651E0
9.271797284E0,6.833901405E0,-2.056032896E0,-6.632306099E0
9.276573743E0,6.810571671E0,-2.070389748E0,-6.637091637E0
9.281350201E0,6.801000118E0,-2.075175524E0,-6.631708145E0
9.286126659E0,6.781857491E0,-2.075175524E0,-6.593422890E0
9.290903118E0,6.781857491E0,-2.070389748E0,-6.598208427E0
9.295679576E0,6.833901405E0,-2.036890268E0,-6.646663189E0
9.300456034E0,6.847660065E0,-2.041675806E0,-6.713662148E0
9.305232493E0,6.890132904E0,-2.075175524E0,-6.771687984E0
9.310008951E0,6.899703979E0,-2.113460541E0,-6.829115868E0
9.314785409E0,6.904489517E0,-2.171486616E0,-6.824330330E0
9.319561868E0,6.942774773E0,-2.142174482E0,-6.786045074E0
9.324338326E0,6.947560310E0,-2.113460541E0,-6.728617191E0
9.329114784E0,6.966702938E0,-2.099103689E0,-6.738188744E0
9.333891243E0,6.952346325E0,-2.089532375E0,-6.762116909E0
9.338667701E0,6.933203697E0,-2.108675003E0,-6.766902447E0
9.343444159E0,6.881159782E0,-2.133201361E0,-6.732804775E0
9.348220618E0,6.843472958E0,-2.137987137E0,-6.675376892E0
9.352997076E0,6.820142746E0,-2.109273195E0,-6.593422890E0
9.357773534E0,6.815955162E0,-2.051247120E0,-6.531209469E0
9.362549993E0,6.815357208E0,-2.022533417E0,-6.540780544E0
9.367326451E0,6.796214581E0,-2.032104731E0,-6.588637352E0
9.372102909E0,6.786045074E0,-2.051247120E0,-6.675376892E0
9.376879420E0,6.790830612E0,-2.070389748E0,-6.694519520E0
9.381655878E0,6.814758778E0,-2.094317913E0,-6.699305058E0
9.386432336E0,6.843472958E0,-2.094317913E0,-6.670591354E0
9.391208795E0,6.862615108E0,-2.070389748E0,-6.665805817E0
9.395985253E0,6.933203697E0,-2.060818434E0,-6.742974281E0
9.400761711E0,6.942176819E0,-2.084746838E0,-6.814758778E0
9.405538170E0,6.961319447E0,-2.108675003E0,-6.863213539E0
9.410314628E0,6.980462074E0,-2.127817631E0,-6.844070911E0
9.415091086E0,6.976274490E0,-2.151745796E0,-6.781259537E0
9.419867545E0,6.948158741E0,-2.137388945E0,-6.723831654E0
9.424644003E0,6.924230576E0,-2.108675003E0,-6.680760860E0
9.429420461E0,6.919445038E0,-2.084746838E0,-6.661618233E0
9.434196920E0,6.885945320E0,-2.065604210E0,-6.670591354E0
9.438973378E0,6.853044033E0,-2.075175524E0,-6.651448727E0
9.443749836E0,6.824928284E0,-2.094317913E0,-6.632306099E0
9.448526295E0,6.792026997E0,-2.104487419E0,-6.583851337E0
9.453302753E0,6.782455921E0,-2.075175524E0,-6.512066841E0
9.458079211E0,6.777669907E0,-2.046461582E0,-6.516852379E0
9.462855670E0,6.810571671E0,-2.027318954E0,-6.583851337E0
9.467632128E0,6.838686943E0,-2.041675806E0,-6.637091637E0
9.472408638E0,6.853044033E0,-2.075175524E0,-6.699305058E0
9.477185045E0,6.885945320E0,-2.123031855E0,-6.747759819E0
9.481961503E0,6.914659023E0,-2.151745796E0,-6.752545357E0
9.486738013E0,6.947560310E0,-2.127817631E0,-6.747759819E0
9.491514472E0,6.971488953E0,-2.099103689E0,-6.752545357E0
9.496290930E0,6.985247612E0,-2.103889227E0,-6.820142746E0
9.501067388E0,6.999006271E0,-2.127817631E0,-6.872784615E0
9.505843847E0,6.970890522E0,-2.142174482E0,-6.867999077E0
9.510620305E0,6.961319447E0,-2.156531334E0,-6.839285374E0
9.515396763E0,6.914659023E0,-2.157129526E0,-6.723831654E0
9.520173222E0,6.862615108E0,-2.118246317E0,-6.641877651E0
9.524949680E0,6.844070911E0,-2.060818434E0,-6.589235306E0
9.529726138E0,6.801000118E0,-2.032104731E0,-6.588637352E0
9.534502597E0,6.777071953E0,-2.022533417E0,-6.626922131E0
9.539279055E0,6.753143787E0,-2.036890268E0,-6.641279221E0
9.544055513E0,6.729215622E0,-2.065604210E0,-6.622136593E0
9.548831972E0,6.724429607E0,-2.070987940E0,-6.602993965E0
9.553608430E0,6.738786697E0,-2.041675806E0,-6.569494724E0
9.558384888E0,6.781857491E0,-2.027318954E0,-6.626922131E0
9.563161347E0,6.828517437E0,-2.032104731E0,-6.737590313E0
9.567937805E0,6.866204739E0,-2.070389748E0,-6.809973240E0
9.572714316E0,6.894320011E0,-2.089532375E0,-6.867401123E0
9.577490774E0,6.937391281E0,-2.137388945E0,-6.887141705E0
9.582267232E0,6.946962357E0,-2.146960020E0,-6.838686943E0
9.587043691E0,6.970890522E0,-2.113460541E0,-6.810571671E0
9.591820149E0,6.980462074E0,-2.103889227E0,-6.810571671E0
9.596596607E0,6.956533432E0,-2.099103689E0,-6.809973240E0
9.601373066E0,6.928418159E0,-2.094317913E0,-6.814758778E0
9.606149524E0,6.876374245E0,-2.099103689E0,-6.766902447E0
9.610925982E0,6.838686943E0,-2.118844509E0,-6.699305058E0
9.615702441E0,6.772286415E0,-2.118844509E0,-6.631708145E0
9.620478899E0,6.753741741E0,-2.051247120E0,-6.569494724E0
9.625255357E0,6.743572235E0,-2.012962103E0,-6.579065800E0
9.630031816E0,6.753143787E0,-2.003390789E0,-6.593422890E0
9.634808274E0,6.747759819E0,-2.003390789E0,-6.679564476E0
9.639584732E0,6.747759819E0,-2.032104731E0,-6.703492641E0
9.644361191E0,6.776473522E0,-2.070389748E0,-6.718447685E0
9.649137649E0,6.800402164E0,-2.084746838E0,-6.689733982E0
9.653914107E0,6.853044033E0,-2.089532375E0,-6.694519520E0
9.658690566E0,6.894918442E0,-2.056032896E0,-6.747759819E0
9.663467024E0,6.927819729E0,-2.050648928E0,-6.809973240E0
9.668243482E0,6.946962357E0,-2.094317913E0,-6.858428001E0
9.673019941E0,6.951747894E0,-2.108675003E0,-6.858428001E0
9.677796451E0,6.975676060E0,-2.132603168E0,-6.829713821E0
9.682572909E0,6.947560310E0,-2.132603168E0,-6.742974281E0
9.687349368E0,6.924230576E0,-2.099103689E0,-6.699903488E0
9.692125826E0,6.919445038E0,-2.070389748E0,-6.699903488E0
9.696902284E0,6.905087948E0,-2.046461582E0,-6.695117950E0
9.701678743E0,6.871588230E0,-2.046461582E0,-6.713662148E0
9.706455201E0,6.824330330E0,-2.070389748E0,-6.684948444E0
9.711231659E0,6.786643028E0,-2.090130568E0,-6.631708145E0
9.716008118E0,6.777669907E0,-2.060818434E0,-6.579065800E0
9.720784576E0,6.781857491E0,-2.027318954E0,-6.579065800E0
9.725561034E0,6.795616150E0,-2.012962103E0,-6.651448727E0
9.730337493E0,6.795616150E0,-2.032104731E0,-6.713662148E0
9.735113951E0,6.828517437E0,-2.060818434E0,-6.761518478E0
9.739890409E0,6.852446079E0,-2.079961061E0,-6.771090031E0
9.744666868E0,6.885945320E0,-2.108675003E0,-6.742974281E0
9.749443326E0,6.895516872E0,-2.099103689E0,-6.728617191E0
9.754219784E0,6.937989235E0,-2.070389748E0,-6.742974281E0
9.758996243E0,6.942774773E0,-2.050648928E0,-6.776473522E0
9.763772701E0,6.951747894E0,-2.075175524E0,-6.820142746E0
9.768549211E0,6.933203697E0,-2.084746838E0,-6.819544315E0
9.773325670E0,6.923632145E0,-2.108675003E0,-6.776473522E0
9.778102128E0,6.876374245E0,-2.108675003E0,-6.713662148E0
9.782878586E0,6.848258495E0,-2.094317913E0,-6.632306099E0
9.787655045E0,6.848856449E0,-2.065604210E0,-6.603592396E0
9.792431503E0,6.829115868E0,-2.032104731E0,-6.641877651E0
9.797207961E0,6.814758778E0,-2.017747641E0,-6.656234264E0
9.801984420E0,6.795616150E0,-2.056032896E0,-6.680162430E0
9.806760878E0,6.790830612E0,-2.075175524E0,-6.684948444E0
9.811537336E0,6.781857491E0,-2.079961061E0,-6.660421848E0
9.816313795E0,6.801000118E0,-2.065604210E0,-6.646663189E0
9.821090253E0,6.838686943E0,-2.046461582E0,-6.665805817E0
9.825866711E0,6.847660065E0,-2.046461582E0,-6.742375851E0
9.830643170E0,6.885347366E0,-2.045863390E0,-6.809973240E0
9.835419628E0,6.903891563E0,-2.060220242E0,-6.838686943E0
9.840196086E0,6.928418159E0,-2.123031855E0,-6.824330330E0
9.844972545E0,6.909275532E0,-2.137388945E0,-6.790830612E0
9.849749003E0,6.905087948E0,-2.108675003E0,-6.719046116E0
9.854525461E0,6.905087948E0,-2.075175524E0,-6.714260101E0
9.859301972E0,6.890730858E0,-2.065604210E0,-6.714260101E0
9.864078430E0,6.881159782E0,-2.070389748E0,-6.723831654E0
9.868854888E0,6.838088989E0,-2.065604210E0,-6.718447685E0
9.873631347E0,6.809973240E0,-2.070389748E0,-6.684948444E0
9.878407805E0,6.781857491E0,-2.070389748E0,-6.622136593E0
9.883184263E0,6.777071953E0,-2.041675806E0,-6.583851337E0
