"Time (s)","Acceleration x (m/s^2)","Acceleration y (m/s^2)","Acceleration z (m/s^2)"
1.286459300E-2,-4.034229755E0,6.687304497E0,5.600337029E0
1.786459300E-2,-3.983951569E0,6.653785706E0,5.626673222E0
2.286459300E-2,-3.943250179E0,6.637026310E0,5.727229595E0
2.785109300E-2,-3.907337189E0,6.627449512E0,5.882853031E0
3.285109300E-2,-3.854664803E0,6.596324921E0,6.083965778E0
3.784809300E-2,-3.785232782E0,6.560411930E0,6.289866924E0
4.284409300E-2,-3.699041605E0,6.512527943E0,6.505345345E0
4.784409300E-2,-3.605667830E0,6.455067158E0,6.716034889E0
5.284409300E-2,-3.505111217E0,6.392817974E0,6.919542313E0
5.784409300E-2,-3.416525841E0,6.320991993E0,7.120655060E0
6.284675900E-2,-3.342305660E0,6.246771336E0,7.293037415E0
6.784915900E-2,-3.272873640E0,6.172551155E0,7.422324657E0
7.284915900E-2,-3.196259260E0,6.098330975E0,7.510910034E0
7.784915900E-2,-3.114856482E0,6.033687592E0,7.554005623E0
8.284915900E-2,-3.026270866E0,5.983409405E0,7.554005623E0
8.784915900E-2,-2.944868088E0,5.971438408E0,7.518092632E0
9.284915900E-2,-2.875436306E0,5.949890614E0,7.419930458E0
9.784915900E-2,-2.813186884E0,5.928342819E0,7.300220490E0
1.028491590E-1,-2.760514498E0,5.913977623E0,7.185298443E0
1.078491590E-1,-2.722207308E0,5.904400826E0,7.089530468E0
1.128491590E-1,-2.719813108E0,5.897218227E0,7.024887085E0
1.178491590E-1,-2.729389906E0,5.899612427E0,6.988974094E0
1.228491590E-1,-2.746149302E0,5.918766022E0,6.984185696E0
1.278491590E-1,-2.758120298E0,5.942708015E0,7.000945091E0
1.328492020E-1,-2.762908697E0,5.966650009E0,7.032069683E0
1.378492020E-1,-2.760514498E0,5.983409405E0,7.077559471E0
1.428492020E-1,-2.746149302E0,5.983409405E0,7.163750648E0
1.478492020E-1,-2.712630510E0,5.973832607E0,7.297826290E0
1.528492020E-1,-2.659958124E0,5.949890614E0,7.479785442E0
1.578492020E-1,-2.612074137E0,5.925948620E0,7.654561996E0
1.628492020E-1,-2.559401512E0,5.887641430E0,7.798214436E0
1.678492020E-1,-2.487575531E0,5.830180645E0,7.867646217E0
1.728492020E-1,-2.377442360E0,5.746383190E0,7.858069420E0
1.778501020E-1,-2.262520552E0,5.660192013E0,7.829339027E0
1.828501020E-1,-2.147598982E0,5.564424038E0,7.810185432E0
1.878505020E-1,-2.049436569E0,5.468656063E0,7.814973831E0
1.928511680E-1,-1.977610588E0,5.370493889E0,7.838915825E0
1.978511680E-1,-1.924938202E0,5.293879032E0,7.855675220E0
2.028511680E-1,-1.886630893E0,5.245995045E0,7.872434616E0
2.078511680E-1,-1.862688899E0,5.222053051E0,7.884405613E0
2.128503680E-1,-1.862688899E0,5.234024048E0,7.908347607E0
2.178495680E-1,-1.877054095E0,5.253177643E0,7.929895401E0
2.228495680E-1,-1.900996208E0,5.289090633E0,7.937077999E0
2.278495680E-1,-1.934514999E0,5.327397823E0,7.929895401E0
2.328495680E-1,-1.980004787E0,5.365705490E0,7.915530205E0
2.378495680E-1,-2.015917778E0,5.401618481E0,7.903559208E0
2.428495680E-1,-2.042253971E0,5.442319870E0,7.905953407E0
2.478495680E-1,-2.044648170E0,5.487809658E0,7.932289600E0
2.528495680E-1,-2.030282974E0,5.516540051E0,7.999327183E0
2.578495680E-1,-1.996764183E0,5.530905247E0,8.075942039E0
2.628495680E-1,-1.927332401E0,5.523722649E0,8.166921616E0
2.678495680E-1,-1.819593310E0,5.487809658E0,8.255506516E0
2.728495680E-1,-1.668758631E0,5.389647484E0,8.322544098E0
2.778495680E-1,-1.508347034E0,5.248389244E0,8.365639687E0
2.828495340E-1,-1.333570361E0,5.080795288E0,8.396764755E0
2.878495340E-1,-1.163581967E0,4.903624535E0,8.430283546E0
2.928495340E-1,-1.015141487E0,4.726154327E0,8.480561256E0
2.978492670E-1,-9.074024558E-1,4.568136692E0,8.547599792E0
3.028492670E-1,-8.427590132E-1,4.446032524E0,8.629002571E0
3.078492670E-1,-8.331822157E-1,4.371812344E0,8.705616951E0
3.128492670E-1,-8.667010069E-1,4.359841347E0,8.755894661E0
3.178492670E-1,-9.097966552E-1,4.383783340E0,8.784625053E0
3.228492670E-1,-9.720458984E-1,4.446032524E0,8.789413452E0
3.278492670E-1,-1.043871999E0,4.539406300E0,8.777442932E0
3.328492670E-1,-1.118092179E0,4.647145271E0,8.753500938E0
3.378492670E-1,-1.185129881E0,4.747702122E0,8.719982147E0
3.428492670E-1,-1.230619669E0,4.841075897E0,8.684068680E0
3.478492670E-1,-1.249773264E0,4.927566528E0,8.669703484E0
3.528492670E-1,-1.230619669E0,5.006575108E0,8.672098160E0
3.578492670E-1,-1.189918280E0,5.078401089E0,8.674491882E0
3.628492670E-1,-1.127668977E0,5.131073475E0,8.669703484E0
3.678492670E-1,-1.058237195E0,5.157409668E0,8.662521362E0
3.728492670E-1,-9.959878922E-1,5.135861874E0,8.657732964E0
3.778492670E-1,-9.528923035E-1,5.090372086E0,8.650549889E0
3.828492670E-1,-9.217676520E-1,5.016151905E0,8.667309761E0
3.878492670E-1,-8.906430602E-1,4.910807133E0,8.727164268E0
3.928492670E-1,-8.307880163E-1,4.786009312E0,8.849268913E0
3.978492670E-1,-7.613561153E-1,4.675876141E0,9.012074471E0
4.028492670E-1,-6.895300746E-1,4.577713490E0,9.217975616E0
4.078492670E-1,-6.081272364E-1,4.486733913E0,9.414299965E0
4.128492670E-1,-4.979939461E-1,4.414907932E0,9.531616211E0
4.178492670E-1,-3.902548850E-1,4.352658749E0,9.596260071E0
4.228492670E-1,-2.561795712E-1,4.290409565E0,9.593865395E0
4.278492670E-1,-1.101332754E-1,4.235342979E0,9.534010887E0
4.328492670E-1,3.112462163E-2,4.182670593E0,9.395146370E0
4.378492670E-1,1.532289088E-1,4.137180328E0,9.162909508E0
4.428492670E-1,2.705447972E-1,4.115632534E0,8.880393028E0
4.478495330E-1,4.189853072E-1,4.101267338E0,8.643367767E0
4.528495330E-1,6.224924326E-1,4.053383350E0,8.418312073E0
4.578495330E-1,8.403648138E-1,3.988739967E0,8.260294914E0
4.628495330E-1,1.089361787E0,3.876212597E0,8.121431351E0
4.678495330E-1,1.407790542E0,3.715801001E0,7.879617214E0
4.728495330E-1,1.798045516E0,3.500322819E0,7.508515835E0
4.778495330E-1,2.209848166E0,3.256114244E0,6.988974094E0
4.828495330E-1,2.454056740E0,2.748543501E0,6.574777126E0
4.878495330E-1,2.590526342E0,2.080561161E0,6.261136532E0
4.928495330E-1,2.513911724E0,1.532289028E0,5.961861610E0
4.978495330E-1,2.262520552E0,1.110909581E0,5.739200592E0
5.028495330E-1,1.867477298E0,7.948749661E-1,5.612308025E0
5.078495330E-1,1.458068848E0,6.584054828E-1,5.662586212E0
5.128495330E-1,1.101332784E0,7.948749661E-1,5.923554420E0
5.178495330E-1,8.212111592E-1,1.139639974E0,6.361693382E0
5.228495330E-1,6.536170840E-1,1.616086125E0,6.890811920E0
5.278495330E-1,5.961562395E-1,2.123656988E0,7.398382664E0
5.328495330E-1,6.368576288E-1,2.552218914E0,7.867646217E0
5.378495330E-1,7.637503147E-1,2.784456491E0,8.293813705E0
5.428495330E-1,9.648633003E-1,2.861071110E0,8.621819496E0
5.478495330E-1,1.067813993E0,2.784456491E0,8.801384926E0
5.528495330E-1,6.607996821E-1,2.485181332E0,8.664915085E0
5.578489660E-1,1.460463107E-1,2.111685991E0,8.514080048E0
5.628489660E-1,-5.075707436E-1,1.549048543E0,8.286631584E0
5.678482990E-1,-1.084573388E0,8.882488012E-1,8.047211647E0
5.728474320E-1,-1.470039845E0,5.482721925E-1,7.776666164E0
5.778473320E-1,-1.628057122E0,5.171475410E-1,7.384017467E0
5.828468650E-1,-1.374271750E0,7.517793179E-1,6.897994518E0
5.878463650E-1,-4.955997467E-1,1.252167463E0,6.332962990E0
5.928458650E-1,8.307880163E-1,2.047042370E0,6.083965778E0
5.978453650E-1,2.030282974E0,2.726995707E0,6.208464146E0
6.028448650E-1,2.920926094E0,3.098097086E0,6.627449512E0
6.078443650E-1,3.423708439E0,3.095702887E0,6.945878506E0
6.128438650E-1,3.639186621E0,2.750937700E0,6.936301708E0
6.178433980E-1,3.711012602E0,2.293645144E0,6.677727699E0
6.228429310E-1,3.634398222E0,1.795651317E0,6.342539787E0
6.278422970E-1,3.447650433E0,1.280897856E0,6.148609161E0
6.328422970E-1,3.134010077E0,7.493851185E-1,6.081571579E0
6.378422970E-1,2.755726099E0,2.944868207E-1,5.981015205E0
6.428422970E-1,2.276885748E0,-9.097966552E-2,5.813420773E0
6.478422970E-1,1.740584612E0,-4.357447028E-1,5.645826817E0
6.528423300E-1,1.230619669E0,-7.805097699E-1,5.463867664E0
6.578423630E-1,8.834604025E-1,-1.098938584E0,5.248389244E0
6.628423960E-1,7.493851185E-1,-1.412579060E0,4.939537525E0
6.678423960E-1,8.164227605E-1,-1.680729628E0,4.630385876E0
6.728423960E-1,9.648633003E-1,-1.865083098E0,4.419696331E0
6.778423960E-1,9.241618514E-1,-2.121262789E0,4.244919777E0
6.828427960E-1,4.118026793E-1,-2.693476915E0,3.904942989E0
6.878427960E-1,-4.788403511E-1,-3.564966440E0,3.593696833E0
6.928427960E-1,-7.733271718E-1,-4.412513733E0,3.351882458E0
6.978428290E-1,-2.633621991E-1,-5.040093899E0,3.007117271E0
7.028428620E-1,7.613561153E-1,-5.427954674E0,2.772485495E0
7.078434620E-1,1.690306425E0,-5.545270443E0,2.669534922E0
7.128434620E-1,2.597708941E0,-5.523722649E0,2.626439333E0
7.178441280E-1,3.600879431E0,-5.406406879E0,2.734178305E0
7.228449940E-1,4.613626480E0,-5.193322659E0,3.057395458E0
7.278451270E-1,5.499780655E0,-4.958691120E0,3.488351822E0
7.328456270E-1,6.136638165E0,-4.821922302E0,3.928884983E0
7.378461600E-1,6.548440933E0,-4.805162907E0,4.302380562E0
7.428466600E-1,6.713640690E0,-4.922778130E0,4.599261284E0
7.478471600E-1,6.663362503E0,-5.147832870E0,4.817133904E0
7.528476600E-1,6.366481781E0,-5.574000835E0,4.999392509E0
7.578481600E-1,6.021716595E0,-6.052841187E0,5.138256073E0
7.628486600E-1,5.676951408E0,-6.615478516E0,5.195716858E0
7.678491260E-1,5.411195278E0,-7.228394032E0,5.183745861E0
7.728495920E-1,5.255571842E0,-7.853281021E0,5.152621269E0
7.778502580E-1,5.188534260E0,-8.449437141E0,5.143044472E0
7.828502910E-1,5.248389244E0,-9.033622742E0,5.212476254E0
7.878503240E-1,5.427954674E0,-9.589076996E0,5.372888088E0
7.928503240E-1,5.813420773E0,-1.018762779E1,5.533299446E0
7.978503240E-1,6.249165535E0,-1.075026512E1,5.631461620E0
8.028502900E-1,6.807014942E0,-1.135839176E1,5.636250019E0
8.078502560E-1,7.424718857E0,-1.200961494E1,5.609913826E0
8.128502220E-1,8.111854553E0,-1.268478012E1,5.600337029E0
8.178502220E-1,8.820538521E0,-1.326657104E1,5.602731228E0
8.228502550E-1,9.634567261E0,-1.370471001E1,5.562029839E0
8.278502880E-1,1.053957558E1,-1.398722553E1,5.411195278E0
8.328492540E-1,1.154035187E1,-1.415721416E1,5.143044472E0
8.378492540E-1,1.247409058E1,-1.426974106E1,4.826710701E0
8.428492540E-1,1.338628101E1,-1.430086613E1,4.417302132E0
8.478492200E-1,1.429847145E1,-1.423622227E1,3.936067581E0
8.528492200E-1,1.529954720E1,-1.412130070E1,3.459621429E0
8.578492200E-1,1.628116989E1,-1.403750420E1,3.078943491E0
8.628492530E-1,1.714547729E1,-1.397046661E1,2.817975283E0
8.678485860E-1,1.790683365E1,-1.388906288E1,2.636016130E0
8.728479190E-1,1.863706398E1,-1.373344040E1,2.506729126E0
8.778472190E-1,1.930504608E1,-1.351556778E1,2.382230759E0
8.828468520E-1,1.998260689E1,-1.319713879E1,2.209848166E0
8.878468180E-1,2.069128990E1,-1.278054810E1,1.948880196E0
8.928461510E-1,2.150531769E1,-1.222988129E1,1.556231141E0
8.978461510E-1,2.230977058E1,-1.164090824E1,1.101332784E0
9.028461840E-1,2.301366615E1,-1.092504120E1,6.248866320E-1
9.078462170E-1,2.357869720E1,-1.021396351E1,1.771709323E-1
9.128455830E-1,2.394500923E1,-9.529222488E0,-1.053448766E-1
9.178449160E-1,2.415091133E1,-8.921094894E0,-2.082955539E-1
9.228442490E-1,2.421555519E1,-8.380004883E0,-1.197100878E-1
9.278435820E-1,2.419640160E1,-7.922712803E0,8.619125932E-2
9.328435820E-1,2.405753708E1,-7.537246227E0,4.118026793E-1
9.378431820E-1,2.383727074E1,-7.223605633E0,7.445967197E-1
9.428423150E-1,2.352602386E1,-6.993762493E0,1.084573388E0
9.478423150E-1,2.311901093E1,-6.828562737E0,1.520318031E0
9.528423150E-1,2.265453529E1,-6.641814709E0,2.075772762E0
9.578423150E-1,2.215893555E1,-6.390423775E0,2.736572504E0
9.628423150E-1,2.168009567E1,-6.091148376E0,3.416525841E0
9.678423150E-1,2.123237991E1,-5.787084579E0,4.055777550E0
9.728422810E-1,2.076551056E1,-5.535693645E0,4.601655483E0
9.778422810E-1,2.028666878E1,-5.363311291E0,5.023334503E0
9.828429470E-1,1.970727348E1,-5.291484833E0,5.322609425E0
9.878429800E-1,1.900337791E1,-5.310638428E0,5.483021259E0
9.928429800E-1,1.810555267E1,-5.545270443E0,5.468656063E0
9.978429800E-1,1.702337265E1,-5.985803604E0,5.382464886E0
1.002842946E0,1.577359962E1,-6.526893139E0,5.296273232E0
1.007842946E0,1.447324848E1,-7.063194275E0,5.281908035E0
1.012842946E0,1.318995667E1,-7.551611423E0,5.344157696E0
1.017843646E0,1.206468201E1,-8.004115105E0,5.423166275E0
1.022844346E0,1.105911732E1,-8.435071945E0,5.581183434E0
1.027845012E0,1.012777233E1,-8.784625053E0,5.830180645E0
1.032845345E0,9.249100685E0,-9.047987938E0,6.117484570E0
1.037845345E0,8.494926453E0,-9.301773071E0,6.335357189E0
1.042846011E0,7.817368031E0,-9.589076996E0,6.400000572E0
1.047846011E0,7.271489620E0,-9.833285332E0,6.431125164E0
1.052845311E0,6.869264126E0,-9.945813179E0,6.488585949E0
1.057844911E0,6.577171326E0,-9.986514091E0,6.529287338E0
1.062845177E0,6.409577370E0,-9.991303444E0,6.455067158E0
1.067844977E0,6.352116585E0,-9.996091843E0,6.186916351E0
1.072844743E0,6.318597794E0,-1.005115795E1,5.741594791E0
1.077845376E0,6.203675747E0,-1.014692593E1,5.289090633E0
1.082845342E0,5.921160221E0,-1.026184750E1,4.845864296E0
1.090140076E0,5.444714069E0,-1.036479855E1,4.455609322E0
1.095140976E0,4.932354927E0,-1.042225933E1,4.180276394E0
1.100141009E0,4.407725334E0,-1.038395214E1,4.048594952E0
1.105141009E0,3.883395195E0,-1.024508858E1,4.029441357E0
1.110140609E0,3.392583847E0,-1.002242756E1,4.074931145E0
1.115139709E0,2.966415882E0,-9.711181641E0,4.192247391E0
1.120139709E0,2.640804529E0,-9.383175850E0,4.323928356E0
1.125139709E0,2.401384354E0,-8.995314598E0,4.501099110E0
1.130138775E0,2.229001760E0,-8.564358711E0,4.644751072E0
1.135137875E0,2.111685991E0,-8.152556419E0,4.529829502E0
1.140137875E0,1.929726601E0,-7.838915825E0,4.151545525E0
1.145137508E0,1.678335428E0,-7.549217224E0,3.813963413E0
1.150136641E0,1.376665950E0,-7.247547626E0,3.557783842E0
1.155135974E0,1.082179189E0,-6.984185696E0,3.251325846E0
1.160135307E0,8.978256583E-1,-6.943484306E0,2.145204782E0
1.165135273E0,7.613561153E-1,-7.293037415E0,-1.223437071E0
1.170135239E0,6.344634295E-1,-7.752724171E0,-5.478232861E0
1.175134539E0,1.556231081E-1,-7.889194012E0,-7.477391243E0
1.180133872E0,-4.189853072E-1,-7.893982410E0,-7.130231857E0
1.185133238E0,-9.672574997E-1,-7.628225803E0,-5.360917091E0
1.190133271E0,-1.290474772E0,-7.204452038E0,-3.608062029E0
1.195133304E0,-1.484405041E0,-6.663362503E0,-1.908178806E0
1.200133304E0,-1.580173135E0,-6.009745598E0,-1.412578970E-1
1.205133970E0,-1.508347034E0,-5.368099689E0,1.587355733E0
1.210134336E0,-1.388636947E0,-4.906018734E0,3.033453465E0
1.215134736E0,-1.295263171E0,-4.776432514E0,4.187458992E0
1.220135636E0,-1.249773264E0,-4.797980309E0,5.210082054E0
1.225136569E0,-1.204283476E0,-4.888959885E0,6.323386192E0
1.230136569E0,-1.096544385E0,-4.946720123E0,7.336133480E0
1.235136569E0,-8.092401624E-1,-4.951508522E0,8.147768021E0
1.240136535E0,-4.141969085E-1,-4.994604111E0,8.638579369E0
1.245136501E0,-9.097966552E-2,-4.963479519E0,8.978555679E0
1.250136467E0,9.576806426E-2,-4.829104900E0,9.103054047E0
1.255136467E0,2.394201700E-3,-4.733336926E0,8.798990250E0
1.260136900E0,-1.915361285E-1,-4.721365929E0,8.451830864E0
1.265137833E0,-7.541735172E-1,-4.812345505E0,8.652944565E0
1.270137866E0,-1.520318031E0,-4.970662117E0,8.605060577E0
1.275137899E0,-2.616862535E0,-5.071218491E0,8.193257332E0
1.280138799E0,-3.749319792E0,-5.140650272E0,7.609072208E0
1.285139665E0,-5.030517101E0,-5.284302235E0,6.823774338E0
1.290139631E0,-6.366481781E0,-5.509357452E0,6.071994781E0
1.295140031E0,-7.781454563E0,-5.772719383E0,5.468656063E0
1.300140931E0,-8.995314598E0,-6.009745598E0,5.085583687E0
1.305141631E0,-9.838073730E0,-6.117484570E0,5.061641693E0
1.310142264E0,-1.036958694E1,-6.071994781E0,5.236418247E0
1.315142264E0,-1.044620132E1,-5.890035629E0,5.511751652E0
1.320142264E0,-1.027381897E1,-5.724835396E0,5.729623795E0
1.325142930E0,-9.668086052E0,-5.449502468E0,6.340145588E0
1.330143596E0,-8.880393028E0,-5.169380665E0,6.986579895E0
1.335144229E0,-7.884405613E0,-4.893748283E0,7.673715591E0
1.340144229E0,-6.773495674E0,-4.692635536E0,8.224382401E0
1.345144229E0,-5.691316605E0,-4.639962673E0,8.497321129E0
1.350143595E0,-4.857835293E0,-4.709394932E0,8.360851288E0
1.355143028E0,-4.426878929E0,-4.764461517E0,8.037634850E0
1.360142561E0,-4.345476151E0,-4.781220913E0,7.683292389E0
1.365141927E0,-4.479551315E0,-4.917989731E0,7.202057838E0
1.370141260E0,-4.757278919E0,-5.178957462E0,6.656179905E0
1.375141260E0,-5.317821026E0,-5.569212437E0,5.851728439E0
1.380141293E0,-5.928342819E0,-5.897218227E0,4.985027313E0
1.385141293E0,-6.368875980E0,-6.198887348E0,4.144362926E0
1.390141293E0,-6.541258335E0,-6.411971569E0,3.509899616E0
1.395141293E0,-6.510133743E0,-6.538864136E0,3.157952070E0
1.400141293E0,-6.282684326E0,-6.514922142E0,3.208230257E0
1.405141293E0,-6.012139797E0,-6.416759968E0,3.598485231E0
1.410141259E0,-5.681739807E0,-6.249165535E0,3.981557369E0
1.415141225E0,-5.509357452E0,-6.213252544E0,4.218583584E0
1.420140558E0,-5.037699699E0,-5.820603371E0,4.587290287E0
1.425140391E0,-4.843470097E0,-5.846940041E0,4.695029736E0
1.430139757E0,-4.838681698E0,-6.050446987E0,4.809951305E0
1.435139757E0,-4.876988888E0,-6.122272968E0,5.018546104E0
1.440139757E0,-5.114314079E0,-6.203675747E0,5.080795288E0
1.445139723E0,-5.418377876E0,-6.574777126E0,4.793191910E0
1.450139723E0,-5.748777390E0,-6.811803341E0,4.632780075E0
1.455139723E0,-6.060023785E0,-6.737582684E0,4.453215122E0
1.460139756E0,-6.191704750E0,-6.936301708E0,4.125209332E0
1.465139756E0,-6.574777126E0,-7.000945091E0,4.244919777E0
1.470139356E0,-6.589142323E0,-6.665756702E0,4.268861771E0
1.475139356E0,-6.627449512E0,-6.337751389E0,4.388571739E0
1.480138956E0,-6.924330711E0,-6.383241177E0,4.546588898E0
1.485138956E0,-6.900388718E0,-6.160580158E0,4.637568474E0
1.490138922E0,-6.977003098E0,-5.837363243E0,4.857835293E0
1.495138922E0,-7.096713066E0,-5.456685066E0,5.157409668E0
1.500139588E0,-7.350498676E0,-4.903624535E0,5.530905247E0
1.505140188E0,-7.656956196E0,-5.418377876E0,5.413589478E0
1.510140654E0,-8.150161743E0,-6.124667168E0,5.217264652E0
1.515141254E0,-8.583512306E0,-6.534075737E0,5.157409668E0
1.520141887E0,-8.566753387E0,-6.821380138E0,5.188534260E0
1.525141853E0,-8.073547363E0,-6.900388718E0,5.243600845E0
1.530141819E0,-7.479785442E0,-6.905177116E0,5.320215225E0
1.535141819E0,-6.919542313E0,-6.558017731E0,5.588366032E0
1.540141819E0,-6.435913563E0,-6.428730965E0,5.607519627E0
1.545141852E0,-6.237194538E0,-6.328174591E0,5.439925671E0
1.550141885E0,-6.141426563E0,-6.275501728E0,5.147832870E0
1.555141918E0,-6.162974358E0,-6.263530731E0,4.711789131E0
1.560141918E0,-6.208464146E0,-6.124667168E0,4.434061527E0
1.565141918E0,-6.347328186E0,-6.100725174E0,4.153939724E0
1.570142551E0,-6.490980148E0,-6.100725174E0,4.024652958E0
1.575142717E0,-6.677727699E0,-6.177339554E0,3.909731388E0
1.580143383E0,-6.854898930E0,-6.263530731E0,3.866635799E0
1.585143416E0,-7.027281284E0,-6.385635376E0,3.852270603E0
1.590143416E0,-7.108684063E0,-6.435913563E0,3.957615376E0
1.595143416E0,-7.209240437E0,-6.637026310E0,4.000710964E0
1.600143382E0,-7.328950882E0,-6.921936512E0,4.039018154E0
1.605143348E0,-7.362469673E0,-7.091924667E0,4.137180328E0
1.610143314E0,-7.309797287E0,-7.178115845E0,4.232948780E0
1.615143314E0,-7.125443459E0,-7.240365028E0,4.302380562E0
1.620143747E0,-6.914753914E0,-7.278672218E0,4.343081951E0
1.625143780E0,-6.718429089E0,-7.300220490E0,4.340687752E0
1.630144213E0,-6.558017731E0,-7.338527679E0,4.326322556E0
1.635144213E0,-6.433519363E0,-7.395988464E0,4.335899353E0
1.640144213E0,-6.344933987E0,-7.474997044E0,4.378994942E0
1.645144179E0,-6.306626320E0,-7.592312813E0,4.460397720E0
1.650144145E0,-6.301837921E0,-7.721599579E0,4.558559895E0
1.655143478E0,-6.337751389E0,-7.862857819E0,4.683058739E0
1.660143511E0,-6.378452778E0,-7.989750385E0,4.797980309E0
1.665143544E0,-6.490980148E0,-8.128614426E0,4.922778130E0
1.670143544E0,-6.761524677E0,-8.322544098E0,5.090372086E0
1.675143544E0,-7.173327446E0,-8.566753387E0,5.253177643E0
1.680143544E0,-7.616254807E0,-8.801384926E0,5.394435883E0
1.685143544E0,-7.934683800E0,-8.930671692E0,5.538087845E0
1.690143544E0,-8.114249229E0,-8.942642212E0,5.676951408E0
1.695143510E0,-8.154950142E0,-8.818143845E0,5.801449776E0
1.700143510E0,-8.083124161E0,-8.595483780E0,5.834969044E0
1.705143510E0,-7.939472198E0,-8.300996780E0,5.720046997E0
1.710143543E0,-7.786243439E0,-7.996932983E0,5.516540051E0
1.715143543E0,-7.666532993E0,-7.656956196E0,5.176563263E0
1.720143543E0,-7.594707012E0,-7.324162483E0,4.774038315E0
1.725143509E0,-7.554005623E0,-7.010521889E0,4.323928356E0
1.730143509E0,-7.577947617E0,-6.728005886E0,3.763684988E0
1.735143509E0,-7.616254807E0,-6.490980148E0,3.098097086E0
1.740143542E0,-7.599495411E0,-6.275501728E0,2.403778553E0
1.745143542E0,-7.525275230E0,-6.019322395E0,1.666364431E0
1.750143542E0,-7.424718857E0,-5.751171589E0,1.015141487E0
1.755143542E0,-7.218817234E0,-5.463867664E0,4.908113480E-1
1.760143542E0,-6.862081528E0,-5.159803867E0,2.968810201E-1
1.765143542E0,-6.297049522E0,-4.795586109E0,6.560112834E-1
1.770142842E0,-5.643432617E0,-4.343081951E0,1.606509328E0
1.775142142E0,-5.066430092E0,-3.833117008E0,2.968810081E0
1.780142142E0,-4.745307922E0,-3.402160645E0,4.347870350E0
1.785142175E0,-4.807557106E0,-3.246537447E0,5.281908035E0
1.790141541E0,-4.996998310E0,-3.303998232E0,5.775113583E0
1.795141141E0,-5.236418247E0,-3.557783842E0,5.952284813E0
1.800141141E0,-5.471050262E0,-3.883395195E0,5.971438408E0
1.805141774E0,-5.693710804E0,-4.180276394E0,5.818209171E0
1.810141107E0,-5.875670433E0,-4.390965939E0,5.743988991E0
1.815141107E0,-5.947496414E0,-4.472368717E0,5.801449776E0
1.820141140E0,-5.887641430E0,-4.460397720E0,5.875670433E0
1.825141573E0,-5.703287601E0,-4.419696331E0,5.863699436E0
1.830141573E0,-5.449502468E0,-4.371812344E0,5.681739807E0
1.835141573E0,-5.188534260E0,-4.295197964E0,5.380070686E0
1.840141573E0,-4.939537525E0,-4.197035789E0,5.054459095E0
1.845141573E0,-4.663905144E0,-4.086902142E0,4.805162907E0
1.850141539E0,-4.414907932E0,-3.993528366E0,4.647145271E0
1.855141539E0,-4.204218388E0,-3.943250179E0,4.596867085E0
1.860141539E0,-4.048594952E0,-3.943250179E0,4.613626480E0
1.865140905E0,-3.967192173E0,-3.952826977E0,4.735731125E0
1.870140905E0,-3.950432777E0,-3.945644379E0,4.946720123E0
1.875140905E0,-4.031835556E0,-3.936067581E0,5.200505257E0
1.880140938E0,-4.201824188E0,-3.971980572E0,5.542876244E0
1.885140904E0,-4.474762917E0,-4.096478939E0,6.031293392E0
1.890140870E0,-4.809951305E0,-4.256890774E0,6.519710541E0
1.895140870E0,-5.255571842E0,-4.467580318E0,7.012916088E0
1.900140636E0,-5.782296181E0,-4.714183331E0,7.472602844E0
1.905140669E0,-6.404788971E0,-5.025728703E0,7.867646217E0
1.910140702E0,-7.020098686E0,-5.382464886E0,8.104672432E0
1.915140735E0,-7.613860607E0,-5.827786446E0,8.138191223E0
1.920141401E0,-8.183680534E0,-6.318597794E0,7.987356186E0
1.925142067E0,-8.662521362E0,-6.747159481E0,7.623437405E0
1.930142033E0,-8.983344078E0,-7.060800076E0,7.230788231E0
1.935142033E0,-9.076718330E0,-7.235576630E0,6.802226067E0
1.940142699E0,-8.918700218E0,-7.309797287E0,6.361693382E0
1.945143132E0,-8.516474724E0,-7.261912823E0,5.925948620E0
1.950143132E0,-8.001721382E0,-7.120655060E0,5.562029839E0
1.955143132E0,-7.422324657E0,-6.830956936E0,5.293879032E0
1.960143765E0,-6.826168537E0,-6.490980148E0,5.121496677E0
1.965143731E0,-6.234800339E0,-6.165368557E0,5.011363506E0
1.970143697E0,-5.674557209E0,-5.897218227E0,4.922778130E0
1.975143263E0,-5.202899456E0,-5.688922405E0,4.845864296E0
1.980143296E0,-4.860229492E0,-5.550058842E0,4.778826714E0
1.985143329E0,-4.714183331E0,-5.502174854E0,4.738125324E0
1.990143362E0,-4.707000732E0,-5.518934250E0,4.728548527E0
1.995143362E0,-4.901230335E0,-5.612308025E0,4.781220913E0
2.000143362E0,-5.176563263E0,-5.732017994E0,4.881777287E0
2.005143328E0,-5.454290867E0,-5.875670433E0,5.013757706E0
2.010143328E0,-5.696105003E0,-6.048052788E0,5.183745861E0
2.015143994E0,-5.916371822E0,-6.239588737E0,5.413589478E0
2.020144027E0,-6.158185959E0,-6.397606373E0,5.674557209E0
2.025144060E0,-6.397606373E0,-6.502951145E0,5.916371822E0
2.030143993E0,-6.562806129E0,-6.579565525E0,6.155791759E0
2.035143993E0,-6.670545101E0,-6.637026310E0,6.383241177E0
2.040143993E0,-6.737582684E0,-6.646603107E0,6.601113319E0
2.045143993E0,-6.744765282E0,-6.565200329E0,6.866869926E0
2.050144226E0,-6.704063892E0,-6.407183170E0,7.149385452E0
2.055144192E0,-6.598719120E0,-6.196493149E0,6.737582684E0
2.060144192E0,-5.739200592E0,-6.067206383E0,2.913743496E0
2.065143525E0,-5.432743073E0,-5.851728439E0,2.312798738E0
2.070143558E0,-5.404012680E0,-5.645826817E0,3.904942989E0
2.075143558E0,-5.530905247E0,-5.559635639E0,6.366481781E0
2.080143558E0,-5.904400826E0,-5.442319870E0,8.789413452E0
2.085143124E0,-6.445490360E0,-5.358522892E0,9.253889084E0
2.090143124E0,-6.821380138E0,-5.308244228E0,8.877999306E0
2.095143124E0,-6.840533733E0,-5.353734493E0,7.745541573E0
2.100142490E0,-6.613084316E0,-5.502174854E0,6.498162746E0
2.105141823E0,-6.318597794E0,-5.703287601E0,5.423166275E0
2.110141156E0,-6.124667168E0,-5.820603371E0,4.745307922E0
2.115141156E0,-6.074388981E0,-5.763142586E0,4.568136692E0
2.120141156E0,-6.122272968E0,-5.554847240E0,4.853046894E0
2.125141156E0,-6.234800339E0,-5.291484833E0,5.499780655E0
2.130141122E0,-6.356904984E0,-5.092766285E0,6.124667168E0
2.135141122E0,-6.522104740E0,-4.977844715E0,6.596324921E0
2.140141122E0,-6.749553680E0,-4.922778130E0,6.818985939E0
2.145141155E0,-7.029675484E0,-4.841075897E0,6.797437668E0
2.150141188E0,-7.273883820E0,-4.730942726E0,6.668150902E0
2.155141188E0,-7.446266651E0,-4.632780075E0,6.479009151E0
2.160141154E0,-7.556399822E0,-4.556165695E0,6.263530731E0
2.165141120E0,-7.654561996E0,-4.460397720E0,6.026504993E0
2.170141120E0,-7.755118370E0,-4.345476151E0,5.806238174E0
2.175141120E0,-7.846098423E0,-4.187458992E0,5.605125427E0
2.180141153E0,-7.903559208E0,-4.010287762E0,5.418377876E0
2.185141219E0,-7.884405613E0,-3.833117008E0,5.193322659E0
2.190141219E0,-7.788637638E0,-3.672705412E0,4.929960728E0
2.195141219E0,-7.644985199E0,-3.481169224E0,4.644751072E0
2.200141219E0,-7.419930458E0,-3.258508444E0,4.350264549E0
2.205141219E0,-7.120655060E0,-3.007117271E0,4.141968727E0
2.210141185E0,-6.763918877E0,-2.729389906E0,4.055777550E0
2.215141185E0,-6.419154167E0,-2.432508945E0,4.101267338E0
2.220141185E0,-6.000168800E0,-2.147598982E0,4.192247391E0
2.225141218E0,-5.583577633E0,-1.826775908E0,4.378994942E0
2.230141218E0,-5.111919880E0,-1.529894829E0,4.572925091E0
2.235141618E0,-4.901230335E0,-1.237802267E0,4.932354927E0
2.240141584E0,-5.056853294E0,-1.074996591E0,5.413589478E0
2.245141550E0,-5.418377876E0,-1.151610970E0,5.830180645E0
2.250142183E0,-5.815814972E0,-1.431732655E0,5.992986202E0
2.255142849E0,-6.227617741E0,-1.802833915E0,5.940313816E0
2.260143549E0,-6.634632111E0,-2.197877169E0,5.739200592E0
2.265143582E0,-7.348104477E0,-2.530671120E0,5.506963253E0
2.270142948E0,-7.908347607E0,-3.110068083E0,4.469974518E0
2.275142981E0,-7.415142059E0,-3.921702385E0,2.044648170E0
2.280142981E0,-6.857293129E0,-4.048594952E0,5.506663769E-2
2.285142947E0,-6.538864136E0,-3.411737442E0,-1.795651317E-1
2.290142913E0,-6.182127953E0,-2.896984100E0,4.908113480E-1
2.295142913E0,-5.940313816E0,-2.753331900E0,1.434126854E0
2.300142913E0,-5.957073212E0,-2.777273893E0,2.176329374E0
2.305142946E0,-6.112696171E0,-2.707842112E0,2.542642117E0
2.310142946E0,-6.222829342E0,-2.499546528E0,2.621650934E0
2.315142946E0,-6.213252544E0,-2.276885748E0,2.614468336E0
2.320142912E0,-6.081571579E0,-2.044648170E0,2.626439333E0
2.325142878E0,-5.885247231E0,-1.716642618E0,2.844311714E0
2.330142844E0,-5.739200592E0,-1.333570361E0,3.232172251E0
2.335142777E0,-5.578789234E0,-9.074024558E-1,3.806780815E0
2.340142810E0,-5.358522892E0,-5.889736414E-1,4.419696331E0
2.345142843E0,-5.140650272E0,-4.118026793E-1,4.937143326E0
2.350142876E0,-5.068824291E0,-3.974374831E-1,5.303455830E0
2.355142876E0,-5.174169064E0,-5.506663918E-1,5.360917091E0
2.360142876E0,-5.377676487E0,-8.667010069E-1,5.085583687E0
2.365143509E0,-5.588366032E0,-1.297657371E0,4.491522312E0
2.370143509E0,-5.772719383E0,-1.704671621E0,3.861847401E0
2.375143509E0,-6.208464146E0,-2.123656988E0,3.112462282E0
2.380143542E0,-7.340921879E0,-2.729389906E0,2.269703150E0
2.385143542E0,-8.588300705E0,-3.620033026E0,1.549048543E0
2.390143542E0,-9.538799286E0,-4.455609322E0,9.911994934E-1
2.395143542E0,-1.026184750E1,-5.183745861E0,7.302315235E-1
2.400143542E0,-1.087236881E1,-5.667374611E0,8.643068075E-1
2.405143542E0,-1.111897182E1,-5.722441196E0,1.513135433E0
2.410143508E0,-1.123868179E1,-5.705681801E0,2.406172752E0
2.415143474E0,-1.133923817E1,-5.806238174E0,3.421314240E0
2.420144140E0,-1.146134281E1,-5.822998047E0,4.419696331E0
2.425144140E0,-1.129853725E1,-5.755959988E0,5.190928459E0
2.430144173E0,-1.070956326E1,-5.875670433E0,5.753565788E0
2.435144173E0,-9.957783699E0,-6.208464146E0,6.064812183E0
2.440144173E0,-9.270648003E0,-6.641814709E0,6.160580158E0
2.445144139E0,-8.667309761E0,-7.008127689E0,5.988197803E0
2.450144139E0,-8.087912560E0,-7.395988464E0,5.533299446E0
2.455144139E0,-7.427113056E0,-7.671321392E0,5.020940304E0
2.460144172E0,-6.646603107E0,-7.735964775E0,4.620809078E0
2.465144172E0,-5.911583424E0,-7.666532993E0,4.304774761E0
2.470144172E0,-5.348946095E0,-7.637802601E0,4.050989151E0
2.475144172E0,-4.946720123E0,-7.836521626E0,3.751713991E0
2.480144172E0,-4.766855717E0,-8.339303970E0,3.584120035E0
2.485144172E0,-4.733336926E0,-9.177274704E0,3.663128614E0
2.490144138E0,-4.635174274E0,-1.017086792E1,3.986345768E0
2.495144138E0,-4.467580318E0,-1.097053146E1,4.522646904E0
2.500144138E0,-4.170699596E0,-1.132487297E1,5.078401089E0
2.505144171E0,-3.541024208E0,-1.107827091E1,5.224447250E0
2.510144171E0,-2.954444885E0,-1.061140156E1,5.023334503E0
2.515144171E0,-2.643198729E0,-1.001045704E1,4.486733913E0
2.520144137E0,-2.676717520E0,-9.385569572E0,3.725377798E0
2.525144103E0,-3.105279684E0,-8.703222275E0,2.691082716E0
2.530144069E0,-3.440467834E0,-8.356062889E0,1.865083098E0
2.535144069E0,-3.636792421E0,-8.463802338E0,1.259350061E0
2.540143402E0,-3.689464808E0,-8.971372604E0,8.188169599E-1
2.545143435E0,-3.833117008E0,-9.790189743E0,4.046200812E-1
2.550143468E0,-4.170699596E0,-1.058985329E1,-3.591302410E-2
2.555143501E0,-4.644751072E0,-1.105193424E1,-4.764461517E-1
2.560143501E0,-5.061641693E0,-1.129374886E1,-6.248866320E-1
2.565144101E0,-5.212476254E0,-1.151162148E1,-1.651999205E-1
2.570144067E0,-5.147832870E0,-1.169358063E1,5.674257874E-1
2.575144067E0,-4.793191910E0,-1.169358063E1,1.841141105E0
2.580144067E0,-4.563348293E0,-1.145655441E1,3.318363667E0
2.585144100E0,-4.637568474E0,-1.103517532E1,4.699818134E0
2.590144100E0,-4.975450516E0,-1.050126839E1,5.657797813E0
2.595144100E0,-5.461473465E0,-9.897929192E0,5.844545841E0
2.600144066E0,-6.079177380E0,-9.241917610E0,5.387253284E0
2.605144032E0,-6.900388718E0,-8.516474724E0,4.489128113E0
2.610143998E0,-7.570765018E0,-7.793426037E0,3.529053211E0
2.615143998E0,-7.621043205E0,-7.154173851E0,2.664746523E0
2.620144031E0,-7.209240437E0,-6.778284073E0,2.152387381E0
2.625144064E0,-6.627449512E0,-6.754342079E0,2.032677174E0
2.630144097E0,-6.222829342E0,-7.067982674E0,2.183511972E0
2.635144097E0,-6.064812183E0,-7.597101212E0,2.339135170E0
2.640144097E0,-5.892429829E0,-8.166921616E0,2.427720547E0
2.645144063E0,-5.523722649E0,-8.715193748E0,2.477998734E0
2.650144029E0,-5.085583687E0,-9.170091629E0,2.518700123E0
2.655144029E0,-4.565742493E0,-9.445425034E0,2.693476915E0
2.660144062E0,-4.110844135E0,-9.531616211E0,2.949656487E0
2.665144095E0,-3.986345768E0,-9.419088364E0,3.107673883E0
2.670144095E0,-4.134786129E0,-9.244312286E0,3.129221678E0
2.675144095E0,-4.410119534E0,-9.004891396E0,3.055001259E0
2.680143461E0,-4.596867085E0,-8.753500938E0,2.956839085E0
2.685143461E0,-4.759673119E0,-8.557176590E0,2.849100113E0
2.690144127E0,-5.126285076E0,-8.456619263E0,2.803610086E0
2.695144093E0,-5.590760231E0,-8.475772858E0,2.968810081E0
2.700144093E0,-5.755959988E0,-8.573935509E0,3.210624456E0
2.705144093E0,-5.356128693E0,-8.717587471E0,3.354276657E0
2.710144126E0,-4.771644115E0,-8.887576103E0,3.399766445E0
2.715143526E0,-4.127603531E0,-9.055170059E0,3.258508444E0
2.720143526E0,-3.572149038E0,-9.110237122E0,2.973598480E0
2.725143492E0,-3.191470861E0,-9.038411140E0,2.659958124E0
2.730143492E0,-2.944868088E0,-8.894758224E0,2.355894566E0
2.735143492E0,-2.825158119E0,-8.681674957E0,2.135627985E0
2.740142858E0,-2.794033289E0,-8.459013939E0,2.006340981E0
2.745142191E0,-2.784456491E0,-8.298602104E0,1.972822189E0
2.750142191E0,-2.786850691E0,-8.269871712E0,2.039859772E0
2.755142191E0,-2.782062292E0,-8.353669167E0,2.236184359E0
2.760142191E0,-2.796427488E0,-8.444648743E0,2.468421936E0
2.765142191E0,-2.901772499E0,-8.473379135E0,2.640804529E0
2.770142157E0,-3.105279684E0,-8.470984459E0,2.707842112E0
2.775142123E0,-3.361459255E0,-8.427888870E0,2.693476915E0
2.780142123E0,-3.663128614E0,-8.389581680E0,2.626439333E0
2.785142156E0,-3.976768970E0,-8.353669167E0,2.545036316E0
2.790142189E0,-4.249708176E0,-8.308178902E0,2.475604534E0
2.795142189E0,-4.431667328E0,-8.274660110E0,2.382230759E0
2.800142189E0,-4.465186119E0,-8.291419983E0,2.264914751E0
2.805142155E0,-4.319139957E0,-8.329727173E0,2.061407566E0
2.810142155E0,-4.158728123E0,-8.320150375E0,1.934514999E0
2.815142155E0,-4.007893562E0,-8.205228806E0,1.788468719E0
2.820142188E0,-3.873818398E0,-8.023268700E0,1.546654344E0
2.825142188E0,-3.761290789E0,-7.779060364E0,1.233013868E0
2.830142821E0,-3.675099611E0,-7.501333237E0,9.002198577E-1
2.835142821E0,-3.632004023E0,-7.211634636E0,6.512228847E-1
2.840142821E0,-3.634398222E0,-6.917148113E0,4.716577232E-1
2.845142821E0,-3.627215624E0,-6.749553680E0,3.232172430E-1
2.850142121E0,-3.605667830E0,-6.660968304E0,2.226607651E-1
2.855141454E0,-3.612850428E0,-6.603507519E0,1.412578970E-1
2.860141454E0,-3.701435804E0,-6.467038155E0,7.422025502E-2
2.865141487E0,-3.866635799E0,-6.251559734E0,-2.154781483E-2
2.870141487E0,-4.062960148E0,-6.024110794E0,-1.292868853E-1
2.875140820E0,-4.297592163E0,-5.803843975E0,-1.651999205E-1
2.880140786E0,-4.556165695E0,-5.571606636E0,-9.097966552E-2
2.885140752E0,-4.752490520E0,-5.346551895E0,1.268926859E-1
2.890141385E0,-4.821922302E0,-5.178957462E0,3.543418646E-1
2.895142051E0,-4.673481941E0,-5.073612690E0,5.985504389E-1
2.900142051E0,-4.264073372E0,-5.250783443E0,1.086967587E0
2.905142084E0,-3.792415380E0,-5.657797813E0,1.651999116E0
2.910142117E0,-3.442862034E0,-6.131849766E0,2.097320795E0
2.915142150E0,-3.033453465E0,-6.785466671E0,2.439691544E0
2.920142150E0,-2.719813108E0,-7.439084053E0,2.580949545E0
2.925142150E0,-2.552218914E0,-7.889194012E0,2.387019157E0
2.930142116E0,-2.557007313E0,-7.896376610E0,1.960851192E0
2.935142116E0,-2.767697096E0,-7.503727436E0,1.484405041E0
2.940142116E0,-3.059789658E0,-6.924330711E0,1.221042871E0
2.945142149E0,-3.220201254E0,-6.325780392E0,1.347935557E0
2.950142149E0,-3.248931646E0,-5.849334240E0,1.537077546E0
2.955142149E0,-3.145981073E0,-5.583577633E0,1.812410712E0
2.960142115E0,-3.043030262E0,-5.348946095E0,1.994369984E0
2.965142081E0,-2.889801502E0,-5.157409668E0,2.207453966E0
2.970142047E0,-2.458845139E0,-5.090372086E0,2.231395960E0
2.975142047E0,-1.766920805E0,-5.375282288E0,1.934514999E0
2.980142080E0,-1.106121182E0,-5.794267178E0,1.455674648E0
2.985142113E0,-8.499416113E-1,-5.782296181E0,1.168370485E0
2.990142146E0,-7.613561153E-1,-5.595548630E0,1.070208192E0
2.995142146E0,-7.709329724E-1,-5.236418247E0,1.134851575E0
3.000142146E0,-7.254431248E-1,-4.857835293E0,1.290474772E0
3.005142779E0,-6.440402865E-1,-4.532223701E0,1.517923832E0
3.010142779E0,-6.033388376E-1,-4.261679173E0,1.750161409E0
3.015142779E0,-6.177040339E-1,-4.024652958E0,1.929726601E0
3.020142812E0,-6.488286853E-1,-3.897760391E0,2.138022184E0
3.025143512E0,-7.733271718E-1,-4.522646904E0,2.382230759E0
3.030143512E0,-5.147533417E-1,-8.569147110E0,2.547430515E0
3.035143512E0,-1.292868853E-1,-1.518941402E1,3.624821424E0
3.040143512E0,5.889736414E-1,-2.242469215E1,3.699041605E0
3.045143512E0,9.792284966E-1,-2.666512299E1,2.997540474E0
3.050143512E0,2.873041928E-1,-2.825487137E1,2.197877169E0
3.055143478E0,-1.086967587E0,-2.714396286E1,1.491587639E0
3.060143478E0,-3.019088268E0,-2.559012604E1,8.259995580E-1
3.065142578E0,-4.390965939E0,-2.416048813E1,7.661445439E-2
3.070141711E0,-4.809951305E0,-2.298254013E1,-6.727706790E-1
3.075140844E0,-4.302380562E0,-2.167051888E1,-1.386242747E0
3.080140844E0,-3.327940464E0,-2.019569016E1,-1.865083098E0
3.085140144E0,-2.195482969E0,-1.855087280E1,-2.164358377E0
3.090140144E0,-1.173158884E0,-1.690366173E1,-2.427720547E0
3.095185498E0,-2.849099934E-1,-1.506730938E1,-2.614468336E0
3.100185531E0,4.572925270E-1,-1.332642555E1,-2.573766708E0
3.105185531E0,1.223437071E0,-1.182765579E1,-2.269703150E0
3.110185397E0,2.032677174E0,-1.065928555E1,-1.929726601E0
3.115185397E0,2.815581083E0,-9.804554939E0,-1.647210717E0
3.120185397E0,3.634398222E0,-9.215581894E0,-1.419761658E0
3.125185397E0,4.386177540E0,-8.873210907E0,-1.230619669E0
3.130185363E0,5.030517101E0,-8.645761490E0,-1.051054597E0
3.135185363E0,5.511751652E0,-8.473379135E0,-8.283938169E-1
3.140185363E0,5.808632374E0,-8.303390503E0,-5.937620401E-1
3.145185396E0,5.732017994E0,-7.977779388E0,-4.955997467E-1
3.150152429E0,5.533299446E0,-7.592312813E0,-4.333505034E-1
3.155119095E0,5.406406879E0,-7.146991253E0,-3.639186621E-1
3.160085728E0,5.413589478E0,-6.728005886E0,-2.896983922E-1
3.165052361E0,5.518934250E0,-6.486191750E0,-1.412578970E-1
3.170019027E0,5.578789234E0,-6.313809395E0,-2.633621916E-2
3.174985693E0,5.554847240E0,-6.182127953E0,2.394201607E-2
3.179952393E0,5.437531471E0,-6.119878769E0,9.576806799E-3
3.184919059E0,5.207687855E0,-6.170156956E0,-3.830722719E-2
3.189885725E0,4.941931725E0,-6.285078526E0,-9.337386489E-2
3.194851725E0,4.728548527E0,-6.481403351E0,-1.604115069E-1
3.199818391E0,4.551377296E0,-6.759130478E0,-2.274491638E-1
3.204785057E0,4.422090530E0,-7.139808655E0,-3.280056417E-1
3.209751690E0,4.355052948E0,-7.599495411E0,-4.118026793E-1
3.214719256E0,4.335899353E0,-8.059182167E0,-4.740519226E-1
3.219686156E0,4.357447147E0,-8.540416718E0,-5.171475410E-1
3.224653722E0,4.438849926E0,-9.095871925E0,-5.243301988E-1
3.229620388E0,4.534617901E0,-9.622595787E0,-5.171475410E-1
3.234587721E0,4.616020679E0,-1.011340714E1,-4.716577232E-1
3.239554354E0,4.661510944E0,-1.049887371E1,-4.046200812E-1
3.244521287E0,4.726154327E0,-1.075984192E1,-3.543418646E-1
3.249487920E0,4.821922302E0,-1.087236881E1,-3.232172430E-1
3.254453920E0,4.910807133E0,-1.082927322E1,-2.873041928E-1
3.259420720E0,4.929960728E0,-1.065449715E1,-2.059013397E-1
3.264387420E0,4.869806290E0,-1.036479855E1,-5.985504389E-2
3.269354120E0,4.774038315E0,-1.005834103E1,8.858546615E-2
3.274320820E0,4.663905144E0,-9.744700432E0,2.561795712E-1
3.279287486E0,4.580107689E0,-9.459790230E0,4.429273009E-1
3.284254119E0,4.534617901E0,-9.229947090E0,6.631938815E-1
3.289220752E0,4.522646904E0,-9.062353134E0,8.978256583E-1
3.294187418E0,4.529829502E0,-8.964190483E0,1.144428372E0
3.299187751E0,4.537012100E0,-8.921094894E0,1.388636947E0
3.304187784E0,4.532223701E0,-8.911518097E0,1.565807939E0
3.309187784E0,4.520252705E0,-8.913911819E0,1.651999116E0
3.314187784E0,4.498704910E0,-8.916306496E0,1.608903527E0
3.319187750E0,4.484339714E0,-8.913911819E0,1.458068848E0
3.324187716E0,4.467580318E0,-8.906729698E0,1.216254473E0
3.329187682E0,4.431667328E0,-8.901941299E0,9.600749016E-1
3.334187682E0,4.371812344E0,-8.906729698E0,7.158663273E-1
3.339187715E0,4.292803764E0,-8.925883293E0,4.955997467E-1
3.344188415E0,4.201824188E0,-8.947430611E0,2.968810201E-1
3.349188448E0,4.120420933E0,-8.976161003E0,1.221042871E-1
3.354188448E0,4.053383350E0,-8.997709274E0,-3.112462163E-2
3.359188448E0,3.998316765E0,-9.004891396E0,-1.699883193E-1
3.364188414E0,3.955221176E0,-8.995314598E0,-2.896983922E-1
3.369189047E0,3.924096584E0,-8.983344078E0,-3.926490843E-1
3.374189047E0,3.897760391E0,-8.964190483E0,-4.788403511E-1
3.379189080E0,3.871424198E0,-8.947430611E0,-5.482721925E-1
3.384189113E0,3.849876404E0,-8.925883293E0,-5.961562395E-1
3.389189113E0,3.823540211E0,-8.904335022E0,-6.272808313E-1
3.394188446E0,3.804386616E0,-8.887576103E0,-6.464344859E-1
3.399188446E0,3.787626982E0,-8.875604630E0,-6.536170840E-1
3.404189112E0,3.778050184E0,-8.873210907E0,-6.488286853E-1
3.409189112E0,3.768473387E0,-8.870816231E0,-6.368576288E-1
3.414189078E0,3.766079187E0,-8.875604630E0,-6.177040339E-1
3.419189078E0,3.766079187E0,-8.892364502E0,-5.913678408E-1
3.424189078E0,3.768473387E0,-8.918700218E0,-5.578489900E-1
3.429189111E0,3.773261786E0,-8.947430611E0,-5.195417404E-1
3.434189111E0,3.780444384E0,-8.980949402E0,-4.764461517E-1
3.439189111E0,3.787626982E0,-9.016862869E0,-4.309563041E-1
3.444189077E0,3.792415380E0,-9.045593262E0,-3.806780577E-1
3.449189077E0,3.792415380E0,-9.074323654E0,-3.303998411E-1
3.454189077E0,3.785232782E0,-9.095871925E0,-2.777273953E-1
3.459189110E0,3.768473387E0,-9.103054047E0,-2.346317619E-1
3.464189110E0,3.746925592E0,-9.103054047E0,-2.011129409E-1
3.469189110E0,3.734954596E0,-9.115025520E0,-1.795651317E-1
3.474189110E0,3.737348795E0,-9.115025520E0,-1.675941199E-1
3.479189110E0,3.739742994E0,-9.105448723E0,-1.628057212E-1
3.484189110E0,3.730166197E0,-9.086295128E0,-1.675941199E-1
3.489189076E0,3.727771997E0,-9.067141533E0,-1.771709323E-1
3.494189042E0,3.718195200E0,-9.050381660E0,-1.939303428E-1
3.499189042E0,3.711012602E0,-9.036016464E0,-2.106897533E-1
3.504189075E0,3.706224203E0,-9.026439667E0,-2.250549644E-1
3.509189108E0,3.699041605E0,-9.026439667E0,-2.442085743E-1
3.514189108E0,3.699041605E0,-9.031228065E0,-2.657563984E-1
3.519189108E0,3.703830004E0,-9.047987938E0,-2.849099934E-1
3.524189074E0,3.711012602E0,-9.071929932E0,-3.088520169E-1
3.529189040E0,3.720589399E0,-9.103054047E0,-3.303998411E-1
3.534189006E0,3.734954596E0,-9.134179115E0,-3.471592367E-1
3.539189006E0,3.746925592E0,-9.155726433E0,-3.591302633E-1
3.544189706E0,3.754108191E0,-9.177274704E0,-3.711012602E-1
3.549189739E0,3.758896589E0,-9.191639900E0,-3.782838583E-1
3.554189772E0,3.754108191E0,-9.194033623E0,-3.878606856E-1
3.559189772E0,3.737348795E0,-9.186851501E0,-3.926490843E-1
3.564189772E0,3.715801001E0,-9.167697906E0,-3.950432837E-1
3.569189738E0,3.684676409E0,-9.143755913E0,-3.974374831E-1
3.574189738E0,3.646369219E0,-9.122207642E0,-4.022258818E-1
3.579189738E0,3.603273630E0,-9.098265648E0,-4.094084799E-1
3.584189771E0,3.557783842E0,-9.074323654E0,-4.165911078E-1
3.589189771E0,3.519476414E0,-9.062353134E0,-4.237737060E-1
3.594189771E0,3.490746021E0,-9.062353134E0,-4.285621047E-1
3.599189071E0,3.476380825E0,-9.071929932E0,-4.381389022E-1
3.604189037E0,3.476380825E0,-9.083900452E0,-4.429273009E-1
3.609188103E0,3.481169224E0,-9.098265648E0,-4.525041282E-1
3.614188103E0,3.495534420E0,-9.103054047E0,-4.596867263E-1
3.619188103E0,3.517082214E0,-9.107842445E0,-4.620809257E-1
3.624188136E0,3.541024208E0,-9.110237122E0,-4.620809257E-1
3.629188169E0,3.572149038E0,-9.107842445E0,-4.596867263E-1
3.634188202E0,3.603273630E0,-9.100660324E0,-4.525041282E-1
3.639188202E0,3.629609823E0,-9.088688850E0,-4.453215301E-1
3.644188202E0,3.658340216E0,-9.074323654E0,-4.357447028E-1
3.649188168E0,3.684676409E0,-9.062353134E0,-4.333505034E-1
3.654188168E0,3.706224203E0,-9.055170059E0,-4.357447028E-1
3.659188168E0,3.725377798E0,-9.047987938E0,-4.429273009E-1
3.664188201E0,3.744531393E0,-9.045593262E0,-4.548983276E-1
3.669188201E0,3.766079187E0,-9.045593262E0,-4.692635238E-1
3.674187534E0,3.797203779E0,-9.045593262E0,-4.860229492E-1
3.679187534E0,3.823540211E0,-9.050381660E0,-5.027823448E-1
3.684186867E0,3.857059002E0,-9.055170059E0,-5.171475410E-1
3.689186867E0,3.897760391E0,-9.055170059E0,-5.291185975E-1
3.694186833E0,3.936067581E0,-9.055170059E0,-5.363011956E-1
3.699186833E0,3.976768970E0,-9.055170059E0,-5.482721925E-1
3.704186833E0,4.015076160E0,-9.038411140E0,-5.578489900E-1
3.709186866E0,4.048594952E0,-9.021651268E0,-5.626373887E-1
3.714186866E0,4.077325344E0,-9.000102997E0,-5.674257874E-1
3.719186866E0,4.096478939E0,-8.976161003E0,-5.746083856E-1
3.724186832E0,4.110844135E0,-8.952219009E0,-5.817909837E-1
3.729186832E0,4.115632534E0,-8.925883293E0,-5.841852427E-1
3.734186832E0,4.122815132E0,-8.901941299E0,-5.841852427E-1
3.739186865E0,4.132391930E0,-8.880393028E0,-5.865794420E-1
3.744186898E0,4.144362926E0,-8.858845711E0,-5.961562395E-1
3.749187564E0,4.149151325E0,-8.839692116E0,-6.057330370E-1
3.754187564E0,4.161122322E0,-8.820538521E0,-6.200982332E-1
3.759188464E0,4.175487995E0,-8.808567047E0,-6.392518282E-1
3.764188464E0,4.197035789E0,-8.801384926E0,-6.584054828E-1
3.769188464E0,4.223371983E0,-8.796596527E0,-6.751648784E-1
3.774188430E0,4.244919777E0,-8.796596527E0,-6.967126727E-1
3.779188430E0,4.266467571E0,-8.796596527E0,-7.182605267E-1
3.784188430E0,4.288015366E0,-8.791808128E0,-7.374141216E-1
3.789188463E0,4.304774761E0,-8.787019730E0,-7.493851185E-1
3.794188463E0,4.316745758E0,-8.782231331E0,-7.517793179E-1
3.799188463E0,4.323928356E0,-8.779836655E0,-7.493851185E-1
3.804188429E0,4.328716755E0,-8.772654533E0,-7.374141216E-1
3.809188429E0,4.335899353E0,-8.775048256E0,-7.278373241E-1
3.814188429E0,4.340687752E0,-8.779836655E0,-7.158663273E-1
3.819188462E0,4.343081951E0,-8.782231331E0,-7.086837292E-1
3.824189128E0,4.345476151E0,-8.787019730E0,-7.038952708E-1
3.829189128E0,4.338293552E0,-8.794201851E0,-7.038952708E-1
3.834189794E0,4.323928356E0,-8.801384926E0,-7.086837292E-1
3.839189794E0,4.309563160E0,-8.810961723E0,-7.134721279E-1
3.844189794E0,4.288015366E0,-8.825326920E0,-7.134721279E-1
3.849189760E0,4.264073372E0,-8.839692116E0,-7.134721279E-1
3.854189760E0,4.242525578E0,-8.849268913E0,-7.134721279E-1
3.859189760E0,4.218583584E0,-8.861239433E0,-7.134721279E-1
3.864189793E0,4.192247391E0,-8.870816231E0,-7.062895298E-1
3.869189826E0,4.165910721E0,-8.877999306E0,-7.015010715E-1
3.874190926E0,4.139574528E0,-8.885181427E0,-6.943184733E-1
3.879190892E0,4.113238335E0,-8.889969826E0,-6.847416759E-1
3.884190858E0,4.094084740E0,-8.892364502E0,-6.727706790E-1
3.889190824E0,4.074931145E0,-8.897152901E0,-6.607996821E-1
3.894190790E0,4.055777550E0,-8.906729698E0,-6.440402865E-1
3.899190790E0,4.027047157E0,-8.911518097E0,-6.177040339E-1
3.904190823E0,3.993528366E0,-8.923488617E0,-5.746083856E-1
3.909190856E0,3.962403774E0,-8.935460091E0,-5.291185975E-1
3.914190889E0,3.933673382E0,-8.949825287E0,-4.884171486E-1
3.919190889E0,3.909731388E0,-8.971372604E0,-4.525041282E-1
3.924190889E0,3.885789394E0,-8.995314598E0,-4.261679053E-1
3.929190855E0,3.864241600E0,-9.016862869E0,-4.070142806E-1
3.934190855E0,3.837905407E0,-9.033622742E0,-3.902548850E-1
3.939190855E0,3.813963413E0,-9.050381660E0,-3.782838583E-1
3.944190888E0,3.792415380E0,-9.064746857E0,-3.663128614E-1
3.949190888E0,3.775655985E0,-9.071929932E0,-3.543418646E-1
3.954190221E0,3.761290789E0,-9.074323654E0,-3.447650373E-1
3.959190187E0,3.746925592E0,-9.071929932E0,-3.447650373E-1
3.964190153E0,3.734954596E0,-9.067141533E0,-3.519476354E-1
3.969190119E0,3.722983599E0,-9.062353134E0,-3.639186621E-1
3.974190119E0,3.715801001E0,-9.055170059E0,-3.830722570E-1
3.979190152E0,3.713406801E0,-9.052776337E0,-4.094084799E-1
3.984190185E0,3.718195200E0,-9.057564735E0,-4.429273009E-1
3.989190218E0,3.727771997E0,-9.059958458E0,-4.812345505E-1
3.994190251E0,3.742137194E0,-9.057564735E0,-5.195417404E-1
3.999190251E0,3.761290789E0,-9.052776337E0,-5.506663918E-1
4.004190217E0,3.780444384E0,-9.043199539E0,-5.793967843E-1
4.009190183E0,3.799597979E0,-9.033622742E0,-6.033388376E-1
4.014190183E0,3.818751812E0,-9.014469147E0,-6.177040339E-1
4.019190183E0,3.833117008E0,-9.000102997E0,-6.248866320E-1
4.024189116E0,3.849876404E0,-8.988132477E0,-6.272808313E-1
4.029189116E0,3.866635799E0,-8.973767281E0,-6.272808313E-1
4.034189116E0,3.878606796E0,-8.954613686E0,-6.296750307E-1
4.039189116E0,3.885789394E0,-8.935460091E0,-6.272808313E-1
4.044189116E0,3.892971992E0,-8.913911819E0,-6.200982332E-1
4.049189116E0,3.902548790E0,-8.897152901E0,-6.105214357E-1
4.054189082E0,3.921702385E0,-8.892364502E0,-6.057330370E-1
4.059189082E0,3.943250179E0,-8.894758224E0,-6.057330370E-1
4.064188415E0,3.964797974E0,-8.904335022E0,-6.081272364E-1
4.069187548E0,3.991134167E0,-8.918700218E0,-6.153098345E-1
4.074186648E0,4.015076160E0,-8.933065414E0,-6.224924326E-1
4.079185748E0,4.039018154E0,-8.942642212E0,-6.344634295E-1
4.084186048E0,4.055777550E0,-8.945036888E0,-6.368576288E-1
4.089186048E0,4.070142746E0,-8.940248489E0,-6.320692301E-1
4.094186348E0,4.074931145E0,-8.937853813E0,-6.272808313E-1
4.099186381E0,4.074931145E0,-8.930671692E0,-6.272808313E-1
4.104187047E0,4.070142746E0,-8.921094894E0,-6.320692301E-1
4.109186380E0,4.062960148E0,-8.906729698E0,-6.416460276E-1
4.114186380E0,4.055777550E0,-8.894758224E0,-6.560112834E-1
4.119186380E0,4.048594952E0,-8.885181427E0,-6.679822803E-1
4.124185980E0,4.046200752E0,-8.880393028E0,-6.823474765E-1
4.129185546E0,4.046200752E0,-8.880393028E0,-6.967126727E-1
4.134184846E0,4.046200752E0,-8.875604630E0,-7.086837292E-1
4.139184846E0,4.055777550E0,-8.868422508E0,-7.254431248E-1
4.144184846E0,4.065354347E0,-8.863634109E0,-7.374141216E-1
4.149184879E0,4.077325344E0,-8.861239433E0,-7.469909191E-1
4.154184879E0,4.096478939E0,-8.863634109E0,-7.541735172E-1
4.159184645E0,4.118026733E0,-8.863634109E0,-7.565677166E-1
4.164184611E0,4.141968727E0,-8.861239433E0,-7.541735172E-1
4.169184611E0,4.165910721E0,-8.856451035E0,-7.517793179E-1
4.174184611E0,4.185064793E0,-8.846874237E0,-7.445967197E-1
4.179184644E0,4.209006786E0,-8.834903717E0,-7.302315235E-1
4.184184644E0,4.228160381E0,-8.827720642E0,-7.158663273E-1
4.189184644E0,4.249708176E0,-8.820538521E0,-7.062895298E-1
4.194184644E0,4.264073372E0,-8.815750122E0,-6.919242740E-1
4.199184644E0,4.271255970E0,-8.810961723E0,-6.823474765E-1
4.204184644E0,4.278438568E0,-8.808567047E0,-6.751648784E-1
4.209184610E0,4.285621166E0,-8.808567047E0,-6.703764796E-1
4.214185276E0,4.288015366E0,-8.808567047E0,-6.703764796E-1
4.219186176E0,4.285621166E0,-8.813355446E0,-6.751648784E-1
4.224187109E0,4.276044369E0,-8.818143845E0,-6.823474765E-1
4.229188009E0,4.268861771E0,-8.827720642E0,-6.895300746E-1
4.234187675E0,4.254496574E0,-8.830115318E0,-7.038952708E-1
4.239187641E0,4.252102375E0,-8.834903717E0,-7.134721279E-1
4.244187307E0,4.252102375E0,-8.842085838E0,-7.230489254E-1
4.249187273E0,4.254496574E0,-8.844480515E0,-7.254431248E-1
4.254186606E0,4.254496574E0,-8.846874237E0,-7.254431248E-1
4.259187272E0,4.252102375E0,-8.849268913E0,-7.254431248E-1
4.264187305E0,4.249708176E0,-8.849268913E0,-7.158663273E-1
4.269187338E0,4.237737179E0,-8.844480515E0,-7.134721279E-1
4.274187338E0,4.228160381E0,-8.842085838E0,-7.086837292E-1
4.279187071E0,4.211400986E0,-8.837297440E0,-7.038952708E-1
4.284187737E0,4.197035789E0,-8.825326920E0,-7.015010715E-1
4.289187703E0,4.185064793E0,-8.810961723E0,-6.967126727E-1
4.294187703E0,4.175487995E0,-8.801384926E0,-6.943184733E-1
4.299187703E0,4.168305397E0,-8.794201851E0,-6.871358752E-1
4.304187736E0,4.163516521E0,-8.791808128E0,-6.823474765E-1
4.309187969E0,4.156333923E0,-8.796596527E0,-6.775590777E-1
4.314187969E0,4.149151325E0,-8.810961723E0,-6.727706790E-1
4.319187935E0,4.141968727E0,-8.825326920E0,-6.703764796E-1
4.324187901E0,4.137180328E0,-8.837297440E0,-6.655880809E-1
4.329187867E0,4.132391930E0,-8.849268913E0,-6.655880809E-1
4.334187867E0,4.120420933E0,-8.866027832E0,-6.607996821E-1
4.339187900E0,4.110844135E0,-8.887576103E0,-6.536170840E-1
4.344187933E0,4.096478939E0,-8.904335022E0,-6.440402865E-1
4.349187966E0,4.074931145E0,-8.916306496E0,-6.344634295E-1
4.354187966E0,4.060565948E0,-8.923488617E0,-6.224924326E-1
4.359187966E0,4.043806553E0,-8.930671692E0,-6.105214357E-1
4.364187932E0,4.034229755E0,-8.930671692E0,-5.961562395E-1
4.369187898E0,4.029441357E0,-8.928277016E0,-5.841852427E-1
4.374187898E0,4.029441357E0,-8.918700218E0,-5.722141862E-1
4.379187931E0,4.031835556E0,-8.906729698E0,-5.626373887E-1
4.384187964E0,4.041412354E0,-8.889969826E0,-5.578489900E-1
4.389187964E0,4.055777550E0,-8.870816231E0,-5.578489900E-1
4.394187964E0,4.067748547E0,-8.858845711E0,-5.602431893E-1
4.399187964E0,4.084507942E0,-8.854057312E0,-5.650315881E-1
4.404188630E0,4.096478939E0,-8.856451035E0,-5.793967843E-1
4.409188630E0,4.101267338E0,-8.858845711E0,-5.937620401E-1
4.414188596E0,4.096478939E0,-8.863634109E0,-6.153098345E-1
4.419188596E0,4.086902142E0,-8.863634109E0,-6.320692301E-1
4.424189029E0,4.077325344E0,-8.858845711E0,-6.464344859E-1
4.429189729E0,4.062960148E0,-8.854057312E0,-6.607996821E-1
4.434189729E0,4.050989151E0,-8.854057312E0,-6.703764796E-1
4.439189729E0,4.046200752E0,-8.856451035E0,-6.751648784E-1
4.444189695E0,4.041412354E0,-8.861239433E0,-6.727706790E-1
4.449189695E0,4.036623955E0,-8.863634109E0,-6.631938815E-1
4.454189695E0,4.029441357E0,-8.868422508E0,-6.488286853E-1
4.459189728E0,4.024652958E0,-8.880393028E0,-6.320692301E-1
4.464189728E0,4.015076160E0,-8.892364502E0,-6.057330370E-1
4.469189728E0,4.003105164E0,-8.904335022E0,-5.817909837E-1
4.474189728E0,3.993528366E0,-8.916306496E0,-5.578489900E-1
4.479189728E0,3.976768970E0,-8.930671692E0,-5.386953950E-1
4.484189728E0,3.960009575E0,-8.940248489E0,-5.147533417E-1
4.489189694E0,3.943250179E0,-8.949825287E0,-4.955997467E-1
4.494189660E0,3.928884983E0,-8.954613686E0,-4.836287498E-1
4.499189660E0,3.914519787E0,-8.959402084E0,-4.764461517E-1
4.504189693E0,3.904942989E0,-8.966584206E0,-4.788403511E-1
4.509189726E0,3.897760391E0,-8.971372604E0,-4.860229492E-1
4.514189726E0,3.900154591E0,-8.978555679E0,-4.908113480E-1
4.519189726E0,3.907337189E0,-8.985737801E0,-5.027823448E-1
4.524189692E0,3.912125587E0,-8.990526199E0,-5.147533417E-1
4.529189692E0,3.916913986E0,-8.988132477E0,-5.267243981E-1
4.534189692E0,3.919308186E0,-8.976161003E0,-5.386953950E-1
4.539189725E0,3.924096584E0,-8.966584206E0,-5.482721925E-1
4.544189725E0,3.928884983E0,-8.952219009E0,-5.578489900E-1
4.549189725E0,3.936067581E0,-8.942642212E0,-5.674257874E-1
4.554189725E0,3.945644379E0,-8.925883293E0,-5.770025849E-1
4.559189725E0,3.960009575E0,-8.916306496E0,-5.841852427E-1
4.564189725E0,3.967192173E0,-8.913911819E0,-5.889736414E-1
4.569189691E0,3.979163170E0,-8.916306496E0,-5.937620401E-1
4.574189691E0,3.998316765E0,-8.921094894E0,-6.033388376E-1
4.579189691E0,4.012681961E0,-8.923488617E0,-6.129156351E-1
4.584189724E0,4.027047157E0,-8.923488617E0,-6.224924326E-1
4.589189724E0,4.036623955E0,-8.918700218E0,-6.248866320E-1
4.594189724E0,4.046200752E0,-8.904335022E0,-6.224924326E-1
4.599189690E0,4.050989151E0,-8.889969826E0,-6.200982332E-1
4.604189656E0,4.055777550E0,-8.885181427E0,-6.224924326E-1
4.609189622E0,4.058171749E0,-8.880393028E0,-6.200982332E-1
4.614189622E0,4.058171749E0,-8.885181427E0,-6.153098345E-1
4.619189622E0,4.060565948E0,-8.885181427E0,-6.177040339E-1
4.624189655E0,4.062960148E0,-8.887576103E0,-6.177040339E-1
4.629189688E0,4.065354347E0,-8.894758224E0,-6.129156351E-1
4.634189721E0,4.072536945E0,-8.906729698E0,-6.105214357E-1
4.639189721E0,4.074931145E0,-8.911518097E0,-6.057330370E-1
4.644189721E0,4.074931145E0,-8.916306496E0,-6.033388376E-1
4.649189687E0,4.074931145E0,-8.916306496E0,-6.009446383E-1
4.654189687E0,4.074931145E0,-8.913911819E0,-6.033388376E-1
4.659189687E0,4.074931145E0,-8.909123421E0,-6.105214357E-1
4.664189720E0,4.074931145E0,-8.899546623E0,-6.200982332E-1
4.669189720E0,4.074931145E0,-8.887576103E0,-6.320692301E-1
4.674189720E0,4.072536945E0,-8.875604630E0,-6.440402865E-1
4.679189686E0,4.070142746E0,-8.868422508E0,-6.512228847E-1
4.684189652E0,4.070142746E0,-8.866027832E0,-6.607996821E-1
4.689189618E0,4.074931145E0,-8.863634109E0,-6.703764796E-1
4.694189618E0,4.077325344E0,-8.858845711E0,-6.799532771E-1
4.699189651E0,4.084507942E0,-8.854057312E0,-6.895300746E-1
4.704189684E0,4.096478939E0,-8.851662636E0,-6.919242740E-1
4.709189717E0,4.098873138E0,-8.849268913E0,-6.895300746E-1
4.714189717E0,4.101267338E0,-8.846874237E0,-6.799532771E-1
4.719189717E0,4.103661537E0,-8.849268913E0,-6.655880809E-1
4.724189683E0,4.101267338E0,-8.856451035E0,-6.488286853E-1
4.729189683E0,4.096478939E0,-8.866027832E0,-6.368576288E-1
4.734189683E0,4.089296341E0,-8.875604630E0,-6.248866320E-1
4.739189716E0,4.086902142E0,-8.887576103E0,-6.105214357E-1
4.744189749E0,4.084507942E0,-8.906729698E0,-5.913678408E-1
4.749189082E0,4.079719543E0,-8.923488617E0,-5.746083856E-1
4.754189082E0,4.072536945E0,-8.945036888E0,-5.602431893E-1
4.759189082E0,4.060565948E0,-8.957007408E0,-5.506663918E-1
4.764189082E0,4.050989151E0,-8.971372604E0,-5.434837937E-1
4.769189082E0,4.039018154E0,-8.978555679E0,-5.410895944E-1
4.774189048E0,4.029441357E0,-8.976161003E0,-5.410895944E-1
4.779189048E0,4.019864559E0,-8.968978882E0,-5.434837937E-1
4.784189048E0,4.007893562E0,-8.957007408E0,-5.506663918E-1
4.789189081E0,3.995922565E0,-8.945036888E0,-5.578489900E-1
4.794189081E0,3.988739967E0,-8.925883293E0,-5.650315881E-1
4.799189081E0,3.983951569E0,-8.913911819E0,-5.746083856E-1
4.804189047E0,3.981557369E0,-8.909123421E0,-5.889736414E-1
4.809189047E0,3.981557369E0,-8.906729698E0,-6.033388376E-1
4.814189047E0,3.988739967E0,-8.904335022E0,-6.153098345E-1
4.819189080E0,3.995922565E0,-8.904335022E0,-6.296750307E-1
4.824189080E0,4.005499363E0,-8.904335022E0,-6.392518282E-1
4.829189080E0,4.017470360E0,-8.904335022E0,-6.440402865E-1
4.834189080E0,4.029441357E0,-8.906729698E0,-6.416460276E-1
4.839189080E0,4.043806553E0,-8.906729698E0,-6.416460276E-1
4.844189080E0,4.058171749E0,-8.901941299E0,-6.416460276E-1
4.849189046E0,4.072536945E0,-8.894758224E0,-6.416460276E-1
4.854189046E0,4.084507942E0,-8.892364502E0,-6.416460276E-1
4.859189046E0,4.094084740E0,-8.889969826E0,-6.416460276E-1
4.864189079E0,4.101267338E0,-8.882787704E0,-6.440402865E-1
4.869189112E0,4.108449936E0,-8.877999306E0,-6.440402865E-1
4.874189112E0,4.113238335E0,-8.870816231E0,-6.368576288E-1
4.879189078E0,4.115632534E0,-8.868422508E0,-6.296750307E-1
4.884189044E0,4.115632534E0,-8.866027832E0,-6.248866320E-1
4.889189044E0,4.115632534E0,-8.868422508E0,-6.200982332E-1
4.894189044E0,4.118026733E0,-8.875604630E0,-6.153098345E-1
4.899189744E0,4.122815132E0,-8.880393028E0,-6.129156351E-1
4.904189744E0,4.125209332E0,-8.882787704E0,-6.081272364E-1
4.909189744E0,4.132391930E0,-8.885181427E0,-6.081272364E-1
4.914189744E0,4.137180328E0,-8.887576103E0,-6.081272364E-1
4.919189744E0,4.139574528E0,-8.885181427E0,-6.153098345E-1
4.924189744E0,4.141968727E0,-8.873210907E0,-6.296750307E-1
4.929189710E0,4.139574528E0,-8.858845711E0,-6.416460276E-1
4.934189710E0,4.132391930E0,-8.846874237E0,-6.560112834E-1
4.939189710E0,4.129997730E0,-8.839692116E0,-6.655880809E-1
4.944189743E0,4.129997730E0,-8.834903717E0,-6.727706790E-1
4.949189743E0,4.129997730E0,-8.832509041E0,-6.799532771E-1
4.954189743E0,4.125209332E0,-8.834903717E0,-6.775590777E-1
4.959189709E0,4.127603531E0,-8.837297440E0,-6.727706790E-1
4.964189675E0,4.132391930E0,-8.842085838E0,-6.607996821E-1
4.969189641E0,4.134786129E0,-8.837297440E0,-6.440402865E-1
4.974189641E0,4.139574528E0,-8.837297440E0,-6.248866320E-1
4.979189674E0,4.144362926E0,-8.839692116E0,-6.081272364E-1
4.984189707E0,4.151545525E0,-8.846874237E0,-5.913678408E-1
4.989189740E0,4.153939724E0,-8.854057312E0,-5.793967843E-1
4.994189773E0,4.161122322E0,-8.861239433E0,-5.698199868E-1
4.999189773E0,4.173093796E0,-8.863634109E0,-5.602431893E-1
5.004189739E0,4.182670593E0,-8.866027832E0,-5.506663918E-1
5.009189705E0,4.187458992E0,-8.866027832E0,-5.434837937E-1
5.014189705E0,4.192247391E0,-8.863634109E0,-5.339069963E-1
5.019189705E0,4.192247391E0,-8.858845711E0,-5.291185975E-1
5.024189738E0,4.189853191E0,-8.849268913E0,-5.291185975E-1
5.029189738E0,4.182670593E0,-8.832509041E0,-5.339069963E-1
5.034189738E0,4.173093796E0,-8.813355446E0,-5.434837937E-1
5.039189704E0,4.158728123E0,-8.789413452E0,-5.506663918E-1
5.044189670E0,4.139574528E0,-8.763077736E0,-5.602431893E-1
5.049189636E0,4.122815132E0,-8.743924141E0,-5.698199868E-1
5.054189636E0,4.110844135E0,-8.729558945E0,-5.817909837E-1
5.059189002E0,4.101267338E0,-8.731952667E0,-5.961562395E-1
5.064189035E0,4.096478939E0,-8.743924141E0,-6.105214357E-1
5.069188401E0,4.091690540E0,-8.763077736E0,-6.200982332E-1
5.074187501E0,4.094084740E0,-8.791808128E0,-6.248866320E-1
5.079186601E0,4.094084740E0,-8.825326920E0,-6.224924326E-1
5.084185667E0,4.089296341E0,-8.858845711E0,-6.081272364E-1
5.089185667E0,4.079719543E0,-8.885181427E0,-5.865794420E-1
5.094185667E0,4.062960148E0,-8.904335022E0,-5.602431893E-1
5.099185033E0,4.043806553E0,-8.916306496E0,-5.363011956E-1
5.104185033E0,4.027047157E0,-8.925883293E0,-5.171475410E-1
5.109185033E0,4.015076160E0,-8.930671692E0,-5.027823448E-1
5.114185033E0,4.012681961E0,-8.925883293E0,-4.884171486E-1
5.119184133E0,4.010287762E0,-8.913911819E0,-4.860229492E-1
5.124184133E0,4.007893562E0,-8.892364502E0,-5.003881454E-1
5.129184099E0,4.003105164E0,-8.868422508E0,-5.267243981E-1
5.134184065E0,4.000710964E0,-8.844480515E0,-5.650315881E-1
5.139184065E0,4.005499363E0,-8.818143845E0,-6.057330370E-1
5.144184065E0,4.022258759E0,-8.801384926E0,-6.296750307E-1
5.149183598E0,4.046200752E0,-8.794201851E0,-6.416460276E-1
5.154183598E0,4.074931145E0,-8.789413452E0,-6.416460276E-1
5.159183598E0,4.103661537E0,-8.787019730E0,-6.272808313E-1
5.164183564E0,4.127603531E0,-8.794201851E0,-6.009446383E-1
5.169183564E0,4.144362926E0,-8.806173325E0,-5.650315881E-1
5.174183564E0,4.151545525E0,-8.822932243E0,-5.315127969E-1
5.179183597E0,4.153939724E0,-8.834903717E0,-4.955997467E-1
5.184183597E0,4.146757126E0,-8.846874237E0,-4.620809257E-1
5.189183597E0,4.139574528E0,-8.856451035E0,-4.381389022E-1
5.194183597E0,4.132391930E0,-8.856451035E0,-4.261679053E-1
5.199183597E0,4.129997730E0,-8.851662636E0,-4.213795066E-1
5.204183597E0,4.122815132E0,-8.846874237E0,-4.189853072E-1
5.209184230E0,4.120420933E0,-8.837297440E0,-4.141969085E-1
5.214184230E0,4.118026733E0,-8.832509041E0,-4.094084799E-1
5.219184896E0,4.118026733E0,-8.825326920E0,-4.094084799E-1
5.224185829E0,4.110844135E0,-8.818143845E0,-4.118026793E-1
5.229186729E0,4.101267338E0,-8.815750122E0,-4.141969085E-1
5.234187629E0,4.089296341E0,-8.810961723E0,-4.118026793E-1
5.239187595E0,4.077325344E0,-8.813355446E0,-4.118026793E-1
5.244187561E0,4.058171749E0,-8.825326920E0,-4.189853072E-1
5.249188227E0,4.034229755E0,-8.834903717E0,-4.285621047E-1
5.254187827E0,4.012681961E0,-8.851662636E0,-4.405331016E-1
5.259187860E0,3.998316765E0,-8.866027832E0,-4.548983276E-1
5.264187860E0,3.986345768E0,-8.873210907E0,-4.620809257E-1
5.269188760E0,3.979163170E0,-8.880393028E0,-4.740519226E-1
5.274188760E0,3.976768970E0,-8.882787704E0,-4.836287498E-1
5.279188760E0,3.983951569E0,-8.877999306E0,-4.860229492E-1
5.284188760E0,3.995922565E0,-8.863634109E0,-4.812345505E-1
5.289188726E0,4.007893562E0,-8.842085838E0,-4.668693244E-1
5.294188726E0,4.022258759E0,-8.825326920E0,-4.525041282E-1
5.299189226E0,4.039018154E0,-8.808567047E0,-4.333505034E-1
5.304189259E0,4.050989151E0,-8.791808128E0,-4.189853072E-1
5.309189259E0,4.070142746E0,-8.779836655E0,-4.118026793E-1
5.314189259E0,4.096478939E0,-8.770259857E0,-4.118026793E-1
5.319189225E0,4.120420933E0,-8.755894661E0,-4.141969085E-1
5.324189191E0,4.141968727E0,-8.748712540E0,-4.237737060E-1
5.329189157E0,4.163516521E0,-8.743924141E0,-4.333505034E-1
5.334189157E0,4.185064793E0,-8.746317863E0,-4.405331016E-1
5.339189190E0,4.199429989E0,-8.746317863E0,-4.477157295E-1
5.344189223E0,4.209006786E0,-8.743924141E0,-4.525041282E-1
5.349189256E0,4.209006786E0,-8.734347343E0,-4.548983276E-1
5.354189256E0,4.206612587E0,-8.727164268E0,-4.525041282E-1
5.359189256E0,4.201824188E0,-8.719982147E0,-4.453215301E-1
5.364189222E0,4.194641590E0,-8.719982147E0,-4.405331016E-1
5.369189188E0,4.187458992E0,-8.722375870E0,-4.429273009E-1
5.374189188E0,4.175487995E0,-8.724770546E0,-4.501099288E-1
5.379189221E0,4.163516521E0,-8.729558945E0,-4.525041282E-1
5.384189254E0,4.153939724E0,-8.741529465E0,-4.548983276E-1
5.389189254E0,4.149151325E0,-8.753500938E0,-4.501099288E-1
5.394189254E0,4.156333923E0,-8.763077736E0,-4.381389022E-1
5.399189220E0,4.163516521E0,-8.777442932E0,-4.165911078E-1
5.404189620E0,4.175487995E0,-8.791808128E0,-3.758896589E-1
5.409189586E0,4.182670593E0,-8.803778648E0,-3.256114423E-1
5.414189586E0,4.194641590E0,-8.813355446E0,-2.657563984E-1
5.419189619E0,4.201824188E0,-8.810961723E0,-2.011129409E-1
5.424189652E0,4.201824188E0,-8.796596527E0,-1.436520964E-1
5.429189685E0,4.192247391E0,-8.777442932E0,-1.053448766E-1
5.434189685E0,4.173093796E0,-8.760683060E0,-9.816227108E-2
5.439189685E0,4.144362926E0,-8.751106262E0,-1.244984865E-1
5.444189651E0,4.113238335E0,-8.741529465E0,-1.723825186E-1
5.449189651E0,4.074931145E0,-8.731952667E0,-2.370259613E-1
5.454189651E0,4.043806553E0,-8.724770546E0,-3.064578176E-1
5.459189684E0,4.010287762E0,-8.715193748E0,-3.663128614E-1
5.464189684E0,3.974374771E0,-8.710405350E0,-4.141969085E-1
5.469189684E0,3.948038578E0,-8.710405350E0,-4.501099288E-1
5.474189684E0,3.916913986E0,-8.717587471E0,-4.716577232E-1
5.479189684E0,3.878606796E0,-8.729558945E0,-4.764461517E-1
5.484189684E0,3.845088005E0,-8.746317863E0,-4.764461517E-1
5.489189650E0,3.816357613E0,-8.760683060E0,-4.716577232E-1
5.494189616E0,3.785232782E0,-8.775048256E0,-4.716577232E-1
5.499189616E0,3.754108191E0,-8.777442932E0,-4.740519226E-1
5.504189649E0,3.720589399E0,-8.772654533E0,-4.788403511E-1
5.509189682E0,3.682282209E0,-8.763077736E0,-4.884171486E-1
5.514189682E0,3.639186621E0,-8.743924141E0,-4.955997467E-1
5.519189682E0,3.615244627E0,-8.722375870E0,-4.788403511E-1
5.524189648E0,3.581725836E0,-8.691251755E0,-5.123591423E-1
5.529189648E0,3.560178041E0,-8.660126686E0,-5.554547906E-1
5.534189648E0,3.550601006E0,-8.631396294E0,-6.081272364E-1
5.539189681E0,3.545812607E0,-8.600272179E0,-6.607996821E-1
5.544189681E0,3.543418407E0,-8.573935509E0,-7.086837292E-1
5.549189681E0,3.531447411E0,-8.559570312E0,-7.517793179E-1
5.554189681E0,3.507505417E0,-8.559570312E0,-7.996633649E-1
5.559189681E0,3.476380825E0,-8.581118584E0,-8.547300100E-1
5.564189681E0,3.457227230E0,-8.640973091E0,-9.050082564E-1
5.569189647E0,3.440467834E0,-8.729558945E0,-9.457096457E-1
5.574189647E0,3.428496838E0,-8.844480515E0,-9.648633003E-1
5.579189647E0,3.423708439E0,-8.954613686E0,-9.816226959E-1
5.584189680E0,3.414131641E0,-9.055170059E0,-1.010353088E0
5.589189680E0,3.404554844E0,-9.160514832E0,-1.034295082E0
5.594189680E0,3.399766445E0,-9.265859604E0,-1.043871999E0
5.599189646E0,3.404554844E0,-9.359233856E0,-1.027112484E0
5.604189646E0,3.409343243E0,-9.438241959E0,-9.624691010E-1
5.609189646E0,3.423708439E0,-9.483732224E0,-8.810662031E-1
5.614189679E0,3.454833031E0,-9.486125946E0,-7.757213712E-1
5.619189712E0,3.490746021E0,-9.452607155E0,-6.464344859E-1
5.624189712E0,3.536235809E0,-9.387964249E0,-5.027823448E-1
5.629189712E0,3.588908434E0,-9.313743591E0,-3.758896589E-1
5.634189712E0,3.660734415E0,-9.229947090E0,-2.777273953E-1
5.639189712E0,3.751713991E0,-9.155726433E0,-2.322375625E-1
5.644189712E0,3.852270603E0,-9.083900452E0,-2.418143749E-1
5.649189678E0,3.945644379E0,-9.028834343E0,-2.777273953E-1
5.654189678E0,4.041412354E0,-9.004891396E0,-3.232172430E-1
5.659189678E0,4.127603531E0,-9.002497673E0,-3.519476354E-1
5.664189711E0,4.177882195E0,-9.009679794E0,-3.471592367E-1
5.669189711E0,4.185064793E0,-9.019257545E0,-3.351882398E-1
5.674189711E0,4.165910721E0,-9.026439667E0,-3.040636182E-1
5.679189677E0,4.127603531E0,-9.021651268E0,-2.657563984E-1
5.684189677E0,4.072536945E0,-9.000102997E0,-2.370259613E-1
5.689189677E0,3.979163170E0,-8.978555679E0,-2.250549644E-1
5.694189710E0,3.854664803E0,-8.968978882E0,-2.274491638E-1
5.699189710E0,3.713406801E0,-8.968978882E0,-2.322375625E-1
5.704189710E0,3.560178041E0,-8.985737801E0,-2.489969730E-1
5.709189710E0,3.433285236E0,-9.012074471E0,-2.705447972E-1
5.714189710E0,3.313575268E0,-9.031228065E0,-3.040636182E-1
5.719189710E0,3.191470861E0,-9.043199539E0,-3.375824392E-1
5.724189676E0,3.086126089E0,-9.045593262E0,-3.519476354E-1
5.729189676E0,2.997540474E0,-9.019257545E0,-3.567360640E-1
5.734189676E0,2.937685490E0,-8.971372604E0,-3.734954596E-1
5.739189709E0,2.901772499E0,-8.909123421E0,-3.950432837E-1
5.744189742E0,2.913743496E0,-8.834903717E0,-4.118026793E-1
5.749189742E0,2.949656487E0,-8.767866135E0,-4.165911078E-1
5.754189708E0,3.011905670E0,-8.708010674E0,-3.950432837E-1
5.759189674E0,3.093308687E0,-8.660126686E0,-3.519476354E-1
5.764189640E0,3.179499865E0,-8.626607895E0,-3.088520169E-1
5.769189606E0,3.277662039E0,-8.593089104E0,-2.609679997E-1
5.774189606E0,3.397372246E0,-8.564358711E0,-2.106897533E-1
5.779189639E0,3.507505417E0,-8.535628319E0,-1.651999205E-1
5.784189672E0,3.612850428E0,-8.504503250E0,-1.221042871E-1
5.789189705E0,3.711012602E0,-8.480561256E0,-8.619125932E-2
5.794189705E0,3.799597979E0,-8.473379135E0,-6.224924326E-2
5.799189705E0,3.857059002E0,-8.478167534E0,-6.464344263E-2
5.804189671E0,3.881000996E0,-8.497321129E0,-9.816227108E-2
5.809189671E0,3.883395195E0,-8.533234596E0,-1.388636976E-1
5.814189671E0,3.857059002E0,-8.593089104E0,-1.795651317E-1
5.819189704E0,3.816357613E0,-8.664915085E0,-1.939303428E-1
5.824189704E0,3.766079187E0,-8.727164268E0,-1.891419291E-1
5.829189704E0,3.708618402E0,-8.777442932E0,-1.771709323E-1
5.834189670E0,3.639186621E0,-8.810961723E0,-1.795651317E-1
5.839189636E0,3.560178041E0,-8.827720642E0,-1.939303428E-1
5.844189602E0,3.478775024E0,-8.825326920E0,-2.154781520E-1
5.849189602E0,3.406949043E0,-8.815750122E0,-2.226607651E-1
5.854189635E0,3.330334663E0,-8.801384926E0,-2.059013397E-1
5.859189668E0,3.248931646E0,-8.794201851E0,-1.819593310E-1
5.864189701E0,3.157952070E0,-8.798990250E0,-1.819593310E-1
5.869189734E0,3.078943491E0,-8.813355446E0,-1.987187415E-1
5.874189734E0,2.985569477E0,-8.839692116E0,-2.370259613E-1
5.879190067E0,2.877830505E0,-8.875604630E0,-3.016694188E-1
5.884190033E0,2.774879694E0,-8.913911819E0,-3.926490843E-1
5.889190033E0,2.679111719E0,-8.952219009E0,-4.932055473E-1
5.894190033E0,2.600103140E0,-8.997709274E0,-6.129156351E-1
5.899190066E0,2.535459518E0,-9.040804863E0,-7.541735172E-1
5.904190066E0,2.487575531E0,-9.091083527E0,-8.882488012E-1
5.909190066E0,2.456450939E0,-9.124602318E0,-9.888052940E-1
5.914190066E0,2.461239338E0,-9.117419243E0,-1.024718285E0
5.919190066E0,2.492363930E0,-9.107842445E0,-1.029506683E0
5.924190066E0,2.573766708E0,-9.115025520E0,-1.058237195E0
5.929190032E0,2.707842112E0,-9.134179115E0,-1.115697980E0
5.934190032E0,2.885013103E0,-9.167697906E0,-1.199495077E0
5.939190032E0,3.095702887E0,-9.215581894E0,-1.266532660E0
5.944190065E0,3.318363667E0,-9.282619476E0,-1.297657371E0
5.949190065E0,3.538630009E0,-9.368810654E0,-1.314416766E0
5.954190065E0,3.708618402E0,-9.452607155E0,-1.256955862E0
5.959190031E0,3.811569214E0,-9.526827812E0,-1.180341482E0
5.964189997E0,3.825934410E0,-9.627384186E0,-1.125274777E0
5.969189963E0,3.787626982E0,-9.742305756E0,-1.072602391E0
5.974189963E0,3.732560396E0,-9.862015724E0,-1.015141487E0
5.979189996E0,3.639186621E0,-1.000566864E1,-9.265560508E-1
5.984190029E0,3.481169224E0,-1.021396351E1,-8.092401624E-1
5.989190062E0,3.323152065E0,-1.042465305E1,-6.919242740E-1
5.994190095E0,3.172317266E0,-1.064731407E1,-5.793967843E-1
5.999190095E0,3.028665066E0,-1.086039829E1,-4.860229492E-1
6.004190061E0,2.901772499E0,-1.105672264E1,-4.165911078E-1
6.009190027E0,2.760514498E0,-1.121473980E1,-3.830722570E-1
6.014190027E0,2.624045134E0,-1.133923817E1,-4.094084799E-1
6.019190027E0,2.499546528E0,-1.143021774E1,-4.644751251E-1
6.024190060E0,2.370259762E0,-1.148289108E1,-5.386953950E-1
6.029189693E0,2.264914751E0,-1.148049641E1,-6.200982332E-1
6.034189693E0,2.188300371E0,-1.144937134E1,-6.464344859E-1
6.039189659E0,2.130839586E0,-1.141345882E1,-6.129156351E-1
6.044189625E0,2.056619167E0,-1.135360336E1,-4.860229492E-1
6.049189591E0,1.972822189E0,-1.128896046E1,-3.567360640E-1
6.054189591E0,1.788468719E0,-1.124586487E1,-2.944868207E-1
6.059189624E0,1.532289028E0,-1.129374886E1,-3.327940404E-1
6.064189657E0,1.314416766E0,-1.145655441E1,-4.357447028E-1
6.069189023E0,1.194706678E0,-1.173667622E1,-5.793967843E-1
6.074188123E0,1.225831270E0,-1.210298920E1,-6.679822803E-1
6.079187223E0,1.400607944E0,-1.252676296E1,-6.440402865E-1
6.084186289E0,1.704671621E0,-1.295053673E1,-5.195417404E-1
6.089186355E0,2.008735180E0,-1.327614784E1,-3.926490843E-1
6.094185888E0,2.296039343E0,-1.342698288E1,-2.920926213E-1
6.099185921E0,2.504334927E0,-1.338628101E1,-2.322375625E-1
6.104185921E0,2.573766708E0,-1.320671558E1,-1.867477298E-1
6.109185921E0,2.523488522E0,-1.297926712E1,-1.149216816E-1
6.114186554E0,2.413355350E0,-1.277336502E1,3.112462163E-2
6.119186554E0,2.276885748E0,-1.262013626E1,2.130839527E-1
6.124186554E0,2.054224968E0,-1.247887897E1,3.711012602E-1
6.129186120E0,1.810016513E0,-1.229931355E1,4.788403511E-1
6.134186086E0,1.611297727E0,-1.206228733E1,6.009446383E-1
6.139186352E0,1.496376038E0,-1.180850220E1,7.613561153E-1
6.144186352E0,1.520318031E0,-1.155232239E1,1.000776291E0
6.149186385E0,1.695094824E0,-1.129614258E1,1.268926859E0
6.154186151E0,1.991975784E0,-1.094898319E1,1.503558636E0
6.159186151E0,2.329558372E0,-1.049408531E1,1.659181833E0
6.164186117E0,2.580949545E0,-9.945813179E0,1.757344007E0
6.169186083E0,2.710236311E0,-9.431059837E0,1.805228114E0
6.174186049E0,2.810792685E0,-9.194033623E0,1.781286120E0
6.179186049E0,3.126827478E0,-9.402329445E0,1.707065821E0
6.184186082E0,3.720589399E0,-9.926659584E0,1.426944256E0
6.189186115E0,4.285621166E0,-1.047253704E1,1.043871999E0
6.194186148E0,4.800374508E0,-1.099926186E1,4.453215301E-1
6.199186148E0,5.248389244E0,-1.144937134E1,-2.968810201E-1
6.204186148E0,5.662586212E0,-1.191145229E1,-1.000776291E0
6.209186114E0,6.091148376E0,-1.232564926E1,-1.527500629E0
6.214186114E0,6.502951145E0,-1.263689613E1,-1.783680320E0
6.219186780E0,6.811803341E0,-1.288110447E1,-1.769315004E0
6.224187713E0,6.938695908E0,-1.301517963E1,-1.347935557E0
6.229188613E0,7.005733490E0,-1.309179401E1,-8.259995580E-1
6.234189513E0,7.091924667E0,-1.313249588E1,-2.226607651E-1
6.239189413E0,7.235576630E0,-1.312291908E1,2.681505978E-1
6.244189846E0,7.453449249E0,-1.306545830E1,6.967126727E-1
6.249189812E0,7.685686588E0,-1.298405552E1,1.053448796E0
6.254189145E0,7.862857819E0,-1.288828659E1,1.352723956E0
6.259189145E0,7.922712803E0,-1.277336502E1,1.630451322E0
6.264188545E0,7.848492622E0,-1.268717384E1,1.917755604E0
6.269188578E0,7.776666164E0,-1.264886665E1,2.173935175E0
6.274188611E0,7.640196800E0,-1.258182907E1,2.355894566E0
6.279189011E0,7.441478252E0,-1.244057083E1,2.413355350E0
6.284189011E0,7.216423035E0,-1.219396877E1,2.308010340E0
6.289188711E0,7.003339291E0,-1.191145229E1,2.123656988E0
6.294188711E0,6.842927933E0,-1.155471706E1,1.817199111E0
6.299188711E0,6.689698696E0,-1.115967369E1,1.515529633E0
6.304188977E0,6.483797550E0,-1.072153473E1,1.304839969E0
6.309188977E0,6.251559734E0,-1.029297256E1,1.177947283E0
6.314188977E0,5.992986202E0,-9.873987198E0,1.118092179E0
6.319188977E0,5.758354187E0,-9.505280495E0,1.110909581E0
6.324188977E0,5.483021259E0,-9.124602318E0,1.120486379E0
6.329188977E0,5.267542839E0,-8.796596527E0,1.127668977E0
6.334188943E0,5.040093899E0,-8.516474724E0,1.154005170E0
6.339188943E0,4.860229492E0,-8.248324394E0,1.180341482E0
6.344188943E0,4.709394932E0,-8.001721382E0,1.209071875E0
6.349188976E0,4.560954094E0,-7.752724171E0,1.230619669E0
6.354188976E0,4.491522312E0,-7.515698433E0,1.194706678E0
6.359188976E0,4.386177540E0,-7.290643215E0,1.125274777E0
6.364188942E0,4.249708176E0,-7.075165272E0,1.010353088E0
6.369188908E0,4.041412354E0,-6.938695908E0,7.900865674E-1
6.374188908E0,3.737348795E0,-6.847716331E0,6.296750307E-1
6.379188941E0,3.433285236E0,-6.768707275E0,5.075707436E-1
6.384188974E0,3.134010077E0,-6.689698696E0,3.878606856E-1
6.389188974E0,2.892195702E0,-6.589142323E0,2.896983922E-1
6.394188974E0,2.750937700E0,-6.426336765E0,2.705447972E-1
6.399188974E0,2.674323320E0,-6.232406139E0,2.992752194E-1
6.404189640E0,2.647987127E0,-5.992986202E0,3.399766386E-1
6.409189640E0,2.638410330E0,-5.712864399E0,3.734954596E-1
6.414188940E0,2.612074137E0,-5.394435883E0,4.333505034E-1
6.419188940E0,2.633621931E0,-5.044882298E0,4.644751251E-1
6.424188940E0,2.647987127E0,-4.663905144E0,4.381389022E-1
6.429188973E0,2.659958124E0,-4.302380562E0,4.141969085E-1
6.434188973E0,2.695871115E0,-3.960009575E0,3.878606856E-1
6.439188973E0,2.691082716E0,-3.660734415E0,3.830722570E-1
6.444188939E0,2.638410330E0,-3.378218651E0,3.782838583E-1
6.449188905E0,2.571372509E0,-3.136404276E0,3.663128614E-1
6.454188871E0,2.473210335E0,-2.944868088E0,3.423708379E-1
6.459188871E0,2.370259762E0,-2.798821688E0,3.040636182E-1
6.464188904E0,2.267308950E0,-2.674323320E0,2.920926213E-1
6.469188937E0,2.169146776E0,-2.537853718E0,3.064578176E-1
6.474188970E0,2.075772762E0,-2.382230759E0,3.399766386E-1
6.479188970E0,1.975216389E0,-2.226607561E0,3.782838583E-1
6.484188970E0,1.824381709E0,-2.059013367E0,4.405331016E-1
6.489188936E0,1.651999116E0,-1.908178806E0,5.171475410E-1
6.494188902E0,1.486799240E0,-1.790862918E0,6.129156351E-1
6.499188902E0,1.338358760E0,-1.714248419E0,7.398083210E-1
6.504188935E0,1.151610970E0,-1.687912226E0,9.409212470E-1
6.509188968E0,9.504981041E-1,-1.723825216E0,1.165976286E0
6.514188968E0,7.422025204E-1,-1.836352706E0,1.431732655E0
6.519188968E0,5.363011956E-1,-2.023100376E0,1.740584612E0
6.524188934E0,3.806780577E-1,-2.296039343E0,2.090138197E0
6.529188900E0,2.130839527E-1,-2.597708941E0,2.482787132E0
6.534188866E0,0.000000000E0,-3.023876667E0,3.033453465E0
6.539188866E0,-2.154781520E-1,-3.538630009E0,3.672705412E0
6.544188899E0,-4.501099288E-1,-4.185064793E0,4.386177540E0
6.549188932E0,-6.727706790E-1,-4.956296921E0,5.157409668E0
6.554188965E0,-8.403648138E-1,-5.861305237E0,5.952284813E0
6.559188965E0,-1.048660398E0,-6.905177116E0,6.699275494E0
6.564189631E0,-1.314416766E0,-8.164526939E0,7.319374084E0
6.569189597E0,-1.501164436E0,-9.433453560E0,7.805397034E0
6.574189597E0,-1.532289028E0,-1.081011963E1,8.267477989E0
6.579189597E0,-1.436521053E0,-1.222269917E1,8.808567047E0
6.584189630E0,-1.221042871E0,-1.370231533E1,9.397541046E0
6.589189630E0,-8.283938169E-1,-1.509843445E1,9.909899712E0
6.594189630E0,-2.777273953E-1,-1.629792976E1,1.028100109E1
6.599189630E0,2.873041928E-1,-1.711195755E1,1.057309437E1
6.604189630E0,6.823474765E-1,-1.733701324E1,1.076702404E1
6.609189630E0,9.217676520E-1,-1.720772552E1,1.090828228E1
6.614189596E0,1.010353088E0,-1.670015526E1,1.096334839E1
6.619189562E0,9.744400978E-1,-1.591246319E1,1.095377159E1
6.624189562E0,8.283938169E-1,-1.485901451E1,1.094180107E1
6.629189595E0,6.512228847E-1,-1.372625732E1,1.096334839E1
6.634189628E0,4.261679053E-1,-1.253155136E1,1.099686813E1
6.639189628E0,2.513911724E-1,-1.131529617E1,1.097531986E1
6.644189628E0,1.651999205E-1,-1.010622501E1,1.087955189E1
6.649189594E0,1.915361285E-1,-8.966584206E0,1.058506489E1
6.654189594E0,4.189853072E-1,-7.970596790E0,1.004876423E1
6.659189594E0,9.097966552E-1,-7.252336025E0,9.447818756E0
6.664189627E0,1.709460020E0,-6.988974094E0,8.834903717E0
6.669189627E0,2.547430515E0,-7.020098686E0,8.327332497E0
6.674189627E0,3.433285236E0,-7.431901455E0,7.805397034E0
6.679189627E0,4.273650169E0,-8.032846451E0,7.017704487E0
6.684189627E0,5.131073475E0,-8.705616951E0,5.648221016E0
6.689189627E0,6.050446987E0,-9.287407875E0,3.849876404E0
6.694189593E0,6.993762493E0,-9.648932457E0,2.281674147E0
6.699189593E0,7.968202591E0,-9.773430824E0,1.491587639E0
6.704189593E0,8.928277016E0,-9.569923401E0,1.723825216E0
6.709189626E0,9.531616211E0,-9.184456825E0,2.439691544E0
6.714189626E0,9.426271439E0,-8.696040154E0,3.141192675E0
6.719189626E0,8.650549889E0,-8.286631584E0,3.315969467E0
6.724189592E0,7.439084053E0,-8.052000046E0,2.695871115E0
6.729189558E0,6.380846977E0,-7.920318604E0,1.795651317E0
6.734189524E0,5.794267178E0,-7.848492622E0,1.319205165E0
6.739189524E0,5.834969044E0,-7.807791233E0,1.666364431E0
6.744189524E0,6.414365768E0,-7.786243439E0,2.741360903E0
6.749189557E0,7.036858082E0,-7.798214436E0,3.598485231E0
6.754189590E0,7.498939037E0,-7.843704224E0,3.612850428E0
6.759189623E0,7.678503990E0,-7.841310024E0,2.774879694E0
6.764189623E0,7.542034626E0,-7.740753174E0,1.537077546E0
6.769189623E0,7.266701221E0,-7.640196800E0,5.315127969E-1
6.774189589E0,6.835745335E0,-7.601889610E0,-9.576806799E-3
6.779189589E0,6.299443722E0,-7.664138794E0,-2.561795712E-1
6.784189589E0,5.760748386E0,-7.855675220E0,-4.070142806E-1
6.789189622E0,5.322609425E0,-8.102277756E0,-5.578489900E-1
6.794189622E0,5.032911301E0,-8.413523674E0,-7.613561153E-1
6.799189622E0,4.953902721E0,-8.765471458E0,-9.816226959E-1
6.804189588E0,5.023334503E0,-9.162909508E0,-1.170764685E0
6.809189554E0,5.102343082E0,-9.514857292E0,-1.302445769E0
6.814189520E0,5.171774864E0,-9.802161217E0,-1.345541358E0
6.819189520E0,5.164592266E0,-1.002242756E1,-1.312022567E0
6.824189553E0,5.047276497E0,-1.016607952E1,-1.244984865E0
6.829189586E0,4.845864296E0,-1.020678139E1,-1.151610970E0
6.834189619E0,4.594472885E0,-1.013734913E1,-1.058237195E0
6.839189619E0,4.335899353E0,-9.974543571E0,-9.241618514E-1
6.844189619E0,4.077325344E0,-9.706393242E0,-7.110779285E-1
6.849189585E0,3.885789394E0,-9.416694641E0,-4.620809257E-1
6.854189585E0,3.778050184E0,-9.119813919E0,-1.843535304E-1
6.859189585E0,3.758896589E0,-8.846874237E0,9.576806426E-2
6.864189618E0,3.758896589E0,-8.607454300E0,3.591302633E-1
6.869189651E0,3.725377798E0,-8.435071945E0,5.746083856E-1
6.874189651E0,3.658340216E0,-8.346486092E0,7.134721279E-1
6.879189651E0,3.555389643E0,-8.368034363E0,7.589619160E-1
6.884189651E0,3.462015629E0,-8.516474724E0,7.374141216E-1
6.889189651E0,3.311181068E0,-8.770259857E0,7.589619160E-1
6.894189651E0,3.083731890E0,-9.155726433E0,8.714894056E-1
6.899188951E0,2.722207308E0,-9.636960983E0,1.096544385E0
6.904188617E0,2.147598982E0,-1.019959831E1,1.434126854E0
6.909188617E0,1.625662923E0,-1.068322754E1,1.766920805E0
6.914188650E0,1.142034173E0,-1.103038692E1,1.936909199E0
6.919188650E0,8.236053586E-1,-1.121713448E1,1.960851192E0
6.924188650E0,7.398083210E-1,-1.120995140E1,1.922544003E0
6.929188616E0,7.924807668E-1,-1.102799225E1,1.860294700E0
6.934188616E0,8.786720037E-1,-1.071435165E1,1.778891921E0
6.939188616E0,9.457096457E-1,-1.032170296E1,1.594538331E0
6.944188649E0,1.072602391E0,-9.821314812E0,1.355118155E0
6.949188649E0,1.216254473E0,-9.316138268E0,1.139639974E0
6.954188649E0,1.338358760E0,-8.798990250E0,9.528923035E-1
6.959188649E0,1.441309452E0,-8.289025307E0,7.637503147E-1
6.964188649E0,1.589749932E0,-7.781454563E0,5.602431893E-1
6.969188649E0,1.762132406E0,-7.314585686E0,3.351882398E-1
6.974188615E0,1.929726601E0,-6.893206120E0,9.097966552E-2
6.979188615E0,2.073378563E0,-6.512527943E0,-1.316810995E-1
6.984188615E0,2.229001760E0,-6.189310551E0,-3.974374831E-1
6.989188648E0,2.360682964E0,-5.923554420E0,-6.512228847E-1
6.994188681E0,2.516305923E0,-5.708076000E0,-8.930372596E-1
6.999188681E0,2.710236311E0,-5.521328449E0,-1.055842996E0
7.004188647E0,2.961627483E0,-5.370493889E0,-1.103726983E0
7.009188613E0,3.167528868E0,-5.262754440E0,-1.067813993E0
7.014188613E0,3.397372246E0,-5.190928459E0,-9.600749016E-1
7.019188613E0,3.572149038E0,-5.155015469E0,-8.355764151E-1
7.024188646E0,3.689464808E0,-5.198111057E0,-7.613561153E-1
7.029188646E0,3.770867586E0,-5.265148640E0,-7.445967197E-1
7.034188646E0,3.854664803E0,-5.351340294E0,-7.829039693E-1
7.039188646E0,3.921702385E0,-5.439925671E0,-8.427590132E-1
7.044188646E0,3.931279182E0,-5.569212437E0,-9.265560508E-1
7.049189312E0,3.943250179E0,-5.715258598E0,-9.792284966E-1
7.054189612E0,4.031835556E0,-5.906795025E0,-9.337386489E-1
7.059189612E0,4.187458992E0,-6.122272968E0,-7.422025204E-1
7.064189612E0,4.505887508E0,-6.402394772E0,-2.968810201E-1
7.069188978E0,4.853046894E0,-6.826168537E0,4.333505034E-1
7.074188078E0,5.138256073E0,-7.345710278E0,1.352723956E0
7.079187178E0,5.269937038E0,-7.941866398E0,2.281674147E0
7.084186244E0,5.171774864E0,-8.535628319E0,2.875436306E0
7.089185344E0,4.857835293E0,-9.031228065E0,3.059789658E0
7.094185277E0,4.278438568E0,-9.464578629E0,2.750937700E0
7.099184643E0,3.531447411E0,-9.845256805E0,2.070984364E0
7.104184643E0,2.695871115E0,-1.023311710E1,1.142034173E0
7.109184643E0,1.980004787E0,-1.064013195E1,2.825157940E-1
7.114184243E0,1.398213744E0,-1.109981823E1,-3.016694188E-1
7.119184243E0,9.337386489E-1,-1.163611984E1,-4.812345505E-1
7.124184243E0,4.644751251E-1,-1.216284370E1,-2.777273953E-1
7.129183809E0,-5.267243832E-2,-1.257225227E1,1.675941199E-1
7.134183109E0,-6.560112834E-1,-1.282603741E1,7.015010715E-1
7.139183109E0,-1.312022567E0,-1.293617153E1,1.130063176E0
7.144183109E0,-2.011129379E0,-1.291701698E1,1.252167463E0
7.149183142E0,-2.588132143E0,-1.285237408E1,1.192312479E0
7.154183142E0,-2.944868088E0,-1.278294182E1,1.015141487E0
7.159183142E0,-3.081337690E0,-1.275899982E1,9.169792533E-1
7.164183108E0,-2.923320293E0,-1.276618290E1,9.193734527E-1
7.169183074E0,-2.442085743E0,-1.274702930E1,9.528923035E-1
7.174183040E0,-1.865083098E0,-1.270632744E1,9.361328483E-1
7.179183040E0,-1.381454349E0,-1.270872211E1,7.589619160E-1
7.184183073E0,-1.084573388E0,-1.285955620E1,3.351882398E-1
7.189183106E0,-9.002198577E-1,-1.306545830E1,-1.436520964E-1
7.194183139E0,-8.714894056E-1,-1.339825153E1,-6.129156351E-1
7.199183139E0,-8.834604025E-1,-1.383160210E1,-1.048660398E0
7.204183139E0,-5.291185975E-1,-1.427931786E1,-1.177947283E0
7.209183105E0,2.274491638E-1,-1.465041924E1,-9.433154464E-1
7.214183105E0,1.254561663E0,-1.494520569E1,-4.453215301E-1
7.219183771E0,2.406172752E0,-1.515110683E1,9.337386489E-2
7.224184704E0,3.588908434E0,-1.520617390E1,4.213795066E-1
7.229185604E0,4.563348293E0,-1.517265511E1,5.889736414E-1
7.234186504E0,5.305850029E0,-1.500027180E1,5.722141862E-1
7.239187370E0,5.813420773E0,-1.468872643E1,4.572925270E-1
7.244187403E0,6.206069946E0,-1.418354988E1,4.118026793E-1
7.249188036E0,6.457461357E0,-1.367837334E1,4.764461517E-1
7.254188036E0,6.534075737E0,-1.307024670E1,4.740519226E-1
7.259188036E0,6.476614952E0,-1.231607246E1,3.639186621E-1
7.264188469E0,6.419154167E0,-1.150443840E1,2.513911724E-1
7.269188502E0,6.378452778E0,-1.072632313E1,9.576806426E-2
7.274188202E0,6.354510784E0,-1.012777233E1,-1.412578970E-1
7.279188602E0,6.344933987E0,-9.783007622E0,-4.381389022E-1
7.284189268E0,6.435913563E0,-9.873987198E0,-7.852981687E-1
7.289189234E0,6.622661114E0,-1.024987698E1,-1.086967587E0
7.294189234E0,7.060800076E0,-1.094180107E1,-1.264138460E0
7.299189234E0,7.597101212E0,-1.173667622E1,-1.249773264E0
7.304189267E0,8.102277756E0,-1.265604973E1,-9.528923035E-1
7.309189267E0,8.545205116E0,-1.360415363E1,-5.123591423E-1
7.314189267E0,8.925883293E0,-1.451395035E1,-1.412578970E-1
7.319189267E0,9.285013199E0,-1.530433559E1,4.788403213E-2
7.324189267E0,9.550769806E0,-1.599147129E1,1.221042871E-1
7.329189633E0,9.833285332E0,-1.654213715E1,2.489969730E-1
7.334189599E0,1.025466537E1,-1.697788239E1,5.602431893E-1
7.339189599E0,1.074787045E1,-1.717899513E1,1.007958889E0
7.344189599E0,1.110460663E1,-1.716941833E1,1.491587639E0
7.349189632E0,1.120755768E1,-1.694675827E1,1.802833915E0
7.354188965E0,1.101362705E1,-1.653256035E1,1.948880196E0
7.359188131E0,1.062337208E1,-1.594598198E1,1.970427990E0
7.364188097E0,9.991303444E0,-1.524926949E1,1.853112102E0
7.369188063E0,9.282619476E0,-1.444451809E1,1.690306425E0
7.374188063E0,8.478167534E0,-1.356345177E1,1.491587639E0
7.379188096E0,7.642591000E0,-1.264407825E1,1.252167463E0
7.384188129E0,6.742371082E0,-1.167203236E1,9.624691010E-1
7.389188129E0,6.009745598E0,-1.077420712E1,7.326257229E-1
7.394188129E0,5.449502468E0,-9.862015724E0,5.889736414E-1
7.399188129E0,4.925172329E0,-9.012074471E0,5.530605912E-1
7.404188129E0,4.520252705E0,-8.231564522E0,5.985504389E-1
7.409188129E0,4.252102375E0,-7.573159218E0,6.320692301E-1
7.414188095E0,3.919308186E0,-7.108684063E0,5.099649429E-1
7.419188095E0,3.521870613E0,-6.802226067E0,3.878606856E-1
7.424188428E0,3.011905670E0,-6.605901718E0,2.585737705E-1
7.429188461E0,2.547430515E0,-6.455067158E0,1.340752989E-1
7.434188461E0,2.238578558E0,-6.335357189E0,1.436521020E-2
7.439188461E0,2.056619167E0,-6.249165535E0,-9.576806426E-2
7.444188427E0,1.980004787E0,-6.160580158E0,-2.322375625E-1
7.449188393E0,1.944091797E0,-6.064812183E0,-3.782838583E-1
7.454188359E0,1.939303398E0,-5.937919617E0,-5.434837937E-1
7.459188359E0,1.881842494E0,-5.782296181E0,-7.374141216E-1
7.464188392E0,1.826775908E0,-5.571606636E0,-9.241618514E-1
7.469188425E0,1.795651317E0,-5.351340294E0,-1.082179189E0
7.474188458E0,1.781286120E0,-5.102343082E0,-1.194706678E0
7.479188091E0,1.774103403E0,-4.824316502E0,-1.235408068E0
7.484188091E0,1.790862918E0,-4.505887508E0,-1.223437071E0
7.489188057E0,1.826775908E0,-4.204218388E0,-1.199495077E0
7.494188023E0,1.865083098E0,-3.909731388E0,-1.144428372E0
7.499188023E0,1.891419291E0,-3.600879431E0,-1.079784989E0
7.504188723E0,1.889025092E0,-3.289633036E0,-1.022324085E0
7.509189589E0,1.877054095E0,-2.980781078E0,-9.696516991E-1
7.514189589E0,1.879448295E0,-2.683900118E0,-8.738836050E-1
7.519189589E0,1.862688899E0,-2.387019157E0,-7.589619160E-1
7.524189555E0,1.790862918E0,-2.097320795E0,-6.488286853E-1
7.529189521E0,1.304839969E0,-7.398083210E-1,-1.580173075E-1
7.534189487E0,1.118092179E0,-2.920926213E-1,8.140286058E-2
7.539189487E0,9.409212470E-1,-7.182605099E-3,1.221042871E-1
7.544189520E0,6.440402865E-1,4.812345505E-1,1.484405100E-1
7.549189553E0,4.764461517E-1,1.022324085E0,3.375824392E-1
7.554189586E0,1.699883193E-1,1.486799240E0,3.375824392E-1
7.559189586E0,-2.226607651E-1,1.900996208E0,3.830722719E-2
7.564189586E0,-6.488286853E-1,2.240972757E0,-6.584054828E-1
7.569189552E0,-7.709329724E-1,2.339135170E0,-9.050082564E-1
7.574189552E0,-6.919242740E-1,2.274491549E0,-5.722141862E-1
7.579189552E0,-5.961562395E-1,1.912967205E0,6.679822803E-1
7.584189585E0,-4.405331016E-1,8.188169599E-1,2.456450939E0
7.589189585E0,-5.243301988E-1,-5.075707436E-1,3.246537447E0
7.594189585E0,-8.667010069E-1,-2.128445387E0,3.538630009E0
7.599189585E0,-1.345541358E0,-3.773261786E0,3.878606796E0
7.604189585E0,-1.604115129E0,-5.562029839E0,4.458003521E0
7.609189585E0,-1.482010841E0,-6.756736279E0,4.833893299E0
7.614189551E0,-9.983820915E-1,-8.478167534E0,5.734412193E0
7.619189517E0,-6.727706790E-1,-1.064731407E1,8.133402824E0
7.624189517E0,-1.611297727E0,-1.418115616E1,1.232804394E1
7.629189550E0,-2.147598982E0,-1.717899513E1,1.432959652E1
7.634189583E0,-1.513135433E0,-2.343025589E1,1.705689240E1
7.639189583E0,6.727706790E-1,-2.886539268E1,1.862030602E1
7.644189583E0,3.861847401E0,-3.318692780E1,1.805048561E1
7.649189549E0,5.746383190E0,-3.427868271E1,1.666184807E1
7.654189549E0,4.548983097E0,-3.088849449E1,1.378371811E1
7.659189549E0,2.545036316E0,-2.557097244E1,1.182765579E1
7.664189582E0,1.424550056E0,-1.904407883E1,1.182286739E1
7.669189582E0,1.048660398E0,-1.543122864E1,1.318037987E1
7.674189582E0,1.479616642E0,-1.084842682E1,1.489492702E1
7.679189582E0,2.600103140E0,-6.735188484E0,1.472493935E1
7.684189582E0,3.730166197E0,-3.438073635E0,1.376935291E1
7.689189582E0,4.244919777E0,-1.932120800E0,1.258182907E1
7.694189548E0,4.896441936E0,-1.702277422E0,1.267041492E1
7.699189548E0,5.722441196E0,-3.385401249E0,1.070716953E1
7.704189548E0,6.859687328E0,-6.780678272E0,6.237194538E0
7.709189581E0,7.745541573E0,-8.779836655E0,2.923320293E0
7.714189581E0,8.274660110E0,-1.105911732E1,-1.817199111E0
7.719189581E0,7.407959461E0,-1.272787571E1,-7.168539047E0
7.724189547E0,6.701669693E0,-1.316840839E1,-1.161696625E1
7.729189547E0,7.486968040E0,-1.208383560E1,-1.184680939E1
7.734189547E0,9.488520622E0,-1.049169159E1,-7.882011414E0
7.739189580E0,1.053239250E1,-8.851662636E0,-1.412579060E0
7.744189613E0,9.668086052E0,-7.791031837E0,4.446032524E0
7.749189613E0,6.615478516E0,-8.001721382E0,6.548440933E0
7.754189613E0,2.614468336E0,-8.928277016E0,5.020940304E0
7.759189613E0,5.841852427E-1,-9.541193008E0,2.387019157E0
7.764189613E0,1.927332401E0,-9.282619476E0,1.723825186E-1
7.769189613E0,3.936067581E0,-8.696040154E0,7.757213712E-1
7.774189579E0,6.371270180E0,-8.233959198E0,5.020940304E0
7.779189579E0,7.910741806E0,-8.494926453E0,8.475772858E0
7.784189579E0,9.601048470E0,-8.554781914E0,6.974608898E0
7.789189612E0,9.481337547E0,-8.806173325E0,7.733271718E-1
7.794189612E0,8.142979622E0,-8.619425774E0,-4.309563160E0
7.799189612E0,6.641814709E0,-8.356062889E0,-5.954679012E0
7.804189578E0,5.392041683E0,-8.411129951E0,-5.669768810E0
7.809189544E0,4.891354084E0,-8.468590736E0,-5.236418247E0
7.814189510E0,4.525041103E0,-8.444648743E0,-4.532223701E0
7.819189510E0,4.608838081E0,-8.466196060E0,-3.574543238E0
7.824189543E0,4.951508522E0,-8.703222275E0,-2.463633537E0
7.829189576E0,5.502174854E0,-8.942642212E0,-1.912967205E0
7.834189609E0,6.036081791E0,-9.246706009E0,-1.541865945E0
7.839189609E0,6.210858345E0,-9.579500198E0,-1.292868972E0
7.844189609E0,5.966650009E0,-1.001285076E1,-1.175553083E0
7.849189575E0,5.676951408E0,-1.013256073E1,-1.094150186E0
7.854189575E0,5.358522892E0,-1.025945377E1,-1.233013868E0
7.859189575E0,4.817133904E0,-1.037198067E1,-1.596932530E0
7.864189608E0,3.830722809E0,-1.025466537E1,-1.910573006E0
7.869189641E0,3.224989653E0,-1.005834103E1,-1.939303398E0
7.874189641E0,2.621650934E0,-9.677662849E0,-1.752555609E0
7.879189607E0,2.061407566E0,-9.392752647E0,-1.467645645E0
7.884189573E0,1.613691926E0,-9.249100685E0,-9.744400978E-1
7.889189539E0,1.142034173E0,-9.361627579E0,-5.267243981E-1
7.894189505E0,5.243301988E-1,-9.948206902E0,2.298433632E-1
7.899189505E0,-5.410895944E-1,-1.076463032E1,1.951274395E0
7.904189538E0,-1.762132406E0,-1.181568432E1,4.031835556E0
7.909189571E0,-1.752555609E0,-1.228973675E1,4.946720123E0
7.914188937E0,-1.108515382E0,-1.273505783E1,5.037699699E0
7.919188937E0,-3.327940404E-1,-1.310137081E1,4.292803764E0
7.924188937E0,-3.974374831E-1,-1.315643787E1,3.555389643E0
7.929188903E0,-4.333505034E-1,-1.273745251E1,3.016694069E0
7.934188903E0,-7.182604820E-2,-1.188511658E1,2.545036316E0
7.939188903E0,6.799532771E-1,-1.062576675E1,2.410961151E0
7.944188936E0,1.414973259E0,-9.232340813E0,2.030282974E0
7.949188936E0,1.704671621E0,-8.578723907E0,1.685518026E0
7.954188936E0,2.379836559E0,-7.676109791E0,1.391031146E0
7.959188936E0,3.122039080E0,-6.739976883E0,1.587355733E0
7.964188936E0,3.497928619E0,-5.834969044E0,1.525106430E0
7.969188936E0,3.287238836E0,-5.186140060E0,1.127668977E0
7.974188902E0,2.985569477E0,-4.568136692E0,4.692635238E-1
7.979188902E0,3.023876667E0,-4.108449936E0,-1.891419291E-1
7.984188902E0,3.009511471E0,-3.713406801E0,-9.481038451E-1
7.989188935E0,2.908955097E0,-3.596091032E0,-1.249773264E0
7.994188968E0,2.858676910E0,-3.545812607E0,-1.623268723E0
7.999188968E0,2.956839085E0,-3.543418407E0,-1.912967205E0
8.004188934E0,2.868253708E0,-3.847482204E0,-2.226607561E0
8.009188900E0,2.803610086E0,-4.096478939E0,-2.238578558E0
8.014188900E0,2.559401512E0,-4.513070107E0,-2.152387381E0
8.019188900E0,2.267308950E0,-4.855441093E0,-2.092532396E0
8.024188933E0,2.135627985E0,-5.272331238E0,-2.126051188E0
8.029188933E0,2.274491549E0,-5.547664642E0,-2.102109194E0
8.034188933E0,2.291250944E0,-5.710470200E0,-1.927332401E0
8.039188933E0,2.097320795E0,-5.882853031E0,-1.778891921E0
8.044188933E0,2.288856745E0,-6.119878769E0,-1.771709204E0
8.049188933E0,2.511517525E0,-6.122272968E0,-1.692700624E0
8.054188899E0,2.784456491E0,-6.038475990E0,-1.544260144E0
8.059188899E0,3.454833031E0,-5.767930984E0,-1.338358760E0
8.064189565E0,4.144362926E0,-5.664980412E0,-4.644751251E-1
8.069188931E0,4.553771496E0,-5.890035629E0,6.272808313E-1
8.074188031E0,4.925172329E0,-6.280290127E0,2.415749550E0
8.079187364E0,5.535693645E0,-6.895600319E0,5.131073475E0
8.084186430E0,6.397606373E0,-7.774271965E0,7.393594265E0
8.089185530E0,6.546046734E0,-8.554781914E0,7.498939037E0
8.094184630E0,5.700893402E0,-9.220370293E0,6.361693382E0
8.099183763E0,4.429273129E0,-9.919476509E0,4.223371983E0
8.104183763E0,2.829946518E0,-1.054196930E1,1.819593310E0
8.109183096E0,1.886630893E0,-1.100644493E1,7.302315235E-1
8.114183096E0,9.002198577E-1,-1.236156273E1,-1.692700624E0
8.119183096E0,7.493851185E-1,-1.372865200E1,-2.106897593E0
8.124183096E0,7.565677166E-1,-1.515350151E1,-1.857900500E0
8.129183062E0,3.256114423E-1,-1.642003441E1,-9.002198577E-1
8.134183028E0,-2.322375625E-1,-1.661635780E1,2.825157940E-1
8.139182361E0,-1.292868972E0,-1.571374416E1,1.802833915E0
8.144182361E0,-2.521094322E0,-1.406623459E1,3.260902643E0
8.149182394E0,-3.284844637E0,-1.320671558E1,3.318363667E0
8.154181727E0,-4.570530891E0,-1.227776527E1,2.475604534E0
8.159180827E0,-5.159803867E0,-1.173428154E1,7.565677166E-1
8.164180793E0,-5.672163010E0,-1.141824722E1,-1.175553083E0
8.169180759E0,-5.607519627E0,-1.104714584E1,-1.498770237E0
8.174180725E0,-4.548983097E0,-1.078378391E1,-1.015141487E0
8.179180725E0,-2.827552319E0,-1.085082150E1,-4.908113480E-1
8.184180758E0,-9.265560508E-1,-1.087236881E1,-7.661445439E-2
8.189180791E0,-2.920926213E-1,-1.099447346E1,7.445967197E-1
8.194180824E0,3.208230138E-1,-1.102559853E1,1.618480325E0
8.199180824E0,8.403648138E-1,-1.103996372E1,1.034295082E0
8.204180824E0,1.508347094E-1,-1.141345882E1,4.309562966E-2
8.209180790E0,-1.012747288E0,-1.245972538E1,-7.876923680E-1
8.214180790E0,-1.441309452E0,-1.372625732E1,-1.197100878E0
8.219181456E0,2.442085743E-1,-1.485901451E1,-1.460463107E-1
8.224182389E0,3.897760391E0,-1.584542561E1,2.068590164E0
8.229183055E0,4.690241337E0,-1.685338402E1,3.790021181E0
8.234183955E0,4.534617901E0,-1.737053108E1,3.825934410E0
8.239184821E0,4.441244125E0,-1.710956383E1,2.473210335E0
8.244185687E0,4.431667328E0,-1.647988892E1,6.655880809E-1
8.249186553E0,4.043806553E0,-1.629792976E1,-2.035071403E-1
8.254185886E0,4.182670593E0,-1.559882259E1,-6.081272364E-1
8.259186552E0,4.450820923E0,-1.447085476E1,-4.405331016E-1
8.264186585E0,4.189853191E0,-1.297208405E1,-3.734954596E-1
8.269186618E0,4.309563160E0,-1.238789845E1,-3.519476354E-1
8.274185984E0,4.565742493E0,-1.225861168E1,-6.488286853E-1
8.279185984E0,4.235342979E0,-1.237113953E1,-1.446097851E0
8.284185984E0,4.616020679E0,-1.301757431E1,-2.813186884E0
8.289186617E0,4.836287498E0,-1.345331860E1,-2.894589901E0
8.294186617E0,5.521328449E0,-1.440381718E1,-2.789244890E0
8.299186617E0,6.728005886E0,-1.526602840E1,-3.038241863E0
8.304187317E0,7.075165272E0,-1.573289776E1,-2.863465309E0
8.309187550E0,6.629843712E0,-1.557248688E1,-2.985569477E0
8.314187550E0,6.299443722E0,-1.576881123E1,-2.566584110E0
8.319187550E0,6.890811920E0,-1.639609146E1,-1.843535304E0
8.324187550E0,7.922712803E0,-1.744714546E1,-4.237737060E-1
8.329187550E0,8.542811394E0,-1.810555267E1,7.158663273E-1
8.334187516E0,9.553164482E0,-1.939842033E1,1.685518026E0
8.339187516E0,1.079096603E1,-2.084930611E1,2.073378563E0
8.344187516E0,1.174146461E1,-2.273593712E1,2.097320795E0
8.349187549E0,1.236635113E1,-2.378459740E1,2.276885748E0
8.354186982E0,1.194975948E1,-2.028188133E1,4.182670593E0
8.359186082E0,1.121473980E1,-1.890521431E1,4.187458992E0
8.364185182E0,1.121473980E1,-1.890521431E1,4.187458992E0
8.369184248E0,1.121473980E1,-1.890521431E1,4.187458992E0
8.374184248E0,9.584288597E0,-1.632905388E1,3.505111217E0
8.379184281E0,7.953837395E0,-1.385793877E1,2.324769735E0
8.384184314E0,6.593930721E0,-1.164809036E1,8.667010069E-1
8.389184314E0,5.619490623E0,-1.050605679E1,9.576806426E-2
8.394184314E0,3.643975019E0,-8.573935509E0,-3.208230138E-1
8.399184314E0,3.083731890E0,-7.293037415E0,-4.237737060E-1
8.404184980E0,3.191470861E0,-6.502951145E0,-4.261679053E-1
8.409184980E0,2.916137695E0,-5.858911037E0,-5.793967843E-1
8.414184946E0,2.020706177E0,-5.207687855E0,-4.812345505E-1
8.419184946E0,1.252167463E0,-4.937143326E0,-6.607996821E-1
8.424185612E0,1.244984865E-1,-5.298667431E0,-1.271321058E0
8.429185645E0,-3.711012602E-1,-5.648221016E0,-1.525106430E0
8.434185645E0,-4.261679053E-1,-6.318597794E0,-1.735796213E0
8.439185645E0,-3.016694188E-1,-6.502951145E0,-1.611297727E0
8.444185611E0,6.655880809E-1,-6.390423775E0,-1.381454349E0
8.449185577E0,7.733271718E-1,-6.112696171E0,-1.149216771E0
8.454185543E0,4.141969085E-1,-5.418377876E0,-1.637633920E0
8.459186209E0,1.125274822E-1,-4.973056316E0,-1.982398987E0
8.464186242E0,9.193734527E-1,-4.563348293E0,-2.456450939E0
8.469186275E0,1.489193439E0,-4.201824188E0,-2.588132143E0
8.474186308E0,1.924938202E0,-3.667917013E0,-2.573766708E0
8.479186308E0,1.977610588E0,-3.174711466E0,-2.568978310E0
8.484186308E0,2.030282974E0,-2.659958124E0,-2.528276920E0
8.489186274E0,2.121262789E0,-2.439691544E0,-2.640804529E0
8.494186240E0,1.199495077E0,-1.319205165E0,-2.432508945E0
8.499185373E0,1.149216771E0,-1.168370485E0,-2.370259762E0
8.504151739E0,1.122880578E0,-1.012747288E0,-2.298433542E0
8.509119339E0,1.185129881E0,-5.243301988E-1,-2.075772762E0
8.514086872E0,1.355118155E0,1.532289088E-1,-1.821987510E0
8.519054438E0,1.371877551E0,8.499416113E-1,-1.721431017E0
8.524021071E0,1.254561663E0,1.522712231E0,-1.623268723E0
8.528987704E0,1.127668977E0,1.977610588E0,-1.546654344E0
8.533954337E0,8.427590132E-1,2.535459518E0,-1.379060149E0
8.538921003E0,6.584054828E-1,2.865859509E0,-1.204283476E0
8.543887703E0,4.333505034E-1,3.193865061E0,-8.930372596E-1
8.548854403E0,1.628057212E-1,3.354276657E0,-5.530605912E-1
8.553821103E0,6.703764945E-2,3.280056238E0,-2.873042040E-2
8.558787769E0,9.097966552E-2,2.985569477E0,4.501099288E-1
8.563754435E0,-2.873042040E-2,2.559401512E0,2.729389966E-1
8.568721068E0,-2.298433632E-1,2.343923569E0,-3.806780577E-1
8.573687734E0,-2.753331959E-1,2.094926596E0,-1.501164436E0
8.578654400E0,-3.208230138E-1,1.829170108E0,-1.347935557E0
8.583621100E0,-1.005564705E-1,1.240196466E0,8.140286058E-2
8.588587766E0,4.333505034E-1,4.932055473E-1,1.819593310E0
8.593554432E0,8.020575643E-1,-5.937620401E-1,3.145981073E0
8.598521098E0,7.948749661E-1,-2.111685991E0,4.244919777E0
8.603487764E0,6.153098345E-1,-4.539406300E0,5.516540051E0
8.608454430E0,5.171475410E-1,-6.057629585E0,5.772719383E0
8.613421063E0,3.591302633E-1,-7.994538784E0,5.880458832E0
8.618387696E0,3.998316824E-1,-9.821314812E0,6.206069946E0
8.623354362E0,4.357447028E-1,-1.204313374E1,7.625831604E0
8.628321062E0,-3.998316824E-1,-1.396088982E1,9.067141533E0
8.633287762E0,-1.764526606E0,-1.719336128E1,1.154992867E1
8.638254428E0,-1.814804912E0,-2.160826874E1,1.561797619E1
8.643221094E0,-1.747767180E-1,-2.751745796E1,1.726518631E1
8.648188594E0,2.511517525E0,-3.318692780E1,2.033455276E1
8.653189460E0,5.583577633E0,-3.506667709E1,1.905844498E1
8.658189426E0,4.288015366E0,-3.172885895E1,1.545756435E1
8.663189426E0,1.034295082E0,-2.398810577E1,1.252197456E1
8.668189459E0,-5.889736414E-1,-1.947264099E1,1.223227596E1
8.673189492E0,-1.781286120E0,-1.293138218E1,1.351556778E1
8.678189525E0,-1.733402014E0,-8.717587471E0,1.585021400E1
8.683189525E0,-1.407790542E0,-5.633855820E0,1.603217316E1
8.688189525E0,-1.271321058E0,-3.473986626E0,1.350120258E1
8.693189491E0,-1.410184860E0,-1.333570361E0,1.130571938E1
8.698189491E0,-2.205059767E0,5.243301988E-1,1.219875717E1
8.703189491E0,-2.094926596E0,1.620874524E0,1.095137787E1
8.708189524E0,-1.522712231E0,1.661576033E0,8.277054787E0
8.713189524E0,-4.884171486E-1,1.247379065E0,3.055001259E0
8.718189524E0,7.469909191E-1,-7.182605099E-3,-5.226841450E0
8.723189490E0,2.758120298E0,-1.572990537E0,-9.431059837E0
8.728189456E0,4.141968727E0,-3.325546265E0,-8.992920876E0
8.733189856E0,6.558017731E0,-5.727229595E0,-6.641814709E0
8.738189856E0,1.081251431E1,-8.363245964E0,-2.516305923E0
8.743189856E0,1.544319916E1,-1.055872917E1,3.687070608E-1
8.748189889E0,1.649664879E1,-1.123868179E1,1.431732655E0
8.753189922E0,1.723885155E1,-1.225382328E1,4.412513733E0
8.758189955E0,1.632187080E1,-1.470578575E1,1.096813679E1
8.763189955E0,7.374440670E0,-1.996105766E1,1.678634644E1
8.768189955E0,-6.344634295E-1,-2.410542107E1,1.528757668E1
8.773189921E0,-3.232172251E0,-3.053415298E1,5.018546104E0
8.778189921E0,-1.692700624E0,-3.005531120E1,-3.009511471E0
8.783189921E0,9.911994934E-1,-2.335603523E1,-4.692635536E0
8.788189954E0,3.634398222E0,-1.505055046E1,-3.971980572E0
8.793189954E0,4.766855717E0,-9.009679794E0,-8.547300100E-1
8.798189954E0,5.339369297E0,-5.736806393E0,2.873042107E0
8.803189954E0,6.304232121E0,-4.072536945E0,5.856516838E0
8.808189954E0,6.589142323E0,-3.545812607E0,6.081571579E0
8.813189954E0,6.627449512E0,-2.621650934E0,4.082113743E0
8.818189920E0,6.256348133E0,-1.991975784E0,1.754949808E0
8.823189920E0,5.459079266E0,-1.625662923E0,-1.915361285E-1
8.828189920E0,4.699818134E0,-1.623268723E0,-1.987187386E0
8.833189953E0,4.223371983E0,-2.066195965E0,-3.699041605E0
8.838189953E0,4.237737179E0,-2.844311714E0,-4.072536945E0
8.843189953E0,4.762067318E0,-3.964797974E0,-3.203441858E0
8.848189919E0,5.186140060E0,-4.546588898E0,-2.595314741E0
8.853190352E0,5.897218227E0,-5.284302235E0,-1.881842494E0
8.858190318E0,6.471826553E0,-6.045658588E0,-1.292868972E0
8.863190318E0,6.977003098E0,-7.484573841E0,-1.194706678E0
8.868190318E0,7.345710278E0,-9.225158691E0,-1.893813491E0
8.873190351E0,7.350498676E0,-1.079814911E1,-2.547430515E0
8.878190384E0,6.572382927E0,-1.201679802E1,-2.932897091E0
8.883189984E0,5.557241440E0,-1.282603741E1,-2.863465309E0
8.888189984E0,4.469974518E0,-1.314686108E1,-2.197877169E0
8.893189984E0,3.545812607E0,-1.314207268E1,-1.194706678E0
8.898189950E0,2.382230759E0,-1.274702930E1,-7.422025502E-2
8.903189950E0,1.359906554E0,-1.197849083E1,1.242590666E0
8.908189950E0,8.475474119E-1,-1.143261242E1,1.862688899E0
8.913189983E0,4.788403213E-2,-1.083645630E1,2.375048161E0
8.918189983E0,-2.537853718E-1,-1.081969643E1,2.229001760E0
8.923189983E0,-2.777273953E-1,-1.090588760E1,1.776497602E0
8.928189949E0,-1.149216816E-1,-1.104235744E1,1.247379065E0
8.933189915E0,-1.101332754E-1,-1.135360336E1,6.464344859E-1
8.938189881E0,2.298433632E-1,-1.176540661E1,9.097966552E-2
8.943189881E0,3.232172430E-1,-1.219636250E1,-3.591302633E-1
8.948189914E0,-3.519476354E-1,-1.236156273E1,-2.801215947E-1
8.953189947E0,-8.738836050E-1,-1.223227596E1,4.022258818E-1
8.958189980E0,-8.667010069E-1,-1.193539429E1,1.395819545E0
8.963189980E0,-5.530605912E-1,-1.092025280E1,2.643198729E0
8.968189980E0,-6.823474765E-1,-1.010143661E1,2.870647907E0
8.973189946E0,-6.823474765E-1,-9.512462616E0,2.609679937E0
8.978189912E0,-5.099649429E-1,-8.818143845E0,2.360682964E0
8.983189912E0,-2.466027737E-1,-8.186075211E0,2.135627985E0
8.988189945E0,-2.394201607E-2,-7.759906769E0,2.001552582E0
8.993189811E0,4.908113480E-1,-7.245153427E0,1.687912226E0
8.998189811E0,1.003170490E0,-6.909965515E0,1.252167463E0
9.003189344E0,1.328781962E0,-6.534075737E0,7.015010715E-1
9.008189344E0,1.671152830E0,-6.342539787E0,2.705447972E-1
9.013189344E0,2.092532396E0,-6.177339554E0,-1.795651317E-1
9.018189344E0,2.540247917E0,-6.012139797E0,-4.357447028E-1
9.023189310E0,2.774879694E0,-5.789478779E0,-7.589619160E-1
9.028189310E0,2.801215887E0,-5.631461620E0,-1.043871999E0
9.033189310E0,2.887407303E0,-5.581183434E0,-1.359906554E0
9.038189343E0,2.882618904E0,-5.473444462E0,-1.831564307E0
9.043189343E0,2.683900118E0,-5.277119637E0,-2.353500366E0
9.048189343E0,2.734178305E0,-5.212476254E0,-2.499546528E0
9.053189443E0,2.940079689E0,-5.166986465E0,-2.712630510E0
9.058188776E0,2.858676910E0,-5.157409668E0,-2.913743496E0
9.063188776E0,2.695871115E0,-5.090372086E0,-2.966415882E0
9.068188809E0,2.442085743E0,-4.992209911E0,-2.904166698E0
9.073188142E0,2.329558372E0,-4.845864296E0,-2.758120298E0
9.078187242E0,2.312798738E0,-4.599261284E0,-2.652775526E0
9.083186342E0,2.631227732E0,-4.302380562E0,-2.243366957E0
9.088185442E0,3.014299870E0,-4.182670593E0,-1.647210717E0
9.093184542E0,4.173093796E0,-4.180276394E0,-2.729389966E-1
9.098183608E0,5.758354187E0,-4.462791920E0,1.441309452E0
9.103182908E0,7.582736015E0,-5.202899456E0,3.785232782E0
9.108182008E0,8.573935509E0,-5.681739807E0,4.766855717E0
9.113181141E0,8.710405350E0,-6.756736279E0,5.566818237E0
9.118181174E0,7.338527679E0,-7.898770809E0,5.708076000E0
9.123180507E0,4.869806290E0,-9.294589996E0,5.272331238E0
9.128180507E0,2.011129379E0,-1.045817184E1,3.639186621E0
9.133180473E0,-4.764461517E-1,-1.157387066E1,1.568202138E0
9.138179806E0,-2.341529369E0,-1.274942303E1,-4.357447028E-1
9.143179972E0,-3.643975019E0,-1.425058746E1,-1.702277422E0
9.148179605E0,-4.465186119E0,-1.508646393E1,-1.905784607E0
9.153179205E0,-5.152621269E0,-1.606808662E1,-8.738836050E-1
9.158178305E0,-5.222053051E0,-1.617582512E1,5.554547906E-1
9.163178305E0,-5.188534260E0,-1.532588387E1,2.224213362E0
9.168178305E0,-5.461473465E0,-1.391779423E1,3.598485231E0
9.173178305E0,-6.052841187E0,-1.252197456E1,4.163516521E0
9.178178271E0,-6.546046734E0,-1.153795719E1,3.452438831E0
9.183178271E0,-6.739976883E0,-1.080533123E1,1.412579060E0
9.188178271E0,-6.675333500E0,-1.056591129E1,4.046200812E-1
9.193178304E0,-5.940313816E0,-1.028818417E1,-3.663128614E-1
9.198178304E0,-3.450044632E0,-1.035043335E1,-3.423708379E-1
9.203178170E0,-7.230489254E-1,-1.110700130E1,1.015141487E0
9.208178803E0,2.633621991E-1,-1.178216553E1,1.678335428E0
9.213178769E0,1.029506698E-1,-1.226818848E1,1.386242747E0
9.218178735E0,-1.395819545E0,-1.275181770E1,-3.806780577E-1
9.223179401E0,-3.529053211E0,-1.340543461E1,-2.458845139E0
9.228180301E0,-4.323928356E0,-1.387709236E1,-2.561795712E0
9.233181234E0,-4.845864296E0,-1.474409294E1,-2.284068346E0
9.238182167E0,-3.940855980E0,-1.558445740E1,-1.352723956E0
9.243183100E0,-8.140285611E-1,-1.675043297E1,1.896207690E0
9.248184000E0,2.415749550E0,-1.751657867E1,3.998316765E0
9.253184000E0,4.532223701E0,-1.799541855E1,4.297592163E0
9.258184866E0,5.542876244E0,-1.791641045E1,3.057395458E0
9.263185766E0,5.533299446E0,-1.739447403E1,1.462857246E0
9.268185766E0,5.404012680E0,-1.644876480E1,3.351882473E-2
9.273186466E0,4.833893299E0,-1.538094997E1,-1.041477680E0
9.278186466E0,4.314351559E0,-1.441578770E1,-1.551442742E0
9.283186466E0,3.866635799E0,-1.342458820E1,-1.685518026E0
9.288187099E0,3.852270603E0,-1.279970169E1,-1.448492050E0
9.293187065E0,3.665522814E0,-1.182765579E1,-1.175553083E0
9.298187431E0,2.873042107E0,-1.156668758E1,-1.611297727E0
9.303187831E0,2.324769735E0,-1.175582981E1,-2.284068346E0
9.308188764E0,2.636016130E0,-1.227776527E1,-2.887407303E0
9.313188797E0,3.064578056E0,-1.309179401E1,-3.258508444E0
9.318188830E0,3.883395195E0,-1.395849514E1,-3.114856482E0
9.323188830E0,5.559635639E0,-1.507449245E1,-2.530671120E0
9.328188830E0,6.668150902E0,-1.586697292E1,-2.149993181E0
9.333188796E0,8.131008148E0,-1.709280396E1,-1.620874524E0
9.338188096E0,8.988132477E0,-1.827793503E1,-1.295263171E0
9.343188096E0,9.364022255E0,-2.005203819E1,-6.464344263E-2
9.348187562E0,9.766247749E0,-2.141433907E1,3.591302633E-1
9.353187595E0,1.042704773E1,-2.248694038E1,4.405331016E-1
9.358187595E0,1.060661316E1,-2.330097008E1,7.086837292E-1
9.363187595E0,1.041507626E1,-2.358109093E1,8.020575643E-1
9.368187595E0,9.723152161E0,-2.336561203E1,1.007958889E0
9.373187595E0,8.877999306E0,-2.276706314E1,1.345541358E0
9.378187595E0,8.621819496E0,-2.134730148E1,2.018311977E0
9.383187561E0,8.202834129E0,-1.923800850E1,2.717418909E0
9.388187561E0,8.016086578E0,-1.783021927E1,2.669534922E0
9.393187561E0,7.522881031E0,-1.469620895E1,2.293645144E0
9.398187594E0,7.197269440E0,-1.236635113E1,1.900996208E0
9.403188260E0,6.208464146E0,-1.028818417E1,1.163581967E0
9.408188260E0,4.769249916E0,-8.712799072E0,3.734954596E-1
9.413188226E0,3.493140221E0,-7.565976620E0,-2.825157940E-1
9.418127262E0,1.948880196E0,-6.735188484E0,-4.165911078E-1
9.423127262E0,9.145850539E-1,-6.462249756E0,-6.919242740E-1
9.428127295E0,4.572925270E-1,-6.282684326E0,-6.009446383E-1
9.433127295E0,1.843535304E-1,-6.435913563E0,-5.410895944E-1
9.438127295E0,-1.340752989E-1,-6.459855556E0,-5.554547906E-1
9.443127295E0,-2.154781483E-2,-6.050446987E0,-1.412578970E-1
9.448127295E0,-1.077390760E-1,-6.076783180E0,-4.237737060E-1
9.453127295E0,1.005564705E-1,-6.050446987E0,-7.541735172E-1
9.458127261E0,3.639186621E-1,-5.839757442E0,-1.101332784E0
9.463127261E0,9.935936928E-1,-5.454290867E0,-1.374271750E0
9.468127261E0,1.175553083E0,-5.219658852E0,-1.532289028E0
9.473127294E0,1.240196466E0,-5.111919880E0,-1.936909199E0
9.478127327E0,1.221042871E0,-4.963479519E0,-2.382230759E0
9.483127327E0,1.304839969E0,-4.613626480E0,-2.760514498E0
9.488127993E0,1.596932530E0,-4.230554581E0,-3.047818661E0
9.493127959E0,1.826775908E0,-3.866635799E0,-3.138798475E0
9.498128525E0,1.989581585E0,-3.734954596E0,-3.119644880E0
9.503128525E0,2.140416384E0,-3.213018656E0,-2.741360903E0
9.508128558E0,2.274491549E0,-2.952050686E0,-2.693476915E0
9.513128558E0,2.398990154E0,-2.700659513E0,-2.537853718E0
9.518128558E0,2.446874142E0,-2.276885748E0,-2.288856745E0
9.523128558E0,2.621650934E0,-1.742978811E0,-2.130839586E0
9.528128558E0,2.755726099E0,-1.362300754E0,-1.984793186E0
9.533128558E0,2.710236311E0,-7.565677166E-1,-1.733402014E0
9.538128524E0,2.341529369E0,-3.280056417E-1,-1.525106430E0
9.543128524E0,2.312798738E0,-1.675941236E-2,-1.551442742E0
9.548128524E0,2.303221941E0,2.442085743E-1,-1.407790542E0
9.553128557E0,2.140416384E0,4.309563041E-1,-1.343147159E0
9.558128557E0,1.922544003E0,6.751648784E-1,-1.374271750E0
9.563128557E0,1.771709204E0,9.983820915E-1,-1.201889277E0
9.568128523E0,1.721431017E0,1.240196466E0,-1.000776291E0
9.573128523E0,1.637633920E0,1.757344007E0,-7.374141216E-1
9.578128523E0,1.592144132E0,2.274491549E0,-4.812345505E-1
9.583128556E0,1.379060149E0,2.791639090E0,-3.208230138E-1
9.588128556E0,1.151610970E0,3.074155092E0,-6.895300746E-1
9.593128556E0,1.010353088E0,3.385401249E0,-8.547300100E-1
9.598128556E0,8.331822157E-1,3.440467834E0,-5.746083856E-1
9.603128556E0,6.991068721E-1,2.896984100E0,7.972691655E-1
9.608128556E0,5.003881454E-1,2.039859772E0,1.857900500E0
9.613128522E0,-8.140286058E-2,2.082955539E-1,2.913743496E0
9.618128488E0,-9.983820915E-1,-1.984793186E0,3.833117008E0
9.623128488E0,-1.951274395E0,-4.968267918E0,4.716577530E0
9.628128488E0,-2.312798738E0,-6.754342079E0,4.953902721E0
9.633128521E0,-2.691082716E0,-9.737517357E0,6.014533997E0
9.638128521E0,-2.863465309E0,-1.195454884E1,7.448660851E0
9.643128521E0,-2.738966703E0,-1.444212437E1,9.136572838E0
9.648128487E0,-3.095702887E0,-1.756925011E1,1.183483791E1
9.653129287E0,-3.155557871E0,-2.151729012E1,1.563473606E1
9.658129253E0,-1.824381709E0,-2.560449028E1,1.877832222E1
9.663129253E0,2.298433632E-1,-3.116861534E1,2.016695976E1
9.668129286E0,2.221819162E0,-3.339043427E1,2.089719009E1
9.673129319E0,3.268085241E0,-3.290201569E1,1.916618347E1
9.678129352E0,1.273715258E0,-2.846556091E1,1.601301956E1
9.683129352E0,-9.911994934E-1,-2.189078522E1,1.356824017E1
9.688129352E0,-2.626439333E0,-1.667142487E1,1.204792213E1
9.693129318E0,-3.811569214E0,-1.149246788E1,1.334079075E1
9.698129318E0,-4.769249916E0,-7.273883820E0,1.484943771E1
9.703128718E0,-3.509899616E0,-4.252102375E0,1.517744350E1
9.708128584E0,-2.370259762E0,-3.567360640E0,1.427213573E1
9.713128584E0,-1.951274395E0,-3.239354849E0,1.280209541E1
9.718128584E0,-2.387019157E0,-3.950432777E0,1.218199730E1
9.723128550E0,-1.058237195E0,-6.268319130E0,8.794201851E0
9.728128516E0,8.044517636E-1,-8.863634109E0,3.878606796E0
9.733128482E0,2.746149302E0,-1.144458294E1,-1.398213744E0
9.738128482E0,4.022258759E0,-1.382202530E1,-7.362469673E0
9.743128482E0,4.711789131E0,-1.588373280E1,-1.290504646E1
9.748128515E0,5.672163010E0,-1.772487450E1,-1.503857899E1
9.753128548E0,7.364863873E0,-1.851496124E1,-1.376456451E1
9.758128581E0,1.027621269E1,-1.730828285E1,-5.621884823E0
9.763128581E0,1.192342377E1,-1.452352715E1,7.027281284E0
9.768128581E0,1.073589993E1,-1.331684875E1,1.196412563E1
9.773128547E0,6.146214962E0,-1.224424648E1,1.321629238E1
9.778128547E0,4.235342979E0,-1.118840408E1,9.773430824E0
9.783128547E0,5.109525681E0,-9.040804863E0,2.844311714E0
9.788128580E0,7.151779652E0,-6.514922142E0,-7.254431248E-1
9.793128580E0,8.856451035E0,-4.534617901E0,2.786850691E0
9.798128580E0,1.053478718E1,-3.359065056E0,9.529222488E0
9.803127746E0,1.075505352E1,-3.136404276E0,5.176563263E0
9.808127746E0,9.787796021E0,-3.078943491E0,-9.145850539E-1
9.813127746E0,8.013691902E0,-2.671929121E0,-6.469432354E0
9.818127046E0,6.268319130E0,-2.772485495E0,-7.510910034E0
9.823127046E0,3.627215624E0,-4.242525578E0,-8.348880768E0
9.828127046E0,2.738966703E0,-5.480627060E0,-8.557176590E0
9.833127079E0,2.779668093E0,-6.356904984E0,-7.525275230E0
9.838127079E0,3.375824451E0,-7.058405876E0,-5.320215225E0
9.843127079E0,4.704606533E0,-8.420706749E0,-2.865859509E0
9.848127045E0,5.557241440E0,-9.548376083E0,-1.848323703E0
9.853127745E0,6.689698696E0,-1.112376022E1,-1.007958889E0
9.858127878E0,7.740753174E0,-1.263928986E1,-7.062895298E-1
9.863127878E0,8.037634850E0,-1.423382854E1,-6.847416759E-1
9.868127878E0,7.542034626E0,-1.464323711E1,-7.182605267E-1
9.873127911E0,6.783072472E0,-1.461450672E1,-7.972691655E-1
9.878127944E0,5.746383190E0,-1.410933018E1,-8.978256583E-1
9.883127977E0,4.692635536E0,-1.329530144E1,-8.810662031E-1
9.888127977E0,3.962403774E0,-1.234001446E1,-7.948749661E-1
9.893127977E0,3.145981073E0,-1.133923817E1,-4.884171486E-1
9.898127943E0,2.391807556E0,-1.045577812E1,-2.753331959E-1
9.903127943E0,1.426944256E0,-9.790189743E0,-1.077390760E-1
9.908127943E0,1.170764685E0,-9.596260071E0,-7.182604820E-2
9.913127976E0,9.816226959E-1,-9.505280495E0,-7.182605099E-3
9.918127976E0,7.398083210E-1,-9.670479774E0,-4.788403399E-3
9.923127976E0,5.339069963E-1,-9.902717590E0,1.005564705E-1
9.928127942E0,6.464344263E-2,-1.025227070E1,4.381389022E-1
9.933127908E0,-1.151610970E0,-1.078617764E1,2.269703150E0
9.938127874E0,-2.604891539E0,-1.155232239E1,4.153939724E0
9.943127874E0,-3.936067581E0,-1.283561420E1,4.264073372E0
9.948127907E0,-4.563348293E0,-1.357781696E1,3.450044632E0
9.953127940E0,-4.699818134E0,-1.410693550E1,2.513911724E0
9.958127973E0,-4.242525578E0,-1.372625732E1,1.441309452E0
9.963127973E0,-2.861071110E0,-1.212453651E1,9.457096457E-1
9.968128639E0,-1.292868972E0,-1.054915237E1,1.422155857E0
9.973128605E0,-5.746084079E-2,-9.081506729E0,1.941697598E0
9.978128571E0,7.493851185E-1,-7.810185432E0,2.231395960E0
9.983128571E0,1.453280449E0,-6.969820499E0,2.260126352E0
9.988128604E0,1.929726601E0,-6.313809395E0,2.003946781E0
9.993128637E0,2.061407566E0,-5.813420773E0,1.558625340E0
9.998128637E0,2.003946781E0,-5.384859085E0,9.265560508E-1
1.000312850E1,2.248155355E0,-4.845864296E0,2.202665508E-1
1.000812850E1,2.319981337E0,-4.604049683E0,-1.244984865E-1
1.001312850E1,2.444479942E0,-4.410119534E0,-6.727706790E-1
1.001812850E1,2.700659513E0,-4.235342979E0,-1.048660398E0
1.002312847E1,2.772485495E0,-4.108449936E0,-1.477222443E0
1.002812847E1,2.892195702E0,-4.067748547E0,-1.491587639E0
1.003312847E1,3.021482468E0,-3.936067581E0,-1.465251446E0
1.003812850E1,3.402160645E0,-3.931279182E0,-1.704671621E0
1.004312850E1,3.576937437E0,-3.957615376E0,-2.001552582E0
1.004812850E1,3.442862034E0,-4.012681961E0,-2.039859772E0
1.005312854E1,3.675099611E0,-4.204218388E0,-2.154781580E0
1.005812967E1,3.737348795E0,-4.501099110E0,-2.288856745E0
1.006312967E1,3.622427225E0,-4.951508522E0,-2.468421936E0
1.006812903E1,3.435679436E0,-5.248389244E0,-2.195482969E0
1.007312813E1,3.155557871E0,-5.454290867E0,-2.013523579E0
1.007812747E1,3.629609823E0,-5.447108269E0,-1.896207690E0
1.008312657E1,4.115632534E0,-5.574000835E0,-1.278503656E0
1.008812567E1,4.469974518E0,-5.813420773E0,-1.316810995E-1
1.009312500E1,4.896441936E0,-6.457461357E0,2.030282974E0
1.009812407E1,5.700893402E0,-7.405565262E0,5.279513836E0
1.010312337E1,5.648221016E0,-8.913911819E0,8.868422508E0
1.010812247E1,4.917989731E0,-9.787796021E0,9.368810654E0
1.011312160E1,2.925714493E0,-1.042225933E1,6.941090107E0
1.011812097E1,1.472434044E0,-1.052999878E1,3.821146011E0
1.012312096E1,-1.005564705E-1,-1.059224796E1,1.436520964E-1
1.012812030E1,-7.661445141E-1,-1.070238113E1,-2.248155355E0
1.013312026E1,-1.244984865E0,-1.091785908E1,-3.859453201E0
1.013812026E1,-2.075772762E0,-1.158344746E1,-4.151545525E0
1.014311980E1,-3.574543238E0,-1.283800888E1,-2.454056740E0
1.014811916E1,-4.553771496E0,-1.349641418E1,-1.142034173E0
1.015311916E1,-5.856516838E0,-1.383399677E1,5.913678408E-1
1.015811883E1,-6.622661114E0,-1.348204899E1,1.699883223E0
1.016311883E1,-6.919542313E0,-1.262971306E1,2.698265314E0
1.016811883E1,-6.967426300E0,-1.173906994E1,3.236960649E0
1.017311883E1,-7.463026047E0,-1.129853725E1,3.093308687E0
1.017811880E1,-8.207622528E0,-1.124107647E1,2.365471363E0
1.018311880E1,-8.499714851E0,-1.140867043E1,1.103726983E0
1.018811840E1,-7.477391243E0,-1.154035187E1,6.057330370E-1
1.019311843E1,-4.920383930E0,-1.161935997E1,2.130839527E-1
1.019811843E1,-2.777273893E0,-1.191863537E1,2.777273953E-1
1.020311836E1,-1.187524080E0,-1.248606110E1,8.116343617E-1
1.020811719E1,-9.169792533E-1,-1.270153904E1,1.007958889E0
1.021311719E1,-1.106121182E0,-1.260577106E1,1.628057212E-1
1.021811786E1,-2.463633537E0,-1.255070496E1,-1.422155857E0
1.022311879E1,-4.352658749E0,-1.274702930E1,-2.667140722E0
1.022811949E1,-4.711789131E0,-1.340782833E1,-3.299209833E0
1.023312039E1,-4.572925091E0,-1.404229259E1,-2.758120298E0
1.023812129E1,-3.892971992E0,-1.501224327E1,-8.906430602E-1
1.024312196E1,-1.438915253E0,-1.628595924E1,1.829170108E0
1.024812286E1,6.272808313E-1,-1.674325180E1,2.470816135E0
1.025312286E1,3.768473387E0,-1.693478775E1,2.413355350E0
1.025812372E1,4.465186119E0,-1.691323853E1,1.400607944E0
1.026312463E1,4.359841347E0,-1.646791840E1,-5.027823523E-2
1.026812529E1,4.443638325E0,-1.574965763E1,-1.221042871E0
1.027312532E1,4.778826714E0,-1.487337971E1,-1.522712231E0
1.027812599E1,4.783615112E0,-1.369513321E1,-1.541865945E0
