Time (s),Acceleration x (m/s^2),Acceleration y (m/s^2),Acceleration z (m/s^2)
6.004728586,-0.17762949139196824,0.1658923521193698,0.2434472805291398
6.009727952,-0.2856100992622275,0.22928652052497225,0.5953935944529146
6.014727985,-0.38930018068261346,0.2879109066808247,0.9217044401015624
6.019727985,-0.48483820270505446,0.3376189381463718,1.1996010160290116
6.024727785,-0.5686054958134514,0.37471826534557706,1.4105115872233838
6.029727085,-0.6373761981221479,0.39619357791492443,1.541658808236475
6.034726685,-0.6885076130678905,0.39993254801516565,1.5871363205601017
6.039726685,-0.7201574722988783,0.38493556107960347,1.548369154910565
6.044726718,-0.7315004524318094,0.35148021869974355,1.4339058017904143
6.049726718,-0.7229074176768842,0.30120753553233187,1.2585520593680661
6.054726951,-0.6960492913550024,0.23710025538437673,1.0419215874615033
6.059726951,-0.6538935324449939,0.16333470191447128,0.806538361915942
6.064726951,-0.6005736710145057,0.08500405512199512,0.5756751024983651
6.069726884,-0.5411289834532103,0.007729674744164385,0.37114339980884864
6.074727517,-0.4811295397245436,-0.06280548013199298,0.21126130292026576
6.079727517,-0.4262189986088915,-0.12135422454237582,0.10921002780587438
6.084728183,-0.3816214095694205,-0.16357954983883563,0.07195297368861726
6.089729116,-0.35166693754908157,-0.18645287206545355,0.09982987033818946
6.094729782,-0.3393932348310206,-0.18853045708238722,0.18686219961023567
6.099730682,-0.34627309419268054,-0.17007561351175138,0.32172173378710833
6.104731548,-0.37210497795242803,-0.13301152226823096,0.48923322490050486
6.109732414,-0.4150823882203088,-0.08070887546285727,0.672216967559036
6.114733047,-0.4720337030845266,-0.017631719166418185,0.8534377657829384
6.119733047,-0.5388000200001728,0.051118154251188236,1.0174204464418846
6.124733947,-0.6106989088842053,0.12030543468150487,1.1519194288039403
6.129734313,-0.6830102244768367,0.18505525349856058,1.2488860169699656
6.134901035,-0.7514182259754114,0.2412795918276304,1.3048524736585532
6.139901735,-0.8123523930367285,0.28598820494251415,1.3207345704767919
6.144902635,-0.863186101284283,0.3174520039394719,1.301132067677239
6.149902635,-0.902275192719871,0.33520706135957845,1.2532690167484783
6.154903268,-0.9288442619324057,0.3399093190603649,1.18575518667195
6.159903934,-0.9427536195902926,0.3330708240163586,1.1073617382159635
6.164903934,-0.9442005883097571,0.31672497116637927,1.0259873513126518
6.169903967,-0.9334212233677035,0.2930778871744985,0.9479478319150999
6.174904167,-0.9104595558817165,0.26420331947317954,0.8776591330138289
6.179904833,-0.8750595427433823,0.2318282341331661,0.8177107943149774
6.184905199,-0.8267112524307451,0.19723725157562108,0.7692568229919023
6.189905165,-0.7648514519780175,0.16130001386519038,0.7325971970453776
6.194905131,-0.6891857379128147,0.12460177649671159,0.7077958813601156
6.199905131,-0.6000712656313462,0.08763868015394119,0.6951853615565083
6.204904931,-0.49888163578277667,0.051028390585313305,0.6956413590338402
6.209904964,-0.3882722333738022,0.015685316491422623,0.7105666661713587
6.214904997,-0.2722763312552454,-0.01708295975693522,0.7415880264998091
6.219905063,-0.15618792074332302,-0.045586691510566886,0.7900316272268733
6.224905063,-0.04622243758729321,-0.06788161314738765,0.8562895661467574
6.229905029,0.05101473782279335,-0.08200130694187571,0.9392135718225959
6.234905029,0.12918710929298907,-0.08626269536692269,1.0356698906608517
6.239905029,0.182923942643758,-0.07959740729111131,1.1403622821050814
6.244905062,0.20845708666256368,-0.06185224909553575,1.2459847336076781
6.249905095,0.2041078874875599,-0.0340005601218219,1.3437110641391996
6.254905095,0.17055744289295907,0.001785497353903357,1.4239750571538035
6.259905095,0.11086612711661266,0.042233137288053564,1.4774508460912903
6.264905095,0.030243857263769852,0.08324201200095248,1.4961148414875396
6.269905761,-0.06439552349147368,0.1203054469972446,1.47425995199567
6.274905761,-0.1650389575482833,0.1490246348389278,1.4093393217016794
6.279905727,-0.26326866367765045,0.16564135735181634,1.3025368427884465
6.284905727,-0.35097524320892787,0.1675097442833177,1.1589905129453943
6.289905727,-0.42102479046660696,0.15343804018966645,0.9876276434763782
6.29490576,-0.46782697599192247,0.12385469240090109,0.8006048220283818
6.29990576,-0.4877642984000713,0.08078332639688222,0.6123791744298734
6.30490576,-0.47945513431113645,0.027640918098956243,0.43847087890073394
6.309905726,-0.4438339650335119,-0.03110375483247256,0.2940099405534186
6.314905726,-0.38404196347129005,-0.0903620071838016,0.19219140230829268
6.319905726,-0.30513174500443924,-0.14489617973826152,0.14278895958915483
6.324905759,-0.21360312014894137,-0.18978389507648177,0.15089220989841803
6.329905759,-0.1168023806145561,-0.22083925564181509,0.21603172743132273
6.334905759,-0.02223444027610872,-0.2349645201793011,0.33183399032555994
6.339905759,0.06314782922224897,-0.23041431887292915,0.48630279350535177
6.344905759,0.13360275183220824,-0.20696072130136153,0.6627571080870424
6.349905759,0.18513123512846996,-0.1659513963284884,0.8413740012683242
6.354905725,0.21581248176901216,-0.11025529756492852,1.0012000210680752
6.359905725,0.2258956279699736,-0.04409200800180642,1.1224188483505952
6.364905725,0.217628477357263,0.027256062332785047,1.1886107700753623
6.369905758,0.19484057322947648,0.09784291643653752,1.1887218651034714
6.374905791,0.16233467326723802,0.16155262004781692,1.1184836115255161
6.379905791,0.12517132100561673,0.21265482770787297,0.9810854666795645
6.384905757,0.0879492761574513,0.2463730568898252,0.7869949791481564
6.389905723,0.0541860160668716,0.25940362033550124,0.5529280325931599
6.394905689,0.025886701451339873,0.2503183173400978,0.3000797712107164
6.399905655,0.0033598019427656008,0.2197899887272515,0.051819648763436706
6.404905655,-0.01470133471079783,0.17059701262980265,-0.16887972625187053
6.409905021,-0.030892289599839428,0.1073886947267016,-0.34197792059135595
6.414904387,-0.04858358634690086,0.03622467639505842,-0.4525684504648146
6.41990442,-0.07130088190079219,-0.036066558854272526,-0.49248904701838786
6.42490442,-0.10209300489561479,-0.1026370953653044,-0.4611531143630148
6.42990442,-0.1429791204188242,-0.1573846682553681,-0.36550885291897134
6.434904386,-0.19455137983609894,-0.19563425675499618,-0.2191386560260296
6.439904386,-0.2557851021530723,-0.21464455445493574,-0.04061673874913955
6.444904386,-0.32407865518137696,-0.21386960705390606,0.14866656943082665
6.449904419,-0.395513651633532,-0.1949396808499629,0.32694271774146005
6.454904419,-0.4652966521980387,-0.16136611416949137,0.47446806879372677
6.459904419,-0.5283199647712875,-0.11801588999418644,0.5756097412863931
6.464904385,-0.5797646164434372,-0.07043582791545396,0.6203827056885893
6.469904351,-0.6156653823584959,-0.024127382717354713,0.6052849712212578
6.474904317,-0.6333663642555744,0.01612294857315617,0.5333701828386197
6.479904317,-0.6318143035263524,0.04676633775377449,0.4135899179098329
6.48490435,-0.61166183290126,0.06580458785828128,0.2595196486875114
6.489904383,-0.5751793292645522,0.07286744208021285,0.0876443495206155
6.494904416,-0.5259972943659517,0.06906631399601502,-0.08458262576102513
6.499904449,-0.4687181502580543,0.05666852707112043,-0.24068203837468133
6.504904449,-0.4084459746787703,0.03865730665357143,-0.36688048336101936
6.509904415,-0.3502857879983994,0.018250983766528367,-0.45345428832455026
6.514904381,-0.2988621983466235,-0.0015491963427624472,-0.4955606715568014
6.519904381,-0.2579020907796679,-0.01832686311284834,-0.49349394597396107
6.524904381,-0.22991851733790417,-0.030497344588389957,-0.452370360619279
6.529904414,-0.21602325550809867,-0.03741783959291185,-0.3813064823251113
6.534904414,-0.2158836698233391,-0.03936445774061825,-0.29220631720724843
6.539904414,-0.22782582347916833,-0.037394956947607555,-0.19830713421954838
6.544904414,-0.24907112744099816,-0.03312632262284489,-0.11265098926519551
6.549904414,-0.27607968498129093,-0.028461555255008913,-0.04664818729956914
6.554904414,-0.3049617139872603,-0.025300836653850647,-0.008881895712993011
6.559905047,-0.3319106981875327,-0.025269724981977257,-0.004272400504147685
6.564905713,-0.35360942952804836,-0.02949232297217357,-0.03367828676762362
6.569905713,-0.3675634057419662,-0.03843135674192484,-0.09396388407765374
6.574905746,-0.3723249705287061,-0.051810276623366895,-0.1785119813306401
6.579905746,-0.36758516641956085,-0.06862496481168665,-0.2781128868135766
6.584905746,-0.35412677088735983,-0.08724438695204792,-0.3821203181788351
6.589905712,-0.3336491413981233,-0.10559069923459422,-0.47973593178612683
6.594905712,-0.3084909879306712,-0.1213804346452779,-0.5612711776479388
6.599905712,-0.28128908509863304,-0.1324003693131027,-0.6192396431749613
6.604905745,-0.25461786589931523,-0.13678576638548903,-0.6491550946548941
6.609905745,-0.23065601578746714,-0.1332662815920007,-0.6499477588045777
6.614905745,-0.21092142812509398,-0.12134698753950703,-0.6239596039380657
6.619905745,-0.19610576332600424,-0.10139907381866502,-0.5765323374168526
6.624905745,-0.1860257795539765,-0.0746461197679236,-0.5152523632906051
6.629905745,-0.17969262793845467,-0.043045815783956755,-0.4489579677769342
6.634905711,-0.175484756035018,-0.009081480437186387,-0.38663989108882857
6.639905677,-0.1713971490836402,0.024509621502549046,-0.33637410537414414
6.644905677,-0.16533110910201954,0.05503541533699051,-0.3044149168284071
6.649905677,-0.15538560710528704,0.08013656196410882,-0.2945500262501669
6.65490571,-0.14011348885597555,0.0980260828997373,-0.3077814834470419
6.65990571,-0.11871266895440677,0.10765289058920834,-0.3423531632221116
6.66490571,-0.09113253628100297,0.10877300647529352,-0.39410221509518706
6.669905676,-0.05808747698993088,0.10192572465218087,-0.45707405726855
6.674905676,-0.02098109340702666,0.08832465422456859,-0.524311994327841
6.679905676,0.018244984474079594,0.06968362119979228,-0.5887162154226576
6.684905709,0.057315824094371304,0.04800375309176055,-0.643864138409513
6.689905709,0.09385462511382454,0.025350359166920147,-0.6846946938733635
6.694905709,0.12561250290092424,0.0036466693257717975,-0.7079815657556787
6.699905709,0.15067025723706207,-0.015493293249347633,-0.7125515574639785
6.704905709,0.1675910262836894,-0.0308775694925207,-0.6992398708315769
6.709905709,0.17551055353253192,-0.04178810866572014,-0.6706091508597567
6.714905675,0.17416106657704913,-0.047973317081821565,-0.6304885957041092
6.719905675,0.16383406841291545,-0.049590466144214064,-0.5834090805111443
6.724905675,0.1452952142497996,-0.04711268820844511,-0.5340176541970776
6.729905708,0.11966968009893891,-0.04121844493547878,-0.48654963847112065
6.734905708,0.08831829228678321,-0.032681771431617525,-0.4444206129214379
6.739905708,0.05272303570508939,-0.022279217287593512,-0.40997710245446534
6.744905674,0.014395877262884453,-0.010724571597795395,-0.38441800566559653
6.74990564,-0.02518181199876427,0.0013639516211908587,-0.36787308424411025
6.754905606,-0.06458917564054001,0.013466132826168084,-0.3596039473998187
6.759905606,-0.10247146519886013,0.02513966873934965,-0.35827951884427695
6.764905606,-0.1375320978724613,0.0359894588171548,-0.36227317065062675
6.769905639,-0.16852381966240937,0.04563956452657179,-0.36993240808263156
6.774905672,-0.19425071087313192,0.05371972390079621,-0.37978288903890933
6.779905705,-0.2135894700225362,0.05987411732386735,-0.3906444146832073
6.784905705,-0.2255334723455557,0.06379390968598095,-0.401654462742172
6.789905705,-0.2292574976611749,0.06526833560870782,-0.41221180109189076
6.794905671,-0.22419579402824905,0.0642433944924239,-0.4218659957272092
6.799905671,-0.2101222396044638,0.06087397613971527,-0.43018628861414465
6.804905671,-0.18721948621571358,0.05555520893594785,-0.4366445296563359
6.809905704,-0.1561243964526209,0.04892199387076647,-0.4405418906971917
6.814905704,-0.11793962584682757,0.04181133717863932,-0.44099920328778597
6.819905704,-0.0742052828435156,0.035189021293297935,-0.4370178356679912
6.82490567,-0.026829469784932655,0.03004894282187427,-0.42760426958859604
6.829905636,0.022018586524676306,0.027298717961945447,-0.4119391575160737
6.834905602,0.07004478945739318,0.027647847082052573,-0.3895625245396732
6.839905602,0.11498447936049824,0.031514382943487164,-0.36054224400774376
6.844905635,0.15476139472008285,0.038962945425519424,-0.3255935458601415
6.849905668,0.18763719058911063,0.049681960001612874,-0.28612294363919344
6.854905701,0.2123381186964036,0.06300231854361608,-0.24417977868583893
6.859905701,0.22814747427611357,0.07795431707475188,-0.20231128399697212
6.864905701,0.2349554547268505,0.09335544174314825,-0.16333103077308597
6.869905667,0.23326180759289133,0.10791871575692001,-0.13002400238717612
6.874905633,0.2241307241481098,0.12036996225532713,-0.10482249506069129
6.879905633,0.20910154733970332,0.12956237186371738,-0.08949392713566492
6.884905666,0.19006272127420548,0.13457796262134533,-0.08488322006331171
6.889905699,0.16909973729765188,0.13480756024062546,-0.09074809241674295
6.894905699,0.14833034813479534,0.13000341642864405,-0.10571559243628384
6.899905699,0.1297417365610587,0.12030115152564436,-0.12737357858597734
6.904905699,0.11504437048640168,0.10621010704333762,-0.15249352207948538
6.909905699,0.10555577058886653,0.08857332993220529,-0.17736333439891178
6.914905699,0.102124339736893,0.06850030073280095,-0.19819340221052462
6.919905665,0.10509896190089953,0.047277232365786494,-0.21154784407904423
6.924904765,0.1143447491584538,0.0262613802736607,-0.2147478163116303
6.929904098,0.1292998333024169,0.006767339655549509,-0.2061953430448558
6.934903698,0.14906332874686407,-0.010045334451780309,-0.18557461157418814
6.939902798,0.1725013233098266,-0.023272906549600285,-0.15390209275943698
6.944901898,0.19835653029050815,-0.03234620092539109,-0.11341558936138584
6.949901198,0.22534828736342505,-0.03707789202906722,-0.06731310180812933
6.954900298,0.2522527508224573,-0.03767146568126027,-0.019372499550246922
6.959899631,0.2779577979413279,-0.03468903212397273,0.026500457441113144
6.964898764,0.3014923534724577,-0.028980348849223982,0.06673775497841326
6.969898764,0.3220345392790214,-0.021580884480320164,0.09852790797951218
6.974898097,0.3389063294322894,-0.013591490470809138,0.1201334306032012
6.979897197,0.3515637452895699,-0.006055250889523589,0.13106640299068903
6.984896297,0.359590913945439,0.0001523484048509708,0.1321012067003003
6.989895897,0.36270379279080783,0.004405857284648267,0.12512599556669457
6.99489533,0.360765612922733,0.006375185285105883,0.1128564019997552
6.999895296,0.35381192282825047,0.006029917724798061,0.0984531260244147
7.004895296,0.34207943134368357,0.003604947877893928,0.08509689501255661
7.009895062,0.32603048932212003,-0.00046474868061415755,0.07557833355726457
7.014895095,0.30636453748205683,-0.005628474333245157,0.0719562649811352
7.019895095,0.2840092362803687,-0.011309777577014223,0.075326798329996
7.024895095,0.2600868975505294,-0.016988841455906914,0.08572913550037316
7.029895061,0.2358556142822368,-0.022266305762440028,0.10219485682323928
7.034894661,0.21262841949184622,-0.02690114037529916,0.12292818787424263
7.039894661,0.1916772530979572,-0.030819632160426318,0.14558791219986225
7.044894694,0.1741310075535302,-0.03409717882886208,0.1676292254398837
7.049894694,0.16087821793596274,-0.03691867712493299,0.18665737907610847
7.054894694,0.15248503287185144,-0.03952616304436869,0.2007451723172644
7.059894694,0.14913805216141465,-0.042163536300317675,0.2086730976868719
7.06489486,0.15061958016566296,-0.04502758501044395,0.21006317191690704
7.06989486,0.15631995359685488,-0.04823242398738721,0.20539329314810767
7.074895726,0.16528802278161064,-0.05179143711336971,0.19589594452949902
7.079896392,0.17631683403823947,-0.055617512775639505,0.1833607339925563
7.084896825,0.1880574238146823,-0.05953937868546083,0.16987247399401656
7.089897758,0.19914988047109802,-0.06332968464717785,0.1575236859749179
7.094898658,0.20835805205841582,-0.06673949166242837,0.14814172545896706
7.099899324,0.21469304128848588,-0.06953402842459258,0.14306625719168056
7.10490019,0.2175112912489813,-0.07152558663391036,0.14300363329400612
7.109900856,0.21657567886661105,-0.07260062125494275,0.14797262061779945
7.114901756,0.212072331089481,-0.0727390102123208,0.15734290690122518
7.119901789,0.20458130869987004,-0.0720239088412142,0.16995572581063276
7.124902489,0.19500506896707195,-0.07064095463355205,0.18430619053437397
7.129903389,0.18446378239100827,-0.06886609495685,0.19876042494904567
7.134904289,0.17417027347233116,-0.06704224880247145,0.2117777479904176
7.139904689,0.16529905583690138,-0.0655463327547548,0.22210896759464363
7.144905222,0.15886361258600967,-0.06474961336869099,0.22894588434612728
7.149905222,0.1556141427615673,-0.06497557592728206,0.23200378845967418
7.154905188,0.15596506797593496,-0.06646031153669683,0.2315273667482649
7.159905454,0.15995822528499254,-0.06932069911902133,0.22822026973274903
7.164905454,0.16726420033952252,-0.07353526430970878,0.22310874105243994
7.169905487,0.17722082154575078,-0.07894140778623074,0.2173590712217911
7.174905487,0.18890452908231053,-0.08525073003134848,0.21207589091749443
7.179905487,0.20122727890066705,-0.09208167551880626,0.20811216518812273
7.184905853,0.21304903337150474,-0.09900605553130189,0.2059212193171469
7.189905819,0.22329401634708287,-0.10560358754071421,0.20547585455781886
7.194905785,0.2310581454667829,-0.11151678726806867,0.20627001633122713
7.199905785,0.2356957155497889,-0.11649771332550682,0.2074057957939336
7.204905818,0.23687558407148324,-0.12043848407250911,0.20775466467242326
7.209905851,0.23460063302356082,-0.12337934443875952,0.20616897323463546
7.214905717,0.22918877850636638,-0.12549134474732673,0.20171005768065267
7.219905717,0.22121870824697187,-0.127035061401195,0.19385461454951328
7.224905717,0.2114481128052336,-0.12830147999581726,0.18264242545296944
7.229905683,0.20071567964498424,-0.129545129068484,0.16873620251305513
7.234905683,0.1898399812266715,-0.13092181671225767,0.1533773172351673
7.239905683,0.17952836844095468,-0.13244329449846726,0.1382375369087372
7.244905716,0.1703071306508733,-0.13395876247598473,0.12518405921591394
7.249905749,0.16248078158206664,-0.13516868030679308,0.11599036871840682
7.254905749,0.15612385267002563,-0.1356705776645338,0.11203623993979188
7.259905715,0.15110367611601447,-0.1350304934229488,0.11404465088345836
7.264905681,0.14712808737067481,-0.1328685140712929,0.1219003738055433
7.269905647,0.14380854342901112,-0.12894370365824745,0.13458462001489335
7.274905613,0.140727469159952,-0.12322318426387145,0.15024361000622807
7.279905613,0.13749902531125974,-0.11592232830624669,0.16638869350492674
7.284905646,0.1338148023242366,-0.10750749402866773,0.18020478166937506
7.289905679,0.1294695974174587,-0.09865861813856891,0.18892579122972816
7.294905712,0.1243665822536177,-0.09019529323163734,0.19022367148366298
7.299905712,0.11850497040216991,-0.08297579346101322,0.1825536097102907
7.304905712,0.11195608383453826,-0.07778306087018884,0.1654029971015546
7.309905678,0.10483508702349666,-0.07521417973598,0.13940491471644945
7.314905678,0.09727548919920567,-0.07558977284008249,0.10629612465470814
7.319905678,0.08941198976594038,-0.07889692032453632,0.06872179691494892
7.324905711,0.08137478171772511,-0.08477412010919935,0.02991112810307608
7.329905711,0.0732956058815725,-0.09254047904115831,-0.006733526782319511
7.334905711,0.0653232503834804,-0.10126492381827054,-0.03807891082377403
7.339905711,0.05764423140348522,-0.10986579068496834,-0.06167451521766996
7.344905711,0.050503214194810325,-0.11722743108919587,-0.07608083860411279
7.349905711,0.04421729445681679,-0.12231885638895432,-0.08106631223375434
7.354905677,0.039178543910369734,-0.12430003099648443,-0.07764408148588967
7.359905677,0.03584036127697859,-0.1226040397375126,-0.06794117353498898
7.364905677,0.03468533630953023,-0.11698755372188,-0.05491540919200143
7.36990571,0.03617550274163135,-0.10754702275315717,-0.04195662986610681
7.374905743,0.040689617855249535,-0.09470280913604864,-0.03242534033601067
7.379905743,0.048455702783030144,-0.07915708458809896,-0.029191224710880023
7.384905709,0.059489582450680506,-0.06183316174219725,-0.03423472480251717
7.389905675,0.07355071601642775,-0.04380394334736705,-0.04836678075480901
7.394905641,0.09012465928819882,-0.02621568219512168,-0.07110594462559253
7.399905607,0.10843706952319096,-0.01021092804312603,-0.10073044693650089
7.404905607,0.12749810586289861,0.0031476024138422888,-0.13449843560689365
7.40990564,0.14617022323954976,0.012951251648348063,-0.16900644599309161
7.414905673,0.16324897785738576,0.018515285212016723,-0.20063825404771546
7.419905706,0.17754689432907747,0.019438620977956945,-0.2260460444784526
7.424905706,0.18797395281112064,0.015644406187615898,-0.2426032012736438
7.429905706,0.19361246496789045,0.007391679926282932,-0.24877164298188448
7.434905672,0.19378663730910775,-0.00474848516988784,-0.24433564715634948
7.439905672,0.18812685443812283,-0.019952462978627985,-0.23046847244477503
7.444905672,0.1766259506387087,-0.037231624145125354,-0.20961744984060038
7.449905705,0.1596807078581664,-0.055534207036260344,-0.18521600840336833
7.454905705,0.13810828420688445,-0.0738448139629399,-0.1612544037463138
7.459905705,0.11312614545841025,-0.09126576856973234,-0.14176108325989195
7.464905671,0.08628665792152707,-0.10706901132826331,-0.13026023468424625
7.469905637,0.05936376871983176,-0.12071391369068651,-0.12927579824618893
7.474905603,0.034197710142468585,-0.13183343877987938,-0.139947395344404
7.479905603,0.01251228441409054,-0.1401965625988095,-0.16181031528433593
7.484905636,-0.004273989601252513,-0.14565776108617123,-0.19277228490671444
7.489905669,-0.015218123370717589,-0.14810484155720852,-0.22929704997643346
7.494905702,-0.019979910438823217,-0.14741540629451735,-0.2667813291420387
7.499905735,-0.01888581379509594,-0.14343070537334404,-0.30008934976476664
7.504905735,-0.012916238691005121,-0.13595380954480799,-0.32418941961926223
7.509905701,-0.0036124177224767995,-0.1247762952652627,-0.3348213720327079
7.514905667,0.007090021211306956,-0.10973304732171717,-0.32911415259430027
7.519905667,0.017082980317646785,-0.0907782762942403,-0.30607146454956874
7.524905667,0.024336669525893237,-0.06806905173681894,-0.266852254663362
7.5299057,0.02714745767935695,-0.0420383145523804,-0.21479293040431155
7.5349057,0.024350631897686666,-0.013439544486481738,-0.1551485482394024
7.5399057,0.01547033770706113,0.01664990588341419,-0.0945671673277482
7.5449057,0.0007873431788326071,0.0468721437992625,-0.04034946714339671
7.5499057,-0.0186839448574922,0.07567608682195816,0.00042157056098571086
7.5549057,-0.04130624043237257,0.1014398355790305,0.021773773950932857
7.559905666,-0.06500406327219563,0.1226150863921692,0.019645970541292784
7.564905666,-0.08749944583297475,0.1378785685620441,-0.007513605611933162
7.569905666,-0.1065696101701764,0.14627469611010846,-0.05843722116984682
7.574905699,-0.12029528792919277,0.14733379368587463,-0.12906666372927195
7.579905699,-0.12727043123286558,0.14115157593606018,-0.21292774385588537
7.584905699,-0.12675009987132163,0.12841823090144824,-0.301810369044162
7.589905665,-0.11872214028239285,0.11038951467649481,-0.3866734728120152
7.594905665,-0.10389834467423863,0.08879773291084905,-0.4586647872870875
7.599905665,-0.08363057986011103,0.06570735554163536,-0.5101314250469107
7.604905698,-0.05976562203834017,0.043327791369813,-0.5354997405754979
7.609905698,-0.03445808101395059,0.023803160053829407,-0.5319209210187228
7.614905698,-0.00996318493685651,0.009003709793498727,-0.4996091431459269
7.619905698,0.011569612310503833,0.00034408559951197397,-0.4418371946183978
7.624905698,0.028284390777789156,-0.001350487863079051,-0.36459456013571395
7.629905698,0.03877431579900938,0.004083326924625412,-0.2759498823567536
7.634905664,0.04219555543962714,0.01614042994799652,-0.18518972223552585
7.63990563,0.03833350588277433,0.0337032984175826,-0.10182674430505248
7.64490563,0.027617818090201,0.05515155726304973,-0.03458212863341845
7.64990563,0.011084951546281308,0.0785129041368739,0.009551108532099515
7.654905663,-0.009710484490372765,0.10164190560200675,0.02606524305707075
7.659905663,-0.032831077965280245,0.1224129622886033,0.013434393884995649
7.664905663,-0.05612997130094217,0.13891371698990426,-0.02670450447640124
7.669905629,-0.07744873513663426,0.14962471603617067,-0.08970892312269478
7.674905629,-0.09482162880095285,0.15357026619351014,-0.16841300113721283
7.679905629,-0.10666497017694554,0.15042500680871912,-0.2538864243384988
7.684905662,-0.11192984130176084,0.14056189391507243,-0.3363909170916774
7.689905662,-0.11019907565846879,0.1250308739923672,-0.406433059944912
7.694905662,-0.10171540983156407,0.10546375348228568,-0.45580055960415633
7.699905662,-0.08733636946692934,0.08390937512562903,-0.4784693507499733
7.704905662,-0.0684217375969327,0.06261324888493705,-0.4712810405323091
7.709905662,-0.046669329730374416,0.04376543021022418,-0.43431321726924527
7.714905628,-0.023922052812431524,0.029247379283955644,-0.3708969602419673
7.719905628,-0.001972443179403165,0.020410945771706285,-0.287273437487936
7.724905628,0.01761012781527514,0.017919841299457524,-0.19192103489174672
7.729905661,0.03360903832854883,0.0216763692747101,-0.09462205834665355
7.734905661,0.04523364533388889,0.030844839094980547,-0.005369711759458355
7.739905661,0.052131991313859205,0.04396965859778194,0.0667621316053847
7.744905627,0.05434791046146413,0.05917276256310519,0.11465540487760156
7.749905593,0.05223518054070803,0.07440399320234282,0.13396697443188282
7.754905559,0.04634662199222918,0.08771081302049787,0.12363037139791187
7.759905559,0.03731819535245878,0.09749098068069825,0.08597744913966446
7.764905559,0.025766918259726847,0.10269385887505933,0.02646356300457308
7.769905592,0.012217002272513443,0.10294300057301539,-0.046971365747958176
7.774905625,-0.002938088393336624,0.09856411369603642,-0.12482899959765006
7.779905658,-0.019437336206312432,0.09051686622307697,-0.19715467001896678
7.784905658,-0.037123634274353494,0.0802437142526525,-0.2546842323354466
7.789905658,-0.05589501790098194,0.06946105304803944,-0.28990139347407395
7.794905624,-0.07564685491330689,0.05992497437306981,-0.2978847771238824
7.799905624,-0.09621495600432478,0.053204709132828015,-0.27685166108417153
7.804905624,-0.11732696499344926,0.050492336379923834,-0.2283425403564524
7.809905657,-0.13856658195143495,0.05246957683880792,-0.15703220593217188
7.814905657,-0.1593529619821809,0.059243293584808725,-0.0701941234336127
7.819905657,-0.1789363935171147,0.07035184045307684,0.023118395563158006
7.824905623,-0.19641113975660962,0.08483556127415427,0.11308173273315317
7.829905589,-0.2107467916088703,0.10135767262036639,0.19019116193281738
7.834905555,-0.2208399301825196,0.11835751505639178,0.2463122857364873
7.839905555,-0.22558757546310534,0.13421719630456222,0.2755833434974323
7.844905588,-0.22398229673229064,0.14742457648733387,0.2750742896632058
7.849905621,-0.21522577845198293,0.15671918546863053,0.24513470024567183
7.854905654,-0.19885324017424424,0.16121148751681613,0.189394593857444
7.859905654,-0.1748561229562276,0.16046875153967546,0.11441683091485758
7.864905654,-0.14378615180118623,0.15456243153842453,0.029033683858472766
7.86990562,-0.10682168204073968,0.14407310379944122,-0.056569351426916124
7.874905586,-0.06577811493474305,0.13005055363913387,-0.13193467400979808
7.879905586,-0.023048318449025874,0.11392895331494893,-0.1874733837959861
7.884905619,0.01853404253293345,0.09740002495051527,-0.21555149995305195
7.889905652,0.05590626173160892,0.08225043222125797,-0.21140735330157223
7.894905652,0.08605087206882692,0.07017364069927005,-0.17379559356359592
7.899905652,0.10630875148096629,0.06257144226781264,-0.1052730923115029
7.904905652,0.11469709313303555,0.06036575420125165,-0.012072317817343655
7.909905652,0.11019102907617616,0.06384551090563259,0.09645201285264705
7.914905652,0.09292578290599578,0.07257427879379622,0.20876939396890717
7.919905618,0.06428134462727488,0.08538012496786242,0.3124290050902619
7.924905618,0.026824122468720513,0.100440234263222,0.39549393599328214
7.929904951,-0.01590152766527175,0.11546020530837169,0.4479897639253186
7.934904317,-0.05971727211744183,0.12793400866667676,0.4631877180583706
7.939903417,-0.10025407578119476,0.13545739764443684,0.4385504688133353
7.944902517,-0.13344084213907698,0.13605692374919445,0.37620075474366726
7.949901817,-0.15597401885273102,0.12849023006669522,0.2828272923643188
7.954900917,-0.16570311662725634,0.11247253855731416,0.16901284005752548
7.959900983,-0.1618769252357233,0.08879034383133201,0.048046687989528526
7.964900349,-0.14521418188562413,0.05927633093342906,-0.06564331243166815
7.969899682,-0.11778761489061983,0.026638170509782302,-0.15824732395466828
7.974898782,-0.0827376746962291,-0.005844326226680283,-0.21829512917746338
7.979898115,-0.04385728984446875,-0.034717571856490374,-0.23811734753142702
7.984898115,-0.005107194123965471,-0.05679455912593516,-0.21484952965705092
7.989897448,0.029870325951031732,-0.0695743772770954,-0.1508383775654167
7.994896748,0.05817372622941881,-0.0715791761000066,-0.05338582003428456
7.999896048,0.07794641253024845,-0.06255826820330786,0.06614606168948822
8.004895381,0.0885266916489612,-0.04352853611087178,0.1937597465764155
8.009894747,0.09042926340994246,-0.01664463201896887,0.3145934797627073
8.01489478,0.085167483565884,0.015082075612250594,0.4148063037342518
8.01989478,0.0749476075956688,0.04817424756068745,0.4833269802065963
8.02489478,0.06228359201127393,0.0791314745404816,0.5132349091886115
8.02989468,0.049591056835369816,0.10486115452920818,0.5025918745180965
8.03489468,0.03882012601678823,0.12303688652371367,0.45461922522843246
8.03989468,0.031179029801776868,0.13233716391088604,0.3772045754529165
8.044894713,0.026985037781698484,0.13253743232637602,0.28181203089814805
8.049894713,0.02565911068658237,0.12445220460864657,0.18194753398936048
8.054894713,0.025858987952194497,0.10974658064219779,0.09138593653032288
8.059894713,0.025725869301540503,0.09065411965078038,0.022392523913185854
8.064894713,0.023205395597668873,0.06964779465522776,-0.015833165238418975
8.069894713,0.01639585066639868,0.049112042874343426,-0.018297330889445455
8.074894679,0.0038753562154721587,0.03105802751814795,0.015200703853064098
8.079895245,-0.01503564213278423,0.01691353550198503,0.08009746146001868
8.084895911,-0.0401110825181862,0.00740581735182005,0.16769621185407166
8.089896844,-0.0701765578986667,0.002541992701477053,0.26631138362988815
8.094897744,-0.10319269668222067,0.001678967265117395,0.36277671918497256
8.09989841,-0.136453770269896,0.0036646729604661423,0.4441253820985874
8.104899276,-0.16687624371392532,0.007026190509918786,0.4992320167944151
8.109899176,-0.19134170565420944,0.010178571271935262,0.5202143441398025
8.114899809,-0.20705331109486,0.011630453561363616,0.5034241285925116
8.119900475,-0.21186443534905963,0.01016738112911041,0.44990996100572567
8.124901375,-0.20454218624214737,0.004999158879759765,0.3653003840904508
8.129902075,-0.18493607547105384,-0.004138079942124933,0.25912695032239313
8.134902108,-0.15403263531345665,-0.01693196029002957,0.14367401590893994
8.139902808,-0.11388916417504422,-0.03250168314404561,0.032497657855397585
8.144903474,-0.06745309516136326,-0.04946719701217604,-0.06120597238389142
8.14990414,-0.018286286395360615,-0.06607922641159021,-0.12618648308976865
8.154904773,0.02977601432475906,-0.08040337494249063,-0.15449063813815703
8.159905439,0.07299517323279144,-0.09054414259983416,-0.14242100562832696
8.164905439,0.10808941474903333,-0.09488731019819471,-0.09099184790824806
8.169905472,0.13254697733122967,-0.09233278996912282,-0.005831873264262485
8.174904805,0.14485959146487268,-0.082486401301433,0.1034525684404416
8.179904871,0.1446516314079743,-0.0657801315653478,0.22437849148739422
8.184904837,0.13269111731421282,-0.0434972806667712,0.3430226553870863
8.189904803,0.1107816482187895,-0.017690698741178,0.44562513938885173
8.194904769,0.08154810208824488,0.009002842135349505,0.520171677009039
8.199904769,0.04814186084670042,0.03363369912296764,0.5577683766637873
8.204904802,0.013901265125048202,0.05326418994918578,0.553647433042921
8.209904835,-0.01799201168044544,0.06530717216327006,0.5076877899534306
8.214904868,-0.044820881289720206,0.06783616915432505,0.42439463899338253
8.219904868,-0.06457164277105196,0.05982864801398992,0.31234789996244317
8.224904868,-0.07608086625722073,0.041312565188773,0.18319340622826485
8.229904934,-0.07908068165554583,0.013398003281013903,0.05030314196473328
8.234904934,-0.07414634343556271,-0.021810885310591742,-0.07273373732023858
8.239904934,-0.06256165867965816,-0.06141478176260789,-0.17361261140282386
8.244904967,-0.04612600825580238,-0.10200742979470982,-0.2426376240340082
8.249905,-0.026930548986493368,-0.14002096442394338,-0.27372369493484655
8.254905,-0.007131015290836477,-0.1720886418037809,-0.26497260350919577
8.259905,0.01125882646046818,-0.19538263787334023,-0.21877080010214126
8.264905,0.026534482309557607,-0.20788801048200056,-0.14141196914216547
8.269905,0.037416637269889724,-0.20858319526798333,-0.04230024057963143
8.274905,0.04311004864940116,-0.19751065436559648,0.0671653297552449
8.279904966,0.04330608043902423,-0.17573587510656077,0.17489203206603643
8.284904966,0.038135409354801496,-0.14520643654243945,0.26943041349419955
8.289904966,0.028082569667660404,-0.10853349138867127,0.34119654271467736
8.294904999,0.013877668473710336,-0.06872447122974111,0.38344635166834845
8.299904999,-0.0036179649380669236,-0.02889767872517737,0.3929009242871604
8.304904999,-0.023516580786070433,0.007992747593060233,0.3699645930109238
8.309904965,-0.04498712543794141,0.039397993153860014,0.3185259216822948
8.314904931,-0.06730948727567813,0.06336467109661686,0.2453792415839971
8.319904897,-0.089897851329301,0.07866291507543148,0.15934603102577677
8.324905563,-0.11229542970212478,0.08484666128405409,0.07020668392791356
8.329905596,-0.13414585846362814,0.08224438995639996,-0.012429146801669922
8.334905629,-0.15514855984679743,0.07188245350943864,-0.08018320890028134
8.339905662,-0.17500670323078793,0.05534773961481336,-0.12678303991947912
8.344905662,-0.19337717322241404,0.034602113859904714,-0.14865939508559675
8.349905662,-0.20983212821230934,0.011767291140284146,-0.14521231838273893
8.354905628,-0.22384116979253335,-0.011095840940614195,-0.11873243679548039
8.359905628,-0.23478144827106232,-0.03218681953046031,-0.07400426806460815
8.364905628,-0.24197958432745834,-0.050119590825254835,-0.01765293611928582
8.369905661,-0.24478384672103032,-0.06401378577671145,0.042678990276968344
8.374905694,-0.24265839964433167,-0.07351735834819126,0.09922406599463252
8.379905694,-0.23528534881547641,-0.07876620086250886,0.14494998874597734
8.38490566,-0.22265651475616435,-0.08029504342828242,0.17429507652791448
8.389905626,-0.20513643430668946,-0.07891823260916704,0.183706670877652
8.394905592,-0.1834814670013483,-0.07559911569582439,0.1719361073611875
8.399905558,-0.15880681528159454,-0.07132397029285394,0.14007339910208988
8.404905558,-0.13250251151261191,-0.06699222169521883,0.09133405516096355
8.409905591,-0.10610884350481951,-0.06333043231647702,0.030636281848039876
8.414905624,-0.08116911724366682,-0.06083400180939777,-0.035973382471411144
8.419905657,-0.05908166130725908,-0.05973767745692908,-0.10197597339903951
8.424905657,-0.040972866884672395,-0.060013517441534235,-0.16104431051015755
8.429905657,-0.02760864982350417,-0.06139293744920201,-0.20764777597484985
8.434905623,-0.01935368277861419,-0.0634083031297794,-0.2375429450831371
8.439905623,-0.01617800374203562,-0.06544924683189313,-0.2481134784424592
8.444905623,-0.01770179536202448,-0.0668290504041166,-0.23854262274647242
8.449905656,-0.023263339763887024,-0.0668567821426013,-0.20982003677128425
8.454905656,-0.03199335249137498,-0.06491148813474454,-0.1645989052358788
8.459905656,-0.04288126092015116,-0.06051539149278583,-0.1069282425558129
8.464905656,-0.05482503323845885,-0.05340296479809654,-0.0418892282907805
8.469905656,-0.0666643010881807,-0.04358139324690448,0.024835075362362357
8.474905656,-0.07720417358729681,-0.031375881117999264,0.08742798555549217
8.479905622,-0.08524192046075159,-0.01745170277927401,0.14041682033571623
8.484905622,-0.08960944026568086,-0.0028047871321527497,0.17912976674145006
8.489905622,-0.08924108304427841,0.01128572338973368,0.2000993959807507
8.494905655,-0.08326951993620642,0.02334590920678502,0.201378341292067
8.499905688,-0.07114312084380217,0.03183386728228829,0.18273350660687088
8.504905688,-0.05274880726880942,0.03529519639150378,0.14569072106645886
8.509905654,-0.028517271659513864,0.03253055770606497,0.0934130207531712
8.51490562,0.0005149469025602304,0.022753575743077428,0.030412303399484128
8.51990562,0.03270870961538327,0.005715422155275797,-0.03788599623120034
8.52490562,0.06590417432983352,-0.018225396435019144,-0.10568545293069469
8.529905653,0.09758172223321052,-0.04810287266535949,-0.16741189405462484
8.534905653,0.12508791484685242,-0.082417331771363,-0.21829047809072352
8.539905653,0.1459000112962692,-0.11927538819358184,-0.2548378582171205
8.544905653,0.15789486386990503,-0.15657674858807258,-0.2752080062589032
8.549905653,0.15958644322324675,-0.19222037123148755,-0.2793463610789358
8.554905653,0.15030063674776478,-0.22429910215912552,-0.2689300861502604
8.559905619,0.13026504518034326,-0.2512542842582028,-0.24709945245358603
8.564905619,0.10060342207672265,-0.27196983973052136,-0.21801295689583347
8.569905619,0.0632370590356667,-0.285797285792016,-0.18628266956743839
8.574905652,0.020706858131457572,-0.29251626318514856,-0.15636274356693466
8.579905652,-0.024061403274334453,-0.2922465511981435,-0.13197039332776325
8.584905652,-0.06802094538873125,-0.2853348692601853,-0.1156139367349791
8.589905618,-0.10826822070036166,-0.2722415037826585,-0.10828746664545319
8.594905618,-0.14228143327690224,-0.25344784691130817,-0.1093688571976344
8.599905618,-0.1681126487740193,-0.22939805876728186,-0.11673088088734379
8.604905651,-0.18451945747009085,-0.2004791156856857,-0.12704833478385189
8.609905651,-0.1910291684004176,-0.1670357404774357,-0.13626077962610061
8.614905251,-0.18793545308044607,-0.12941100184712295,-0.14013319460106827
8.619905251,-0.17623357168728918,-0.08799999695514628,-0.13484682131434686
8.624905251,-0.1575047839065233,-0.04330354484424659,-0.11755013129612589
8.629905251,-0.1337627281118509,0.004028457229434357,-0.08680492882745008
8.634905217,-0.10727509167631041,0.053169430199028894,-0.04287409891914967
8.639905183,-0.08037406872770304,0.10310477147109981,0.012186122876355343
8.644905183,-0.055269625026766384,0.15263444669958698,0.07464681889002525
8.649905183,-0.033880237714126626,0.20038711355447092,0.1394357264887855
8.654905216,-0.01769590953142175,0.24484548328335157,0.2006483251569922
8.659905216,-0.0076872496835012245,0.28438568724450053,0.25219177051169434
8.664905216,-0.004271648073075139,0.3173359112450252,0.2884937351694272
8.669905182,-0.007342437460727216,0.34205986035802766,0.3051949814637653
8.674905182,-0.016359252415324675,0.3570675584996255,0.2997399423980765
8.679905182,-0.030488389623557474,0.36114970229994287,0.2717858014389043
8.684905215,-0.0487728055635417,0.35352390780610177,0.22336810114623476
8.689905215,-0.07030482437953701,0.33397408938881085,0.15878841108649105
8.694905215,-0.09437253063851928,0.3029600548581352,0.08422365650306818
8.699905215,-0.12055402068818936,0.2616745946204481,0.007092439023031431
8.704905215,-0.1487418231724964,0.2120302205001498,-0.06475426226384591
8.709905215,-0.17909131230415928,0.15656636665517587,-0.12392678393231821
8.714905181,-0.21189944493703836,0.09827862164857895,-0.16437085882374475
8.719905181,-0.2474313431714057,0.04038290104402797,-0.18211716317323723
8.724905181,-0.28572063259767017,-0.013961735210735867,-0.17581173916537962
8.729905214,-0.32637436097766587,-0.06193921006045202,-0.1469532080565584
8.734905214,-0.3684145011247603,-0.10133475302950261,-0.09979224414808935
8.739905214,-0.41018549883177785,-0.13073051274415176,-0.04088573175166867
8.74490518,-0.4493513597958049,-0.14961146180037999,0.021660499748903276
8.749905146,-0.4829967275987099,-0.15836666161384433,0.07918481741562768
8.754905112,-0.507834498954713,-0.15818484323177892,0.12358672401327331
8.759905112,-0.5205081524600528,-0.15085720955234594,0.1484294666193062
8.764905512,-0.5179613557493873,-0.1385130013867628,0.14987956831850727
8.769905545,-0.49783288528388614,-0.12332321534993153,0.1273435348573177
8.774905578,-0.4588244797241819,-0.10721333946756917,0.08369282008201963
8.779905611,-0.4009859554070914,-0.09162576131721255,0.025019217886551214
8.784905611,-0.3258678896303719,-0.07736593660404377,-0.040072063090939344
8.789905611,-0.23650777279278667,-0.06455401529422773,-0.10155527819899475
8.794905577,-0.1372385685610531,-0.05268752239588753,-0.14932507970176814
8.799905577,-0.03333476463164861,-0.0408040731494568,-0.17460435916496764
8.804905577,0.06946478408332125,-0.02771892039359134,-0.17122062962519816
8.80990561,0.16549985880869494,-0.012302048884283465,-0.13656488633843716
8.81490561,0.24973112392900085,0.006246022154862438,-0.07208758607888281
8.81990561,0.31821543714077494,0.028161544690546523,0.016750198604795045
8.824905576,0.3684573459213738,0.052965912985945524,0.12107561240548441
8.829905542,0.39959623126602056,0.07942405290883489,0.22967928841798563
8.834905508,0.4124096377482543,0.10562775634228584,0.3304246064162084
8.839905508,0.4091366807881096,0.12920073664228054,0.41179977303872983
8.844905541,0.393148240097571,0.14760191707605064,0.46440055977748745
8.849905574,0.3685096140657063,0.1584845092855081,0.48214172900135555
8.854905607,0.33949323173086954,0.1600551492584927,0.4630350812228621
8.859905607,0.31010220089228785,0.15137351325079215,0.40943498075351875
8.864905607,0.2836603383897342,0.1325401540755192,0.3277275248009214
8.869905573,0.26251255444194743,0.10473800779563396,0.22751511051613124
8.874905539,0.24786295737736821,0.07011812929819737,0.12041285996439081
8.879905539,0.23975905189313618,0.03154785632410629,0.01861871170383113
8.884905572,0.23721183410935587,-0.00773621138076445,-0.06655963610061948
8.889905605,0.2384263646647391,-0.04451282486524989,-0.1260408320710687
8.894905605,0.24110732952471628,-0.07593765172076017,-0.1540135673181566
8.899905605,0.24279951181079967,-0.09983007973313286,-0.14857350734308025
8.904905605,0.24122343125842519,-0.1148513599612754,-0.1118905798244524
8.909905605,0.23457073720740104,-0.12056224113140189,-0.04989926143950991
8.914905605,0.2217310525476897,-0.11736940575989964,0.02844193716316406
8.919905571,0.20243050583906652,-0.10638570479279763,0.11222932724759685
8.924905571,0.1772712051840296,-0.08923675746404149,0.1899041126074157
8.929904904,0.14767012174831068,-0.0678462319377371,0.25060648929978613
8.934904037,0.115705177088305,-0.044226598555359584,0.2854426695406709
8.93990337,0.08388522463828713,-0.02029423029136486,0.28852593674314353
8.94490247,0.054868055004239746,0.0022805352210762395,0.2576795406370859
8.94990177,0.031155619087702306,0.02218487546017213,0.19472710156793382
8.95490087,0.014798062094223146,0.03853774907934261,0.10534060505869539
8.95989997,0.007138079029264572,0.05093002412389521,-0.0015378589975753483
8.964899336,0.008624620504207106,0.05943296835680136,-0.11464100838265974
8.969898669,0.018719833602655587,0.06457572613363258,-0.22159099247491942
8.974897769,0.03591499755452801,0.06729040399867876,-0.3102584959344144
8.979896869,0.057860170975256,0.06882243921190394,-0.37012424846003766
8.984896869,0.08159911527112892,0.07060518502319602,-0.39349719672369243
8.989895969,0.10388754149759781,0.07410167393102579,-0.37645401287331887
8.994895269,0.1215611644584089,0.08062266449716268,-0.31938912543716386
8.999895235,0.13191232503630934,0.09113672177360593,-0.2271019161682987
9.004895235,0.13303074468915174,0.10609361054084605,-0.10839555013743095
9.009894601,0.12406520613231584,0.1252855974501126,0.024784022277738
9.014894634,0.10536878809399389,0.14777141932406948,0.1585854858609121
9.019894634,0.0785013894692246,0.17188362481600625,0.2787334010639168
9.024893967,0.04607982959206719,0.1953311765592388,0.37208425275074775
9.029893267,0.011486405178204782,0.21539630875910176,0.4280714847201395
9.034893233,-0.021531618157113953,0.22920953447733255,0.4398612534804258
9.039892533,-0.0493203733192131,0.2340718517627112,0.4050736171605703
9.044892199,-0.06877241990873681,0.22778151556748152,0.32597883562248325
9.049892232,-0.07770916191782622,0.20891744941927892,0.20914768721151655
9.054892265,-0.07513670891743095,0.17703500814383455,0.06460756399552503
9.059892298,-0.06133868876922357,0.13274273808996706,-0.09537888382904701
9.064892298,-0.037795204379261586,0.0776486173524456,-0.2577486339213138
9.069892298,-0.006943943818326198,0.014186674837037741,-0.4100999895727042
9.074892264,0.028177427274107755,-0.05464489026831548,-0.5419977917976392
9.07989293,0.0643527849367581,-0.1255890286497886,-0.6459662340588517
9.08489383,0.09861203150039977,-0.19542866519659635,-0.7180597532951095
9.08989453,0.12860103926463567,-0.2612342398687698,-0.7579612132797278
9.09489543,0.15285079597407542,-0.32052899442553046,-0.7686199281440129
9.099896096,0.17091584947321023,-0.37135993586985366,-0.7555017818415026
9.104896962,0.18337085530035027,-0.41228172788673584,-0.7255720255062427
9.109897828,0.191672620073055,-0.44227632956757984,-0.686161917223599
9.114898461,0.19791124261088647,-0.4606402517747186,-0.6438792721677947
9.119899127,0.20448587547252617,-0.466872719831947,-0.6037096808246886
9.124900027,0.21374731384027543,-0.4605925472241326,-0.5684227399464876
9.12990096,0.22765137691453463,-0.4415015914845832,-0.538351946295071
9.134900993,0.2474647218454493,-0.4094013480001317,-0.5115647914200807
9.139901926,0.27355868872129924,-0.36425873135373293,-0.484387509277297
9.144902592,0.3053169649569075,-0.3063082916491238,-0.4522023582805182
9.149902592,0.3411697502235854,-0.23617148032403834,-0.41039911448530425
9.154902558,0.3787521191176076,-0.1549699228255104,-0.35534095814025507
9.159903224,0.4151693108211017,-0.06440983911708674,-0.2852013206613747
9.164903224,0.44733852177688793,0.033181092745187865,-0.2005436207740062
9.169903257,0.4723668417646949,0.13487603864091097,-0.10454877587511784
9.174903923,0.4879190817438654,0.23723399219758823,-0.0028422089560615443
9.179904589,0.4925277922303681,0.3364439105634471,0.0970727587431139
9.184904589,0.48580129612948425,0.4285195956598583,0.1867115257832323
9.189905255,0.4684950460707997,0.5095338689708879,0.2577205331733272
9.194905588,0.44242784567332466,0.5758779970475463,0.3030537710696241
9.199905554,0.4102465925190201,0.624528931330552,0.31804437936004126
9.204905554,0.3750677882790438,0.6533026534967196,0.30120826064408673
9.209905554,0.3400458475559374,0.6610680709557545,0.25464737843921503
9.214905587,0.30793214257163226,0.6478944405559943,0.18397340367715315
9.219905587,0.28069173731070624,0.615107786502229,0.09774063538727558
9.224905587,0.2592365307837192,0.5652387760733764,0.0064499830371150405
9.229905553,0.243315817228274,0.5018554972199522,-0.0787487483935471
9.234905553,0.23158124276635253,0.4292882073987585,-0.14748149765691126
9.239905553,0.22181663596783066,0.352267562823394,-0.1915041664887966
9.244905586,0.2112979949117068,0.27551104772975327,-0.20579459712223658
9.249905619,0.19722837728395004,0.20330230987295428,-0.189223808304786
9.254905619,0.17717974413616044,0.13911310166076665,-0.1447053838572618
9.259905619,0.1494720148618548,0.08531603524283592,-0.07879572837742899
9.264905619,0.1134304563129788,0.04302747452597478,-0.0007970379576647498
9.269905619,0.06948465102937572,0.012104040134643824,0.07851328576097055
9.274905619,0.019100691539975505,-0.008704436938229273,0.14834971199633087
9.279905585,-0.03543366634172343,-0.02146494782287654,0.19937809369771392
9.284905585,-0.09132898117772209,-0.028674481187012532,0.22496624624693082
9.289905585,-0.14566436276668016,-0.0328325426831348,0.22205551004749616
9.294905618,-0.1957503465357494,-0.03603737414138973,0.191538182264494
9.299905618,-0.23943320239225224,-0.03966806214606678,0.13809605951914744
9.304905618,-0.2753025592816198,-0.04420181590494638,0.06953030323561121
9.309905584,-0.3027811179237629,-0.04919388048712945,-0.0043189673744841285
9.31490525,-0.3220935118241845,-0.05342037230731571,-0.07291301438202737
9.31990525,-0.3341288585467477,-0.055156548320130096,-0.12643449593481576
9.324905283,-0.34022570664161195,-0.052540159015264834,-0.15710091650809477
9.329905283,-0.3419165557199251,-0.04395656490994459,-0.1602022821752227
9.334905283,-0.3406709377133208,-0.02838179997734633,-0.13473081762900213
9.339905283,-0.3376722255467377,-0.005630863492945267,-0.083523275608253
9.344905283,-0.3336559257314537,0.023522466465229357,-0.012898895311595864
9.349905283,-0.32882768656858663,0.057365828869590546,0.06815834973108852
9.354905249,-0.32286814344018816,0.09339899682088085,0.14916388723155405
9.359905249,-0.3150197038833371,0.128588893167828,0.21948666883062198
9.364905249,-0.30423911865391723,0.1596918843080847,0.26971129797361537
9.369905282,-0.2893912963240273,0.1836016445746437,0.2928268840047676
9.374905315,-0.2694557774724912,0.19768139619211306,0.285088522392543
9.379905315,-0.243718038202537,0.20004384502334932,0.2464462750227799
9.384905281,-0.21192274243522954,0.18974980589176338,0.18049878589286641
9.389905247,-0.1743735104616545,0.1669067458598835,0.09399384976775788
9.394905247,-0.1319714086348657,0.1326603924684099,-0.004043558798711248
9.399905247,-0.08619051221907804,0.0890848426942585,-0.10343172085983754
9.40490528,-0.03899335508165027,0.038987798505934826,-0.19405265817531447
9.40990528,0.007307321627954455,-0.014343791029747342,-0.26702071997570287
9.41490528,0.05023062703351921,-0.06742767571563414,-0.3156632124026231
9.41990528,0.08733993385422965,-0.1168700212528257,-0.33620827510706813
9.42490528,0.11646872789649405,-0.15962392343349402,-0.3281160155877325
9.42990528,0.13593994731041542,-0.19320527601561718,-0.2940329001239025
9.434905246,0.14475691434372698,-0.21585588961384808,-0.2393910261226935
9.439905246,0.14274388505491162,-0.22664875610611604,-0.17170948263385383
9.444905246,0.13061669193957878,-0.22553262058473872,-0.09968275606597306
9.449905279,0.10996928846680254,-0.21331374527590322,-0.03216013205086613
9.454905279,0.0831702265063941,-0.1915738104406299,0.022870725939924168
9.459905279,0.05317364537270204,-0.16252593804254667,0.05918440305399549
9.464905579,0.023260841907159015,-0.12881639505293785,0.0730037300881088
9.469905545,-0.0032612240471003493,-0.09328665316609477,0.0633957782221713
9.474905511,-0.02337127574679542,-0.05871711124254584,0.03233489527276952
9.479905511,-0.03461950850272823,-0.027578034889991682,-0.015571997610146977
9.484905544,-0.03535481876142589,-0.0018142574076727808,-0.0736632963800621
9.489905577,-0.02486692136353653,0.01731215142473765,-0.1340338909746049
9.49490561,-0.00342687793214316,0.029302631737024715,-0.18848283417791342
9.499905643,0.027777487746432888,0.034416334748741,-0.22948534624693223
9.504905643,0.06680069491219706,0.03357865976224186,-0.2510748778516881
9.509905609,0.11116977428526033,0.02821623889361755,-0.2495325044359648
9.514905575,0.158152676501359,0.02004004233870172,-0.2238050151164645
9.519905575,0.20502777029455857,0.010804662878687034,-0.17560682095741265
9.524905575,0.2493188149849917,0.002074290895509174,-0.10919997758340204
9.529905608,0.28896722277162257,-0.004975829266222995,-0.030886141743378243
9.534905608,0.322425588082578,-0.009699293983254706,0.05172096410372081
9.539905608,0.34867087783969486,-0.012045211751283421,0.13054846110960774
9.544905574,0.3671493329928172,-0.012547251658961365,0.19793544084798814
9.54990554,0.3776755501865891,-0.012241055738142678,0.24741649816426087
9.554905506,0.38031387068872485,-0.012525326012798668,0.274327523951675
9.559905506,0.3752703500531461,-0.014988637329479144,0.2761711705198606
9.564905539,0.36281820126407754,-0.021226553752288733,0.2527144107710473
9.569905572,0.3432697404496322,-0.03267125039598548,0.2058275709698371
9.574905605,0.31699573281660626,-0.050449767610837505,0.13910766102947733
9.579905605,0.28448144050477175,-0.07527985350220269,0.05735430421321732
9.584905605,0.24640006499284522,-0.10740633860809749,-0.03401887089351486
9.589905571,0.2036801675890113,-0.14657680399958922,-0.12955245935458415
9.594905571,0.1575445021869755,-0.19205247824858707,-0.224215038304137
9.599905571,0.10950297456249256,-0.2426484178702495,-0.3137308195879547
9.604905604,0.061290863721831686,-0.296796152051062,-0.3947402288230156
9.609905604,0.01475340056770319,-0.35262216805078855,-0.4648058195792432
9.614905604,-0.028312190669868318,-0.40803658539762494,-0.5223054046062522
9.619905604,-0.06633722263310825,-0.4608276595385329,-0.5662735889591723
9.624905604,-0.09815805303058125,-0.5087591002217431,-0.5962574895794952
9.629905604,-0.12315880629152481,-0.5496685469674109,-0.6122405676856258
9.63490557,-0.14135201635147093,-0.5815668077297399,-0.6146619197602751
9.639905536,-0.15337556379929598,-0.6027382696088278,-0.6045225452271489
9.644905536,-0.1603957871810665,-0.6118427560865268,-0.5835335611322469
9.649905536,-0.16392204365511315,-0.6080175762017952,-0.5542338219611945
9.654905569,-0.16555590267524173,-0.5909750913039474,-0.5199945701923885
9.659905569,-0.1667162005781017,-0.5610855936137296,-0.48484203641545803
9.664905569,-0.1683950610024035,-0.5194285517740124,-0.4530658191853041
9.669905535,-0.17100374076277236,-0.46778983839683586,-0.42863557121758156
9.674905535,-0.17435574591493236,-0.4085818033338185,-0.41450886180790814
9.679905535,-0.17780731662889507,-0.3446697751345302,-0.4119629372118033
9.684905568,-0.18053708065160384,-0.27910369702289894,-0.42010633935049985
9.689905568,-0.18190704524711462,-0.21477560270645543,-0.43571162065869157
9.694905568,-0.18181784920403576,-0.1540482925923754,-0.45345598319097474
9.699905568,-0.18096256803947897,-0.09842123351164575,-0.4665733272427255
9.704905568,-0.1809001702525573,-0.048308562899461206,-0.4678299831084619
9.709905568,-0.18390895141050043,-0.0029947692703894096,-0.45066148424228203
9.714905534,-0.192631792428204,0.03919549139719872,-0.41026808744497884
9.719905534,-0.20957515838933646,0.08052083689308552,-0.3444709219454092
9.724905534,-0.23655965501893783,0.12329518049127346,-0.25417606063624704
9.729905567,-0.27423363419337715,0.16930312058477984,-0.14336893470421444
9.734905567,-0.32175079245168225,0.219274153189587,-0.01864918822778486
9.739903763,-0.3766813483690036,0.272527408008571,0.11160276763440112
9.744903729,-0.4351814539166118,0.32687014668340486,0.23827822505961382
9.749903695,-0.4923964952588445,0.37878497418425433,0.35263768753796
9.754903695,-0.5430310788453637,0.4238823687921266,0.4472895347912066
9.759903728,-0.5819906965806219,0.45754002378680864,0.5169244415092241
9.764903761,-0.604992683810023,0.4756118736469575,0.5587352811381936
9.769903761,-0.6090572732919076,0.4750762291075423,0.5725103260768657
9.774903761,-0.5928180874687422,0.4545057393824605,0.5604363442441401
9.779903761,-0.5566265606288008,0.41427748196567643,0.526680104210884
9.784903761,-0.5024577788125194,0.3564918702004583,0.4768303052587021
9.789903761,-0.4336506472028844,0.2846255718083979,0.41728045607593933
9.794903727,-0.35453175621014366,0.20299607595651942,0.3546223557721292
9.799903727,-0.2699802272172073,0.11615227902430839,0.29510456319136946
9.804903727,-0.1849902943698747,0.028316081614401637,0.24419349679014868
9.80990376,-0.10427963355053507,-0.05701988856252003,0.206258131315655
9.81490376,-0.031976225016394876,-0.13727866434829805,0.18438423857861172
9.81990376,0.028601699461212923,-0.2107668452273457,0.18031254136003555
9.824903726,0.07507518749466396,-0.2764733353099505,0.19448774413527534
9.829903726,0.10605849778225512,-0.33378122199640015,0.2262009164063104
9.834903726,0.1211576659285659,-0.3821835046228892,0.27380360712391716
9.839903759,0.12093188815847172,-0.4210793835292765,0.33496658263032014
9.844903759,0.1068284403311034,-0.44969824498708294,0.4069498566617794
9.849903759,0.08109254154685101,-0.4671615903437598,0.4868466921380924
9.854903759,0.04664623033638921,-0.4726572191496165,0.5717659560159899
9.859903759,0.0069277356405280655,-0.46567275475865105,0.6589264502877946
9.864903759,-0.03431368658828644,-0.44622336837429055,0.7456530128330128
9.869903725,-0.07326313242572186,-0.4150141864475727,0.8292847705966226
9.874903691,-0.1063082384693142,-0.3734990884820154,0.9070274962591016
9.879903691,-0.13030027582417095,-0.3238270418780353,0.9758006311189652
9.884903724,-0.14277182388832002,-0.26869488837780126,1.0321407677805718
9.889903757,-0.14207829924141216,-0.2111432700201668,1.0722228620649772
9.894903757,-0.127444289925752,-0.1543364822160039,1.092045355459902
9.899903757,-0.0989156315467105,-0.10135883508410126,1.0877962108727235
9.904903723,-0.05723871478638994,-0.05504445597670509,1.0563780669868807
9.909903689,-0.003703617739159374,-0.017840839023395026,0.996029976913202
9.914902989,0.06000740452321048,0.008305022882424103,0.9069493907907229
9.919902989,0.13193131980031353,0.02205172882572074,0.7917989169184648
9.924903022,0.20987690381983742,0.022767583984679172,0.6559829748653833
9.929902388,0.2914199392587655,0.010630412227196778,0.5076013212758865
9.934901521,0.37386113766718854,-0.01329182599449247,0.35702727988414673
9.939900854,0.4541800748843705,-0.047002948663276964,0.21611214795174372
9.944899954,0.5290239263210836,-0.08760985065059748,0.09707492693667903
9.949899254,0.5947665460405588,-0.13144749030430297,0.011189256160129517
9.954899254,0.6476612321521311,-0.17431204540324804,-0.03258020778590898
9.959898587,0.6840907901671632,-0.2117993777405885,-0.02881718526108641
9.964897953,0.7008950424554837,-0.2397235755626506,0.02340677366832884
9.969897286,0.6957342257038955,-0.2545683593624187,0.12004578891350405
9.974896386,0.6674321819475266,-0.25390899285784574,0.2521532318814872
9.979895686,0.6162395031734292,-0.23673894739672002,0.40655733154316936
9.984895652,0.5439647445868285,-0.20364555771313564,0.5671036232533221
9.989894952,0.4539396232235675,-0.15680028182368708,0.7163498179653793
9.994894952,0.3508079207533607,-0.09975712850648423,0.837528159863729
9.999894285,0.24015325992680092,-0.03708136111853384,0.9165392284013731
10.00489432,0.1280044737911412,0.026145600453950785,0.9437188364236377
10.00989368,0.020276291050782887,0.08488349668267882,0.9151329221078965
10.01489372,-0.0777849141845029,0.13468480798252613,0.8332061115058613
10.01989332,-0.16207796673259978,0.17217486971745286,0.706573164630456
10.02489332,-0.22998261524705854,0.19540416297256416,0.5491470741942512
10.02989328,-0.2805101362465844,0.20403150734923972,0.3785066334646668
10.03489328,-0.3142525317386606,0.19931624016706428,0.21380215861962493
10.03989328,-0.3331442319362874,0.18391925266292544,0.07344587505351062
10.04489332,-0.34007696457579617,0.161534903096987,-0.027116127510809003
10.04989332,-0.33842730463590015,0.1363964506718541,-0.07726394394602497
10.05489332,-0.33156510540871154,0.11271492286271736,-0.07245891999145634
10.05989332,-0.3224093699516738,0.0941229630272855,-0.014738207393101674
10.06489398,-0.31308760266217545,0.08319837587253705,0.08760467049891969
10.06989398,-0.30473769641668236,0.08113435739082953,0.22109871382386148
10.07489395,-0.2974707986485787,0.08760431866618314,0.3687812822134337
10.07989461,-0.29049209334215553,0.10084119375747792,0.5122648332204698
10.08489551,-0.28235623212056654,0.11791877477658988,0.6339191345873992
10.08989621,-0.27131707540983185,0.13519152993372907,0.7189014062294395
10.09489711,-0.2557194107455668,0.14882515393789297,0.756799145234191
10.09989778,-0.23437531387295563,0.15533747855016786,0.7427097390878448
10.10489775,-0.20687087149910796,0.15207089699732004,0.6776571844686929
10.10989841,-0.1737597302279314,0.13753265333953282,0.5683280873194493
10.11489908,-0.13661668139623576,0.11156469919328704,0.42618630093355203
10.11989978,-0.09794457660027486,0.07533466361491548,0.26609004576973244
10.12490071,-0.06094805325637663,0.03116750840418289,0.10458182763546288
10.12990138,-0.029204618679672622,-0.01774170044040725,-0.04195293168522403
10.13490138,-0.006275232557048885,-0.06768295977577654,-0.1590585367373242
10.13990204,0.004698340903393779,-0.11480373640954246,-0.23572899816803114
10.14490204,0.001363282298018005,-0.1554567586200465,-0.2655248720579215
10.14990271,-0.01754694153065143,-0.18649497634833054,-0.24718323897351988
10.15490268,-0.05201635165084929,-0.2054997764946019,-0.1846718860435612
10.15990334,-0.10066716505082524,-0.21094000910911612,-0.0866956589201474
10.16490334,-0.16080101502245284,-0.20226568816201138,0.03428352195379633
10.16990377,-0.22855495137321166,-0.1799407488065019,0.1634056442135417
10.17490377,-0.2991605175320842,-0.14541559438576443,0.285008100519852
10.17990377,-0.367289798256988,-0.1010359220959988,0.3842928007654581
10.18490374,-0.42746707237444476,-0.04988326179985801,0.4488919417126522
10.18990374,-0.47451767521064664,0.004453337672931016,0.47016738354434456
10.19490374,-0.5040180887414296,0.05816669528662295,0.4441036046943418
10.19990377,-0.5127053153200876,0.10756358161662562,0.37169569119609247
10.20490377,-0.49880127810691616,0.14941043513681415,0.25878835656656096
10.20990377,-0.46221107080583035,0.18125497070276245,0.11538371402895072
10.21490377,-0.4045637204936395,0.20168170481157263,-0.04550286274110159
10.21990377,-0.32908088534924285,0.21046199909634838,-0.20930568150433637
10.22490377,-0.24028068475284212,0.20856979823767094,-0.3615187039136419
10.22990374,-0.14354691028243216,0.19805190056354915,-0.48926291898458374
10.23490374,-0.04461380152636316,0.1817633793424321,-0.5826273836439562
10.23990374,0.050970364656702905,0.1630005408156007,-0.6356294126579715
10.24490377,0.13833385141899351,0.14508135307714234,-0.6466882306527432
10.2499038,0.21366564768351165,0.13093307436280968,-0.6185684173707807
10.25490381,0.27444867415298607,0.12274660131305477,-0.5578164679459836
10.25990377,0.31952013711760896,0.12174658622620707,-0.47377701828669866
10.26490374,0.3489621481095172,0.12810765549255676,-0.3773267085360741
10.2699037,0.3638484180722982,0.14102373236080884,-0.27949680397259324
10.27490367,0.36589031564189733,0.1589135723119014,-0.19016643082899265
10.27990367,0.35703695795126,0.17972475554259504,-0.11699544912893499
10.2849037,0.3390892807441017,0.20128351206084238,-0.06473131778080589
10.28990374,0.3133869075420113,0.22163127306844635,-0.0349717906497263
10.29490377,0.28061840514553044,0.23929218080447137,-0.026400803708319185
10.29990377,0.24078987270033173,0.25342867323516066,-0.03544641589175315
10.30490377,0.19336455449053563,0.2638625039237596,-0.05724674542972481
10.30990373,0.13755943670254742,0.27096265707540823,-0.08676229219612946
10.31490373,0.07275711158411016,0.2754254705395502,-0.11984892514070987
10.31990373,-0.0010328803009831368,0.27799176610295706,-0.15410976466312734
10.32490377,-0.0827448854146966,0.2791575116912523,-0.18937639491630442
10.32990377,-0.16994594387080342,0.27893663072535646,-0.22772621074471294
10.33490377,-0.2587188758354517,0.2767269669164439,-0.2730157638672543
10.33990373,-0.34379257471085,0.2713143986807711,-0.3299897736348513
10.3449037,-0.4189367013964934,0.26102766168999403,-0.4031004057673196
10.34990367,-0.47759397239575063,0.244030173077321,-0.49522945369305266
10.35490366,-0.5136780801029587,0.21870873247183184,-0.6065366188583902
10.3599037,-0.5224282528684644,0.1840972967468928,-0.733653267152333
10.36490373,-0.5011913655784338,0.14026212417633818,-0.8694011431633037
10.36990376,-0.45000442847071115,0.08857566398303991,-1.0031437335219786
10.3749038,-0.3718738512789206,0.03182063826345535,-1.1217839859752203
10.3799038,-0.27268827889097086,-0.02591004006427174,-1.2113194976618913
10.38490376,-0.16075206056766525,-0.07952195624974347,-1.2587702482062604
10.38990373,-0.04597916185157174,-0.12341013540281254,-1.2542191797554219
10.39490373,0.06116439924499291,-0.1520787515244139,-1.1926647231175747
10.39990373,0.1508436426686568,-0.1608163162064888,-1.0753847281085465
10.40490376,0.2150144042947584,-0.1463429126335854,-0.9105560476316236
10.40990376,0.24840634858895372,-0.10734634031642047,-0.7129611644615862
10.41490376,0.2491914687599873,-0.04483402234094358,-0.5027351671643385
10.41990376,0.2192364823421674,0.03775474699178814,-0.30324876764510633
10.42490376,0.16389113554541948,0.13470836962836896,-0.13836482315604612
10.42990376,0.09132861234942842,0.23847919645777127,-0.0294217667211818
10.43490373,0.01151908017299421,0.34037086054206467,0.00763633211093703
10.43990373,-0.06502788958649956,0.43141853331853747,-0.035437663241147985
10.44490373,-0.12858112791356974,0.5033720097931705,-0.15781195649917232
10.44990376,-0.17138583937849955,0.549665323592225,-0.34934111078331503
10.45490376,-0.18858059306025077,0.5662430773691194,-0.5915406085102506
10.45990376,-0.17871591088413316,0.552119320280226,-0.8596578162983307
10.46490373,-0.1438174362818072,0.5095726792313904,-1.1255712420169985
10.46990373,-0.0890029228354404,0.4439293265523952,-1.3611382800114626
10.47490373,-0.021723355683907233,0.36294572195563535,-1.5415568618181559
10.47990376,0.04925486565259316,0.2758650265793666,-1.6483110164517443
10.48490376,0.11498363864956344,0.19227330402694773,-1.671328924969422
10.48990376,0.16743593916968574,0.12091467360241531,-1.6100847300205077
10.49490376,0.20044685231843787,0.06863256708256713,-1.473509547103798
10.49990376,0.2103917964940107,0.03958587961778747,-1.2787281687947318
10.50490376,0.1965370752605302,0.03484755681088469,-1.0487891658157056
10.50990373,0.16103475989388133,0.05243614483710447,-0.8096888093538457
10.51490369,0.10856935436328025,0.08776719024781537,-0.5870843003129269
10.51990369,0.04569870332941721,0.13445059925471953,-0.4031332951183758
10.52490369,-0.020033115443997548,0.1853106696622856,-0.27387643413980334
10.52990372,-0.08110063978524812,0.23347438697530254,-0.20749935989180365
10.53490373,-0.13098653787615125,0.2733653864866127,-0.20368257845088206
10.53990372,-0.16501731398189579,0.30145707412382533,-0.25409198406892386
10.54490369,-0.18092334700374935,0.31667628966587263,-0.343905080956584
10.54990369,-0.17903973808998544,0.3204029599365456,-0.4541320897143076
10.55490369,-0.16211899113239184,0.31607363172627606,-0.5643952996191933
10.55990372,-0.13478749525993264,0.3084583159926093,-0.6557834458053425
10.56490372,-0.10273349878276586,0.3027309285772612,-0.7134014233256231
10.56990372,-0.07175475225676389,0.3034851494278672,-0.7282847208996085
10.57490372,-0.046813320674474294,0.3138542277696898,-0.6984353323943469
10.57990372,-0.031241773547230758,0.3348742200162332,-0.6288525152748492
10.58490372,-0.02622098336948523,0.36518941869882515,-0.5305659252288226
10.58990369,-0.030609066478109556,0.4011443216911423,-0.41881524349222016
10.59490369,-0.04114895465278683,0.4372480811925369,-0.31064146887235705
10.59990369,-0.05302535727244259,0.4669436839563613,-0.2222420947451197
10.60490372,-0.060688142568931285,0.4835714609303104,-0.16647980001978793
10.60990372,-0.058816382917967945,0.4813891000631941,-0.15091313785492158
10.61490372,-0.0432726451681689,0.4565010314095241,-0.1766391840485615
10.61990369,-0.011895607715701521,0.40756048238806264,-0.23811435139330772
10.62490366,0.034997821521685145,0.3361372633916106,-0.3239713510453548
10.62990362,0.09448512824619641,0.24669026384841333,-0.41870245087770136
10.63490362,0.16131105115626634,0.14613954968027587,-0.50495509471363
10.63990362,0.22852344291732016,0.04309035726908064,-0.5661025510967588
10.64490365,0.2883792250109606,-0.053189076557022104,-0.5887184174853063
10.64990369,0.3333884028296136,-0.13389990252572845,-0.5646015312605975
10.65490372,0.3573470445294151,-0.1918054768797438,-0.49206345411604024
10.65990372,0.35621548108250023,-0.22214143444246517,-0.37629492161706946
10.66490372,0.3287221085924519,-0.22322385984567047,-0.22875628351120725
10.66990369,0.27661104477968435,-0.19667356995120627,-0.065672789780799
10.67490369,0.20449880315898786,-0.14722105470311087,0.09415931124411317
10.67990369,0.11935638407519182,-0.08210909310569184,0.23195211092499587
10.68490372,0.029683058970138704,-0.010163871111855743,0.33153049883264973
10.68990372,-0.05551980689993314,0.05934631245063999,0.3815957679588721
10.69490372,-0.12783819322081047,0.11791121510139803,0.3773303961472966
10.69990368,-0.1804511391237154,0.15887070821353672,0.32112092745481474
10.70490365,-0.20891612630439207,0.17824346794661197,0.22230197877766025
10.70990362,-0.21162881948648138,0.17517409962991365,0.09596119874264027
10.71490362,-0.18990051475762343,0.15193811007003283,-0.03902801569101911
10.71990365,-0.14765456009294642,0.11351250305088899,-0.16247907215213916
10.72490368,-0.09079902414598891,0.06678580939988739,-0.25554117995157016
10.72990372,-0.026376265128005665,0.019532453265846014,-0.30317791841163755
10.73490372,0.038385889508673145,-0.020695626284152037,-0.2961540496601146
10.73990372,0.09699289635616418,-0.0476039657419281,-0.2322733704907247
10.74490368,0.14445702056067797,-0.056979505039676664,-0.11670493542633881
10.74990365,0.17783610836228797,-0.04720095289624351,0.03864989820270886
10.75490365,0.19648168214360656,-0.019379704238865945,0.21667313975853045
10.75990368,0.20197811293805504,0.022872478851990223,0.3972336937848519
10.76490371,0.19779273318532392,0.07400214711330665,0.5597879151403542
10.76990371,0.1886915262074905,0.12731012342326778,0.6860289308482418
10.77490371,0.1800025237351821,0.1758675732442529,0.7622286479999004
10.77990371,0.17682573674380359,0.21342421729441885,0.7809603782112502
10.78490371,0.18329214559907128,0.23518777100800872,0.7419785482987873
10.78990371,0.20196469328223549,0.23837706401280126,0.6521505960447085
10.79490368,0.23345318756045996,0.22248735731552122,0.5244665893921876
10.79990381,0.2762861958622197,0.18924921313334275,0.3762753929025697
10.80490381,0.3270508663702201,0.14230454202290893,0.22699578180575034
10.80990385,0.3807800812825995,0.08665856232403403,0.09561480652947134
10.81490385,0.43153833719428925,0.02799038914198544,-0.0016928087363643346
10.81990385,0.47313533445639594,-0.028083272663594498,-0.05351311597764135
10.82490381,0.49988116484080947,-0.07669664115289535,-0.054461822278667874
10.82990378,0.5072909000310881,-0.11429094121696955,-0.00562300473017754
10.83490374,0.4926508810729166,-0.13897235451635712,0.08587556269232174
10.83990374,0.455374936299388,-0.15063226574563998,0.20806239276361252
10.84490378,0.3971054004258397,-0.15082142652214922,0.3459028315154789
10.84990381,0.3215483183935391,-0.14240301976985278,0.48339028537628037
10.85490384,0.23406945204509846,-0.12904112604487447,0.6056461391908416
10.85990384,0.141110919975943,-0.1146056404351749,0.700741062778721
10.86490384,0.049510938862974564,-0.10258708969107934,0.761007334081084
10.86990381,-0.0341828976582542,-0.09561163593910799,0.7836990858287138
10.87490378,-0.1043233230015369,-0.09512768548994995,0.7709585868667737
10.87990378,-0.15663132779969094,-0.1013044768038241,0.7291448848360448
10.88490381,-0.18848322139372609,-0.1131460117662976,0.6676623912439814
10.88990384,-0.19900537742726263,-0.12878782151367815,0.5974819870465435
10.89490384,-0.1889904548000453,-0.14591562955772358,0.5295718162762664
10.89990384,-0.16066834288615978,-0.162228376094116,0.473449765207686
10.90490381,-0.11737694589248036,-0.17586528971942264,0.43603885391531305
10.90990377,-0.06318200338958586,-0.18572745231574164,0.4209563057925704
10.91490374,-0.0024923305988143666,-0.19164631067566568,0.4283035374144359
10.91990374,0.06029141852297446,-0.19438070639766933,0.45495514581592156
10.9249031,0.1210682650407149,-0.19545463840425595,0.4952785431282124
10.92990247,0.176255614482879,-0.19687415228151214,0.542160755318059
10.9349016,0.2229336452730966,-0.20077866038644307,0.588182181465339
10.9399007,0.2589217186999041,-0.2090874143813856,0.6267631534603103
10.9449007,0.2827969022260395,-0.22319640661092585,0.6531192318449167
10.94989987,0.293865668796905,-0.2437672068052215,0.6648937688151296
10.9548992,0.29209980354682263,-0.2706304898338884,0.6623869866382548
10.95989854,0.2780474424008798,-0.3028069216777713,0.6483625573667163
10.96489767,0.25272991969203906,-0.33863035844238115,0.6274762706158161
10.96989677,0.2175344424617524,-0.37594613952600603,0.6054269278769706
10.9748961,0.17411160499585943,-0.41235213952327654,0.587968382220188
10.9798961,0.12428554948131983,-0.4454513450531044,0.5799381137740677
10.98489544,0.06998291485080149,-0.473089479431342,0.5844503674172976
10.98989544,0.013184046919647037,-0.4935569846834212,0.6023727189842939
10.9948947,-0.044103960279466004,-0.5057400439440681,0.6321589820927113
10.99989467,-0.09985741382910752,-0.5092100851006577,0.6700561042888941
11.00489467,-0.15203858170370002,-0.504245775454134,0.7106470127827463
11.0098947,-0.19860274250670643,-0.49178638981166856,0.747643772521862
11.01489473,-0.23752279572033175,-0.4733209016551601,0.7748123556621177
11.01989407,-0.2668431387321954,-0.4507232470679338,0.7868952386293067
11.0248938,-0.2847701576089886,-0.4260506231083395,0.7804015683077996
11.02989376,-0.2897991114368039,-0.4013274647482136,0.7541553588693168
11.03489377,-0.2808674221952686,-0.3783413139042549,0.7095269966900216
11.03989376,-0.25751475236622406,-0.35847651338361486,0.6503173273871943
11.0448937,-0.22002361366769435,-0.3426067607319338,0.5823104563266234
11.0498937,-0.16951271360668163,-0.33105877203969813,0.5125546775602986
11.0548937,-0.10795936785548435,-0.323648712718407,0.4484653801803358
11.0598937,-0.038136220306104,-0.31978308665331073,0.3968657757227914
11.0648937,0.03654040196301656,-0.31860800949358736,0.3630888616746508
11.0698937,0.11223984387456204,-0.31918549776021543,0.3502565825344045
11.07489433,0.1850011488264316,-0.32067225895673007,0.35883044692859617
11.079895,0.2510396546693251,-0.3224756179059091,0.3864942846992667
11.0848959,0.30704037627011294,-0.3243635309564142,0.42838839646845056
11.08989683,0.3504049306035375,-0.3265118029423464,0.4776702573111543
11.09489683,0.37942654313186003,-0.3294810396076148,0.5263357972416619
11.0998975,0.39337838621735755,-0.3341266383725168,0.5662023443504409
11.10489813,0.3925117525293411,-0.3414550192178851,0.5899338334754582
11.1098988,0.3779708172495507,-0.35244673551882116,0.5919835739434635
11.1148997,0.3516392149626252,-0.3678713678758987,0.5693404021612334
11.11990063,0.31593967266063605,-0.3881200212894858,0.5219886935613494
11.12490133,0.27361062589518526,-0.4130787272618196,0.45302756214642115
11.12990066,0.22748261369100373,-0.4420600530279723,0.3684343750646422
11.13490133,0.1802730524813745,-0.4738013686929708,0.27649704908025635
11.13990133,0.1344126816960266,-0.5065283678532058,0.1869741250953464
11.14490203,0.09191252025910843,-0.5380741373879037,0.11006869065063211
11.14990203,0.0542773006473835,-0.5660392462986201,0.05532058999908854
11.15490199,0.02246934947989794,-0.5879772492587695,0.030530339145047256
11.15990199,-0.0030754804837677735,-0.6015914210565223,0.04082714434873103
11.16490199,-0.022381704094830573,-0.6049305854115758,0.087982072142221
11.16990269,-0.035824372973580126,-0.5965730634847395,0.1700461329790782
11.17490296,-0.04398717296525433,-0.5757874000750727,0.2813632162140583
11.17990296,-0.047505330111132366,-0.5426569611478181,0.412971759303412
11.18490293,-0.04691462418879878,-0.49815396339059725,0.5533696384411789
11.18990289,-0.04253021274550716,-0.4441487114315192,0.6895772799097163
11.19490296,-0.03437791592398412,-0.38334310513630676,0.8083981765691393
11.19990296,-0.022194935205563013,-0.31912398101075873,0.8977483657814463
11.20490299,-0.005506489469201939,-0.25534058120358283,0.9479118722300641
11.20990302,0.01622910484039684,-0.1960200278061563,0.95258166296446
11.21490306,0.043428927917160104,-0.1450439077563581,0.9095667706895872
11.21990306,0.07618101064165232,-0.10581673563641408,0.8210836625081337
11.22490306,0.11406558620508257,-0.08096154891722859,0.6935979953662841
11.22990302,0.15603783545016958,-0.07207741116441065,0.5372341857558015
11.23490302,0.20039755961984998,-0.07958717881651121,0.36481750157792187
11.23990302,0.24485584935756702,-0.10269234271083176,0.1906510047245347
11.24490306,0.2866922141491433,-0.1394377248862833,0.029154101300260728
11.24990309,0.3229815399470666,-0.18687564056179434,-0.1065008685768166
11.25490309,0.35086118881750306,-0.24130928975098245,-0.20562247195271208
11.25990305,0.3678052914843944,-0.29858930756605345,-0.26099053865727884
11.26490302,0.37187507195075953,-0.3544349474169898,-0.26951620563303913
11.26990299,0.36191950387804955,-0.4047515541110768,-0.23251749638123087
11.27490295,0.3377083782636539,-0.4459185778494576,-0.15559062920324654
11.27990362,0.2999886424589657,-0.47502728017425067,-0.04809004540080445
11.28490365,0.25046309091909613,-0.490053866065058,0.07774031357963583
11.28990368,0.19169652970264134,-0.48996081716442585,0.20791563505817998
11.29490372,0.12695747515463984,-0.47472528819625504,0.3280460407262752
11.29990372,0.060003782229207034,-0.4452975123725768,0.4247455182450544
11.30490372,-0.0051796768863046,-0.40349405804632066,0.4869834214472293
11.30990368,-0.0646814471562394,-0.35183140617096087,0.5072406024449893
11.31490368,-0.11498678969998814,-0.2933064096297101,0.4823389405496501
11.31990368,-0.1532998924156405,-0.23113353336502684,0.41383725101883706
11.32490372,-0.17783173293780044,-0.1684551887517863,0.30792836272987195
11.32990372,-0.18801442908901933,-0.10804999137504483,0.1748275069115904
11.33490372,-0.18460400014012185,-0.05207155177618504,0.027703549756203632
11.33990372,-0.1696431460831851,-0.001853859600874811,-0.11873718060163656
11.34490372,-0.1462729089882437,0.0421842462309338,-0.2498586374923721
11.34990372,-0.11840365433681133,0.08051418538120968,-0.35271178236165435
11.35490368,-0.09027731486334288,0.11434798564824052,-0.4174743985196878
11.35990368,-0.0659702444066509,0.14537914295955973,-0.43854830564007957
11.36490368,-0.04889679766358989,0.1754479372945918,-0.41518843419866486
11.36990372,-0.041376878304033006,0.20617970201692362,-0.35159250016641036
11.37490375,-0.044325952372245694,0.23865215571209622,-0.2564416082316871
11.37990375,-0.05711347769104229,0.2731464063487903,-0.1419438351643172
11.38490371,-0.07761604693371738,0.309024859930525,-0.02248795566198899
11.38990368,-0.10246671949010082,0.3447593565939695,0.08694262063938452
11.39490368,-0.12747534463607973,0.3781079237369794,0.1724190581392623
11.39990368,-0.14817024404465176,0.40641342938172376,0.22259521789181966
11.40490371,-0.16039330940675312,0.4269770530950338,0.2299430350687954
11.40990305,-0.16087126257067821,0.4374476798188588,0.19155575188883178
11.41490305,-0.14768700207311888,0.4361669746605877,0.1094288971415166
11.41990305,-0.12058668276213537,0.42241873002719454,-0.009810126087221125
11.42490305,-0.08107924030012523,0.39654800235622367,-0.15568800211820377
11.42990305,-0.032313011990169345,0.3599374210663717,-0.31509065555666993
11.43490301,0.02125490160246056,0.31485114318497764,-0.4737427817511807
11.43990301,0.07435172833133331,0.26417725820944327,-0.6177863151397976
11.44490301,0.12147754133530299,0.2111132748171862,-0.7352732329190815
11.44990305,0.1575110318831212,0.15884403399114538,-0.8174016399504336
11.45490304,0.17825616962882795,0.1102565465908953,-0.8593587258624795
11.45990304,0.18086687997766496,0.06772403654928226,-0.8606851696782247
11.46490301,0.16410828051040913,0.032975835703390445,-0.8251356555212164
11.46990301,0.12843770484657038,0.007054571263323943,-0.760071169073414
11.47490301,0.07591251375911962,-0.009650277934263934,-0.6754730009606154
11.47990304,0.009951113101358228,-0.017311850387607013,-0.5827096275633731
11.48490304,-0.06501382661293517,-0.016541896063883944,-0.4932114295992527
11.48990304,-0.14394604933750962,-0.00825639287364455,-0.4172121434733969
11.49490304,-0.2216378021438766,0.0064504277398671015,-0.36270002519560285
11.49990304,-0.2931258038187637,0.026411495517103898,-0.3346887071203354
11.50490304,-0.3540596738074581,0.05046651118570238,-0.33487279696492556
11.50990301,-0.4009978074800761,0.0775159445911271,-0.36168285244776466
11.51490298,-0.43161266022234934,0.10655265667053826,-0.41070521234343893
11.51990298,-0.4447951506362665,0.13667502482630384,-0.475390622854664
11.52490298,-0.44065596329784734,0.1670845372049802,-0.5479467432835647
11.52990301,-0.42042926601659913,0.19706980595128346,-0.620296340759189
11.53490301,-0.38629154642091384,0.2259794332880905,-0.684985627762969
11.53990301,-0.3411151344836421,0.25318897616572467,-0.7359438925207714
11.54490298,-0.2881823502634831,0.27807144581602355,-0.7690229516301332
11.54990298,-0.23089083626029872,0.2999836283587459,-0.7822786677575079
11.55490298,-0.1724815392659053,0.31827913410407394,-0.7759917671791287
11.55990368,-0.1158167382049895,0.3323525269005323,-0.752456171595413
11.56490368,-0.0632269415152205,0.34170896766222314,-0.7155855014932077
11.56990368,-0.016434407860018044,0.34604411733400325,-0.6703997985979886
11.57490368,0.02344990571736093,0.34531314629014587,-0.6224551166278474
11.57990368,0.05586773159451551,0.3397677581102707,-0.5772712533734145
11.58490368,0.08070994445472628,0.3299464312805639,-0.5398017452799619
11.58990364,0.09818623296968651,0.3166141525947652,-0.5139793804275371
11.59490364,0.10868510536841557,0.3006610707389677,-0.5023625289904388
11.59990364,0.11263932430981986,0.28298141633889123,-0.5059030663842445
11.60490367,0.11041003534828388,0.2643613388551429,-0.5238540700673977
11.60990367,0.1022015395972297,0.2454043431450258,-0.5538319502837874
11.61490367,0.08801730217610662,0.2265148960020055,-0.592040214201761
11.61990364,0.06766538627425259,0.2079461231869474,-0.6336489455290873
11.62490361,0.04081723614107058,0.18990003845457262,-0.6733058912676311
11.62990357,0.007117368650175247,0.1726530674525995,-0.7057346009573773
11.63490357,-0.03366640021380905,0.1566700868937426,-0.7263564751926915
11.63990357,-0.08147085356347454,0.14266985705130952,-0.7318611676178551
11.64490361,-0.13576909686414118,0.13161455224162563,-0.7206472391939499
11.64990364,-0.19543594639268408,0.12461436462454806,-0.6930646578501527
11.65490367,-0.25867651531256447,0.12276039151793726,-0.6514129699905494
11.65990367,-0.3230416418028549,0.1269189473601224,-0.5996813859665242
11.66490367,-0.3855423454255481,0.1375321938960309,-0.5430547267105162
11.66990364,-0.44286021795887803,0.15447047704023079,-0.4872457118515824
11.67490364,-0.49163459257053704,0.17697158003850816,-0.43774283673816367
11.67990364,-0.5287935559189761,0.20368438664998548,-0.3990788096932026
11.68490367,-0.5518866625273646,0.2328132868202573,-0.3742243088021228
11.68990367,-0.5593741618161928,0.26233930503028413,-0.3641955553486224
11.69490367,-0.5508315085437432,0.2902784651087576,-0.3679343573558791
11.69990364,-0.527038513553987,0.314930581302184,-0.38248040826439406
11.7049036,-0.4899379132678854,0.3350741119049482,-0.40341365625784675
11.70990357,-0.44246574740674255,0.35007440744533164,-0.4255057990490592
11.71490357,-0.38827293855869643,0.35989087692393057,-0.44348999278889506
11.7199036,-0.33137141498712025,0.3649888985085906,-0.45284063112252493
11.72490363,-0.27574721528761653,0.366180040529762,-0.4504524999330272
11.72990367,-0.22498626085433315,0.3644257498975785,-0.43512093473043917
11.73490367,-0.1819558256476964,0.3606433738363242,-0.4077504879104119
11.73990367,-0.1485771387800437,0.35554941709067217,-0.37125624759239423
11.74490363,-0.12571347051184403,0.34956494653129305,-0.3301650774105178
11.7499036,-0.11318450197313942,0.34279434147358323,-0.28996808298662496
11.7549036,-0.10990236954550536,0.3350737638819575,-0.25631394630674437
11.75990363,-0.11410880475278078,0.3260727478557189,-0.2341587661843105
11.76490366,-0.12367885603087772,0.31542400975385343,-0.22699677999710544
11.76990367,-0.13644767449300826,0.3028545100210759,-0.23628609540302276
11.77490366,-0.15051443297068978,0.2882944776118895,-0.2611561175560483
11.77990366,-0.16448160932986933,0.27194844800818524,-0.2984432612726178
11.78490366,-0.17759759718375528,0.2543208417834402,-0.343054919470232
11.78990366,-0.1897845706887296,0.23619628324856243,-0.3886151348146129
11.79490363,-0.2015500278531316,0.2185806559501826,-0.4283052504554166
11.79990363,-0.21379722724356792,0.20261232551703418,-0.45578436687129537
11.80490363,-0.22756435488386836,0.18945404537938898,-0.4660617475257346
11.80990366,-0.24373271662169993,0.18017563983711474,-0.456198451980414
11.81490366,-0.26274936864275894,0.1756371247534883,-0.42573788467931883
11.81990366,-0.28440880038587857,0.17638250879077338,-0.3768015533095623
11.82490363,-0.30773138483203305,0.1825557756230852,-0.3138321620521446
11.82990363,-0.33096378366978324,0.19385115538271971,-0.2430150060867383
11.83490363,-0.3517098040767632,0.20950855253425393,-0.17145380436528745
11.83990366,-0.3671815448162302,0.22836138720032592,-0.10621253301295236
11.84490366,-0.37454235842927536,0.24893809660970778,-0.05335575709721753
11.84990366,-0.3712974846894291,0.2696104920837822,-0.017123144993506617
11.85490366,-0.3556776964983683,0.28877318470731,0.0006421167812478479
11.85990366,-0.32695839967011875,0.30503037300408714,0.0007251467096346328
11.86490366,-0.2856627059702935,0.3173616435221241,-0.013606986871595844
11.86990363,-0.23361158009925537,0.32523860757138273,-0.03711390498381575
11.8749036,-0.17380519173752287,0.3286697249596412,-0.06338367936319939
11.8799036,-0.11014411008077682,0.3281611905156756,-0.08581409122093761
11.88490363,-0.04702333491728536,0.3245958926758491,-0.09863065300504507
11.88990366,0.01114775915789454,0.31904757711610543,-0.09778951796193389
11.89490366,0.060434516031677696,0.31256016370476314,-0.08162631222533248
11.89990366,0.09780853383055152,0.3059299484457836,-0.05114591981105381
11.90490363,0.12146401195708902,0.29952982447712,-0.009899238282852824
11.90990359,0.13097879846658614,0.29320948577071,0.03654589021981408
11.91490356,0.12730283976758522,0.28629438474806,0.08146971477815246
11.91990356,0.11258104964806434,0.2776903911173269,0.11807719164861624
11.92490359,0.08983975708532786,0.2660830633013109,0.14062445261427767
11.92990296,0.062582849792738,0.2502032670934545,0.14542025069332254
11.93490209,0.034353606549682496,0.22911748544148192,0.13154191873470825
11.93990142,0.008320284598480889,0.2024938360518465,0.10114590461350267
11.94490052,-0.013062100827626807,0.17079516073638304,0.0593134001428459
11.94989982,-0.028273887700851593,0.13535933834342126,0.013442260745589133
11.95489892,-0.03681441339552372,0.0983434364191517,-0.02773410872645761
11.95989826,-0.03914462840851055,0.06252977474995462,-0.055363016071274355
11.96489762,-0.03650518954173118,0.031014571104916226,-0.06174971373194425
11.96989672,-0.030642601057262076,0.00681981538520466,-0.04151109098297963
11.97489606,-0.02348727428791288,-0.007516659310297009,0.0075619308740291855
11.97989642,-0.01683250069206946,-0.010311618148708944,0.08405996070388075
11.98489572,-0.012061400124798621,-0.001009326422256021,0.18299601139663782
11.98989569,-0.009960060384210658,0.01968809797694931,0.29633014515935563
11.99489502,-0.010640551706642931,0.04985661964120063,0.41390791472709815
11.99989502,-0.013579328627259314,0.08655014575437307,0.524684868103427
12.00489505,-0.017757573831759847,0.12613570383209874,0.6180711349974316
12.00989549,-0.021873881978715523,0.1647140004728698,0.6852170660092538
12.01489552,-0.024589678456474053,0.1985632559354336,0.7200740961453747
12.01989552,-0.02476552124059355,0.22454337303219843,0.7201005547623207
12.02489552,-0.0216513161552302,0.2404074417765603,0.6865327632249707
12.02989459,-0.01500360457142339,0.24498549395591654,0.6241992040735407
12.03489392,-0.005116324269732857,0.2382273500866554,0.5409123065973102
12.03989392,0.007234454653369573,0.2211131489275592,0.44652224843581295
12.04489395,0.020918712774081846,0.19545788215964172,0.35175507386269467
12.04989395,0.03463124076446371,0.163647213349101,0.26697948552331924
12.05489395,0.04709353242175411,0.1283450393455142,0.20105064283276505
12.05989395,0.05725017587022396,0.09220952599241662,0.1603652432073559
12.06489395,0.06443322798091006,0.05764597164981324,0.14823241349152094
12.06989395,0.06847292274772367,0.026614702874369397,0.16462358888552447
12.07489392,0.0697400963915017,0.0005028834131116084,0.20631684223481705
12.07989458,0.06911426681256573,-0.019937985624729992,0.26740289094748004
12.08489548,0.06788071247054275,-0.0345921071771247,0.3400771571050127
12.08989618,0.06756929308129798,-0.04392407084056346,0.4156102142959385
12.09489708,0.06975582767802922,-0.0488785902981013,0.4853719419959115
12.09989775,0.07585204416674225,-0.05074818657675171,0.5417847348902493
12.10489862,0.08691136838298634,-0.051022781008571765,0.5790973234155403
12.10989925,0.10347500891476516,-0.0512348000422075,0.5938997847561022
12.11489922,0.12547660472287203,-0.05281216749515554,0.5853373168804284
12.11990012,0.15221534814239865,-0.05695007438978034,0.5550199435970068
12.12490078,0.18239851423057934,-0.06451084388450312,0.5066622968837299
12.12990041,0.21424619099758094,-0.07595925353611661,0.4455175105307871
12.13490111,0.24564464401774352,-0.09133788253204392,0.3776888586155041
12.13990115,0.274330514336252,-0.11028319022808078,0.30941039515509255
12.14490181,0.298086121070389,-0.1320784150085524,0.24638325488152973
12.14990181,0.3149267233833811,-0.15573493757993428,0.19323870419869144
12.15490138,0.3232635945435707,-0.1800906481415298,0.15317541604637597
12.15990098,0.32203148288699934,-0.2039128671789795,0.1277911378731405
12.16490098,0.3107743738071884,-0.22599462325088826,0.11710270446747013
12.16990101,0.2896882858929104,-0.24523622882297386,0.11972718960868871
12.17490101,0.2596232492710951,-0.26070832721723713,0.13318321930807966
12.17990191,0.22204821295324917,-0.27169671299962905,0.15426552567070004
12.18490254,0.17898257074653678,-0.2777320328303984,0.1794465819117598
12.18990251,0.13289687529886926,-0.2786082022007495,0.20526458847187354
12.19490248,0.08658397567678837,-0.2743919335752275,0.228664905353523
12.19990248,0.04300132696507563,-0.26542276210310345,0.24727033886111313
12.20490251,0.005086649263473802,-0.2522996732608197,0.2595633897521762
12.20990254,-0.024447017550894828,-0.23584853512160375,0.2649704686923225
12.21490258,-0.04332501273961939,-0.21706527937233172,0.26384465072435176
12.21990258,-0.04991542948631846,-0.19703346573653127,0.2573504178922958
12.22490258,-0.04340141987492514,-0.17682085770002473,0.24726137263343742
12.22990254,-0.023897293138589983,-0.15736662790975026,0.23568983526127385
12.23490254,0.007512878437111444,-0.13937704667960082,0.22477472429941156
12.23990254,0.04882820041441622,-0.1232509459643564,0.2163600948074668
12.24490258,0.09727857033918458,-0.10905493728993863,0.21170030453677635
12.24990261,0.14955702697943227,-0.0965612123340207,0.21122836950705343
12.25490261,0.20211391575805301,-0.08534846560089031,0.21442107058602128
12.25990261,0.25147938089770044,-0.07495173090350658,0.21978718900366792
12.26490327,0.29457455019795276,-0.0650335850243724,0.22499358692553445
12.26990327,0.3289716099025069,-0.05554106466920873,0.2271281060736175
12.27490327,0.35306952814495096,-0.0468123517192079,0.22307979663257407
12.27990324,0.366164835141128,-0.039605255971028715,0.209998176282399
12.28490324,0.36841329751117297,-0.035033959632179604,0.1857770769056753
12.28990324,0.3606951427341188,-0.03441814525740213,0.1494981603238931
12.29490327,0.3444104163454614,-0.03906595752913372,0.10176668766315927
12.29990327,0.3212398202395023,-0.05002610795640123,0.04487888664392137
12.30490367,0.292908904563949,-0.0678523173921146,-0.017223622867369493
12.30990364,0.2609897714113996,-0.09242351257977238,-0.07923256732141153
12.31490361,0.2267655694996489,-0.12285535443454519,-0.13497500552237543
12.31990357,0.19117096040414586,-0.15752410420719168,-0.1780961103128341
12.32490357,0.1548086816467559,-0.1942052616653418,-0.20284962226987466
12.3299036,0.11803038090809592,-0.23031015563434473,-0.2048989266822763
12.33490364,0.081060729308714,-0.2631871093400138,-0.18201943351953617
12.33990367,0.04413865779728848,-0.2904430450281678,-0.13459600131535848
12.34490367,0.007648893482818174,-0.3102385311737378,-0.06582868445956719
12.34990367,-0.027779608575324202,-0.3215145537010109,0.018405769760316142
12.35490364,-0.06122530185551482,-0.3241210081995124,0.11004493463677745
12.35990364,-0.09148448939765344,-0.3188322648777317,0.19964413869181388
12.36490364,-0.1171404511251447,-0.3072512923998608,0.27740670116345195
12.3699028,-0.13668276046496758,-0.2916183332945961,0.3343193495638943
12.37490197,-0.14866144812019635,-0.27455111856158715,0.3632505952706333
12.3799011,-0.15185627208279356,-0.25874982271050656,0.3598688593193297
12.38490017,-0.1454399330313437,-0.2467010337649921,0.32325707123114333
12.38990013,-0.12911549222530494,-0.24041175222452182,0.2561383862270524
12.3949001,-0.1032117227008549,-0.24119851321180072,0.16467712981911575
12.39990006,-0.06872472503493456,-0.24954979831209878,0.05787274822051394
12.40490007,-0.027299263591780927,-0.26507285909264533,-0.0533842239253546
12.4099001,0.018851263662345987,-0.28652897468727395,-0.15748272334337443
12.41490013,0.06708151177104503,-0.3119536336068031,-0.24334905532844658
12.41990016,0.11449688775181838,-0.3388500087313023,-0.3016438910954939
12.42490016,0.15816634832275522,-0.3644361342785898,-0.32576079428589366
12.42990016,0.19534601488860862,-0.38592002775895945,-0.3125171984373503
12.43490013,0.22369372989949823,-0.40077416728314397,-0.2624703963431057
12.43990013,0.24145674440939988,-0.4069817398746856,-0.1798388040160945
12.44490013,0.2476185471096002,-0.40323140629359827,-0.07205458032915361
12.44990016,0.24199529373780085,-0.3890439917851382,0.05098902248126271
12.45490016,0.22527635133466772,-0.3648223193431412,0.17790726404592117
12.45990016,0.19900643505114118,-0.33182310305788504,0.2969102456790999
12.46490016,0.1655086693584975,-0.29205649390035243,0.39690494260402415
12.46990016,0.12774943022191568,-0.24812421376337976,0.4685190685879717
12.47490016,0.08914805598726035,-0.20301123403288993,0.5049649313500434
12.47990013,0.05333802204649816,-0.1598484582380912,0.5026762900527766
12.48490013,0.02389095978620168,-0.12166456865468352,0.4616680096482083
12.48990013,0.004020734152359077,-0.09114440071028203,0.3855869790666709
12.4948993,-0.0037089704415368195,-0.07040991132170199,0.2814436109967882
12.49989933,0.002354857557847957,-0.0608387327515162,0.15903619181679657
12.50489933,0.022755790872331597,-0.06293420895478506,0.03010458084426482
12.50989929,0.05681726693302256,-0.0762590901495306,-0.09272603548318632
12.51489926,0.10263867225309063,-0.09944255957880044,-0.19712812456180126
12.51989969,0.15720685238762358,-0.13026699373211958,-0.27227995685533
12.52489969,0.21662059937211864,-0.16583625639186472,-0.30998622226577305
12.52990059,0.27641424677429993,-0.20282043186585194,-0.30559710999623374
12.53490149,0.33195522173313474,-0.237762369774843,-0.2586216356728179
12.53990149,0.3788800789722749,-0.26742037317400624,-0.17295195744294287
12.54490149,0.41352548422701707,-0.2891113136489238,-0.05664699645585848
12.54990149,0.43330633322811285,-0.30101229534686286,0.07873538053927572
12.55490149,0.436994006074034,-0.30237888073305735,0.2192205439457477
12.55990146,0.42485460781876044,-0.29364470369672657,0.34982602303674504
12.56490146,0.3986204331013719,-0.27638065711623444,0.4561620944834744
12.56990146,0.3612875031503972,-0.25311029511557337,0.5260520015104844
12.57490149,0.3167559832225929,-0.22699903495898466,0.5509811456713262
12.57990149,0.2693548073870494,-0.20145455535962273,0.527190452068382
12.58490149,0.22331201412196652,-0.17969063347017342,0.4562616106645029
12.58990146,0.1822436625809956,-0.16431371076086804,0.3450982937950653
12.59490146,0.14873394618545002,-0.15698956676314055,0.20528056578108586
12.59990146,0.12406661778083382,-0.15823689617231115,0.05184926733648127
12.60490149,0.1081447890858551,-0.16737666515468116,-0.09834837464578891
12.60990149,0.0996065369967206,-0.18264330695644307,-0.22856218557094632
12.61490149,0.09611320965598646,-0.20143978718986166,-0.3240676618694916
12.61990149,0.09476190734143909,-0.22069774049626942,-0.3738903927468525
12.62490149,0.09255793321644439,-0.2372901461472136,-0.37211992224770285
12.62990149,0.0868789036426784,-0.24843943167654778,-0.31865441879023615
12.63490146,0.07586860221066102,-0.25206824726988974,-0.2192834540278721
12.63990142,0.05871266193003531,-0.24705153335783636,-0.08509220013207919
12.64490229,0.03576639457325215,-0.23334422053633258,0.06875221102940884
12.64990229,0.00852449129878759,-0.21197607315252642,0.22470085445183985
12.65490232,-0.020559492710685787,-0.18492120565859893,0.36482181439969386
12.65990232,-0.04838047494882194,-0.15486281688238066,0.47287244722763866
12.66490232,-0.0715804829700155,-0.12488283355086907,0.5362056559274831
12.66990272,-0.08699441904460853,-0.09811137866585012,0.5472822914508847
12.67490356,-0.092093547161964,-0.07737278742310211,0.5046006126084989
12.67990352,-0.08537565403701694,-0.06486405044360335,0.4129180333059293
12.68490352,-0.06665342227399129,-0.06189859275546105,0.28272394783528304
12.68990355,-0.03720025940637648,-0.06874305835408628,0.12901504108344766
12.69490359,0.00027389125581708703,-0.08456678496735942,-0.030486177431756117
12.69990362,0.04182596383829491,-0.10751295197783874,-0.17745498702390552
12.70490362,0.0826501080538972,-0.13488784506165438,-0.2951675126121764
12.70990362,0.11758046474912187,-0.16345154398473846,-0.37050600291838287
12.71490359,0.14167196932818998,-0.1897807080167782,-0.39551194281598956
12.71990359,0.1507902257178493,-0.21066310152782955,-0.3682907997082657
12.72490359,0.1421352490581974,-0.2234756521183364,-0.29315750825674036
12.72990362,0.11462800905355247,-0.226495374555448,-0.18001166097815516
12.73490362,0.06910370883823092,-0.21909754405497023,-0.04303176495447403
12.73990362,0.008280142780945061,-0.20180880691042452,0.10113451994275165
12.74490359,-0.06350006567908138,-0.1762030465212393,0.2354440885152482
12.74990355,-0.14072278090321316,-0.1446515649246442,0.3445259856451163
12.75490352,-0.2172927453761292,-0.10996256030079857,0.4164804153433086
12.75990352,-0.28718305263568766,-0.0749640203646725,0.4441902725169537
12.76490352,-0.3450579979935263,-0.04209522914950226,0.42599833336015985
12.76990355,-0.3867894434324007,-0.013072031710012174,0.36569189180132344
12.77490358,-0.40980559949138967,0.01132138047294337,0.2718281753449404
12.77990362,-0.4132392724509084,0.03128436694857531,0.15651512928673392
12.78490362,-0.39787420337790474,0.04789432401653964,0.033822808461885845
12.78990362,-0.365916485288273,0.06287033399051652,-0.08196531965248488
12.79490358,-0.32063811750713267,0.07825287412853618,-0.17804568946641827
12.79990358,-0.26594967323285407,0.09605589470330966,-0.2445361386670816
12.80490358,-0.2059598869452155,0.11794595260282584,-0.2755084213506948
12.80990362,-0.1445739701201692,0.14499266469800248,-0.2695085915772026
12.81490362,-0.08517160581661574,0.177518729916496,-0.22952545062378152
12.81990362,-0.030391370695568923,0.21505954860708076,-0.1624334775126397
12.82490362,0.017967567732867194,0.2564252311269821,-0.07799818616085392
12.82990362,0.05893117594796435,0.29984420230999237,0.012418904118312432
12.83490362,0.09224150820844446,0.3431594918411387,0.0972874815634636
12.83990358,0.11817989348515792,0.3840467689133908,0.16629015291766414
12.84490358,0.13735412470760341,0.42022647397417456,0.2114934195683141
12.84990358,0.15048207635773408,0.44964919711098555,0.22817480599574738
12.85490361,0.15820141336287508,0.47064159290646074,0.21522030309869866
12.85990361,0.16092943464495416,0.48200782292224553,0.1750623971438093
12.86490361,0.15878904964689697,0.4830876277590954,0.11318647064866512
12.86990358,0.15160719319050162,0.47377591989380535,0.03728496216658258
12.87490355,0.13898200419095524,0.45450985926699194,-0.04382159538749437
12.87990351,0.12040630379604031,0.4262280479122837,-0.1213535699679215
12.88490351,0.09542825743092209,0.39030406843772153,-0.1876818282791321
12.88990351,0.06382585070226929,0.3484549779666619,-0.23723997647326167
12.89490354,0.02576984753987318,0.30262615439875384,-0.2671292522182689
12.89990358,-0.018049747532929192,0.25485751970456283,-0.27734749896612965
12.90490361,-0.06635566321579481,0.2071414324892124,-0.27062361793945217
12.90990361,-0.11728959662987888,0.16128707883005275,-0.2518909831025419
12.91490361,-0.16849954791297359,0.11880785618984026,-0.22748039583291227
12.91990358,-0.21730434681929062,0.08084628665729297,-0.20414859849863023
12.92490318,-0.26092066453596074,0.04814600781747331,-0.188077332515645
12.92990251,-0.2967285818413744,0.021073453239112323,-0.18397828589070542
12.93490164,-0.3225452761515475,-0.00031608470340726663,-0.1944216868287843
12.93990098,-0.3368733286030801,-0.01618116962500448,-0.21947383931269326
12.94490008,-0.33909115432606274,-0.02678506584177533,-0.2566864386870704
12.94989938,-0.3295585137877975,-0.03239668396181125,-0.30143392410225633
12.95489934,-0.30961960133367844,-0.033221438941090156,-0.34755044845211147
12.95989864,-0.2814984896892262,-0.029375280684233014,-0.3881806742879932
12.96489774,-0.24809494247310745,-0.020905985778210442,-0.416732683465928
12.96989688,-0.21270115235671366,-0.007856103235090206,-0.4278093649956103
12.97489674,-0.17867038520640005,0.009646615922306272,-0.4179976395699263
12.97989677,-0.14907536307349828,0.0312915754564976,-0.38641232541761383
12.98489611,-0.12639620070359944,0.05650307283792244,-0.33492166984436034
12.98989611,-0.1122741984320013,0.08439357802586143,-0.26802150004216363
12.99489607,-0.10735925491810705,0.11376562753921192,-0.19236993403771985
12.99989537,-0.11126660911108828,0.14316538569199144,-0.11603868124360991
13.00489537,-0.12264511096570997,0.1709807793836742,-0.04757383739456413
13.00989541,-0.13934620484922297,0.1955695010248006,0.00501653301307299
13.01489477,-0.15867182008519515,0.21539846287994677,0.035221928184007566
13.01989477,-0.17767162062952355,0.22917644461389586,0.03881743172222606
13.02489477,-0.1934564277555876,0.23596485745064935,0.014384034762635849
13.02989477,-0.20349514284187203,0.2352564870093858,-0.03650062778881972
13.03489387,-0.20586626560873075,0.22701728518944825,-0.1094213978440758
13.03989387,-0.19944097396987465,0.2116905317679973,-0.1976113523939484
13.04489384,-0.18398209469651775,0.19016554324510884,-0.2927011646664585
13.04989384,-0.16015201870267948,0.16371493680372073,-0.38563803804408425
13.05489384,-0.12943227993835943,0.13390592726530612,-0.4676622166171831
13.05989347,-0.09396691997329515,0.10249259438075925,-0.531226545499686
13.06489397,-0.0563492550267083,0.0712972394464504,-0.5707572286725234
13.06989397,-0.019375999036147798,0.04208933063262141,-0.5831788484121019
13.07489434,0.014206349534527313,0.016470063760802848,-0.5681589664641941
13.079895,0.041939684609893474,-0.004230194245376427,-0.528061715640824
13.0848959,0.06185737715858793,-0.01903492069907498,-0.4676309921503782
13.0898966,0.07263731510416317,-0.027379032590430667,-0.39344912300532825
13.0948975,0.0736954055723085,-0.029136792610757672,-0.31323480788721103
13.09989817,0.06521562701386202,-0.024618272647362216,-0.2350543517291412
13.10489817,0.04811767651331712,-0.014535338789399634,-0.16652292414634523
13.10989884,0.023967194380334185,5.9778318629295226e-05,-0.11406863496470684
13.11489974,-0.0051633814934946305,0.01785901715809652,-0.08232308189755418
13.1199006,-0.03687262204669348,0.03740102528522891,-0.07368938712471468
13.12490073,-0.06863326551637772,0.05718573542082179,-0.0881238701048517
13.12990073,-0.09800480499793938,0.07579379129552925,-0.12315105826774636
13.1349014,-0.12283718384069148,0.0920021733618073,-0.17411396060773884
13.13990143,-0.14144574153596695,0.10488599400583996,-0.23464266241398093
13.14490143,-0.1527380047339929,0.11389566098221653,-0.29730494571039207
13.1499021,-0.1562765085506151,0.11889912794891429,-0.35438393938691753
13.15490207,-0.15226884920161243,0.12018129940523421,-0.3987114104300477
13.15990203,-0.1414855862415832,0.11839680900769682,-0.4244732836503154
13.16490266,-0.12511663849896765,0.11447773782395212,-0.42789862574571935
13.16990266,-0.10458581098477963,0.10950368366971568,-0.40774688400482345
13.1749027,-0.08134991058864521,0.10454749074528703,-0.36552227163350165
13.17990273,-0.05671261510849219,0.10051540431216625,-0.30536931906393766
13.18490366,-0.031682825292574615,0.09800439622035298,-0.23363867421830953
13.18990366,-0.0069017779741059725,0.09720046997590795,-0.15815431090770243
13.19490366,0.0173473175438411,0.09783873912828299,-0.08725742538019549
13.19990363,0.041047631545101965,0.09923865913896934,-0.02874158871112408
13.20490363,0.06429113597754282,0.10041653090713912,0.011179610954911028
13.20990403,0.0870851826296348,0.10026358986767168,0.02872396295418399
13.21490356,0.10916307006266546,0.09776387311650604,0.023078654856616403
13.21990356,0.12984160476709686,0.0922148096675073,-0.003468299001510771
13.22490356,0.14796372484265108,0.08340843761666998,-0.04583863618004806
13.22990353,0.1619511523638612,0.07173438347208673,-0.09688400120372566
13.23490349,0.16997253027876763,0.05817727621835575,-0.1484167311275815
13.23990346,0.17020979154622365,0.044199362480611105,-0.19239909767441254
13.24490313,0.16118371173392654,0.031520709170053396,-0.22210901244514497
13.24990313,0.1420832364155656,0.021830517860467694,-0.23310000632399225
13.25490316,0.11303634039972665,0.016479256286029764,-0.22380363160528027
13.25990319,0.07526518725370783,0.016208683631759854,-0.1956787164619185
13.26490323,0.03108479089513172,0.020973430348612505,-0.15288499282766105
13.26990322,-0.016270685667813218,0.029894003372993267,-0.10153637614503633
13.27490323,-0.0629806859417679,0.041359190020605834,-0.0486585451034732
13.27990319,-0.10508804593446745,0.053269159393491076,-0.001024900597817085
13.28490322,-0.13900043920577074,0.06338331080955265,0.035933950092252635
13.28990322,-0.16196485335559882,0.06971421485295155,0.05896387984609299
13.29490326,-0.17243666415515516,0.07089610242016098,0.06742506570835655
13.29990326,-0.17027925292556245,0.06645699810622709,0.06326476755448525
13.30490326,-0.15675651332058213,0.056938533257938774,0.050538568071971955
13.30990326,-0.13431469222021705,0.04383434366087132,0.034573491307908974
13.31490259,-0.10618616929722442,0.02935185824839511,0.020928915147144088
13.31990259,-0.0758795977658625,0.016036588696870156,0.014345478978935478
13.32490256,-0.04664201124898023,0.006325585153497548,0.01787263555513649
13.32990256,-0.020984401580920818,0.0021116145981506683,0.03233202064316471
13.33490256,-0.00035132265198760496,0.004398763788256176,0.05621192487147237
13.33990259,0.015010771218294744,0.013113906099895031,0.08600857623120273
13.34490259,0.02596762504188842,0.027110052934814957,0.11694712075526045
13.34990259,0.034214139071926504,0.044362290479362215,0.14394459766470308
13.35490256,0.04184994538796363,0.06232122024320006,0.1626322895162603
13.35990256,0.05089430244170485,0.07835925949791596,0.17024429146379166
13.36490256,0.06283100458329607,0.09022747317120625,0.16620500893840537
13.36990259,0.07826726716444832,0.09643827071988235,0.15230527898115997
13.37490262,0.09676826202071151,0.09650298979120585,0.13243351527948574
13.37990262,0.11689535922686616,0.09098086610501321,0.11190988636969487
13.38490262,0.13643785299555547,0.08133215022070636,0.09654298325360901
13.38990262,0.15279269309094207,0.06960602067696942,0.09157710600413849
13.39490295,0.16342133981322687,0.05802561675187011,0.10071615777524746
13.39990295,0.16630170041073275,0.04855154671776831,0.12539509345521443
13.40490292,0.160297305352121,0.042508227816465745,0.16442585700356202
13.40990292,0.14538345121211055,0.0403443047963806,0.2140803008791645
13.41490292,0.1226967339713297,0.04157188752490528,0.2685988895608814
13.41990295,0.09440487346818542,0.04489445494968033,0.3210431405052933
13.42490295,0.06342272204878979,0.04849663231100336,0.3643533487373281
13.42990295,0.03302355964829215,0.050437657643828356,0.3924406759373741
13.43490292,0.006409084361811546,0.049070140158849605,0.40113957096462566
13.43990288,-0.013695089416491724,0.04340063336458472,0.38887250589060335
13.44490285,-0.02535962058172544,0.03332004563787664,0.3569283885748261
13.44975557,-0.02764628672453068,0.019658262252665006,0.3093190497711945
13.4547556,-0.020660165647257908,0.0040532949917985875,0.25224354397311
13.45975563,-0.005466442765674938,-0.011337048705418963,0.19324705047072863
13.46475633,0.01610025981486656,-0.02422188197373161,0.14020198879535117
13.46975633,0.04169323285261849,-0.032585320113297456,0.10025903201667506
13.47475633,0.06873349822491352,-0.03503765010744358,0.07891373514518381
13.4797563,0.09467336887166646,-0.03104633489710932,0.07931221147890358
13.4847563,0.11721651843343137,-0.021010688403658294,0.10188094357992548
13.4897563,0.13448083102971264,-0.006176375577306506,0.1443175079363038
13.49475633,0.14510236694638273,0.011583917676345359,0.20192794036502432
13.49975637,0.148287479011736,0.03007507024966042,0.26825012209987364
13.50475637,0.1438247500398503,0.04710977422947958,0.33586750518464126
13.50975633,0.13206887898040345,0.06080581232926706,0.39729841573617053
13.5147563,0.11390536062854441,0.0698034533611469,0.4458450541219729
13.51975626,0.0906991232106505,0.07337562234630476,0.47630191440037517
13.52475623,0.06422432079075592,0.07142662802060089,0.48545155754112984
13.52975623,0.03656839967201837,0.0643970130380195,0.4723106508947739
13.53475626,0.010002975233327764,0.053108026891893506,0.43812458471299476
13.5397563,-0.013182299801392105,0.0385862733777301,0.38613901368714915
13.54475633,-0.03087914288913234,0.021906539362976797,0.32119725027169166
13.54975633,-0.04137957213524202,0.004080338193886881,0.2492220658498847
13.55475633,-0.04359046588248114,-0.013997483878073676,0.17664040368287276
13.5597563,-0.037212406822065364,-0.031547870839329285,0.10980296199719149
13.5647563,-0.022849384007923176,-0.04786964882722245,0.05444123875886834
13.5697563,-0.002020983936438496,-0.06228957656729561,0.015195362156715965
13.57475633,0.022939057513415982,-0.07412581954235332,-0.004761526366538608
13.57975633,0.04909669958745374,-0.08268397297194181,-0.003982153748298457
13.58475633,0.07322370303867778,-0.08729391813720956,0.017128449662139014
13.58975633,0.0921594538231803,-0.08738370304110424,0.05632984024084167
13.59475633,0.10318138230061179,-0.08257639343172692,0.10971072297296346
13.59975633,0.10433415612496347,-0.07278952347274571,0.17199672201067204
13.60475629,0.0946733641597544,-0.058315035466557016,0.23698613435091356
13.60975629,0.0743918800127095,-0.0398600037463673,0.2980866240717634
13.61475629,0.04481403223752109,-0.018534228034595385,0.3489139761601951
13.61975633,0.008261182598336962,0.004220812611729173,0.3839032374683444
13.62475636,-0.032190581338662864,0.026757170540135888,0.3988742986500031
13.62975636,-0.07302674925817362,0.047385345509029286,0.39149046491418177
13.63475633,-0.11064338336631344,0.0645564340270096,0.3615525005744495
13.63975629,-0.14168672472633742,0.07703487585314021,0.31108385174261094
13.64475629,-0.16334696286124628,0.08403603031737757,0.24418487400281919
13.64975629,-0.17358037841985438,0.08530869917882479,0.16666186785029344
13.65475633,-0.171247246731875,0.08115219795080657,0.08546567229585775
13.65975632,-0.15616555003132682,0.07236830041085855,0.007999344701997374
13.66475632,-0.12909010435206542,0.06015796367454245,-0.05862903066187947
13.66975633,-0.09163170899700206,0.04597952472240776,-0.10832656422394206
13.67475632,-0.04613121886832501,0.03138830286221277,-0.13663236818557545
13.67975633,0.0044998106167377485,0.017877331348247132,-0.14116931633145222
13.68475629,0.056964802671572945,0.0067359953724720105,-0.12188971518534052
13.68975629,0.10779035307014674,-0.0010612275106968601,-0.08109605861507305
13.69475629,0.15355327474145977,-0.0049287631927977344,-0.023238659303217026
13.69975632,0.19111917422325364,-0.004704060432932146,0.04549051659763411
13.70475632,0.2178786306315839,-0.0006428043158171597,0.1177338915414393
13.70975632,0.23195978418688293,0.006621242543206625,0.1856675644121447
13.71475629,0.23239136835291024,0.016146522659109295,0.24176553711157564
13.71975626,0.21919073937402261,0.026777762791805455,0.2795603388516078
13.72475622,0.19335859239328612,0.03725690212855917,0.29432477792100714
13.72975622,0.15677505464348554,0.04634356434834351,0.28359942778536745
13.73475626,0.11200796783338465,0.05293734084022145,0.2474997250466174
13.73975629,0.06205944792405665,0.05619325460728493,0.18875635563167334
13.74475632,0.010087280498790959,0.05562028231635435,0.11247162403866036
13.74975635,-0.0408594352963566,0.05115119447167327,0.025608961779595072
13.75475635,-0.0880566112541759,0.04317128633565406,-0.06373276162400754
13.75975632,-0.1292523656427649,0.03249519615127358,-0.14717953054566668
13.76475629,-0.16274028551563283,0.020286148915840622,-0.21697781673793412
13.76975629,-0.18736936143605165,0.007920832099119363,-0.26682101226591376
13.77475629,-0.20251162092779745,-0.003185755661684112,-0.29251119618036087
13.77975632,-0.2080116394451394,-0.01177063585144399,-0.2923824848653141
13.78475632,-0.20413822628456277,-0.01689690326847526,-0.26744250585717444
13.78975632,-0.191549868489335,-0.018079842317667193,-0.22122240081416777
13.79475628,-0.17127499065929122,-0.015340622856613416,-0.15935870291087506
13.79975625,-0.1446987413116279,-0.009176571391439117,-0.08895900511927414
13.80475622,-0.11354226833741428,-0.000453791666640287,-0.017825076422586742
13.80975622,-0.07981962755699175,0.009756037197020733,0.04637962767816863
13.81475625,-0.04576144430316712,0.020361346384687666,0.09692710171805846
13.81975628,-0.01370172292328077,0.030421285065433373,0.12870102785880302
13.82475632,0.014067456323903528,0.039267868648646974,0.13868099596562283
13.82975632,0.03546125710804993,0.04655792995260653,0.12618589461427898
13.83475632,0.04877014674253765,0.0522493302186393,0.0928556579583318
13.83975628,0.05281077252296587,0.05651263910815457,0.04238100211329235
13.84475628,0.04703979217579154,0.05960291262364164,-0.019980165066834737
13.84975628,0.03161390681438266,0.06172342310427559,-0.08803718349992193
13.85475632,0.0073856363383019,0.06291299356492135,-0.155374043070261
13.85975632,-0.0241668144321746,0.06298153378065,-0.21604652623187542
13.86475632,-0.06106750917792801,0.061506479426558056,-0.2651906882448336
13.86975632,-0.10101192427656057,0.057888938272257225,-0.2994781093979748
13.87475632,-0.14155537973214186,0.05145558462407104,-0.31737418987051325
13.87975632,-0.18029812195590203,0.04158353936624941,-0.3191808068014345
13.88475628,-0.2150482312076616,0.0278223749568783,-0.30687065930563456
13.88975625,-0.24395055232531065,0.009990150330852798,-0.2837444284520927
13.89475625,-0.2655778819645337,-0.011772327941618978,-0.2539608877901809
13.89975625,-0.2789872957863481,-0.03699526441114427,-0.22200247765203218
13.90475628,-0.2837480133241919,-0.06491848522606748,-0.1921433928589016
13.90975628,-0.2799471005381503,-0.09456430870253138,-0.16798326479627967
13.91475628,-0.26817643628146604,-0.12482963087195095,-0.1520973369959968
13.91975625,-0.2495003043092629,-0.15458102637435314,-0.1458354872136161
13.92475558,-0.2253994168093981,-0.18273878177796093,-0.1492808217336023
13.92975491,-0.1976856057360354,-0.2083406694006877,-0.16135756123034797
13.93475404,-0.16838285899118935,-0.23058268965769232,-0.18006058171926856
13.93975338,-0.13957508669070987,-0.24884006149409282,-0.20276711131949704
13.94475248,-0.11322824274530761,-0.26267545036923073,-0.22658542157402695
13.94975181,-0.0910025399095587,-0.27184158723210344,-0.24869580374279873
13.95475091,-0.07407729167805767,-0.2762823480950247,-0.2666450915183751
13.95975024,-0.06301426368092042,-0.2761318434691375,-0.27856641439820773
13.96474954,-0.057683786733113106,-0.2717074883218797,-0.28330910189859926
13.96974888,-0.05727070711261512,-0.26349206714280377,-0.2804774934087177
13.97474821,-0.06036532739108512,-0.25210175165789567,-0.2703893177547377
13.97974734,-0.06513023467999456,-0.23824088531617577,-0.25397213476876607
13.98474734,-0.06952082805792367,-0.22264853536753137,-0.23261914996955643
13.98974734,-0.07152875717200734,-0.20604483862754652,-0.20802422541711396
13.99474751,-0.06941524755128765,-0.1890860452907984,-0.18201202595083477
13.99974748,-0.06190535573726834,-0.1723355197280613,-0.15637515916860845
14.00474744,-0.04832287218895738,-0.1562540148599296,-0.13272752955243614
14.00974677,-0.028656260049506433,-0.14120721482111573,-0.11238243861432796
14.01474677,-0.003555985909493852,-0.12748341477379915,-0.09626434760106808
14.01974641,0.025729080161235963,-0.11531104850536161,-0.08486281318565887
14.02474644,0.05746450718148455,-0.10486588727870617,-0.07823413932401517
14.02974647,0.08957950423351808,-0.0962614330007501,-0.07605019462928801
14.03474647,0.11984005236749219,-0.08952234508886714,-0.07768571865037056
14.03974717,0.14603428741095495,-0.08454762705661721,-0.08232768872155154
14.04474714,0.16615846960827915,-0.08107549896885084,-0.0890857487662444
14.04974714,0.17859100318027846,-0.07866378899679576,-0.09708339562674766
14.05474714,0.18224091371054993,-0.07669761817827908,-0.10551596045200398
14.05974717,0.17665698182552475,-0.07443041480408799,-0.11367170086535748
14.06474717,0.16208521708286816,-0.07105620044856503,-0.12092326646869533
14.06974717,0.13946598862144768,-0.06580280994251402,-0.12670490041589452
14.07474781,0.11036779905481581,-0.058029647124080486,-0.13049360375425964
14.07974844,0.07686162600919033,-0.04731159289549093,-0.13180961141689815
14.0847493,0.04134677849381593,-0.03349342722235787,-0.13024419415516403
14.08974997,0.006345200014212775,-0.016705790914298486,-0.12551336903251256
14.0947509,-0.025714709398171755,0.002657657854800036,-0.11752714024662193
14.0997516,-0.052701961985165836,0.023994007826067216,-0.1064575110141647
14.10475254,-0.07295293376864431,0.046562148976250176,-0.09278599898160127
14.1097532,-0.085390117874601,0.0695555512682775,-0.07731316766551029
14.11475387,-0.08957954819897995,0.0921633358447563,-0.06111838219503431
14.1197545,-0.08572565957446006,0.11361152849748732,-0.045466553429846464
14.12475513,-0.07461132965124555,0.13318317272429644,-0.0316685121481994
14.12975603,-0.05749804997877151,0.1502222441360801,-0.02091117230188829
14.13475607,-0.03600505302856739,0.16413044671808502,-0.014081270803771855
14.1397561,-0.011985975229967265,0.17436717296143972,-0.011610976645568639
14.14475517,0.012582626423606589,0.18046110237716795,-0.013374125137847895
14.14975517,0.035693895342840745,0.1820375159263686,-0.018657637324085194
14.15475517,0.0553860455443223,0.1788592969628772,-0.026223657301622513
14.15975583,0.06980969873239301,0.17087325470068007,-0.034464687253547684
14.16475583,0.07730053621093602,0.1582488068743567,-0.04163810414000875
14.1697562,0.07646945909931298,0.14139504232324493,-0.04615031987435181
14.1747562,0.06631571425429135,0.12094570668829238,-0.046847467609543156
14.1797562,0.04635776514205765,0.09770920065679228,-0.04326200522170957
14.18475623,0.01676521226446705,0.07259015630380568,-0.035765642227518324
14.18975553,-0.02153368909121943,0.04649750083147022,-0.025589686774752474
14.19475553,-0.06679770199160759,0.02025831089291767,-0.014693335442300719
14.1997555,-0.11649691998352375,-0.005444249845280533,-0.0054855259082744485
14.2047555,-0.16743144566297208,-0.030096656467757044,-0.0004322194844663278
14.2097555,-0.21594584268299558,-0.05334121839359609,-0.0016035331199168933
14.21475553,-0.25822482477918407,-0.07492877965992349,-0.010230015130210825
14.21975553,-0.2906414104054327,-0.09465085149241068,-0.02634217537456307
14.22475553,-0.31011888212139327,-0.11226744951950361,-0.0485614003803564
14.22975553,-0.31446374114291986,-0.1274468810288405,-0.07409409262288522
14.23475553,-0.30262856428338863,-0.1397312723112378,-0.09895566180313209
14.23975553,-0.274870349842009,-0.14853770366188399,-0.11841915885221907
14.2447555,-0.23278028989225755,-0.1531999696512332,-0.12764820425019793
