Time (s),Acceleration x (m/s^2),Acceleration y (m/s^2),Acceleration z (m/s^2)
4.004179232,-604942.2746535111,-190188.6557775724,17844.50439089017
4.008934701,-601758.941276027,-188968.9441296863,18299.447122742997
4.01369017,-598576.3583504922,-187750.83571982544,18751.866380474847
4.018445586,-595394.5987533788,-186534.3492505343,19201.76645536433
4.023201055,-592213.7350455812,-185319.5033368589,19649.151664284946
4.027956472,-589033.8394686963,-184106.31650634922,20094.026348981708
4.03271194,-585854.9839415253,-182894.8071990155,20536.39487536619
4.037467357,-582677.2400567952,-181684.99376724166,20976.261632830272
4.042222826,-579500.679078092,-180476.8944756593,21413.631033578687
4.046978242,-576325.3719369994,-179270.52750098513,21848.507511980442
4.051733711,-573151.3892304349,-178065.91093182372,22280.89552393888
4.056489128,-569978.801218182,-176863.06276843572,22710.799546280265
4.061244597,-566807.6778206128,-175662.0009224719,23138.224076160568
4.066000065,-563638.0886165948,-174462.74321667376,23563.1736304901
4.070755482,-560470.1028415748,-173265.3073845428,23985.65274537571
4.075510951,-557303.7893858395,-172069.7110699803,24405.665975580552
4.080266367,-554139.2167929505,-170875.9718269006,24823.217894001435
4.085021836,-550976.4532583553,-169684.1071188197,25238.313091163913
4.089777253,-547815.5666281694,-168494.1343184182,25650.956174734853
4.094532722,-544656.6243981264,-167306.07070707748,26061.15176905205
4.099288138,-541499.6937126891,-166119.93347438687,26468.904514670667
4.104043607,-538344.8413643196,-164935.7397176214,26874.219067926417
4.108799076,-535192.1337929043,-163753.50644119273,27277.100100515323
4.113554492,-532041.6370853285,-162573.25055607644,27677.55229908995
4.118309961,-528893.4169751895,-161394.98887921893,28075.58036487181
4.123065378,-525747.5388426399,-160218.73813292544,28471.18901327954
4.127820847,-522604.0677143517,-159044.5149442332,28864.3829735725
4.132576263,-519463.06826359074,-157872.3358442734,29255.16698850927
4.137331732,-516324.60481038585,-156702.2172676247,29643.545814020676
4.142087201,-513188.7413217838,-155534.1755516621,30029.524218896673
4.146842617,-510055.5414121777,-154368.22693590226,30413.1069844867
4.151598086,-506925.06834369915,-153204.38756134742,30794.298904413125
4.156353503,-503797.3850266683,-152042.6734698292,31173.10478429716
4.161108972,-500672.55402009754,-150883.1006033556,31549.52944149674
4.165864388,-497550.63753224304,-149725.68480346352,31923.57770485562
4.170619857,-494431.69742120046,-148570.441810579,32295.25441446289
4.175375326,-491315.7951955323,-147417.38726338692,32664.564421421845
4.180130742,-488202.9920149191,-146266.53669821113,33031.51258762728
4.184886211,-485093.3486908242,-145117.90554840685,33396.10378555021
4.189641628,-481986.92568716634,-143971.50914376724,33758.3428980291
4.194397097,-478883.783120998,-142827.3627099458,34118.23481806701
4.199152513,-475783.9807631855,-141685.48136789422,34475.7844486342
4.203907982,-472687.5780390864,-140545.88013331493,34830.99670247565
4.208663451,-469594.6340292188,-139408.57391612759,35183.87650192273
4.213418867,-466505.2074699129,-138273.57751994868,35534.42877870822
4.218174336,-463419.35675394075,-137140.9056415831,35882.65847378365
4.222929753,-460337.13993111847,-136010.57287052576,36228.57053713864
4.227685222,-457258.61470887595,-134882.59368847145,36572.16992762165
4.232440638,-454183.8384527946,-133756.98246883033,36913.46161276219
4.237196107,-451112.8681871102,-132633.75347624824,37252.450568594475
4.241951576,-448045.7605951806,-131512.9208661294,37589.14177948231
4.246706992,-444982.57201992103,-130394.49868416134,37923.540237945184
4.251462461,-441923.3584642067,-129278.50086584206,38255.650944485395
4.256217878,-438868.1755912447,-128164.94123600972,38585.47890741558
4.260973347,-435817.0787249125,-127053.8335083754,38913.029142686144
4.265728763,-432770.1228500622,-125945.19128505934,39238.306673711886
4.270484232,-429727.3626127938,-124839.0280561307,39561.31653119689
4.275239701,-426688.85232069844,-123735.35719915073,39882.06375295687
4.279995117,-423654.6459430755,-122634.19197871869,40200.553383738275
4.284750586,-420624.79711112595,-121535.5455460204,40516.79047503405
4.289506003,-417599.35911812587,-120439.43093838026,40830.780084895974
4.294261472,-414578.3849195821,-119345.86107881788,41142.527277743466
4.299016888,-411561.92713337054,-118254.8487756105,41452.03712416897
4.303772357,-408550.0380398562,-117166.40672186285,41759.31470073956
4.308527826,-405542.76958199474,-116080.54749508546,42064.36508979491
4.313283242,-402540.1733654141,-114997.28355678286,42367.19337924181
4.318038711,-399542.3006584762,-113916.6272520527,42667.80466234513
4.322794128,-396549.2023923241,-112838.59080919692,42966.204037515265
4.327549597,-393560.92916091805,-111763.18633934544,43262.396608091556
4.332305013,-390577.53122106666,-110690.42583609288,43556.3874821211
4.337060482,-387599.05849245907,-109620.32117514884,43848.181772133335
4.341815951,-384625.5605577043,-108552.88411400265,44137.784594910416
4.346571367,-381657.0866623875,-107488.12629160343,44425.20107125339
4.351326836,-378693.68571515346,-106426.05922805675,44710.43632574451
4.356082253,-375735.4062878301,-105366.69432433856,44993.495486506356
4.360837722,-372782.2966156042,-104310.04286202746,45274.38368495857
4.36559319,-369834.4045972619,-103256.11600305696,45553.10605557318
4.370348607,-366891.7777954997,-102204.9247894887,45829.667735629126
4.375104076,-363954.4634373055,-101156.48014330778,46104.073864966245
4.379859492,-361022.5084144108,-100110.79286624074,46376.32958573957
4.384614961,-358095.9592838142,-99067.87363959542,46646.44004217478
4.389370378,-355174.86226837337,-98027.73302412312,46914.4103803256
4.394125847,-352259.2632574659,-96990.3814599028,47180.24574783403
4.398881315,-349349.2078077171,-95955.82926624686,47443.95129369357
4.403636732,-346444.7411437913,-94924.08664162834,47705.53216801615
4.408392201,-343545.9081592433,-93895.1636636285,47964.99352180281
4.413147617,-340652.75341742625,-92869.0702889051,48222.34050671803
4.417903086,-337765.32115245337,-91845.81635318148,48477.57827486727
4.422658555,-334883.65527021204,-90825.41157125638,48730.71197857739
4.427413972,-332007.799349427,-89807.8655370342,48981.74677017928
4.43216944,-329137.79664276715,-88793.18772357426,49230.687801792024
4.436924857,-326273.6900779907,-87781.38748315672,49477.54022510796
4.441680326,-323415.5222591237,-86772.47404736214,49722.30919117793
4.446435795,-320563.3354676647,-85766.45652716082,49964.9998501965
4.451191211,-317717.17166380794,-84763.3439130092,50205.61735128696
4.45594668,-314877.0724876792,-83763.14507495075,50444.166842286264
4.460702097,-312043.0792605807,-82765.86876271937,50680.65346953023
4.465457565,-309215.2329862431,-81771.52360584447,50915.082377638835
4.470213034,-306393.57435208117,-80780.11811375659,51147.45870930192
4.474968451,-303578.1437304494,-79791.66067589239,51377.78760506551
4.47972392,-300768.9811798916,-78806.15956179735,51606.07420311925
4.484479336,-297966.12644637947,-77823.62292122471,51832.32363908518
4.489234805,-295169.6189645345,-76844.05878422978,52056.54104580833
4.493990274,-292379.497858832,-75867.47506125964,52278.73155314935
4.49874569,-289595.80194478296,-74893.87954323729,52498.90028777941
4.503501159,-286818.5697300869,-73923.2799016386,52717.052372977574
4.508256576,-284047.83941575076,-72955.68368856031,52933.19292843101
4.513012045,-281283.6488971724,-71991.09833677707,53147.327070038395
4.517767513,-278526.0357651889,-71029.53115978555,53359.459909717356
4.52252293,-275775.03730709,-70070.98935183386,53569.59655521726
4.527278399,-273030.6905075978,-69115.4799879347,53777.742109938605
4.532033815,-270293.03204981214,-68163.01002386116,53983.90167276044
4.536789284,-267562.09831612225,-67213.58629612444,54188.08033787731
4.541544753,-264837.9253890865,-66267.2155219322,54390.283194647476
4.54630017,-262120.54905228142,-65323.9042991267,54590.51532745383
4.551055638,-259410.0047911204,-64383.65910610192,54788.78181557906
4.555811055,-256706.3277936385,-63446.48630169936,54985.08773309647
4.560566524,-254009.5529512384,-62512.39212508206,55179.43814877792
4.56532194,-251319.71485939116,-61581.38269558625,55371.83812601992
4.570077409,-248636.84781828691,-60653.46401255012,55562.29272278933
4.574832878,-245960.98583343378,-59728.641955119754,55750.80699159006
4.579588295,-243292.16261620412,-58806.92228203343,55937.385979452156
4.584343763,-240630.4115843297,-57888.31063138512,56122.03472794415
4.589099232,-237975.76586234634,-56972.8125203684,56304.75827320975
4.593854649,-235328.25828198995,-56060.43334500231,56485.56164603027
4.598610117,-232687.92138254695,-55151.1783798404,56664.44987191436
4.603365534,-230054.78741116254,-54245.052777664845,56841.42797121631
4.608121003,-227428.88832311076,-53342.061569167345,57016.50095928379
4.612876472,-224810.25578203014,-52442.20966261891,57189.67384663517
4.617631888,-222198.92116013163,-51545.501843530656,57360.95163916595
4.622387357,-219594.9155383837,-50651.94277430812,57530.339338383135
4.627142774,-216998.26970667968,-49761.53699390179,57697.84194166611
4.631898242,-214409.01416399083,-48874.28891745672,57863.46444255184
4.636653711,-211827.17911850964,-47990.20283596365,58027.21183104219
4.641409128,-209252.7944877864,-47109.2829159144,58189.089093931754
4.646164597,-206685.88989886254,-46231.53319896359,58349.101215155046
4.650920065,-204126.49468840472,-45356.957601599315,58507.253176151404
4.655675482,-201574.63790284187,-44485.55991482477,58663.54995624663
4.660430951,-199030.34829850838,-43617.34380385273,58817.99653304993
4.665186367,-196493.65434179493,-42752.3128078151,58970.59788286497
4.669941836,-193964.58420930582,-41890.4703394893,59121.358981113684
4.674697305,-191443.16578802245,-41031.81968504298,59270.28480277162
4.679452722,-188929.426675473,-40176.36400379804,59417.38032281309
4.68420819,-186423.39417990658,-39324.10632801498,59562.650516665046
4.688963659,-183925.09532046985,-38475.049562698194,59706.100360668395
4.693719076,-181434.55682738448,-37629.19648542276,59847.73483254579
4.698474545,-178951.8051421258,-36786.54974618327,59987.55891187463
4.703229961,-176476.86641760293,-35947.111867264866,60125.57758056448
4.70798543,-174009.76651834173,-35110.885243136945,60261.79582333859
4.712740899,-171550.5310206725,-34277.872140369625,60396.218628219205
4.717496315,-169099.1852129242,-33448.07469757298,60528.850987016755
4.722251784,-166655.75409562435,-32621.494925359093,60659.69789582243
4.727007201,-164220.26238170246,-31798.13470632688,60788.764355503285
4.73176267,-161792.73449669467,-30977.995795069382,60916.05537219925
4.736518138,-159373.1945789473,-30161.079818203325,61041.57595782119
4.741273555,-156961.66647981753,-29347.388274420497,61165.33113054864
4.746029024,-154558.17376386918,-28536.92253456033,61287.32591532603
4.750784492,-152162.73970905947,-27729.683841703245,61407.56534435688
4.755539909,-149775.38730691274,-26925.67331128433,61526.05445759544
4.760295378,-147396.13926267799,-26124.891931226914,61642.79830323488
4.765050847,-145025.0179954684,-25327.340562095815,61757.80193819071
4.769806263,-142662.04563838104,-24533.019937270135,61871.070428578445
4.774561732,-140307.24403859556,-23741.93066313569,61982.60885018419
4.779317149,-137960.63475745142,-22954.07321929729,62092.422288926806
4.784072617,-135622.2390705018,-22169.447958811004,62200.51584131025
4.788828086,-133292.07796754365,-21388.055108436445,62306.89461486513
4.793583503,-130970.17215262345,-20609.894768909075,62411.56372857852
4.798338972,-128656.5420440175,-19834.966915232366,62514.528313310664
4.80309444,-126351.20777418737,-19063.27139698966,62615.79351219759
4.807849857,-124054.18918970921,-18294.807938675487,62715.364481038676
4.812605326,-121765.50585117735,-17529.576140046287,62813.24638866864
4.817360795,-119485.1770330826,-16767.575476490627,62909.444417313825
4.822116211,-117213.22172366599,-16008.805299418875,63003.96376293289
4.82687168,-114949.65862474834,-15253.264836672492,63096.8096355423
4.831627097,-112694.50615153663,-14500.953192953173,63187.98725952675
4.836382565,-110447.78243240886,-13751.869350272244,63277.50187393424
4.841138034,-108209.50530867912,-13006.012168420657,63365.35873275523
4.845893451,-105979.6923343438,-12263.380385459934,63451.563105185436
4.85064892,-103758.36077580946,-11523.972618234346,63536.12027587127
4.855404388,-101545.52761160354,-10787.78736290466,63619.03554513765
4.860159805,-99341.20953206847,-10054.822995503828,63700.31422919732
4.864915274,-97145.42293903975,-9325.077772514933,63779.96166034074
4.869670742,-94958.1839455083,-8598.5498314717,63857.98318710551
4.874426159,-92779.50837526722,-7875.237191581886,63934.38417442437
4.879181628,-90609.41176254285,-7155.137754373929,64009.17000375054
4.883937097,-88447.90935161052,-6438.249304367209,64082.3460731594
4.888692513,-86295.01609639585,-5724.569509766207,64153.91779742578
4.893447982,-84150.7466600617,-5014.09592317888,64223.89060807663
4.898203399,-82015.11541458167,-4306.825982359506,64292.269953419585
4.902958867,-79888.1364403015,-3602.7570109762005,64359.06129854689
4.907714336,-77769.82352549078,-2901.88621940337,64424.27012531414
4.912469753,-75660.19016588616,-2204.210705539377,64487.90193229348
4.917225222,-73559.24956422787,-1509.7274556496684,64549.96223470086
4.92198069,-71467.01462979011,-818.4333452356506,64610.45656429712
4.926736107,-69383.49797790698,-130.3251399295788,64669.390469262325
4.931491576,-67308.71192949632,554.6005035843059,64726.7695140435
4.936247045,-65242.66851058342,1236.347036622171,64782.59927917586
4.941002461,-63185.37945182556,1914.9180175263177,64836.885361077526
4.94575793,-61136.85618803808,2590.317110664062,64889.63337181823
4.950513399,-59097.109857722746,3262.548085399601,64940.84893886247
4.955268815,-57066.15130259866,3931.614815038726,64990.53770478809
4.960024284,-55043.99106713586,4597.521275746241,65038.70532698094
4.964779753,-53030.639398092295,5260.271545435966,65085.357477306796
4.96953517,-51026.106244054194,5919.869802633254,65130.4998417614
4.974290638,-49030.40125498037,6576.320325309957,65174.13812010002
4.979046055,-47043.53378175121,7229.627489691793,65216.27802544765
4.983801524,-45065.51287572325,7879.795769038101,65256.925283890865
4.988556992,-43096.347288289784,8526.82973239401,65296.085634051975
4.993312409,-41136.04547044862,9170.734043315075,65333.764826646264
4.998067878,-39184.61557237749,9811.513458564437,65369.96862402261
5.002823347,-37242.065443017804,10449.172826782567,65404.70279968795
5.007578763,-35308.40262966785,11083.717087129658,65437.97313781573
5.012334232,-33383.63437758672,11715.151267900794,65469.78543273871
5.017089701,-31467.76762961014,12343.480485114049,65500.14548842653
5.021845117,-29560.809025779356,12968.709941071678,65529.05911794831
5.026600586,-27662.76490298426,13590.844922894634,65556.53214292013
5.031356055,-25773.64129462194,14209.8908010306,65582.57039293797
5.036111472,-23893.44393027146,14825.853027735679,65607.17970499692
5.04086694,-22022.178235386098,15438.737135529758,65630.36592289692
5.045622409,-20159.849331004178,16048.548735625662,65652.13489663551
5.050377826,-18306.462033479867,16655.29351633217,65672.4924817877
5.055133295,-16462.02085423522,17258.977241431112,65691.44453887311
5.059888763,-14626.529999534521,17859.60574852866,65708.99693271118
5.06464418,-12799.993370282204,18457.18494738102,65725.1555317644
5.069399649,-10982.4145618456,19051.720818194823,65739.92620747002
5.074155117,-9173.79686390385,19643.219409902267,65753.31483356109
5.078910534,-7374.143260324273,20231.68683841142,65765.3272853771
5.083666003,-5583.456429067603,20817.129284831834,65775.96943916558
5.088421472,-3801.7387421234844,21399.552993675752,65785.24717137554
5.093176888,-2028.992265477576,21978.964271035347,65793.16635794472
5.097932357,-265.21875911161214,22555.36948273647,65799.73287358276
5.102687826,1489.5803229621772,23128.7750524696,65804.95259105231
5.107443242,3235.4038326308937,23699.18745989848,65808.83138045004
5.112198711,4972.250927573626,24266.6132387471,65811.3751084889
5.11695418,6700.12107111549,24831.058974865733,65812.58963778245
5.121709597,8419.0140320416,25392.53130427679,65812.48082613194
5.126465065,10128.929884369447,25951.036911201332,65811.05452581609
5.131220534,11829.86900707813,26506.582526066923,65808.3165828847
5.135975951,13521.832083792759,27059.174923497583,65804.27283645663
5.14073142,15204.820102422267,27608.820920286606,65798.92911802308
5.145486888,16878.83435474883,28155.52737335276,65792.29125075703
5.150242305,18543.87643596701,28699.301177680507,65784.36504882936
5.154997774,20199.94824417072,29240.149264244916,65775.15631673275
5.159753242,21847.051979786112,29778.0785979223,65764.67084861452
5.164508659,23485.190144948625,30313.09617538782,65752.91442762056
5.169264128,25114.365542822325,30845.20902300144,65739.89282525274
5.174019597,26734.581276859717,31374.424194683434,65725.61180074148
5.178775013,28345.840749999777,31900.748769780515,65710.0771004355
5.183530482,29948.14766380192,32424.18985092395,65693.29445721005
5.188285951,31541.50601751371,32944.7545618812,65675.26958989486
5.193041367,33125.92010707017,33462.45004540283,65656.00820272329
5.197796836,34701.39452402242,33977.283461066705,65635.5159848032
5.202552305,36267.934154393646,34489.26198312123,65613.79860960977
5.207307722,37825.54417746014,34998.39279832914,65590.86173450052
5.21206319,39374.23006445599,35504.68310381348,65566.7110002533
5.216818659,40913.99757720003,36008.14010490716,65541.35203062763
5.221574076,42444.85276664393,36508.771013007696,65514.790431950176
5.226329545,43966.80197134022,37006.58304343836,65487.03179272451
5.231085013,45479.85181583,37501.58341331716,65458.08168326577
5.23584043,46984.00920895017,37993.779339435125,65427.94565536075
5.240595899,48479.28134206004,38483.17803614573,65396.62924195461
5.245351367,49965.675687187395,38969.786713267036,65364.13795686535
5.250106836,51443.19999509393,39453.612573997896,65330.47729452805
5.254862253,52911.8622932602,39934.66281284914,65295.65272977085
5.259617722,54371.670883790415,40412.9446135909,65259.66971762462
5.26437319,55822.63434123729,40888.46514721707,65222.53369316749
5.269128607,57264.76151034697,41361.23156992794,65184.250071405055
5.273884076,58698.06150372408,41831.251021131895,65144.8242471866
5.278639545,60122.54369941691,42298.53062146703,65104.26159515755
5.283394961,61538.217738423074,42763.07747084329,65062.56746974841
5.28815043,62945.09352211618,43224.89864650535,65019.74720520056
5.292905899,64343.18120959388,43684.00120111672,64975.8061156291
5.297661315,65732.49121494824,44140.392160865624,64930.74949512339
5.302416784,67113.03420445907,44594.07852359343,64884.58261788623
5.307172253,68484.82109371098,45045.067256946786,64837.310738412176
5.31192767,69847.86304463427,45493.36529655475,64788.939091705455
5.316683138,71202.17146246969,45938.97954423239,64739.47289353803
5.321438607,72547.7579926585,46381.91686621238,64688.91734074763
5.326194024,73884.6345176591,46822.18409140591,64637.27761157459
5.330949492,75212.8131536921,47259.78800969407,64584.55886603626
5.335704961,76532.30624741639,47694.73537025108,64530.766246337815
5.340460378,77843.12637253874,48127.03287990048,64475.90487731792
5.345215847,79145.28632636013,48556.68720150567,64419.9798669274
5.349971315,80438.7991262623,48983.70495239628,64362.996306738554
5.354726732,81723.67800613891,49408.09270283188,64304.959272483226
5.359482201,82999.9364127761,49829.856974504255,64245.873824618044
5.36423767,84267.58800218723,50249.004239079295,64185.745008915015
5.368993138,85526.64663590756,50665.54091677973,64124.57785707549
5.373748555,86777.12637725325,51079.47337500989,64062.37738736586
5.378504024,88019.04148754918,51490.807927023176,63999.14860527249
5.383259492,89252.40642232896,51899.55083063344,63934.89650417332
5.388014909,90477.23582751107,52305.70828697048,63869.62606602341
5.392770378,91693.54453555457,52709.286439280506,63803.34226205153
5.397525847,92901.34756159705,53110.291371772,63736.05005346548
5.402281263,94100.66009957739,53508.72910850783,63667.75439216362
5.407036732,95291.49751834487,53904.60561234452,63598.46022145023
5.411792201,96473.8753577568,54297.92678391926,63528.17247675341
5.41654767,97647.80932476606,54688.69846068558,63456.89608634351
5.421303086,98813.31528950015,55076.92641599802,63384.6359720508
5.426058555,99970.40928133317,55462.616358246225,63311.39704998103
5.430814024,101119.10748495284,55845.773930038406,63237.18423122772
5.43556944,102259.42623642532,56226.40470743459,63162.002422579404
5.440324909,103391.38201925997,56604.51419922923,63085.85652722095
5.445080378,104514.99146047617,56980.107846283085,63008.75144542793
5.449835795,105630.2713266741,57353.19102090434,62930.69207525294
5.454591263,106737.23852011195,57723.76902627874,62851.68331320283
5.459346732,107835.91007479191,58091.847095948724,62771.73005490492
5.464102149,108926.30315255761,58457.430393342285,62690.837195760214
5.468857617,110008.43503920468,58820.524011352085,62609.0096315815
5.473613086,111082.32314060617,59181.13297196603,62526.25225921473
5.478368555,112147.98497885476,59539.26222595009,62442.56997714197
5.483123972,113205.43818842349,59894.91665258433,62357.967686064374
5.48787944,114254.70051234677,60248.10105945278,62272.45028946417
5.492634909,115295.78979842417,60598.820182288146,62186.022694144965
5.497390326,116328.72399544965,60947.0786848715,62098.68981074949
5.502145795,117353.52114946923,61292.88115898705,62010.456554254066
5.506901263,118370.19940007073,61636.23212443156,61921.32784443905
5.51165668,119378.7769767088,61977.13602907795,61831.30860633478
5.516412149,120379.27219506844,62315.59724899196,61740.40377064236
5.521167617,121371.70345346909,62651.62008860066,61648.61827412926
5.525923086,122356.08922931294,62985.20878091167,61555.95705999997
5.530678503,123332.4480755797,63316.367487781994,61462.42507824185
5.535433972,124300.79861736993,63645.10030023545,61368.02728594579
5.54018944,125261.1595484983,63971.41123882692,61272.76864760157
5.544944857,126213.54962813768,64295.30425405239,61176.65413536765
5.549700326,127157.98767751531,64616.78322680338,61079.68872931519
5.554455795,128094.49257666168,64935.85196886411,60981.877417646254
5.559211211,129023.083261214,65252.51422344934,60883.22519688597
5.56396668,129943.77871927564,65566.77366578071,60783.737072048585
5.568722149,130856.59798833322,65878.63390369956,60683.41805677693
5.573477617,131761.5601522324,66188.09847831397,60582.27317345447
5.578233034,132658.68433821455,66495.17086467806,60480.3074532892
5.582988503,133547.9897140171,66799.85447250091,60377.52593636908
5.587743972,134429.49548504123,67102.15264688239,60273.93367168873
5.592499388,135303.22089158947,67402.06866907321,60169.53571714696
5.597254857,136169.1852061757,67699.60575725653,60064.337139515184
5.602010326,137027.4077309092,67994.7670673479,59958.3430143767
5.606765742,137877.90779495484,68287.55569381129,59851.55842603673
5.611521211,138720.70475207022,68577.9746704892,59743.98846740312
5.61627668,139555.81797821965,68866.02697144529,59635.63823983763
5.621032149,140383.26686926495,69151.71551181804,59526.51285297829
5.625787565,141203.07083873407,69435.04314868475,59416.617424532706
5.630543034,142015.2493156693,69716.01268193552,59305.957080042404
5.635298503,142819.8217425551,69994.62685515714,59194.53695261835
5.640053972,143616.80757332494,70270.88835652679,59082.36218264807
5.644809388,144406.2262714453,70544.79981971548,58969.43791747487
5.649564857,145188.0973080761,70816.3638248011,58855.769311049946
5.654320326,145962.4401603079,71085.58289919086,58741.36152355786
5.659075742,146729.27430947713,71352.4595185537,58626.21972101613
5.663831211,147488.6192395608,71616.9961077627,58510.349074849706
5.66858668,148240.4944356512,71879.19504184776,58393.75476144106
5.673342097,148984.91938251042,72139.0586469582,58276.44196165677
5.678097565,149721.91356320272,72396.5892013345,58158.41586035175
5.682853034,150451.49645780338,72651.78893628842,58039.68164585228
5.687608503,151173.68754218056,72904.66003719004,57920.24450941885
5.69236392,151888.50628684668,73155.20464446054,57800.10964469003
5.697119388,152595.97215587593,73403.42485457001,57679.28224710826
5.701874857,153296.10460588464,73649.32272103982,57557.76751332879
5.706630274,153988.92308507004,73892.90025544951,57435.570640613136
5.711385742,154674.44703230355,74134.15942844833,57312.69682620914
5.716141211,155352.69587627536,74373.10217077113,57189.15126671928
5.72089668,156023.68903468607,74609.73037425872,57064.93915745862
5.725652097,156687.44591348228,74844.04589288263,56940.065691803786
5.730407565,157343.9859061325,75076.05054377462,56814.5360605348
5.735163034,157993.3283929391,75305.74610826104,56688.355451171505
5.739918451,158635.49274038323,75533.13433290177,56561.52904730657
5.74467392,159270.49830050048,75758.21693053488,56434.06202793698
5.749429388,159898.36441028625,75980.99558132753,56305.9595667957
5.754184805,160519.1103911294,76201.4719338335,56177.22683168555
5.758940274,161132.75554827278,76419.64760605762,56047.86898381774
5.763695742,161739.31917030129,76635.52418652739,55917.89117715717
5.768451211,162338.8205286566,76849.10323537236,55787.29855777673
5.773206628,162931.2788771787,77060.38628541294,55656.09626322224
5.777962097,163516.7134516737,77269.37484325991,55524.28942188979
5.782717565,164095.1434695091,77476.07039042618,55391.883152416834
5.787473034,164666.58812923686,77680.47438445229,55258.8825630885
5.792228451,165231.06661024567,77882.58826004696,55125.29275126006
5.79698392,165788.59807244161,78082.41343024424,54991.11880279673
5.801739388,166339.20165595878,78279.95128757859,54856.365791531614
5.806494857,166882.89648089994,78475.20320527931,54721.0387787426
5.811250274,167419.7016471078,78668.17053848515,54585.14281264886
5.816005742,167949.6362339668,78858.85462548057,54448.68292792791
5.820761211,168472.71930023644,79047.25678895468,54311.66414525423
5.825516628,168988.96988391646,79233.37833728448,54174.09147086019
5.830272097,169498.40700214467,79417.22056584342,54035.96989612011
5.835027565,170001.04965112716,79598.78475833581,53897.304397157444
5.839782982,170496.9168061004,79778.07218815734,53758.099934475744
5.844538451,170986.027421327,79955.08411978194,53618.36145261346
5.84929392,171468.40043012617,80129.82181017584,53478.093879822925
5.854049388,171944.0547449402,80302.28651024021,53337.30212777389
5.858804805,172413.00925743728,80472.47946628324,53195.99109128186
5.863560274,172875.28283865168,80640.4019215221,53054.1656480615
5.868315742,173330.89433916254,80806.05511761477,52911.83065850541
5.873071159,173779.86258931275,80969.44029622053,52768.990965488716
5.877826628,174222.20639947074,81130.55870058846,52625.651394199784
5.882582097,174657.94456033906,81289.4115771734,52481.81675199733
5.887337565,175087.09584331277,81446.00017728003,52337.491828294085
5.892092982,175509.6790008928,81600.32575873502,52192.68139446724
5.896848451,175925.71276715913,81752.3895875875,52047.39020379548
5.90160392,176335.2158583083,81902.19293983773,51901.622991422715
5.906359388,176738.2069732587,82049.73710319446,51755.38447434848
5.911114805,177134.70479432444,82195.02337886076,51608.67935144535
5.915870274,177524.72798795963,82338.05308334815,51461.51230350333
5.920625742,177908.29520557378,82478.82755031963,51313.88799330088
5.925381211,178285.4250844197,82617.34813246131,51165.81106570223
5.930136628,178656.1362485558,82753.616203382,51017.28614778093
5.934892097,179020.44730988468,82887.63315953995,50868.3178489695
5.939647565,179378.37686926997,83019.4004221957,50718.91076123493
5.944402982,179729.94351773267,83148.91943938949,50569.069459279104
5.949158451,180075.1658377288,83276.19168794127,50418.7985007638
5.95391392,180414.06240450853,83401.21867547189,50268.102426559555
5.958669388,180746.65178755758,83524.00194244414,50116.98576101782
5.963424805,181072.95255212075,83644.54306422231,49965.45301226507
5.968180274,181392.98326080828,83762.84365314753,49813.508672517106
5.972935742,181706.7624752835,83878.9053606268,49661.15721841204
5.977691159,182014.3087580307,83992.72987923236,49508.40311136044
5.982446628,182315.64067420104,84104.31894480842,49355.2507979113
5.987202097,182610.77679353615,84213.6743385811,49201.704710131606
5.991957565,182899.73569236882,84320.79788926781,49047.76926599772
5.996713034,183182.5359556979,84425.69147518229,48893.448869796084
6.001468451,183459.19617933553,84528.3570263319,48738.7479125315
6.00622392,183729.7349721249,84628.79652650401,48583.67077234086
6.010979388,183994.17095822736,84727.01201533806,48428.22181491031
6.015734857,184252.52277947593,84823.00559037921,48272.40539389413
6.020490274,184504.8090977922,84916.77940911024,48116.225851333875
6.025245742,184751.0485976635,85008.33569095867,47959.68751807662
6.030001211,184991.259988677,85097.6767192775,47802.794714191696
6.034756628,185225.46200811042,85184.80484329659,47645.551749385486
6.039512097,185453.67342358068,85269.72248004205,47487.962923413725
6.044267565,185675.91303575085,85352.43211622047,47330.03252649063
6.049023034,185892.19968109592,85432.93631006482,47171.76483969449
6.053778451,186102.55223472608,85511.2376931394,47013.16413536954
6.05853392,186306.98961326756,85587.33897210052,46854.23467752391
6.063289388,186505.5307778019,85661.2429304104,46694.98072222412
6.068044857,186698.1947368654,85732.9524300021,46535.40651798629
6.072800274,186885.00054950846,85802.47041289382,46375.51630616424
6.077555742,187065.9673284133,85869.79990275016,46215.314321334154
6.082311211,187241.1142430674,85934.9440063878,46054.80479167557
6.087066628,187410.46052298995,85997.90591522379,45893.9919393485
6.091822097,187574.02546100892,86058.68890666566,45732.87998086644
6.096577565,187731.82841658412,86117.29634544146,45571.47312746436
6.101333034,187883.88881917275,86173.7316848685,45409.775585461364
6.106088451,188030.22617163384,86227.99846805866,45247.79155661779
6.11084392,188170.86005366602,86280.10032905742,45085.525238486676
6.115599388,188305.81012527295,86330.04099391535,44922.980824759616
6.120354857,188435.09613024996,86377.82428169067,44760.16250560653
6.125110274,188558.73789968513,86423.45410538197,44597.07446800871
6.129865742,188676.75535546758,86466.93447279089,44433.72089608446
6.134621211,188789.16851379533,86508.26948731467,44270.105971406934
6.139376628,188895.99748867552,86547.46334866878,44106.23387331374
6.144132097,188997.2624954093,86584.52035354053,43942.10877920808
6.148887565,189092.98385405308,86619.4448961749,43777.73486485088
6.153643034,189183.18199284925,86652.24146889434,43613.11630464305
6.158398451,189267.87745161992,86682.91466255453,43448.25727189713
6.16315392,189347.09088511465,86711.46916693774,43283.16193909731
6.167909388,189420.8430663035,86737.90977108556,43117.8344781472
6.172664857,189489.15488960512,86762.24136357199,42952.27906060445
6.177420274,189552.04737403995,86784.46893271827,42786.49985790172
6.182175742,189609.54166629864,86804.59756675115,42620.50104155329
6.186931211,189661.65904371784,86822.63245390583,42454.28678334653
6.19168668,189708.42091715604,86838.57888247461,42287.86125551744
6.196442097,189749.8488337626,86852.44224080247,42121.22863090969
6.201197565,189785.96447963288,86864.2280172291,41954.39308311668
6.205953034,189816.78968234189,86873.94179997787,41787.35878660595
6.210708503,189842.3464133482,86881.58927699218,41620.12991682512
6.21546392,189862.65679026095,86887.17623572018,41452.710650288536
6.220219388,189877.74307896427,86890.70856284733,41285.10516464447
6.224974857,189887.62769559413,86892.19224397754,41117.31763872236
6.229730326,189892.33320836475,86891.63336326304,40949.35225256027
6.234485742,189891.88233924125,86889.03810298364,40781.213187412606
6.239241211,189886.29796545577,86884.41274307577,40612.904625738585
6.24399668,189875.6031208652,86877.76366061145,40444.43075117204
6.248752149,189859.82099714907,86869.09732922733,40275.79574847376
6.253507565,189838.97494484627,86858.42031850311,40107.003803467596
6.258263034,189813.08847422918,86845.73929328882,39938.059102961146
6.263018503,189782.1852560131,86831.06101298101,39768.9658346519
6.267773972,189746.28912189964,86814.39233074895,39599.72818701913
6.272529388,189705.424064952,86795.74019271086,39430.350349202185
6.277284857,189659.6142397998,86775.11163706047,39260.83651086539
6.282040326,189608.88396267168,86752.51379314407,39091.190862050134
6.286795795,189553.2577112551,86727.95388048855,38921.41759301504
6.291551211,189492.76012438076,86701.43920778157,38751.52089406449
6.29630668,189427.4160015299,86672.97717180474,38581.50495536571
6.301062149,189357.25030216362,86642.57525632062,38411.373966754574
6.305817617,189282.2881448736,86610.24103091325,38241.13211753043
6.310573034,189202.5548063543,86575.98214978205,38070.7835962402
6.315328503,189118.07572019778,86539.80635048929,37900.3325904521
6.320083972,189028.87647551016,86501.72145266134,37729.78328651963
6.324839388,188934.98281534872,86461.73535664403,37559.1398693365
6.329594857,188836.42063497903,86419.85604211221,37388.40652208315
6.334350326,188733.21597995266,86376.09156663294,37217.58742596598
6.339105795,188625.3950440064,86330.45006418329,37046.68675994994
6.343861263,188512.98416678509,86282.9397436232,36875.7087004854
6.34861668,188396.00983139026,86233.56888712423,36704.657421230375
6.353372149,188274.4986617594,86182.34584855477,36533.53709276886
6.358127617,188148.47741988188,86129.27905182367,36362.35188232592
6.362883034,188017.9730028624,86074.37698918534,36191.10595348008
6.367638503,187883.0124398434,86017.64821951032,36019.80346587296
6.372393972,187743.62288879778,85959.1013665249,35848.44857491664
6.37714944,187599.83163320186,85898.74511702285,35677.04543149879
6.381904857,187451.66607859847,85836.58821905179,35505.59818168583
6.386660326,187299.1537490589,85772.63948007877,35334.11096642461
6.391415795,187142.3222835533,85706.90776513836,35162.5879212429
6.396171263,186981.199432239,85639.4019949674,34991.0331759492
6.400926732,186815.81305267525,85570.13114412993,34819.45085433207
6.405682149,186646.1911059727,85499.10423913588,34647.84507385954
6.410437617,186472.3616528836,85426.3303565568,34476.219945378805
6.415193086,186294.3528498384,85351.8186211423,34304.579572816336
6.419948555,186112.19294493392,85275.57820393982,34132.928052878706
6.424703972,185925.9102738788,85197.6183204207,33961.26947475397
6.42945944,185735.53325590136,85117.94822861496,33789.60791981345
6.434214909,185541.09038962412,85036.57722725726,33617.94746131345
6.438970378,185342.61024890916,84953.51465394646,33446.29216409688
6.443725795,185140.1214786789,84868.76988332038,33274.64608429467
6.448481263,184933.6527907189,84782.35232524847,33103.013269027484
6.453236732,184723.23295946827,84694.27142304384,32931.39775610776
6.457992201,184508.89081780502,84604.5366516953,32759.803573742192
6.462747617,184290.65525283292,84513.15751612073,32588.23474023422
6.467503086,184068.55520167708,84420.14354944325,32416.69526368631
6.472258555,183842.61964729533,84325.50431129245,32245.189141701976
6.477014024,183612.87761431054,84229.24938613271,32073.720361087544
6.48176944,183379.3581648695,84131.38838162158,31902.2928975536
6.486524909,183142.0903945332,84031.93092700082,31730.910715416085
6.491280378,182901.1034282012,83930.88667152263,31559.577767297054
6.496035847,182656.42641607145,83828.26528291275,31388.297993825377
6.500791263,182408.08852963874,83724.07644587195,31217.075323337693
6.505546732,182156.1189577344,83618.32986061623,31045.913671579998
6.510302201,181900.54690261176,83511.03524145632,30874.816941410063
6.51505767,181641.4015760809,83402.2023154172,30703.789022501107
6.519813138,181378.71219569634,83291.84082089792,30532.8337910474
6.524568555,181112.50798099997,83179.96050637246,30361.955109472357
6.529324024,180842.8181498222,83066.5711291326,30191.156826139653
6.534079492,180569.67191464276,82951.68245407353,30020.44277506768
6.538834961,180293.09847901252,82835.30425252179,29849.816775647636
6.543590378,180013.12703403502,82717.4463011063,29679.282632365524
6.548345847,179729.78675490702,82598.11838067306,29508.844134528405
6.553101315,179443.10679751876,82477.33027524414,29338.505055995105
6.557856784,179153.11629511628,82355.09177102118,29168.26915491173
6.562612201,178859.84435502833,82231.41265543229,28998.140173452182
6.56736767,178563.32005545954,82106.30271622182,28828.121837564006
6.572123138,178263.57244235193,81979.771740582,28658.217856719628
6.576878607,177960.63052631638,81851.82951432481,28488.431923673215
6.581634024,177654.52327963428,81722.48582109265,28318.767714223508
6.586389492,177345.27963332893,81591.75044160688,28149.228886983026
6.591144961,177032.92847430738,81459.6331529536,27979.81908315397
6.59590043,176717.49864257083,81326.14372790618,27810.54192631076
6.600655847,176399.0189284938,81191.2919342851,27641.40102218906
6.605411315,176077.51807017197,81055.08753435408,27472.39995848112
6.610166784,175753.02475083814,80917.54028425249,27303.542304637893
6.614922253,175425.5675963478,80778.65993346367,27134.831611678124
6.619677722,175095.17517273268,80638.4562243186,26966.271412004702
6.624433138,174761.8759838214,80496.93889153353,26797.865219228286
6.629188607,174425.69846892648,80354.11766178031,26629.61652799836
6.633944076,174086.67100059713,80210.00225328827,26461.52881384186
6.638699545,173744.82188243605,80064.60237547719,26293.605533009308
6.643454961,173400.17934698,79917.92772862104,26125.85012232854
6.64821043,173052.7715536427,79769.98800354227,25958.26599906591
6.652965899,172702.62658671834,79620.7928813358,25790.85656079496
6.657721367,172349.77245344387,79470.35203312206,25623.62518527229
6.662476784,171994.23708211674,79318.67511982736,25456.57523032053
6.667232253,171636.04832026587,79165.77179198987,25289.710033718264
6.671987722,171275.23393287286,79011.65168959003,25123.032913096667
6.67674319,170911.82160063932,78856.32444190404,24956.547165842687
6.681498659,170545.83891829662,78699.79966737931,24790.256069008406
6.686254076,170177.31339295342,78542.08697352925,24624.162879226184
6.691009545,169806.27244247534,78383.19595684548,24458.270832629252
6.695765013,169432.74339389135,78223.13620272552,24292.583144777596
6.700520482,169056.75348182188,78061.91728541389,24127.103010588853
6.705275899,168678.32984692487,77899.5487679544,23961.83360427407
6.710031367,168297.49953435612,77736.04020215158,23796.778079278003
6.714786836,167914.28949224146,77571.40112853813,23631.939568223577
6.719542305,167528.72657015672,77405.6410763454,23467.32118286048
6.724297722,167140.8375176145,77238.7695634737,23302.92601401771
6.72905319,166750.64898255654,77070.79609646049,23138.757131560094
6.733808659,166358.187509851,76901.73017044488,22974.817584348908
6.738564128,165963.47953979406,76731.58126912704,22811.11040020666
6.743319597,165566.55140661573,76560.35886472133,22647.638585886336
6.748075013,165167.42933699052,76388.07241790167,22484.405127045182
6.752830482,164766.13944855216,76214.73137773862,22321.412988223095
6.757585951,164362.70774841236,76040.34518162764,22158.665112825518
6.76234142,163957.16013168302,75864.92325520852,21996.16442311082
6.767096888,163549.52238000196,75688.47501227586,21833.913820182115
6.771852305,163139.8201600612,75511.00985468076,21671.916183983565
6.776607774,162728.07902213724,75332.5371722237,21510.17437330155
6.781363242,162314.32439862145,75153.06634253896,21348.691225771036
6.786118711,161898.58160255078,74972.6067309705,21187.469557887394
6.790874128,161480.87582613822,74791.16769043934,21026.512165023796
6.795629597,161061.2321393044,74608.75856130241,20865.821821454312
6.800385065,160639.67548821107,74425.38867120259,20705.401280382874
6.805140534,160216.23069379717,74241.06733490947,20545.253273978225
6.809895951,159790.92245031826,74055.8038541498,20385.380513415108
6.81465142,159363.77532389012,73869.60751742654,20225.785688922013
6.819406888,158934.81375103694,73682.48759982616,20066.471469835713
6.824162357,158504.06203724482,73494.45336281355,19907.440504662864
6.828917826,158071.54435552272,73305.51405401471,19748.695421148914
6.833673242,157637.2847449743,73115.67890698642,19590.23882635449
6.838428711,157201.30710938462,72924.95714097303,19432.07330673933
6.84318418,156763.6352158252,72733.35796064987,19274.20142825371
6.847939649,156324.29269327968,72540.8905558534,19116.62573643715
6.852695065,155883.30303129434,72347.56410129793,18959.348756524272
6.857450534,155440.68957865745,72153.3877562786,18802.372993557583
6.862206003,154996.47554211123,71958.37066436048,18645.700932506905
6.866961472,154550.68398509978,71762.5219530537,18489.33503839502
6.87171694,154103.33782655591,71565.85073347433,18333.277756429205
6.876472357,153654.45983972988,71368.36609999125,18177.531512138197
6.881227826,153204.07265106082,71170.07712985929,18022.098711514267
6.885983295,152752.19873909376,70970.99288283903,17866.981741159994
6.890738763,152298.860433446,70771.12240080444,17712.182968439236
6.89549418,151844.07991382477,70570.4747073403,17557.7047416319
6.900249649,151387.87920909835,70369.05880733136,17403.549390092125
6.905005117,150930.2801964238,70166.88368654452,17249.719224409397
6.909760586,150471.30460043266,69963.95831120489,17096.216536572003
6.914516055,150010.97399247705,69760.29162756716,16943.043600132263
6.919271472,149549.3097899366,69555.89256148407,16790.202670373044
6.92402694,149086.33325558837,69350.77001797303,16637.69598447492
6.928782409,148622.06549704034,69144.93288078188,16485.525761683555
6.933537878,148156.52746623012,68938.39001195422,16333.694203476762
6.938293295,147689.73995898874,68731.15025139488,16182.203493730805
6.943048763,147221.72361467103,68523.22241643629,16031.055798885322
6.947804232,146752.49891585388,68314.61530140687,15880.253268106395
6.952559701,146282.0861881037,68105.33767720147,15729.798033447167
6.95731517,145810.50559981487,67895.39829085353,15579.69221000536
6.962070586,145337.77716211966,67684.80586510873,15429.937896077236
6.966826055,144863.92072887032,67473.569098,15280.537173307634
6.971581524,144388.95599669276,67261.6966624232,15131.49210683582
6.976336992,143912.9025051122,67049.19720571286,14982.804745437015
6.981092409,143435.77963675009,66836.07934921749,14834.477121659525
6.985847878,142957.60661759257,66622.35168787368,14686.511251957427
6.990603347,142478.40251733043,66408.02278977892,14538.90913681874
6.995358815,141998.18624977142,66193.10119576285,14391.672760888932
7.000114284,141516.9765733243,65977.59541895718,14244.804093089573
7.004869701,141034.79209155263,65761.5139443641,14098.30508673194
7.00962517,140551.65125379688,65544.86522842386,13952.17767962548
7.014380638,140067.5723558629,65327.65769858184,13806.423794181088
7.019136107,139582.5735407732,65109.89975285586,13661.045337509155
7.023891576,139096.67279957765,64891.599759404715,13516.044201512503
7.028646992,138609.88797222165,64672.76605609881,13371.422262974238
7.033402461,138122.23674846944,64453.406950094,13227.181383640638
7.03815793,137633.73666887885,64233.53071740913,13083.323410299092
7.042913399,137144.40512582558,64013.14560250756,12939.85017485122
7.047668815,136654.2593645748,63792.259817882674,12796.76349438131
7.052424284,136163.3164843988,63570.88154364722,12654.06517122012
7.057179753,135671.59343973885,63349.018927126745,12511.756993004066
7.061935222,135179.10704141096,63126.680082457475,12369.840732729843
7.06669069,134685.8739578534,62903.8730901893,12228.318148804627
7.071446107,134191.91071641477,62680.60599689426,12087.190985092057
7.076201576,133697.23370467994,62456.886814780795,11946.460970954138
7.080957045,133201.85917182994,62232.72352131443,11806.129821289247
7.085712513,132705.80323003343,62008.12405884592,11666.19923656637
7.09046793,132209.08185586546,61783.09633424769,11526.67090285581
7.095223399,131711.71089174997,61557.648218558956,11387.546491856736
7.099978867,131213.70604742182,61331.78754663996,11248.8276609219
7.104734336,130715.08290140542,61105.52211683616,11110.516053079791
7.109489805,130215.85690250866,60878.85969065317,10972.61329705448
7.114245222,129716.04337133048,60651.807992442766,10835.121007283378
7.11900069,129215.65750178136,60424.374709100615,10698.040783933124
7.123756159,128714.71436261747,60196.56748977611,10561.37421291381
7.128511628,128213.2288989903,59968.39394559508,10425.122865891672
7.133267045,127711.21593401393,59739.86164939591,10289.288300300335
7.138022513,127208.69017035373,59510.978135479876,10153.872059350722
7.142777982,126705.66619183958,59281.75089937633,10018.875672039705
7.147533451,126202.15846510555,59052.187397623136,9884.300653157688
7.15228892,125698.18134125634,58822.29504756246,9750.148503295173
7.157044388,125193.7490575609,58592.08122715297,9616.420708848402
7.161799805,124688.87573917207,58361.55327479911,9483.118742024102
7.166555274,124183.57540086978,58130.71848919828,9350.244060843243
7.171310742,123677.86194882456,57899.58412920682,9217.79810914374
7.176066211,123171.7491823779,57668.15741372527,9085.782316581994
7.180821628,122665.25079583628,57436.445521603986,8954.198098633164
7.185577097,122158.38038027585,57204.455591569786,8823.046856590165
7.190332565,121651.15142535519,56972.19472217434,8692.329977561272
7.195088034,121143.57732113285,56739.66997176493,8562.048834466184
7.199843503,120635.67135988545,56506.888358477714,8432.204786030292
7.20459892,120127.44673792258,56273.856860252716,8302.79917677695
7.209354388,119618.91655739347,56040.58241486979,8173.833337017594
7.214109857,119110.09382808056,55807.071920004724,8045.308582839541
7.218865326,118600.99146917531,55573.33223330526,7917.22621609142
7.223620742,118091.62231103166,55339.370172486466,7789.587524366162
7.228376211,117581.99909689382,55105.19251544488,7662.393780981519
7.23313168,117072.13448459655,54870.80600039067,7535.646244958106
7.237887149,116562.04104823586,54636.21732599754,7409.34616099504
7.242642617,116051.73127980823,54401.43315156992,7283.494759443242
7.247398034,115541.2175908167,54166.46009722701,7158.09325627643
7.252153503,115030.5123138427,53931.30474410375,7033.142853059828
7.256908972,114519.62770408222,53695.97363456857,6908.644736916632
7.26166444,114008.57594084536,53460.47327245702,6784.600080492247
7.266419909,113497.36912901847,53224.81012332014,6661.010041916301
7.271175326,112986.0193004878,52988.99061468592,6537.87576476246
7.275930795,112474.53841552533,52753.02113633246,6415.198378006098
7.280686263,111962.93836413696,52516.90804057118,6292.978995979858
7.285441732,111451.23096737383,52280.65764253886,6171.218718327095
7.290197149,110939.42797860716,52044.276220497464,6049.918629953188
7.294952617,110427.5410847669,51807.770016140494,5929.079800974727
7.299708086,109915.58190754434,51571.145234905365,5808.7032866665095
7.304463555,109403.56200455825,51334.408046290744,5688.790127406306
7.309219024,108891.4928704847,51097.56458417843,5569.341348617365
7.31397444,108379.38593815209,50860.62094715876,5450.357960708682
7.318729909,107867.25257960302,50623.58319885868,5331.840959013054
7.323485378,107355.10410712477,50386.45736827225,5213.791323722877
7.328240847,106842.95177424974,50149.24945009307,5096.210019823619
7.332996315,106330.8067767274,49911.96540504837,4979.097997024864
7.337751732,105818.68025346904,49674.61116023387,4862.456189688803
7.342507201,105306.58328746693,49437.19260944834,4746.285516756135
7.34726267,104794.52690669049,49199.71561352674,4630.586881669298
7.352018138,104282.52208496183,48962.186000670394,4515.361172293026
7.356773607,103770.57974281242,48724.60956677289,4400.6092608321715
7.361529024,103258.71074832256,48486.992075740585,4286.332003746798
7.366284492,102746.92591794561,48249.3392598067,4172.530241664568
7.371039961,102235.23601731793,48011.65681983834,4059.2047992904468
7.37579543,101723.65176205535,47773.95042563618,3946.3564853137996
7.380550847,101212.18381853696,47536.22571622652,3833.9860923129804
7.385306315,100700.84280467645,47298.48830014531,3722.094396657536
7.390061784,100189.6392906818,47060.74375571372,3610.682158408114
7.394817253,99678.58379980341,46822.997631304555,3499.750121214163
7.399572722,99167.68680907058,46585.255445599476,3389.299012209523
7.404328138,98656.95875001627,46347.522687836565,3279.329541906022
7.409083607,98146.41000939012,46109.80481804836,3169.8424040851573
7.413839076,97636.05092985899,45872.10726729002,3060.8382756879755
7.418594545,97125.89181069504,45634.43543785751,2952.3178167032665
7.423349961,96615.94290845099,45396.79470349582,2844.2816700542276
7.42810543,96106.21443762218,45159.19040959711,2736.730461483764
7.432860899,95596.71657129518,44921.62787338888,2629.6647994385744
7.437616367,95087.45944178273,44684.112384112006,2523.0852749521573
7.442371836,94578.45314124435,44446.64920318819,2416.9924615268715
7.447127253,94069.70772229128,44209.243564377044,2311.386915015181
7.451882722,93561.23319857472,43971.900673922784,2206.269173500178
7.45663819,93053.03954535598,43734.62571069111,2101.6397571755133
7.461393659,92545.13670005843,43497.423826296676,1997.4991682248638
7.466149128,92037.53456280091,43260.30014522199,1893.847890701084
7.470904545,91530.24299691194,43023.259764928334,1790.6863904051652
7.475660013,91023.27182942432,42786.3077559595,1688.0151147651122
7.480415482,90516.6308515501,42549.44916203904,1585.8344927148719
7.485170951,90010.32981913503,42312.68900016192,1484.1449345734297
7.489926367,89504.37845309121,42076.03226068102,1382.9468319242067
7.494681836,88998.786439806,41839.48390738946,1282.2405574948787
7.499437305,88493.56343152488,41603.048877599555,1182.0264650377408
7.504192774,87988.71904670543,41366.73208221954,1082.3048892107286
7.508948242,87484.26287033978,41130.53840582882,983.076145459209
7.513703659,86980.204454243,40894.47270675261,884.3405298986443
7.518459128,86476.55331730563,40658.53981713651,786.0983191982385
7.523214597,85973.31894570841,40422.744543021705,688.3497704656793
7.527970065,85470.510793097,40187.09166442172,591.0951211330819
7.532725534,84968.13828071578,39951.58593540151,494.334588844246
7.537480951,84466.21079749992,39716.23208415936,398.0683713433322
7.54223642,83964.73770012545,39481.03481311181,302.2966463650658
7.546991888,83463.72831301704,39245.99879898212,207.0195715265728
7.551747357,82963.1919283141,39011.128692892504,112.2372842209484
7.556502826,82463.13780579682,38776.42912046043,17.949901512652406
7.561258242,81963.57517277518,38541.90468189915,-75.84247996517139
7.566013711,81464.51322394349,38307.55995212302,-169.1397841113568
7.57076918,80965.96112120307,38073.39948085788,-261.9419554552626
7.575524649,80467.9279934552,37839.42779275641,-354.24895925311324
7.580280065,79970.42293636649,37605.64938751895,-446.06078158204184
7.585035534,79473.45501210885,37372.06874001989,-537.3774294317476
7.589791003,78977.03324907592,37138.690300439805,-628.198930793682
7.594546472,78481.16664157658,36905.51849440338,-718.525334747679
7.599301888,77985.8641495056,36672.55772312311,-808.356711545947
7.604057357,77491.13469799163,36439.81236354873,-897.6931526943449
7.608812826,76996.98717702315,36207.286768522004,-986.5347710308691
7.613568295,76503.43044105363,35974.98526693649,-1074.8817008012704
7.618323763,76010.47330858608,35742.91216390186,-1162.7340977317228
7.62307918,75518.124561738,35511.07174091213,-1250.092139098458
7.627834649,75026.39294578647,35279.46825601694,-1336.9560237942683
7.632590117,74535.28716869302,35048.10594399505,-1423.3259723917822
7.637345586,74044.81590060842,34816.98901652899,-1509.2022272034064
7.642101003,73554.98777335763,34586.12166238,-1594.5850523378451
7.646856472,73065.8113799053,34355.50804756233,-1679.4747337530935
7.65161194,72577.29527380243,34125.15231551604,-1763.8715793058025
7.656367409,72089.44796861471,33895.05858727739,-1847.775918796912
7.661122878,71602.27793733317,33665.230961646506,-1931.1881040134283
7.665878295,71115.79361176824,33435.67351535193,-2014.108508766214
7.670633763,70630.00338192769,33206.390303212,-2096.537528923663
7.675389232,70144.91559537961,32977.38535829278,-2178.475582441124
7.680144701,69660.53855660088,32748.66269206215,-2259.9231093859435
7.684900117,69176.88052631143,32520.22629453961,-2340.880571957984
7.689655586,68693.949720795,32292.08013444139,-2421.348454505448
7.694411055,68211.75431120639,32064.228159320384,-2501.327263535819
7.699166524,67730.30242286681,31836.674295700413,-2580.8175277217492
7.703921992,67249.60213454838,31609.422449204085,-2659.819797901702
7.708677409,66769.66147774961,31382.476504673607,-2738.3346470751294
7.713432878,66290.48843596478,31155.84032628387,-2816.3626703919836
7.718188347,65812.09094394924,30929.517757647256,-2893.9044851363656
7.722943815,65334.476886982346,30703.51262190999,-2970.960730704108
7.727699232,64857.654100129825,30477.828721839942,-3047.5320685740867
7.732454701,64381.63036750752,30252.469839905894,-3123.619182273091
7.73721017,63906.41342154916,30027.439738348494,-3199.2227773340646
7.741965638,63432.010942280285,29802.742159243116,-3274.343581247548
7.746721107,62958.430556600346,29578.38082455492,-3348.982343406143
7.751476524,62485.67983757511,29354.359436186332,-3423.1398350418435
7.756231992,62013.766303741504,29130.681676017168,-3496.816849156088
7.760987461,61542.69741842656,28907.351205937503,-3570.014200442396
7.76574293,61072.48058908225,28684.37166787367,-3642.7327252014516
7.770498399,60603.12316663749,28461.74668380739,-3714.973281248504
7.775253815,60134.63244486766,28239.47985578808,-3786.7367478129486
7.780009284,59667.01565978275,28017.57476593877,-3858.0240254299893
7.784764753,59200.27998903468,27796.034976455914,-3928.836035824281
7.789520222,58734.432551344704,27574.86402960327,-3999.173721785483
7.794275638,58269.48040595191,27354.065447700148,-4069.038047035634
7.799031107,57805.43055208369,27133.64273310439,-4138.429996088247
7.803786576,57342.289928449165,26913.599368190553,-4207.350574098988
7.808542045,56880.065412756005,26693.938815323487,-4275.800806707787
7.813297513,56418.763821251625,26474.66451682753,-4343.781739872195
7.81805293,55958.39190829025,26255.779894951513,-4411.294439691817
7.822808399,55498.95636592715,26037.288351829655,-4478.339992223708
7.827563867,55040.46382354114,25819.193269438638,-4544.91950328859
7.832319336,54582.92084748654,25601.498009550807,-4611.034098267801
7.837074753,54126.333940775425,25384.205913683454,-4676.684921890806
7.841830222,53670.709542790995,25167.320303044115,-4741.873138013108
7.84658569,53216.05402903251,24950.844478471747,-4806.599929384397
7.851341159,52762.373710892716,24734.781720373576,-4870.866497406897
7.856096576,52309.6748354685,24519.135288657428,-4934.674061883804
7.860852045,51857.96358540517,24303.908422659406,-4998.023860757789
7.865607513,51407.246078774755,24089.1043410668,-5060.917149839528
7.870362982,50957.52836898803,23874.726241836343,-5123.35520252621
7.875118451,50508.81644473994,23660.777302108123,-5185.339309510031
7.879873867,50061.11622998783,23447.260678115457,-5246.870778476664
7.884629336,49614.43358396151,23234.17950509101,-5307.950933793759
7.889384805,49168.774301204656,23021.536897169317,-5368.581116189563
7.894140222,48724.14411164692,22809.335947286156,-5428.76268242172
7.89889569,48280.54868070589,22597.57972707527,-5488.497004936319
7.903651159,47837.993609418336,22386.271286762774,-5547.785471517276
7.908406628,47396.48443460005,22175.413655059878,-5606.629484926095
7.913162097,46956.02662903373,21965.009839054386,-5665.030462532151
7.917917513,46516.62560168427,21755.06282410165,-5722.989835933659
7.922672982,46078.28669794049,21545.575573715596,-5780.509050569499
7.927428451,45641.01519988256,21336.5510294605,-5837.589565322131
7.93218392,45204.816326573375,21127.992110843807,-5894.232852111847
7.936939388,44769.69523437286,20919.90171521031,-5950.440395482653
7.941694805,44335.65701727395,20712.282717637958,-6006.21369218016
7.946450274,43902.70670725953,20505.137970835163,-6061.554250721804
7.951205742,43470.84927467927,20298.470305039435,-6116.463590959781
7.955961211,43040.08962864499,20092.282527917112,-6170.943243637111
7.960716628,42610.4326174438,19886.577424464078,-6224.994749937227
7.965472097,42181.88302896825,19681.357756907164,-6278.6196610274865
7.970227565,41754.44559116314,19476.62626460622,-6331.819537596974
7.974983034,41328.12497248846,19272.385663956822,-6384.59594938902
7.979738451,40902.92578239811,19068.638648293643,-6436.950474728765
7.98449392,40478.852571833726,18865.387887794386,-6488.884700046152
7.989249388,40055.909833732956,18662.636029384117,-6540.4002193946835
7.994004857,39634.102003550826,18460.38569663992,-6591.498633966381
7.998760274,39213.43345979319,18258.63948969597,-6642.181551603335
8.003515742,38793.90852456106,18057.399985149063,-6692.450586306265
8.008271211,38375.53146410469,17856.66973596486,-6742.307357740509
8.01302668,37958.30648938646,17656.451271385093,-6791.753490739875
8.017782097,37542.23775665163,17456.747096836134,-6840.7906148088105
8.022537565,37127.32936800584,17257.559693839383,-6889.420363623339
8.027293034,36713.58537199818,17058.891519923687,-6937.644374531172
8.032048503,36301.009764208735,16860.745008539965,-6985.464288051422
8.03680392,35889.60648783964,16663.122568978084,-7032.881747374389
8.041559388,35479.37943430873,16466.02658628609,-7079.898397861866
8.046314857,35070.33244384493,16269.459421191978,-7126.515886548463
8.051070326,34662.46930608496,16073.423410028097,-7172.735861644465
8.055825742,34255.79376067104,15877.920864658417,-7218.559972040798
8.060581211,33850.309497849485,15682.954072408867,-7263.989866816636
8.06533668,33446.02015907047,15488.525296001028,-7309.027194750185
8.070092149,33042.9293375891,15294.636773489408,-7353.673603833185
8.074847617,32641.0405790683,15101.29071820255,-7397.930740789682
8.079603034,32240.357382183924,14908.489318688025,-7441.800250599595
8.084358503,31840.883199232398,14716.234738661522,-7485.283776027526
8.089113972,31442.621436740592,14524.52911696005,-7528.382957157332
8.09386944,31045.5754560777,14333.374567499239,-7571.099430932913
8.098624857,30649.74857406892,14142.773179234677,-7613.4348307056125
8.103380326,30255.14406361082,13952.727016127279,-7655.3907857886115
8.108135795,29861.765154288474,13763.238117112696,-7696.968921018641
8.112891263,29469.615032994454,13574.30849607483,-7738.170856325351
8.11764668,29078.696844549737,13385.940141823527,-7778.998206308597
8.122402149,28689.013692326527,13198.13501807652,-7819.452579823898
8.127157617,28300.568638872795,13010.895063445703,-7859.535579576363
8.131913086,27913.364706538276,12824.222191427922,-7899.248801723351
8.136668555,27527.40487810164,12638.118290400422,-7938.593835486212
8.141423972,27142.692097398256,12452.585223621014,-7977.572262771424
8.14617944,26759.229269947864,12267.624829232987,-8016.185657801364
8.150934909,26377.019263581526,12083.238920274858,-8054.4355867548375
8.155690326,25996.06490906722,11899.42928469518,-8092.323607417448
8.160445795,25616.36900073323,11716.197685372537,-8129.851268841961
8.165201263,25237.934297088632,11533.545860140897,-8167.020111018749
8.169956732,24860.763521440105,11351.47552182035,-8203.831664556401
8.174712201,24484.85936250417,11169.98835825327,-8240.287450372569
8.179467617,24110.224475013834,10989.086032345902,-8276.388979395162
8.184223086,23736.861480318872,10808.770182115448,-8312.137752273946
8.188978555,23364.772966978828,10629.042420742731,-8347.535259102671
8.193734024,22993.961491348215,10449.904336630649,-8382.582979151859
8.19848944,22624.42957815344,10271.357493468728,-8417.282380612329
8.203244909,22256.179721061166,10093.403430304134,-8451.634920349468
8.208000378,21889.214383237733,9916.043661619386,-8485.64204366823
8.212755847,21523.535997899282,9739.279677416991,-8519.305184088853
8.217511263,21159.1469688523,9563.112943311082,-8552.625763133443
8.222266732,20796.049671024357,9387.544900626006,-8585.605190123484
8.227022201,20434.24645098478,9212.576966501905,-8618.244861988427
8.23177767,20073.739627454976,9038.210534007287,-8650.546163085495
8.236533086,19714.531491807953,8864.446972258658,-8682.51046503078
8.241288555,19356.624308556937,8691.28762654729,-8714.139126541686
8.246044024,19000.020315832793,8518.733818473189,-8745.43349329068
8.250799492,18644.721725849893,8346.786846086294,-8776.394897770333
8.255554909,18290.730725360103,8175.447984034891,-8807.024659169587
8.260310378,17938.049476094555,8004.718483721237,-8837.32408326128
8.265065847,17586.680115192743,7834.599573464288,-8867.294462300912
8.269821315,17236.624755618603,7665.092458669548,-8896.937074936624
8.274576732,16887.885486563337,7496.198322006048,-8926.253186130274
8.279332201,16540.464373834693,7327.918323590444,-8955.244047089469
8.28408767,16194.363460232576,7160.253601178109,-8983.91089521046
8.288843138,15849.584765910799,6993.205270361192,-9012.254954031785
8.293598555,15506.130288724791,6826.774424773549,-9040.277433198553
8.298354024,15164.002004565285,6660.96213630254,-9067.979528437243
8.303109492,14823.201867677968,6495.769455307568,-9095.36242154101
8.307864909,14483.731810969086,6331.197410845311,-9122.427280365499
8.312620378,14145.593746296927,6167.247010901524,-9149.175258835183
8.317375847,13808.789564749071,6003.91924262929,-9175.607496960183
8.322131315,13473.32113690539,5841.215072593603,-9201.725120863584
8.326886732,13139.19031308677,5679.135447022112,-9227.529242819235
8.331642201,12806.398923589612,5517.681292061867,-9253.020961300008
8.33639767,12474.948778906164,5356.8535140419,-9278.201361036574
8.341153138,12144.841669930825,5196.652999741513,-9303.07151308668
8.345908607,11816.079368152481,5037.080616664065,-9327.632474914912
8.350664024,11488.663625832973,4878.137213316077,-9351.885290482885
8.355419492,11162.596176171672,4719.823619491394,-9375.830990349714
8.360174961,10837.87873345608,4562.140646560196,-9399.470591782661
8.364930378,10514.512993198558,4405.089087762594,-9422.805098877903
8.369685847,10192.500632259278,4248.669718506567,-9445.835502691303
8.374441315,9871.843308955455,4092.8832966699565,-9468.562781379082
8.379196784,9552.542663156923,3937.7305629062707,-9490.987900348273
8.383952201,9234.600316368127,3783.2122409539734,-9513.111812416872
8.38870767,8918.017871796503,3629.3290379489963,-9534.935457983493
8.393463138,8602.796914407189,3476.0816447402303,-9556.459765206357
8.398218607,8288.939010964103,3323.4707362077265,-9577.68565019136
8.402974024,7976.445710057459,3171.4969715833313,-9598.614017188916
8.407729492,7665.318542117797,3020.1609947734573,-9619.245758799256
8.412484961,7355.5590194166325,2869.4634346837115,-9639.581756185884
8.41724043,7047.168636053863,2719.404905545103,-9659.62287929684
8.421995847,6740.148867932039,2569.986007241561,-9679.369987093336
8.426751315,6434.501172717621,2421.2073256384824,-9698.823927785337
8.431506784,6130.226989789331,2273.069432912026,-9717.985539073736
8.436262253,5827.327740173675,2125.5728878788623,-9736.855648398812
8.44101767,5525.804826467692,1978.7182363260658,-9755.435073194656
8.445773138,5225.6596327490315,1832.5060113408035,-9773.724621149184
8.450528607,4926.893524473416,1686.9367336394532,-9791.725090469406
8.455284076,4629.5078483594925,1542.0109118958037,-9809.437270151624
8.460039492,4333.503932261092,1397.7290430679777,-9826.861940256302
8.464794961,4038.8830850269264,1254.0916127237258,-9843.999872187407
8.46955043,3745.6465963477804,1111.099095363748,-9860.851828975883
8.474305847,3453.795736591304,968.7519547427013,-9877.418565566984
8.479061315,3163.331756624593,827.0506441875417,-9893.700829111163
8.483816784,2874.255887624782,685.9956069128526,-9909.6993592582
8.488572253,2586.569340877896,545.5872763328051,-9925.414888454257
8.49332767,2300.273307566207,405.8260763693967,-9940.848142241413
8.498083138,2015.3689585443567,266.7124217566093,-9955.9998395594
8.502838607,1731.8574441044998,128.24671834012585,-9970.870693049277
8.507594076,1449.7398937307387,-9.570636627759091,-9985.461409358732
8.512349492,1169.0174158431014,-146.7392541983974,-9999.772689448599
8.517104961,889.6910975313463,-283.25875344257753,-10013.805228900193
8.52186043,611.7620042788725,-419.12876117221106,-10027.559718222952
8.526615847,335.2311796770156,-554.3489116682784,-10041.036843162039
8.531371315,60.09964512999988,-688.9188464153962,-10054.237285005544
8.536126784,-213.63160044917944,-822.8382138433639,-10067.161720890943
8.540882253,-485.961580951666,-956.1066690760472,-10079.810824110542
8.545637722,-756.8893433941668,-1088.7238736879465,-10092.185264415688
8.550393138,-1026.413958248614,-1220.6894954687907,-10104.285708319516
8.555148607,-1294.5345197797876,-1352.0032081964814,-10116.112819398018
8.559904076,-1561.2501463906156,-1482.6646914187027,-10127.667258589263
8.564659492,-1826.5599809748771,-1612.6736302435063,-10138.949684490477
8.569414961,-2090.4631912770446,-1742.029715139183,-10149.96075365276
8.57417043,-2352.95897025901,-1870.7326417437164,-10160.701120873184
8.578925899,-2614.0465364734414,-1998.7821106841086,-10171.171439484093
8.583681315,-2873.7251344435044,-2126.177827405861,-10181.372361639378
8.588436784,-3131.994035048695,-2252.919502012895,-10191.30453859733
8.593192253,-3388.852535916519,-2379.006849118196,-10200.96862099976
8.59794767,-3644.299961819757,-2504.4395877054408,-10210.365259147142
8.602703138,-3898.335665079048,-2629.2174410018793,-10219.495103269453
8.607458607,-4150.959025970519,-2753.3401363627704,-10228.35880379256
8.612214076,-4402.169453138162,-2876.80740516766,-10236.957011600154
8.616969492,-4651.966384010689,-2999.61898272879,-10245.290378291164
8.621724961,-4900.349285222601,-3121.7746082118983,-10253.359556432586
8.62648043,-5147.317653039183,-3243.274024569652,-10261.165199807809
8.631235899,-5392.871013785147,-3364.1169784879344,-10268.707963660398
8.635991315,-5637.008924276639,-3484.303220345207,-10275.988504933506
8.640746784,-5879.730972256329,-3603.832504185131,-10283.007482505134
8.645502253,-6121.03677683122,-3722.7045877026035,-10289.765557419483
8.65025767,-6360.925988912848,-3840.919232243349,-10296.26339311454
8.655013138,-6599.398291659555,-3958.476202817184,-10302.501655645867
8.659768607,-6836.453400920582,-4075.3752681250453,-10308.481013906687
8.664524076,-7072.091065681735,-4191.616200599859,-10314.2021398443
8.669279492,-7306.3110685124375,-4307.198776461267,-10319.665708672796
8.674034961,-7539.11322601394,-4422.1227757842,-10324.872399082036
8.67879043,-7770.497389268435,-4536.38798258129,-10329.8228934428
8.683545899,-8000.463444288811,-4649.9941848990675,-10334.517878008002
8.688301315,-8229.011312468845,-4762.941174927911,-10338.95804310986
8.693056784,-8456.140951033642,-4875.228749125699,-10343.14408335285
8.697812253,-8681.852353490174,-4986.856708355061,-10347.076697802233
8.70256767,-8906.145550077683,-5097.824858034108,-10350.756590167863
8.707323138,-9129.02060821777,-5208.133008300503,-10354.184468983105
8.712078607,-9350.477632963924,-5317.780974188636,-10357.361047778699
8.716834076,-9570.51676745017,-5426.768575819698,-10360.287045251427
8.721589492,-9789.138193338582,-5535.095638604526,-10362.963185427583
8.726344961,-10006.342131265419,-5642.761993458997,-10365.390197821163
8.73110043,-10222.128841285657,-5749.76747703164,-10367.568817586704
8.735855847,-10436.498623315698,-5856.1119319431655,-10369.499785666558
8.740611315,-10649.451817573989,-5961.795207037584,-10371.183848932376
8.745366784,-10860.988805019168,-6066.817157644665,-10372.621760320599
8.750122201,-11071.110007785443,-6171.177645853493,-10373.8142789617
8.75487767,-11279.815889614878,-6274.876540796861,-10374.762170303036
8.759633138,-11487.106956286194,-6377.913718946281,-10375.46620622514
8.764388607,-11692.983756039743,-6480.28906441738,-10375.927165151194
8.769144024,-11897.446879998313,-6582.00246928542,-10376.1458321494
8.773899492,-12100.496962583564,-6683.053833910623,-10376.122999027953
8.778654961,-12302.13468192782,-6783.443067273042,-10375.859464422452
8.78341043,-12502.360760281072,-6883.170087316735,-10375.356033875505
8.788165847,-12701.175964412934,-6982.234821303058,-10374.613519908351
8.792921315,-12898.581106009347,-7080.637206172822,-10373.63274208424
8.797676784,-13094.577042063698,-7178.377188916986,-10372.414527063385
8.802432201,-13289.164675262078,-7275.454726955642,-10370.959708649309
8.80718767,-13482.34495436234,-7371.8697885249585,-10369.269127826457
8.811943138,-13674.118874566528,-7467.622353071707,-10367.343632789023
8.816698607,-13864.487477886334,-7562.712411655031,-10365.184078961038
8.821454024,-14053.451853501005,-7657.139967355062,-10362.79132900789
8.826209492,-14241.01313810716,-7750.905035687991,-10360.166252839406
8.830964961,-14427.172516260083,-7844.007645027199,-10357.30972760471
8.835720378,-14611.931220705976,-7936.447837030084,-10354.222637679077
8.840475847,-14795.29053270465,-8028.22566707011,-10350.90587464294
8.845231315,-14977.251782342066,-8119.341204673555,-10347.360337253263
8.849986784,-15157.816348832055,-8209.794533960443,-10343.58693140741
8.854742201,-15336.985660806598,-8299.585754089185,-10339.586570099673
8.85949767,-15514.761196594021,-8388.714979704366,-10335.360173370584
8.864253138,-15691.144484484568,-8477.182341387146,-10330.908668249118
8.869008555,-15866.137102982795,-8564.987986107662,-10326.232988687805
8.873764024,-16039.740681046274,-8652.132077678836,-10321.334075490762
8.878519492,-16211.956898310145,-8738.614797211021,-10316.212876234738
8.883274909,-16382.787485297104,-8824.436343566838,-10310.870345183284
8.888030378,-16552.234223612362,-8909.59693381556,-10305.307443194122
8.892785847,-16720.298946123123,-8994.09680368647,-10299.525137619818
8.897541315,-16886.983537122163,-9077.936208020668,-10293.524402201778
8.902296732,-17052.289932475018,-9161.115421220784,-10287.306216957724
8.907052201,-17216.220119750305,-9243.634737698165,-10280.871568062774
8.91180767,-17378.776138332767,-9325.494472317012,-10274.221447724249
8.916563086,-17539.960079518598,-9406.694960834948,-10267.356854050331
8.921318555,-17699.77408659259,-9487.236560339466,-10260.278790912633
8.926074024,-17858.220354886602,-9567.119649679787,-10252.988267802764
8.930829492,-18015.30113181882,-9646.344629893656,-10245.486299682962
8.935584909,-18171.018716913328,-9724.91192462858,-10237.77390683086
8.940340378,-18325.375461799387,-9802.82198055695,-10229.852114678493
8.945095847,-18478.373770189854,-9880.075267784468,-10221.721953645629
8.949851263,-18630.016097838357,-9956.672280251409,-10213.384458967692
8.954606732,-18780.304952474846,-10032.61353612618,-10204.84067051858
8.959362201,-18929.24289371913,-10107.899578190783,-10196.091632628732
8.96411767,-19076.832532972083,-10182.530974217687,-10187.138393898806
8.968873086,-19223.076533284086,-10256.508317337848,-10177.982007009405
8.973628555,-19367.977609200338,-10329.832226399561,-10168.623528527189
8.978384024,-19511.53852658276,-10402.503346317939,-10159.064018707773
8.98313944,-19653.762102408276,-10474.522348414766,-10149.304541295693
8.987894909,-19794.651204543246,-10545.88993074839,-10139.346163321716
8.992650378,-19934.208751493923,-10616.606818433263,-10129.189954897978
8.997405795,-20072.437712132763,-10686.67376394885,-10118.836989011303
9.002161263,-20209.341105400566,-10756.091547437585,-10108.288341315047
9.006916732,-20344.921999984523,-10824.860976991642,-10097.54508991978
9.011672149,-20479.183513972315,-10892.98288892805,-10086.608315183059
9.016427617,-20612.12881448262,-10960.458148051695,-10075.479099498469
9.021183086,-20743.76111727234,-11027.287647905832,-10064.15852708415
9.025938503,-20874.083686320842,-11093.472311009824,-10052.647683770965
9.030693972,-21003.09983339156,-11159.013089083697,-10040.947656790568
9.03544944,-21130.812917571297,-11223.910963259119,-10029.059534563668
9.040204857,-21257.22634478774,-11288.166944276356,-10016.984406488757
9.044960326,-21382.343567305565,-11351.782072666756,-10004.723362731598
9.049715795,-21506.16808320163,-11414.757418920208,-9992.27749401588
9.054471263,-21628.703435819898,-11477.094083637005,-9979.647891415347
9.05922668,-21749.953213206656,-11538.793197663676,-9966.835646147814
9.063982149,-21869.9210475267,-11599.855922212413,-9953.841849371429
9.068737617,-21988.610614460813,-11660.283448963793,-9940.667591983552
9.073493034,-22106.025632584977,-11720.07700015255,-9927.313964422714
9.078248503,-22222.169862731498,-11779.237828636271,-9913.782056473929
9.083003972,-22337.047107332448,-11837.767217946775,-9900.072957077691
9.087759388,-22450.661209745722,-11895.666482324019,-9886.18775414291
9.092514857,-22563.016053564083,-11952.936966732475,-9872.12753436395
9.097270326,-22674.115561907503,-12009.580046860081,-9857.893383041986
9.102025742,-22783.963696699284,-12065.597129099733,-9843.486383910884
9.106781211,-22892.564457926313,-12120.98965051329,-9828.90761896788
9.11153668,-22999.9218828838,-12175.75907877805,-9814.158168309412
9.116292097,-23106.040045404654,-12229.906912115683,-9799.239109972441
9.121047565,-23210.92305507386,-12283.434679203454,-9784.151519781635
9.125803034,-23314.57505642831,-12336.343939067687,-9768.896471202776
9.130558451,-23417.000228142515,-12388.636280959307,-9753.475035202691
9.13531392,-23518.202782200693,-12440.313324211349,-9737.888280115958
9.140069388,-23618.18696305572,-12491.376718078427,-9722.137271518632
9.144824805,-23716.957046775515,-12541.828141558164,-9706.223072109316
9.149580274,-23814.517340177645,-12591.66930319455,-9690.1467415979
9.154335742,-23910.8721799527,-12640.901940863276,-9673.909336602293
9.159091159,-24006.025931777323,-12689.527821539128,-9657.511910553512
9.163846628,-24099.982989417964,-12737.54874104559,-9640.955513609348
9.168602097,-24192.747773826395,-12784.96652378679,-9624.241192576808
9.173357565,-24284.32473222795,-12831.783022462067,-9607.369990843528
9.178112982,-24374.71833720357,-12878.000117763388,-9590.342948318297
9.182868451,-24463.933085766657,-12923.61971805601,-9573.161101380818
9.18762392,-24551.973498435775,-12968.643759042625,-9555.825482840733
9.192379336,-24638.84411830436,-13013.074203411432,-9538.337121905937
9.197134805,-24724.549510108835,-13056.913040468498,-9520.697044160155
9.201890274,-24809.09425929622,-13100.162285754737,-9502.906271549673
9.20664569,-24892.482971092497,-13142.823980647947,-9484.965822379043
9.211401159,-24974.720269572812,-13184.900191950317,-9466.876711315566
9.216156628,-25055.810796734466,-13226.393011461869,-9448.639949402346
9.220912045,-25135.75921157342,-13267.304555540351,-9430.256544079635
9.225667513,-25214.57018916499,-13307.63696464806,-9411.727499214187
9.230422982,-25292.24841974958,-13347.39240288602,-9393.053815136405
9.235178399,-25368.798607824363,-13386.573057515938,-9374.236488685068
9.239933867,-25444.2254712422,-13425.181138470272,-9355.27651325934
9.244689336,-25518.533740318708,-13463.21887785072,-9336.174878877777
9.249444753,-25591.72815694855,-13500.688529415498,-9316.932572244048
9.254200222,-25663.813473731825,-13537.59236805585,-9297.55057681908
9.25895569,-25734.794453111404,-13573.932689262232,-9278.029872899391
9.263711107,-25804.67586652199,-13609.711808580549,-9258.371437701313
9.268466576,-25873.462493551575,-13644.932061058978,-9238.576245450777
9.273222045,-25941.15912111615,-13679.595800685864,-9218.645267478358
9.277977461,-26007.77054264849,-13713.705399819053,-9198.579472319167
9.28273293,-26073.301557301904,-13747.263248607056,-9178.379825817214
9.287488399,-26137.75696916966,-13780.271754402504,-9158.047291233865
9.292243815,-26201.141586520822,-13812.733341168525,-9137.582829360035
9.296999284,-26263.460221053094,-13844.650448878634,-9116.987398631807
9.301754753,-26324.717687163167,-13876.025532910666,-9096.261955249127
9.30651017,-26384.918801235133,-13906.861063435334,-9075.40745329733
9.311265638,-26444.068380947345,-13937.159524800092,-9054.424844871224
9.316021107,-26502.17124459811,-13966.923414909,-9033.3150802014
9.320776524,-26559.232210450624,-13996.155244599195,-9012.079107782465
9.325531992,-26615.256096097513,-14024.857537014477,-8990.717874502929
9.330287461,-26670.24771784541,-14053.032826976523,-8969.232325776393
9.335042878,-26724.211890119892,-14080.683660354149,-8947.623405673638
9.339798347,-26777.15342489106,-14107.812593431168,-8925.892057055262
9.344553815,-26829.077131119844,-14134.422192273396,-8904.039221704601
9.349309232,-26879.98781422516,-14160.515032095258,-8882.065840460658
9.354064701,-26929.89027557206,-14186.09369662657,-8859.972853350702
9.35882017,-26978.789311981007,-14211.160777480087,-8837.761199722267
9.363575586,-27026.689715258075,-14235.71887352035,-8815.431818374249
9.368331055,-27073.596271745995,-14259.770590234451,-8792.985647686757
9.373086524,-27119.513761896127,-14283.318539105248,-8770.4236257493
9.37784194,-27164.446959861296,-14306.3653369877,-8747.746690486942
9.382597409,-27208.400633109406,-14328.913605488855,-8724.95577978398
9.387352878,-27251.37954205756,-14350.965970352067,-8702.05183160466
9.392108295,-27293.38843972617,-14372.525060846043,-8679.035784110549
9.396863763,-27334.432071412233,-14393.593509159382,-8655.908575774272
9.40161918,-27374.5151743808,-14414.173949801054,-8632.671145489276
9.406374649,-27413.642477573936,-14434.26901900723,-8609.324432675312
9.411130117,-27451.818701336342,-14453.881354154886,-8585.869377379366
9.415885534,-27489.048557157064,-14473.013593182677,-8562.306920371802
9.420641003,-27525.336747427067,-14491.668374019539,-8538.638003237584
9.425396472,-27560.687965212317,-14509.848334021568,-8514.863568462395
9.43015194,-27595.106894041957,-14527.556109417672,-8490.98455951353
9.434907357,-27628.5982077111,-14544.79433476442,-8467.001920915412
9.439662826,-27661.1665700978,-14561.56564241051,-8442.916598319742
9.444418242,-27692.81663499396,-14577.872661971101,-8418.729538570342
9.449173711,-27723.553045949833,-14593.718019812282,-8394.441689762816
9.45392918,-27753.380436132164,-14609.104338545842,-8370.054001299028
9.458684597,-27782.303428195883,-14624.034236534559,-8345.567423936503
9.463440065,-27810.326634169327,-14638.51032740817,-8320.982909832817
9.468195534,-27837.454655352954,-14652.53521959028,-8296.30141258494
9.472950951,-27863.692082231373,-14666.111515836414,-8271.523887263596
9.47770642,-27889.043494398356,-14679.24181278334,-8246.651290442705
9.482461888,-27913.513460494632,-14691.928700509749,-8221.684580224097
9.487217305,-27937.106538158165,-14704.174762108456,-8196.624716257678
9.491972774,-27959.82727398664,-14715.982573270336,-8171.472659757229
9.49672819,-27981.680203511856,-14727.354701880091,-8146.229373511994
9.501483659,-28002.669851185383,-14738.293707624016,-8120.895821894202
9.506239128,-28022.800730374904,-14748.80214160987,-8095.4729708626855
9.510994597,-28042.077343370696,-14758.88254599899,-8069.96178796277
9.515750013,-28060.50418140167,-14768.537453650795,-8044.363242322572
9.520505482,-28078.085724660254,-14777.769387779872,-8018.678304645866
9.525260899,-28094.826442335547,-14786.58086162573,-7992.907947201596
9.530016367,-28110.730792653845,-14794.974378135426,-7967.053143810155
9.534771836,-28125.80322292584,-14802.952429659135,-7941.11486982658
9.539527253,-28140.048169599773,-14810.517497658566,-7915.094102120762
9.544282722,-28153.47005831989,-14817.672052428079,-7888.99181905478
9.54903819,-28166.07330398936,-14824.41855282841,-7862.809000457449
9.553793607,-28177.862310836827,-14830.759446032805,-7836.546627596238
9.558549076,-28188.841472485736,-14836.697167285389,-7810.20568314661
9.563304492,-28199.015172025604,-14842.234139671551,-7783.7871511587355
9.568059961,-28208.3877820844,-14847.372773900232,-7757.2920170216175
9.57281543,-28216.963664901392,-14852.115468097958,-7730.721267424687
9.577570847,-28224.747172399882,-14856.464607614484,-7704.075890316969
9.582326315,-28231.742646259405,-14860.42256483986,-7677.356874863897
9.587081784,-28237.954417986897,-14863.991699032727,-7650.565211401854
9.591837201,-28243.386808986485,-14867.174356159592,-7623.701891390542
9.59659267,-28248.044130627713,-14869.972868744897,-7596.767907363291
9.601348138,-28251.93068431209,-14872.389555731646,-7569.764252875409
9.606103555,-28255.050761537623,-14874.426722352455,-7542.691922450725
9.610859024,-28257.40864396119,-14876.086660010787,-7515.551911526467
9.615614492,-28259.00860345845,-14877.371646172209,-7488.345216396615
9.620369909,-28259.854902181036,-14878.283944265464,-7461.072834153875
9.625125378,-28259.95179261092,-14878.825803593232,-7433.735762630424
9.629880795,-28259.303517612043,-14878.999459252434,-7406.335000337553
9.634636263,-28257.914310479362,-14878.807132063866,-7378.8715464043835
9.639391732,-28255.78839498526,-14878.251028511051,-7351.346400515748
9.644147149,-28252.92998542346,-14877.333340688356,-7323.760562849352
9.648902617,-28249.343286650408,-14876.056246258406,-7296.115034012303
9.653658086,-28245.032494124032,-14874.42190841881,-7268.410814977163
9.658413503,-28240.00179393989,-14872.432475878235,-7240.64890701769
9.663168972,-28234.255362864795,-14870.09008284177,-7212.830311644447
9.667924388,-28227.797368368225,-14867.396849005501,-7184.956030540342
9.672679857,-28220.631968651785,-14864.354879560271,-7157.027065496226
9.677435326,-28212.763312676925,-14860.966265204566,-7129.044418346654
9.682190742,-28204.195540191227,-14857.233082166475,-7101.009090905929
9.686946211,-28194.93278175342,-14853.157392234634,-7072.922084904501
9.69170168,-28184.97915875725,-14848.741242798116,-7044.784401925827
9.696457097,-28174.33878345438,-14843.986666895178,-7016.597043343685
9.701212565,-28163.015758976682,-14838.895683270775,-6988.361010259963
9.705967982,-28151.01417935834,-14833.470296442598,-6960.077303442905
9.710723451,-28138.33812955807,-14827.712496775428,-6931.746923265764
9.71547892,-28124.99168548182,-14821.624260563749,-6903.370869645853
9.720234336,-28110.978914005933,-14815.2075501224,-6874.950141983994
9.724989805,-28096.30387300089,-14808.464313885153,-6846.485739104345
9.729745274,-28080.970611355402,-14801.39648651099,-6817.97865919454
9.73450069,-28064.98316900076,-14794.005988997904,-6789.429899746009
9.739256159,-28048.34557693509,-14786.294728804003,-6760.840457494332
9.744011576,-28031.061857247252,-14778.264599975782,-6732.211328359555
9.748767045,-28013.136023139752,-14769.917483283483,-6703.543507386319
9.753522513,-27994.57207895003,-14761.255246363491,-6674.8379886837
9.75827793,-27975.37402016943,-14752.279743867659,-6646.095765364679
9.763033399,-27955.545833459335,-14742.992817619357,-6617.317829485203
9.767788815,-27935.091496664023,-14733.396296776078,-6588.5051719827225
9.772544284,-27914.01497881998,-14723.49199799844,-6559.658782614102
9.777299753,-27892.320240161494,-14713.28172562543,-6530.779649892793
9.78205517,-27870.011232122317,-14702.767271855779,-6501.868761025184
9.786810638,-27847.091897333434,-14691.950416935462,-6472.927101846059
9.791566107,-27823.566169617083,-14680.832929351332,-6443.955656753097
9.796321524,-27799.437973977336,-14669.416566031014,-6414.955408640376
9.801076992,-27774.711226587555,-14657.703072549177,-6385.927338830856
9.805832409,-27749.389834774986,-14645.694183340345,-6356.872427007848
9.810587878,-27723.477697002727,-14633.391621918316,-6327.791651145499
9.815343347,-27696.97870284949,-14620.797101102311,-6298.685987438347
9.820098763,-27669.89673298729,-14607.912323249826,-6269.556410230053
9.824854232,-27642.235659157424,-14594.738980496122,-6240.403891941395
9.829609701,-27613.999344145268,-14581.278755000418,-6211.229402997596
9.834365117,-27585.191641754238,-14567.533319198814,-6182.033911755023
9.839120586,-27555.81639677915,-14553.504336063914,-6152.818384427358
9.843876003,-27525.877444978956,-14539.193459370928,-6123.583785011289
9.848631472,-27495.378613048975,-14524.602333970011,-6094.33107521184
9.85338694,-27464.323718592612,-14509.732596064452,-6065.061214367412
9.858142357,-27432.716570092613,-14494.58587349421,-6035.775159374646
9.862897826,-27400.560966882127,-14479.163786024237,-6006.473864613191
9.867653242,-27367.86069911581,-14463.467945637007,-5977.158281870453
9.872408711,-27334.619547741127,-14447.499956828799,-5947.829360266392
9.877164128,-27300.84128447007,-14431.261416909363,-5918.488046178446
9.881919597,-27266.52967175148,-14414.753916304648,-5889.13528316669
9.886675065,-27231.6884627442,-14397.979038862146,-5859.772011899274
9.891430482,-27196.321401291156,-14380.938362158466,-5830.399170078184
9.896185951,-27160.43222189464,-14363.633457808748,-5801.017692365386
9.90094142,-27124.024649692998,-14346.065891777636,-5771.628510309413
9.905696836,-27087.102400438627,-14328.23722469145,-5742.232552272452
9.910452305,-27049.669180477526,-14310.149012151234,-5712.830743357944
9.915207722,-27011.728686730545,-14291.802805046378,-5683.424005338739
9.91996319,-26973.28460667637,-14273.20014986834,-5654.013256585868
9.924718659,-26934.340618336195,-14254.342589024078,-5624.599411997955
9.929474076,-26894.90039026025,-14235.231661148735,-5595.183382931302
9.934229545,-26854.967581516732,-14215.868901417216,-5565.766077130634
9.938984961,-26814.54584168361,-14196.255841854208,-5536.348398660582
9.94374043,-26773.638810843662,-14176.394011642196,-5506.9312478379325
9.948495847,-26732.25011958288,-14156.284937427099,-5477.515521164697
9.953251315,-26690.383388992293,-14135.93014362124,-5448.102111262006
9.958006784,-26648.04223067317,-14115.331152703326,-5418.691906804813
9.962762201,-26605.23024674573,-14094.489485515085,-5389.285792457358
9.96751767,-26561.951029861477,-14073.406661554223,-5359.884648809334
9.972273086,-26518.20816321932,-14052.084199263223,-5330.4893523127375
9.977028555,-26474.005220585474,-14030.523616313478,-5301.10077521937
9.981784024,-26429.34576631708,-14008.726429884307,-5271.719785518918
9.98653944,-26384.23335538935,-13986.694156936419,-5242.347246877597
9.991294909,-26338.671533426197,-13964.428314479503,-5212.984018577344
9.996050326,-26292.663836734406,-13941.930419833667,-5183.630955455539
10.0008058,-26246.213792341325,-13919.201990884449,-5154.288907845258
10.00556126,-26199.324918036113,-13896.244546331076,-5124.9587215160445
10.01031668,-26152.000722414432,-13873.059605927712,-5095.641237615266
10.01507215,-26104.244704926445,-13849.648690717531,-5066.337292610156
10.01982756,-26056.06035592809,-13826.013323259507,-5037.047718230663
10.02458303,-26007.45115673549,-13802.155027847843,-5007.773341413178
10.02933845,-25958.420579682213,-13778.075330723816,-4978.514984245182
10.03409392,-25908.972088179235,-13753.775760279841,-4949.273463910894
10.03884939,-25859.109136777424,-13729.257847255658,-4920.049592638006
10.04360481,-25808.8351712323,-13704.523124926463,-4890.84417764561
10.04836027,-25758.153628570693,-13679.57312928285,-4861.658021093384
10.05311569,-25707.06793715894,-13654.409399202368,-4832.491920032139
10.05787116,-25655.58151677191,-13629.03347661252,-4803.346666355817
10.06262663,-25603.69777866247,-13603.446906644902,-4774.223046755023
10.06738204,-25551.420125630895,-13577.651237780256,-4745.121842672156
10.07213751,-25498.751952093597,-13551.648021984147,-4716.043830258274
10.07689293,-25445.69664415069,-13525.43881483305,-4686.989780331741
10.0816484,-25392.25757965176,-13499.02517563047,-4657.960458338735
10.08640382,-25338.438128259397,-13472.408667512915,-4628.9566243156405
10.09115928,-25284.241651509998,-13445.590857545576,-4599.979032853345
10.0959147,-25229.671502871497,-13418.573316807458,-4571.028433063505
10.10067017,-25174.731027797803,-13391.357620465766,-4542.105568546784
10.10542564,-25119.423563779816,-13363.94534783939,-4513.211177363086
10.11018106,-25063.752440392796,-13336.338082451362,-4484.3459920037585
10.11493652,-25007.72097933986,-13308.53741207019,-4455.510739365759
10.11969194,-24951.332494491504,-13280.544928739968,-4426.706140727759
10.12444741,-24894.5902919208,-13252.362228799171,-4397.932911728146
10.12920283,-24837.497669934088,-13223.99091288809,-4369.19176234489
10.1339583,-24780.057919096973,-13195.432585944935,-4340.483396877241
10.13871376,-24722.27432225546,-13166.688857190673,-4311.808513929224
10.14346918,-24664.15015455189,-13137.761340102654,-4283.16780639488
10.14822465,-24605.688683435303,-13108.651652377115,-4254.561961445174
10.15298007,-24546.89316866588,-13079.36141588054,-4225.991660516493
10.15773553,-24487.76686231309,-13049.892256589961,-4197.457579300636
10.162491,-24428.313008747,-13020.24580452249,-4168.960387736234
10.16724642,-24368.53484462256,-12990.423693654191,-4140.500750001496
10.17200189,-24308.4355988565,-12960.427561828295,-4112.079324508201
10.1767573,-24248.01849259677,-12930.259050652809,-4083.6967638968513
10.18151277,-24187.28673918443,-12899.91980538761,-4055.353715032947
10.18626819,-24126.24354410789,-12869.411474821212,-4027.050819004385
10.19102366,-24064.89210494938,-12838.735711137355,-3998.788711119927
10.19577908,-24003.235611323704,-12807.894169771636,-3970.5680209087127
10.20053454,-23941.27724480933,-12776.88850925838,-3942.3893721207796
10.20528996,-23879.020178871902,-12745.720391067909,-3914.25338272851
10.21004543,-23816.46757878014,-12714.391479434356,-3886.1606649289406
10.2148009,-23753.62260151398,-12682.903441174196,-3858.1118251469084
10.21955632,-23690.488395664754,-12651.257945495807,-3830.1074640389843
10.22431178,-23627.068101327233,-12619.456663800473,-3802.148176498158
10.2290672,-23563.364849983616,-12587.50126947518,-3774.2345516592386
10.23382267,-23499.38176437951,-12555.39343767768,-3746.367172904952
10.23857809,-23435.121958392112,-12523.134845114248,-3718.5466178727374
10.24333356,-23370.588536890937,-12490.72716981067,-3690.773458462227
10.24808897,-23305.78459559132,-12458.172090877115,-3663.0482608433936
10.25284444,-23240.71322090134,-12425.471288267641,-3635.3715854653456
10.25759991,-23175.377489762723,-12392.626442534991,-3607.7439870657695
10.26235533,-23109.780469486697,-12359.639234581267,-3580.166014681008
10.2671108,-23043.92521758545,-12326.511345405068,-3552.638211656789
10.27186621,-22977.814781600002,-12293.244455845646,-3525.1611156595964
10.27662168,-22911.452198925334,-12259.840246324644,-3497.7352586887378
10.2813771,-22844.840496633624,-12226.30039658582,-3470.361167089152
10.28613256,-22777.982691296504,-12192.626585433314,-3443.0393615650214
10.29088798,-22710.88178880723,-12158.820490468812,-3415.7703571942143
10.29564345,-22643.540784203396,-12124.883787827948,-3388.5546634435714
10.30039887,-22575.962661490787,-12090.818151916159,-3361.392784185058
10.30515434,-22508.150393469037,-12056.62525514418,-3334.2852177127847
10.30990975,-22440.10694155992,-12022.306767663438,-3307.2324567609016
10.31466522,-22371.835255639035,-11987.864357101636,-3280.2349885224194
10.31942069,-22303.338273871654,-11953.299688298806,-3253.2932946690034
10.32417611,-22234.618922553196,-11918.614423044175,-3226.4078513717855
10.32893158,-22165.680115954925,-11883.810219814268,-3199.5791293232423
10.33368699,-22096.524756175473,-11848.888733512676,-3172.807593760154
10.33844246,-22027.155732998574,-11813.851615211901,-3146.0937044876546
10.34319788,-21957.575923757464,-11778.700511897485,-3119.4379159043733
10.34795335,-21887.78819320661,-11743.437066214638,-3092.840677028641
10.35270876,-21817.795393401248,-11708.062916217505,-3066.3024315257467
10.35746423,-21747.60036358524,-11672.579695121392,-3039.8236177362232
10.36221965,-21677.205930087788,-11636.989031058341,-3013.4046687051164
10.36697512,-21606.614906229675,-11601.292546836472,-2987.046012212172
10.37173053,-21535.83009223935,-11565.491859703536,-2960.748070802848
10.376486,-21464.85427517902,-11529.588581115035,-2934.5112618200474
10.38124142,-21393.690228880536,-11493.584316507337,-2908.3359974365076
10.38599689,-21322.340713891,-11457.480665076171,-2882.222684687756
10.39075236,-21250.80847742781,-11421.279219560838,-2856.171725505568
10.39550777,-21179.096253342632,-11384.981566034414,-2830.183516751841
10.40026324,-21107.20676209378,-11348.589283700163,-2804.2584502528425
10.40501866,-21035.142710726497,-11312.103944694343,-2778.3969128337703
10.40977413,-20962.90679286041,-11275.527113895694,-2752.5992863535753
10.41452954,-20890.50168868386,-11238.860348741771,-2726.865947740011
10.41928501,-20817.93006495493,-11202.105199052306,-2701.1972690248786
10.42404043,-20745.19457500904,-11165.26320685972,-2675.593617379426
10.4287959,-20672.297858773025,-11128.335906246808,-2650.055355149857
10.43355132,-20599.242542785243,-11091.324823191573,-2624.582839892899
10.43830678,-20526.031240221702,-11054.231475419137,-2599.176424411395
10.4430622,-20452.666550928043,-11017.057372260682,-2573.8364567898784
10.44781767,-20379.151061457378,-10979.804014519294,-2548.563280430087
10.45257309,-20305.487345114012,-10942.47289434273,-2523.3572340864057
10.45732856,-20231.677962002927,-10905.065495103143,-2498.218651901202
10.46208397,-20157.725459085068,-10867.583291283747,-2473.1478634400073
10.46683944,-20083.63237023838,-10830.027748372591,-2448.145193726512
10.47159486,-20009.401216324455,-10792.40032276345,-2423.2109632773486
10.47635033,-19935.034505260708,-10754.702461663835,-2398.3454881366365
10.48110574,-19860.534732098175,-10716.935603010177,-2373.5490799102627
10.48586121,-19785.9043791048,-10679.10117539013,-2348.8220457998755
10.49061663,-19711.145915854217,-10641.200597971962,-2324.164688636568
10.4953721,-19636.261799319993,-10603.235280440958,-2299.57730691422
10.50012751,-19561.254473975372,-10565.206622942836,-2275.06019482246
10.50488298,-19486.12637189845,-10527.116016034168,-2250.6136422792065
10.5096384,-19410.87991288247,-10488.964840639786,-2226.2379349627813
10.51439387,-19335.517504551124,-10450.754468017165,-2201.933354343573
10.51914928,-19260.041542478797,-10412.486259727746,-2177.7001777152373
10.52390475,-19184.454410315677,-10374.16156761518,-2153.538678225402
10.52866017,-19108.758479917316,-10335.781733790338,-2129.4491249058483
10.53341564,-19032.95611147816,-10297.348090623029,-2105.43178270218
10.53817106,-18957.049653668608,-10258.861960740305,-2081.4869125029763
10.54292652,-18881.04144377516,-10220.324657031122,-2057.614771168433
10.54768194,-18804.93380784333,-10181.73748265702,-2033.8156115584895
10.55243741,-18728.729060822752,-10143.1017310685,-2010.0896825604477
10.55719283,-18652.429506713976,-10104.418686026725,-1986.4372291161012
10.5619483,-18576.03743871651,-10065.689621630263,-1962.8584922484104
10.56670371,-18499.555139377764,-10026.915802346746,-1939.3537090877662
10.57145918,-18422.984880742428,-9988.098483049303,-1915.9231128978702
10.5762146,-18346.32892450191,-9949.238909057607,-1892.566933101258
10.58097006,-18269.58952214355,-9910.338316183408,-1869.2853953044842
10.58572548,-18192.76891509917,-9871.397930780457,-1846.0787213229894
10.59048095,-18115.86933489269,-9832.418969798737,-1822.947129205665
10.59523637,-18038.893003286543,-9793.402640842842,-1799.8908332591327
10.59999184,-17961.842132426536,-9754.350142234269,-1776.910044071761
10.60474725,-17884.71892498488,-9715.262663077472,-1754.0049685374504
10.60950272,-17807.52557430104,-9676.141383329455,-1731.1758098792257
10.61425814,-17730.264264520134,-9636.987473872654,-1708.4227676726728
10.61901361,-17652.937170728605,-9597.802096590709,-1685.7460378692606
10.62376902,-17575.546459086687,-9558.586404446865,-1663.1458128195711
10.62852449,-17498.09428695735,-9519.341541564667,-1640.6222812964606
10.63327991,-17420.582803031335,-9480.068643310688,-1618.1756285181757
10.63803538,-17343.01414744791,-9440.76883637907,-1595.8060361714479
10.6427908,-17265.39045191093,-9401.443238877571,-1573.513682434593
10.64754626,-17187.713839799813,-9362.092960414819,-1551.298742000645
10.65230168,-17109.986426274983,-9322.719102188425,-1529.1613861005587
10.65705715,-17032.210318377634,-9283.322757073694,-1507.1017825264992
10.66181256,-16954.387615123604,-9243.905009712675,-1485.1200956552286
10.66656803,-16876.52040759112,-9204.466936603278,-1463.216486471597
10.67132345,-16798.610779002225,-9165.009606188283,-1441.391112592129
10.67607887,-16720.66080479774,-9125.534078944074,-1419.644128288687
10.68083434,-16642.672552705553,-9086.041407469076,-1397.9756845121892
10.68558975,-16564.64808280219,-9046.532636571985,-1376.3859289163647
10.69034522,-16486.589447567567,-9007.008803359826,-1354.8750058815292
10.69510064,-16408.498691933048,-8967.470937325901,-1333.4430565383684
10.69985611,-16330.377853322947,-8927.920060437638,-1312.0902187917106
10.70461152,-16252.228961689758,-8888.357187224432,-1290.816627344282
10.70936699,-16174.054039543276,-8848.783324865502,-1269.6224137204256
10.71412241,-16095.855101973819,-8809.199473277833,-1248.5077062897683
10.71887788,-16017.634156669737,-8769.606625204215,-1227.4726302908184
10.7236333,-15939.393203929483,-8730.005766301307,-1206.5173078544756
10.72838876,-15861.134236668422,-8690.397875227538,-1185.6418580274408
10.73314418,-15782.859240420663,-8650.783923730674,-1164.8463967955176
10.73789965,-15704.570193336118,-8611.164876734883,-1144.131037106794
10.74265507,-15626.269066172927,-8571.54169242709,-1123.4958888946962
10.74741053,-15547.957822285502,-8531.915322342507,-1102.9410591009068
10.75216595,-15469.638417608618,-8492.286711449202,-1082.4666516981363
10.75692137,-15391.312800637868,-8452.656798231676,-1062.0727677127286
10.76167684,-15312.982912406664,-8413.026514773423,-1041.759505247078
10.76643225,-15234.650686459965,-8373.396786838377,-1021.526959501842
10.77118772,-15156.318048824995,-8333.768533951134,-1001.3752227979351
10.77594314,-15077.986917979153,-8294.142669475774,-981.3043845983002
10.78069861,-14999.659204815278,-8254.520100693157,-961.3145315294553
10.78545402,-14921.336812604395,-8214.901728876524,-941.4057474028135
10.79020949,-14843.02163695627,-8175.288449365258,-921.5781132357733
10.79496491,-14764.715565778146,-8135.6811516367425,-901.8317072725736
10.79972038,-14686.420479232125,-8096.080719376278,-882.1666050049084
10.8044758,-14608.138249691578,-8056.488030544981,-862.5828791923007
10.80923126,-14529.870741696908,-8016.903957445687,-843.0805998822367
10.81398668,-14451.619811911001,-7977.32936678689,-823.6598344300716
10.8187421,-14373.387309074724,-7937.765119744733,-804.3206475187175
10.82349756,-14295.175073962877,-7898.212072023126,-785.0631011781359
10.82825298,-14216.984939340928,-7858.671073912072,-765.887254804651
10.83300845,-14138.818729922887,-7819.142970344298,-746.7931651801051
10.83776387,-14060.678262330548,-7779.628600950283,-727.780886490873
10.84251934,-13982.56534505418,-7740.1288001117855,-708.8504703467544
10.84727475,-13904.481778414738,-7700.644397013998,-690.0019657997664
10.85203017,-13826.42935452782,-7661.176215696425,-671.2354193628556
10.85678564,-13748.409857269491,-7621.725075102627,-652.550875028553
10.86154106,-13670.425062244047,-7582.2917891289935,-633.948374287584
10.86629652,-13592.476736753755,-7542.877166672741,-615.427956147443
10.87105194,-13514.566639770508,-7503.48201167934,-596.9896571509397
10.87580741,-13436.696521909234,-7464.107123189545,-578.6335113947285
10.88056283,-13358.868125403065,-7424.753295386169,-560.3595505478361
10.88531824,-13281.08318408019,-7385.421317640788,-542.1678038701975
10.89007371,-13203.343423342367,-7346.111974560526,-524.0582982312077
10.89482913,-13125.65056014506,-7306.826046035079,-506.031058128287
10.8995846,-13048.006302979118,-7267.564307284184,-488.0861057054539
10.90434001,-12970.4123518538,-7228.327528905617,-470.2234607718988
10.90909548,-12892.870398280982,-7189.116476923845,-452.4431408205521
10.9138509,-12815.382125260328,-7149.931912839369,-434.7451610466416
10.91860632,-12737.949207265368,-7110.774593678813,-417.1295343662362
10.92336178,-12660.57331023044,-7071.645272045762,-399.59627143477616
10.9281172,-12583.25609153848,-7032.544696172325,-382.1453806655883
10.93287267,-12505.999200009726,-6993.473609971332,-364.77686824838554
10.93762809,-12428.80427589143,-6954.432753089081,-347.49073816774853
10.94238356,-12351.672950848651,-6915.422860958486,-330.2869922215904
10.94713897,-12274.606847956176,-6876.444664852468,-313.1656300396073
10.95189439,-12197.607581691533,-6837.498891937449,-296.12664910171225
10.95664986,-12120.676757928999,-6798.586265326836,-279.1700447564529
10.96140527,-12043.815973934517,-6759.707504134363,-262.2958102394137
10.96616074,-11967.026818361399,-6720.863323527146,-245.5039366915989
10.97091616,-11890.310871246718,-6682.05443477832,-228.79441317779464
10.97567163,-11813.669704008345,-6643.281545319098,-212.16722670490736
10.98042704,-11737.104879442553,-6604.545358790164,-195.62236224027728
10.98518246,-11660.617951722063,-6565.846575092307,-179.15980272996606
10.98993793,-11584.210466394365,-6527.185890436278,-162.77952911702087
10.99469335,-11507.88396038024,-6488.563997391873,-146.4815203597142
10.99944882,-11431.639961972443,-6449.981584936225,-130.265753449759
11.00420423,-11355.479990834476,-6411.439338501218,-114.13220343049865
11.00895965,-11279.405557999486,-6372.9379400199705,-98.08084341507123
11.01371512,-11203.41816586935,-6334.478067972277,-82.111644604544
11.01847053,-11127.519308214058,-6296.060397428892,-66.22457630601541
11.023226,-11051.710470171474,-6257.685600094465,-50.419605950681216
11.02798142,-10975.993128247708,-6219.3543443489625,-34.696699111861996
11.03273684,-10900.368750318208,-6181.067295287464,-19.055819522989655
11.0374923,-10824.838795629666,-6142.825114758266,-3.4969290955506827
11.04224772,-10749.404714802733,-6104.628461399255,11.980012063015431
11.04700319,-10674.067949835553,-6066.477990672459,27.375045631464403
11.05175861,-10598.82993410806,-6028.374354896669,42.68821505694392
11.05651402,-10523.692092386953,-5990.318203278072,57.919565537240814
11.06126949,-10448.655840831383,-5952.310181938876,73.06914400308028
11.06602491,-10373.722586999293,-5914.350933943843,88.1369991004786
11.07078038,-10298.893729854342,-5876.441099324704,103.12318117315073
11.0755358,-10224.170659773376,-5838.581315102365,118.02774224497402
11.08029121,-10149.554758554355,-5800.772215306931,132.85073600250917
11.08504668,-10075.04739942472,-5763.014430995549,147.5922177775785
11.0898021,-10000.649947050086,-5725.308590268108,162.25224452990224
11.09455756,-9926.363757543264,-5687.65531828085,176.8308748297932
11.09931298,-9852.190178473555,-5650.055237257933,191.32816884090965
11.1040684,-9778.130548876285,-5612.508966500886,205.744188303067
11.10882387,-9704.186199262545,-5575.017122396046,220.07899651510803
11.11357928,-9630.358451628987,-5537.580318420056,234.33265831783098
11.11833475,-9556.648619467578,-5500.199165143536,248.50524007697362
11.12309017,-9483.058007775247,-5462.874270233018,262.59680966625166
11.12784559,-9409.587913063355,-5425.6062384512625,276.60743645045034
11.13260106,-9336.239623366966,-5388.395671656119,290.5371912685688
11.13735647,-9263.014418253872,-5351.243168798073,304.3861464170166
11.14211189,-9189.91356883336,-5314.14932591664,318.1543756328633
11.14686736,-9116.938337764723,-5277.114736135733,331.84195407713884
11.15162277,-9044.0899792655,-5240.139989658129,345.4489583181844
11.15637824,-8971.36973911951,-5203.22567375905,358.9754663150539
11.16113366,-8898.778854684599,-5166.372372778998,372.4215574009647
11.16588908,-8826.318554900105,-5129.580668115947,385.7873122667982
11.17064454,-8753.990060293916,-5092.851138217025,399.07281294464957
11.17539996,-8681.794582989029,-5056.184358569852,412.2781427914252
11.18015538,-8609.733326709538,-5019.5809016936555,425.4033864724879
11.18491085,-8537.807486786027,-4983.041337130312,438.44862994534884
11.18966626,-8466.018250160347,-4946.566231435365,451.41396044340775
11.19442173,-8394.36679538978,-4910.156148169113,464.299466459746
11.19917715,-8322.854292650565,-4873.811647887799,477.1052377309738
11.20393256,-8251.48190374072,-4837.533288134964,489.83136522113455
11.20868803,-8180.250782082065,-4801.321623433086,502.4779411056696
11.21344345,-8109.16207272138,-4765.177205275552,515.0450587554488
11.21819887,-8038.216912330716,-4729.100582118991,527.5328127208741
11.22295434,-7967.41642920684,-4693.092299376002,539.9412987160583
11.22770975,-7896.761743269848,-4657.152899408305,552.2706136030895
11.23246517,-7826.253966060924,-4621.282921520303,564.5208553763829
11.23722064,-7755.894200739253,-4585.482901953079,576.6921231471283
11.24197606,-7685.683542078146,-4549.753373878801,588.7845171278395
11.24673152,-7615.623076460409,-4514.094867395489,600.7981386170176
11.25148694,-7545.713881873019,-4478.507909522085,612.7330899839354
11.25624236,-7475.957027901136,-4442.993024193758,624.589474653552
11.26099783,-7406.3535757215095,-4407.5507322574,636.3673970915646
11.26575324,-7336.904578095438,-4372.181551467274,648.0669627896096
11.27050866,-7267.611079361396,-4336.885996480784,659.6882782506208
11.27526413,-7198.474115427438,-4301.664578854378,671.2314509743513
11.28001954,-7129.494713763458,-4266.5178070395505,682.6965894430639
11.28477496,-7060.673893393311,-4231.446186378936,694.0838031073988
11.28953043,-6992.012664886848,-4196.4502191024785,705.3932023724358
11.29428585,-6923.512030351876,-4161.530404323671,716.624898583965
11.29904126,-6855.172983426082,-4126.687238035823,727.779004014979
11.30379673,-6786.996509268998,-4091.9212131083605,738.8556318523962
11.30855215,-6718.98358455406,-4057.2328192831164,749.8548961840168
11.31330756,-6651.135177460832,-4022.6225431705443,760.7769119857069
11.31806303,-6583.452247667445,-3988.090868245851,771.6217951088016
11.32281845,-6515.935746343328,-3953.6382748450033,782.389662267722
11.32757387,-6448.586616142217,-3919.265240160528,793.0806310278
11.33232934,-6381.405791195463,-3884.972238237052,803.694819793306
11.33708475,-6314.394197105644,-3850.7597399665233,814.2323477956776
11.34184017,-6247.552750940484,-3816.628213083132,824.6933350819497
11.34659564,-6180.88236122709,-3782.578122157917,835.0779025033917
11.35135106,-6114.3839279465155,-3748.609928593046,845.386171704357
11.35610647,-6048.0583425286995,-3714.7240906157745,855.618265111347
11.36086194,-5981.906487847842,-3680.9210632720915,865.7743059222839
11.36561736,-5915.929238218261,-3647.201298420033,875.8544180959914
11.37037283,-5850.127459390766,-3613.5652447226366,885.8587263418844
11.37512824,-5784.502008549603,-3580.0133476405235,895.7873561098716
11.37988366,-5719.053734310024,-3546.5460494240456,905.6404335804681
11.38463908,-5653.783476716544,-3513.163789104954,915.4180856551243
11.38939454,-5588.69206724193,-3479.8670024875573,925.1204399467632
11.39414996,-5523.780328786955,-3446.6561221393617,934.7476247705201
11.39890538,-5459.049075680906,-3413.5315773812085,944.2997691346785
11.40366085,-5394.499113682843,-3380.4937942769056,953.7770027318079
11.40841626,-5330.13123998355,-3347.5431956223465,963.179455930109
11.41317168,-5265.946243208167,-3314.6802009341195,972.5072597649704
11.41792715,-5201.94490341948,-3281.9052264376332,981.7605459307409
11.42268256,-5138.12799212183,-3249.218685054808,990.9394467727212
11.42743798,-5074.496272265692,-3216.6209863913514,1000.0440952793793
11.43219345,-5011.050498252976,-3184.1125367236223,1009.0746250747919
11.43694887,-4947.791415943079,-3151.693738985095,1018.031170411308
11.44170428,-4884.71976265974,-3119.364992752437,1026.913866162433
11.44645975,-4821.836267198708,-3087.126694231212,1035.7228478159295
11.45121517,-4759.141649836298,-3054.979236241213,1044.4582514671388
11.45597059,-4696.636622338843,-3022.923008201473,1053.1202138125143
11.460726,-4634.321887973101,-2990.9583961149797,1061.7088721433697
11.46548147,-4572.198141517644,-2959.0857825531466,1070.2243643398333
11.47023689,-4510.266069275261,-2927.305546640069,1078.6668288650135
11.4749923,-4448.526349086407,-2895.6180640366188,1087.0364047593828
11.47974777,-4386.979650343747,-2864.023706924391,1095.3332316353888
11.48450319,-4325.626634007777,-2832.5228439895204,1103.5574496723004
11.48925861,-4264.4679526235495,-2801.1158404063676,1111.7091996113033
11.49401408,-4203.504250338474,-2769.8030578210582,1119.7886227508611
11.49876949,-4142.736162921158,-2738.5848543348898,1127.7958609423613
11.50352491,-4082.164317781268,-2707.4615844875952,1135.7310565860641
11.50828033,-4021.7893339903803,-2676.4335992404735,1143.5943526273759
11.5130358,-3961.611822303808,-2645.501245959429,1151.3858925534735
11.51779121,-3901.6323851833877,-2614.664868397942,1159.1058203903046
11.52254668,-3841.8516168212536,-2583.9248066799973,1166.754280699975
11.5273021,-3782.270103164617,-2553.2813972829817,1174.331418578532
11.53205751,-3722.8884219415822,-2522.7349730205656,1181.8373796541555
11.53681293,-3663.7071426879793,-2492.2858630255523,1189.272310085759
11.5415684,-3604.7268267752283,-2461.9343927326877,1196.6363565620165
11.54632382,-3545.9480274392367,-2431.6808838614224,1203.9296663008106
11.55107923,-3487.3712898103217,-2401.5256543986284,1211.1523870491171
11.55583465,-3428.9971509441275,-2371.469018581303,1218.304667083338
11.56059012,-3370.8261398535215,-2341.5112868793053,1225.3866552100944
11.56534553,-3312.8587775414785,-2311.6527659781736,1232.3985007674883
11.57010095,-3255.0955770349838,-2281.8937587620685,1239.340353626843
11.57485642,-3197.537043419981,-2252.2345642969203,1246.212364194942
11.57961184,-3140.183673877384,-2222.6754778138406,1253.0146834167815
11.58436725,-3083.03595772016,-2193.2167906928566,1259.747462778845
11.58912272,-3026.0943764315252,-2163.8587904470164,1266.4108543129141
11.59387814,-2969.3594037042967,-2134.601760706904,1273.0050106004264
11.59863356,-2912.831505481393,-2105.445981205618,1279.5300847773826
11.60338897,-2856.5111399974944,-2076.3917277642677,1285.9862305398149
11.60814444,-2800.3987578218575,-2047.4392722780344,1292.3736021498296
11.61289986,-2744.494801902307,-2018.5888827028534,1298.69235444223
11.61765527,-2688.7997076104384,-1989.8408230427556,1304.9426428317036
11.62241069,-2633.313902788076,-1961.1953533378976,1311.1246233205657
11.62716616,-2578.0378077950054,-1932.6527296533131,1317.2384525070422
11.63192158,-2522.971835557999,-1904.2132040684062,1323.284287594073
11.63667699,-2468.1163916211226,-1875.8770246672166,1329.2622863986157
11.64143241,-2413.4718741973293,-1847.644435529478,1335.1726073614177
11.64618788,-2359.038674221341,-1819.5156767224712,1341.0154095572261
11.6509433,-2304.817175403806,-1791.4909842936586,1346.7908527054085
11.65569871,-2250.8077542867027,-1763.5705902640825,1352.4990971809584
11.66045418,-2197.010780299963,-1735.75472262251,1358.1403040258565
11.6652096,-2143.426615819289,-1708.0436053203075,1363.7146349607624
11.66996501,-2090.0556162251346,-1680.4374582670496,1369.2222523970102
11.67472043,-2036.8981299627947,-1652.9364973268528,1374.6633194488911
11.6794759,-1983.9544986035585,-1625.5409343154377,1380.037999946207
11.68423132,-1931.2250569068783,-1598.2509769979251,1385.3464584470796
11.68898673,-1878.7101328835133,-1571.0668290873566,1390.5888602509958
11.69374215,-1826.4100478596024,-1543.9886902439237,1395.765371412065
11.69849762,-1774.3251165416075,-1517.01675607488,1400.8761587524664
11.70325303,-1722.4556470820733,-1490.1512181351077,1405.9213898760738
11.70800845,-1670.801941146146,-1463.3922639283226,1410.9012331822544
11.71276387,-1619.3642939787867,-1436.7400769088902,1415.8158578798398
11.71751934,-1568.1429944726099,-1410.1948364842192,1420.665434001271
11.72227475,-1517.1383252362841,-1383.756718017694,1425.4501324169194
11.72703017,-1466.350562663449,-1357.4258928321142,1430.1701248495963
11.73178559,-1415.779977002095,-1331.2025282136212,1434.8255838892603
11.73654106,-1365.4268324243515,-1305.0867874160886,1439.416683007925
11.74129647,-1315.2913870966213,-1279.078829665956,1443.943596574775
11.74605189,-1265.373893249984,-1253.1788101675031,1448.4064998714855
11.75080736,-1215.6745972508027,-1227.386880108541,1452.8055691077348
11.75556277,-1166.1937396714734,-1201.7031866664995,1457.1409814368976
11.76031819,-1116.9315553612507,-1176.1278730149027,1461.4129149719067
11.76507361,-1067.8882735170873,-1150.661078330216,1465.6215488012638
11.76982902,-1019.0641177544159,-1125.3029377990515,1469.7670630051778
11.77458449,-970.4593061778039,-1100.053582625719,1473.8496386718075
11.77933991,-922.074051451429,-1074.913140040114,1477.8694579135754
11.78409533,-873.908560869319,-1049.881733305923,1481.8267038835188
11.78885074,-825.9630364252941,-1024.9594817291313,1485.7215607916492
11.79360621,-778.2376748825371,-1000.1465006668305,1489.5542139212807
11.79836163,-730.7326678427124,-975.4429015363165,1493.324849645293
11.80311704,-683.4482018145588,-950.8487918244643,1497.0336554422997
11.80787246,-636.3844582818745,-926.3642750973655,1500.6808199127165
11.81262793,-589.5416137708133,-901.9894510102118,1504.2665327947211
11.81738335,-542.9198399164142,-877.7244153174194,1507.790984980093
11.82213876,-496.5193035282794,-853.5692598829853,1511.2543685298997
11.82689418,-450.3401666553302,-829.5240726910768,1514.6568766899952
11.8316496,-404.3825866495634,-805.5889378568517,1517.9987039063196
11.83640507,-358.6467162287368,-781.7639356375074,1521.2800458399693
11.84116048,-313.13270353791233,-758.0491424435547,1524.5010993820092
11.8459159,-267.84069220978114,-734.4446308503143,1527.6620626679871
11.85067132,-222.7708214236945,-710.9504696096358,1530.7631350921051
11.85542678,-177.92322596332278,-687.5667236618425,1533.804517321009
11.8601822,-133.29803627286228,-664.2934541479088,1536.786411307135
11.86493762,-88.89537851171208,-641.1307184218766,1539.709020301569
11.86969303,-44.71537460754359,-618.078570063511,1542.5725488663618
11.87444845,-0.7581423076861709,-595.1370588911986,1545.3772028862654
11.87920392,42.97620477124623,-572.3062309750895,1548.1231895798483
11.88395934,86.48755709556174,-549.5861286504814,1550.81071750996
11.88871475,129.77580916860347,-526.9767905314367,1553.4399965935165
11.89347017,172.84085948684083,-504.4782515246229,1556.0112381105864
11.89822559,215.6826104980099,-482.09054284337265,1558.5246547127651
11.90298106,258.30096856137203,-459.81369202195856,1560.980460430806
11.90773647,300.69584391015746,-437.6477229300887,1563.3788706814923
11.91249189,342.8671506162594,-415.5926557876248,1565.7201022737472
11.9172473,384.81480655724374,-393.64850717952874,1568.0043734139854
11.92200277,426.53873338573806,-371.8152900710437,1570.2319037107106
11.92675819,468.03885650125807,-350.0930138231129,1572.4029141783626
11.93151361,509.3151050245282,-328.48168420804063,1574.517627240412
11.93626902,550.3674117743467,-306.98130342539935,1576.5762667316988
11.94102444,591.1957132470408,-285.59187011818966,1578.579057900004
11.94577991,631.7999495985523,-264.3133793892608,1580.5262274068436
11.95053533,672.1800646291889,-243.14582281800176,1582.4180033274713
11.95529074,712.3360057710646,-222.08918847730942,1584.2546151500526
11.96004616,752.2677240782494,-201.14346095083502,1586.036293773992
11.96480158,791.9751742196423,-180.30862135050998,1587.763271507399
11.96955704,831.4583144745827,-159.58464733434823,1589.435782063671
11.97431246,870.7171067312084,-138.9715131245216,1591.0540605571714
11.97906788,909.7515164875668,-118.46918952570469,1592.6183434979773
11.9838233,948.5615128554845,-98.07764394368434,1594.1288687856775
11.98857871,987.1470685671997,-77.7968404042286,1595.585875702218
11.99333413,1025.5081599847613,-57.626739572212415,1596.9896049037875
11.9980896,1063.6447671121948,-37.56729877099644,1598.340298411747
12.00284501,1101.5568736104267,-17.618472002054997,1599.6381996026073
12.00760043,1139.2444668149524,2.2197900351514717,1600.8835531970437
12.01235585,1176.7075377562408,21.947539923064127,1602.0766052479141
12.01711126,1213.9460811828696,41.5648335056778,1603.2176031272545
12.02186673,1250.9600955873802,61.07172986796189,1604.3067955122494
12.02662215,1287.749583234835,80.46829131505515,1605.3444323701674
12.03137757,1324.3145501940608,99.7545833512396,1606.33076494226
12.03613298,1360.655006371556,118.93067465869947,1607.2660457266286
12.0408884,1396.770965548039,137.9966370760701,1608.150528460059
12.04564387,1432.6624454176033,156.95254557678214,1608.984468098832
12.05039928,1468.3294676294574,175.79847824720832,1609.7681207985254
12.0551547,1503.7720578322342,194.53451626462092,1610.5017438928182
12.05991012,1538.9902457208534,213.16074387496914,1611.1855958713043
12.06466553,1573.9840650859103,231.6772483704865,1611.8199363563147
12.06942095,1608.7535538655684,250.0841200671374,1612.4050260787583
12.07417642,1643.2987541999348,268.3814522819129,1612.9411268529923
12.07893184,1677.6197124878988,286.56934130998616,1613.4285015507342
12.08368725,1711.7164794464102,304.6478864017403,1613.8674140740209
12.08844267,1745.5891101721538,322.6171897396806,1614.2581293272249
12.09319809,1779.2376642055626,340.4773564152409,1614.600913188144
12.0979535,1812.6622055971225,358.22849440549646,1614.8960324781854
12.10270897,1845.8628029759282,375.8707145497936,1615.143754931671
12.10746439,1878.83952962043,393.40413052630396,1615.3443491642997
12.1122198,1911.592463531322,410.82885882851446,1615.498084640805
12.11697522,1944.121687506517,428.1450187416588,1615.605231641859
12.12173064,1976.4272892181555,445.3527323190947,1615.6660612302817
12.12648606,2008.5093612915791,462.4521243586268,1615.6808452166242
12.13124152,2040.3680013862172,479.44332237877563,1615.6498561242022
12.13599694,2072.003312278309,496.3264565949867,1615.573367153655
12.14075236,2103.415401945373,513.1016598957765,1615.4516521471091
12.14550777,2134.6043836523304,529.7690678188087,1615.2849855520155
12.15026319,2165.5703760391657,546.3288185268975,1615.0736423847095
12.15501861,2196.3135032100404,562.781052783931,1614.8178981937363
12.15977402,2226.833894823734,579.1259139307108,1614.5180290229778
12.16452944,2257.131686185301,595.3635478606981,1614.1743113746106
12.16928491,2287.2070183388055,611.4941029956574,1613.7870221719197
12.17404033,2317.0600381610047,627.5177302611876,1613.3564387219894
12.17879574,2346.690898455814,643.434583062133,1612.8828386783202
12.18355116,2376.099758049402,659.2448172578694,1612.3665000034187
12.18830658,2405.2867818857567,674.9485911374594,1611.8077009313988
12.19306199,2434.25214112258,690.5460653946789,1611.2067199306373
12.19781746,2462.996013227379,706.0374031029146,1610.563835666511
12.20257288,2491.518582073601,721.4227696899269,1609.8793269642495
12.2073283,2519.820038036665,736.7023329124681,1609.153472771915
12.21208371,2547.9005780897432,751.8762628307483,1608.3865521235386
12.21683913,2575.760405899127,766.9447317827407,1607.5788441024486
12.22159454,2603.399731919052,781.9079143583293,1606.7306278048343
12.22634996,2630.8187734858325,796.7659873732964,1605.8421823035994
12.23110543,2658.017754911152,811.5191298431532,1604.9137866125388
12.23586085,2684.9969075743547,826.1675229568114,1603.9457196508745
12.24061626,2711.75647001359,840.7113500500998,1602.9382602081698
12.24537168,2738.2966880156673,855.1507965791291,1601.8916869096468
12.2501271,2764.6178147044848,869.4860500935031,1600.8062781819185
12.25488251,2790.720110627907,883.7173002093837,1599.6823122191395
12.25963793,2816.603843842967,897.8447385824121,1598.5200669495719
12.26439335,2842.269289999268,911.8685588804912,1597.3198200025818
12.26914882,2867.7167324204606,925.7889567564292,1596.0818486760788
12.27390423,2892.9464621836373,939.606129820445,1594.8064299044258
12.27865965,2917.9587781965097,953.3202776125406,1593.4938402268335
12.28341507,2942.753987272214,966.9316015747507,1592.1443557562602
12.28817048,2967.332404201609,980.4403050232715,1590.7582521488355
12.2929259,2991.6943518229277,993.8465931204826,1589.3358045738223
12.29768132,3015.840161088683,1007.1506728468671,1587.8772876841467
12.30243673,3039.7701711296886,1020.3527529728375,1586.3829755875258
12.30719215,3063.4847293160688,1033.4530440304763,1584.8531418182124
12.31194762,3086.984191315128,1046.4517582852054,1583.2880593093694
12.31670303,3110.2689211459724,1059.3491097073934,1581.6880003660915
12.32145845,3133.3392912307263,1072.145313943915,1580.0532366390867
12.32621387,3156.1956824421713,1084.8405882896802,1578.3840390990335
12.33096928,3178.838484147631,1097.435151659152,1576.680678011636
