"Time (s)","Gyroscope x (rad/s)","Gyroscope y (rad/s)","Gyroscope z (rad/s)"
3.823451000E-3,-5.167152286E-1,-2.364046723E-1,9.147699922E-2
8.673607000E-3,-7.549524903E-1,-2.474002391E-1,6.093376130E-2
1.352423200E-2,-1.040226340E0,-1.802051067E-1,2.916879393E-2
1.837480500E-2,-1.056108832E0,-1.123991162E-1,2.122755162E-2
2.322532600E-2,-9.895246029E-1,-2.199113183E-2,9.621120058E-3
2.807584700E-2,-8.197041750E-1,1.631008983E-1,-3.207040019E-3
3.292642000E-2,-6.211731434E-1,2.700022459E-1,-3.252854943E-2
3.777694000E-2,-4.544070363E-1,3.323104382E-1,-7.651081681E-2
4.262751300E-2,-3.139081299E-1,3.604102135E-1,-1.186604798E-1
4.747803400E-2,-2.076176703E-1,3.506363928E-1,-1.461493969E-1
5.232855500E-2,-1.257617921E-1,3.353647590E-1,-1.547015011E-1
5.717912800E-2,-4.940368980E-2,3.219257295E-1,-1.430950761E-1
6.202964900E-2,3.123046272E-2,3.103193045E-1,-1.082757786E-1
6.688017000E-2,1.124754772E-1,2.852738500E-1,-6.490438432E-2
7.173074200E-2,1.796706021E-1,2.425133139E-1,-1.542433538E-2
7.658126300E-2,2.199876755E-1,1.869246215E-1,3.527744114E-2
8.143183600E-2,2.352592945E-1,1.356119812E-1,8.231402934E-2
8.628235700E-2,2.230419964E-1,9.040798992E-2,1.220202371E-1
9.113287800E-2,1.900553107E-1,6.597339362E-2,1.519526094E-1
9.598345100E-2,1.534034163E-1,6.108647957E-2,1.678351015E-1
1.008339720E-1,1.106428802E-1,7.024945319E-2,1.739437431E-1
1.056844920E-1,6.299543381E-2,8.063415438E-2,1.733328849E-1
1.105350650E-1,1.046105940E-2,8.552107215E-2,1.684459597E-1
1.153855860E-1,-4.268417507E-2,8.796452731E-2,1.605047137E-1
1.202361590E-1,-1.001054645E-1,8.552107215E-2,1.482874304E-1
1.250866800E-1,-1.544724256E-1,8.246674389E-2,1.293506175E-1
1.299372010E-1,-2.008981556E-1,8.246674389E-2,1.073594838E-1
1.347877740E-1,-2.375500351E-1,8.491020650E-2,8.597921580E-2
1.396382950E-1,-2.601520419E-1,9.040798992E-2,6.215549260E-2
1.444888670E-1,-2.644280791E-1,9.773836285E-2,3.894263133E-2
1.493393880E-1,-2.461021543E-1,1.154534444E-1,1.878409274E-2
1.541899090E-1,-2.118937224E-1,1.319467872E-1,4.581485991E-4
1.590404820E-1,-1.715766490E-1,1.374445707E-1,-1.420260593E-2
1.638910030E-1,-1.337030232E-1,1.233946830E-1,-2.397644334E-2
1.687415760E-1,-1.043815166E-1,9.224057943E-2,-2.703076601E-2
1.735920970E-1,-8.361211419E-2,4.764745384E-2,-2.397644334E-2
1.784426700E-1,-6.895136088E-2,-0.000000000E0,-1.053741761E-2
1.832931900E-1,-5.612320080E-2,-3.909534588E-2,9.010255337E-3
1.881437110E-1,-4.146244749E-2,-6.352993846E-2,2.794706449E-2
1.929942840E-1,-2.313650399E-2,-7.452550530E-2,4.627300799E-2
1.978448050E-1,7.635809743E-5,-6.841685623E-2,5.971203372E-2
2.026953780E-1,2.939786762E-2,-4.581485689E-2,7.192932814E-2
2.075458990E-1,5.749764666E-2,-2.015853859E-2,8.414662629E-2
2.123964200E-1,8.254310489E-2,7.330377586E-3,9.758564830E-2
2.172469920E-1,1.088102907E-1,5.436696485E-2,1.085812151E-1
2.220975130E-1,1.338557452E-1,1.148425788E-1,1.165224537E-1
2.269480860E-1,1.479056329E-1,1.783725172E-1,1.201876476E-1
2.317986070E-1,1.460730433E-1,2.309068888E-1,1.195767820E-1
2.366491280E-1,1.283579618E-1,2.730565667E-1,1.183550507E-1
2.414997010E-1,1.008690447E-1,3.170388341E-1,1.159115955E-1
2.462563150E-1,6.666062027E-2,3.671297431E-1,1.146898642E-1
2.510117840E-1,2.573267929E-2,4.233292937E-1,1.110246703E-1
2.557672010E-1,-1.886045001E-2,4.819723070E-1,1.049160287E-1
2.605226700E-1,-6.711876392E-2,5.406153202E-1,1.000291109E-1
2.652780860E-1,-1.220965981E-1,5.955931544E-1,9.392046183E-2
2.700335030E-1,-1.819613427E-1,6.530144215E-1,9.025526792E-2
2.747889720E-1,-2.461021543E-1,7.165443897E-1,8.781181276E-2
2.795443880E-1,-3.132972717E-1,7.855721116E-1,8.720094711E-2
2.842998570E-1,-3.823249936E-1,8.564324379E-1,8.781181276E-2
2.890552740E-1,-4.556287527E-1,9.230166674E-1,9.575305134E-2
2.938107420E-1,-5.435932875E-1,9.560033679E-1,1.146898642E-1
2.985661590E-1,-6.401099563E-1,9.816597104E-1,1.452330947E-1
3.033216280E-1,-7.311288118E-1,1.018311620E0,1.831067204E-1
3.080770450E-1,-8.025999665E-1,1.069013357E0,2.209803313E-1
3.128325130E-1,-8.526908755E-1,1.125823736E0,2.545779049E-1
3.175879300E-1,-8.826232553E-1,1.177747250E0,2.808450758E-1
3.223433470E-1,-8.923971057E-1,1.221729517E0,2.961167097E-1
3.270988150E-1,-8.868992925E-1,1.258381486E0,3.034470677E-1
3.318542320E-1,-8.691841960E-1,1.284648657E0,3.010036349E-1
3.366097010E-1,-8.453605175E-1,1.300531149E0,2.887863219E-1
3.413651170E-1,-8.111520410E-1,1.302363753E0,2.753472924E-1
3.461205860E-1,-7.726675868E-1,1.295033336E0,2.582430840E-1
3.508760030E-1,-7.341831326E-1,1.278540015E0,2.356410921E-1
3.556314720E-1,-6.950877905E-1,1.239444613E0,2.173151523E-1
3.603868880E-1,-6.584358811E-1,1.160643101E0,1.959348768E-1
3.651423050E-1,-6.278926134E-1,1.030528903E0,1.745546162E-1
3.698977740E-1,-6.004037261E-1,8.570432663E-1,1.556178033E-1
3.746531900E-1,-5.747473836E-1,6.633991599E-1,1.446222365E-1
3.794086590E-1,-5.423715711E-1,4.886918366E-1,1.434005052E-1
3.841640760E-1,-5.057196617E-1,3.035998046E-1,1.464548260E-1
3.889195450E-1,-4.684569240E-1,1.539379209E-1,1.458439678E-1
3.936749610E-1,-4.263072610E-1,6.719512492E-2,1.403461844E-1
3.984304300E-1,-3.798815310E-1,4.764745384E-2,1.324049383E-1
4.031858470E-1,-3.377318680E-1,8.185587823E-2,1.153007299E-1
4.079413150E-1,-3.029125631E-1,1.551596522E-1,8.781181276E-2
4.126967320E-1,-2.870301008E-1,2.046397030E-1,4.566214234E-2
4.174522010E-1,-2.900844216E-1,2.278525680E-1,-3.207040019E-3
4.222076170E-1,-2.913061380E-1,2.687804997E-1,-4.108065739E-2
4.269630860E-1,-2.809214294E-1,3.323104382E-1,-6.062832847E-2
4.317185030E-1,-2.638172209E-1,4.013381600E-1,-6.123919412E-2
4.364739720E-1,-2.454912812E-1,4.587594569E-1,-4.841103405E-2
4.412293880E-1,-2.302196622E-1,4.941896200E-1,-3.008509055E-2
4.459848570E-1,-2.222784162E-1,5.125155449E-1,-8.704823442E-3
4.507402740E-1,-2.204458266E-1,5.204567909E-1,1.389717404E-2
4.554957420E-1,-2.180023640E-1,5.167915821E-1,3.711003438E-2
4.602511590E-1,-2.137263119E-1,4.954113364E-1,5.849030241E-2
4.650066280E-1,-2.070067972E-1,4.581485987E-1,7.620538026E-2
4.697620450E-1,-1.911243200E-1,4.050033391E-1,8.964440972E-2
4.745175130E-1,-1.648571342E-1,3.420842886E-1,1.030834317E-1
4.792729300E-1,-1.227074638E-1,2.797760665E-1,1.195767820E-1
4.840283990E-1,-6.895136088E-2,2.229656428E-1,1.372918636E-1
4.887838150E-1,-4.810560029E-3,1.704312712E-1,1.556178033E-1
4.935392840E-1,5.383246019E-2,1.044578776E-1,1.684459597E-1
4.982947010E-1,1.081994250E-1,5.375609919E-2,1.733328849E-1
5.030501700E-1,1.582903415E-1,4.092793912E-2,1.678351015E-1
5.078055860E-1,1.961639524E-1,2.993237413E-2,1.556178033E-1
5.125610550E-1,2.138790339E-1,1.221729536E-2,1.354592592E-1
5.173164720E-1,2.132681608E-1,-8.552107029E-3,1.110246703E-1
5.220719400E-1,1.949422210E-1,-2.199113183E-2,8.597921580E-2
5.268273570E-1,1.625663936E-1,-2.565632015E-2,6.520981342E-2
5.315828260E-1,1.191949919E-1,-2.565632015E-2,5.360338464E-2
5.363382420E-1,6.421715766E-2,-3.787361458E-2,5.115992576E-2
5.410937110E-1,8.017600514E-3,-3.298669681E-2,6.032289565E-2
5.458491280E-1,-4.451677203E-2,-9.162971750E-3,7.742711157E-2
5.506045970E-1,-9.827287495E-2,2.321286127E-2,9.880737960E-2
5.553600130E-1,-1.526398361E-1,4.948004708E-2,1.220202371E-1
5.601154820E-1,-2.051742077E-1,8.185587823E-2,1.397353113E-1
5.648708990E-1,-2.528216541E-1,1.166751757E-1,1.525634825E-1
5.696263670E-1,-2.919169962E-1,1.502727419E-1,1.635590494E-1
5.743817840E-1,-3.230711222E-1,1.826485693E-1,1.721111536E-1
5.791372530E-1,-3.413970470E-1,2.186895907E-1,1.782197952E-1
5.838926700E-1,-3.542252183E-1,2.498437017E-1,1.806632578E-1
5.886481380E-1,-3.670533597E-1,2.602283955E-1,1.788306683E-1
5.934036070E-1,-3.743837476E-1,2.828303874E-1,1.745546162E-1
5.981590240E-1,-3.743837476E-1,3.145953715E-1,1.696676910E-1
6.029144920E-1,-3.719402850E-1,3.573558927E-1,1.684459597E-1
6.076699090E-1,-3.609447181E-1,3.940077722E-1,1.733328849E-1
6.124253780E-1,-3.407861888E-1,3.799578846E-1,1.898262352E-1
6.171807950E-1,-3.151298761E-1,3.481929302E-1,2.148716897E-1
6.219362630E-1,-2.925278842E-1,3.127627671E-1,2.393062711E-1
6.266916800E-1,-2.766453922E-1,2.919933498E-1,2.606865466E-1
6.314471490E-1,-2.601520419E-1,3.023780584E-1,2.759581506E-1
6.362025650E-1,-2.430478185E-1,3.274235129E-1,2.869537175E-1
6.409580340E-1,-2.289979309E-1,3.536907136E-1,2.948949635E-1
6.457134510E-1,-2.137263119E-1,3.769035637E-1,2.955058515E-1
6.504689200E-1,-1.941786408E-1,4.013381600E-1,2.881754637E-1
6.552243360E-1,-1.685223281E-1,4.068359435E-1,2.722929716E-1
6.599798050E-1,-1.288161129E-1,3.848448098E-1,2.490801066E-1
6.647352740E-1,-7.750347257E-2,3.481929302E-1,2.185368687E-1
6.694906900E-1,-2.069304511E-2,3.084867001E-1,1.879936308E-1
6.742461590E-1,4.161516204E-2,2.663370371E-1,1.629481763E-1
6.790015760E-1,1.051450968E-1,2.076940238E-1,1.403461844E-1
6.837570450E-1,1.631772518E-1,1.429423541E-1,1.189659163E-1
6.885124610E-1,2.157116234E-1,6.475166976E-2,1.012508348E-1
6.932679300E-1,2.603047490E-1,-1.404988952E-2,8.842267841E-2
6.980233470E-1,2.969566286E-1,-7.086031139E-2,8.353576064E-2
7.027788150E-1,3.268890083E-1,-1.386663020E-1,9.147699922E-2
7.075342320E-1,3.433823586E-1,-1.912006736E-1,1.055268943E-1
7.122897010E-1,3.360520005E-1,-1.924224049E-1,1.201876476E-1
7.170451700E-1,3.128391206E-1,-1.631008983E-1,1.256854236E-1
7.218005860E-1,2.792415619E-1,-1.350011230E-1,1.189659163E-1
7.265560550E-1,2.377027571E-1,-9.712749720E-2,1.098029464E-1
7.313114720E-1,1.876118481E-1,-5.192350596E-2,1.036942974E-1
7.360669400E-1,1.271362305E-1,-6.108647678E-3,1.024725661E-1
7.408223570E-1,6.482802331E-2,3.848448023E-2,1.018617004E-1
7.455778260E-1,6.185005885E-3,7.757982612E-2,1.006399691E-1
7.503332420E-1,-4.390590638E-2,1.056796089E-1,9.392046183E-2
7.550887110E-1,-8.055779338E-2,1.282816082E-1,7.498364896E-2
7.598441800E-1,-9.399681538E-2,1.178968996E-1,5.054906011E-2
7.645995970E-1,-8.666644245E-2,8.429934084E-2,1.878409274E-2
7.693550650E-1,-5.734493211E-2,3.298669681E-2,-2.275471389E-2
7.741104820E-1,-7.864884101E-3,-3.481929377E-2,-6.673697382E-2
7.788659510E-1,5.627591908E-2,-1.093447953E-1,-1.003345400E-1
7.836213670E-1,1.240819097E-1,-1.832594275E-1,-1.174387559E-1
7.883768360E-1,1.863901168E-1,-2.528980076E-1,-1.223256737E-1
7.931323050E-1,2.383136153E-1,-3.029889166E-1,-1.223256737E-1
7.978877220E-1,2.798524201E-1,-3.292561173E-1,-1.211039424E-1
8.026431900E-1,3.085630834E-1,-3.347539008E-1,-1.308777779E-1
8.073986070E-1,3.268890083E-1,-3.152062297E-1,-1.583666950E-1
8.121540760E-1,3.494910002E-1,-3.023780584E-1,-1.815795600E-1
8.169094920E-1,3.775908053E-1,-3.011563420E-1,-1.980729103E-1
8.216649610E-1,4.038579762E-1,-3.072649837E-1,-2.127336562E-1
8.264204300E-1,4.295142889E-1,-3.207040131E-1,-2.298378795E-1
8.311758470E-1,4.527271688E-1,-3.426951468E-1,-2.561050653E-1
8.359313150E-1,4.716639817E-1,-3.640754223E-1,-2.903134823E-1
8.406867320E-1,4.918225110E-1,-3.909534514E-1,-3.294088244E-1
8.454422010E-1,5.132027864E-1,-3.976729810E-1,-3.611738086E-1
8.501976170E-1,5.315287113E-1,-4.007273018E-1,-3.874409795E-1
8.549530860E-1,5.419133902E-1,-4.098902643E-1,-4.130973220E-1
8.597085550E-1,5.376373529E-1,-3.982838392E-1,-4.430296719E-1
8.644639720E-1,5.260309577E-1,-3.408625424E-1,-4.302015305E-1
8.692194400E-1,5.113701820E-1,-3.396408260E-1,-3.972148299E-1
8.739748570E-1,4.734965563E-1,-4.300487936E-1,-3.874409795E-1
8.787303260E-1,4.264599681E-1,-4.758636653E-1,-3.733910918E-1
8.834857950E-1,3.934732676E-1,-4.471530318E-1,-3.257436454E-1
8.882412110E-1,3.592648506E-1,-4.874700904E-1,-2.988655865E-1
8.929966800E-1,3.110065162E-1,-4.923570156E-1,-2.854265571E-1
8.977520970E-1,2.749654949E-1,-4.105011225E-1,-2.451094985E-1
9.025075650E-1,2.377027571E-1,-4.141663313E-1,-2.139553875E-1
9.072630340E-1,1.882227063E-1,-3.426951468E-1,-1.901316643E-1
9.120184510E-1,1.430187225E-1,-2.620609999E-1,-1.779143661E-1
9.167739200E-1,1.002581790E-1,-2.302960157E-1,-1.760817766E-1
9.215293360E-1,5.810851231E-2,-2.480110973E-1,-1.779143661E-1
9.262848050E-1,2.756527252E-2,-2.944368124E-1,-1.773035079E-1
9.310402220E-1,1.779143699E-2,-3.255909383E-1,-1.736383140E-1
9.357956900E-1,2.512181364E-2,-3.103193045E-1,-1.589775532E-1
9.405511590E-1,5.322159454E-2,-2.553414702E-1,-1.382081509E-1
9.453065760E-1,9.231694043E-2,-2.015853822E-1,-1.119409725E-1
9.500620450E-1,1.362992078E-1,-1.563813835E-1,-8.567378670E-2
9.548174610E-1,1.821140647E-1,-1.325576603E-1,-6.062832847E-2
9.595729300E-1,2.279289216E-1,-1.282816082E-1,-3.680460155E-2
9.643283990E-1,2.713003159E-1,-1.331685185E-1,-1.664606482E-2
9.690838150E-1,3.061196208E-1,-1.527161896E-1,4.581485991E-4
9.738392840E-1,3.274998665E-1,-1.612683088E-1,3.512472380E-3
9.785947010E-1,3.366628587E-1,-1.661552191E-1,7.177661173E-3
9.833501700E-1,3.336085379E-1,-1.637117565E-1,1.572976820E-2
9.881056380E-1,3.103956580E-1,-1.502727419E-1,2.061668597E-2
9.928610550E-1,2.767980993E-1,-1.368337125E-1,3.955349326E-2
9.976165240E-1,2.328158319E-1,-1.087339297E-1,4.993819445E-2
1.002371940E0,1.796706021E-1,-8.063415438E-2,5.482511222E-2
1.007127409E0,1.216384470E-1,-5.314523727E-2,5.604684353E-2
1.011882878E0,6.299543381E-2,-3.726275265E-2,5.238165334E-2
1.016638295E0,9.850194678E-3,-4.886918142E-2,4.199695215E-2
1.021393763E0,-3.229947388E-2,-7.574722916E-2,2.061668597E-2
1.026149180E0,-5.795579776E-2,-1.099556610E-1,-1.542433538E-2
1.030904649E0,-6.467530876E-2,-1.502727419E-1,-6.001746282E-2
1.035660117E0,-5.612320080E-2,-1.936441362E-1,-1.094975099E-1
1.040415534E0,-3.474293277E-2,-2.364046723E-1,-1.620318890E-1
1.045171003E0,-4.810560029E-3,-2.779434621E-1,-2.176205814E-1
1.049926420E0,2.756527252E-2,-3.115410507E-1,-2.713766694E-1
1.054681888E0,5.688678101E-2,-3.518581092E-1,-3.153589368E-1
1.059437357E0,8.315397054E-2,-3.848448098E-1,-3.452913165E-1
1.064192774E0,1.027016416E-1,-4.178315103E-1,-3.611738086E-1
1.068948242E0,1.173623949E-1,-4.514290690E-1,-3.678933084E-1
1.073703659E0,1.253036410E-1,-4.783071280E-1,-3.685041666E-1
1.078459128E0,1.350774765E-1,-4.929678738E-1,-3.636172712E-1
1.083214597E0,1.393535286E-1,-5.192350745E-1,-3.507890999E-1
1.087970013E0,1.472947747E-1,-5.363392830E-1,-3.312414289E-1
1.092725482E0,1.534034163E-1,-5.424479246E-1,-3.061959743E-1
1.097480899E0,1.668424457E-1,-5.485565662E-1,-2.756527364E-1
1.102236367E0,1.845575273E-1,-5.369501114E-1,-2.383899838E-1
1.106991836E0,1.961639524E-1,-5.051851869E-1,-1.974620372E-1
1.111747253E0,2.053269297E-1,-4.593703151E-1,-1.461493969E-1
1.116502722E0,2.114355713E-1,-3.860665262E-1,-8.872810751E-2
1.121258190E0,2.138790339E-1,-3.060432673E-1,-3.436114267E-2
1.126013607E0,2.199876755E-1,-2.394589931E-1,1.511890348E-2
1.130769076E0,2.328158319E-1,-1.722638607E-1,5.726857483E-2
1.135524492E0,2.572504282E-1,-8.918625861E-2,8.720094711E-2
1.140279961E0,2.884045243E-1,-1.649334840E-2,1.110246703E-1
1.145035430E0,3.195586503E-1,4.337139800E-2,1.269071549E-1
1.149790847E0,3.452149630E-1,1.062904745E-1,1.403461844E-1
1.154546315E0,3.598757088E-1,1.692095399E-1,1.495091617E-1
1.159301732E0,3.653734922E-1,2.309068888E-1,1.617264450E-1
1.164057201E0,3.623191714E-1,2.901607752E-1,1.684459597E-1
1.168812670E0,3.519344628E-1,3.402516842E-1,1.678351015E-1
1.173568086E0,3.348302543E-1,3.781253099E-1,1.580612659E-1
1.178323555E0,3.134499788E-1,3.995055556E-1,1.470656991E-1
1.183079024E0,2.829067409E-1,4.056142271E-1,1.379027218E-1
1.187834440E0,2.493091822E-1,4.031707644E-1,1.317940801E-1
1.192589909E0,2.144898921E-1,3.995055556E-1,1.317940801E-1
1.197345326E0,1.729510874E-1,3.830122054E-1,1.391244531E-1
1.202100795E0,1.326340139E-1,3.683514595E-1,1.488982886E-1
1.206856263E0,9.476039559E-2,3.585776389E-1,1.623373181E-1
1.211611680E0,6.482802331E-2,3.549124300E-1,1.751654744E-1
1.216367149E0,4.528035223E-2,3.555232882E-1,1.843284518E-1
1.221122565E0,3.856083751E-2,3.610210717E-1,1.910479665E-1
1.225878034E0,4.772381112E-2,3.671297431E-1,1.965457499E-1
1.230633503E0,6.727148592E-2,3.701840639E-1,1.983783394E-1
1.235388920E0,9.414953738E-2,3.762927055E-1,1.971566081E-1
1.240144388E0,1.289688200E-1,3.940077722E-1,1.941022873E-1
1.244899857E0,1.674533039E-1,4.221075773E-1,1.971566081E-1
1.249655274E0,2.053269297E-1,4.544833899E-1,2.044869810E-1
1.254410742E0,2.364810258E-1,4.856374860E-1,2.142608166E-1
1.259166159E0,2.609156072E-1,5.155698657E-1,2.307541668E-1
1.263921628E0,2.798524201E-1,5.442805290E-1,2.539670467E-1
1.268677097E0,2.920697331E-1,5.748237371E-1,2.790125012E-1
1.273432513E0,2.975675166E-1,6.084213257E-1,3.040579557E-1
1.278187982E0,2.994000912E-1,6.462949514E-1,3.297142684E-1
1.282943399E0,3.012326956E-1,6.792816520E-1,3.455967605E-1
1.287698867E0,3.024544120E-1,7.037162185E-1,3.517054021E-1
1.292454336E0,3.036761582E-1,7.214313149E-1,3.455967605E-1
1.297209753E0,3.048978746E-1,7.354812026E-1,3.284925222E-1
1.301965222E0,3.073413372E-1,7.654135823E-1,3.058905303E-1
1.306720690E0,3.140608668E-1,8.167262077E-1,2.838993967E-1
1.311476107E0,3.232238293E-1,8.735366464E-1,2.631300092E-1
1.316231576E0,3.378845751E-1,9.242383838E-1,2.411388755E-1
1.320986992E0,3.537670672E-1,9.621120095E-1,2.154825479E-1
1.325742461E0,3.708712757E-1,9.999856353E-1,1.873827726E-1
1.330497930E0,3.879754841E-1,1.058017850E0,1.666133702E-1
1.335253347E0,3.977493346E-1,1.075732827E0,1.458439678E-1
1.340008815E0,3.959167302E-1,1.108108759E0,1.262962967E-1
1.344764284E0,4.014145136E-1,1.184466839E0,1.159115955E-1
1.349519701E0,4.197404683E-1,1.238833785E0,1.177441850E-1
1.354275170E0,4.368446767E-1,1.263268352E0,1.275180280E-1
1.359030586E0,4.527271688E-1,1.279150844E0,1.409570426E-1
1.363786055E0,4.686096311E-1,1.292589903E0,1.470656991E-1
1.368541524E0,4.820486605E-1,1.365282774E0,1.507308781E-1
1.373296940E0,4.991528690E-1,1.441640854E0,1.586721241E-1
1.378052409E0,5.168679357E-1,1.480736256E0,1.702785641E-1
1.382807878E0,5.351939201E-1,1.491731763E0,1.800523996E-1
1.387563295E0,5.565741658E-1,1.535714030E0,1.867718995E-1
1.392318763E0,5.828413367E-1,1.559537768E0,1.928805560E-1
1.397074180E0,5.962803960E-1,1.541211843E0,1.855501831E-1
1.401829649E0,5.932260752E-1,1.494175196E0,1.702785641E-1
1.406585117E0,5.687914491E-1,1.436753988E0,1.421787739E-1
1.411340534E0,5.254200697E-1,1.472184062E0,1.091920808E-1
1.416096003E0,4.796051979E-1,1.510668635E0,6.643154472E-2
1.420851472E0,4.325686097E-1,1.538768411E0,2.000582218E-2
1.425606888E0,3.916406929E-1,1.541211843E0,-2.214384824E-2
1.430362357E0,3.623191714E-1,1.501505613E0,-7.712167501E-2
1.435117826E0,3.476584256E-1,1.459966779E0,-1.412624866E-1
1.439873242E0,3.470475674E-1,1.433088779E0,-2.029598206E-1
1.444628711E0,3.586539924E-1,1.411708474E0,-2.548833191E-1
1.449384128E0,3.763690591E-1,1.401934624E0,-2.970330119E-1
1.454139597E0,3.977493346E-1,1.404989004E0,-3.263545036E-1
1.458895065E0,4.160752594E-1,1.409875870E0,-3.416261375E-1
1.463650482E0,4.313468933E-1,1.421482325E0,-3.477347791E-1
1.468405951E0,4.435641766E-1,1.441030025E0,-3.483456373E-1
1.473161420E0,4.496728480E-1,1.460577726E0,-3.440696001E-1
1.477916836E0,4.490619600E-1,1.479514480E0,-3.349066079E-1
1.482672305E0,4.405098557E-1,1.499062181E0,-3.214675784E-1
1.487427722E0,4.246273935E-1,1.530827165E0,-3.068068326E-1
1.492183190E0,4.050796926E-1,1.560148597E0,-2.933678031E-1
1.496938659E0,3.824777007E-1,1.576031089E0,-2.793179154E-1
1.501694076E0,3.610974550E-1,1.575420260E0,-2.640463114E-1
1.506449545E0,3.409388959E-1,1.574198484E0,-2.530507445E-1
1.511205013E0,3.171151876E-1,1.568089843E0,-2.487746775E-1
1.515960430E0,2.932914495E-1,1.560759544E0,-2.591593862E-1
1.520715899E0,2.737437785E-1,1.555872560E0,-2.835939825E-1
1.525471315E0,2.572504282E-1,1.563202977E0,-3.220784664E-1
1.530226784E0,2.517526448E-1,1.591913581E0,-3.691150546E-1
1.534982253E0,2.572504282E-1,1.638339281E0,-4.216494262E-1
1.539737670E0,2.761872411E-1,1.714697480E0,-4.809032977E-1
1.544493138E0,3.158934414E-1,1.802662015E0,-5.407680273E-1
1.549248607E0,3.739255965E-1,1.883906960E0,-5.939132571E-1
1.554004024E0,4.441750646E-1,1.962708592E0,-6.421716213E-1
1.558759492E0,5.284743905E-1,2.031736374E0,-6.873756051E-1
1.563514909E0,6.194932461E-1,2.116035700E0,-7.331904769E-1
1.568270378E0,7.153990269E-1,2.210719585E0,-7.790052891E-1
1.573025847E0,8.180242777E-1,2.305403709E0,-8.211549520E-1
1.577781263E0,9.023236632E-1,2.439793825E0,-8.529199362E-1
1.582536732E0,9.695187807E-1,2.604727507E0,-8.743002415E-1
1.587292201E0,1.059926748E0,2.682918072E0,-8.865175247E-1
1.592047617E0,1.160719395E0,2.735452414E0,-8.846849203E-1
1.596803086E0,1.238299251E0,2.770271778E0,-8.669698238E-1
1.601558555E0,1.282281518E0,2.753778458E0,-8.364266157E-1
1.606313972E0,1.285335898E0,2.708574533E0,-8.009964228E-1
1.611069440E0,1.245629668E0,2.667035580E0,-7.698423266E-1
1.615824857E0,1.167438984E0,2.659705162E0,-7.484620810E-1
1.620580326E0,1.061148524E0,2.654818296E0,-7.350230217E-1
1.625335795E0,9.292016625E-1,2.633438110E0,-7.301361561E-1
1.630091211E0,7.770963311E-1,2.599229574E0,-7.447968721E-1
1.634846680E0,6.182715297E-1,2.591899157E0,-7.875574231E-1
1.639602149E0,4.808269441E-1,2.582125425E0,-8.614720702E-1
1.644357565E0,3.818668425E-1,2.580292940E0,-9.585995674E-1
1.649113034E0,3.244455457E-1,2.602283955E0,-1.069776893E0
1.653868451E0,3.171151876E-1,2.663370371E0,-1.185230374E0
1.658623920E0,3.342193961E-1,2.805091143E0,-1.298240423E0
1.663379388E0,4.026362598E-1,2.929096699E0,-1.402698278E0
1.668134805E0,5.303069949E-1,3.054934740E0,-1.493717074E0
1.672890274E0,6.964622140E-1,3.199098825E0,-1.562133908E0
1.677645742E0,8.846085668E-1,3.341430426E0,-1.598174930E0
1.682401159E0,1.070311427E0,3.427562237E0,-1.602451086E0
1.687156628E0,1.235855818E0,3.439779520E0,-1.577405572E0
1.691912045E0,1.367191792E0,3.407403708E0,-1.535866737E0
1.696667513E0,1.425223947E0,3.394575596E0,-1.501047492E0
1.701422982E0,1.403843641E0,3.376249552E0,-1.488830209E0
1.706178399E0,1.329318166E0,3.300502300E0,-1.504712701E0
1.710933867E0,1.183321476E0,3.232696295E0,-1.566410065E0
1.715689336E0,9.737948179E-1,3.167333841E0,-1.671478748E0
1.720444753E0,7.618247271E-1,3.054323912E0,-1.800982118E0
1.725200222E0,5.553524494E-1,2.944368124E0,-1.948811412E0
1.729955690E0,3.604865670E-1,2.879616499E0,-2.111912251E0
1.734711107E0,2.346484363E-1,2.831969023E0,-2.268293619E0
1.739466576E0,1.821140647E-1,2.830747366E0,-2.405127287E0
1.744222045E0,1.808923334E-1,2.882670879E0,-2.515083075E0
1.748977461E0,2.364810258E-1,2.980409145E0,-2.593884468E0
1.753732930E0,3.464366794E-1,3.106247425E0,-2.644586325E0
1.758488347E0,4.997637570E-1,3.218035698E0,-2.659247160E0
1.763243815E0,6.610320210E-1,3.254687548E0,-2.647029877E0
1.767999284E0,8.039743900E-1,3.182605505E0,-2.616486549E0
1.772754701E0,9.072105289E-1,3.012174129E0,-2.582278252E0
1.777510170E0,9.634101391E-1,2.808145285E0,-2.564563036E0
1.782265638E0,9.774600267E-1,2.642601013E0,-2.574947834E0
1.787021055E0,9.444733262E-1,2.488663197E0,-2.603047609E0
1.791776524E0,8.601739407E-1,2.302960157E0,-2.634812593E0
1.796531940E0,7.129555345E-1,2.087324858E0,-2.667188406E0
1.801287409E0,5.266417861E-1,1.831372619E0,-2.694677353E0
1.806042878E0,3.348302543E-1,1.581528902E0,-2.723387957E0
1.810798295E0,1.760054082E-1,1.404989004E0,-2.755152941E0
1.815553763E0,7.521272451E-2,1.298698545E0,-2.784474373E0
1.820309232E0,3.489565104E-2,1.293811560E0,-2.805243731E0
1.825064649E0,6.238456443E-2,1.351843715E0,-2.813184977E0
1.829820117E0,1.491273642E-1,1.439197421E0,-2.805243731E0
1.834575534E0,2.700785995E-1,1.538157463E0,-2.791193962E0
1.839331003E0,4.087449014E-1,1.630398154E0,-2.780198336E0
1.844086472E0,5.516872406E-1,1.717751741E0,-2.762483358E0
1.848841888E0,6.811906099E-1,1.789833784E0,-2.725831270E0
1.853597357E0,7.893136740E-1,1.863748431E0,-2.682460070E0
1.858352826E0,8.687260747E-1,1.941939116E0,-2.634812593E0
1.863108242E0,9.218713045E-1,2.010966778E0,-2.591441154E0
1.867863711E0,9.609666467E-1,2.059225082E0,-2.551734924E0
1.872619180E0,9.902881384E-1,2.074496746E0,-2.512639523E0
1.877374597E0,1.010446668E0,2.050062180E0,-2.471100807E0
1.882130065E0,1.028161764E0,1.992640853E0,-2.425896645E0
1.886885482E0,1.042211652E0,1.926056623E0,-2.388023138E0
1.891640951E0,1.054428935E0,1.858250618E0,-2.349538565E0
1.896396420E0,1.056261539E0,1.793498993E0,-2.312275887E0
1.901151836E0,1.040989995E0,1.727525592E0,-2.279289246E0
1.905907305E0,1.013501048E0,1.645669699E0,-2.243248224E0
1.910662774E0,9.707404971E-1,1.546098709E0,-2.199876785E0
1.915418190E0,9.108757377E-1,1.422093153E0,-2.149174929E0
1.920173659E0,8.363502622E-1,1.270598769E0,-2.091753721E0
1.924929076E0,7.496074438E-1,1.101389170E0,-2.034332514E0
1.929684545E0,6.579777002E-1,9.248492718E-1,-1.979965448E0
1.934440013E0,5.651262999E-1,7.971785665E-1,-1.929874539E0
1.939195430E0,4.777726233E-1,6.249146461E-1,-1.881616235E0
1.943950899E0,3.867537677E-1,4.331031144E-1,-1.844964385E0
1.948706367E0,3.048978746E-1,2.669478953E-1,-1.819918871E0
1.953461784E0,2.291506529E-1,1.704312712E-1,-1.802203774E0
1.958217253E0,1.717293561E-1,1.069013327E-1,-1.788764834E0
1.962972670E0,1.479056329E-1,4.642572254E-2,-1.769217134E0
1.967728138E0,1.479056329E-1,-3.909534588E-2,-1.747836828E0
1.972483607E0,1.613446623E-1,-1.142317131E-1,-1.728900075E0
1.977239024E0,1.870009750E-1,-1.753181964E-1,-1.711184978E0
1.981994492E0,2.230419964E-1,-2.211330533E-1,-1.694080710E0
1.986749909E0,2.596938908E-1,-2.364046723E-1,-1.675754786E0
1.991505378E0,2.963457704E-1,-2.357937992E-1,-1.661094069E0
1.996260847E0,3.293324709E-1,-2.272416949E-1,-1.640935540E0
2.001016263E0,3.635408878E-1,-2.186895907E-1,-1.606727123E0
2.005771732E0,4.038579762E-1,-1.960875988E-1,-1.559079647E0
2.010527201E0,4.515054226E-1,-1.661552191E-1,-1.497382283E0
2.015282617E0,5.070941448E-1,-1.441640854E-1,-1.428354621E0
2.020038086E0,5.602393746E-1,-1.362228394E-1,-1.347109556E0
2.024793555E0,6.078867912E-1,-1.178968996E-1,-1.251203775E0
2.029548972E0,6.402626634E-1,-7.269290835E-2,-1.163239241E0
2.034304440E0,6.646972299E-1,-4.092793912E-2,-1.091768026E0
2.039059857E0,6.811906099E-1,-3.054323979E-2,-1.029459834E0
2.043815326E0,7.062360644E-1,-2.626718581E-2,-9.824233055E-1
2.048570795E0,7.300597429E-1,2.138026804E-2,-9.298889041E-1
2.053326211E0,7.569378018E-1,-1.954767294E-2,-8.712459207E-1
2.058081680E0,7.893136740E-1,-6.475166976E-2,-8.309288025E-1
2.062837149E0,7.966440320E-1,-6.719512399E-3,-7.930551767E-1
2.067592565E0,8.119156361E-1,4.276053607E-2,-7.454077601E-1
2.072348034E0,8.516218662E-1,1.404988952E-2,-7.111993432E-1
2.077103451E0,8.784999251E-1,5.925388262E-2,-6.812669635E-1
2.081858920E0,9.004910588E-1,9.101885557E-2,-6.366738081E-1
2.086614388E0,9.408081174E-1,1.832594397E-3,-6.049088240E-1
2.091369805E0,9.762382507E-1,-4.520399496E-2,-5.859720111E-1
2.096125274E0,9.725731015E-1,-3.665188793E-3,-5.700895786E-1
2.100880742E0,9.921207428E-1,1.221729536E-2,-5.584831238E-1
2.105636159E0,1.047098637E0,-7.757982612E-2,-5.761982203E-1
2.110391628E0,1.099022150E0,-1.569922417E-1,-6.238456368E-1
2.115147045E0,1.103909016E0,-1.960875988E-1,-6.806560755E-1
2.119902513E0,1.073976636E0,-2.119700760E-1,-7.264709473E-1
2.124657982E0,1.011057615E0,-1.240055487E-1,-7.551816106E-1
2.129413399E0,9.408081174E-1,1.038470119E-2,-7.667880058E-1
2.134168867E0,8.962149620E-1,4.825831577E-2,-7.753401399E-1
2.138924284E0,8.583413959E-1,5.314523727E-2,-7.759509683E-1
2.143679753E0,8.522327542E-1,-2.199113183E-2,-7.796161771E-1
2.148435222E0,8.901063204E-1,-1.600465775E-1,-7.973312736E-1
2.153190638E0,9.157626629E-1,-2.486219704E-1,-8.089376688E-1
2.157946107E0,9.090431333E-1,-2.425133139E-1,-7.967203856E-1
2.162701576E0,8.607848287E-1,-9.834922850E-2,-7.649554014E-1
2.167456992E0,7.880918980E-1,1.233946830E-1,-6.953168511E-1
2.172212461E0,7.208967805E-1,3.555232882E-1,-6.018545032E-1
2.176967878E0,6.927970052E-1,4.984656572E-1,-5.090031028E-1
2.181723347E0,6.500364542E-1,5.626064539E-1,-4.063777924E-1
2.186478815E0,5.883391500E-1,5.528326035E-1,-2.927569449E-1
2.191234232E0,5.315287113E-1,4.990765154E-1,-1.650862098E-1
2.195989701E0,4.576140642E-1,3.640754223E-1,-4.352411628E-2
2.200745170E0,3.507127464E-1,2.443459183E-1,5.421425030E-2
2.205500586E0,2.273180634E-1,1.551596522E-1,1.207985133E-1
2.210256055E0,9.231694043E-2,9.896009415E-2,1.574503928E-1
2.215011472E0,-4.634936526E-2,5.558869615E-2,1.678351015E-1
2.219766940E0,-1.746309698E-1,1.221729536E-2,1.525634825E-1
2.224522409E0,-2.876409590E-1,-3.848448023E-2,1.153007299E-1
2.229277826E0,-3.811032772E-1,-9.834922850E-2,7.376192510E-2
2.234033295E0,-4.513527155E-1,-1.588248461E-1,3.955349326E-2
2.238788711E0,-4.947241247E-1,-2.119700760E-1,1.695149764E-2
2.243544180E0,-5.106065869E-1,-2.455676347E-1,9.010255337E-3
2.248299649E0,-5.038870573E-1,-2.596175373E-1,7.788525894E-3
2.253055065E0,-4.812850952E-1,-2.577849329E-1,9.010255337E-3
2.257810534E0,-4.495201111E-1,-2.461785078E-1,8.399390616E-3
2.262566003E0,-4.201986194E-1,-2.461785078E-1,1.328630932E-2
2.267321420E0,-3.994292021E-1,-2.724456787E-1,2.244928107E-2
2.272076888E0,-3.878227770E-1,-3.170388341E-1,3.100138716E-2
2.276832305E0,-3.945422769E-1,-3.799578846E-1,3.833176568E-2
2.281587774E0,-4.336376488E-1,-4.709767401E-1,2.855792828E-2
2.286343242E0,-5.020545125E-1,-5.772672296E-1,-1.114828233E-2
2.291098659E0,-5.771908760E-1,-6.615665555E-1,-6.123919412E-2
2.295854128E0,-6.376664639E-1,-6.847794056E-1,-1.388190240E-1
2.300609597E0,-6.401099563E-1,-5.986474752E-1,-2.096793354E-1
2.305365013E0,-5.918515921E-1,-4.691441655E-1,-2.561050653E-1
2.310120482E0,-5.002219081E-1,-3.280344009E-1,-2.811505198E-1
2.314875899E0,-3.872119188E-1,-2.040288299E-1,-2.738201320E-1
2.319631367E0,-2.638172209E-1,-1.069013327E-1,-2.390008420E-1
2.324386784E0,-1.373682171E-1,-1.893680729E-2,-1.950185746E-1
2.329142253E0,-2.191477455E-2,6.780599058E-2,-1.534797698E-1
2.333897722E0,6.482802331E-2,1.508836001E-1,-1.211039424E-1
2.338653138E0,1.240819097E-1,2.284634262E-1,-1.021671370E-1
2.343408607E0,1.570686102E-1,3.011563420E-1,-1.027780026E-1
2.348164076E0,1.601229310E-1,3.512472510E-1,-1.217148080E-1
2.352919492E0,1.405752599E-1,3.677406013E-1,-1.449276656E-1
2.357674961E0,1.014799103E-1,3.304778337E-1,-1.571449637E-1
2.362430378E0,5.627591908E-2,2.614501119E-1,-1.534797698E-1
2.367185847E0,2.695440874E-2,1.875354946E-1,-1.339320987E-1
2.371941315E0,1.290451828E-2,1.123991162E-1,-1.082757786E-1
2.376696732E0,5.574141163E-3,4.031707719E-2,-9.605848789E-2
2.381452201E0,4.352411721E-3,-2.260199748E-2,-1.143844277E-1
2.386207617E0,1.298087649E-3,-7.635809481E-2,-1.638644785E-1
2.390963086E0,7.406735327E-3,-1.001818255E-1,-2.420551628E-1
2.395718555E0,2.878700197E-2,-8.918625861E-2,-3.477347791E-1
2.400473972E0,6.543888897E-2,-3.298669681E-2,-4.631882310E-1
2.405229440E0,1.045342386E-1,3.909534588E-2,-5.737547278E-1
2.409984857E0,1.460730433E-1,1.337793916E-1,-6.727148294E-1
2.414740326E0,1.906661689E-1,2.492328286E-1,-7.539598346E-1
2.419495795E0,2.303723842E-1,3.671297431E-1,-8.168789148E-1
2.424251211E0,2.627482116E-1,4.899135530E-1,-8.700241446E-1
2.429006680E0,3.055087626E-1,6.548470259E-1,-9.164499044E-1
2.433762097E0,3.537670672E-1,8.460476995E-1,-9.433279634E-1
2.438517565E0,4.075231552E-1,1.014646411E0,-9.561560750E-1
2.443273034E0,4.625009894E-1,1.158810496E0,-9.524909258E-1
2.448028451E0,5.217548609E-1,1.279761672E0,-9.292780161E-1
2.452783920E0,5.755109787E-1,1.353676319E0,-8.895718455E-1
2.457539336E0,6.194932461E-1,1.403767228E0,-8.358157277E-1
2.462294805E0,6.665298343E-1,1.450192928E0,-7.612902522E-1
2.467050274E0,7.068468928E-1,1.441640854E0,-6.690496206E-1
2.471805690E0,7.337249517E-1,1.375056624E0,-5.719221234E-1
2.476561159E0,7.392227650E-1,1.274874806E0,-4.802924395E-1
2.481316576E0,7.276163101E-1,1.182634234E0,-4.088212550E-1
2.486072045E0,6.952404976E-1,1.083063245E0,-3.611738086E-1
2.490827513E0,6.451495886E-1,9.883792400E-1,-3.428478539E-1
2.495582930E0,5.773435831E-1,9.004147053E-1,-3.532325625E-1
2.500338399E0,5.015963316E-1,8.124501705E-1,-3.898844421E-1
2.505093815E0,4.374555349E-1,7.348703146E-1,-4.485274553E-1
2.509849284E0,3.916406929E-1,6.866120100E-1,-5.303833485E-1
2.514604753E0,3.672060966E-1,6.725621223E-1,-6.440041661E-1
2.519360170E0,3.482692838E-1,6.725621223E-1,-7.649554014E-1
2.524115638E0,3.336085379E-1,6.860011220E-1,-8.822414875E-1
2.528871055E0,3.171151876E-1,7.153226733E-1,-9.995275140E-1
2.533626524E0,3.055087626E-1,7.690787315E-1,-1.111926556E0
2.538381992E0,3.036761582E-1,8.564324379E-1,-1.204167247E0
2.543137409E0,3.067304790E-1,9.627228975E-1,-1.281136155E0
2.547892878E0,3.097847998E-1,1.072678566E0,-1.339168310E0
2.552648295E0,3.079521954E-1,1.177747250E0,-1.376431108E0
2.557403763E0,3.000109792E-1,1.257159710E0,-1.392313600E0
2.562159180E0,2.859610617E-1,1.307250619E0,-1.389259219E0
2.566914649E0,2.590830326E-1,1.306639791E0,-1.366657257E0
2.571670117E0,2.260963321E-1,1.213788271E0,-1.314733744E0
2.576425534E0,2.077703774E-1,1.032972336E0,-1.212719321E0
2.581181003E0,2.010508776E-1,8.075632453E-1,-1.072220445E0
2.585936420E0,2.041051984E-1,5.754346251E-1,-8.852958083E-1
2.590691888E0,2.248746008E-1,4.062250853E-1,-6.531671882E-1
2.595447357E0,2.596938908E-1,3.469711840E-1,-4.094321132E-1
2.600202774E0,2.792415619E-1,3.750709891E-1,-2.023489624E-1
2.604958242E0,2.877936661E-1,4.495964646E-1,-4.108065739E-2
2.609713659E0,2.841284871E-1,5.528326035E-1,5.421425030E-2
2.614469128E0,2.731329203E-1,6.530144215E-1,8.109229803E-2
2.619224545E0,2.749654949E-1,7.159335017E-1,4.871646687E-2
2.623980013E0,2.987892330E-1,7.403681278E-1,-2.031125315E-2
2.628735482E0,3.543779254E-1,7.324268818E-1,-1.033888608E-1
2.633490899E0,4.344012141E-1,7.153226733E-1,-1.962403059E-1
2.638246367E0,5.290852785E-1,6.939423680E-1,-2.964221239E-1
2.643001784E0,6.243801713E-1,6.603448391E-1,-3.978256881E-1
2.647757253E0,7.135664225E-1,6.175842881E-1,-4.986183643E-1
2.652512670E0,7.789289355E-1,5.919279456E-1,-5.878046155E-1
2.657268138E0,8.161917329E-1,5.815432668E-1,-6.672170758E-1
2.662023607E0,8.216894865E-1,5.882627964E-1,-7.417425513E-1
2.666779024E0,8.027526736E-1,6.236929297E-1,-8.113811612E-1
2.671534492E0,7.752637863E-1,6.817250848E-1,-8.633046746E-1
2.676289909E0,7.196750641E-1,6.426297426E-1,-9.243911505E-1
2.681045378E0,6.390409470E-1,6.383537054E-1,-1.002581835E0
2.685800795E0,5.559632778E-1,6.267472506E-1,-1.089324594E0
2.690556263E0,4.704422355E-1,6.181951761E-1,-1.195004225E0
2.695311732E0,3.867537677E-1,5.974257588E-1,-1.314733744E0
2.700067149E0,3.085630834E-1,5.644390583E-1,-1.454010844E0
2.704822617E0,2.328158319E-1,5.009090900E-1,-1.607948780E0
2.709578034E0,1.595120728E-1,4.343248606E-1,-1.763719320E0
2.714333503E0,9.170607477E-2,3.610210717E-1,-1.920100689E0
2.719088920E0,3.856083751E-2,2.913824916E-1,-2.053880215E0
2.723844388E0,-5.345066893E-4,2.174678594E-1,-2.153450966E0
2.728599857E0,-3.962985426E-2,1.441640854E-1,-2.221868038E0
2.733355274E0,-7.933606207E-2,9.101885557E-2,-2.246302605E0
2.738110742E0,-1.013271958E-1,5.681042373E-2,-2.233474255E0
2.742866159E0,-1.049923822E-1,4.153880477E-2,-2.194379091E0
2.747621628E0,-1.092684343E-1,4.214967042E-2,-2.148564100E0
2.752377045E0,-1.098793000E-1,9.957095981E-2,-2.096029758E0
2.757132513E0,-1.233183295E-1,2.113592178E-1,-2.053880215E0
2.761887982E0,-1.465311944E-1,4.043924809E-1,-2.020282507E0
2.766643399E0,-1.795178801E-1,6.438514590E-1,-1.984241486E0
2.771398867E0,-2.180023640E-1,8.845322132E-1,-1.951254845E0
2.776154284E0,-2.485456020E-1,1.098945737E0,-1.910937786E0
2.780909753E0,-2.662606835E-1,1.263268352E0,-1.871231556E0
2.785665170E0,-2.729802132E-1,1.362228513E0,-1.845575213E0
2.790420638E0,-2.607629001E-1,1.391549945E0,-1.846186042E0
2.795176107E0,-2.369391769E-1,1.381165266E0,-1.864511967E0
2.799931524E0,-2.076176703E-1,1.369558811E0,-1.893833518E0
2.804686992E0,-1.618028134E-1,1.368947983E0,-1.925598502E0
2.809442409E0,-9.338594973E-2,1.371391416E0,-1.944535255E0
2.814197878E0,-6.643154658E-3,1.340848207E0,-1.929263711E0
2.818953295E0,8.865175396E-2,1.287092090E0,-1.867566347E0
2.823708763E0,2.022725940E-1,1.248607635E0,-1.766162753E0
2.828464232E0,3.458258212E-1,1.218675256E0,-1.646433353E0
2.833219649E0,5.089266896E-1,1.207679629E0,-1.520595193E0
2.837975117E0,6.775254011E-1,1.226616502E0,-1.392313600E0
2.842730534E0,8.326850533E-1,1.258381486E0,-1.277470946E0
2.847486003E0,9.676861763E-1,1.309694052E0,-1.191339016E0
2.852241420E0,1.084361315E0,1.339626431E0,-1.136361241E0
2.856996888E0,1.187597513E0,1.324354887E0,-1.117424369E0
2.861752305E0,1.282892346E0,1.266933560E0,-1.128419995E0
2.866507774E0,1.377576470E0,1.152701855E0,-1.163850069E0
2.871263242E0,1.481423497E0,9.688315392E-1,-1.196836829E0
2.876018659E0,1.595044255E0,7.489202023E-1,-1.207221508E0
2.880774128E0,1.712941170E0,5.283980370E-1,-1.188284755E0
2.885529545E0,1.833892465E0,3.378082216E-1,-1.155908823E0
2.890285013E0,1.951178432E0,2.321286201E-1,-1.100931048E0
2.895040430E0,2.053803682E0,2.425133139E-1,-1.014799118E0
2.899795899E0,2.127718449E0,3.329212964E-1,-8.944587708E-1
2.904551367E0,2.164370298E0,4.862483740E-1,-7.399099469E-1
2.909306784E0,2.158261538E0,6.743947268E-1,-5.535961986E-1
2.914062253E0,2.099618673E0,8.564324379E-1,-3.507890999E-1
2.918817670E0,1.991495490E0,1.029918075E0,-1.357647032E-1
2.923573138E0,1.835725069E0,1.186299443E0,7.681624591E-2
2.928328555E0,1.644524336E0,1.306028843E0,2.735147178E-1
2.933084024E0,1.436219454E0,1.378110886E0,4.372264743E-1
2.937839440E0,1.232801437E0,1.387273908E0,5.545125008E-1
2.942594909E0,1.057483315E0,1.306639791E0,6.094903350E-1
2.947350378E0,9.108757377E-1,1.150869250E0,6.149880886E-1
2.952105795E0,7.917571068E-1,9.291253090E-1,5.746710300E-1
2.956861263E0,6.952404976E-1,6.957749724E-1,4.983129501E-1
2.961616680E0,6.170498133E-1,4.654789567E-1,3.956876695E-1
2.966372149E0,5.626828074E-1,2.461785078E-1,2.729038298E-1
2.971127565E0,5.254200697E-1,3.176496923E-2,1.244636998E-1
2.975883034E0,5.040398240E-1,-1.600465775E-1,-4.780016840E-2
2.980638503E0,4.826595485E-1,-3.188714087E-1,-2.328922004E-1
2.985393920E0,4.612792730E-1,-4.398226440E-1,-4.222602844E-1
2.990149388E0,4.417316020E-1,-4.911352694E-1,-6.146826744E-1
2.994904805E0,4.246273935E-1,-4.831940532E-1,-8.107702732E-1
2.999660274E0,4.124100804E-1,-4.514290690E-1,-1.000749230E0
3.004415690E0,4.093557596E-1,-4.208858311E-1,-1.169958711E0
3.009171159E0,4.130209386E-1,-4.007273018E-1,-1.314122915E0
3.013926576E0,4.307360351E-1,-3.781253099E-1,-1.426522017E0
3.018682045E0,4.563923478E-1,-3.524689674E-1,-1.506545305E0
3.023437513E0,4.893790483E-1,-3.329212964E-1,-1.552971005E0
3.028192930E0,5.303069949E-1,-3.494146466E-1,-1.575572968E0
3.032948399E0,5.700132251E-1,-3.830122054E-1,-1.584735990E0
3.037703815E0,5.871174335E-1,-3.995055556E-1,-1.580459952E0
3.042459284E0,5.706240535E-1,-3.732383847E-1,-1.549305797E0
3.047214701E0,5.125918984E-1,-3.158170879E-1,-1.471725941E0
3.051970170E0,4.234056473E-1,-2.571740746E-1,-1.378874540E0
3.056725638E0,3.067304790E-1,-2.070831656E-1,-1.289688230E0
3.061481055E0,1.888335794E-1,-1.685986817E-1,-1.220049739E0
3.066236524E0,8.254310489E-2,-1.276707351E-1,-1.161406636E0
3.070991940E0,3.130682046E-3,-9.407317638E-2,-1.107650518E0
3.075747409E0,-4.085158184E-2,-6.108647957E-2,-1.067333460E0
3.080502826E0,-4.634936526E-2,-3.420842811E-2,-1.037401080E0
3.085258295E0,-2.252563834E-2,-2.443459071E-2,-1.024572968E0
3.090013763E0,2.267835476E-2,2.443459118E-3,-1.043509722E0
3.094769180E0,7.032580674E-2,5.253437161E-2,-1.091157198E0
3.099524649E0,1.094211563E-1,1.313359290E-1,-1.163239241E0
3.104280065E0,1.326340139E-1,2.431241870E-1,-1.286633968E0
3.109035534E0,1.454621702E-1,3.756818473E-1,-1.515708208E0
3.113790951E0,1.509599537E-1,5.192350745E-1,-1.884059668E0
3.118546420E0,1.393535286E-1,7.061597109E-1,-2.358090878E0
3.123301836E0,1.246927753E-1,9.065233469E-1,-2.841284752E0
3.128057305E0,1.527925581E-1,1.007315993E0,-3.282329082E0
3.132812722E0,2.083812505E-1,1.025031090E0,-3.648848057E0
3.137568190E0,2.676351368E-1,1.001818180E0,-3.944506645E0
3.142323659E0,3.274998665E-1,9.450078011E-1,-4.179078579E0
3.147079076E0,3.818668425E-1,8.533781171E-1,-4.355618477E0
3.151834545E0,4.227947891E-1,7.354812026E-1,-4.474737167E0
3.156589961E0,4.344012141E-1,6.273581386E-1,-4.543154240E0
3.161345430E0,4.154644012E-1,5.424479246E-1,-4.571253777E0
3.166100847E0,3.733147383E-1,4.838049114E-1,-4.572475433E0
3.170856315E0,3.348302543E-1,4.337140024E-1,-4.550484657E0
3.175611732E0,3.067304790E-1,3.824013472E-1,-4.504058838E0
3.180367201E0,2.939023077E-1,3.029889166E-1,-4.434420109E0
3.185122670E0,2.804632783E-1,1.844811589E-1,-4.342179775E0
3.189878086E0,2.902371287E-1,7.635809481E-2,-4.247495651E0
3.194633555E0,3.531562090E-1,1.117882580E-1,-4.136318207E0
3.199388972E0,4.240165055E-1,2.730565667E-1,-3.989099741E0
3.204144440E0,3.928624094E-1,4.807505906E-1,-3.810727119E0
3.208899857E0,3.158934414E-1,7.049379349E-1,-3.634798050E0
3.213655326E0,2.847393453E-1,9.077450633E-1,-3.422827959E0
3.218410795E0,2.786307037E-1,1.166140914E0,-3.127780437E0
3.223166211E0,3.177260458E-1,1.439808249E0,-2.783863544E0
3.227921680E0,4.240165055E-1,1.691484571E0,-2.434448957E0
3.232677097E0,5.480220914E-1,1.936441302E0,-2.054491043E0
3.237432565E0,6.695841551E-1,2.132529020E0,-1.592066288E0
3.242187982E0,7.770963311E-1,2.230267286E0,-1.047785759E0
3.246943451E0,8.412371874E-1,2.166737318E0,-4.888445437E-1
3.251698867E0,8.351284862E-1,1.918726325E0,-1.603520103E-2
3.256454336E0,7.434988022E-1,1.522885919E0,3.126100600E-1
3.261209805E0,5.657371283E-1,1.028696299E0,5.141954422E-1
3.265965222E0,3.323867917E-1,4.960221946E-1,6.259836555E-1
3.270720690E0,7.521272451E-2,-1.832594397E-3,6.717985272E-1
3.275476107E0,-2.008981556E-1,-4.831940532E-1,6.663007736E-1
3.280231576E0,-4.959458411E-1,-9.529490471E-1,6.137663722E-1
3.284986992E0,-7.818305492E-1,-1.375667453E0,5.319104791E-1
3.289742461E0,-1.024343848E0,-1.686597705E0,4.390590489E-1
3.294497878E0,-1.195996881E0,-1.854585528E0,3.425424397E-1
3.299253347E0,-1.286404848E0,-1.869857073E0,2.484692484E-1
3.304008815E0,-1.294346094E0,-1.751349330E0,1.678351015E-1
3.308764232E0,-1.229594469E0,-1.545487881E0,1.207985133E-1
3.313519701E0,-1.119027972E0,-1.315191865E0,1.262962967E-1
3.318275117E0,-9.779181480E-1,-1.091615319E0,1.757763475E-1
3.323030586E0,-8.166498542E-1,-8.888082504E-1,2.405280024E-1
3.327786003E0,-6.486620307E-1,-7.049379349E-1,2.918406427E-1
3.332541472E0,-4.782307744E-1,-5.363392830E-1,3.126100600E-1
3.337296888E0,-3.169624507E-1,-3.799578846E-1,3.016144931E-1
3.342052357E0,-1.740200967E-1,-2.431241870E-1,2.649625838E-1
3.346807826E0,-5.001455545E-2,-1.246164143E-1,2.093739063E-1
3.351563242E0,5.688678101E-2,-1.832594350E-2,1.446222365E-1
3.356318711E0,1.466839015E-1,8.063415438E-2,7.681624591E-2
3.361074128E0,2.242637277E-1,1.753181964E-1,1.023198478E-2
3.365829597E0,2.896262705E-1,2.718348205E-1,-5.757400393E-2
3.370585013E0,3.403280377E-1,3.646862805E-1,-1.211039424E-1
3.375340482E0,3.714821339E-1,4.392117858E-1,-1.742491722E-1
3.380095951E0,3.800342381E-1,4.831940532E-1,-2.133445293E-1
3.384851367E0,3.653734922E-1,4.874700904E-1,-2.335030586E-1
3.389606836E0,3.238346875E-1,4.489856064E-1,-2.347247899E-1
3.394362253E0,2.584721744E-1,3.720166385E-1,-2.157879770E-1
3.399117722E0,1.680641770E-1,2.474002391E-1,-1.803578287E-1
3.403873138E0,6.360629201E-2,7.513637096E-2,-1.278234571E-1
3.408628607E0,-2.496909723E-2,-1.020144150E-1,-5.574141070E-2
3.413384024E0,-4.451677203E-2,-1.948658675E-1,3.588830680E-2
3.418139492E0,2.206749097E-2,-1.557705253E-1,1.458439678E-1
3.422894909E0,1.057559624E-1,-6.414080411E-2,2.747364342E-1
3.427650378E0,1.772271395E-1,4.153880477E-2,4.097375572E-1
3.432405847E0,2.297615111E-1,1.178968996E-1,5.245801210E-1
3.437161263E0,2.486983240E-1,1.282816082E-1,5.887209177E-1
3.441916732E0,2.279289216E-1,9.040798992E-2,5.716167092E-1
3.446672149E0,1.643989831E-1,5.131264031E-2,4.952586293E-1
3.451427617E0,6.604975462E-2,2.993237413E-2,3.944659233E-1
3.456183034E0,-4.024071619E-2,1.832594397E-3,2.906189263E-1
3.460938503E0,-1.092684343E-1,-4.825831577E-2,1.971566081E-1
3.465693920E0,-1.428660005E-1,-1.197294965E-1,1.153007299E-1
3.470449388E0,-1.483637840E-1,-1.936441362E-1,4.627300799E-2
3.475204857E0,-1.306487024E-1,-2.571740746E-1,-8.093958721E-3
3.479960274E0,-9.888373315E-2,-3.115410507E-1,-4.108065739E-2
3.484715742E0,-5.734493211E-2,-3.500255048E-1,-6.062832847E-2
3.489471159E0,-1.030834299E-2,-3.616319597E-1,-6.673697382E-2
3.494226628E0,2.939786762E-2,-3.488037884E-1,-5.513054505E-2
3.498982045E0,5.933023989E-2,-3.170388341E-1,-3.069595434E-2
3.503737513E0,7.460185885E-2,-2.748891413E-1,2.901607659E-3
3.508492982E0,7.276926935E-2,-2.376264036E-1,3.588830680E-2
3.513248399E0,5.444332212E-2,-2.113592178E-1,6.276635826E-2
3.518003815E0,2.573267929E-2,-2.034179717E-1,8.475748450E-2
3.522759284E0,-7.254019380E-3,-2.162461281E-1,1.012508348E-1
3.527514753E0,-3.901898861E-2,-2.467893660E-1,1.116355360E-1
3.532270170E0,-6.650790572E-2,-2.852738500E-1,1.153007299E-1
3.537025638E0,-8.300124854E-2,-3.243691921E-1,1.140789986E-1
3.541781055E0,-8.910989761E-2,-3.555232882E-1,1.110246703E-1
3.546536524E0,-8.544471115E-2,-3.732383847E-1,1.055268943E-1
3.551291940E0,-7.383827865E-2,-3.799578846E-1,9.758564830E-2
3.556047409E0,-5.367974192E-2,-3.750709891E-1,8.720094711E-2
3.560802826E0,-3.168861195E-2,-3.597993553E-1,7.315105945E-2
3.565558295E0,-9.697478265E-3,-3.323104382E-1,5.665770918E-2
3.570313763E0,8.628465235E-3,-3.011563420E-1,3.894263133E-2
3.575069180E0,2.023489587E-2,-2.669478953E-1,2.122755162E-2
3.579824649E0,2.451094985E-2,-2.333503515E-1,5.345067009E-3
3.584580065E0,1.962403022E-2,-2.034179717E-1,-8.093958721E-3
3.589335534E0,9.850194678E-3,-1.783725172E-1,-2.214384824E-2
3.594090951E0,-4.199695308E-3,-1.569922417E-1,-3.191768378E-2
3.598846420E0,-1.763872057E-2,-1.411097646E-1,-3.802633286E-2
3.603601836E0,-2.557996288E-2,-1.264490038E-1,-3.863719851E-2
3.608357305E0,-2.924515121E-2,-1.160643101E-1,-3.619373962E-2
3.613112774E0,-2.863428742E-2,-1.069013327E-1,-3.497200832E-2
3.617868190E0,-2.252563834E-2,-1.014035568E-1,-3.497200832E-2
3.622623659E0,-1.336266659E-2,-9.773836285E-2,-3.375028074E-2
3.627379076E0,-2.367100911E-3,-9.468404204E-2,-3.191768378E-2
3.632134545E0,8.017600514E-3,-9.162971377E-2,-2.886336111E-2
3.636889961E0,1.718057133E-2,-8.735366166E-2,-2.336557768E-2
3.641645430E0,2.328922041E-2,-8.185587823E-2,-1.542433538E-2
3.646400847E0,2.695440874E-2,-7.269290835E-2,-6.872228812E-3
3.651156315E0,2.695440874E-2,-5.864302069E-2,4.581485991E-4
3.655911732E0,2.451094985E-2,-4.398226365E-2,7.177661173E-3
3.660667201E0,2.145662531E-2,-2.809977904E-2,1.328630932E-2
3.665422670E0,1.840230078E-2,-1.404988952E-2,1.939495653E-2
3.670178086E0,1.779143699E-2,-6.108647794E-4,2.244928107E-2
3.674933555E0,1.779143699E-2,9.162971750E-3,2.611446939E-2
3.679688972E0,1.840230078E-2,1.588248461E-2,3.039052337E-2
3.684444440E0,1.962403022E-2,2.199113183E-2,3.344484791E-2
3.689199857E0,1.962403022E-2,2.809977904E-2,3.527744114E-2
3.693955326E0,1.718057133E-2,3.359756246E-2,3.711003438E-2
3.698710742E0,1.351538301E-2,4.031707719E-2,3.833176568E-2
3.703466211E0,1.168278884E-2,4.581485689E-2,3.833176568E-2
3.708221628E0,9.239329956E-3,5.009091273E-2,3.711003438E-2
3.712977097E0,9.850194678E-3,5.314523727E-2,3.527744114E-2
3.717732565E0,1.351538301E-2,5.925388262E-2,3.344484791E-2
3.722487982E0,1.840230078E-2,6.658425927E-2,2.977965772E-2
3.727243451E0,2.451094985E-2,7.880155742E-2,2.428187430E-2
3.731998867E0,3.061959706E-2,9.285144508E-2,1.817322709E-2
3.736754336E0,3.733910993E-2,1.069013327E-1,1.267544460E-2
3.741509753E0,4.283689335E-2,1.209512278E-1,6.566796452E-3
3.746265222E0,4.894553870E-2,1.319467872E-1,2.901607659E-3
3.751020638E0,5.261072889E-2,1.331685185E-1,-1.527161949E-4
3.755776107E0,5.627591908E-2,1.319467872E-1,-1.374445739E-3
3.760531576E0,5.994110554E-2,1.282816082E-1,-2.596175298E-3
3.765286992E0,6.055197120E-2,1.240055487E-1,-1.985310577E-3
3.770042461E0,6.055197120E-2,1.209512278E-1,-1.374445739E-3
3.774797878E0,5.871937796E-2,1.215620935E-1,-7.635809598E-4
3.779553347E0,5.566505343E-2,1.252272725E-1,1.679878100E-3
3.784308763E0,5.138900131E-2,1.325576603E-1,4.123337101E-3
3.789064232E0,4.650207981E-2,1.411097646E-1,6.566796452E-3
3.793819649E0,4.222602770E-2,1.502727419E-1,9.010255337E-3
3.798575117E0,3.856083751E-2,1.594357044E-1,9.621120058E-3
3.803330534E0,3.672824427E-2,1.655443609E-1,1.450803876E-2
3.808086003E0,3.917170316E-2,1.637117565E-1,2.122755162E-2
3.812841420E0,4.344775900E-2,1.539379209E-1,2.916879393E-2
3.817596888E0,4.528035223E-2,1.380554438E-1,3.772090003E-2
3.822352357E0,4.283689335E-2,1.154534444E-1,4.382954910E-2
3.827107774E0,3.428478539E-2,9.162971377E-2,4.749473557E-2
3.831863242E0,2.267835476E-2,6.658425927E-2,5.115992576E-2
3.836618659E0,5.574141163E-3,4.337139800E-2,5.482511222E-2
3.841374128E0,-9.697478265E-3,2.382372692E-2,5.665770918E-2
3.846129545E0,-2.619082667E-2,1.099556591E-2,5.787943676E-2
3.850885013E0,-3.352120519E-2,-7.330377586E-3,6.520981342E-2
3.855640430E0,-2.985601686E-2,-3.665188700E-2,7.559451461E-2
3.860395899E0,-1.580612548E-2,-7.819069177E-2,8.903354406E-2
3.865151367E0,3.130682046E-3,-1.240055487E-1,9.880737960E-2
3.869906784E0,2.267835476E-2,-1.679878086E-1,9.819651395E-2
3.874662253E0,3.917170316E-2,-2.064722925E-1,8.903354406E-2
3.879417670E0,5.077813566E-2,-2.376264036E-1,7.254019380E-2
3.884173138E0,5.505418777E-2,-2.559523284E-1,5.177079141E-2
3.888928555E0,5.199986324E-2,-2.620609999E-1,2.977965772E-2
3.893684024E0,3.733910993E-2,-2.553414702E-1,7.177661173E-3
3.898439440E0,2.145662531E-2,-2.364046723E-1,-1.237001177E-2
3.903194909E0,3.130682046E-3,-2.107483447E-1,-2.947422490E-2
3.907950326E0,-1.214093715E-2,-1.777616441E-1,-4.230238497E-2
3.912705795E0,-2.130390890E-2,-1.386663020E-1,-5.268708616E-2
3.917461263E0,-2.191477455E-2,-1.038470119E-1,-6.123919412E-2
3.922216680E0,-1.336266659E-2,-7.147117704E-2,-6.734783947E-2
3.926972149E0,2.519817324E-3,-4.520399496E-2,-7.162389904E-2
3.931727565E0,2.206749097E-2,-2.443459071E-2,-7.467821985E-2
3.936483034E0,4.161516204E-2,-7.330377586E-3,-7.528908551E-2
3.941238451E0,5.688678101E-2,9.162971750E-3,-7.651081681E-2
3.945993920E0,6.788235158E-2,2.809977904E-2,-7.467821985E-2
3.950749336E0,7.338013500E-2,4.948004708E-2,-7.284562290E-2
3.955504805E0,7.521272451E-2,7.208204269E-2,-7.101303339E-2
3.960260222E0,7.399099320E-2,9.590577334E-2,-6.734783947E-2
3.965015690E0,7.154753804E-2,1.154534444E-1,-6.185005978E-2
3.969771159E0,6.666062027E-2,1.282816082E-1,-5.390881747E-2
3.974526576E0,5.933023989E-2,1.343902498E-1,-4.291325063E-2
3.979282045E0,5.016727000E-2,1.343902498E-1,-2.886336111E-2
3.984037461E0,3.917170316E-2,1.313359290E-1,-1.542433538E-2
3.988792930E0,2.817613818E-2,1.295033395E-1,-1.527161949E-4
3.993548347E0,1.840230078E-2,1.301141977E-1,1.572976820E-2
3.998303815E0,1.107192412E-2,1.368337125E-1,2.855792828E-2
4.003059232E0,4.963276442E-3,1.466075480E-1,3.649916872E-2
4.007814701E0,3.741546767E-3,1.594357044E-1,4.199695215E-2
4.012570170E0,3.741546767E-3,1.716530025E-1,4.260781780E-2
4.017325586E0,4.963276442E-3,1.808159798E-1,4.138609022E-2
4.022081055E0,7.406735327E-3,1.838703007E-1,3.588830680E-2
4.026836472E0,8.017600514E-3,1.808159798E-1,3.039052337E-2
4.031591940E0,6.185005885E-3,1.734855920E-1,2.367101051E-2
4.036347357E0,1.298087649E-3,1.618791670E-1,1.939495653E-2
4.041102826E0,-7.864884101E-3,1.496618688E-1,1.450803876E-2
4.045858242E0,-1.886045001E-2,1.374445707E-1,1.206457894E-2
4.050613711E0,-3.046688065E-2,1.252272725E-1,1.145371422E-2
4.055369128E0,-4.329504073E-2,1.154534444E-1,1.145371422E-2
4.060124597E0,-5.429060757E-2,1.069013327E-1,1.023198478E-2
4.064880065E0,-6.345357746E-2,1.014035568E-1,8.399390616E-3
4.069635482E0,-7.139482349E-2,9.896009415E-2,3.512472380E-3
4.074390951E0,-7.628174126E-2,1.001818255E-1,-3.207040019E-3
4.079146367E0,-7.811433077E-2,1.069013327E-1,-9.315688163E-3
4.083901836E0,-7.872519642E-2,1.148425788E-1,-1.542433538E-2
4.088657253E0,-7.444914430E-2,1.270598769E-1,-2.275471389E-2
4.093412722E0,-6.834049523E-2,1.392771751E-1,-3.008509055E-2
4.098168138E0,-5.795579776E-2,1.508836001E-1,-3.619373962E-2
4.102923607E0,-4.512763396E-2,1.594357044E-1,-4.046979174E-2
4.107679076E0,-3.107774630E-2,1.631008983E-1,-4.230238497E-2
4.112434492E0,-1.702785492E-2,1.631008983E-1,-4.352411628E-2
4.117189961E0,-3.588830587E-3,1.600465775E-1,-4.291325063E-2
4.121945378E0,8.017600514E-3,1.533270627E-1,-4.291325063E-2
4.126700847E0,1.779143699E-2,1.435532272E-1,-4.169152305E-2
4.131456263E0,2.328922041E-2,1.313359290E-1,-3.985892609E-2
4.136211732E0,2.695440874E-2,1.148425788E-1,-3.802633286E-2
4.140967201E0,2.817613818E-2,9.529490769E-2,-3.375028074E-2
4.145722617E0,2.939786762E-2,7.513637096E-2,-2.825249545E-2
4.150478086E0,3.123046272E-2,5.314523727E-2,-2.031125315E-2
4.155233503E0,3.184132650E-2,3.115410358E-2,-1.542433538E-2
4.159988972E0,3.489565104E-2,1.221729536E-2,-1.114828233E-2
4.164744388E0,3.794997558E-2,-6.108647794E-4,-9.315688163E-3
4.169499857E0,4.161516204E-2,-7.330377586E-3,-8.093958721E-3
4.174255326E0,4.589121789E-2,-7.330377586E-3,-6.872228812E-3
4.179010742E0,4.955640435E-2,-4.886918236E-3,-6.261364091E-3
4.183766211E0,5.199986324E-2,-0.000000000E0,-6.261364091E-3
4.188521628E0,5.444332212E-2,3.054323839E-3,-6.872228812E-3
4.193277097E0,5.322159454E-2,1.832594397E-3,-7.483093534E-3
4.198032513E0,5.199986324E-2,-0.000000000E0,-8.093958721E-3
4.202787982E0,5.016727000E-2,-3.665188793E-3,-6.872228812E-3
4.207543451E0,4.650207981E-2,-9.162971750E-3,-5.039634649E-3
4.212298867E0,4.100430012E-2,-1.527161989E-2,-2.596175298E-3
4.217054336E0,3.550651670E-2,-2.076940238E-2,4.581485991E-4
4.221809753E0,2.939786762E-2,-2.687804960E-2,2.901607659E-3
4.226565222E0,2.512181364E-2,-3.298669681E-2,5.345067009E-3
4.231320638E0,2.328922041E-2,-3.970621154E-2,6.566796452E-3
4.236076107E0,2.512181364E-2,-4.886918142E-2,9.621120058E-3
4.240831576E0,2.695440874E-2,-5.619955808E-2,1.145371422E-2
4.245586992E0,2.817613818E-2,-6.291907281E-2,1.267544460E-2
4.250342461E0,2.817613818E-2,-6.597339362E-2,1.328630932E-2
4.255097878E0,2.634354308E-2,-6.475166976E-2,1.389717404E-2
4.259853347E0,2.206749097E-2,-6.414080411E-2,1.389717404E-2
4.264608763E0,1.656970754E-2,-6.475166976E-2,1.267544460E-2
4.269364232E0,8.017600514E-3,-6.658425927E-2,1.145371422E-2
4.274119701E0,7.635809743E-5,-7.086031139E-2,7.788525894E-3
4.278875117E0,-9.086613543E-3,-7.147117704E-2,4.123337101E-3
4.283630586E0,-1.824958436E-2,-6.963858753E-2,4.581485991E-4
4.288386003E0,-2.680169232E-2,-5.986474827E-2,-6.261364091E-3
4.293141472E0,-3.779725730E-2,-4.398226365E-2,-1.053741761E-2
4.297896888E0,-4.634936526E-2,-2.015853859E-2,-1.603520103E-2
4.302652357E0,-5.429060757E-2,6.719512399E-3,-2.031125315E-2
4.307407826E0,-5.917752534E-2,3.481929377E-2,-2.397644334E-2
4.312163242E0,-6.101011857E-2,5.925388262E-2,-2.519817278E-2
4.316918711E0,-5.978839099E-2,8.063415438E-2,-2.703076601E-2
4.321674128E0,-5.673406646E-2,9.346231073E-2,-2.580903657E-2
4.326429597E0,-5.123628303E-2,9.896009415E-2,-2.458730713E-2
4.331185013E0,-4.268417507E-2,9.773836285E-2,-2.214384824E-2
4.335940482E0,-3.352120519E-2,8.796452731E-2,-1.908952370E-2
4.340695951E0,-2.374736778E-2,7.391463965E-2,-1.603520103E-2
4.345451367E0,-1.641699113E-2,5.497783050E-2,-1.237001177E-2
4.350206836E0,-9.086613543E-3,3.481929377E-2,-9.315688163E-3
4.354962253E0,-6.032289471E-3,1.466075517E-2,-7.483093534E-3
4.359717722E0,-6.643154658E-3,-3.665188793E-3,-6.261364091E-3
4.364473190E0,-1.091920771E-2,-1.710421406E-2,-3.817904973E-3
4.369228607E0,-1.824958436E-2,-2.565632015E-2,-7.635809598E-4
4.373984076E0,-2.557996288E-2,-3.054323979E-2,2.290742937E-3
4.378739492E0,-3.291033953E-2,-2.993237413E-2,7.177661173E-3
4.383494961E0,-3.779725730E-2,-2.504545636E-2,1.084284950E-2
4.388250378E0,-4.024071619E-2,-2.015853859E-2,1.572976820E-2
4.393005847E0,-3.962985426E-2,-1.466075517E-2,1.878409274E-2
4.397761315E0,-3.596466407E-2,-1.099556591E-2,2.122755162E-2
4.402516732E0,-3.229947388E-2,-1.099556591E-2,2.244928107E-2
4.407272201E0,-2.863428742E-2,-1.221729536E-2,2.367101051E-2
4.412027617E0,-2.557996288E-2,-1.649334840E-2,2.306014486E-2
4.416783086E0,-2.252563834E-2,-2.321286127E-2,2.244928107E-2
4.421538555E0,-2.008217946E-2,-3.176496923E-2,2.244928107E-2
4.426293972E0,-1.763872057E-2,-4.031707719E-2,1.939495653E-2
4.431049440E0,-1.763872057E-2,-4.886918142E-2,1.634063199E-2
4.435804857E0,-1.702785492E-2,-5.619955808E-2,1.145371422E-2
4.440560326E0,-1.763872057E-2,-6.230820715E-2,5.955931731E-3
4.445315795E0,-2.008217946E-2,-6.658425927E-2,4.581485991E-4
4.450071211E0,-2.435823344E-2,-6.902772188E-2,-3.817904973E-3
4.454826680E0,-2.985601686E-2,-6.963858753E-2,-9.315688163E-3
4.459582097E0,-3.596466407E-2,-6.963858753E-2,-1.359174121E-2
4.464337565E0,-4.207331315E-2,-6.841685623E-2,-1.359174121E-2
4.469093034E0,-4.512763396E-2,-6.658425927E-2,-1.298087649E-2
4.473848451E0,-4.573849961E-2,-6.597339362E-2,-1.053741761E-2
4.478603920E0,-4.451677203E-2,-6.475166976E-2,-7.483093534E-3
4.483359336E0,-4.085158184E-2,-6.414080411E-2,-3.817904973E-3
4.488114805E0,-3.596466407E-2,-6.597339362E-2,-1.527161949E-4
4.492870274E0,-2.924515121E-2,-6.963858753E-2,1.679878100E-3
4.497625690E0,-2.130390890E-2,-7.635809481E-2,4.734201822E-3
4.502381159E0,-1.458439697E-2,-8.368847519E-2,6.566796452E-3
4.507136576E0,-9.086613543E-3,-9.224057943E-2,7.177661173E-3
4.511892045E0,-5.421424750E-3,-1.014035568E-1,7.177661173E-3
4.516647513E0,-1.756236190E-3,-1.087339297E-1,7.788525894E-3
4.521402930E0,7.635809743E-5,-1.142317131E-1,7.788525894E-3
4.526158399E0,-2.367100911E-3,-1.154534444E-1,8.399390616E-3
4.530913815E0,-6.032289471E-3,-1.142317131E-1,7.788525894E-3
4.535669284E0,-1.275180187E-2,-1.087339297E-1,7.788525894E-3
4.540424753E0,-2.069304511E-2,-9.957095981E-2,7.177661173E-3
4.545180170E0,-2.802342176E-2,-8.857539296E-2,7.177661173E-3
4.549935638E0,-3.352120519E-2,-7.452550530E-2,7.788525894E-3
4.554691055E0,-4.024071619E-2,-5.803215504E-2,8.399390616E-3
4.559446524E0,-4.329504073E-2,-4.276053607E-2,1.023198478E-2
4.564201940E0,-4.146244749E-2,-2.993237413E-2,1.084284950E-2
4.568957409E0,-3.779725730E-2,-2.015853859E-2,1.267544460E-2
4.573712878E0,-3.291033953E-2,-1.527161989E-2,1.450803876E-2
4.578468295E0,-2.741255611E-2,-1.466075517E-2,1.634063199E-2
4.583223763E0,-2.496909723E-2,-1.588248461E-2,1.756236330E-2
4.587979232E0,-2.313650399E-2,-1.771507785E-2,1.939495653E-2
4.592734649E0,-2.313650399E-2,-2.138026804E-2,2.306014486E-2
4.597490117E0,-2.435823344E-2,-2.443459071E-2,2.550360374E-2
4.602245534E0,-2.619082667E-2,-2.871064469E-2,2.733619884E-2
4.607001003E0,-2.680169232E-2,-3.237583488E-2,2.733619884E-2
4.611756472E0,-2.924515121E-2,-3.665188700E-2,2.489273995E-2
4.616511888E0,-3.046688065E-2,-3.909534588E-2,2.367101051E-2
4.621267357E0,-3.107774630E-2,-3.604102135E-2,2.306014486E-2
4.626022774E0,-3.291033953E-2,-3.115410358E-2,2.367101051E-2
4.630778242E0,-3.535379842E-2,-2.626718581E-2,2.428187430E-2
4.635533711E0,-3.596466407E-2,-2.321286127E-2,2.550360374E-2
4.640289128E0,-3.413207084E-2,-2.138026804E-2,2.611446939E-2
4.645044597E0,-2.924515121E-2,-2.260199748E-2,2.550360374E-2
4.649800065E0,-2.374736778E-2,-2.565632015E-2,2.550360374E-2
4.654555482E0,-1.824958436E-2,-3.054323979E-2,2.306014486E-2
4.659310951E0,-1.336266659E-2,-3.481929377E-2,2.122755162E-2
4.664066367E0,-9.697478265E-3,-3.848448023E-2,1.817322709E-2
4.668821836E0,-7.254019380E-3,-4.092793912E-2,1.511890348E-2
4.673577305E0,-6.032289471E-3,-4.337139800E-2,1.267544460E-2
4.678332722E0,-4.810560029E-3,-4.520399496E-2,9.010255337E-3
4.683088190E0,-2.977965865E-3,-4.520399496E-2,6.566796452E-3
4.687843659E0,-4.199695308E-3,-4.642572254E-2,3.512472380E-3
4.692599076E0,-4.810560029E-3,-4.642572254E-2,2.901607659E-3
4.697354545E0,-7.864884101E-3,-4.459312931E-2,1.069013379E-3
4.702109961E0,-1.214093715E-2,-4.153880477E-2,1.069013379E-3
4.706865430E0,-1.641699113E-2,-3.726275265E-2,-1.527161949E-4
4.711620899E0,-2.130390890E-2,-3.298669681E-2,-7.635809598E-4
4.716376315E0,-2.435823344E-2,-2.871064469E-2,-1.374445739E-3
4.721131784E0,-2.619082667E-2,-2.260199748E-2,-2.596175298E-3
4.725887201E0,-2.680169232E-2,-1.588248461E-2,-3.207040019E-3
4.730642670E0,-2.680169232E-2,-9.162971750E-3,-3.817904973E-3
4.735398138E0,-2.619082667E-2,-3.054323839E-3,-2.596175298E-3
4.740153555E0,-2.619082667E-2,3.054323839E-3,-7.635809598E-4
4.744909024E0,-2.557996288E-2,6.719512399E-3,1.679878100E-3
4.749664492E0,-2.374736778E-2,7.330377586E-3,3.512472380E-3
4.754419909E0,-2.191477455E-2,6.108647678E-3,5.345067009E-3
4.759175378E0,-1.947131567E-2,6.108647794E-4,8.399390616E-3
4.763930847E0,-1.580612548E-2,-7.330377586E-3,1.084284950E-2
4.768686263E0,-1.397353224E-2,-1.649334840E-2,1.389717404E-2
4.773441732E0,-1.153007243E-2,-2.565632015E-2,1.634063199E-2
4.778197149E0,-9.697478265E-3,-3.420842811E-2,1.817322709E-2
4.782952617E0,-5.421424750E-3,-3.848448023E-2,1.939495653E-2
4.787708086E0,-4.810560029E-3,-4.031707719E-2,2.000582218E-2
4.792463503E0,-2.977965865E-3,-3.909534588E-2,2.000582218E-2
4.797218972E0,-2.977965865E-3,-3.665188700E-2,1.939495653E-2
4.801974440E0,-2.977965865E-3,-3.298669681E-2,1.756236330E-2
4.806729857E0,-4.199695308E-3,-2.748891525E-2,1.511890348E-2
4.811485326E0,-7.254019380E-3,-2.015853859E-2,1.084284950E-2
4.816240795E0,-9.086613543E-3,-1.160643063E-2,7.177661173E-3
4.820996211E0,-1.458439697E-2,-2.443459118E-3,3.512472380E-3
4.825751680E0,-1.458439697E-2,7.330377586E-3,-1.374445739E-3
4.830507097E0,-1.702785492E-2,1.588248461E-2,-4.428769462E-3
4.835262565E0,-1.702785492E-2,2.443459071E-2,-7.483093534E-3
4.840018034E0,-1.763872057E-2,2.871064469E-2,-8.093958721E-3
4.844773451E0,-1.641699113E-2,3.237583488E-2,-8.704823442E-3
4.849528920E0,-1.580612548E-2,3.298669681E-2,-6.261364091E-3
4.854284388E0,-1.336266659E-2,3.115410358E-2,-3.817904973E-3
4.859039805E0,-9.697478265E-3,2.871064469E-2,-1.527161949E-4
4.863795274E0,-3.588830587E-3,2.260199748E-2,1.679878100E-3
4.868550742E0,7.635809743E-5,1.221729536E-2,4.123337101E-3
4.873306159E0,5.574141163E-3,1.221729559E-3,4.734201822E-3
4.878061628E0,7.406735327E-3,-8.552107029E-3,4.123337101E-3
4.882817097E0,9.850194678E-3,-1.588248461E-2,2.290742937E-3
4.887572513E0,9.850194678E-3,-1.893680729E-2,-1.527161949E-4
4.892327982E0,5.574141163E-3,-1.893680729E-2,-3.817904973E-3
4.897083399E0,7.635809743E-5,-1.527161989E-2,-6.261364091E-3
4.901838867E0,-7.254019380E-3,-1.099556591E-2,-8.704823442E-3
4.906594336E0,-1.458439697E-2,-2.443459118E-3,-1.053741761E-2
4.911349753E0,-2.130390890E-2,4.886918236E-3,-1.175914705E-2
4.916105222E0,-2.496909723E-2,1.282816008E-2,-1.114828233E-2
4.920860690E0,-2.619082667E-2,2.076940238E-2,-1.175914705E-2
4.925616107E0,-2.252563834E-2,2.748891525E-2,-1.114828233E-2
4.930371576E0,-1.763872057E-2,3.115410358E-2,-9.315688163E-3
4.935127045E0,-1.336266659E-2,3.237583488E-2,-9.315688163E-3
4.939882461E0,-7.254019380E-3,2.993237413E-2,-1.114828233E-2
4.944637930E0,-1.145371469E-3,2.626718581E-2,-1.237001177E-2
4.949393399E0,5.574141163E-3,2.015853859E-2,-1.298087649E-2
4.954148815E0,9.239329956E-3,1.221729536E-2,-1.420260593E-2
4.958904284E0,1.168278884E-2,3.665188793E-3,-1.603520103E-2
4.963659753E0,1.229365356E-2,-4.276053514E-3,-1.603520103E-2
4.968415170E0,1.107192412E-2,-9.773836471E-3,-1.481347065E-2
4.973170638E0,8.017600514E-3,-1.221729536E-2,-1.420260593E-2
4.977926055E0,3.741546767E-3,-9.773836471E-3,-1.237001177E-2
4.982681524E0,-1.145371469E-3,-3.665188793E-3,-1.175914705E-2
4.987436992E0,-6.032289471E-3,3.665188793E-3,-1.114828233E-2
4.992192409E0,-8.475748822E-3,1.282816008E-2,-1.114828233E-2
4.996947878E0,-9.697478265E-3,2.138026804E-2,-1.114828233E-2
5.001703347E0,-9.086613543E-3,2.871064469E-2,-1.175914705E-2
5.006458763E0,-7.864884101E-3,3.176496923E-2,-1.359174121E-2
5.011214232E0,-4.810560029E-3,3.237583488E-2,-1.603520103E-2
5.015969701E0,-2.367100911E-3,2.993237413E-2,-1.664606482E-2
5.020725117E0,6.872228696E-4,2.687804960E-2,-1.847865991E-2
5.025480586E0,6.872228696E-4,2.382372692E-2,-2.092211880E-2
5.030236055E0,-1.756236190E-3,2.015853859E-2,-2.153298259E-2
5.034991472E0,-6.032289471E-3,1.588248461E-2,-2.153298259E-2
5.039746940E0,-1.153007243E-2,1.343902480E-2,-1.786779426E-2
5.044502409E0,-1.702785492E-2,7.941242307E-3,-1.542433538E-2
5.049257826E0,-2.252563834E-2,3.665188793E-3,-1.298087649E-2
5.054013295E0,-2.680169232E-2,-6.108647794E-4,-9.926552884E-3
5.058768763E0,-2.924515121E-2,-3.665188793E-3,-6.872228812E-3
5.063524180E0,-2.985601686E-2,-5.497782957E-3,-1.985310577E-3
5.068279649E0,-2.680169232E-2,-6.108647678E-3,4.581485991E-4
5.073035117E0,-2.191477455E-2,-7.330377586E-3,1.679878100E-3
5.077790534E0,-1.702785492E-2,-4.886918236E-3,1.069013379E-3
5.082546003E0,-1.275180187E-2,-3.665188793E-3,-7.635809598E-4
5.087301472E0,-1.091920771E-2,-1.832594397E-3,-3.207040019E-3
5.092056888E0,-1.153007243E-2,2.443459118E-3,-6.261364091E-3
5.096812357E0,-1.214093715E-2,7.330377586E-3,-8.093958721E-3
5.101567826E0,-1.458439697E-2,1.343902480E-2,-8.093958721E-3
5.106323242E0,-1.519526169E-2,1.527161989E-2,-9.315688163E-3
5.111078711E0,-1.763872057E-2,1.466075517E-2,-9.315688163E-3
5.115834180E0,-1.886045001E-2,1.221729536E-2,-9.315688163E-3
5.120589597E0,-1.886045001E-2,6.108647678E-3,-8.704823442E-3
5.125345065E0,-1.763872057E-2,-1.221729559E-3,-7.483093534E-3
5.130100534E0,-1.641699113E-2,-8.552107029E-3,-6.872228812E-3
5.134855951E0,-1.458439697E-2,-1.404988952E-2,-7.483093534E-3
5.139611420E0,-1.397353224E-2,-1.649334840E-2,-8.093958721E-3
5.144366888E0,-9.697478265E-3,-1.832594350E-2,-1.053741761E-2
5.149122305E0,-6.032289471E-3,-1.771507785E-2,-1.175914705E-2
5.153877774E0,-1.756236190E-3,-1.588248461E-2,-1.481347065E-2
5.158633242E0,2.519817324E-3,-1.099556591E-2,-1.542433538E-2
5.163388659E0,2.519817324E-3,-6.108647678E-3,-1.664606482E-2
5.168144128E0,2.519817324E-3,-1.832594397E-3,-1.908952370E-2
5.172899597E0,6.872228696E-4,1.221729559E-3,-1.908952370E-2
5.177655013E0,-2.367100911E-3,1.221729559E-3,-1.664606482E-2
5.182410482E0,-6.032289471E-3,-1.221729559E-3,-1.420260593E-2
5.187165951E0,-9.697478265E-3,-6.719512399E-3,-1.298087649E-2
5.191921367E0,-1.336266659E-2,-1.343902480E-2,-8.704823442E-3
5.196676836E0,-1.519526169E-2,-1.832594350E-2,-7.483093534E-3
5.201432305E0,-1.763872057E-2,-2.138026804E-2,-5.650499370E-3
5.206187722E0,-1.886045001E-2,-2.076940238E-2,-5.039634649E-3
5.210943190E0,-1.886045001E-2,-1.710421406E-2,-3.817904973E-3
5.215698659E0,-1.763872057E-2,-1.099556591E-2,-3.207040019E-3
5.220454076E0,-1.336266659E-2,-7.330377586E-3,-1.985310577E-3
5.225209545E0,-6.032289471E-3,-6.719512399E-3,-1.985310577E-3
5.229965013E0,4.352411721E-3,-8.552107029E-3,-2.596175298E-3
5.234720430E0,1.290451828E-2,-1.282816008E-2,-3.817904973E-3
5.239475899E0,1.962403022E-2,-1.588248461E-2,-7.483093534E-3
5.244231367E0,2.390008420E-2,-1.466075517E-2,-9.926552884E-3
5.248986836E0,2.023489587E-2,-1.221729536E-2,-1.359174121E-2
5.253742253E0,1.351538301E-2,-7.941242307E-3,-1.481347065E-2
5.258497722E0,4.963276442E-3,-6.108647794E-4,-1.725693047E-2
5.263253190E0,-5.421424750E-3,6.719512399E-3,-1.847865991E-2
5.268008607E0,-1.580612548E-2,1.282816008E-2,-1.786779426E-2
5.272764076E0,-2.313650399E-2,1.771507785E-2,-1.664606482E-2
5.277519545E0,-2.924515121E-2,2.138026804E-2,-1.481347065E-2
5.282274961E0,-3.168861195E-2,2.443459071E-2,-1.237001177E-2
5.287030430E0,-3.046688065E-2,2.504545636E-2,-1.114828233E-2
5.291785899E0,-2.863428742E-2,2.504545636E-2,-9.315688163E-3
5.296541315E0,-2.496909723E-2,2.565632015E-2,-7.483093534E-3
5.301296784E0,-2.008217946E-2,2.382372692E-2,-8.093958721E-3
5.306052253E0,-1.458439697E-2,2.015853859E-2,-8.093958721E-3
5.310807670E0,-7.864884101E-3,1.404988952E-2,-8.093958721E-3
5.315563138E0,-1.756236190E-3,7.941242307E-3,-8.704823442E-3
5.320318607E0,3.130682046E-3,1.832594397E-3,-9.926552884E-3
5.325074024E0,6.185005885E-3,-6.108647794E-4,-1.114828233E-2
5.329829492E0,3.741546767E-3,3.054323839E-3,-1.175914705E-2
5.334584961E0,-1.145371469E-3,1.160643063E-2,-1.481347065E-2
5.339340378E0,-8.475748822E-3,2.138026804E-2,-1.603520103E-2
5.344095847E0,-1.641699113E-2,3.176496923E-2,-1.664606482E-2
5.348851315E0,-2.496909723E-2,3.848448023E-2,-1.786779426E-2
5.353606732E0,-2.802342176E-2,4.276053607E-2,-1.786779426E-2
5.358362201E0,-3.046688065E-2,4.214967042E-2,-1.908952370E-2
5.363117670E0,-2.985601686E-2,3.848448023E-2,-1.847865991E-2
5.367873138E0,-2.619082667E-2,3.420842811E-2,-1.786779426E-2
5.372628555E0,-2.191477455E-2,2.932151034E-2,-1.786779426E-2
5.377384024E0,-1.641699113E-2,2.565632015E-2,-1.786779426E-2
5.382139492E0,-1.153007243E-2,2.199113183E-2,-1.603520103E-2
5.386894909E0,-6.643154658E-3,1.771507785E-2,-1.542433538E-2
5.391650378E0,-1.756236190E-3,1.404988952E-2,-1.359174121E-2
5.396405847E0,1.908952487E-3,1.099556591E-2,-1.175914705E-2
5.401161263E0,4.963276442E-3,6.719512399E-3,-1.114828233E-2
5.405916732E0,6.185005885E-3,3.054323839E-3,-1.053741761E-2
5.410672201E0,7.406735327E-3,-0.000000000E0,-1.053741761E-2
5.415427670E0,7.406735327E-3,-1.832594397E-3,-9.315688163E-3
5.420183086E0,4.963276442E-3,-0.000000000E0,-9.315688163E-3
5.424938555E0,6.872228696E-4,4.886918236E-3,-8.704823442E-3
5.429694024E0,-1.756236190E-3,1.343902480E-2,-9.315688163E-3
5.434449440E0,-6.643154658E-3,2.260199748E-2,-9.315688163E-3
5.439204909E0,-9.086613543E-3,3.298669681E-2,-9.315688163E-3
5.443960378E0,-1.091920771E-2,4.214967042E-2,-9.926552884E-3
5.448715795E0,-9.086613543E-3,4.703658819E-2,-9.926552884E-3
5.453471263E0,-4.810560029E-3,4.948004708E-2,-9.315688163E-3
5.458226732E0,1.298087649E-3,4.764745384E-2,-8.093958721E-3
5.462982149E0,6.185005885E-3,4.398226365E-2,-8.704823442E-3
5.467737617E0,1.107192412E-2,3.909534588E-2,-8.093958721E-3
5.472493086E0,1.412624773E-2,3.054323979E-2,-6.872228812E-3
5.477248555E0,1.656970754E-2,2.260199748E-2,-6.872228812E-3
5.482003972E0,1.840230078E-2,1.404988952E-2,-5.039634649E-3
5.486759440E0,2.084576152E-2,7.330377586E-3,-3.207040019E-3
5.491514909E0,2.023489587E-2,6.108647794E-4,-7.635809598E-4
5.496270326E0,1.962403022E-2,-3.665188793E-3,2.290742937E-3
5.501025795E0,1.901316643E-2,-6.719512399E-3,6.566796452E-3
5.505781263E0,1.656970754E-2,-9.162971750E-3,1.084284950E-2
5.510536680E0,1.290451828E-2,-1.038470119E-2,1.634063199E-2
5.515292149E0,1.046105940E-2,-1.221729536E-2,2.061668597E-2
5.520047617E0,8.628465235E-3,-1.343902480E-2,2.550360374E-2
5.524803086E0,7.406735327E-3,-1.466075517E-2,2.794706449E-2
5.529558503E0,7.406735327E-3,-1.466075517E-2,2.733619884E-2
5.534313972E0,8.628465235E-3,-1.221729536E-2,2.672533318E-2
5.539069440E0,9.239329956E-3,-4.886918236E-3,2.306014486E-2
5.543824857E0,9.850194678E-3,4.886918236E-3,1.878409274E-2
5.548580326E0,1.168278884E-2,1.710421406E-2,1.450803876E-2
5.553335795E0,9.850194678E-3,2.932151034E-2,9.621120058E-3
5.558091211E0,6.185005885E-3,3.726275265E-2,5.345067009E-3
5.562846680E0,4.963276442E-3,4.276053607E-2,4.123337101E-3
5.567602149E0,3.130682046E-3,4.459312931E-2,2.901607659E-3
5.572357617E0,1.908952487E-3,4.153880477E-2,2.290742937E-3
5.577113034E0,3.130682046E-3,3.726275265E-2,4.734201822E-3
5.581868503E0,5.574141163E-3,2.993237413E-2,4.734201822E-3
5.586623972E0,8.628465235E-3,2.199113183E-2,6.566796452E-3
5.591379388E0,1.412624773E-2,1.588248461E-2,7.177661173E-3
5.596134857E0,1.901316643E-2,1.221729536E-2,9.621120058E-3
5.600890326E0,2.328922041E-2,1.099556591E-2,1.206457894E-2
5.605645742E0,2.512181364E-2,1.221729536E-2,1.389717404E-2
5.610401211E0,2.634354308E-2,1.771507785E-2,1.572976820E-2
5.615156680E0,2.634354308E-2,2.504545636E-2,1.695149764E-2
5.619912149E0,2.634354308E-2,3.359756246E-2,1.817322709E-2
5.624667565E0,2.695440874E-2,4.092793912E-2,2.061668597E-2
5.629423034E0,2.695440874E-2,4.825831577E-2,2.122755162E-2
5.634178503E0,2.512181364E-2,5.558869615E-2,2.306014486E-2
5.638933972E0,2.451094985E-2,6.047561392E-2,2.367101051E-2
5.643689388E0,2.451094985E-2,6.414080411E-2,2.489273995E-2
5.648444857E0,2.267835476E-2,6.536252797E-2,2.489273995E-2
5.653200326E0,2.328922041E-2,6.475166976E-2,2.489273995E-2
5.657955742E0,2.390008420E-2,6.230820715E-2,2.550360374E-2
5.662711211E0,2.390008420E-2,5.986474827E-2,2.550360374E-2
5.667466680E0,2.451094985E-2,5.742128938E-2,2.306014486E-2
5.672222097E0,2.573267929E-2,5.497783050E-2,2.000582218E-2
5.676977565E0,2.756527252E-2,5.131264031E-2,1.939495653E-2
5.681733034E0,2.634354308E-2,4.764745384E-2,1.572976820E-2
5.686488503E0,2.634354308E-2,4.337139800E-2,1.450803876E-2
5.691243920E0,2.695440874E-2,4.031707719E-2,1.267544460E-2
5.695999388E0,2.817613818E-2,3.909534588E-2,1.084284950E-2
5.700754857E0,3.123046272E-2,4.153880477E-2,9.010255337E-3
5.705510274E0,3.367391974E-2,4.825831577E-2,5.345067009E-3
5.710265742E0,3.489565104E-2,5.742128938E-2,2.290742937E-3
5.715021211E0,3.550651670E-2,7.024945319E-2,-7.635809598E-4
5.719776680E0,3.245219216E-2,8.307760954E-2,-3.817904973E-3
5.724532097E0,2.878700197E-2,9.529490769E-2,-6.261364091E-3
5.729287565E0,2.267835476E-2,1.062904745E-1,-9.926552884E-3
5.734043034E0,1.656970754E-2,1.136208475E-1,-1.114828233E-2
5.738798451E0,1.168278884E-2,1.172860414E-1,-1.298087649E-2
5.743553920E0,6.795870606E-3,1.172860414E-1,-1.237001177E-2
5.748309388E0,3.741546767E-3,1.136208475E-1,-1.175914705E-2
5.753064805E0,3.130682046E-3,1.069013327E-1,-8.093958721E-3
5.757820274E0,3.741546767E-3,9.590577334E-2,-3.817904973E-3
5.762575742E0,8.017600514E-3,8.307760954E-2,1.069013379E-3
5.767331211E0,1.290451828E-2,6.902772188E-2,4.123337101E-3
5.772086628E0,1.840230078E-2,5.681042373E-2,7.788525894E-3
5.776842097E0,2.206749097E-2,4.459312931E-2,1.023198478E-2
5.781597565E0,2.695440874E-2,3.665188700E-2,1.145371422E-2
5.786353034E0,3.000873141E-2,3.237583488E-2,1.206457894E-2
5.791108451E0,3.123046272E-2,3.054323979E-2,9.621120058E-3
5.795863920E0,3.184132650E-2,3.298669681E-2,6.566796452E-3
5.800619388E0,3.000873141E-2,3.481929377E-2,4.123337101E-3
5.805374857E0,2.756527252E-2,3.909534588E-2,4.581485991E-4
5.810130274E0,2.512181364E-2,4.214967042E-2,-7.635809598E-4
5.814885742E0,2.328922041E-2,4.459312931E-2,-1.985310577E-3
5.819641211E0,2.084576152E-2,4.337139800E-2,-3.207040019E-3
5.824396628E0,1.840230078E-2,4.031707719E-2,-1.985310577E-3
5.829152097E0,1.718057133E-2,3.481929377E-2,-1.527161949E-4
5.833907565E0,1.779143699E-2,2.871064469E-2,3.512472380E-3
5.838662982E0,1.595884189E-2,2.199113183E-2,6.566796452E-3
5.843418451E0,1.718057133E-2,1.649334840E-2,8.399390616E-3
5.848173920E0,1.901316643E-2,1.221729536E-2,1.023198478E-2
5.852929388E0,2.023489587E-2,7.941242307E-3,1.267544460E-2
5.857684805E0,2.328922041E-2,7.330377586E-3,1.267544460E-2
5.862440274E0,2.756527252E-2,6.719512399E-3,1.023198478E-2
5.867195742E0,3.123046272E-2,7.330377586E-3,7.788525894E-3
5.871951159E0,3.550651670E-2,9.773836471E-3,4.123337101E-3
5.876706628E0,3.856083751E-2,1.282816008E-2,1.069013379E-3
5.881462097E0,3.794997558E-2,1.893680729E-2,-3.817904973E-3
5.886217565E0,3.611737862E-2,2.565632015E-2,-6.872228812E-3
5.890972982E0,2.878700197E-2,3.298669681E-2,-1.053741761E-2
5.895728451E0,2.206749097E-2,4.031707719E-2,-1.175914705E-2
5.900483920E0,1.534797717E-2,4.520399496E-2,-1.298087649E-2
5.905239388E0,9.850194678E-3,4.825831577E-2,-1.114828233E-2
5.909994805E0,6.185005885E-3,5.009091273E-2,-9.315688163E-3
5.914750274E0,4.963276442E-3,4.948004708E-2,-8.093958721E-3
5.919505742E0,7.406735327E-3,4.642572254E-2,-4.428769462E-3
5.924261211E0,1.107192412E-2,4.092793912E-2,-1.985310577E-3
5.929016628E0,1.534797717E-2,3.420842811E-2,1.069013379E-3
5.933772097E0,2.084576152E-2,2.748891525E-2,4.123337101E-3
5.938527565E0,2.573267929E-2,2.015853859E-2,4.734201822E-3
5.943282982E0,2.878700197E-2,1.404988952E-2,7.177661173E-3
5.948038451E0,3.000873141E-2,4.276053514E-3,9.010255337E-3
5.952793920E0,3.245219216E-2,-3.665188793E-3,9.621120058E-3
5.957549388E0,3.306305781E-2,-1.038470119E-2,9.621120058E-3
5.962304805E0,3.306305781E-2,-1.710421406E-2,1.084284950E-2
5.967060274E0,3.184132650E-2,-2.138026804E-2,1.084284950E-2
5.971815742E0,3.000873141E-2,-2.565632015E-2,1.084284950E-2
5.976571159E0,2.512181364E-2,-2.565632015E-2,1.023198478E-2
5.981326628E0,2.084576152E-2,-2.443459071E-2,8.399390616E-3
5.986082097E0,1.718057133E-2,-2.015853859E-2,7.788525894E-3
5.990837565E0,1.290451828E-2,-1.343902480E-2,7.177661173E-3
5.995593034E0,9.239329956E-3,-6.108647678E-3,7.177661173E-3
6.000348451E0,6.185005885E-3,2.443459118E-3,6.566796452E-3
6.005103920E0,4.352411721E-3,1.038470119E-2,4.734201822E-3
6.009859388E0,4.963276442E-3,1.771507785E-2,3.512472380E-3
6.014614857E0,3.130682046E-3,2.260199748E-2,2.290742937E-3
6.019370274E0,4.352411721E-3,2.687804960E-2,-1.527161949E-4
6.024125742E0,4.963276442E-3,2.504545636E-2,-1.374445739E-3
6.028881211E0,8.628465235E-3,2.199113183E-2,-2.596175298E-3
6.033636628E0,1.107192412E-2,1.466075517E-2,-2.596175298E-3
6.038392097E0,1.351538301E-2,4.886918236E-3,-1.374445739E-3
6.043147565E0,1.534797717E-2,-7.330377586E-3,-1.985310577E-3
6.047903034E0,1.779143699E-2,-1.832594350E-2,-1.527161949E-4
6.052658451E0,1.779143699E-2,-2.626718581E-2,1.069013379E-3
6.057413920E0,1.595884189E-2,-3.237583488E-2,2.901607659E-3
6.062169388E0,1.168278884E-2,-3.298669681E-2,4.734201822E-3
6.066924857E0,8.628465235E-3,-3.176496923E-2,6.566796452E-3
6.071680274E0,4.352411721E-3,-2.993237413E-2,7.788525894E-3
6.076435742E0,7.635809743E-5,-2.504545636E-2,9.621120058E-3
6.081191211E0,-2.367100911E-3,-2.138026804E-2,1.267544460E-2
6.085946628E0,-2.977965865E-3,-1.649334840E-2,1.328630932E-2
6.090702097E0,-2.367100911E-3,-1.282816008E-2,1.389717404E-2
6.095457565E0,-1.145371469E-3,-1.099556591E-2,1.389717404E-2
6.100213034E0,2.519817324E-3,-9.162971750E-3,1.511890348E-2
6.104968451E0,6.185005885E-3,-1.282816008E-2,1.511890348E-2
6.109723920E0,8.628465235E-3,-1.771507785E-2,1.572976820E-2
6.114479388E0,9.239329956E-3,-2.321286127E-2,1.511890348E-2
6.119234857E0,8.628465235E-3,-2.809977904E-2,1.511890348E-2
6.123990274E0,6.185005885E-3,-3.298669681E-2,1.572976820E-2
6.128745742E0,3.741546767E-3,-3.481929377E-2,1.634063199E-2
6.133501211E0,7.635809743E-5,-3.481929377E-2,1.511890348E-2
6.138256628E0,-2.367100911E-3,-3.176496923E-2,1.328630932E-2
6.143012097E0,-4.199695308E-3,-2.504545636E-2,1.206457894E-2
6.147767565E0,-4.810560029E-3,-1.649334840E-2,9.621120058E-3
6.152523034E0,-4.810560029E-3,-7.330377586E-3,7.177661173E-3
6.157278451E0,-2.977965865E-3,1.221729559E-3,2.901607659E-3
6.162033920E0,-1.145371469E-3,6.719512399E-3,4.581485991E-4
6.166789388E0,1.298087649E-3,7.941242307E-3,-2.596175298E-3
6.171544857E0,3.741546767E-3,6.719512399E-3,-5.650499370E-3
6.176300274E0,6.795870606E-3,1.832594397E-3,-5.039634649E-3
6.181055742E0,8.628465235E-3,-3.665188793E-3,-6.261364091E-3
6.185811211E0,1.168278884E-2,-1.038470119E-2,-6.872228812E-3
6.190566680E0,1.290451828E-2,-1.527161989E-2,-4.428769462E-3
6.195322097E0,1.351538301E-2,-2.015853859E-2,-2.596175298E-3
6.200077565E0,1.473711245E-2,-2.504545636E-2,4.581485991E-4
6.204833034E0,1.473711245E-2,-2.993237413E-2,2.290742937E-3
6.209588503E0,1.718057133E-2,-3.543015569E-2,4.734201822E-3
6.214343920E0,1.901316643E-2,-3.970621154E-2,6.566796452E-3
6.219099388E0,2.084576152E-2,-4.092793912E-2,9.010255337E-3
6.223854857E0,2.328922041E-2,-3.970621154E-2,9.010255337E-3
6.228610326E0,2.512181364E-2,-3.604102135E-2,7.788525894E-3
6.233365742E0,2.328922041E-2,-2.809977904E-2,6.566796452E-3
6.238121211E0,2.084576152E-2,-2.076940238E-2,5.345067009E-3
6.242876680E0,1.718057133E-2,-1.649334840E-2,3.512472380E-3
6.247632149E0,1.229365356E-2,-1.282816008E-2,1.069013379E-3
6.252387565E0,8.628465235E-3,-1.038470119E-2,-7.635809598E-4
6.257143034E0,5.574141163E-3,-1.038470119E-2,-2.596175298E-3
6.261898503E0,2.519817324E-3,-1.099556591E-2,-3.207040019E-3
6.266653972E0,1.908952487E-3,-1.160643063E-2,-3.207040019E-3
6.271409388E0,2.519817324E-3,-1.466075517E-2,-1.985310577E-3
6.276164857E0,4.963276442E-3,-1.893680729E-2,-1.527161949E-4
6.280920326E0,9.850194678E-3,-2.443459071E-2,1.679878100E-3
6.285675795E0,1.473711245E-2,-3.054323979E-2,2.901607659E-3
6.290431211E0,1.962403022E-2,-3.604102135E-2,2.901607659E-3
6.295186680E0,2.267835476E-2,-4.031707719E-2,4.123337101E-3
6.299942149E0,2.451094985E-2,-4.031707719E-2,4.123337101E-3
6.304697617E0,2.267835476E-2,-3.787361458E-2,4.123337101E-3
6.309453034E0,1.840230078E-2,-3.359756246E-2,5.345067009E-3
6.314208503E0,1.290451828E-2,-2.809977904E-2,5.345067009E-3
6.318963972E0,8.017600514E-3,-2.076940238E-2,5.955931731E-3
6.323719388E0,2.519817324E-3,-1.221729536E-2,5.955931731E-3
6.328474857E0,7.635809743E-5,-3.665188793E-3,4.734201822E-3
6.333230326E0,-1.756236190E-3,4.276053514E-3,4.123337101E-3
6.337985795E0,-3.588830587E-3,1.099556591E-2,3.512472380E-3
6.342741263E0,-3.588830587E-3,1.404988952E-2,2.901607659E-3
6.347496680E0,-2.367100911E-3,1.466075517E-2,2.290742937E-3
6.352252149E0,-1.145371469E-3,9.773836471E-3,2.901607659E-3
6.357007617E0,1.298087649E-3,2.443459118E-3,2.901607659E-3
6.361763034E0,4.352411721E-3,-7.941242307E-3,3.512472380E-3
6.366518503E0,8.017600514E-3,-1.771507785E-2,4.123337101E-3
6.371273972E0,1.229365356E-2,-2.443459071E-2,6.566796452E-3
6.376029440E0,1.351538301E-2,-2.871064469E-2,7.788525894E-3
6.380784857E0,1.534797717E-2,-2.932151034E-2,9.010255337E-3
6.385540326E0,1.534797717E-2,-2.687804960E-2,1.023198478E-2
6.390295795E0,1.290451828E-2,-2.382372692E-2,9.621120058E-3
6.395051263E0,1.168278884E-2,-1.832594350E-2,8.399390616E-3
6.399806732E0,7.406735327E-3,-1.527161989E-2,7.177661173E-3
6.404562149E0,3.741546767E-3,-9.773836471E-3,7.177661173E-3
6.409317617E0,1.908952487E-3,-4.276053514E-3,5.955931731E-3
6.414073086E0,6.872228696E-4,1.221729559E-3,6.566796452E-3
6.418828555E0,7.635809743E-5,6.108647678E-3,6.566796452E-3
6.423583972E0,1.908952487E-3,9.773836471E-3,5.955931731E-3
6.428339440E0,1.908952487E-3,1.160643063E-2,7.177661173E-3
6.433094909E0,3.130682046E-3,1.038470119E-2,8.399390616E-3
6.437850378E0,4.352411721E-3,9.773836471E-3,9.010255337E-3
6.442605795E0,3.741546767E-3,7.330377586E-3,9.010255337E-3
6.447361263E0,3.741546767E-3,6.108647678E-3,9.621120058E-3
6.452116732E0,3.741546767E-3,3.665188793E-3,1.023198478E-2
6.456872201E0,4.352411721E-3,1.832594397E-3,9.010255337E-3
6.461627617E0,4.963276442E-3,-6.108647794E-4,9.010255337E-3
6.466383086E0,6.795870606E-3,-1.832594397E-3,9.621120058E-3
6.471138555E0,8.017600514E-3,-1.832594397E-3,8.399390616E-3
6.475894024E0,8.628465235E-3,-1.832594397E-3,7.177661173E-3
6.480649440E0,6.185005885E-3,-0.000000000E0,6.566796452E-3
6.485404909E0,2.519817324E-3,3.054323839E-3,5.345067009E-3
6.490160378E0,-3.588830587E-3,5.497782957E-3,5.955931731E-3
6.494915847E0,-6.643154658E-3,7.941242307E-3,6.566796452E-3
6.499671263E0,-1.030834299E-2,9.162971750E-3,7.177661173E-3
6.504426732E0,-9.697478265E-3,7.941242307E-3,7.788525894E-3
6.509182201E0,-6.643154658E-3,6.108647678E-3,8.399390616E-3
6.513937670E0,-2.367100911E-3,6.719512399E-3,7.177661173E-3
6.518693138E0,3.130682046E-3,7.941242307E-3,6.566796452E-3
6.523448555E0,9.239329956E-3,9.773836471E-3,4.123337101E-3
6.528204024E0,1.351538301E-2,1.221729536E-2,2.901607659E-3
6.532959492E0,1.595884189E-2,1.466075517E-2,4.581485991E-4
6.537714961E0,1.779143699E-2,1.649334840E-2,-1.985310577E-3
6.542470378E0,1.718057133E-2,1.832594350E-2,-3.817904973E-3
6.547225847E0,1.534797717E-2,2.076940238E-2,-6.261364091E-3
6.551981315E0,1.229365356E-2,2.199113183E-2,-7.483093534E-3
6.556736784E0,9.239329956E-3,2.321286127E-2,-7.483093534E-3
6.561492201E0,8.628465235E-3,2.260199748E-2,-5.650499370E-3
6.566247670E0,9.239329956E-3,1.954767294E-2,-5.039634649E-3
6.571003138E0,1.046105940E-2,1.527161989E-2,-4.428769462E-3
6.575758607E0,1.534797717E-2,9.162971750E-3,-2.596175298E-3
6.580514024E0,1.840230078E-2,1.832594397E-3,-1.527161949E-4
6.585269492E0,2.145662531E-2,-5.497782957E-3,1.069013379E-3
6.590024961E0,2.145662531E-2,-1.221729536E-2,1.679878100E-3
6.594780430E0,1.840230078E-2,-1.771507785E-2,3.512472380E-3
6.599535847E0,1.534797717E-2,-2.076940238E-2,3.512472380E-3
6.604291315E0,1.229365356E-2,-1.954767294E-2,4.734201822E-3
6.609046784E0,9.850194678E-3,-1.649334840E-2,5.345067009E-3
6.613802253E0,9.850194678E-3,-1.038470119E-2,5.955931731E-3
6.618557722E0,9.850194678E-3,-1.832594397E-3,5.345067009E-3
6.623313138E0,9.850194678E-3,6.719512399E-3,3.512472380E-3
6.628068607E0,1.168278884E-2,1.710421406E-2,1.679878100E-3
6.632824076E0,1.229365356E-2,2.504545636E-2,-1.527161949E-4
6.637579545E0,1.107192412E-2,3.115410358E-2,-3.817904973E-3
6.642334961E0,9.850194678E-3,3.481929377E-2,-6.872228812E-3
6.647090430E0,7.406735327E-3,3.787361458E-2,-9.926552884E-3
6.651845899E0,2.519817324E-3,4.092793912E-2,-1.298087649E-2
6.656601367E0,-1.756236190E-3,4.459312931E-2,-1.359174121E-2
6.661356784E0,-7.254019380E-3,5.009091273E-2,-1.359174121E-2
6.666112253E0,-1.030834299E-2,5.619955808E-2,-1.175914705E-2
6.670867722E0,-1.275180187E-2,6.169734150E-2,-1.237001177E-2
6.675623190E0,-1.275180187E-2,6.414080411E-2,-9.315688163E-3
6.680378659E0,-9.086613543E-3,6.169734150E-2,-8.704823442E-3
6.685134076E0,-2.367100911E-3,5.497783050E-2,-7.483093534E-3
6.689889545E0,6.795870606E-3,4.337139800E-2,-6.261364091E-3
6.694645013E0,1.779143699E-2,2.871064469E-2,-5.039634649E-3
6.699400482E0,3.061959706E-2,1.282816008E-2,-3.817904973E-3
6.704155899E0,4.161516204E-2,-3.665188793E-3,-2.596175298E-3
6.708911367E0,5.077813566E-2,-2.076940238E-2,-7.635809598E-4
6.713666836E0,5.688678101E-2,-3.481929377E-2,-1.985310577E-3
6.718422305E0,5.994110554E-2,-4.703658819E-2,-1.985310577E-3
6.723177722E0,5.994110554E-2,-5.742128938E-2,-1.374445739E-3
6.727933190E0,5.566505343E-2,-6.352993846E-2,-7.635809598E-4
6.732688659E0,4.955640435E-2,-6.780599058E-2,-1.527161949E-4
6.737444128E0,4.283689335E-2,-6.719512492E-2,-1.527161949E-4
6.742199597E0,3.428478539E-2,-6.230820715E-2,-1.374445739E-3
6.746955013E0,2.451094985E-2,-5.497783050E-2,-4.428769462E-3
6.751710482E0,1.473711245E-2,-4.703658819E-2,-6.261364091E-3
6.756465951E0,4.963276442E-3,-3.665188700E-2,-9.315688163E-3
6.761221420E0,-4.810560029E-3,-2.565632015E-2,-1.298087649E-2
6.765976888E0,-1.336266659E-2,-1.527161989E-2,-1.359174121E-2
6.770732305E0,-2.130390890E-2,-6.719512399E-3,-1.420260593E-2
6.775487774E0,-2.985601686E-2,1.832594397E-3,-1.359174121E-2
6.780243242E0,-3.657552972E-2,9.773836471E-3,-9.315688163E-3
6.784998711E0,-4.329504073E-2,1.649334840E-2,-5.650499370E-3
6.789754128E0,-4.818195850E-2,1.771507785E-2,-3.207040019E-3
6.794509597E0,-4.940368980E-2,1.771507785E-2,-1.985310577E-3
6.799265065E0,-4.940368980E-2,1.466075517E-2,-7.635809598E-4
6.804020534E0,-4.940368980E-2,1.038470119E-2,1.069013379E-3
6.808775951E0,-4.696023092E-2,9.162971750E-3,1.679878100E-3
6.813531420E0,-4.512763396E-2,1.038470119E-2,2.290742937E-3
6.818286888E0,-4.207331315E-2,1.466075517E-2,4.123337101E-3
6.823042357E0,-3.779725730E-2,2.015853859E-2,3.512472380E-3
6.827797826E0,-3.291033953E-2,2.443459071E-2,3.512472380E-3
6.832553242E0,-2.557996288E-2,2.626718581E-2,2.290742937E-3
6.837308711E0,-1.947131567E-2,2.626718581E-2,1.069013379E-3
6.842064180E0,-1.397353224E-2,2.504545636E-2,1.069013379E-3
6.846819649E0,-1.214093715E-2,2.076940238E-2,4.581485991E-4
6.851575065E0,-1.214093715E-2,1.466075517E-2,1.679878100E-3
6.856330534E0,-1.214093715E-2,7.941242307E-3,1.679878100E-3
6.861086003E0,-1.153007243E-2,6.108647794E-4,2.290742937E-3
6.865841472E0,-9.697478265E-3,-6.108647678E-3,1.679878100E-3
6.870596940E0,-6.032289471E-3,-1.282816008E-2,4.123337101E-3
6.875352357E0,7.635809743E-5,-1.771507785E-2,4.734201822E-3
6.880107826E0,5.574141163E-3,-2.443459071E-2,5.955931731E-3
6.884863295E0,1.168278884E-2,-3.054323979E-2,7.788525894E-3
6.889618763E0,1.656970754E-2,-3.604102135E-2,8.399390616E-3
6.894374180E0,1.962403022E-2,-4.153880477E-2,1.023198478E-2
6.899129649E0,2.084576152E-2,-4.825831577E-2,1.267544460E-2
6.903885117E0,2.023489587E-2,-5.497783050E-2,1.450803876E-2
6.908640586E0,1.718057133E-2,-6.047561392E-2,1.450803876E-2
6.913396055E0,1.351538301E-2,-6.475166976E-2,1.389717404E-2
6.918151472E0,9.239329956E-3,-6.597339362E-2,1.206457894E-2
6.922906940E0,3.741546767E-3,-6.230820715E-2,9.010255337E-3
6.927662409E0,-1.145371469E-3,-5.375609919E-2,5.345067009E-3
6.932417878E0,-6.032289471E-3,-4.092793912E-2,1.069013379E-3
6.937173295E0,-1.030834299E-2,-2.504545636E-2,-5.039634649E-3
6.941928763E0,-1.519526169E-2,-5.497782957E-3,-8.093958721E-3
6.946684232E0,-1.886045001E-2,1.099556591E-2,-1.237001177E-2
6.951439701E0,-2.191477455E-2,2.382372692E-2,-1.664606482E-2
6.956195170E0,-2.496909723E-2,3.176496923E-2,-1.847865991E-2
6.960950586E0,-2.741255611E-2,3.604102135E-2,-1.908952370E-2
6.965706055E0,-2.924515121E-2,3.604102135E-2,-2.031125315E-2
6.970461524E0,-3.046688065E-2,3.298669681E-2,-1.970038936E-2
6.975216992E0,-3.352120519E-2,2.932151034E-2,-1.847865991E-2
6.979972409E0,-3.535379842E-2,2.382372692E-2,-1.542433538E-2
6.984727878E0,-3.535379842E-2,1.527161989E-2,-1.237001177E-2
6.989483347E0,-3.413207084E-2,6.719512399E-3,-9.926552884E-3
6.994238815E0,-3.107774630E-2,-3.054323839E-3,-7.483093534E-3
6.998994284E0,-2.680169232E-2,-9.162971750E-3,-3.817904973E-3
7.003749701E0,-2.313650399E-2,-1.221729536E-2,-1.374445739E-3
7.008505170E0,-2.252563834E-2,-1.160643063E-2,2.290742937E-3
7.013260638E0,-2.008217946E-2,-8.552107029E-3,1.069013379E-3
7.018016107E0,-2.008217946E-2,-1.832594397E-3,1.069013379E-3
7.022771576E0,-2.008217946E-2,7.330377586E-3,1.069013379E-3
7.027526992E0,-2.008217946E-2,1.649334840E-2,1.069013379E-3
7.032282461E0,-1.947131567E-2,2.260199748E-2,2.901607659E-3
7.037037930E0,-1.702785492E-2,2.443459071E-2,4.734201822E-3
7.041793399E0,-1.336266659E-2,2.138026804E-2,5.955931731E-3
7.046548815E0,-7.864884101E-3,1.282816008E-2,5.345067009E-3
7.051304284E0,-1.756236190E-3,2.443459118E-3,4.734201822E-3
7.056059753E0,4.963276442E-3,-9.162971750E-3,4.123337101E-3
7.060815222E0,1.168278884E-2,-1.832594350E-2,2.901607659E-3
7.065570690E0,1.412624773E-2,-2.443459071E-2,4.123337101E-3
7.070326107E0,1.534797717E-2,-2.565632015E-2,4.734201822E-3
7.075081576E0,1.534797717E-2,-2.382372692E-2,5.345067009E-3
7.079837045E0,1.351538301E-2,-1.893680729E-2,4.734201822E-3
7.084592513E0,9.850194678E-3,-1.160643063E-2,4.123337101E-3
7.089347930E0,7.406735327E-3,-4.276053514E-3,2.901607659E-3
7.094103399E0,3.741546767E-3,3.665188793E-3,1.069013379E-3
7.098858867E0,7.635809743E-5,9.162971750E-3,-1.374445739E-3
7.103614336E0,-3.588830587E-3,1.588248461E-2,-3.817904973E-3
7.108369805E0,-4.810560029E-3,2.015853859E-2,-5.650499370E-3
7.113125222E0,-7.254019380E-3,2.321286127E-2,-7.483093534E-3
7.117880690E0,-8.475748822E-3,2.260199748E-2,-9.315688163E-3
7.122636159E0,-1.214093715E-2,2.015853859E-2,-1.053741761E-2
7.127391628E0,-1.336266659E-2,1.649334840E-2,-1.053741761E-2
7.132147045E0,-1.763872057E-2,1.466075517E-2,-1.114828233E-2
7.136902513E0,-2.069304511E-2,1.282816008E-2,-1.114828233E-2
7.141657982E0,-2.619082667E-2,1.343902480E-2,-1.114828233E-2
7.146413451E0,-2.863428742E-2,1.649334840E-2,-9.926552884E-3
7.151168920E0,-3.107774630E-2,1.832594350E-2,-1.053741761E-2
7.155924388E0,-3.229947388E-2,2.076940238E-2,-9.315688163E-3
7.160679805E0,-3.168861195E-2,2.260199748E-2,-1.053741761E-2
7.165435274E0,-2.985601686E-2,2.382372692E-2,-1.053741761E-2
7.170190742E0,-2.863428742E-2,2.260199748E-2,-1.175914705E-2
7.174946211E0,-2.557996288E-2,1.954767294E-2,-1.298087649E-2
7.179701628E0,-2.313650399E-2,1.649334840E-2,-1.420260593E-2
7.184457097E0,-2.191477455E-2,1.466075517E-2,-1.359174121E-2
7.189212565E0,-2.008217946E-2,1.282816008E-2,-1.237001177E-2
7.193968034E0,-1.947131567E-2,1.099556591E-2,-1.114828233E-2
7.198723503E0,-2.008217946E-2,1.038470119E-2,-9.315688163E-3
7.203478920E0,-1.947131567E-2,9.773836471E-3,-8.093958721E-3
7.208234388E0,-1.947131567E-2,7.330377586E-3,-6.261364091E-3
7.212989857E0,-1.824958436E-2,7.941242307E-3,-4.428769462E-3
7.217745326E0,-1.824958436E-2,8.552107029E-3,-3.817904973E-3
7.222500742E0,-1.947131567E-2,1.160643063E-2,-2.596175298E-3
7.227256211E0,-1.947131567E-2,1.649334840E-2,-3.207040019E-3
7.232011680E0,-2.008217946E-2,2.260199748E-2,-3.817904973E-3
7.236767149E0,-2.008217946E-2,2.626718581E-2,-3.817904973E-3
7.241522617E0,-1.947131567E-2,2.932151034E-2,-2.596175298E-3
7.246278034E0,-1.702785492E-2,3.054323979E-2,-7.635809598E-4
7.251033503E0,-1.397353224E-2,2.871064469E-2,-1.527161949E-4
7.255788972E0,-1.030834299E-2,2.504545636E-2,1.679878100E-3
7.260544440E0,-6.643154658E-3,2.138026804E-2,3.512472380E-3
7.265299909E0,-4.199695308E-3,1.954767294E-2,2.901607659E-3
7.270055326E0,-1.145371469E-3,1.832594350E-2,2.290742937E-3
7.274810795E0,1.908952487E-3,1.649334840E-2,4.581485991E-4
7.279566263E0,2.519817324E-3,1.649334840E-2,-1.374445739E-3
7.284321732E0,4.352411721E-3,1.649334840E-2,-3.817904973E-3
7.289077149E0,4.352411721E-3,1.832594350E-2,-5.650499370E-3
7.293832617E0,3.741546767E-3,2.076940238E-2,-8.704823442E-3
7.298588086E0,3.130682046E-3,2.321286127E-2,-1.237001177E-2
7.303343555E0,1.908952487E-3,2.809977904E-2,-1.420260593E-2
7.308099024E0,-5.345066893E-4,3.298669681E-2,-1.664606482E-2
7.312854440E0,-5.345066893E-4,3.848448023E-2,-1.908952370E-2
7.317609909E0,-1.145371469E-3,4.459312931E-2,-2.153298259E-2
7.322365378E0,-1.756236190E-3,4.886918142E-2,-2.275471389E-2
7.327120847E0,-1.756236190E-3,5.192350596E-2,-2.275471389E-2
7.331876315E0,-3.588830587E-3,5.497783050E-2,-2.214384824E-2
7.336631732E0,-3.588830587E-3,5.497783050E-2,-2.031125315E-2
7.341387201E0,-5.421424750E-3,5.314523727E-2,-1.908952370E-2
7.346142670E0,-6.032289471E-3,4.948004708E-2,-1.786779426E-2
7.350898138E0,-6.032289471E-3,4.520399496E-2,-1.603520103E-2
7.355653607E0,-6.643154658E-3,4.092793912E-2,-1.603520103E-2
7.360409024E0,-8.475748822E-3,3.726275265E-2,-1.542433538E-2
7.365164492E0,-9.697478265E-3,3.359756246E-2,-1.481347065E-2
7.369919961E0,-1.091920771E-2,3.298669681E-2,-1.542433538E-2
7.374675430E0,-1.397353224E-2,3.359756246E-2,-1.420260593E-2
7.379430847E0,-1.824958436E-2,3.481929377E-2,-1.359174121E-2
7.384186315E0,-2.069304511E-2,3.726275265E-2,-1.298087649E-2
7.388941784E0,-2.130390890E-2,3.909534588E-2,-1.237001177E-2
7.393697253E0,-2.130390890E-2,3.848448023E-2,-1.053741761E-2
7.398452722E0,-1.886045001E-2,3.909534588E-2,-9.315688163E-3
7.403208138E0,-1.641699113E-2,3.604102135E-2,-8.093958721E-3
7.407963607E0,-1.458439697E-2,3.359756246E-2,-6.872228812E-3
7.412719076E0,-1.153007243E-2,3.176496923E-2,-8.704823442E-3
7.417474545E0,-1.153007243E-2,3.237583488E-2,-9.315688163E-3
7.422229961E0,-1.336266659E-2,3.481929377E-2,-1.053741761E-2
7.426985430E0,-1.519526169E-2,3.787361458E-2,-1.175914705E-2
7.431740899E0,-1.702785492E-2,4.031707719E-2,-1.237001177E-2
7.436496367E0,-1.702785492E-2,4.276053607E-2,-1.359174121E-2
7.441251836E0,-1.702785492E-2,4.520399496E-2,-1.420260593E-2
7.446007253E0,-1.580612548E-2,4.703658819E-2,-1.603520103E-2
7.450762722E0,-1.458439697E-2,4.825831577E-2,-1.725693047E-2
7.455518190E0,-1.336266659E-2,4.886918142E-2,-1.847865991E-2
7.460273659E0,-1.153007243E-2,5.009091273E-2,-1.908952370E-2
7.465029128E0,-9.697478265E-3,5.131264031E-2,-1.908952370E-2
7.469784545E0,-7.864884101E-3,4.948004708E-2,-1.847865991E-2
7.474540013E0,-4.199695308E-3,4.520399496E-2,-1.908952370E-2
7.479295482E0,-1.145371469E-3,3.970621154E-2,-1.970038936E-2
7.484050951E0,2.519817324E-3,3.420842811E-2,-1.847865991E-2
7.488806367E0,5.574141163E-3,2.932151034E-2,-1.786779426E-2
7.493561836E0,6.795870606E-3,2.443459071E-2,-1.664606482E-2
7.498317305E0,8.017600514E-3,2.199113183E-2,-1.725693047E-2
7.503072774E0,7.406735327E-3,1.954767294E-2,-1.664606482E-2
7.507828242E0,5.574141163E-3,1.954767294E-2,-1.725693047E-2
7.512583659E0,1.298087649E-3,2.015853859E-2,-1.725693047E-2
7.517339128E0,-2.977965865E-3,2.076940238E-2,-1.725693047E-2
7.522094597E0,-7.864884101E-3,2.382372692E-2,-1.786779426E-2
7.526850065E0,-1.091920771E-2,2.504545636E-2,-1.786779426E-2
7.531605534E0,-1.336266659E-2,2.687804960E-2,-1.908952370E-2
7.536360951E0,-1.580612548E-2,2.687804960E-2,-1.908952370E-2
7.541116420E0,-1.824958436E-2,2.687804960E-2,-1.847865991E-2
7.545871888E0,-1.886045001E-2,2.565632015E-2,-1.725693047E-2
7.550627357E0,-2.008217946E-2,2.443459071E-2,-1.725693047E-2
7.555382826E0,-2.008217946E-2,2.321286127E-2,-1.542433538E-2
7.560138242E0,-2.008217946E-2,1.832594350E-2,-1.175914705E-2
7.564893711E0,-1.824958436E-2,1.343902480E-2,-1.053741761E-2
7.569649180E0,-1.580612548E-2,6.719512399E-3,-8.704823442E-3
7.574404649E0,-1.214093715E-2,-6.108647794E-4,-6.872228812E-3
7.579160065E0,-8.475748822E-3,-6.108647678E-3,-5.039634649E-3
7.583915534E0,-6.032289471E-3,-1.160643063E-2,-5.650499370E-3
7.588671003E0,-3.588830587E-3,-1.771507785E-2,-6.872228812E-3
7.593426472E0,-2.367100911E-3,-2.138026804E-2,-7.483093534E-3
7.598181888E0,-1.756236190E-3,-2.321286127E-2,-8.704823442E-3
7.602937357E0,-4.199695308E-3,-2.321286127E-2,-1.114828233E-2
7.607692826E0,-7.254019380E-3,-2.138026804E-2,-1.237001177E-2
7.612448295E0,-1.153007243E-2,-1.832594350E-2,-1.481347065E-2
7.617203763E0,-1.580612548E-2,-1.404988952E-2,-1.664606482E-2
7.621959180E0,-1.947131567E-2,-9.773836471E-3,-1.847865991E-2
7.626714649E0,-2.313650399E-2,-4.886918236E-3,-1.908952370E-2
7.631470117E0,-2.496909723E-2,-2.443459118E-3,-1.908952370E-2
7.636225586E0,-2.435823344E-2,-1.832594397E-3,-1.908952370E-2
7.640981003E0,-2.252563834E-2,-3.054323839E-3,-1.786779426E-2
7.645736472E0,-1.824958436E-2,-6.108647678E-3,-1.542433538E-2
7.650491940E0,-1.336266659E-2,-7.941242307E-3,-1.481347065E-2
7.655247409E0,-9.697478265E-3,-1.282816008E-2,-1.542433538E-2
7.660002878E0,-6.643154658E-3,-1.649334840E-2,-1.420260593E-2
7.664758295E0,-4.810560029E-3,-1.893680729E-2,-1.359174121E-2
7.669513763E0,-1.756236190E-3,-2.015853859E-2,-1.359174121E-2
7.674269232E0,-2.977965865E-3,-2.076940238E-2,-1.298087649E-2
7.679024701E0,-3.588830587E-3,-1.954767294E-2,-1.175914705E-2
7.683780117E0,-3.588830587E-3,-1.893680729E-2,-1.114828233E-2
7.688535586E0,-2.367100911E-3,-2.015853859E-2,-9.926552884E-3
7.693291055E0,-1.756236190E-3,-2.138026804E-2,-9.926552884E-3
7.698046524E0,1.908952487E-3,-2.565632015E-2,-9.315688163E-3
7.702801992E0,4.352411721E-3,-3.176496923E-2,-8.704823442E-3
7.707557409E0,6.795870606E-3,-3.970621154E-2,-8.093958721E-3
7.712312878E0,8.628465235E-3,-4.886918142E-2,-8.704823442E-3
7.717068347E0,9.850194678E-3,-5.558869615E-2,-8.704823442E-3
7.721823815E0,8.628465235E-3,-6.047561392E-2,-7.483093534E-3
7.726579232E0,6.185005885E-3,-6.169734150E-2,-6.872228812E-3
7.731334701E0,2.519817324E-3,-6.108647957E-2,-5.650499370E-3
7.736090170E0,-1.145371469E-3,-5.864302069E-2,-6.261364091E-3
7.740845638E0,-4.199695308E-3,-5.558869615E-2,-6.872228812E-3
7.745601107E0,-4.199695308E-3,-5.314523727E-2,-8.093958721E-3
7.750356524E0,-4.199695308E-3,-5.009091273E-2,-9.315688163E-3
7.755111992E0,-4.199695308E-3,-4.581485689E-2,-1.237001177E-2
7.759867461E0,-5.421424750E-3,-4.092793912E-2,-1.542433538E-2
7.764622930E0,-8.475748822E-3,-3.298669681E-2,-1.786779426E-2
7.769378399E0,-1.091920771E-2,-2.687804960E-2,-2.031125315E-2
7.774133815E0,-1.580612548E-2,-2.076940238E-2,-1.970038936E-2
7.778889284E0,-1.886045001E-2,-1.649334840E-2,-1.908952370E-2
7.783644753E0,-2.130390890E-2,-1.527161989E-2,-2.031125315E-2
7.788400222E0,-2.313650399E-2,-1.527161989E-2,-1.908952370E-2
7.793155638E0,-2.313650399E-2,-2.076940238E-2,-1.908952370E-2
7.797911107E0,-2.069304511E-2,-2.565632015E-2,-1.786779426E-2
7.802666576E0,-1.824958436E-2,-3.115410358E-2,-1.664606482E-2
7.807422045E0,-1.519526169E-2,-3.787361458E-2,-1.542433538E-2
7.812177513E0,-1.275180187E-2,-4.337139800E-2,-1.420260593E-2
7.816932930E0,-1.153007243E-2,-4.948004708E-2,-1.359174121E-2
7.821688399E0,-1.153007243E-2,-5.375609919E-2,-1.053741761E-2
7.826443867E0,-1.214093715E-2,-5.742128938E-2,-8.704823442E-3
7.831199336E0,-1.275180187E-2,-5.925388262E-2,-7.483093534E-3
7.835954753E0,-1.458439697E-2,-6.047561392E-2,-5.039634649E-3
7.840710222E0,-1.641699113E-2,-6.047561392E-2,-3.817904973E-3
7.845465690E0,-2.008217946E-2,-5.986474827E-2,-3.207040019E-3
7.850221159E0,-2.069304511E-2,-5.681042373E-2,-1.985310577E-3
7.854976576E0,-2.374736778E-2,-5.497783050E-2,-1.527161949E-4
7.859732045E0,-2.741255611E-2,-5.253437161E-2,4.581485991E-4
7.864487513E0,-2.863428742E-2,-5.070177838E-2,1.069013379E-3
7.869242982E0,-2.924515121E-2,-4.825831577E-2,1.679878100E-3
7.873998451E0,-2.863428742E-2,-4.581485689E-2,2.290742937E-3
7.878753867E0,-2.619082667E-2,-4.337139800E-2,1.679878100E-3
7.883509336E0,-2.313650399E-2,-3.970621154E-2,1.069013379E-3
7.888264805E0,-1.763872057E-2,-3.726275265E-2,-7.635809598E-4
7.893020222E0,-1.153007243E-2,-3.359756246E-2,-2.596175298E-3
7.897775690E0,-6.643154658E-3,-3.420842811E-2,-3.817904973E-3
7.902531159E0,-2.977965865E-3,-3.298669681E-2,-6.872228812E-3
7.907286628E0,-1.756236190E-3,-3.420842811E-2,-9.926552884E-3
7.912042097E0,-1.756236190E-3,-3.543015569E-2,-1.420260593E-2
7.916797513E0,-3.588830587E-3,-3.543015569E-2,-1.725693047E-2
7.921552982E0,-6.643154658E-3,-3.481929377E-2,-2.031125315E-2
7.926308451E0,-1.030834299E-2,-3.237583488E-2,-2.092211880E-2
7.931063920E0,-1.458439697E-2,-2.871064469E-2,-2.092211880E-2
7.935819388E0,-1.886045001E-2,-2.382372692E-2,-1.908952370E-2
7.940574805E0,-1.886045001E-2,-2.138026804E-2,-1.664606482E-2
7.945330274E0,-1.763872057E-2,-1.893680729E-2,-1.359174121E-2
7.950085742E0,-1.458439697E-2,-2.076940238E-2,-1.298087649E-2
7.954841211E0,-1.091920771E-2,-2.382372692E-2,-1.114828233E-2
7.959596628E0,-7.254019380E-3,-2.748891525E-2,-9.926552884E-3
7.964352097E0,-3.588830587E-3,-3.298669681E-2,-9.315688163E-3
7.969107565E0,-1.145371469E-3,-3.665188700E-2,-9.315688163E-3
7.973863034E0,1.908952487E-3,-3.909534588E-2,-9.315688163E-3
7.978618451E0,3.741546767E-3,-4.153880477E-2,-1.053741761E-2
7.983373920E0,4.352411721E-3,-4.459312931E-2,-1.053741761E-2
7.988129388E0,4.352411721E-3,-4.703658819E-2,-1.175914705E-2
7.992884857E0,1.908952487E-3,-4.581485689E-2,-1.053741761E-2
7.997640274E0,-2.977965865E-3,-4.398226365E-2,-1.114828233E-2
8.002395742E0,-8.475748822E-3,-4.092793912E-2,-9.926552884E-3
8.007151211E0,-1.519526169E-2,-3.787361458E-2,-7.483093534E-3
8.011906680E0,-2.008217946E-2,-3.298669681E-2,-6.261364091E-3
8.016662097E0,-2.496909723E-2,-2.932151034E-2,-4.428769462E-3
8.021417565E0,-2.680169232E-2,-2.504545636E-2,-3.817904973E-3
8.026173034E0,-2.863428742E-2,-2.199113183E-2,-2.596175298E-3
8.030928503E0,-2.802342176E-2,-1.893680729E-2,-1.374445739E-3
8.035683920E0,-2.557996288E-2,-1.832594350E-2,-1.374445739E-3
8.040439388E0,-2.313650399E-2,-1.771507785E-2,-1.374445739E-3
8.045194857E0,-1.947131567E-2,-1.832594350E-2,-2.596175298E-3
8.049950326E0,-1.641699113E-2,-1.771507785E-2,-3.207040019E-3
8.054705742E0,-1.336266659E-2,-1.832594350E-2,-5.039634649E-3
8.059461211E0,-1.030834299E-2,-1.893680729E-2,-6.261364091E-3
8.064216680E0,-8.475748822E-3,-2.015853859E-2,-8.093958721E-3
8.068972149E0,-6.032289471E-3,-2.076940238E-2,-1.053741761E-2
8.073727617E0,-4.810560029E-3,-2.260199748E-2,-1.237001177E-2
8.078483034E0,-4.810560029E-3,-2.321286127E-2,-1.298087649E-2
8.083238503E0,-6.032289471E-3,-2.199113183E-2,-1.542433538E-2
8.087993972E0,-9.086613543E-3,-2.015853859E-2,-1.481347065E-2
8.092749440E0,-1.336266659E-2,-1.832594350E-2,-1.298087649E-2
8.097504857E0,-1.702785492E-2,-1.588248461E-2,-1.175914705E-2
8.102260326E0,-1.947131567E-2,-1.343902480E-2,-8.704823442E-3
8.107015795E0,-2.130390890E-2,-9.773836471E-3,-6.872228812E-3
8.111771263E0,-2.191477455E-2,-6.719512399E-3,-5.650499370E-3
8.116526680E0,-2.008217946E-2,-3.054323839E-3,-3.817904973E-3
8.121282149E0,-1.702785492E-2,6.108647794E-4,-1.985310577E-3
8.126037617E0,-1.397353224E-2,2.443459118E-3,-1.374445739E-3
8.130793086E0,-9.086613543E-3,4.276053514E-3,-1.374445739E-3
8.135548555E0,-4.810560029E-3,3.665188793E-3,-1.374445739E-3
8.140303972E0,-2.367100911E-3,1.832594397E-3,-7.635809598E-4
8.145059440E0,-1.145371469E-3,1.221729559E-3,-7.635809598E-4
8.149814909E0,-1.145371469E-3,-6.108647794E-4,-7.635809598E-4
8.154570326E0,-1.756236190E-3,-2.443459118E-3,-1.985310577E-3
8.159325795E0,-1.756236190E-3,-4.276053514E-3,-3.207040019E-3
8.164081263E0,-2.367100911E-3,-6.719512399E-3,-4.428769462E-3
8.168836732E0,-2.977965865E-3,-7.941242307E-3,-5.650499370E-3
8.173592201E0,-2.977965865E-3,-7.941242307E-3,-7.483093534E-3
8.178347617E0,-4.199695308E-3,-6.719512399E-3,-8.704823442E-3
8.183103086E0,-4.199695308E-3,-5.497782957E-3,-8.704823442E-3
8.187858555E0,-7.864884101E-3,-6.108647794E-4,-7.483093534E-3
8.192614024E0,-1.091920771E-2,3.665188793E-3,-5.650499370E-3
8.197369440E0,-1.397353224E-2,7.941242307E-3,-4.428769462E-3
8.202124909E0,-1.458439697E-2,1.038470119E-2,-3.207040019E-3
8.206880378E0,-1.458439697E-2,1.099556591E-2,4.581485991E-4
8.211635847E0,-1.397353224E-2,1.160643063E-2,2.290742937E-3
8.216391263E0,-1.214093715E-2,1.038470119E-2,3.512472380E-3
8.221146732E0,-8.475748822E-3,1.099556591E-2,1.679878100E-3
8.225902201E0,-7.254019380E-3,1.160643063E-2,4.581485991E-4
8.230657670E0,-7.254019380E-3,1.282816008E-2,-7.635809598E-4
8.235413086E0,-7.864884101E-3,1.527161989E-2,-3.207040019E-3
8.240168555E0,-9.086613543E-3,1.710421406E-2,-6.261364091E-3
8.244924024E0,-1.153007243E-2,2.015853859E-2,-8.093958721E-3
8.249679492E0,-1.397353224E-2,2.199113183E-2,-1.175914705E-2
8.254434909E0,-1.458439697E-2,2.321286127E-2,-1.603520103E-2
8.259190378E0,-1.336266659E-2,2.321286127E-2,-1.786779426E-2
8.263945847E0,-1.214093715E-2,2.321286127E-2,-1.970038936E-2
8.268701315E0,-1.153007243E-2,2.260199748E-2,-1.970038936E-2
8.273456732E0,-1.091920771E-2,2.199113183E-2,-1.970038936E-2
8.278212201E0,-1.030834299E-2,2.015853859E-2,-1.786779426E-2
8.282967670E0,-9.697478265E-3,1.771507785E-2,-1.603520103E-2
8.287723138E0,-8.475748822E-3,1.466075517E-2,-1.420260593E-2
8.292478555E0,-7.254019380E-3,9.773836471E-3,-1.114828233E-2
8.297234024E0,-5.421424750E-3,4.886918236E-3,-8.704823442E-3
8.301989492E0,-1.145371469E-3,-1.221729559E-3,-6.872228812E-3
8.306744909E0,2.519817324E-3,-6.108647678E-3,-5.039634649E-3
8.311500378E0,4.963276442E-3,-7.330377586E-3,-4.428769462E-3
8.316255847E0,6.795870606E-3,-6.719512399E-3,-4.428769462E-3
8.321011315E0,6.795870606E-3,-2.443459118E-3,-5.039634649E-3
8.325766732E0,3.130682046E-3,3.665188793E-3,-5.650499370E-3
8.330522201E0,-1.145371469E-3,1.099556591E-2,-5.650499370E-3
8.335277670E0,-6.032289471E-3,1.771507785E-2,-5.650499370E-3
8.340033138E0,-9.086613543E-3,2.443459071E-2,-5.650499370E-3
8.344788607E0,-1.153007243E-2,3.054323979E-2,-5.039634649E-3
8.349544024E0,-1.336266659E-2,3.481929377E-2,-5.039634649E-3
8.354299492E0,-1.458439697E-2,3.604102135E-2,-4.428769462E-3
8.359054961E0,-1.397353224E-2,3.481929377E-2,-4.428769462E-3
8.363810378E0,-1.519526169E-2,3.359756246E-2,-3.207040019E-3
8.368565847E0,-1.458439697E-2,2.993237413E-2,-1.985310577E-3
8.373321315E0,-1.336266659E-2,2.321286127E-2,-1.374445739E-3
8.378076784E0,-1.214093715E-2,1.893680729E-2,-2.596175298E-3
8.382832201E0,-1.030834299E-2,1.343902480E-2,-2.596175298E-3
8.387587670E0,-7.864884101E-3,9.162971750E-3,-3.207040019E-3
8.392343138E0,-7.254019380E-3,7.941242307E-3,-3.817904973E-3
8.397098607E0,-7.864884101E-3,7.941242307E-3,-4.428769462E-3
8.401854024E0,-1.030834299E-2,1.038470119E-2,-3.207040019E-3
8.406609492E0,-1.214093715E-2,1.343902480E-2,-4.428769462E-3
8.411364961E0,-1.458439697E-2,1.649334840E-2,-5.039634649E-3
8.416120430E0,-1.824958436E-2,1.771507785E-2,-5.039634649E-3
8.420875847E0,-2.252563834E-2,1.954767294E-2,-5.039634649E-3
8.425631315E0,-2.496909723E-2,2.076940238E-2,-2.596175298E-3
8.430386784E0,-2.741255611E-2,2.015853859E-2,-1.374445739E-3
8.435142253E0,-3.046688065E-2,2.138026804E-2,-1.527161949E-4
8.439897670E0,-3.291033953E-2,2.199113183E-2,1.069013379E-3
8.444653138E0,-3.413207084E-2,2.260199748E-2,1.679878100E-3
8.449408607E0,-3.535379842E-2,2.321286127E-2,3.512472380E-3
8.454164076E0,-3.535379842E-2,2.504545636E-2,2.901607659E-3
8.458919492E0,-3.596466407E-2,2.565632015E-2,2.901607659E-3
8.463674961E0,-3.474293277E-2,2.504545636E-2,2.290742937E-3
8.468430430E0,-3.535379842E-2,2.321286127E-2,1.679878100E-3
8.473185847E0,-3.474293277E-2,2.015853859E-2,1.679878100E-3
8.477941315E0,-3.352120519E-2,1.893680729E-2,4.581485991E-4
8.482696784E0,-3.413207084E-2,1.832594350E-2,1.069013379E-3
8.487452253E0,-3.474293277E-2,1.588248461E-2,4.581485991E-4
8.492207670E0,-3.535379842E-2,1.710421406E-2,1.069013379E-3
8.496963138E0,-3.535379842E-2,1.771507785E-2,4.581485991E-4
8.501718607E0,-3.779725730E-2,1.832594350E-2,4.581485991E-4
8.506474076E0,-4.024071619E-2,1.954767294E-2,1.069013379E-3
8.511229492E0,-4.268417507E-2,2.076940238E-2,1.679878100E-3
8.515984961E0,-4.451677203E-2,2.015853859E-2,1.069013379E-3
8.520740430E0,-4.512763396E-2,1.832594350E-2,2.901607659E-3
8.525495847E0,-4.573849961E-2,1.710421406E-2,2.901607659E-3
8.530251315E0,-4.512763396E-2,1.527161989E-2,2.901607659E-3
8.535006784E0,-4.390590638E-2,1.282816008E-2,2.901607659E-3
8.539762253E0,-4.146244749E-2,1.038470119E-2,1.679878100E-3
8.544517722E0,-3.962985426E-2,6.719512399E-3,4.581485991E-4
8.549273138E0,-3.657552972E-2,5.497782957E-3,1.679878100E-3
8.554028607E0,-3.474293277E-2,4.886918236E-3,4.581485991E-4
8.558784076E0,-3.291033953E-2,5.497782957E-3,-1.527161949E-4
8.563539492E0,-3.229947388E-2,7.941242307E-3,-1.985310577E-3
8.568294961E0,-3.107774630E-2,8.552107029E-3,-3.817904973E-3
8.573050430E0,-2.985601686E-2,9.162971750E-3,-4.428769462E-3
8.577805899E0,-2.741255611E-2,8.552107029E-3,-4.428769462E-3
8.582561315E0,-2.496909723E-2,7.941242307E-3,-5.039634649E-3
8.587316784E0,-2.313650399E-2,6.108647678E-3,-6.261364091E-3
8.592072253E0,-2.069304511E-2,3.054323839E-3,-6.872228812E-3
8.596827670E0,-1.886045001E-2,6.108647794E-4,-5.650499370E-3
8.601583138E0,-1.824958436E-2,-3.054323839E-3,-4.428769462E-3
8.606338607E0,-1.947131567E-2,-4.276053514E-3,-2.596175298E-3
8.611094076E0,-2.008217946E-2,-4.276053514E-3,-3.207040019E-3
8.615849492E0,-2.130390890E-2,-4.886918236E-3,-4.428769462E-3
8.620604961E0,-2.069304511E-2,-4.276053514E-3,-5.650499370E-3
8.625360430E0,-2.008217946E-2,-4.276053514E-3,-6.261364091E-3
8.630115899E0,-1.763872057E-2,-4.276053514E-3,-6.872228812E-3
8.634871315E0,-1.702785492E-2,-4.886918236E-3,-8.093958721E-3
8.639626784E0,-1.519526169E-2,-6.719512399E-3,-1.053741761E-2
8.644382253E0,-1.336266659E-2,-8.552107029E-3,-1.237001177E-2
8.649137670E0,-1.153007243E-2,-9.773836471E-3,-1.298087649E-2
8.653893138E0,-9.697478265E-3,-9.162971750E-3,-1.420260593E-2
8.658648607E0,-9.697478265E-3,-7.941242307E-3,-1.359174121E-2
8.663404076E0,-1.153007243E-2,-6.108647678E-3,-1.420260593E-2
8.668159492E0,-1.519526169E-2,-3.665188793E-3,-1.420260593E-2
8.672914961E0,-1.824958436E-2,-2.443459118E-3,-1.359174121E-2
8.677670430E0,-2.130390890E-2,-2.443459118E-3,-1.237001177E-2
8.682425899E0,-2.374736778E-2,-5.497782957E-3,-1.114828233E-2
8.687181315E0,-2.496909723E-2,-1.160643063E-2,-8.704823442E-3
8.691936784E0,-2.496909723E-2,-1.832594350E-2,-6.261364091E-3
8.696692253E0,-2.557996288E-2,-2.443459071E-2,-3.817904973E-3
8.701447670E0,-2.557996288E-2,-2.993237413E-2,-2.596175298E-3
8.706203138E0,-2.496909723E-2,-3.481929377E-2,-7.635809598E-4
8.710958607E0,-2.619082667E-2,-3.543015569E-2,-7.635809598E-4
8.715714076E0,-2.680169232E-2,-3.359756246E-2,-2.596175298E-3
8.720469492E0,-2.863428742E-2,-3.115410358E-2,-3.817904973E-3
8.725224961E0,-2.985601686E-2,-2.687804960E-2,-5.039634649E-3
8.729980430E0,-3.229947388E-2,-2.321286127E-2,-8.704823442E-3
8.734735847E0,-3.413207084E-2,-1.771507785E-2,-9.926552884E-3
8.739491315E0,-3.352120519E-2,-1.404988952E-2,-1.175914705E-2
8.744246784E0,-3.291033953E-2,-1.466075517E-2,-1.237001177E-2
8.749002201E0,-2.985601686E-2,-1.466075517E-2,-1.542433538E-2
8.753757670E0,-2.619082667E-2,-1.832594350E-2,-1.725693047E-2
8.758513138E0,-2.435823344E-2,-2.260199748E-2,-1.847865991E-2
8.763268607E0,-2.191477455E-2,-2.809977904E-2,-1.908952370E-2
8.768024024E0,-2.069304511E-2,-3.359756246E-2,-1.847865991E-2
8.772779492E0,-2.130390890E-2,-3.909534588E-2,-1.847865991E-2
8.777534961E0,-2.191477455E-2,-4.459312931E-2,-1.542433538E-2
8.782290430E0,-2.313650399E-2,-4.825831577E-2,-1.114828233E-2
8.787045847E0,-2.374736778E-2,-5.253437161E-2,-7.483093534E-3
8.791801315E0,-2.374736778E-2,-5.742128938E-2,-3.817904973E-3
8.796556784E0,-2.313650399E-2,-6.108647957E-2,-7.635809598E-4
8.801312201E0,-2.130390890E-2,-6.414080411E-2,1.679878100E-3
8.806067670E0,-1.886045001E-2,-6.597339362E-2,3.512472380E-3
8.810823138E0,-1.886045001E-2,-6.475166976E-2,3.512472380E-3
8.815578607E0,-1.947131567E-2,-6.108647957E-2,3.512472380E-3
8.820334024E0,-2.252563834E-2,-5.681042373E-2,1.679878100E-3
8.825089492E0,-2.619082667E-2,-5.314523727E-2,-1.527161949E-4
8.829844961E0,-3.291033953E-2,-4.948004708E-2,-1.374445739E-3
8.834600378E0,-3.962985426E-2,-4.764745384E-2,-4.428769462E-3
8.839355847E0,-4.573849961E-2,-4.581485689E-2,-6.872228812E-3
8.844111315E0,-5.245801434E-2,-4.642572254E-2,-8.704823442E-3
8.848866784E0,-5.734493211E-2,-4.825831577E-2,-1.053741761E-2
8.853622201E0,-5.917752534E-2,-5.070177838E-2,-1.175914705E-2
8.858377670E0,-6.039925665E-2,-5.314523727E-2,-1.175914705E-2
8.863133138E0,-6.101011857E-2,-5.436696485E-2,-1.237001177E-2
8.867888555E0,-5.978839099E-2,-5.558869615E-2,-1.175914705E-2
8.872644024E0,-5.917752534E-2,-5.436696485E-2,-1.114828233E-2
8.877399492E0,-5.795579776E-2,-5.314523727E-2,-1.053741761E-2
8.882154909E0,-5.673406646E-2,-5.314523727E-2,-9.926552884E-3
8.886910378E0,-5.612320080E-2,-5.314523727E-2,-9.926552884E-3
8.891665847E0,-5.490147322E-2,-5.314523727E-2,-9.315688163E-3
8.896421315E0,-5.429060757E-2,-5.253437161E-2,-1.053741761E-2
8.901176732E0,-5.123628303E-2,-5.192350596E-2,-1.114828233E-2
8.905932201E0,-5.123628303E-2,-5.009091273E-2,-1.420260593E-2
8.910687670E0,-5.184714869E-2,-4.520399496E-2,-1.603520103E-2
8.915443086E0,-5.490147322E-2,-3.909534588E-2,-1.725693047E-2
8.920198555E0,-5.795579776E-2,-3.420842811E-2,-1.847865991E-2
8.924954024E0,-6.039925665E-2,-2.993237413E-2,-1.908952370E-2
8.929709492E0,-6.284271181E-2,-2.748891525E-2,-1.908952370E-2
8.934464909E0,-6.589704007E-2,-2.932151034E-2,-1.481347065E-2
8.939220378E0,-6.528617442E-2,-3.665188700E-2,-1.298087649E-2
8.943975847E0,-6.406444311E-2,-4.703658819E-2,-9.926552884E-3
8.948731263E0,-6.101011857E-2,-6.047561392E-2,-6.872228812E-3
8.953486732E0,-5.734493211E-2,-7.330377400E-2,-4.428769462E-3
8.958242201E0,-5.367974192E-2,-8.552107215E-2,-3.207040019E-3
8.962997670E0,-4.940368980E-2,-9.590577334E-2,-1.374445739E-3
8.967753086E0,-4.390590638E-2,-1.050687432E-1,-1.374445739E-3
8.972508555E0,-3.962985426E-2,-1.117882580E-1,-7.635809598E-4
8.977264024E0,-3.535379842E-2,-1.154534444E-1,-1.985310577E-3
8.982019440E0,-3.291033953E-2,-1.130099818E-1,-3.817904973E-3
8.986774909E0,-3.291033953E-2,-1.075121984E-1,-6.872228812E-3
8.991530378E0,-3.291033953E-2,-9.957095981E-2,-8.704823442E-3
8.996285795E0,-3.474293277E-2,-8.857539296E-2,-9.926552884E-3
9.001041263E0,-3.779725730E-2,-7.880155742E-2,-1.237001177E-2
9.005796732E0,-4.085158184E-2,-6.780599058E-2,-1.359174121E-2
9.010552149E0,-4.146244749E-2,-5.925388262E-2,-1.420260593E-2
9.015307617E0,-4.207331315E-2,-5.314523727E-2,-1.664606482E-2
9.020063086E0,-4.146244749E-2,-4.825831577E-2,-1.847865991E-2
9.024818503E0,-4.085158184E-2,-4.581485689E-2,-1.970038936E-2
9.029573972E0,-3.962985426E-2,-4.520399496E-2,-2.214384824E-2
9.034329440E0,-3.840812296E-2,-4.642572254E-2,-2.275471389E-2
9.039084857E0,-3.779725730E-2,-4.825831577E-2,-2.397644334E-2
9.043840326E0,-3.779725730E-2,-5.192350596E-2,-2.397644334E-2
9.048595795E0,-3.657552972E-2,-5.803215504E-2,-2.336557768E-2
9.053351263E0,-3.657552972E-2,-6.536252797E-2,-2.214384824E-2
9.058106680E0,-3.596466407E-2,-7.513637096E-2,-2.153298259E-2
9.062862149E0,-3.596466407E-2,-8.674279600E-2,-2.031125315E-2
9.067617617E0,-3.596466407E-2,-9.773836285E-2,-1.847865991E-2
9.072373034E0,-3.657552972E-2,-1.081230640E-1,-1.786779426E-2
9.077128503E0,-3.779725730E-2,-1.154534444E-1,-1.542433538E-2
9.081883972E0,-4.085158184E-2,-1.203403622E-1,-1.237001177E-2
9.086639388E0,-4.512763396E-2,-1.233946830E-1,-1.114828233E-2
9.091394857E0,-5.123628303E-2,-1.246164143E-1,-9.315688163E-3
9.096150326E0,-5.673406646E-2,-1.227838174E-1,-6.261364091E-3
9.100905742E0,-6.345357746E-2,-1.191186309E-1,-4.428769462E-3
9.105661211E0,-7.078395784E-2,-1.142317131E-1,-3.817904973E-3
9.110416680E0,-7.872519642E-2,-1.081230640E-1,-3.817904973E-3
9.115172097E0,-8.483384550E-2,-1.001818255E-1,-3.207040019E-3
9.119927565E0,-9.155336022E-2,-9.285144508E-2,-3.817904973E-3
9.124683034E0,-9.766200930E-2,-8.674279600E-2,-4.428769462E-3
9.129438451E0,-1.019380614E-1,-8.063415438E-2,-6.872228812E-3
9.134193920E0,-1.062141135E-1,-7.574722916E-2,-9.315688163E-3
9.138949388E0,-1.104901657E-1,-7.147117704E-2,-1.298087649E-2
9.143704805E0,-1.141553521E-1,-6.719512492E-2,-1.603520103E-2
9.148460274E0,-1.184314117E-1,-6.230820715E-2,-1.908952370E-2
9.153215742E0,-1.227074638E-1,-5.803215504E-2,-2.214384824E-2
9.157971159E0,-1.251509190E-1,-5.497783050E-2,-2.397644334E-2
9.162726628E0,-1.269835234E-1,-5.497783050E-2,-2.519817278E-2
9.167482097E0,-1.282052398E-1,-5.742128938E-2,-2.519817278E-2
9.172237565E0,-1.294269711E-1,-6.352993846E-2,-2.580903657E-2
9.176992982E0,-1.275943816E-1,-7.024945319E-2,-2.519817278E-2
9.181748451E0,-1.275943816E-1,-7.696896046E-2,-2.397644334E-2
9.186503920E0,-1.257617921E-1,-8.246674389E-2,-2.275471389E-2
9.191259336E0,-1.263726503E-1,-8.613193035E-2,-2.092211880E-2
9.196014805E0,-1.269835234E-1,-8.796452731E-2,-2.031125315E-2
9.200770274E0,-1.275943816E-1,-8.979712427E-2,-1.664606482E-2
9.205525690E0,-1.300378442E-1,-9.101885557E-2,-1.664606482E-2
9.210281159E0,-1.324812919E-1,-9.285144508E-2,-1.481347065E-2
9.215036628E0,-1.330921650E-1,-9.285144508E-2,-1.298087649E-2
9.219792045E0,-1.337030232E-1,-9.285144508E-2,-1.175914705E-2
9.224547513E0,-1.337030232E-1,-9.162971377E-2,-1.053741761E-2
9.229302982E0,-1.337030232E-1,-8.979712427E-2,-9.926552884E-3
9.234058399E0,-1.330921650E-1,-8.918625861E-2,-9.926552884E-3
9.238813867E0,-1.330921650E-1,-8.796452731E-2,-8.093958721E-3
9.243569336E0,-1.330921650E-1,-8.857539296E-2,-6.872228812E-3
9.248324753E0,-1.343138963E-1,-9.101885557E-2,-5.650499370E-3
9.253080222E0,-1.361464858E-1,-9.468404204E-2,-3.817904973E-3
9.257835690E0,-1.379790753E-1,-1.014035568E-1,-1.374445739E-3
9.262591107E0,-1.404225379E-1,-1.081230640E-1,1.679878100E-3
9.267346576E0,-1.428660005E-1,-1.154534444E-1,5.345067009E-3
9.272102045E0,-1.428660005E-1,-1.264490038E-1,1.145371422E-2
9.276857461E0,-1.434768587E-1,-1.380554438E-1,1.572976820E-2
9.281612930E0,-1.434768587E-1,-1.502727419E-1,1.756236330E-2
9.286368399E0,-1.428660005E-1,-1.606574357E-1,1.634063199E-2
9.291123815E0,-1.422551423E-1,-1.698204130E-1,1.450803876E-2
9.295879284E0,-1.428660005E-1,-1.753181964E-1,1.145371422E-2
9.300634753E0,-1.446985900E-1,-1.771507859E-1,7.788525894E-3
9.305390170E0,-1.477529258E-1,-1.753181964E-1,4.734201822E-3
9.310145638E0,-1.514181048E-1,-1.728747338E-1,1.069013379E-3
9.314901107E0,-1.538615674E-1,-1.679878086E-1,-5.039634649E-3
9.319656524E0,-1.563050300E-1,-1.606574357E-1,-1.175914705E-2
9.324411992E0,-1.587484777E-1,-1.545487940E-1,-1.664606482E-2
9.329167461E0,-1.611919403E-1,-1.478292793E-1,-2.336557768E-2
9.333922878E0,-1.642462611E-1,-1.411097646E-1,-2.886336111E-2
9.338678347E0,-1.673005968E-1,-1.343902498E-1,-3.252854943E-2
9.343433815E0,-1.715766490E-1,-1.295033395E-1,-3.558287397E-2
9.348189232E0,-1.746309698E-1,-1.246164143E-1,-3.802633286E-2
9.352944701E0,-1.758527011E-1,-1.227838174E-1,-4.046979174E-2
9.357700170E0,-1.776852906E-1,-1.240055487E-1,-4.291325063E-2
9.362455586E0,-1.770744324E-1,-1.270598769E-1,-4.535670951E-2
9.367211055E0,-1.776852906E-1,-1.313359290E-1,-4.841103405E-2
9.371966524E0,-1.758527011E-1,-1.386663020E-1,-5.024362728E-2
9.376721940E0,-1.746309698E-1,-1.447749585E-1,-5.268708616E-2
9.381477409E0,-1.740200967E-1,-1.484401375E-1,-5.329795182E-2
9.386232878E0,-1.752418280E-1,-1.484401375E-1,-5.757400393E-2
9.390988295E0,-1.782961637E-1,-1.441640854E-1,-6.246092543E-2
9.395743763E0,-1.825722158E-1,-1.374445707E-1,-6.673697382E-2
9.400499180E0,-1.856265366E-1,-1.276707351E-1,-6.918043643E-2
9.405254649E0,-1.886808574E-1,-1.172860414E-1,-7.162389904E-2
9.410010117E0,-1.905134469E-1,-1.075121984E-1,-7.223475724E-2
9.414765534E0,-1.911243200E-1,-1.007926911E-1,-7.467821985E-2
9.419521003E0,-1.886808574E-1,-9.590577334E-2,-7.528908551E-2
9.424276472E0,-1.850156635E-1,-9.346231073E-2,-7.406735420E-2
9.429031940E0,-1.789070219E-1,-9.346231073E-2,-6.979130208E-2
9.433787357E0,-1.721875072E-1,-9.590577334E-2,-6.368265301E-2
