Time (s),Acceleration x (m/s^2),Acceleration y (m/s^2),Acceleration z (m/s^2)
9.004203841,1.2663507608572262e+75,3.5822243351045444e+74,-8.580246755700009e+74
9.008980299,1.2546539442523074e+75,3.547428938050936e+74,-8.499280519505925e+74
9.013756706,1.243063340675258e+75,3.512986507853357e+74,-8.419098604804295e+74
9.018533112,1.2315779562820776e+75,3.4788934327921954e+74,-8.339692934966138e+74
9.02330957,1.220196807837158e+75,3.4451461351387047e+74,-8.261055521340826e+74
9.028085977,1.2089189225877325e+75,3.4117410708834433e+74,-8.183178462325511e+74
9.032862435,1.1977433381395093e+75,3.37867472946753e+74,-8.106053942443526e+74
9.037638841,1.1866691023334731e+75,3.3459436335166365e+74,-8.029674231431694e+74
9.042415247,1.1756952731238442e+75,3.3135443385776327e+74,-7.954031683336425e+74
9.047191706,1.1648209184571963e+75,3.281473432857814e+74,-7.879118735618438e+74
9.051968112,1.1540451161527357e+75,3.2497275369666386e+74,-7.804927908265892e+74
9.056744518,1.1433669537837355e+75,3.218303303659909e+74,-7.731451802915801e+74
9.061520977,1.132785528560132e+75,3.1871974175863366e+74,-7.658683101983543e+74
9.066297383,1.1222999472122814e+75,3.156406595036411e+74,-7.586614567800313e+74
9.071073841,1.1119093258758697e+75,3.125927583693502e+74,-7.51523904175836e+74
9.075850247,1.101612789977958e+75,3.0957571623871356e+74,-7.444549443463947e+74
9.080626654,1.0914094741241613e+75,3.0658921408483564e+74,-7.374538769897933e+74
9.085403112,1.0812985219869465e+75,3.0363293594671124e+74,-7.305200094583889e+74
9.090179518,1.0712790861950518e+75,3.00706568905158e+74,-7.236526566763653e+74
9.094955924,1.061350328224037e+75,2.9780980305893696e+74,-7.168511410580247e+74
9.099732383,1.0515114182879692e+75,2.949423315010569e+74,-7.101147924268081e+74
9.104508789,1.041761535232242e+75,2.921038502952573e+74,-7.034429479350418e+74
9.109285195,1.032099866427544e+75,2.8929405845266766e+74,-6.96834951984403e+74
9.114061654,1.0225256076649883e+75,2.865126579086425e+74,-6.902901561471054e+74
9.11883806,1.0130379630524167e+75,2.8375935349977134e+74,-6.838079190877984e+74
9.123614466,1.0036361449118851e+75,2.8103385294105956e+74,-6.773876064861689e+74
9.128390924,9.943193736783317e+74,2.7833586680327916e+74,-6.710285909602411e+74
9.133167331,9.850868777994309e+74,2.7566510849048865e+74,-6.647302519903717e+74
9.137943789,9.75937893636638e+74,2.7302129421771826e+74,-6.584919758439394e+74
9.142720195,9.668716653674296e+74,2.704041429888159e+74,-6.523131555007294e+74
9.147496602,9.57887444888743e+74,2.6781337657444694e+74,-6.461931905790123e+74
9.15227306,9.489844917216166e+74,2.6524871949024194e+74,-6.401314872623156e+74
9.157049466,9.401620729170335e+74,2.6270989897508764e+74,-6.341274582268917e+74
9.161825872,9.314194629629584e+74,2.6019664496955546e+74,-6.281805225698786e+74
9.166602331,9.22755943692567e+74,2.577086900944617e+74,-6.222901057381496e+74
9.171378737,9.141708041936676e+74,2.552457696295548e+74,-6.164556394578443e+74
9.176155195,9.056633407193145e+74,2.5280762149232416e+74,-6.106765616645747e+74
9.180931602,8.972328565996103e+74,2.50393986216926e+74,-6.049523164342973e+74
9.185708008,8.888786621546895e+74,2.4800460693321995e+74,-5.992823539148461e+74
9.190484466,8.806000746088709e+74,2.4563922934591204e+74,-5.936661302581203e+74
9.195260872,8.72396418005961e+74,2.432976017138e+74,-5.881031075529256e+74
9.200037279,8.642670231256888e+74,2.409794748291207e+74,-5.825927537584679e+74
9.204813737,8.562112274012582e+74,2.3868460199699607e+74,-5.771345426384987e+74
9.209590143,8.482283748379942e+74,2.364127390149761e+74,-5.717279536961068e+74
9.214366549,8.403178159330658e+74,2.341636441526748e+74,-5.663724721091558e+74
9.219143008,8.324789075962761e+74,2.319370781314935e+74,-5.610675886663642e+74
9.223919414,8.247110130719051e+74,2.297328041044278e+74,-5.558127997040271e+74
9.228695872,8.170135018615889e+74,2.275505876359542e+74,-5.506076070433788e+74
9.233472279,8.09385749648215e+74,2.253901966819934e+74,-5.454515179285947e+74
9.238248685,8.018271382208111e+74,2.232514015699451e+74,-5.403440449654318e+74
9.243025143,7.943370554004094e+74,2.2113397497879283e+74,-5.352847060605069e+74
9.247801549,7.869148949668664e+74,2.1903769191927737e+74,-5.302730243612063e+74
9.252577956,7.795600565866156e+74,2.1696232971413786e+74,-5.253085281962276e+74
9.257354414,7.722719457413337e+74,2.1490766797842164e+74,-5.203907510167566e+74
9.26213082,7.650499736574893e+74,2.1287348859986328e+74,-5.15519231338277e+74
9.266907227,7.578935572367519e+74,2.108595757193352e+74,-5.106935126830053e+74
9.271683685,7.508021189872314e+74,2.0886571571137202e+74,-5.059131435229461e+74
9.276460091,7.437750869555248e+74,2.068916971647709e+74,-5.011776772235666e+74
9.281236497,7.368118946595486e+74,2.0493731086327063e+74,-4.964866719880896e+74
9.286012956,7.299119810221362e+74,2.0300234976631208e+74,-4.918396908023984e+74
9.290789362,7.230747903053806e+74,2.0108660898988376e+74,-4.872363013805479e+74
9.29556582,7.162997720457122e+74,1.9918988578745526e+74,-4.826760761108706e+74
9.300342227,7.095863809897008e+74,1.9731197953100155e+74,-4.781585920026663e+74
9.305118633,7.029340770305784e+74,1.954526916921198e+74,-4.736834306334624e+74
9.309895091,6.96342325145478e+74,1.9361182582323914e+74,-4.692501780968333e+74
9.314671497,6.898105953333883e+74,1.9178918753892444e+74,-4.648584249507694e+74
9.319447904,6.833383625538147e+74,1.8998458449727707e+74,-4.605077661665859e+74
9.324224362,6.769251066661404e+74,1.8819782638143381e+74,-4.561978010783552e+74
9.329000768,6.705703123696829e+74,1.8642872488116538e+74,-4.519281333328552e+74
9.333777174,6.642734691444405e+74,1.8467709367457605e+74,-4.476983708400184e+74
9.338553633,6.580340711925227e+74,1.8294274840990727e+74,-4.435081257238707e+74
9.343330039,6.518516173802595e+74,1.8122550668744613e+74,-4.3935701427394774e+74
9.348106445,6.457256111809902e+74,1.7952518804153976e+74,-4.352446568971805e+74
9.352882904,6.396555606185355e+74,1.778416139227157e+74,-4.31170678070245e+74
9.35765931,6.336409782113581e+74,1.7617460767990775e+74,-4.2713470629237e+74
9.362435716,6.276813809174162e+74,1.7452399454278792e+74,-4.231363740385981e+74
9.367212174,6.217762900797154e+74,1.7288960160420619e+74,-4.191753177134946e+74
9.371988581,6.159252313725641e+74,1.7127125780273955e+74,-4.1525117760530003e+74
9.376765039,6.101277347485409e+74,1.6966879390535017e+74,-4.11363597840524e+74
9.381541445,6.043833343861796e+74,1.6808204249015397e+74,-4.07512226338978e+74
9.386317852,5.986915686383814e+74,1.665108379292999e+74,-4.0369671476924086e+74
9.39109431,5.930519799815636e+74,1.649550163719603e+74,-3.999167185045539e+74
9.395870716,5.874641149655626e+74,1.6341441572743339e+74,-3.961718965791392e+74
9.400647122,5.819275241643012e+74,1.618888756483583e+74,-3.924619116449382e+74
9.405423581,5.764417621272275e+74,1.60378237514043e+74,-3.8878642992876824e+74
9.410199987,5.710063873315311e+74,1.5888234441390474e+74,-3.85145121189895e+74
9.414976393,5.656209621351344e+74,1.5740104113102162e+74,-3.815376586780211e+74
9.419752852,5.602850527304547e+74,1.559341741257933e+74,-3.779637190916894e+74
9.424529258,5.549982290989293e+74,1.5448159151970727e+74,-3.74422982537099e+74
9.429305716,5.497600649662954e+74,1.530431430792088e+74,-3.7091513248733175e+74
9.434082122,5.445701377586138e+74,1.5161868019967418e+74,-3.6743985574198514e+74
9.438858529,5.394280285590236e+74,1.5020805588948795e+74,-3.639968423872093e+74
9.443634987,5.343333220652197e+74,1.488111247542234e+74,-3.6058578575614664e+74
9.448411393,5.292856065476384e+74,1.4742774298092569e+74,-3.5720638238977156e+74
9.453187799,5.242844738083369e+74,1.460577683224965e+74,-3.538583319981311e+74
9.457964258,5.193295191405536e+74,1.4470106008218034e+74,-3.5054133742198617e+74
9.462740664,5.144203412889382e+74,1.4335747909815374e+74,-3.4725510459485116e+74
9.46751707,5.095565424104373e+74,1.4202688772821724e+74,-3.4399934250543184e+74
9.472293529,5.0473772803582e+74,1.4070914983459364e+74,-3.407737631604605e+74
9.477069935,4.999635070318269e+74,1.3940413076883337e+74,-3.3757808154792755e+74
9.481846341,4.952334915639231e+74,1.3811169735682862e+74,-3.344120156007097e+74
9.486622799,4.90547297059642e+74,1.3683171788393771e+74,-3.312752861605943e+74
9.491399206,4.859045421725071e+74,1.3556406208022256e+74,-3.281676169426996e+74
9.496175664,4.813048487465192e+74,1.343086011058014e+74,-3.2508873450029055e+74
9.50095207,4.767478417812002e+74,1.3306520753631893e+74,-3.220383681899909e+74
9.505728477,4.722331493971809e+74,1.318337553485362e+74,-3.190162501373945e+74
9.510504935,4.677604028023226e+74,1.3061411990604237e+74,-3.160221152030783e+74
9.515281341,4.633292362583586e+74,1.2940617794508918e+74,-3.1305570094901997e+74
9.520057747,4.589392870480444e+74,1.2820980756054987e+74,-3.101167476054218e+74
9.524834206,4.545901954428025e+74,1.2702488819200412e+74,-3.072049980379448e+74
9.529610612,4.5028160467085637e+74,1.2585130060994995e+74,-3.043201977153554e+74
9.534387018,4.4601316088584173e+74,1.2468892690214248e+74,-3.0146209467758847e+74
9.539163477,4.4178451313589085e+74,1.2353765046005914e+74,-2.986304395042291e+74
9.543939883,4.375953133331792e+74,1.2239735596549035e+74,-2.9582498528341436e+74
9.548716289,4.334452162239296e+74,1.2126792937725418e+74,-2.930454875811546e+74
9.553492747,4.2933387935886795e+74,1.201492579180337e+74,-2.9029170441107174e+74
9.558269154,4.252609630641226e+74,1.190412300613365e+74,-2.87563396204551e+74
9.56304556,4.212261304125599e+74,1.1794373551857464e+74,-2.848603257813021e+74
9.567822018,4.172290471955448e+74,1.1685666522626248e+74,-2.8218225832032753e+74
9.572598424,4.132693818951168e+74,1.1577991133332985e+74,-2.795289613312954e+74
9.577374883,4.093468056565739e+74,1.1471336718854973e+74,-2.7690020462631345e+74
9.582151289,4.054609922614598e+74,1.1365692732808085e+74,-2.742957602921011e+74
9.586927695,4.0161161810095545e+74,1.1261048746312411e+74,-2.7171540266255553e+74
9.591704154,3.977983621496743e+74,1.1157394446769223e+74,-2.6915890829170803e+74
9.59648056,3.9402090593986014e+74,1.1054719636649113e+74,-2.6662605592706223e+74
9.601256966,3.9027893353598616e+74,1.0953014232291144e+74,-2.6411662648330996e+74
9.606033424,3.865721315097563e+74,1.0852268262712875e+74,-2.616304030164161e+74
9.610809831,3.829001889155094e+74,1.07524718684311e+74,-2.591671706980626e+74
9.615586237,3.792627972660276e+74,1.0653615300293152e+74,-2.5672671679044464e+74
9.620362695,3.7565965050874867e+74,1.0555688918318659e+74,-2.543088306214115e+74
9.625139102,3.7209044500238416e+74,1.0458683190551621e+74,-2.5191330355994833e+74
9.629915508,3.685548794939403e+74,1.0362588691922649e+74,-2.495399289919943e+74
9.634691966,3.650526550961411e+74,1.0267396103121141e+74,-2.4718850229659386e+74
9.639468372,3.6158347526524647e+74,1.0173096209477138e+74,-2.4485882082237766e+74
9.644244779,3.581470457792614e+74,1.0079679899852625e+74,-2.425506838643704e+74
9.649021237,3.5474307471653037e+74,9.987138165542056e+73,-2.402638926411222e+74
9.653797643,3.5137127243471325e+74,9.895462099181894e+73,-2.37998250272159e+74
9.658574049,3.480313515501371e+74,9.804642893669073e+73,-2.35753561755748e+74
9.663350508,3.4472302691751887e+74,9.714671841088233e+73,-2.3352963394697173e+74
9.668126914,3.4144601561005723e+74,9.625540331647602e+73,-2.313262755361046e+74
9.672903372,3.3820003689989e+74,9.53723985262342e+73,-2.291432970272873e+74
9.677679779,3.3498481223891395e+74,9.449761987312877e+73,-2.2698051071749424e+74
9.682456185,3.3180006523996247e+74,9.363098413995472e+73,-2.2483773067578882e+74
9.687232643,3.2864552165833927e+74,9.277240904902708e+73,-2.2271477272286287e+74
9.692009049,3.2552090937370406e+74,9.192181325196037e+73,-2.2061145441085541e+74
9.696785456,3.224259583723095e+74,9.107911631953034e+73,-2.1852759500344655e+74
9.701561914,3.193604007295888e+74,9.024423873161758e+73,-2.164630154562231e+74
9.70633832,3.163239705930952e+74,8.941710186723228e+73,-2.144175383973113e+74
9.711114727,3.133164041657924e+74,8.859762799462008e+73,-2.123909881082741e+74
9.715891185,3.1033743968969337e+74,8.778574026144786e+73,-2.103831905052722e+74
9.720667591,3.073868174298484e+74,8.698136268506893e+73,-2.0839397312048946e+74
9.725443997,3.0446427965868114e+74,8.618442014286712e+73,-2.064231650838209e+74
9.730220456,3.015695706406677e+74,8.539483836267984e+73,-2.0447059710482563e+74
9.734996862,2.9870243661735227e+74,8.461254391329937e+73,-2.025361014549457e+74
9.739773268,2.95862625792691e+74,8.38374641950522e+73,-2.0061951194999222e+74
9.744549727,2.9304988831871383e+74,8.306952743045664e+73,-1.987206639328998e+74
9.749326133,2.90263976281495e+74,8.230866265495841e+73,-1.9683939425674893e+74
9.754102591,2.8750464368742385e+74,8.155479970774299e+73,-1.9497554126805652e+74
9.758878997,2.8477164644976795e+74,8.080786922262371e+73,-1.931289447903337e+74
9.763655404,2.8206474237552154e+74,8.006780261900445e+73,-1.912994461079095e+74
9.768431862,2.7938369115253074e+74,7.933453209291629e+73,-1.8948688795001791e+74
9.773208268,2.7672825433688836e+74,7.860799060812859e+73,-1.876911144751457e+74
9.777984674,2.7409819534059094e+74,7.78881118873339e+73,-1.8591197125564074e+74
9.782761133,2.714932794194518e+74,7.717483040340661e+73,-1.8414930526258032e+74
9.787537539,2.689132736612656e+74,7.646808137073534e+73,-1.8240296485089927e+74
9.792313945,2.6635794697421656e+74,7.576780073662855e+73,-1.8067279974477598e+74
9.797090404,2.6382707007552313e+74,7.50739251727928e+73,-1.7895866102327604e+74
9.80186681,2.6132041548031477e+74,7.438639206688433e+73,-1.7726040110625237e+74
9.806643216,2.5883775749073643e+74,7.370513951413475e+73,-1.7557787374050003e+74
9.811419674,2.5637887218527456e+74,7.303010630905147e+73,-1.7391093398616415e+74
9.816196081,2.5394353740829827e+74,7.23612319371925e+73,-1.7225943820339752e+74
9.820972487,2.5153153275980994e+74,7.169845656701535e+73,-1.7062324403926463e+74
9.825748945,2.491426395853998e+74,7.104172104179938e+73,-1.690022104148916e+74
9.830525352,2.4677664096639905e+74,7.039096687164189e+73,-1.6739619751286036e+74
9.835301758,2.4443332171022417e+74,6.974613622552727e+73,-1.6580506676484487e+74
9.840078216,2.421124683409052e+74,6.910717192346894e+73,-1.6422868083948777e+74
9.844854622,2.398138690897912e+74,6.847401742872307e+73,-1.6266690363051486e+74
9.849631081,2.3753731388642616e+74,6.784661684007245e+73,-1.611196002450852e+74
9.854407487,2.3528259434958773e+74,6.722491488417938e+73,-1.5958663699237485e+74
9.859183893,2.330495037784842e+74,6.660885690800592e+73,-1.5806788137239232e+74
9.863960352,2.308378371441022e+74,6.59983888713e+73,-1.5656320206502253e+74
9.868736758,2.286473910806988e+74,6.539345733914568e+73,-1.5507246891929744e+74
9.873513164,2.264779638774301e+74,6.479400947457714e+73,-1.5359555294289071e+74
9.878289622,2.243293554701058e+74,6.419999303125521e+73,-1.5213232629183292e+74
9.883066029,2.2220136743305867e+74,6.361135634620542e+73,-1.5068266226044404e+74
9.887842435,2.2009380297111824e+74,6.302804833261703e+73,-1.4924643527148016e+74
9.892618893,2.1800646691167813e+74,6.245001847270259e+73,-1.478235208664912e+74
9.897395299,2.15939165696848e+74,6.187721681061787e+73,-1.4641379569638741e+74
9.902171706,2.138917073756794e+74,6.130959394544184e+73,-1.4501713751221154e+74
9.906948164,2.1186390159645596e+74,6.074710102421634e+73,-1.4363342515611283e+74
9.91172457,2.0985555959904056e+74,6.018968973504498e+73,-1.4226253855251853e+74
9.916500977,2.078664942072719e+74,5.96373123002513e+73,-1.409043586994968e+74
9.921277435,2.0589651982140276e+74,5.908992146959634e+73,-1.3955876766030517e+74
9.926053841,2.0394545241057168e+74,5.854747051355571e+73,-1.3822564855511894e+74
9.930830247,2.0201310950530217e+74,5.800991321665582e+73,-1.369048855529317e+74
9.935606706,2.000993101900246e+74,5.747720387086953e+73,-1.355963638636217e+74
9.940383112,1.9820387509561623e+74,5.694929726907086e+73,-1.3429996973017674e+74
9.94515957,1.9632662639195482e+74,5.64261486985493e+73,-1.33015590421069e+74
9.949935977,1.9446738778048094e+74,5.5907713934583964e+73,-1.317431142227721e+74
9.954712383,1.926259844867647e+74,5.53939492340781e+73,-1.3048243043241386e+74
9.959488789,1.908022432530724e+74,5.4884811329254174e+73,-1.2923342935055705e+74
9.964265247,1.8899599233092887e+74,5.438025742140971e+73,-1.279960022741012e+74
9.969041654,1.8720706147367147e+74,5.388024517473445e+73,-1.2677004148929764e+74
9.973818112,1.8543528192899255e+74,5.338473271018912e+73,-1.2555544026487053e+74
9.978594518,1.8368048643146816e+74,5.289367859944615e+73,-1.2435209284523748e+74
9.983370924,1.819425091950713e+74,5.240704185889273e+73,-1.2315989444382363e+74
9.988147383,1.802211859056698e+74,5.1924781943696684e+73,-1.21978741236464e+74
9.992923789,1.7851635371350819e+74,5.144685874193592e+73,-1.2080853035488868e+74
9.997700195,1.7682785122567339e+74,5.097323256879207e+73,-1.1964915988028577e+74
10.00247665,1.7515551849854414e+74,5.050386416080879e+73,-1.185005288369358e+74
10.00725306,1.734991970302233e+74,5.003871467021497e+73,-1.1736253718591232e+74
10.01202947,1.7185872975295149e+74,4.957774565931326e+73,-1.1623508581884325e+74
10.01680592,1.7023396102550126e+74,4.912091909493429e+73,-1.151180765517275e+74
10.02158233,1.6862473662555078e+74,4.866819734295691e+73,-1.1401141211880176e+74
10.02635874,1.670309037420352e+74,4.8219543162894643e+73,-1.1291499616645181e+74
10.0311352,1.6545231096747328e+74,4.777491970254883e+73,-1.1182873324716313e+74
10.0359116,1.6388880829026724e+74,4.7334290492728455e+73,-1.1075252881350554e+74
10.04068801,1.623402470869735e+74,4.6897619442036865e+73,-1.0968628921214736e+74
10.04546447,1.608064801145424e+74,4.646487083172538e+73,-1.0862992167789372e+74
10.05024087,1.592873615025234e+74,4.603600931061416e+73,-1.0758333432774367e+74
10.05501728,1.5778274674523356e+74,4.561099989008069e+73,-1.0654643615496116e+74
10.05979374,1.5629249269388725e+74,4.518980793911612e+73,-1.0551913702315521e+74
10.06457014,1.5481645754868558e+74,4.47723991794497e+73,-1.0450134766036509e+74
10.06934655,1.5335450085086422e+74,4.435873968074146e+73,-1.0349297965314753e+74
10.07412301,1.5190648347469933e+74,4.394879585584297e+73,-1.0249394544066285e+74
10.07889941,1.5047226761947065e+74,4.354253445612649e+73,-1.0150415830875628e+74
10.08367587,1.490517168013814e+74,4.313992256688247e+73,-1.0052353238403204e+74
10.08845228,1.4764469584543505e+74,4.2740927602785416e+73,-9.955198262791799e+73
10.09322869,1.4625107087726957e+74,4.2345517303427925e+73,-9.858942483071849e+73
10.09800514,1.4487070931495072e+74,4.195365972892271e+73,-9.763577560565338e+73
10.10278155,1.4350347986072394e+74,4.15653232555723e+73,-9.669095238288108e+73
10.10755796,1.42149252492724e+74,4.118047657160629e+73,-9.575487340350432e+73
10.11233441,1.4080789845664064e+74,4.0799088672985917e+73,-9.482745771355655e+73
10.11711082,1.3947929025734012e+74,4.0421128859275345e+73,-9.39086251579679e+73
10.12188723,1.381633016504425e+74,4.004656672957897e+73,-9.299829637450953e+73
10.12666368,1.3685980763385535e+74,3.967537217854416e+73,-9.209639278771553e+73
10.13144009,1.3556868443926506e+74,3.9307515392428924e+73,-9.120283660278118e+73
10.1362165,1.3428980952358768e+74,3.8942966845234277e+73,-9.03175507994373e+73
10.14099296,1.3302306156038134e+74,3.85816972949013e+73,-8.944045912579976e+73
10.14576936,1.317683204312243e+74,3.8223677779573276e+73,-8.857148609219408e+73
10.15054577,1.3052546721706193e+74,3.7868879613922954e+73,-8.771055696495451e+73
10.15532223,1.2929438418952526e+74,3.75172743855451e+73,-8.685759776019692e+73
10.16009863,1.2807495480222398e+74,3.716883395141373e+73,-8.601253523756561e+73
10.16487504,1.2686706368201794e+74,3.682353043440397e+73,-8.51752968939544e+73
10.1696515,1.256705966202698e+74,3.648133621987823e+73,-8.434581095720208e+73
10.1744279,1.244854405640802e+74,3.614222395233657e+73,-8.352400637976264e+73
10.17920431,1.2331148360750683e+74,3.580616653213081e+73,-8.270981283235047e+73
10.18398077,1.2214861498276862e+74,3.5473137112241694e+73,-8.190316069756157e+73
10.18875717,1.2099672505143678e+74,3.5143109095118125e+73,-8.110398106347238e+73
10.19353358,1.1985570529561384e+74,3.4816056129577406e+73,-8.031220571721847e+73
10.19831004,1.187254483091018e+74,3.449195210776608e+73,-7.952776713855544e+73
10.20308644,1.1760584778855966e+74,3.4170771162180713e+73,-7.875059849340343e+73
10.20786285,1.1649679852465048e+74,3.385248766274804e+73,-7.79806336273768e+73
10.21263931,1.1539819639317684e+74,3.3537076213963764e+73,-7.721780705930035e+73
10.21741572,1.1430993834620367e+74,3.322451165208894e+73,-7.646205397471324e+73
10.22219212,1.1323192240316792e+74,3.291476904240293e+73,-7.571331021936152e+73
10.22696858,1.1216404764197383e+74,3.260782367651182e+73,-7.497151229267997e+73
10.23174499,1.1110621419007304e+74,3.2303651069711086e+73,-7.423659734126433e+73
10.23652139,1.1005832321552935e+74,3.200222695840119e+73,-7.350850315233466e+73
10.24129785,1.0902027691806958e+74,3.1703527297554595e+73,-7.27871681471896e+73
10.24607426,1.0799197852012197e+74,3.140752825823303e+73,-7.207253137465256e+73
10.25085066,1.0697333225784431e+74,3.1114206225153504e+73,-7.13645325045111e+73
10.25562712,1.0596424337214417e+74,3.082353779430123e+73,-7.066311182095047e+73
10.26040353,1.0496461809969346e+74,3.0535499770587576e+73,-6.996821021598304e+73
10.26517999,1.0397436366394016e+74,3.0250069165551233e+73,-6.927976918287496e+73
10.26995639,1.0299338826612063e+74,2.996722319510102e+73,-6.85977308095709e+73
10.2747328,1.0202160107627546e+74,2.968693927729907e+73,-6.79220377721187e+73
10.27950926,1.0105891222427166e+74,2.940919503018327e+73,-6.725263332809573e+73
10.28428566,1.0010523279083352e+74,2.9133968269627815e+73,-6.658946131003832e+73
10.28906207,9.916047479858453e+73,2.886123700724096e+73,-6.593246611887611e+73
10.29383853,9.822455120310236e+73,2.8590979448299226e+73,-6.528159271737226e+73
10.29861494,9.729737588398892e+73,2.832317398971724e+73,-6.463678662357152e+73
10.30339134,9.637886363595724e+73,2.8057799218052222e+73,-6.399799390425752e+73
10.3081678,9.54689301599373e+73,2.779483390754242e+73,-6.336516116842181e+73
10.31294421,9.456749205420191e+73,2.75342570181791e+73,-6.273823556074664e+73
10.31772061,9.36744668055139e+73,2.7276047693811374e+73,-6.211716475510372e+73
10.32249707,9.278977278029635e+73,2.7020185260283e+73,-6.150189694807183e+73
10.32727348,9.191332921582865e+73,2.6766649223600267e+73,-6.089238085247531e+73
10.33204988,9.104505621147012e+73,2.6515419268130006e+73,-6.028856569094578e+73
10.33682634,9.018487471991294e+73,2.626647525482669e+73,-5.969040118950834e+73
10.34160275,8.933270653846563e+73,2.601979721948792e+73,-5.909783757119397e+73
10.34637915,8.848847430036891e+73,2.5775365371037223e+73,-5.851082554967953e+73
10.35115561,8.765210146614475e+73,2.5533160089833508e+73,-5.792931632295704e+73
10.35593202,8.682351231497921e+73,2.529316192600648e+73,-5.735326156703349e+73
10.36070842,8.600263193613915e+73,2.5055351597817285e+73,-5.678261342966318e+73
10.36548488,8.518938622042278e+73,2.4819709990043765e+73,-5.621732452411482e+73
10.37026129,8.438370185164478e+73,2.458621815238974e+73,-5.565734792297516e+73
10.3750377,8.358550629815665e+73,2.4354857297917687e+73,-5.510263715199192e+73
10.37981415,8.279472780440257e+73,2.4125608801504176e+73,-5.4553146183958894e+73
10.38459056,8.201129538251138e+73,2.3898454198317498e+73,-5.400882943264554e+73
10.38936697,8.123513880392528e+73,2.3673375182316877e+73,-5.346964174677381e+73
10.39414342,8.046618859106616e+73,2.3450353604772768e+73,-5.293553840404459e+73
10.39891983,7.970437600904111e+73,2.3229371472807696e+73,-5.240647510521635e+73
10.40369624,7.894963305738835e+73,2.30104109479571e+73,-5.1882407968238047e+73
10.4084727,7.820189246186531e+73,2.2793454344749576e+73,-5.136329352243879e+73
10.4132491,7.746108766628033e+73,2.25784841293058e+73,-5.084908870277637e+73
10.41802551,7.672715282436911e+73,2.2365482917955536e+73,-5.0339750844146836e+73
10.42280197,7.600002279171682e+73,2.2154433475872036e+73,-4.983523767575708e+73
10.42757837,7.527963311772783e+73,2.1945318715723297e+73,-4.933550731556216e+73
10.43235478,7.456592003764517e+73,2.17381216963396e+73,-4.884051826476877e+73
10.43713124,7.385882046462096e+73,2.153282562139691e+73,-4.835022940240674e+73
10.44190764,7.315827198183923e+73,2.1329413838115703e+73,-4.7864599979970135e+73
10.44668405,7.246421283469224e+73,2.1127869835974885e+73,-4.738358961612987e+73
10.45146051,7.177658192301161e+73,2.092817724544061e+73,-4.6907158291519516e+73
10.45623691,7.109531879335556e+73,2.0730319836709623e+73,-4.643526634359598e+73
10.46101332,7.042036363135321e+73,2.0534281518466832e+73,-4.596787446157698e+73
10.46578978,6.975165725410782e+73,2.034004633665679e+73,-4.550494368145686e+73
10.47056619,6.908914110266013e+73,2.014759847326883e+73,-4.504643538110211e+73
10.47534259,6.843275723451268e+73,1.9956922245135334e+73,-4.4592311275428105e+73
10.48011905,6.778244831621674e+73,1.976800210274276e+73,-4.414253341165807e+73
10.48489546,6.713815761602382e+73,1.9580822629055202e+73,-4.369706416466543e+73
10.48967186,6.649982899660339e+73,1.9395368538350302e+73,-4.325586623240031e+73
10.49444832,6.586740690782747e+73,1.921162467506736e+73,-4.281890263140102e+73
10.49922473,6.524083637962354e+73,1.9029576012667388e+73,-4.2386136692391114e+73
10.50400113,6.46200630148965e+73,1.8849207652504677e+73,-4.195753205596263e+73
10.50877759,6.400503298252018e+73,1.867050482270941e+73,-4.153305266834552e+73
10.513554,6.339569301039835e+73,1.849345287708085e+73,-4.1112662777263134e+73
10.5183304,6.279199037859556e+73,1.8318037293990864e+73,-4.069632692787348e+73
10.52310686,6.219387291253819e+73,1.8144243675297347e+73,-4.0284009958795686e+73
10.52788327,6.160128897628559e+73,1.7972057745267178e+73,-3.987567699822114e+73
10.53265967,6.101418746587156e+73,1.7801465349508435e+73,-3.9471293460107926e+73
10.53743613,6.043251780271657e+73,1.763245245391172e+73,-3.907082504045733e+73
10.54221254,5.985622992711154e+73,1.746500514360043e+73,-3.867423771367114e+73
10.54698894,5.928527429177412e+73,1.729910962188964e+73,-3.8281497728988524e+73
10.5517654,5.871960185547761e+73,1.7134752209253357e+73,-3.7892571607000823e+73
10.55654181,5.815916407675301e+73,1.6971919342300113e+73,-3.7507426136243093e+73
10.56131822,5.760391290766469e+73,1.681059757275654e+73,-3.7126028369861564e+73
10.56609467,5.705380078765962e+73,1.6650773566458845e+73,-3.674834562235647e+73
10.57087108,5.650878063749019e+73,1.649243410235219e+73,-3.6374345466400134e+73
10.57564749,5.5968805853210967e+73,1.633556607149808e+73,-3.6003995729730065e+73
10.58042395,5.5433830300249376e+73,1.6180156476089685e+73,-3.5637264492117005e+73
10.58520035,5.490380830754965e+73,1.6026192428475054e+73,-3.527412008240744e+73
10.58997676,5.4378694661789804e+73,1.58736611501882e+73,-3.49145310756401e+73
10.59475322,5.385844460167145e+73,1.5722549970988104e+73,-3.455846629023569e+73
10.59952962,5.3343013812282445e+73,1.5572846327905723e+73,-3.4205894785258546e+73
10.60430603,5.2832358419532364e+73,1.542453776429904e+73,-3.385678585774934e+73
10.60908249,5.2326434984660445e+73,1.5277611928916238e+73,-3.351110904012765e+73
10.61385889,5.1825200498815284e+73,1.513205657496707e+73,-3.316883409766305e+73
10.6186353,5.132861237770579e+73,1.498785955920236e+73,-3.2829931026013427e+73
10.62341176,5.083662845632309e+73,1.4845008841001657e+73,-3.249437004882913e+73
10.62818816,5.0349206983732964e+73,1.4703492481469068e+73,-3.216212161542143e+73
10.63296457,4.986630661793824e+73,1.4563298642537403e+73,-3.183315639849369e+73
10.63774103,4.938788642081037e+73,1.4424415586080754e+73,-3.15074452919336e+73
10.64251744,4.891390585308915e+73,1.4286831673035503e+73,-3.118495940866455e+73
10.64729384,4.8444324769449814e+73,1.4150535362529858e+73,-3.0865670078554414e+73
10.6520703,4.7979103413636866e+73,1.4015515211021942e+73,-3.054954884638003e+73
10.65684671,4.751820241366372e+73,1.3881759871446255e+73,-3.023656746984586e+73
10.66162311,4.706158277707699e+73,1.3749258092368444e+73,-2.9926697917655337e+73
10.66639957,4.6609205886284677e+73,1.3617998717148207e+73,-2.961991236763342e+73
10.67117598,4.616103349394752e+73,1.348797068311024e+73,-2.931618320489902e+73
10.67595238,4.5717027718433024e+73,1.3359163020723095e+73,-2.9015483020085784e+73
10.68072884,4.527715103933173e+73,1.3231564852785866e+73,-2.871778460760974e+73
10.68550525,4.484136629303509e+73,1.3105165393622585e+73,-2.8423060963982524e+73
10.69028165,4.44096366683743e+73,1.2979953948284228e+73,-2.813128528616867e+73
10.69505811,4.398192570231984e+73,1.2855919911758176e+73,-2.7842430969985464e+73
10.69983452,4.3558197275741624e+73,1.2733052768185023e+73,-2.7556471608543773e+73
10.70461092,4.31384156092293e+73,1.2611342090082647e+73,-2.7273380990728022e+73
10.70938738,4.272254525897271e+73,1.2490777537577572e+73,-2.6993133099713578e+73
10.71416379,4.231055111270227e+73,1.2371348857643523e+73,-2.6715702111519594e+73
10.7189402,4.190239838568918e+73,1.2253045883347139e+73,-2.6441062393595457e+73
10.72371665,4.149805261680506e+73,1.2135858533100704e+73,-2.6169188503439204e+73
10.72849306,4.109747966464058e+73,1.2019776809921868e+73,-2.590005518724653e+73
10.73326947,4.070064570368266e+73,1.1904790800700239e+73,-2.5633637378589292e+73
10.73804592,4.0307517220550006e+73,1.179089067547072e+73,-2.5369910197122266e+73
10.74282233,3.9918061010287084e+73,1.167806668669358e+73,-2.5108848947317187e+73
10.74759874,3.953224417271695e+73,1.156630916854131e+73,-2.4850429117223196e+73
10.7523752,3.9150034108852925e+73,1.1455608536192272e+73,-2.4594626377252923e+73
10.7571516,3.8771398517369234e+73,1.1345955285131093e+73,-2.4341416578993554e+73
10.76192801,3.8396305391130695e+73,1.1237339990455773e+73,-2.4090775754042355e+73
10.76670447,3.802472301378138e+73,1.1129753306191421e+73,-2.384268011286582e+73
10.77148087,3.7656619956392343e+73,1.1023185964610572e+73,-2.3597106043681537e+73
10.77625728,3.72919650741681e+73,1.091762877555999e+73,-2.3354030111361896e+73
10.78103374,3.6930727503211057e+73,1.0813072625793832e+73,-2.3113429056358628e+73
10.78581014,3.657287665734324e+73,1.0709508478312989e+73,-2.2875279793647435e+73
10.79058655,3.621838222498463e+73,1.0606927371710463e+73,-2.263955941169191e+73
10.79536301,3.5867214166086934e+73,1.0505320419522604e+73,-2.240624517142592e+73
10.80013941,3.5519342709121785e+73,1.0404678809586107e+73,-2.2175314505253695e+73
10.80491582,3.517473834812203e+73,1.03049938034007e+73,-2.19467450160671e+73
10.80969223,3.483337183977534e+73,1.0206256735497503e+73,-2.1720514476279598e+73
10.81446869,3.449521420056884e+73,1.010845901281301e+73,-2.1496600826876288e+73
10.81924509,3.416023670398404e+73,1.0011592114068654e+73,-2.1274982176479584e+73
10.82402155,3.3828410877741146e+73,9.915647589155846e+72,-2.1055636800429936e+73
10.82879796,3.3499708501091954e+73,9.820617058526397e+72,-2.083854313988113e+73
10.83357436,3.317410160216054e+73,9.726492212588257e+72,-2.0623679800909683e+73
10.83835077,3.285156245533061e+73,9.63326481110654e+72,-2.0411025553637773e+73
10.84312723,3.253206357867844e+73,9.540926682609892e+72,-2.0200559331368942e+73
10.84790363,3.2215577731450206e+73,9.449469723802255e+72,-1.9992260229735872e+73
10.85268004,3.1902077911582803e+73,9.358885898980159e+72,-1.9786107505859682e+73
10.8574565,3.1591537353267215e+73,9.269167239455588e+72,-1.9582080577520344e+73
10.8622329,3.128392952455352e+73,9.180305842984478e+72,-1.93801590223381e+73
10.86700931,3.0979228124996443e+73,9.09229387320092e+72,-1.9180322576965544e+73
10.87178577,3.067740708334018e+73,9.005123559057272e+72,-1.8982551136289963e+73
10.87656217,3.03784405552414e+73,8.918787194270392e+72,-1.8786824752645425e+73
10.88133858,3.00823029210293e+73,8.833277136774322e+72,-1.859312363503435e+73
10.88611504,2.97889687835018e+73,8.748585808179733e+72,-1.8401428148358107e+73
10.89089145,2.949841296575712e+73,8.664705693240357e+72,-1.8211718812656187e+73
10.89566785,2.9210610509060345e+73,8.58162933932659e+72,-1.8023976302353395e+73
10.90044431,2.8925536670744534e+73,8.499349355906347e+72,-1.7838181445514635e+73
10.90522072,2.864316692214602e+73,8.417858414033235e+72,-1.7654315223107103e+73
10.90999712,2.836347694657358e+73,8.337149245842003e+72,-1.7472358768269602e+73
10.91477358,2.808644263731109e+73,8.25721464405129e+72,-1.729229336558872e+73
10.91954999,2.7812040095652932e+73,8.178047461473589e+72,-1.711410045038156e+73
10.92432639,2.754024562897177e+73,8.09964061053236e+72,-1.6937761607984534e+73
10.92910285,2.727103574881799e+73,8.021987062786166e+72,-1.6763258573047684e+73
10.93387926,2.700438716905004e+73,7.945079848459777e+72,-1.6590573228833914e+73
10.93865566,2.674027680399489e+73,7.868912055982126e+72,-1.6419687606522443e+73
10.94343212,2.6478681766637756e+73,7.793476831531019e+72,-1.625058388451576e+73
10.94820853,2.6219579366840208e+73,7.718767378584494e+72,-1.6083244387749413e+73
10.95298494,2.5962947109585863e+73,7.64477695747874e+72,-1.5917651587004004e+73
10.95776139,2.570876269325308e+73,7.571498884972443e+72,-1.5753788098218857e+73
10.9625378,2.5457004007914068e+73,7.498926533817414e+72,-1.5591636681807e+73
10.96731421,2.5207649133659828e+73,7.427053332335381e+72,-1.5431180241970876e+73
10.97209066,2.4960676338950403e+73,7.355872764000757e+72,-1.527240182601827e+73
10.97686707,2.471606407898989e+73,7.285378367029205e+72,-1.5115284623677928e+73
10.98164348,2.447379099412558e+73,7.215563733971745e+72,-1.4959811966414547e+73
10.98641988,2.4233835908270463e+73,7.146422511314132e+72,-1.4805967326742968e+73
10.99119634,2.3996177827348426e+73,7.077948399081257e+72,-1.4653734317541406e+73
10.99597275,2.376079593776125e+73,7.010135150446296e+72,-1.450309669136356e+73
11.00074915,2.352766960487677e+73,6.942976571344374e+72,-1.4354038339749485e+73
11.00552561,2.3296778371537415e+73,6.876466520090426e+72,-1.4206543292535123e+73
11.01030202,2.3068101956588428e+73,6.810598907000954e+72,-1.4060595717160365e+73
11.01507842,2.2841620253424823e+73,6.74536769401942e+72,-1.3916179917975473e+73
11.01985488,2.26173133285563e+73,6.680766894344979e+72,-1.377328033554556e+73
11.02463129,2.2395161420189164e+73,6.616790572064276e+72,-1.3631881545952917e+73
11.0294077,2.2175144936824308e+73,6.553432841786084e+72,-1.3491968260097077e+73
11.03418415,2.1957244455870188e+73,6.490687868278482e+72,-1.3353525322992576e+73
11.03896056,2.174144072226975e+73,6.428549866108399e+72,-1.3216537713064328e+73
11.04373697,2.152771464714036e+73,6.367013099283337e+72,-1.3080990541440665e+73
11.04851342,2.13160473064259e+73,6.306071880895167e+72,-1.2946869051244023e+73
11.05328983,2.110641993956044e+73,6.24572057276588e+72,-1.281415861687951e+73
11.05806624,2.0898813948142898e+73,6.185953585095189e+72,-1.268284474332146e+73
11.06284264,2.06932108946223e+73,6.126765376109882e+72,-1.2552913065398044e+73
11.0676191,2.0489592500993313e+73,6.0681504517148224e+72,-1.2424349347074016e+73
11.07239551,2.0287940647501873e+73,6.010103365145533e+72,-1.2297139480731703e+73
11.07717191,2.008823737136062e+73,5.952618716622284e+72,-1.2171269486450357e+73
11.08194837,1.9890464865473906e+73,5.8956911530056236e+72,-1.2046725511283977e+73
11.08672478,1.9694605477171947e+73,5.839315367453328e+72,-1.1923493828537684e+73
11.09150118,1.9500641706953828e+73,5.783486099078796e+72,-1.1801560837042664e+73
11.09627764,1.930855620723898e+73,5.728198132610936e+72,-1.1680913060429742e+73
11.10105405,1.9118331781126954e+73,5.673446298055649e+72,-1.156153714640161e+73
11.10583046,1.892995138116543e+73,5.619225470359017e+72,-1.1443419866003659e+73
11.11060691,1.87433981081262e+73,5.565530569072322e+72,-1.1326548112893389e+73
11.11538332,1.8558655209788774e+73,5.512356558018984e+72,-1.1210908902608338e+73
11.12015973,1.8375706079731075e+73,5.459698444963538e+72,-1.1096489371832436e+73
11.12493619,1.8194534256126904e+73,5.407551281282695e+72,-1.0983276777660708e+73
11.12971259,1.801512342054985e+73,5.355910161638582e+72,-1.0871258496862117e+73
11.134489,1.7837457396783347e+73,5.304770223654184e+72,-1.076042202514038e+73
11.13926546,1.7661520149636747e+73,5.2541266475910686e+72,-1.0650754976392673e+73
11.14404186,1.7487295783767248e+73,5.203974656029417e+72,-1.0542245081966106e+73
11.14881827,1.7314768542507815e+73,5.1543095135503955e+72,-1.0434880189911853e+73
11.15359473,1.7143922806701093e+73,5.105126526420907e+72,-1.0328648264236756e+73
11.15837113,1.697474309353945e+73,5.05642104228074e+72,-1.0223537384152212e+73
11.16314754,1.6807214055411224e+73,5.008188449832192e+72,-1.0119535743320163e+73
11.16792394,1.664132047875333e+73,4.960424178532177e+72,-1.0016631649096117e+73
11.1727004,1.6477047282910382e+73,4.913123698286825e+72,-9.914813521769078e+72
11.17747681,1.6314379519000146e+73,4.8662825191486016e+72,-9.814069893798352e+72
11.18225322,1.6153302368785387e+73,4.819896191016008e+72,-9.714389409047315e+72
11.18702967,1.5993801143551965e+73,4.773960303335944e+72,-9.615760822014211e+72
11.19180608,1.5835861282993297e+73,4.728470484808772e+72,-9.518172997060078e+72
11.19658249,1.5679468354101196e+73,4.683422403096183e+72,-9.421614907633905e+72
11.20135894,1.5524608050063152e+73,4.638811764531845e+72,-9.32607563549517e+72
11.20613535,1.5371266189166132e+73,4.5946343138348345e+72,-9.231544369933858e+72
11.21091176,1.5219428713706947e+73,4.550885833825789e+72,-9.138010406988068e+72
11.21568822,1.506908168890925e+73,4.507562145145763e+72,-9.045463148659229e+72
11.22046462,1.4920211301847294e+73,4.4646591059777315e+72,-8.953892102124933e+72
11.22524103,1.4772803860376483e+73,4.422172611770717e+72,-8.863286878949458e+72
11.23001749,1.462684579207094e+73,4.380098594966506e+72,-8.77363719429202e+72
11.23479389,1.4482323643168146e+73,4.338433024728926e+72,-8.684932866112796e+72
11.2395703,1.4339224077520645e+73,4.2971719066757096e+72,-8.5971638143768e+72
11.24434671,1.4197533875554707e+73,4.256311282612948e+72,-8.51032006025575e+72
11.24912316,1.4057239933235959e+73,4.215847230272166e+72,-8.424391725328113e+72
11.25389957,1.3918329261041892e+73,4.1757758630500315e+72,-8.339369030777529e+72
11.25867598,1.3780788982941062e+73,4.136093329750662e+72,-8.255242296589926e+72
11.26345244,1.3644606335378914e+73,4.096795814330502e+72,-8.172001940749594e+72
11.26822884,1.3509768666270267e+73,4.0578795356457275e+72,-8.089638478434512e+72
11.27300525,1.3376263433998394e+73,4.0193407472020986e+72,-8.008142521211272e+72
11.27778171,1.3244078206420679e+73,3.9811757369072e+72,-7.927504776229966e+72
11.28255811,1.3113200659880776e+73,3.943380826825007e+72,-7.847716045419436e+72
11.28733452,1.2983618578227286e+73,3.905952372932674e+72,-7.76876722468324e+72
11.29211098,1.2855319851838896e+73,3.868886764879429e+72,-7.690649303096672e+72
11.29688738,1.2728292476655962e+73,3.8321804257474376e+72,-7.613353362105229e+72
11.30166379,1.2602524553218453e+73,3.795829811814501e+72,-7.536870574724803e+72
11.30644025,1.2478004285710267e+73,3.7598314123184835e+72,-7.461192204743928e+72
11.31121665,1.235471998100989e+73,3.724181749223365e+72,-7.386309605928384e+72
11.31599306,1.2232660047747437e+73,3.688877376986807e+72,-7.31221422122847e+72
11.32076947,1.2111812995368214e+73,3.653914882329153e+72,-7.238897581989236e+72
11.32554592,1.1992167433203011e+73,3.619290884003796e+72,-7.166351307163878e+72
11.33032233,1.1873712069545371e+73,3.585002032568834e+72,-7.094567102530482e+72
11.33509874,1.1756435710736048e+73,3.551045010159923e+72,-7.0235367599122324e+72
11.3398752,1.1640327260254887e+73,3.5174165302642103e+72,-6.953252156401167e+72
11.3446516,1.1525375717820387e+73,3.484113337495263e+72,-6.883705253585546e+72
11.34942801,1.1411570178497135e+73,3.45113220736885e+72,-6.81488809678096e+72
11.35420447,1.1298899831811233e+73,3.4184699460794644e+72,-6.746792814265286e+72
11.35898087,1.1187353960873843e+73,3.386123390277443e+72,-6.67941161651764e+72
11.36375728,1.1076921941512913e+73,3.3540894068465634e+72,-6.612736795461494e+72
11.36853374,1.096759324141306e+73,3.322364892681983e+72,-6.546760723712109e+72
11.37331014,1.0859357419263573e+73,3.2909467744684045e+72,-6.4814758538284385e+72
11.37808655,1.0752204123914434e+73,3.2598320084583982e+72,-6.416874717569626e+72
11.38286301,1.0646123093540368e+73,3.2290175802507946e+72,-6.3529499251562e+72
11.38763941,1.0541104154812802e+73,3.1985005045691123e+72,-6.289694164536007e+72
11.39241582,1.043713722207966e+73,3.168277825039992e+72,-6.22710020065493e+72
11.39719223,1.033421229655302e+73,3.1383466139716083e+72,-6.165160874732419e+72
11.40196868,1.0232319465504578e+73,3.1087039721320574e+72,-6.103869103541822e+72
11.40674509,1.0131448901468879e+73,3.0793470285277335e+72,-6.0432178786955325e+72
11.4115215,1.0031590861454178e+73,3.0502729401817165e+72,-5.983200265934896e+72
11.41629796,9.932735686160851e+72,3.021478891912168e+72,-5.923809404424889e+72
11.42107436,9.8348737992073e+72,2.9929620961107563e+72,-5.865038506053536e+72
11.42585077,9.737995706363348e+72,2.9647197925211335e+72,-5.806880854736055e+72
11.43062723,9.64209199479103e+72,2.9367492480175087e+72,-5.7493298057237755e+72
11.43540363,9.547153332292739e+72,2.9090477563833666e+72,-5.692378784917854e+72
11.44018004,9.453170466566663e+72,2.8816126380904045e+72,-5.63602128818782e+72
11.44495644,9.360134224469456e+72,2.8544412400777564e+72,-5.5802508806949765e+72
11.4497329,9.268035511286221e+72,2.827530935531586e+72,-5.525061196220676e+72
11.45450931,9.176865310007869e+72,2.8008791236651425e+72,-5.470445936499477e+72
11.45928577,9.086614680616037e+72,2.7744832294993546e+72,-5.41639887055719e+72
11.46406217,8.99727475937562e+72,2.748340703644026e+72,-5.362913834053853e+72
11.46883858,8.908836758134945e+72,2.7224490220796937e+72,-5.309984728631649e+72
11.47361499,8.821291963633679e+72,2.696805685940205e+72,-5.257605521267748e+72
11.47839145,8.734631736818553e+72,2.6714082212960473e+72,-5.205770243632066e+72
11.48316785,8.648847512167087e+72,2.646254178938498e+72,-5.1544729914499254e+72
11.48794426,8.5639307970194e+72,2.621341134164655e+72,-5.103707923869643e+72
11.49272072,8.47987317091816e+72,2.596666686563416e+72,-5.053469262835041e+72
11.49749712,8.396666284956727e+72,2.572228459802466e+72,-5.003751292462894e+72
11.50227353,8.314301861135488e+72,2.5480241014163328e+72,-4.954548358425416e+72
11.50704994,8.232771691726474e+72,2.5240512825955644e+72,-4.90585486733787e+72
11.51182639,8.15206763864628e+72,2.500307697977062e+72,-4.857665286151366e+72
11.5166028,8.072181632837304e+72,2.476791065435589e+72,-4.809974141550881e+72
11.52137921,7.993105673657215e+72,2.4534991258764595e+72,-4.7627760193584835e+72
11.52615566,7.914831828276631e+72,2.430429643029409e+72,-4.716065563941713e+72
11.53093207,7.837352231084993e+72,2.4075804032436522e+72,-4.669837477627121e+72
11.53570848,7.760659083104618e+72,2.384949215284154e+72,-4.624086520118932e+72
11.54048494,7.684744651412945e+72,2.3625339101291294e+72,-4.57880750792286e+72
11.54526134,7.609601268572979e+72,2.340332340768817e+72,-4.533995313775083e+72
11.55003775,7.535221332071909e+72,2.318342382005551e+72,-4.489644866076441e+72
11.55481421,7.461597303767915e+72,2.2965619302551434e+72,-4.445751148331862e+72
11.55959061,7.38872170934511e+72,2.2749889033495586e+72,-4.402309198595048e+72
11.56436702,7.316587137776661e+72,2.2536212403408674e+72,-4.359314108918414e+72
11.56914342,7.245186240796121e+72,2.2324569013064313e+72,-4.316761024808257e+72
11.57391988,7.17451173237704e+72,2.2114938671552753e+72,-4.27464514468511e+72
11.57869629,7.104556388220915e+72,2.190730139435604e+72,-4.23296171934927e+72
11.5834727,7.035313045253449e+72,2.170163740143416e+72,-4.191706051451478e+72
11.58824915,6.966774601129059e+72,2.149792711532169e+72,-4.150873494968701e+72
11.59302556,6.898934013743524e+72,2.129615115923467e+72,-4.110459454684922e+72
11.59780197,6.83178430075465e+72,2.109629035518764e+72,-4.070459385676762e+72
11.60257842,6.765318539110835e+72,2.089832572212092e+72,-4.0308687928038336e+72
11.60735483,6.699529864587412e+72,2.0702238474038075e+72,-3.991683230203698e+72
11.61213124,6.634411471330625e+72,2.050801001815379e+72,-3.952898300791347e+72
11.6169077,6.5699566114090415e+72,2.031562195305218e+72,-3.914509655763128e+72
11.6216841,6.5061585943723334e+72,2.0125056066855606e+72,-3.876512994105063e+72
11.62646051,6.4430107868174145e+72,1.9936294335404225e+72,-3.838904062105497e+72
11.63123691,6.380506611961987e+72,1.974931892044665e+72,-3.801678652872043e+72
11.63601337,6.318639549225488e+72,1.9564112167842047e+72,-3.764832605852808e+72
11.64078978,6.257403133817445e+72,1.9380656605774102e+72,-3.72836180636183e+72
11.64556618,6.196790956333235e+72,1.919893494297719e+72,-3.6922621851087294e+72
11.65034264,6.136796662357265e+72,1.901893006697512e+72,-3.656529717732522e+72
11.65511905,6.077413952073518e+72,1.884062504233255e+72,-3.621160424339565e+72
11.65989546,6.0186365798833925e+72,1.8664003108919125e+72,-3.586150369045579e+72
11.66467191,5.960458354030776e+72,1.8489047680186346e+72,-3.551495659521741e+72
11.66944832,5.902873136234254e+72,1.831574234145731e+72,-3.5171924465448528e+72
11.67422473,5.845874841326396e+72,1.814407084822925e+72,-3.4832369235515203e+72
11.67900118,5.789457436900019e+72,1.797401712448887e+72,-3.4496253261963517e+72
11.68377759,5.73361494296131e+72,1.7805565261040524e+72,-3.41635393191414e+72
11.688554,5.6783414315896685e+72,1.7638699513847267e+72,-3.3834190594860433e+72
11.6933304,5.623631026604081e+72,1.7473404302384885e+72,-3.3508170686097606e+72
11.69810686,5.569477903235867e+72,1.7309664208008834e+72,-3.3185443594736897e+72
11.70288327,5.515876287807596e+72,1.7147463972333941e+72,-3.286597372335078e+72
11.70765967,5.4628204574179945e+72,1.6986788495626531e+72,-3.2549725871021804e+72
11.71243613,5.410304739632623e+72,1.682762283520878e+72,-3.2236665229204268e+72
11.71721254,5.358323512180163e+72,1.6669952203874948e+72,-3.1926757377626204e+72
11.72198895,5.306871202654153e+72,1.6513761968319268e+72,-3.1619968280231958e+72
11.7267654,5.255942288220016e+72,1.6359037647575255e+72,-3.1316264281165564e+72
11.73154181,5.2055312953271505e+72,1.6205764911466263e+72,-3.1015612100794737e+72
11.73631822,5.1556327994258485e+72,1.6053929579067203e+72,-3.0717978831775503e+72
11.74109467,5.1062414246888526e+72,1.5903517617177232e+72,-3.0423331935157293e+72
11.74587108,5.057351843737334e+72,1.575451513880308e+72,-3.013163923652811e+72
11.75064749,5.008958777371083e+72,1.5606908401652684e+72,-2.98428689221993e+72
11.75542389,4.96105699430272e+72,1.5460683806638698e+72,-2.9556989535429453e+72
11.76020035,4.913641310895751e+72,1.5315827896391524e+72,-2.9273969972686966e+72
11.76497676,4.8667065909063194e+72,1.517232735378153e+72,-2.8993779479950927e+72
11.76975316,4.820247745228516e+72,1.5030169000450263e+72,-2.8716387649049804e+72
11.77452962,4.774259731643053e+72,1.4889339795350592e+72,-2.8441764414037298e+72
11.77930603,4.728737554569115e+72,1.4749826833295701e+72,-2.816988004760476e+72
11.78408244,4.683676264819103e+72,1.4611617343516995e+72,-2.790070515752954e+72
11.78885884,4.639070959356038e+72,1.447469868823086e+72,-2.7634210683158842e+72
11.7936353,4.594916781053383e+72,1.4339058361214326e+72,-2.7370367891928668e+72
11.79841171,4.551208918457023e+72,1.4204683986389648e+72,-2.710914837591739e+72
11.80318811,4.5079426055491426e+72,1.4071563316417805e+72,-2.6850524048433723e+72
11.80796457,4.4651131215137126e+72,1.393968423130105e+72,-2.6594467140638694e+72
11.81274098,4.422715790503365e+72,1.380903473699468e+72,-2.634095019820161e+72
11.81751738,4.380745981407403e+72,1.3679602964028282e+72,-2.6089946077989832e+72
11.82229384,4.3391991076207236e+72,1.3551377166136706e+72,-2.584142794479197e+72
11.82707025,4.298070626813465e+72,1.3424345718901048e+72,-2.5595369268074223e+72
11.83184665,4.2573560407012345e+72,1.3298497118400116e+72,-2.5351743818769414e+72
11.83662311,4.217050894815762e+72,1.3173819979872757e+72,-2.511052566609834e+72
11.84139952,4.177150778275841e+72,1.3050303036391466e+72,-2.487168917442293e+72
11.84617592,4.137651323558399e+72,1.2927935137547607e+72,-2.4635209000130602e+72
11.85095233,4.098548206269555e+72,1.2806705248148594e+72,-2.440106008854895e+72
11.85572879,4.059837144915536e+72,1.2686602446927358e+72,-2.416921767089001e+72
11.8605052,4.0215139006733e+72,1.256761592526449e+72,-2.393965726122307e+72
11.8652816,3.983574277160752e+72,1.2449734985923282e+72,-2.371235465347507e+72
11.87005806,3.946014120206453e+72,1.2332949041797892e+72,-2.348728591845766e+72
11.87483447,3.908829317618704e+72,1.221724761467488e+72,-2.3264427400920168e+72
11.87961087,3.872015798953939e+72,1.2102620334008293e+72,-2.304375571662789e+72
11.88438733,3.835569535284333e+72,1.1989056935708477e+72,-2.282524774946506e+72
11.88916374,3.799486538964574e+72,1.1876547260944726e+72,-2.260888064856162e+72
11.89394014,3.763762863397761e+72,1.176508125496181e+72,-2.239463182544317e+72
11.89871655,3.728394602800363e+72,1.165464896591049e+72,-2.2182478951203544e+72
11.90349301,3.69337789196618e+72,1.1545240543692025e+72,-2.197239995369938e+72
11.90826941,3.6587089060292364e+72,1.1436846238816719e+72,-2.1764373014765944e+72
11.91304582,3.624383860225496e+72,1.1329456401276579e+72,-2.1558376567453486e+72
11.91782228,3.5903990096533316e+72,1.1223061479432137e+72,-2.13543892932836e+72
11.92259868,3.556750649032691e+72,1.1117652018913516e+72,-2.11523901195252e+72
11.92737509,3.523435112462923e+72,1.1013218661535796e+72,-2.0952358216489502e+72
11.93215155,3.4904487731792187e+72,1.0909752144228735e+72,-2.0754272994843735e+72
11.93692796,3.4577880433076018e+72,1.080724329798085e+72,-2.0558114102942948e+72
11.94170436,3.4254493736184073e+72,1.0705683046797815e+72,-2.036386142417941e+72
11.94648082,3.393429253278223e+72,1.060506240667511e+72,-2.0171495074349285e+72
11.95125723,3.361724209600294e+72,1.0505372484584845e+72,-1.9980995399036284e+72
11.95603363,3.3303308077933804e+72,1.0406604477476549e+72,-1.9792342971012084e+72
11.96081004,3.2992456507090553e+72,1.030874967129171e+72,-1.960551858765326e+72
11.9655865,3.2684653785874093e+72,1.0211799439991977e+72,-1.9420503268374395e+72
11.9703629,3.237986668801149e+72,1.0115745244600844e+72,-1.923727825207687e+72
11.97513931,3.2078062355980438e+72,1.0020578632258605e+72,-1.9055824994613046e+72
11.97991577,3.1779208298416764e+72,9.926291235290341e+71,-1.887612516626554e+72
11.98469217,3.1483272387504558e+72,9.832874770286661e+71,-1.8698160649241434e+72
11.98946858,3.1190222856348578e+72,9.740321037196844e+71,-1.8521913535181355e+72
11.99424504,3.0900028296328768e+72,9.648621918434007e+71,-1.83473661226833e+72
11.99902144,3.0612657654436665e+72,9.557769377991903e+71,-1.8174500914841156e+72
12.00379785,3.0328080230593473e+72,9.46775546057292e+71,-1.800330061679795e+72
12.00857426,3.0046265674949594e+72,9.37857229072693e+71,-1.7833748133313935e+72
12.01335072,2.9767183985165322e+72,9.290212072000575e+71,-1.7665826566349753e+72
12.01812712,2.9490805503672522e+72,9.20266708609668e+71,-1.749951921266492e+72
12.02290353,2.9217100914917224e+72,9.11592969204344e+71,-1.7334809561432102e+72
12.02767999,2.894604124258329e+72,9.029992325373126e+71,-1.7171681291867423e+72
12.03245639,2.867759784679745e+72,8.944847497310097e+71,-1.7010118270877167e+72
12.0372328,2.8411742421315922e+72,8.860487793967994e+71,-1.685010455072122e+72
12.04200926,2.8148446990692946e+72,8.776905875556019e+71,-1.669162436669359e+72
12.04678566,2.7887683907431793e+72,8.694094475594178e+71,-1.6534662134820338e+72
12.05156207,2.7629425849118865e+72,8.6120464001373395e+71,-1.6379202449575357e+72
12.05633848,2.7373645815541303e+72,8.530754527007839e+71,-1.6225230081614517e+72
12.06111494,2.7120317125788577e+72,8.450211805036362e+71,-1.607272997552872e+72
12.06589134,2.6869413415338492e+72,8.370411253310926e+71,-1.5921687247616476e+72
12.07066775,2.662090863312823e+72,8.291345960433787e+71,-1.5772087183676499e+72
12.07544421,2.6374777038611114e+72,8.213009083786193e+71,-1.5623915236820823e+72
12.08022061,2.613099319880003e+72,8.135393848800886e+71,-1.5477157025308875e+72
12.08499702,2.5889531985298507e+72,8.058493548242277e+71,-1.5331798330402855e+72
12.08977342,2.5650368571320522e+72,7.982301541494159e+71,-1.5187825094244884e+72
12.09454988,2.5413478428700073e+72,7.906811253854855e+71,-1.5045223417756341e+72
12.09932629,2.517883732489161e+72,7.83201617583967e+71,-1.4903979558559653e+72
12.1041027,2.4946421319962273e+72,7.757909862490545e+71,-1.4764079928922813e+72
12.10887915,2.4716206763576984e+72,7.684485932692805e+71,-1.4625511093726825e+72
12.11365556,2.448817029197761e+72,7.611738068498906e+71,-1.448825976845629e+72
12.11843197,2.4262288824957165e+72,7.53966001445912e+71,-1.4352312817213425e+72
12.12320837,2.4038539562830057e+72,7.468245576959033e+71,-1.4217657250755832e+72
12.12798483,2.381689998339948e+72,7.397488623563759e+71,-1.408428022455823e+72
12.13276124,2.359734783892326e+72,7.327383082368801e+71,-1.3952169036898401e+72
12.13753764,2.337986115307931e+72,7.25792294135753e+71,-1.3821311126967495e+72
12.1423141,2.3164418217931696e+72,7.189102247765265e+71,-1.3691694073004793e+72
12.14709051,2.2950997590898343e+72,7.120915107449868e+71,-1.3563305590456911e+72
12.15186691,2.2739578091721408e+72,7.0533556842688215e+71,-1.3436133530161386e+72
12.15664337,2.2530138799441423e+72,6.986418199462768e+71,-1.3310165876554588e+72
12.16141978,2.232265904937632e+72,6.92009693104552e+71,-1.318539074590395e+72
12.16619618,2.2117118430106377e+72,6.854386213200505e+71,-1.3061796384564428e+72
12.17097264,2.191349678046608e+72,6.789280435683605e+71,-1.2939371167259085e+72
12.17574905,2.1711774186543764e+72,6.7247740432324e+71,-1.28181035953837e+72
12.18052546,2.1511930978690027e+72,6.660861534981866e+71,-1.2697982295335218e+72
12.18530186,2.1313947728535996e+72,6.597537463886565e+71,-1.2578996016863875e+72
12.19007832,2.111780524602262e+72,6.534796436149354e+71,-1.2461133631448788e+72
12.19485473,2.0923484576442204e+72,6.4726331106566e+71,-1.234438413069686e+72
12.19963113,2.073096699749324e+72,6.411042198419872e+71,-1.222873662476482e+72
12.20440759,2.054023401634948e+72,6.350018462024011e+71,-1.2114180340804282e+72
12.209184,2.035126736674434e+72,6.289556715081446e+71,-1.2000704621429751e+72
12.2139604,2.016404900607155e+72,6.229651821692575e+71,-1.1888298923209518e+72
12.21873686,1.997856111250319e+72,6.170298695912062e+71,-1.1776952815179344e+72
12.22351327,1.9794786082126046e+72,6.111492301220831e+71,-1.1666655977378884e+72
12.22828967,1.9612706526097227e+72,6.053227650003537e+71,-1.1557398199410681e+72
12.23306613,1.94323052678202e+72,5.995499803031363e+71,-1.144916937902168e+72
12.23784254,1.925356534014218e+72,5.938303868950029e+71,-1.1341959520707093e+72
12.24261894,1.907646998257383e+72,5.881635003772839e+71,-1.1235758734336341e+72
12.24739535,1.8901002638532146e+72,5.825488410378634e+71,-1.1130557233800873e+72
12.25217181,1.8727146952607493e+72,5.769859338014565e+71,-1.1026345335683686e+72
12.25694822,1.8554886767855582e+72,5.71474308180365e+71,-1.0923113457950361e+72
12.26172462,1.8384206123115247e+72,5.660134982257124e+71,-1.082085211866133e+72
12.26650103,1.8215089250352593e+72,5.606030424791554e+71,-1.07195519347051e+72
12.27127749,1.8047520572032215e+72,5.55242483925071e+71,-1.0619203620552193e+72
12.27605389,1.788148469851606e+72,5.499313699432172e+71,-1.0519797987029547e+72
12.2808303,1.7716966425490593e+72,5.446692522618708e+71,-1.0421325940115075e+72
12.28560676,1.7553950731422921e+72,5.394556869114395e+71,-1.0323778479752018e+72
12.29038316,1.73924227750463e+72,5.342902341785474e+71,-1.0227146698682843e+72
12.29515957,1.72323678928756e+72,5.291724585605924e+71,-1.013142178130253e+72
12.29993603,1.7073771596752989e+72,5.241019287207782e+71,-1.003659500253095e+72
12.30471244,1.691661957142387e+72,5.190782174436141e+71,-9.942657726704082e+71
12.30948884,1.676089767214304e+72,5.141009015908789e+71,-9.849601406483695e+71
12.31426525,1.6606591922310921e+72,5.091695620580389e+71,-9.757417581785168e+71
12.31904171,1.6453688511139783e+72,5.042837837311111e+71,-9.666097878723068e+71
12.32381811,1.630217379134975e+72,4.994431554439659e+71,-9.575634008573979e+71
12.32859452,1.6152034276894383e+72,4.946472699360708e+71,-9.486017766756039e+71
12.33337098,1.6003256640715523e+72,4.89895723810677e+71,-9.397241031824522e+71
12.33814738,1.585582771252718e+72,4.851881174934597e+71,-9.309295764482974e+71
12.34292379,1.570973447662825e+72,4.805240551916207e+71,-9.222174006609467e+71
12.3477002,1.5564964069743908e+72,4.759031448534613e+71,-9.135867880297575e+71
12.35247665,1.5421503778895552e+72,4.713249981284253e+71,-9.050369586911726e+71
12.35725306,1.527934103929906e+72,4.667892303276155e+71,-8.96567140615657e+71
12.36202947,1.513846343229118e+72,4.622954603847872e+71,-8.881765695160088e+71
12.36680592,1.4998858683283963e+72,4.578433108178175e+71,-8.798644887570167e+71
12.37158233,1.4860514659747112e+72,4.534324076906559e+71,-8.716301492664431e+71
12.37635874,1.472341936921816e+72,4.490623805757507e+71,-8.634728094473153e+71
12.3811352,1.458756095734033e+72,4.447328625169498e+71,-8.553917350915042e+71
12.3859116,1.445292770592787e+72,4.4044348999287376e+71,-8.473861992945831e+71
12.39068801,1.4319508031058745e+72,4.3619390288075915e+71,-8.394554823719606e+71
12.39546441,1.418729048119433e+72,4.319837444207725e+71,-8.315988717762792e+71
12.40024087,1.405626373532584e+72,4.2781266118079313e+71,-8.238156620160748e+71
12.40501728,1.3926416601147104e+72,4.2368030302166333e+71,-8.161051545756844e+71
12.40979368,1.379773801325331e+72,4.1958632306289716e+71,-8.084666578363965e+71
12.41457014,1.3670217031365272e+72,4.1553037764883834e+71,-8.008994869988399e+71
12.41934655,1.3543842838578845e+72,4.115121263152558e+71,-7.934029640066107e+71
12.42412296,1.3418604739639156e+72,4.0753123175636274e+71,-7.859764174711343e+71
12.42889936,1.3294492159239323e+72,4.0358735979224494e+71,-7.786191825977524e+71
12.43367582,1.3171494640343325e+72,3.9968017933668687e+71,-7.71330601113026e+71
12.43845223,1.3049601842532675e+72,3.9580936236538436e+71,-7.641100211932385e+71
12.44322863,1.2928803540376648e+72,3.9197458388453243e+71,-7.569567973940884e+71
12.44800509,1.280908962182591e+72,3.88175521899776e+71,-7.498702905815476e+71
12.4527815,1.2690450086629415e+72,3.84411857385511e+71,-7.428498678638662e+71
12.4575579,1.2572875044774406e+72,3.8068327425452064e+71,-7.358949025247006e+71
12.46233436,1.2456354714949292e+72,3.7698945932793666e+71,-7.290047739573501e+71
12.46711077,1.2340879423029236e+72,3.733301023055162e+71,-7.221788676000852e+71
12.47188717,1.2226439600584244e+72,3.6970489573622943e+71,-7.154165748725555e+71
12.47666358,1.2113025783409525e+72,3.661135349891509e+71,-7.087172931132613e+71
12.48144004,1.2000628610077846e+72,3.625557182246502e+71,-7.020804255180771e+71
12.48621644,1.188923882051352e+72,3.590311463658749e+71,-6.955053810798051e+71
12.49099285,1.1778847254587538e+72,3.555395230705194e+71,-6.889915745287445e+71
12.49576931,1.166944485073343e+72,3.5208055470287333e+71,-6.825384262742578e+71
12.50054572,1.1561022644583274e+72,3.486539503061454e+71,-6.761453623473097e+71
12.50532212,1.1453571767623314e+72,3.4525942157505695e+71,-6.698118143439493e+71
12.51009853,1.1347083445868807e+72,3.418966828286995e+71,-6.635372193697087e+71
12.51487499,1.1241548998557768e+72,3.385654509836509e+71,-6.573210199848884e+71
12.51965139,1.1136959836863257e+72,3.352654455273439e+71,-6.511626641507021e+71
12.5244278,1.1033307462623896e+72,3.3199638849168113e+71,-6.450616051762582e+71
12.52920426,1.0930583467092232e+72,3.2875800442689054e+71,-6.390173016663566e+71
12.53398066,1.0828779529700674e+72,3.255500203756132e+71,-6.330292174700828e+71
12.53875707,1.0727887416844694e+72,3.2237216584721415e+71,-6.270968216301753e+71
12.54353348,1.0627898980683049e+72,3.1922417279230933e+71,-6.212195883331441e+71
12.54830994,1.052880615795471e+72,3.161057755775032e+71,-6.153969968601143e+71
12.55308634,1.0430600968812225e+72,3.1301671096033256e+71,-6.096285315383654e+71
12.55786275,1.0333275515671273e+72,3.0995671806441047e+71,-6.039136816935403e+71
12.56263921,1.0236821982076234e+72,3.0692553835476383e+71,-5.982519416024941e+71
12.56741561,1.014123263158162e+72,3.039229156133606e+71,-5.926428104467496e+71
12.57219202,1.0046499806649303e+72,3.0094859591482355e+71,-5.870857922665293e+71
12.57696842,9.952615927561369e+71,2.9800232760233e+71,-5.815803959153323e+71
12.58174488,9.859573491348392e+71,2.950838612636941e+71,-5.761261350150301e+71
12.58652129,9.767365070733003e+71,2.92192949707632e+71,-5.7072252791145e+71
12.5912977,9.67598331308861e+71,2.8932934794021015e+71,-5.653690976304219e+71
12.59607415,9.585420939413137e+71,2.8649281314147856e+71,-5.600653718342631e+71
12.60085056,9.4956707433176e+71,2.8368310464229072e+71,-5.54810882778683e+71
12.60562697,9.406725590029286e+71,2.8089998390131477e+71,-5.496051672700813e+71
12.61040337,9.318578415409397e+71,2.781432144822394e+71,-5.444477666232249e+71
12.61517983,9.23122222498508e+71,2.754125620311776e+71,-5.393382266192815e+71
12.61995624,9.14465009299584e+71,2.727077942542712e+71,-5.3427609746419955e+71
12.62473264,9.058855161454294e+71,2.700286808954986e+71,-5.292609337474256e+71
12.6295091,8.973830639221274e+71,2.6737499371468464e+71,-5.242922944009491e+71
12.63428551,8.889569801095327e+71,2.647465064657155e+71,-5.193697426586697e+71
12.63906191,8.806065986916654e+71,2.62142994874961e+71,-5.144928460160831e+71
12.64383832,8.723312600685553e+71,2.5956423661990586e+71,-5.09661176190279e+71
12.64861478,8.641303109695347e+71,2.57010011307993e+71,-5.048743090802496e+71
12.65339118,8.560031043679739e+71,2.5448010045568066e+71,-5.001318247275024e+71
12.65816759,8.479489993974426e+71,2.5197428746771696e+71,-4.954333072769742e+71
12.66294405,8.39967361269283e+71,2.4949235761663615e+71,-4.907783449382446e+71
12.66772046,8.320575611915853e+71,2.470340980224797e+71,-4.861665299470447e+71
12.67249686,8.242189762895531e+71,2.4459929763274602e+71,-4.815974585270508e+71
12.67727332,8.164509895272368e+71,2.42187747202574e+71,-4.770707308519594e+71
12.68204973,8.0875298963062e+71,2.397992392751649e+71,-4.725859510078346e+71
12.68682613,8.011243710120473e+71,2.374335681624446e+71,-4.681427269557195e+71
12.69160254,7.935645336959842e+71,2.350905299259707e+71,-4.637406704945053e+71
12.696379,7.860728832460983e+71,2.327699223580867e+71,-4.59379397224055e+71
12.7011554,7.7864883069365085e+71,2.3047154496332903e+71,-4.550585265085752e+71
12.70593181,7.712917924671834e+71,2.281951989400908e+71,-4.507776814402281e+71
12.71070827,7.640011903234879e+71,2.2594068716254565e+71,-4.46536488802975e+71
12.71548467,7.567764512798421e+71,2.2370781416283486e+71,-4.423345790366414e+71
12.72026108,7.496170075474958e+71,2.2149638611351956e+71,-4.381715862011967e+71
12.72503749,7.425222964663956e+71,2.1930621081030033e+71,-4.340471479412355e+71
12.72981394,7.3549176044114e+71,2.1713709765500428e+71,-4.299609054506547e+71
12.73459035,7.285248468781647e+71,2.149888576388407e+71,-4.2591250343751827e+71
12.73936676,7.216210081241538e+71,2.1286130332592639e+71,-4.2190159008910797e+71
12.74414322,7.147797014056685e+71,2.1075424883708055e+71,-4.179278170371577e+71
12.74891962,7.08000388769979e+71,2.0866750983388703e+71,-4.139908393232728e+71
12.75369603,7.012825370270875e+71,2.066009035030202e+71,-4.1009031536453367e+71
12.75847244,6.9462561769293e+71,2.0455424854082957e+71,-4.062259069192839e+71
12.76324889,6.880291069337416e+71,2.025273651381784e+71,-4.0239727905310084e+71
12.7680253,6.814924855115687e+71,2.0052007496553174e+71,-3.986041001049434e+71
12.77280171,6.750152387309122e+71,1.985322011582893e+71,-3.948460416534729e+71
12.77757816,6.685968563864857e+71,1.9656356830235976e+71,-3.911227784835482e+71
12.78235457,6.622368327120669e+71,1.9461400241997348e+71,-3.8743398855289845e+71
12.78713098,6.559346663304185e+71,1.9268333095573132e+71,-3.8377935295897614e+71
12.79190738,6.496898602042504e+71,1.9077138276288577e+71,-3.801585559059979e+71
12.79668384,6.435019215881955e+71,1.8887798808985266e+71,-3.7657128467217625e+71
12.80146025,6.373703619817671e+71,1.8700297856695023e+71,-3.730172295771491e+71
12.80623665,6.312946970832705e+71,1.8514618719336328e+71,-3.6949608394961276e+71
12.81101311,6.252744467446367e+71,1.833074483243319e+71,-3.660075440951694e+71
12.81578952,6.193091349271443e+71,1.814865976585634e+71,-3.625513092643968e+71
12.82056592,6.133982896579956e+71,1.796834722258679e+71,-3.591270816211485e+71
12.82534233,6.075414429877116e+71,1.7789791037501764e+71,-3.5573456621109165e+71
12.83011879,6.017381309483152e+71,1.7612975176182998e+71,-3.523734709304869e+71
12.8348952,5.959878935122768e+71,1.7437883733747542e+71,-3.490435064952184e+71
12.8396716,5.902902745521965e+71,1.726450093370107e+71,-3.457443864100807e+71
12.84444801,5.846448218012003e+71,1.7092811126813585e+71,-3.424758269383285e+71
12.84922447,5.790510868140314e+71,1.6922798790017485e+71,-3.3923754707149573e+71
12.85400087,5.735086249288169e+71,1.6754448525327852e+71,-3.3602926849948767e+71
12.85877728,5.680169952294931e+71,1.658774505878494e+71,-3.328507155809508e+71
12.86355374,5.625757605088686e+71,1.6422673239418618e+71,-3.2970161531392273e+71
12.86833014,5.571844872323069e+71,1.6259218038234604e+71,-3.2658169730676505e+71
12.87310655,5.518427455020106e+71,1.6097364547222222e+71,-3.2349069374938267e+71
12.87788296,5.465501090218898e+71,1.5937097978383293e+71,-3.204283393847343e+71
12.88265941,5.413061550629903e+71,1.5778403662781683e+71,-3.1739437148063762e+71
12.88743582,5.361104644294655e+71,1.5621267049612959e+71,-3.143885298018732e+71
12.89221223,5.3096262142508e+71,1.546567370529352e+71,-3.1141055658259065e+71
12.89698868,5.258622138202269e+71,1.5311609312568567e+71,-3.0846019649902006e+71
12.90176509,5.208088328194409e+71,1.515905966963813e+71,-3.055371966424892e+71
12.9065415,5.158020730293882e+71,1.5008010689300379e+71,-3.026413064927454e+71
12.9113179,5.108415324273107e+71,1.4858448398111226e+71,-2.9977227789158227e+71
12.91609436,5.059268123299087e+71,1.4710358935559293e+71,-2.969298650167706e+71
12.92087077,5.010575173626455e+71,1.456372855325534e+71,-2.941138243562895e+71
12.92564717,4.962332554294659e+71,1.441854361413539e+71,-2.913239146828581e+71
12.93042363,4.914536376829145e+71,1.4274790591676934e+71,-2.8855989702876767e+71
12.93520004,4.867182784946404e+71,1.4132456069127616e+71,-2.858215346610174e+71
12.93997645,4.820267954262791e+71,1.3991526738745833e+71,-2.831085930567535e+71
12.94475285,4.773788092006969e+71,1.3851989401052786e+71,-2.804208398790174e+71
12.94952931,4.727739436735863e+71,1.3713830964095547e+71,-2.777580449528096e+71
12.95430572,4.682118258054027e+71,1.3577038442720677e+71,-2.751199802414757e+71
12.95908212,4.636920856336325e+71,1.3441598957857934e+71,-2.7250641982342107e+71
12.96385853,4.592143562453879e+71,1.3307499735813648e+71,-2.699171398691569e+71
12.96863499,4.547782737503248e+71,1.3174728107573313e+71,-2.673519186186815e+71
12.97341139,4.503834772538875e+71,1.304327150811305e+71,-2.6481053635919793e+71
12.9781878,4.460296088308773e+71,1.2913117475719577e+71,-2.6229277540317044e+71
12.98296426,4.417163134993428e+71,1.278425365131837e+71,-2.597984200667211e+71
12.98774066,4.3744323919478665e+71,1.2656667777809695e+71,-2.5732725664836864e+71
12.99251707,4.33210036744692e+71,1.2530347699412207e+71,-2.548790734081091e+71
12.99729348,4.2901635984336785e+71,1.240528136101387e+71,-2.524536605468361e+71
13.00206994,4.2486186502711367e+71,1.2281456807530014e+71,-2.500508101860975e+71
13.00684634,4.207462116496946e+71,1.2158862183268223e+71,-2.476703163481844e+71
13.01162275,4.166690618581218e+71,1.2037485731299805e+71,-2.4531197493654903e+71
13.01639921,4.126300805687291e+71,1.191731579283763e+71,-2.429755837165477e+71
13.02117561,4.0862893544354166e+71,1.1798340806620193e+71,-2.40660942296504e+71
13.02595202,4.046652968669328e+71,1.168054930830181e+71,-2.383678521090866e+71
13.03072842,4.007388379225625e+71,1.156392992984896e+71,-2.360961163929973e+71
13.03550488,3.968492343705873e+71,1.1448471398942719e+71,-2.338455401749654e+71
13.04028129,3.92996164625129e+71,1.133416253838721e+71,-2.3161593025204154e+71
13.0450577,3.891793097319903e+71,1.1220992265523901e+71,-2.294070951741878e+71
13.04983415,3.8539835334660384e+71,1.1108949591651652e+71,-2.2721884522715595e+71
13.05461056,3.8165298171220546e+71,1.0998023621452299e+71,-2.250509924156478e+71
13.05938697,3.779428836382192e+71,1.088820355242167e+71,-2.2290335044675135e+71
13.06416337,3.7426775047884455e+71,1.0779478674305773e+71,-2.2077573471364453e+71
13.06893983,3.706272761118345e+71,1.0671838368542086e+71,-2.1866796227955856e+71
13.07371624,3.670211569174502e+71,1.0565272107705896e+71,-2.1657985186199228e+71
13.07849264,3.6344909175758376e+71,1.045976945496161e+71,-2.1451122381717098e+71
13.08326905,3.5991078195504314e+71,1.0355320063518956e+71,-2.12461900124744e+71
13.08804551,3.564059312729945e+71,1.0251913676093981e+71,-2.1043170437271464e+71
13.09282191,3.5293424589455423e+71,1.0149540124374687e+71,-2.0842046174259593e+71
13.09759832,3.4949543440252254e+71,1.0048189328491087e+71,-2.0642799899478482e+71
13.10237478,3.4608920775925123e+71,9.947851296489425e+70,-2.0445414445414581e+71
13.10715119,3.4271527928663893e+71,9.848516123810288e+70,-2.0249872799579395e+71
13.11192759,3.39373364646248e+71,9.750173992770372e+70,-2.0056158103106918e+71
13.116704,3.3606318181953763e+71,9.652815172047638e+70,-1.9864253649369538e+71
13.12148046,3.3278445108820965e+71,9.556430016169558e+70,-1.9674142882611605e+71
13.12625686,3.295368950146685e+71,9.461008965004057e+70,-1.948580939659986e+71
13.13103327,3.263202384225966e+71,9.366542543252815e+70,-1.9299236933289938e+71
13.13580973,3.2313420837764764e+71,9.273021359946626e+70,-1.9114409381508236e+71
13.14058613,3.1997853416825984e+71,9.180436107942546e+70,-1.8931310775648398e+71
13.14536254,3.168529472865919e+71,9.088777563422547e+70,-1.8749925294381602e+71
13.15013894,3.1375718140958474e+71,8.998036585393359e+70,-1.8570237259379878e+71
13.1549154,3.1069097238015e+71,8.908204115187216e+70,-1.8392231134051704e+71
13.15969181,3.0765405818848885e+71,8.819271175963179e+70,-1.821589152228931e+71
13.16446822,3.0464617895354213e+71,8.731228872208696e+70,-1.8041203167227169e+71
13.16924462,3.016670769045747e+71,8.644068389241098e+70,-1.786815095001115e+71
13.17402108,2.9871649636289837e+71,8.55778099270881e+70,-1.769671988857802e+71
13.17879749,2.957941837237413e+71,8.472358028092085e+70,-1.752689513644502e+71
13.18357389,2.9289988743827395e+71,8.387790920203116e+70,-1.7358661981509329e+71
13.1883503,2.900333579957997e+71,8.304071172685425e+70,-1.7192005844857336e+71
13.19312676,2.8719434790611625e+71,8.221190367512416e+70,-1.702691227958353e+71
13.19790316,2.8438261168205112e+71,8.13914016448503e+70,-1.6863366969618716e+71
13.20267957,2.815979058221714e+71,8.057912300728385e+70,-1.6701355728567325e+71
13.20745598,2.788399887936673e+71,7.977498590187295e+70,-1.654086449855362e+71
13.21223244,2.7610862101540616e+71,7.89789092312061e+70,-1.6381879349076753e+71
13.21700884,2.734035648411552e+71,7.819081265594242e+70,-1.622438647587457e+71
13.22178525,2.7072458454296735e+71,7.741061658972934e+70,-1.606837219979607e+71
13.22656171,2.6807144629472485e+71,7.663824219410753e+70,-1.5913822965682508e+71
13.23133811,2.6544391815583355e+71,7.587361137340216e+70,-1.5760725341257135e+71
13.23611452,2.628417700550634e+71,7.51166467696007e+70,-1.5609066016023643e+71
13.24089092,2.6026477377452916e+71,7.43672717572165e+70,-1.5458831800173325e+71
13.24566738,2.577127029338079e+71,7.362541043813824e+70,-1.5310009623501015e+71
13.25044379,2.551853329741925e+71,7.28909876364649e+70,-1.5162586534329825e+71
13.2552202,2.5268244114308026e+71,7.216392889332583e+70,-1.5016549698444642e+71
13.25999665,2.502038064784943e+71,7.14441604616862e+70,-1.487188639803434e+71
13.26477306,2.4774920979373624e+71,7.0731609301139e+70,-1.4728584030642683e+71
13.26954947,2.4531843366217087e+71,7.002620307268491e+70,-1.4586630108127868e+71
13.27432587,2.429112624021432e+71,6.932787013350129e+70,-1.4446012255630754e+71
13.27910233,2.4052748206203015e+71,6.863653953170176e+70,-1.4306718210551788e+71
13.28387874,2.3816688040543114e+71,6.795214100108781e+70,-1.4168735821536727e+71
13.28865514,2.3582924689649906e+71,6.727460495589362e+70,-1.4032053047471219e+71
13.29343155,2.335143726854144e+71,6.660386248552553e+70,-1.3896657956484333e+71
13.29820801,2.312220505940047e+71,6.593984534929775e+70,-1.3762538724961195e+71
13.30298441,2.28952075101511e+71,6.528248597116629e+70,-1.3629683636564735e+71
13.30776082,2.267042423305026e+71,6.463171743446258e+70,-1.3498081081266565e+71
13.31253723,2.2447835003294253e+71,6.398747347662832e+70,-1.3367719554387093e+71
13.31731368,2.2227419757640667e+71,6.334968848395333e+70,-1.3238587655644873e+71
13.32209009,2.2009158593046365e+71,6.271829748631801e+70,-1.3110674088215099e+71
13.3268665,2.1793031765322194e+71,6.209323615194228e+70,-1.2983967657797044e+71
13.33164296,2.1579019687805243e+71,6.147444078214252e+70,-1.2858457271690506e+71
13.33641936,2.1367102930049537e+71,6.086184830609757e+70,-1.2734131937881245e+71
13.34119577,2.1157262216536072e+71,6.025539627562514e+70,-1.2610980764135285e+71
13.34597217,2.09494784254031e+71,5.965502285996938e+70,-1.2488992957101989e+71
13.35074863,2.0743732587197523e+71,5.906066684060025e+70,-1.236815782142581e+71
13.35552504,2.054000588364811e+71,5.847226760602544e+70,-1.224846475886652e+71
13.36030145,2.033827964646106e+71,5.788976514661547e+70,-1.212990326742769e+71
13.36507785,2.0138535356138332e+71,5.731310004944284e+70,-1.2012462940493313e+71
13.36985431,1.99407546408189e+71,5.674221349313598e+70,-1.1896133465972317e+71
13.37463072,1.9744919275142945e+71,5.6177047242749e+70,-1.178090462545076e+71
13.37940712,1.9551011179138713e+71,5.561754364464824e+70,-1.166676629335149e+71
13.38418358,1.9359012417131742e+71,5.5063645621416794e+70,-1.1553708436100943e+71
13.38895999,1.9168905196675967e+71,5.4515296666778313e+70,-1.144172111130288e+71
13.39373639,1.8980671867506228e+71,5.3972440840541014e+70,-1.133079446691884e+71
13.3985128,1.879429492051163e+71,5.343502276356214e+70,-1.1220918740455236e+71
13.40328926,1.8609756986729206e+71,5.290298761273342e+70,-1.11120842581569e+71
13.40806566,1.8427040836357316e+71,5.2376281115988263e+70,-1.1004281434206781e+71
13.41284207,1.8246129377788146e+71,5.1854849547331073e+70,-1.0897500769931649e+71
13.41761848,1.8067005656658553e+71,5.133863972188917e+70,-1.079173285301373e+71
13.42239494,1.7889652854918582e+71,5.082759899098784e+70,-1.0686968356708153e+71
13.42717134,1.7714054289916972e+71,5.032167523724916e+70,-1.0583198039066176e+71
13.43194775,1.754019341350296e+71,4.982081686971433e+70,-1.0480412742164128e+71
13.43672415,1.7368053811143758e+71,4.9324972818989494e+70,-1.037860339133804e+71
13.44150061,1.7197619201057025e+71,4.883409253241551e+70,-1.0277760994424047e+71
13.44627702,1.7028873433357527e+71,4.834812596926273e+70,-1.0177876641004598e+71
13.45105342,1.6861800489217244e+71,4.786702359595135e+70,-1.007894150166057e+71
13.45582983,1.6696384480038167e+71,4.739073638129804e+70,-9.980946827229299e+70
13.46060629,1.6532609646637095e+71,4.6919215791788827e+70,-9.883883948068528e+70
13.4653827,1.6370460358441896e+71,4.6452413786878406e+70,-9.78774427332623e+70
13.4701591,1.620992111269849e+71,4.5990282814315787e+70,-9.69251929021627e+70
13.47493551,1.6050976533687782e+71,4.553277580549621e+70,-9.598200563299909e+70
13.47971197,1.589361137195185e+71,4.5079846170839174e+70,-9.504779733773162e+70
13.48448837,1.5737810503528771e+71,4.463144779519308e+70,-9.412248518759956e+70
13.48926478,1.558355892919554e+71,4.418753503326662e+70,-9.320598710610973e+70
13.49404124,1.543084177371862e+71,4.3748062705087175e+70,-9.229822176208087e+70
13.49881764,1.5279644285111664e+71,4.331298609148644e+70,-9.139910856274286e+70
13.50359405,1.512995183390007e+71,4.288226092961329e+70,-9.050856764688981e+70
13.50837046,1.4981749912391948e+71,4.245584340847437e+70,-8.962651987808592e+70
13.51314691,1.4835024133955068e+71,4.203369016450284e+70,-8.875288683792361e+70
13.51792332,1.468976023229932e+71,4.1615758277155757e+70,-8.788759081933277e+70
13.52269973,1.4545944060764403e+71,4.120200526454044e+70,-8.703055481994043e+70
13.52747613,1.4403561591612476e+71,4.0792389079069815e+70,-8.618170253548122e+70
13.53225259,1.4262598915325454e+71,4.038686810314704e+70,-8.534095835325873e+70
13.537029,1.4123042239906758e+71,3.998540114487965e+70,-8.450824734565731e+70
13.5418054,1.3984877890187363e+71,3.9587947433823156e+70,-8.368349526370307e+70
13.54658181,1.3848092307135945e+71,3.919446661675453e+70,-8.286662853067376e+70
13.55135827,1.3712672047172852e+71,3.88049187534756e+70,-8.205757423575678e+70
13.55613467,1.3578603781487667e+71,3.841926431264638e+70,-8.125626012775493e+70
13.56091108,1.344587429536008e+71,3.8037464167648357e+70,-8.046261460883983e+70
13.56568749,1.331447048748393e+71,3.765947959247786e+70,-7.967656672835308e+70
13.57046394,1.318437936929417e+71,3.728527225766937e+70,-7.889804617665596e+70
13.57524035,1.3055588064296507e+71,3.691480422624878e+70,-7.812698327902848e+70
13.58001676,1.292808380739947e+71,3.6548037949716734e+70,-7.736330898961896e+70
13.58479322,1.280185394424884e+71,3.6184936264061876e+70,-7.660695488544488e+70
13.58956962,1.2676885930564323e+71,3.582546238580416e+70,-7.5857853160446e+70
13.59434603,1.255316733147841e+71,3.546957990806791e+70,-7.511593661959054e+70
13.59912244,1.243068582087744e+71,3.511725279668455e+70,-7.438113867303539e+70
13.60389889,1.230942918074488e+71,3.476844538632474e+70,-7.365339333034098e+70
13.6086753,1.218938530050691e+71,3.4423122376660177e+70,-7.293263519474191e+70
13.61345171,1.207054217638032e+71,3.408124882855531e+70,-7.221879945747324e+70
13.61822811,1.1952887910722587e+71,3.3742790160289334e+70,-7.151182189215214e+70
13.62300457,1.1836410711384045e+71,3.340771214380861e+70,-7.081163884921448e+70
13.62778098,1.1721098891062025e+71,3.307598090100973e+70,-7.011818725040594e+70
13.63255738,1.1606940866656828e+71,3.274756290005305e+70,-6.943140458332752e+70
13.63733379,1.1493925158629456e+71,3.242242495170643e+70,-6.875122889603529e+70
13.64211025,1.138204039036102e+71,3.2100534205718967e+70,-6.80775987916943e+70
13.64688665,1.1271275287513685e+71,3.178185814722477e+70,-6.741045342328666e+70
13.65166306,1.1161618677393088e+71,3.1466364593176244e+70,-6.674973248837356e+70
13.65643952,1.105305948831225e+71,3.115402168880643e+70,-6.609537622391135e+70
13.66121592,1.0945586748956981e+71,3.084479790412027e+70,-6.54473254011219e+70
13.66599233,1.0839189587752805e+71,3.053866203041465e+70,-6.48055213204162e+70
13.67076874,1.0733857232233415e+71,3.02355831768271e+70,-6.416990580637036e+70
13.6755452,1.0629579008410705e+71,2.993553076691321e+70,-6.354042120275324e+70
13.6803216,1.0526344340146435e+71,2.9638474535252655e+70,-6.291701036760527e+70
13.68509801,1.0424142748525619e+71,2.9344384524083595e+70,-6.229961666836818e+70
13.68987441,1.0322963851231735e+71,2.90532310799655e+70,-6.16881839770656e+70
13.69465087,1.0222797361923755e+71,2.876498485047012e+70,-6.108265666553428e+70
13.69942728,1.0123633089614906e+71,2.847961678090078e+70,-6.048297960070594e+70
13.70420369,1.0025460938053054e+71,2.819709811104032e+70,-5.988909813993937e+70
13.70898009,9.928270905102582e+70,2.791740037192827e+70,-5.930095812640358e+70
13.71375655,9.832053082127629e+70,2.7640495382667594e+70,-5.87185058845125e+70
13.71853296,9.73679765337659e+70,2.7366355247261682e+70,-5.814168821541147e+70
13.72330936,9.642494895367752e+70,2.7094952351481684e+70,-5.757045239251607e+70
13.72808577,9.54913517627587e+70,2.6826259359764676e+70,-5.70047461571028e+70
13.73286223,9.456708955319447e+70,2.6560249212143005e+70,-5.644451771395231e+70
13.73763863,9.365206782148572e+70,2.629689512120516e+70,-5.588971572704577e+70
13.74241504,9.274619296233157e+70,2.6036170569088783e+70,-5.534028931531518e+70
13.74719144,9.184937226251462e+70,2.5778049304506334e+70,-5.479618804844744e+70
13.7519679,9.09615138947871e+70,2.55225053398037e+70,-5.42573619427422e+70
13.75674431,9.008252691175693e+70,2.5269512948051846e+70,-5.3723761457023284e+70
13.76152072,8.921232123977209e+70,2.501904666017172e+70,-5.3195337488603906e+70
13.76629712,8.835080767280179e+70,2.4771081262092475e+70,-5.267204136930504e+70
13.77107358,8.749789786631282e+70,2.4525591791943123e+70,-5.2153824861526665e+70
13.77584999,8.665350433113967e+70,2.4282553537277646e+70,-5.1640640154371346e+70
13.78062639,8.581754042734751e+70,2.4041942032333826e+70,-5.113243985981958e+70
13.7854028,8.498992035808707e+70,2.3803733055325872e+70,-5.062917700895669e+70
13.79017926,8.417055916344144e+70,2.3567902625771064e+70,-5.0130805048250945e+70
13.79495566,8.335937271426458e+70,2.3334427001850745e+70,-4.9637277835882664e+70
13.79973207,8.255627770601243e+70,2.310328267780584e+70,-4.914854963812446e+70
13.80450848,8.17611916525674e+70,2.2874446381367336e+70,-4.866457512577269e+70
13.80928494,8.097403288005739e+70,2.2647895071222153e+70,-4.818530937062999e+70
13.81406134,8.019472052067047e+70,2.2423605934514657e+70,-4.771070784203892e+70
13.81883775,7.942317450646659e+70,2.220155638438405e+70,-4.72407264034668e+70
13.82361415,7.865931556318762e+70,2.1981724057537803e+70,-4.677532130914131e+70
13.82839061,7.79030652040668e+70,2.1764086811861168e+70,-4.6314449200736314e+70
13.83316702,7.715434572363778e+70,2.154862272406281e+70,-4.585806710410698e+70
13.83794342,7.641308019154472e+70,2.133531008735644e+70,-4.5406132426073596e+70
13.84271988,7.567919244635405e+70,2.1124127409178132e+70,-4.4958602951252735e+70
13.84749629,7.49526070893694e+70,2.0915053408939173e+70,-4.4515436838934554e+70
13.8522727,7.423324947845122e+70,2.0708067015814054e+70,-4.407659262000505e+70
13.8570491,7.352104572184216e+70,2.050314736656325e+70,-4.364202919391197e+70
13.86182556,7.281592267199914e+70,2.030027380339038e+70,-4.321170582567337e+70
13.86660197,7.211780791943312e+70,2.0099425871833237e+70,-4.278558214292826e+70
13.87137837,7.142662978655789e+70,1.990058331868824e+70,-4.2363618133028705e+70
13.87615478,7.0742317321548e+70,1.9703726089967766e+70,-4.194577414017234e+70
13.88093124,7.006480029220581e+70,1.950883432888991e+70,-4.1532010862574255e+70
13.88570764,6.939400917983743e+70,1.9315888373900045e+70,-4.112228934967708e+70
13.89048405,6.872987517313726e+70,1.912486875672336e+70,-4.071657099939802e+70
13.89526046,6.807233016208071e+70,1.893575620044758e+70,-4.031481755541135e+70
13.90003691,6.742130673182536e+70,1.874853161763505e+70,-3.991699110446469e+70
13.90481332,6.677673815662068e+70,1.8563176108463448e+70,-3.952305407372739e+70
13.90958973,6.613855839372718e+70,1.837967095889459e+70,-3.913296922816982e+70
13.91436613,6.550670207734548e+70,1.8197997638870654e+70,-3.874669966797226e+70
13.91914259,6.488110451255618e+70,1.801813780053721e+70,-3.8364208825962216e+70
13.923919,6.426170166927143e+70,1.784007327649238e+70,-3.798546046507875e+70
13.9286954,6.364843017619965e+70,1.7663786078061396e+70,-3.7610418675862365e+70
13.93347181,6.304122731482447e+70,1.7489258393595798e+70,-3.7239047873969234e+70
13.93824827,6.244003101339914e+70,1.7316472586796615e+70,-3.687131279770881e+70
13.94302467,6.184477984095719e+70,1.7145411195060837e+70,-3.650717850560365e+70
13.94780108,6.125541300134006e+70,1.6976056927850596e+70,-3.614661037397013e+70
13.95257749,6.067187032724198e+70,1.6808392665084366e+70,-3.578957409451893e+70
13.95735395,6.009409227427235e+70,1.664240145554949e+70,-3.5436035671974294e+70
13.96213035,5.952201991503571e+70,1.647806651533551e+70,-3.508596142171123e+70
13.96690676,5.895559493323013e+70,1.6315371226287587e+70,-3.473931796740981e+70
13.97168316,5.839475961776387e+70,1.615429913447919e+70,-3.439607223872565e+70
13.97645962,5.78394568568909e+70,1.5994833948702962e+70,-3.405619146897589e+70
13.98123603,5.728963013236545e+70,1.5836959538978853e+70,-3.3719643192839705e+70
13.98601244,5.67452235136161e+70,1.568065993507871e+70,-3.33863952440729e+70
13.99078884,5.620618165193932e+70,1.552591932506668e+70,-3.3056415753236e+70
13.9955653,5.567244977471284e+70,1.5372722053854858e+70,-3.272967314543506e+70
14.00034171,5.5143973679629296e+70,1.522105262177366e+70,-3.2406136138074245e+70
14.00511811,5.462069972895117e+70,1.5070895683156306e+70,-3.2085773738619006e+70
14.00989452,5.410257484378807e+70,1.492223604493692e+70,-3.176855524236894e+70
14.01467098,5.3589546498397026e+70,1.477505866526182e+70,-3.145445023023977e+70
14.01944738,5.308156271450696e+70,1.4629348652113486e+70,-3.114342856655385e+70
14.02422379,5.257857205566857e+70,1.4485091261946677e+70,-3.083546039683881e+70
14.0290002,5.208052362163091e+70,1.43422718983362e+70,-3.053051614563372e+70
14.03377665,5.1587367042746407e+70,1.420087611063587e+70,-3.022856651430225e+70
14.03855306,5.1099052474406335e+70,1.4060889592648278e+70,-2.992958247885245e+70
14.04332947,5.061553059150894e+70,1.3922298181304907e+70,-2.9633535287762925e+70
14.04810587,5.0136752582962646e+70,1.3785087855356346e+70,-2.934039645981507e+70
14.05288233,4.966267014622661e+70,1.3649244734072185e+70,-2.905013778193109e+70
14.05765874,4.919323548189058e+70,1.351475507595035e+70,-2.8762731307017437e+70
14.06243514,4.8728401288296014e+70,1.3381605277435766e+70,-2.847814935181333e+70
14.06721155,4.8268120756200144e+70,1.3249781871648308e+70,-2.819636449474427e+70
14.07198801,4.7812347563484534e+70,1.311927152712003e+70,-2.7917349573780665e+70
14.07676441,4.7361035869909677e+70,1.2990061046541629e+70,-2.764107768430155e+70
14.08154082,4.691414031191691e+70,1.2862137365518132e+70,-2.7367522176963844e+70
14.08631723,4.647161599747866e+70,1.2735487551333917e+70,-2.7096656655577908e+70
14.09109368,4.6033418500997677e+70,1.2610098801727179e+70,-2.68284549749902e+70
14.09587009,4.5599503858255866e+70,1.2485958443673961e+70,-2.6562891238973794e+70
14.1006465,4.516982856141323e+70,1.2363053932181728e+70,-2.6299939798127232e+70
14.1054229,4.474434955405745e+70,1.2241372849092537e+70,-2.6039575247782124e+70
14.11019936,4.4323024226304414e+70,1.2120902901895741e+70,-2.578177242591993e+70
14.11497577,4.390581040995027e+70,1.2001631922550178e+70,-2.552650641109814e+70
14.11975217,4.349266637367545e+70,1.1883547866315747e+70,-2.527375252038577e+70
14.12452863,4.308355081830048e+70,1.1766638810594191e+70,-2.5023486307308124e+70
14.12930504,4.267842287209342e+70,1.1650892953778878e+70,-2.4775683559800802e+70
14.13408145,4.2277242086128726e+70,1.1536298614113388e+70,-2.453032029817298e+70
14.13885785,4.1879968429697474e+70,1.1422844228558669e+70,-2.4287372773080025e+70
14.14363431,4.148656228576875e+70,1.1310518351668462e+70,-2.4046817463505312e+70
14.14841072,4.1096984446501986e+70,1.119930965447273e+70,-2.3808631074751035e+70
14.15318712,4.071119610880971e+70,1.1089206923368916e+70,-2.3572790536437918e+70
14.15796353,4.0329158869970765e+70,1.0980199059020883e+70,-2.3339273000513636e+70
14.16273994,3.9950834723293783e+70,1.087227507526534e+70,-2.3108055839269717e+70
14.16751639,3.957618605383039e+70,1.076542409802543e+70,-2.2879116643366753e+70
14.1722928,3.9205175634137304e+70,1.0659635364231193e+70,-2.265243321986766e+70
14.17706921,3.8837766620086746e+70,1.055489822074662e+70,-2.2427983590278824e+70
14.18184561,3.847392254672416e+70,1.045120212330301e+70,-2.220574598859901e+70
14.18662207,3.8113607324172607e+70,1.0348536635438441e+70,-2.1985698859375933e+70
14.19139848,3.7756785233582874e+70,1.0246891427443272e+70,-2.1767820855770477e+70
14.19617488,3.740342092312837e+70,1.0146256275311568e+70,-2.1552090837628605e+70
14.20095134,3.7053479404043887e+70,1.0046621059698345e+70,-2.1338487869561124e+70
14.20572775,3.670692604670762e+70,9.947975764882485e+69,-2.112699121903167e+70
14.21050415,3.636372657676602e+70,9.850310477735246e+69,-2.0917580354453404e+70
14.21528056,3.6023847071301445e+70,9.753615386694295e+69,-2.071023494329486e+70
14.22005702,3.56872539550421e+70,9.657880780743218e+69,-2.050493485019533e+70
14.22483342,3.535391399661403e+70,9.563097048396466e+69,-2.030166013509004e+70
14.22960983,3.502379430483503e+70,9.469254676689709e+69,-2.0100391051345483e+70
14.23438624,3.469686232505031e+70,9.376344250175662e+69,-1.9901108043905228e+70
14.2391627,3.437308583550998e+70,9.284356449925435e+69,-1.970379174744643e+70
14.2439391,3.4052432943788296e+70,9.193282052535441e+69,-1.9508422984547287e+70
14.24871551,3.373487208324502e+70,9.103111929139977e+69,-1.9314982763865678e+70
14.25349191,3.342037200952874e+70,9.013837044429606e+69,-1.9123452278329198e+70
14.25826837,3.3108901797122036e+70,8.925448455675434e+69,-1.8933812903336865e+70
14.26304478,3.2800430835928276e+70,8.83793731175935e+69,-1.8746046194972918e+70
14.26782118,3.249492882789978e+70,8.751294852210294e+69,-1.8560133888233046e+70
14.27259759,3.2192365783707363e+70,8.665512406246651e+69,-1.8376057895263365e+70
14.27737405,3.1892712019451696e+70,8.580581391824983e+69,-1.8193800303612396e+70
14.28215046,3.159593815341665e+70,8.496493314695295e+69,-1.80133433744963e+70
14.28692686,3.13020151028647e+70,8.413239767463101e+69,-1.78346695410777e+70
14.29170327,3.1010914080874437e+70,8.330812428658502e+69,-1.765776140675852e+70
14.29647973,3.072260659321997e+70,8.249203061812418e+69,-1.7482601743487105e+70
14.30125613,3.0437064435291664e+70,8.168403514540234e+69,-1.7309173490080172e+70
14.30603254,3.015425968905792e+70,8.088405717632977e+69,-1.7137459750560054e+70
14.31080895,2.9874164720067863e+70,8.009201684156139e+69,-1.6967443792507675e+70
14.3155854,2.9596752174494634e+70,7.930783508556239e+69,-1.679910904543153e+70
14.32036181,2.9321994976219225e+70,7.853143365775316e+69,-1.6632439099152763e+70
14.32513822,2.904986632395489e+70,7.776273510373431e+69,-1.646741770220633e+70
14.32991462,2.878033968841195e+70,7.700166275659265e+69,-1.6304028760258372e+70
14.33469108,2.8513388809502716e+70,7.62481407282893e+69,-1.6142256334539806e+70
14.33946749,2.824898769358609e+70,7.550209390113041e+69,-1.5982084640296294e+70
14.34424389,2.798711061075139e+70,7.476344791932132e+69,-1.5823498045254673e+70
14.3490203,2.772773209214083e+70,7.403212918060473e+69,-1.5666481068105807e+70
14.35379676,2.7470826927310116e+70,7.330806482798402e+69,-1.551101837700382e+70
14.35857316,2.7216370161626683e+70,7.259118274153296e+69,-1.5357094788081435e+70
14.36334957,2.6964337093705284e+70,7.188141153029276e+69,-1.520469526398134e+70
14.36812598,2.6714703272880547e+70,7.117868052425759e+69,-1.5053804912403418e+70
14.37290244,2.6467444496715946e+70,7.04829197664506e+69,-1.490440898466784e+70
14.37767884,2.6222536808548497e+70,6.979406000509256e+69,-1.475649287429388e+70
14.38245525,2.5979956495068744e+70,6.911203268586449e+69,-1.4610042115594272e+70
14.38723165,2.5739680083935476e+70,6.843676994426501e+69,-1.446504238228485e+70
14.39200811,2.5501684341424595e+70,6.776820459806278e+69,-1.4321479486109302e+70
14.39678452,2.5265946270111386e+70,6.710627013984375e+69,-1.417933937547887e+70
14.40156092,2.5032443106585508e+70,6.645090072965344e+69,-1.4038608134126806e+70
14.40633733,2.480115231919813e+70,6.58020311877338e+69,-1.389927197977729e+70
14.41111379,2.4572051605840492e+70,6.515959698735359e+69,-1.376131726282858e+70
14.4158902,2.4345118891753132e+70,6.4523534247731106e+69,-1.3624730465050248e+70
14.4206666,2.4120332327365012e+70,6.389377972704802e+69,-1.3489498198294238e+70
14.42544301,2.389767028616173e+70,6.327027081555413e+69,-1.335560720321953e+70
14.43021947,2.3677111362582135e+70,6.265294552876193e+69,-1.3223044348030037e+70
14.43499587,2.345863436994268e+70,6.2041742500729966e+69,-1.3091796627225486e+70
14.43977228,2.3242218338388886e+70,6.143660097743391e+69,-1.2961851160365099e+70
14.44454868,2.302784251287321e+70,6.08374608102244e+69,-1.2833195190843974e+70
14.44932514,2.2815486351158673e+70,6.0244262449370644e+69,-1.2705816084682145e+70
14.45410155,2.2605129521847567e+70,5.965694693768904e+69,-1.2579701329326158e+70
14.45887796,2.2396751902434638e+70,5.9075455904256384e+69,-1.2454838532462994e+70
14.46365441,2.219033357738426e+70,5.849973155820712e+69,-1.2331215420846173e+70
14.46843082,2.1985854836231246e+70,5.792971668261403e+69,-1.2208819839133908e+70
14.47320723,2.17832961717048e+70,5.7365354628451866e+69,-1.2087639748739153e+70
14.47798363,2.158263827787486e+70,5.68065893086434e+69,-1.1967663226691401e+70
14.48276009,2.1383862048320243e+70,5.6253365192187106e+69,-1.1848878464510055e+70
14.4875365,2.118694857431782e+70,5.5705627298365596e+69,-1.1731273767089151e+70
14.4923129,2.099187914305185e+70,5.516332119103402e+69,-1.1614837551593201e+70
14.49708931,2.0798635235842713e+70,5.462639297298705e+69,-1.1499558346363961e+70
14.50186572,2.060719852639417e+70,5.409478928040306e+69,-1.1385424789837935e+70
14.50664217,2.041755087905814e+70,5.356845727736373e+69,-1.1272425629474452e+70
14.51141858,2.0229674347116078e+70,5.304734465044709e+69,-1.1160549720694232e+70
14.51619499,2.0043551171075865e+70,5.253139960339253e+69,-1.1049786025828419e+70
14.52097144,1.985916377698339e+70,5.202057085183587e+69,-1.0940123613078068e+70
14.52574785,1.967649477474796e+70,5.151480761811276e+69,-1.083155165548422e+70
14.53052426,1.949552695648086e+70,5.101405962612914e+69,-1.0724059429908653e+70
14.53530066,1.9316243294846413e+70,5.051827709629689e+69,-1.0617636316025434e+70
14.54007707,1.9138626941425017e+70,5.002741074053261e+69,-1.0512271795323398e+70
14.54485353,1.896266122508766e+70,4.954141175731742e+69,-1.0407955450119542e+70
14.54962994,1.878832965038125e+70,4.9060231826815715e+69,-1.0304676962583344e+70
14.55440634,1.861561589592413e+70,4.85838231060511e+69,-1.0202426113771992e+70
14.55918275,1.8444503812811233e+70,4.811213822413783e+69,-1.0101192782676553e+70
14.56395921,1.8274977423028397e+70,4.7645130277566e+69,-1.0000966945279151e+70
14.56873561,1.810702091787554e+70,4.718275282553887e+69,-9.901738673621096e+69
14.57351202,1.794061865639846e+70,4.672495988536107e+69,-9.803498134881878e+69
14.57828848,1.7775755163828985e+70,4.627170592787602e+69,-9.706235590468905e+69
14.58306488,1.7612415130033265e+70,4.582294587295172e+69,-9.609941395117825e+69
14.58784129,1.7450583407968008e+70,4.537863508501399e+69,-9.514605996003305e+69
14.5926177,1.7290245012144373e+70,4.493872936862659e+69,-9.420219931860084e+69
14.59739415,1.7131385117099476e+70,4.450318496411746e+69,-9.326773832114171e+69
14.60217056,1.6973989055875393e+70,4.40719585432504e+69,-9.234258416023953e+69
14.60694697,1.6818042318505542e+70,4.3645007204941904e+69,-9.14266449183092e+69
14.61172337,1.6663530550508477e+70,4.322228847102228e+69,-9.051982955919794e+69
14.61649978,1.65104395513893e+70,4.280376028204058e+69,-8.962204791987895e+69
14.62127624,1.6358755273148854e+70,4.238938099311239e+69,-8.873321070223553e+69
14.62605264,1.6208463818800725e+70,4.197910936980995e+69,-8.785322946493451e+69
14.63082905,1.6059551440896207e+70,4.157290458409404e+69,-8.698201661538916e+69
14.63560551,1.5912004540057388e+70,4.1170726210286736e+69,-8.61194854018114e+69
14.64038191,1.5765809663518466e+70,4.077253422108434e+69,-8.526554990535277e+69
14.64515832,1.5620953503675343e+70,4.0378288983609826e+69,-8.442012503233315e+69
14.64993473,1.5477422896643608e+70,3.9987951255503715e+69,-8.358312650655603e+69
14.65471118,1.533520482082503e+70,3.960148218105283e+69,-8.275447086170872e+69
14.65948759,1.519428639548268e+70,3.921884328735624e+69,-8.193407543384486e+69
14.664264,1.5054654879324753e+70,3.883999648052764e+69,-8.112185835394697e+69
14.6690404,1.4916297669097136e+70,3.846490404193393e+69,-8.031773854056676e+69
14.67381686,1.477920229818468e+70,3.809352862446936e+69,-7.952163569254126e+69
14.67859327,1.4643356435221298e+70,3.772583324886474e+69,-7.873347028178207e+69
14.68336967,1.450874788270882e+70,3.736178130003069e+69,-7.795316354613598e+69
14.68814608,1.4375364575644725e+70,3.700133652343387e+69,-7.718063748231579e+69
14.69292249,1.4243194580158722e+70,3.6644463021504925e+69,-7.641581483890078e+69
14.69769894,1.41122260921583e+70,3.6291125250077135e+69,-7.56586191094065e+69
14.70247535,1.3982447435983383e+70,3.594128801485476e+69,-7.490897452542399e+69
14.70725176,1.3853847063070106e+70,3.559491646791077e+69,-7.416680604982894e+69
14.71202816,1.3726413550623749e+70,3.525197610421326e+69,-7.343203937006158e+69
14.71680462,1.3600135600300768e+70,3.491243275818061e+69,-7.270460089147731e+69
14.72158103,1.3475002036900014e+70,3.457625260026521e+69,-7.198441773076827e+69
14.72635744,1.3351001807063121e+70,3.424340213356575e+69,-7.1271417709456e+69
14.73113384,1.322812397798414e+70,3.391384819046783e+69,-7.056552934745458e+69
14.7359103,1.3106357736128388e+70,3.3587557929312695e+69,-6.98666818567043e+69
14.74068671,1.2985692385960563e+70,3.326449883109376e+69,-6.917480513487563e+69
14.74546311,1.286611734868215e+70,3.294463869618067e+69,-6.8489829759144084e+69
14.75023952,1.274762216097818e+70,3.2627945641070758e+69,-6.781168698003559e+69
14.75501598,1.2630196473773232e+70,3.2314388095167742e+69,-6.714030871534258e+69
14.75979238,1.2513830050996723e+70,3.200393479758772e+69,-6.6475627544110495e+69
14.76456879,1.2398512768357422e+70,3.169655479399242e+69,-6.58175767006933e+69
14.7693452,1.2284234612127044e+70,3.1392217433450205e+69,-6.516609006887716e+69
14.77412165,1.2170985677932765e+70,3.1090892365325423e+69,-6.452110217607072e+69
14.77889806,1.2058756169558602e+70,3.0792549536196574e+69,-6.388254818756075e+69
14.78367447,1.1947536397755659e+70,3.049715918680351e+69,-6.325036390083181e+69
14.78845087,1.1837316779061158e+70,3.0204691849023828e+69,-6.262448573994926e+69
14.79322733,1.1728087834626181e+70,2.991511834287861e+69,-6.200485075000456e+69
14.79800374,1.1619840189052074e+70,2.9628409773567537e+69,-6.139139659162187e+69
14.80278014,1.1512564569235402e+70,2.934453752853331e+69,-6.0784061535524366e+69
14.80755655,1.1406251803221236e+70,2.906347327455542e+69,-6.018278445715781e+69
14.81233301,1.1300892819064619e+70,2.8785188954873404e+69,-5.9587504831369275e+69
14.81710941,1.1196478643700161e+70,2.850965678633987e+69,-5.899816272713861e+69
14.82188582,1.1093000401819676e+70,2.8236849256603617e+69,-5.8414698802360465e+69
14.82666223,1.0990449314757789e+70,2.796673912132326e+69,-5.783705429867481e+69
14.83143868,1.0888816699385581e+70,2.7699299401411635e+69,-5.726517103634406e+69
14.83621509,1.0788093967012336e+70,2.743450338031134e+69,-5.669899140917525e+69
14.8409915,1.0688272622295474e+70,2.7172324601301637e+69,-5.613845837948539e+69
14.8457679,1.0589344262158874e+70,2.691273686483708e+69,-5.558351547310856e+69
14.85054436,1.0491300574719647e+70,2.665571422591816e+69,-5.503410677444325e+69
14.85532077,1.0394133338223429e+70,2.6401230991494197e+69,-5.4490176921538e+69
14.86009717,1.0297834419988311e+70,2.6149261717898522e+69,-5.395167110121342e+69
14.86487358,1.0202395775357518e+70,2.5899781208316304e+69,-5.3418535044218755e+69
14.86965004,1.0107809446660915e+70,2.565276451028517e+69,-5.2890715020421395e+69
14.87442645,1.0014067562185381e+70,2.540818691322884e+69,-5.236815783402769e+69
14.87920285,9.92116233515402e+69,2.5166023946023837e+69,-5.185081081883361e+69
14.88397926,9.829086062714158e+69,2.492625137459915e+69,-5.133862183350359e+69
14.88875566,9.737831124934103e+69,2.4688845199568798e+69,-5.083153925687585e+69
14.89353212,9.647389983808589e+69,2.4453781653896932e+69,-5.0329511983292955e+69
14.89830853,9.557755182272868e+69,2.422103720059518e+69,-4.9832489417956754e+69
14.90308494,9.468919343225456e+69,2.3990588530451756e+69,-4.934042147230694e+69
14.90786139,9.380875168559458e+69,2.3762412559791848e+69,-4.885325855942238e+69
14.9126378,9.293615438202396e+69,2.3536486428268856e+69,-4.8370951589444726e+69
14.91741421,9.207133009164504e+69,2.33127874966862e+69,-4.789345196502421e+69
14.92219061,9.121420814595445e+69,2.3091293344849127e+69,-4.742071157678786e+69
14.92696702,9.036471862849391e+69,2.2871981769446217e+69,-4.695268279883036e+69
14.93174348,8.952279236558463e+69,2.26548307819602e+69,-4.6489318484227546e+69
14.93651988,8.868836091714451e+69,2.243981860660751e+69,-4.603057196057285e+69
14.94129629,8.786135656758802e+69,2.2226923678306224e+69,-4.5576397025536134e+69
14.9460727,8.704171231680778e+69,2.201612464067206e+69,-4.512674794244451e+69
14.95084915,8.622936187123718e+69,2.1807400344041904e+69,-4.4681579435884175e+69
14.95562556,8.542423963499415e+69,2.1600729843524548e+69,-4.424084668732274e+69
14.96040197,8.462628070110632e+69,2.1396092397078102e+69,-4.380450533075212e+69
14.96517837,8.383542084281798e+69,2.1193467463613603e+69,-4.337251144835199e+69
14.96995483,8.305159650497892e+69,2.0992834701124382e+69,-4.294482156617397e+69
14.97473124,8.227474479551654e+69,2.0794173964840575e+69,-4.2521392649846594e+69
14.97950764,8.1504803476992e+69,2.059746530540806e+69,-4.210218210030124e+69
14.98428405,8.074171095824133e+69,2.040268896709123e+69,-4.1687147749518974e+69
14.98906051,7.998540628610196e+69,2.020982538599908e+69,-4.127624785629833e+69
14.99383691,7.923582913722507e+69,2.0018855188334016e+69,-4.086944110204433e+69
14.99861332,7.849291980997418e+69,1.982975918866296e+69,-4.046668658657914e+69
15.00338973,7.775661921641158e+69,1.964251838821011e+69,-4.006794382397507e+69
15.00816618,7.702686887437358e+69,1.945711397317081e+69,-3.967317273841085e+69
15.01294259,7.630361089963531e+69,1.9273527313045715e+69,-3.928233366005198e+69
15.017719,7.558678799816572e+69,1.9091739958994657e+69,-3.889538732095579e+69
15.0224954,7.487634345847331e+69,1.8911733642209705e+69,-3.851229485100226e+69
15.02727186,7.417222114404275e+69,1.873349027230713e+69,-3.813301777385096e+69
15.03204827,7.347436548586226e+69,1.855699193573779e+69,-3.775751800292512e+69
15.03682467,7.278272147504266e+69,1.8382220894215648e+69,-3.7385757837422884e+69
15.04160108,7.209723465552866e+69,1.8209159583164e+69,-3.7017699958356245e+69
15.04637754,7.14178511169034e+69,1.803779061017936e+69,-3.66533074246178e+69
15.05115395,7.074451748728712e+69,1.786809675351283e+69,-3.6292543669075695e+69
15.05593035,7.007718092633029e+69,1.7700060960568915e+69,-3.593537249469718e+69
15.06070676,6.941578911830203e+69,1.7533666346421656e+69,-3.558175807070109e+69
15.06548322,6.876029026527414e+69,1.7368896192348082e+69,-3.523166492873993e+69
15.07025962,6.8110633080400885e+69,1.720573394437902e+69,-3.488505795911221e+69
15.07503603,6.746676678129471e+69,1.7044163211867074e+69,-3.454190240700578e+69
15.07981244,6.682864108349793e+69,1.6884167766071588e+69,-3.4202163868772363e+69
15.08458884,6.619620619405066e+69,1.6725731538760312e+69,-3.3865808288233635e+69
15.0893653,6.556941280515433e+69,1.6568838620827255e+69,-3.3532801953019256e+69
15.09414171,6.4948212087929784e+69,1.6413473260926162e+69,-3.320311149093713e+69
15.09891811,6.433255568626934e+69,1.6259619864118928e+69,-3.2876703866376294e+69
15.10369452,6.372239571078148e+69,1.610726299053834e+69,-3.2553546376742896e+69
15.10847098,6.311768473282708e+69,1.595638735406477e+69,-3.2233606648929375e+69
15.11324738,6.251837577864614e+69,1.5806977821016462e+69,-3.1916852635817283e+69
15.11802379,6.1924422323574215e+69,1.5659019408853093e+69,-3.160325261281381e+69
15.1228002,6.13357782863482e+69,1.55124972848923e+69,-3.1292775174422125e+69
15.12757665,6.075239802350103e+69,1.5367396765038715e+69,-3.0985389230845545e+69
15.13235306,6.0174236323844496e+69,1.5223703312525135e+69,-3.068106400462555e+69
15.13712947,5.9601248403039565e+69,1.5081402536665413e+69,-3.0379769027313596e+69
15.14190587,5.9033389898253664e+69,1.4940480191618753e+69,-3.008147413617672e+69
15.14668228,5.847061686290441e+69,1.4800922175165013e+69,-2.978614947093671e+69
15.15145874,5.7912885761489505e+69,1.4662714527490648e+69,-2.9493765470542687e+69
15.15623514,5.736015346450299e+69,1.4525843429984918e+69,-2.9204292869976974e+69
15.16101155,5.6812377243437436e+69,1.4390295204046046e+69,-2.8917702697094113e+69
15.16578796,5.62695147658714e+69,1.4256056309897023e+69,-2.8633966269492737e+69
15.17056441,5.573152409064095e+69,1.4123113345410787e+69,-2.8353055191420048e+69
15.17534082,5.5198363663094386e+69,1.3991453044944407e+69,-2.807494135070876e+69
15.18011723,5.46699923104291e+69,1.3861062278182014e+69,-2.7799596915746402e+69
15.18489363,5.4146369237108936e+69,1.3731928048986305e+69,-2.7526994332476873e+69
15.18967009,5.3627454020360836e+69,1.3604037494258417e+69,-2.7257106321433922e+69
15.1944465,5.311320660574938e+69,1.3477377882806033e+69,-2.6989905874806396e+69
15.1992229,5.260358730282788e+69,1.33519366142195e+69,-2.672536625353495e+69
15.20399931,5.209855678086457e+69,1.322770121775561e+69,-2.6463460984440036e+69
15.20877577,5.1598076064642465e+69,1.3104659351228718e+69,-2.6204163857380833e+69
15.21355217,5.110210653033127e+69,1.2982798799908972e+69,-2.594744892244499e+69
15.21832858,5.06106099014297e+69,1.2862107475427318e+69,-2.569329048716905e+69
15.22310499,5.012354824477642e+69,1.2742573414687108e+69,-2.5441663113789488e+69
15.22788145,4.964088396662757e+69,1.2624184778782115e+69,-2.519254161652427e+69
15.23265785,4.91625798087991e+69,1.2506929851920797e+69,-2.494590105888506e+69
15.23743426,4.868859884487251e+69,1.239079704035669e+69,-2.470171675102009e+69
15.24221066,4.821890447646287e+69,1.227577487132478e+69,-2.4459964247087802e+69
15.24698712,4.7753460429548015e+69,1.2161851991983747e+69,-2.4220619342661136e+69
15.25176353,4.729223075085792e+69,1.204901716836404e+69,-2.3983658072162555e+69
15.25653994,4.683517980432252e+69,1.1937259284321722e+69,-2.374905670632965e+69
15.26131634,4.638227226757684e+69,1.1826567340498027e+69,-2.3516791749711302e+69
15.26609275,4.593347312852194e+69,1.1716930453284603e+69,-2.32868399381944e+69
15.27086921,4.54887476819407e+69,1.1608337853794262e+69,-2.3059178236560995e+69
15.27564561,4.5048061526166945e+69,1.1500778886836989e+69,-2.283378383607557e+69
15.28042202,4.4611380559806336e+69,1.139424300990113e+69,-2.261063415210215e+69
15.28519842,4.41786709785076e+69,1.128871979213966e+69,-2.2389706821750993e+69
15.28997488,4.374989927178248e+69,1.1184198913361417e+69,-2.2170979701554596e+69
15.29475129,4.332503221987329e+69,1.1080670163027226e+69,-2.1954430865172833e+69
15.2995277,4.2904036890666985e+69,1.0978123439250957e+69,-2.174003860112697e+69
15.3043041,4.248688063665493e+69,1.0876548747805625e+69,-2.1527781410562092e+69
15.30908056,4.2073531091937284e+69,1.077593620113473e+69,-2.1317638005037477e+69
15.31385697,4.166395616927076e+69,1.067627601736901e+69,-2.110958730434415e+69
15.31863337,4.125812405715872e+69,1.0577558519348741e+69,-2.0903608434349127e+69
15.32340978,4.0856003216982684e+69,1.0479774133651653e+69,-2.0699680724865686e+69
15.32818619,4.045756238017424e+69,1.0382913389626545e+69,-2.04977837075489e+69
15.33296264,4.006277054542619e+69,1.028696691843256e+69,-2.0297897113815586e+69
15.33773905,3.9671596975941466e+69,1.0191925452084152e+69,-2.010000087278785e+69
15.34251546,3.928401119671904e+69,1.0097779822501793e+69,-1.990407510925983e+69
15.34729186,3.889998299187565e+69,1.0004520960568358e+69,-1.9710100141687286e+69
15.35206832,3.8519482402002155e+69,9.912139895191052e+68,-1.9518056480199783e+69
15.35684473,3.8142479721553045e+69,9.820627752368794e+68,-1.9327924824635496e+69
15.36162113,3.776894549626783e+69,9.729975754264951e+68,-1.913968606259864e+69
15.36639754,3.7398850520622846e+69,9.640175218285328e+68,-1.8953321267539568e+69
15.371174,3.703216583531223e+69,9.551217556161288e+68,-1.8768811696857467e+69
15.3759504,3.666886272475685e+69,9.46309427303786e+68,-1.8586138790025885e+69
15.38072681,3.630891271464036e+69,9.3757969665667e+68,-1.840528416674113e+69
15.38550322,3.595228756947153e+69,9.28931732600383e+68,-1.822622962509367e+69
15.39027967,3.559895929017216e+69,9.203647131312138e+68,-1.8048957139762514e+69
15.39505608,3.524890011169018e+69,9.118778252268604e+68,-1.7873448860232612e+69
15.39983249,3.490208250063713e+69,9.03470264757625e+68,-1.769968710903525e+69
15.40460889,3.4558479152949494e+69,8.951412363980793e+68,-1.7527654380011446e+69
15.40938535,3.4218062991573053e+69,8.868899535391991e+68,-1.735733333659845e+69
15.41416176,3.3880807164170104e+69,8.787156382009724e+68,-1.7188706810139263e+69
15.41893816,3.3546685040849177e+69,8.706175209454923e+68,-1.7021757798215235e+69
15.42371457,3.32156702119172e+69,8.625948407905405e+68,-1.685646946300161e+69
15.42849098,3.288773648565398e+69,8.546468451236598e+68,-1.6692825129646001e+69
15.43326744,3.256285788610884e+69,8.467727896167188e+68,-1.6530808284669636e+69
15.43804384,3.224100865091918e+69,8.389719381409695e+68,-1.6370402574391408e+69
15.44282025,3.1922163229150842e+69,8.312435626825983e+68,-1.621159180337461e+69
15.44759665,3.16062962791606e+69,8.23586943258777e+68,-1.605435993289622e+69
15.45237311,3.1293382666481054e+69,8.160013678342172e+68,-1.5898691079438388e+69
15.45714952,3.0983397461728144e+69,8.084861322382234e+68,-1.5744569513201714e+69
15.46192592,3.0676315938531263e+69,8.01040540082242e+68,-1.559197965663994e+69
15.46670233,3.0372113571486028e+69,7.936639026779043e+68,-1.5440906083015663e+69
15.47147874,3.0070766034129454e+69,7.863555389555541e+68,-1.5291333514976647e+69
15.4762552,2.97722491969372e+69,7.791147753832511e+68,-1.5143246823152213e+69
15.4810316,2.9476539125342755e+69,7.71940945886244e+68,-1.4996631024769177e+69
15.48580801,2.9183612077778324e+69,7.648333917669133e+68,-1.4851471282286902e+69
15.49058441,2.889344450373742e+69,7.577914616251739e+68,-1.4707752902051007e+69
15.49536087,2.860601304185891e+69,7.508145112793299e+68,-1.4565461332965313e+69
15.50013728,2.8321294518032317e+69,7.439019036873748e+68,-1.4424582165181688e+69
15.50491369,2.8039265943524058e+69,7.370530088687323e+68,-1.4285101128807401e+69
15.50969009,2.7759904513124147e+69,7.30267203826428e+68,-1.4147004092629532e+69
15.51446655,2.7483187603313034e+69,7.235438724696857e+68,-1.401027706285603e+69
15.51924296,2.7209092770448355e+69,7.168824055369408e+68,-1.3874906181872933e+69
15.52401936,2.6937597748971297e+69,7.102822005192682e+68,-1.3740877727017331e+69
15.52879577,2.66686804496324e+69,7.037426615842285e+68,-1.360817810936562e+69
15.53357217,2.6402318957736664e+69,6.972631995001369e+68,-1.3476793872536552e+69
15.53834863,2.6138491531407997e+69,6.908432315607659e+68,-1.3346711691508644e+69
15.54312504,2.5877176599873038e+69,6.844821815104919e+68,-1.3217918371451538e+69
15.54790144,2.561835276176419e+69,6.781794794698974e+68,-1.3090400846570875e+69
15.55267785,2.536199878344166e+69,6.7193456186184145e+68,-1.2964146178966377e+69
15.55745431,2.51080935973342e+69,6.657468713380115e+68,-1.2839141557502791e+69
15.56223072,2.48566163002982e+69,6.596158567059607e+68,-1.2715374296693317e+69
15.56700712,2.4607546151994928e+69,6.535409728566407e+68,-1.2592831835595151e+69
15.57178353,2.436086257328576e+69,6.475216806924365e+68,-1.2471501736716801e+69
15.57655999,2.4116545144645315e+69,6.415574470557106e+68,-1.2351371684936851e+69
15.58133639,2.3874573604592335e+69,6.356477446578548e+68,-1.2232429486433789e+69
15.5861128,2.363492784813836e+69,6.297920520088541e+68,-1.2114663067626452e+69
15.59088921,2.3397587925254697e+69,6.239898533473665e+68,-1.1998060474124608e+69
15.59566561,2.3162534039358173e+69,6.182406385713284e+68,-1.1882609869689261e+69
15.60044207,2.292974654581614e+69,6.125439031690895e+68,-1.1768299535202357e+69
15.60521848,2.2699205950471136e+69,6.068991481510799e+68,-1.1655117867645681e+69
15.60999488,2.2470892908185653e+69,6.013058799820124e+68,-1.1543053379088737e+69
15.61477129,2.224478822140742e+69,5.957636105136227e+68,-1.1432094695685435e+69
15.61954775,2.2020872838755712e+69,5.902718569179454e+68,-1.1322230556679475e+69
15.62432415,2.1799127853629092e+69,5.848301416211224e+68,-1.1213449813418261e+69
15.62910056,2.1579534502834763e+69,5.794379922377463e+68,-1.1105741428375091e+69
15.63387697,2.1362074165239445e+69,5.740949415057413e+68,-1.0999094474179489e+69
15.63865337,2.1146728360441863e+69,5.688005272217865e+68,-1.0893498132655482e+69
15.64342983,2.093347874746673e+69,5.635542921772844e+68,-1.0788941693867551e+69
15.64820624,2.072230712348017e+69,5.583557840948854e+68,-1.0685414555174005e+69
15.65298264,2.0513195422526768e+69,5.532045555655781e+68,-1.0582906220287576e+69
15.65775905,2.030612571428818e+69,5.481001639863502e+68,-1.0481406298342992e+69
15.66253551,2.010108020286312e+69,5.430421714984244e+68,-1.0380904502971143e+69
15.66731191,1.9898041225568474e+69,5.38030144926081e+68,-1.0281390651379483e+69
15.67208832,1.969699125176129e+69,5.330636557160801e+68,-1.0182854663438384e+69
15.67686473,1.949791288168118e+69,5.281422798776949e+68,-1.0085286560773164e+69
15.68164118,1.9300788845312816e+69,5.232655979233661e+68,-9.988676465861644e+68
15.68641759,1.910560200126818e+69,5.184331948099858e+68,-9.893014601137137e+68
15.691194,1.891233533568814e+69,5.13644659880822e+68,-9.798291288096652e+68
15.6959704,1.8720971961162843e+69,5.088995868080927e+68,-9.704496946414243e+68
15.70074681,1.8531495115670447e+69,5.041975735362099e+68,-9.61162209305941e+68
15.70552327,1.834388816153387e+69,4.995382222257092e+68,-9.51965734142054e+68
15.71029967,1.8158134584395058e+69,4.949211391978821e+68,-9.42859340043336e+68
15.71507608,1.7974217992206386e+69,4.903459348801253e+68,-9.338421073714453e+68
15.71985249,1.779212211423874e+69,4.858122237520139e+68,-9.249131258699843e+68
15.72462895,1.761183080010577e+69,4.813196242921075e+68,-9.160714945788613e+68
15.72940535,1.7433328018803876e+69,4.768677589254887e+68,-9.073163217491522e+68
15.73418176,1.7256597857767663e+69,4.724562539720372e+68,-8.986467247584524e+68
15.73895816,1.7081624521940484e+69,4.680847395954376e+68,-8.900618300267247e+68
15.74373457,1.6908392332859793e+69,4.637528497529189e+68,-8.81560772932657e+68
15.74851103,1.6736885727756818e+69,4.594602221457152e+68,-8.731426977305411e+68
15.75328744,1.6567089258670151e+69,4.552064981702424e+68,-8.648067574676833e+68
15.75806384,1.6398987591572822e+69,4.509913228699845e+68,-8.565521139023553e+68
15.76284025,1.6232565505512478e+69,4.468143448880858e+68,-8.483779374222844e+68
15.76761671,1.6067807891764217e+69,4.426752164206437e+68,-8.402834069636879e+68
15.77239311,1.5904699752995659e+69,4.38573593170696e+68,-8.322677099308522e+68
15.77716952,1.5743226202443866e+69,4.345091343028955e+68,-8.243300421162618e+68
15.78194592,1.5583372463103693e+69,4.304815023988667e+68,-8.164696076212853e+68
15.78672238,1.5425123866927041e+69,4.264903634132397e+68,-8.0868561877742e+68
15.79149879,1.526846585403255e+69,4.225353866303524e+68,-8.009772960680939e+68
15.7962752,1.5113383971925247e+69,4.1861624462161344e+68,-7.933438680510204e+68
15.8010516,1.4959863874725619e+69,4.1473261320351687e+68,-7.857845712811028e+68
15.80582801,1.4807891322407663e+69,4.108841713962942e+68,-7.782986502338872e+68
15.81060447,1.4657452180045436e+69,4.0707060138319175e+68,-7.708853572295644e+68
15.81538087,1.4508532417067655e+69,4.0329158847035926e+68,-7.635439523575219e+68
15.82015728,1.4361118106519913e+69,3.9954682104733967e+68,-7.562737034014496e+68
15.82493369,1.4215195424334256e+69,3.95835990548155e+68,-7.49073885765006e+68
15.82971014,1.4070750648605882e+69,3.921587914129785e+68,-7.419437823980537e+68
15.83448655,1.3927770158876953e+69,3.8851492105038826e+68,-7.348826837234738e+68
15.83926296,1.3786240435427456e+69,3.849040798001953e+68,-7.278898875645712e+68
15.84403936,1.3646148058573216e+69,3.813259708968384e+68,-7.209646990730814e+68
15.84881582,1.3507479707971112e+69,3.7778030043333794e+68,-7.141064306577815e+68
15.85359223,1.337022216193153e+69,3.742667773258009e+68,-7.073144019137129e+68
15.85836863,1.3234362296738125e+69,3.707851132784705e+68,-7.005879395520229e+68
15.86314504,1.3099887085975025e+69,3.673350227493158e+68,-6.939263773304262e+68
15.86792144,1.2966783599861601e+69,3.6391622291615565e+68,-6.873290559842953e+68
15.8726979,1.2835039004594895e+69,3.6052843364330957e+68,-6.807953231583859e+68
15.87747431,1.2704640561699786e+69,3.571713774487694e+68,-6.743245333392028e+68
15.88225072,1.2575575627387025e+69,3.5384477947188595e+68,-6.679160477880042e+68
15.88702712,1.2447831651919198e+69,3.505483674415669e+68,-6.6156923447444355e+68
15.89180358,1.2321396178984714e+69,3.472818716449826e+68,-6.552834680108435e+68
15.89657999,1.2196256845079875e+69,3.4404502489677546e+68,-6.490581295870933e+68
15.90135639,1.2072401378899139e+69,3.4083756250877065e+68,-6.428926069061608e+68
15.9061328,1.1949817600733574e+69,3.3765922226018775e+68,-6.367862941202155e+68
15.91090921,1.1828493421877576e+69,3.3450974436834984e+68,-6.30738591767359e+68
15.91568566,1.170841684404394e+69,3.313888714598852e+68,-6.247489067089554e+68
15.92046207,1.1589575958787522e+69,3.282963485424159e+68,-6.188166520675542e+68
15.92523848,1.1471958946937635e+69,3.2523192297672873e+68,-6.129412471653965e+68
15.93001488,1.1355554078039206e+69,3.221953444494259e+68,-6.071221174634944e+68
15.93479134,1.124034970980275e+69,3.191863649460538e+68,-6.013586945012728e+68
15.93956775,1.1126334287563196e+69,3.16204738724706e+68,-5.956504158367609e+68
15.94434415,1.101349634374755e+69,3.1325022229009685e+68,-5.899967249873176e+68
15.94912056,1.0901824497351284e+69,3.1032257436810424e+68,-5.84397071370873e+68
15.95389697,1.0791307453423355e+69,3.0742155588077934e+68,-5.788509102476763e+68
15.95867342,1.0681934002559765e+69,3.045469299218184e+68,-5.733577026625428e+68
15.96344983,1.0573693020405696e+69,3.016984617324894e+68,-5.679169153875998e+68
15.96822624,1.0466573467166336e+69,2.9887591867800773e+68,-5.625280208655307e+68
15.97300264,1.0360564387126478e+69,2.9607907022435345e+68,-5.5719049715331875e+68
15.9777791,1.0255654908179073e+69,2.933076879155262e+68,-5.519038278664899e+68
15.98255551,1.0151834241362893e+69,2.9056154535123045e+68,-5.466675021238536e+68
15.98733191,1.0049091680409406e+69,2.8784041816498496e+68,-5.4148101449273615e+68
15.99210832,9.94741660129876e+68,2.8514408400265174e+68,-5.363438649347061e+68
15.99688473,9.846798461824851e+68,2.824723225013823e+68,-5.312555587517949e+68
16.00166118,9.74722680116933e+68,2.798249152689779e+68,-5.262156065332102e+68
16.00643759,9.648691239484373e+68,2.7720164586365727e+68,-5.212235241025383e+68
16.011214,9.551181477484032e+68,2.746022997742249e+68,-5.162788324654343e+68
16.0159904,9.454687296044122e+68,2.7202666440063443e+68,-5.113810577577979e+68
16.02076686,9.35919855581044e+68,2.6947452903493853e+68,-5.06529731194436e+68
16.02554327,9.26470519681505e+68,2.6694568484261245e+68,-5.017243890182091e+68
16.03031967,9.17119723810042e+68,2.6443992484423873e+68,-4.969645724496611e+68
16.03509608,9.078664777351136e+68,2.61957043897541e+68,-4.922498276371334e+68
16.03987249,8.987097990532947e+68,2.594968386797519e+68,-4.875797056073628e+68
16.04464895,8.896487131538845e+68,2.5705910767030117e+68,-4.829537622165568e+68
16.04942535,8.806822531841972e+68,2.5464365113381223e+68,-4.783715581019347e+68
16.05420176,8.718094600155095e+68,2.5225027110339347e+68,-4.738326586337219e+68
16.05897816,8.63029382209627e+68,2.498787713642121e+68,-4.693366338675804e+68
16.06375457,8.543410759860387e+68,2.4752895743733865e+68,-4.648830584974607e+68
16.06853103,8.457436051896265e+68,2.452006365638511e+68,-4.604715118088654e+68
16.07330744,8.37236041258905e+68,2.4289361768918893e+68,-4.561015776325141e+68
16.07808384,8.288174631947646e+68,2.406077114477492e+68,-4.517728442983983e+68
16.08286025,8.204869575296882e+68,2.3834273014771786e+68,-4.474849045902145e+68
16.08763671,8.122436182974196e+68,2.3609848775613e+68,-4.432373557001645e+68
16.09241311,8.040865470030588e+68,2.3387479988415195e+68,-4.390297991841164e+68
16.09718952,7.960148525935694e+68,2.316714837725813e+68,-4.348618409171167e+68
16.10196592,7.880276514286778e+68,2.294883582775587e+68,-4.307330910492498e+68
16.10674233,7.801240672521376e+68,2.2732524385648374e+68,-4.2664316396183975e+68
16.11151879,7.723032311633293e+68,2.2518196255412603e+68,-4.2259167822398514e+68
16.1162952,7.645642815891642e+68,2.230583379889216e+68,-4.1857825654941993e+68
16.1210716,7.5690636425625585e+68,2.209541953394455e+68,-4.1460252575369204e+68
16.12584801,7.493286321633185e+68,2.1886936133104976e+68,-4.106641167116535e+68
16.13062447,7.41830245553755e+68,2.168036642226573e+68,-4.0676266431525348e+68
16.13540087,7.34410371888397e+68,2.1475693379370342e+68,-4.0289780743162665e+68
16.14017728,7.27068185818356e+68,2.1272900133121633e+68,-3.990691888614662e+68
16.14495368,7.198028691579464e+68,2.1071969961702727e+68,-3.952764552976746e+68
16.14973009,7.126136108576484e+68,2.0872886291510118e+68,-3.9151925728428634e+68
16.15450655,7.054996069770872e+68,2.0675632695897908e+68,-3.877972491756621e+68
16.15928296,6.984600606580088e+68,2.0480192893932462e+68,-3.841100890959521e+68
16.16405936,6.914941820972292e+68,2.0286550749156849e+68,-3.8045743889882716e+68
