"Time (s)","Acceleration x (m/s^2)","Acceleration y (m/s^2)","Acceleration z (m/s^2)"
3.406701800E-2,-1.871187329E0,5.410171986E0,7.785048485E0
3.884347700E-2,-1.841875196E0,5.356333256E0,7.914859295E0
4.361993500E-2,-1.550549030E0,5.087141037E0,7.999804497E0
4.839634100E-2,-1.571486235E0,5.179264545E0,7.649255753E0
5.317279900E-2,-1.386042476E0,5.097310543E0,7.691728592E0
5.794920600E-2,-1.250249863E0,4.712664127E0,7.907082558E0
6.272566400E-2,-1.311864972E0,4.606781960E0,7.902894974E0
6.759118500E-2,-1.363310695E0,4.553541660E0,8.023134232E0
7.230509100E-2,-1.237687469E0,4.485944271E0,8.291130066E0
7.708160200E-2,-1.127019525E0,4.539184570E0,8.531010628E0
8.185800800E-2,-1.150947690E0,4.910071850E0,8.660223007E0
8.663441400E-2,-9.583254457E-1,4.679164886E0,9.004789352E0
9.141087200E-2,-1.015753269E0,4.688735962E0,8.889934540E0
9.616071600E-2,-1.200598717E0,4.678566456E0,8.962915421E0
1.009636850E-1,-1.174875975E0,4.432703972E0,9.174081802E0
1.057401950E-1,-1.250848055E0,4.355535507E0,9.193224907E0
1.104899870E-1,-1.322632670E0,4.413561344E0,9.160323143E0
1.152664450E-1,-1.174875975E0,4.341178417E0,9.174081802E0
1.200428520E-1,-9.523434043E-1,4.298706055E0,8.985647202E0
1.248193100E-1,-7.435696125E-1,4.357329845E0,8.769096375E0
1.295957680E-1,-5.970092416E-1,4.376472473E0,8.691329956E0
1.343721740E-1,-4.971089065E-1,4.400999069E0,8.671588898E0
1.391485810E-1,-5.353940725E-1,4.516452789E0,8.724231720E0
1.439250390E-1,-5.347958803E-1,4.887340069E0,9.011968613E0
1.487014970E-1,-5.383850932E-1,4.685146809E0,9.074181557E0
1.534779040E-1,-6.179464459E-1,4.756931305E0,8.547162056E0
1.582543620E-1,-6.149554253E-1,4.550550461E0,8.187042236E0
1.630307680E-1,-7.453642488E-1,4.415356159E0,7.737192154E0
1.678072270E-1,-8.518448472E-1,4.289732933E0,7.420741081E0
1.725836330E-1,-9.720842242E-1,4.250849247E0,7.286743164E0
1.773600910E-1,-1.042074203E0,4.294518471E0,7.441080093E0
1.821364970E-1,-1.027119160E0,4.366302967E0,7.680960655E0
1.869129560E-1,-9.972088337E-1,4.405186653E0,7.896314621E0
1.916894140E-1,-9.631111026E-1,4.457828522E0,8.045268059E0
1.964658200E-1,-9.242277741E-1,4.501497746E0,8.212765694E0
2.012422790E-1,-8.853443861E-1,4.414757729E0,8.198408127E0
2.060186850E-1,-7.896314859E-1,4.453640938E0,8.303094864E0
2.107951430E-1,-7.776673436E-1,4.530211449E0,8.797810555E0
2.155715490E-1,-7.363911867E-1,4.583451748E0,9.310472488E0
2.203480080E-1,-7.286145091E-1,4.539782524E0,9.771689415E0
2.251244140E-1,-8.309076428E-1,4.457230568E0,1.013180923E1
2.299008720E-1,-8.548358679E-1,4.327419758E0,1.009890842E1
2.346773310E-1,-8.177471161E-1,4.187439442E0,9.848857880E0
2.394537370E-1,-7.238288522E-1,4.052843571E0,9.546165466E0
2.442301950E-1,-7.052844763E-1,3.835694790E0,1.010788059E1
2.490066020E-1,-5.330012441E-1,3.604787350E0,1.095194912E1
2.537830600E-1,-1.381855011E-1,3.610769272E0,1.026341438E1
2.585594660E-1,2.380858511E-1,3.674777269E0,9.498309135E0
2.633359240E-1,6.059823632E-1,3.699902058E0,8.977870941E0
2.681123310E-1,9.505487680E-1,3.696312666E0,8.563912392E0
2.728887890E-1,1.304686546E0,3.639483213E0,8.163114548E0
2.776651950E-1,1.621735573E0,3.553939819E0,7.773084164E0
2.824283720E-1,1.886740685E0,3.467798233E0,7.493722439E0
2.872041540E-1,2.013560295E0,3.424727440E0,7.219145775E0
2.919945180E-1,2.039881229E0,3.434896946E0,6.825526714E0
2.967576430E-1,2.013560295E0,3.439682484E0,6.399005890E0
3.015473830E-1,2.012363911E0,3.367299557E0,6.144170284E0
3.063238410E-1,2.015953064E0,3.333800077E0,5.980860233E0
3.110869660E-1,1.958525300E0,3.266202927E0,5.900102615E0
3.158767060E-1,1.801197290E0,3.217748165E0,5.824130535E0
3.206531120E-1,1.578066587E0,3.077169895E0,5.782256126E0
3.254162370E-1,1.301097274E0,3.086143017E0,5.659025669E0
3.302060290E-1,1.173081279E0,3.100499868E0,5.784050465E0
3.349824350E-1,1.088734269E0,3.090330362E0,5.937789440E0
3.397588930E-1,1.085743308E0,2.974876642E0,6.158527374E0
3.445352990E-1,1.159322619E0,2.859423161E0,6.485147476E0
3.493117580E-1,1.223330617E0,2.834896564E0,6.859025955E0
3.540881640E-1,1.012163997E0,2.897109985E0,7.305885792E0
3.588646220E-1,5.419743061E-1,2.766103029E0,7.328019142E0
3.636410290E-1,4.408775866E-1,2.602194548E0,7.079165936E0
3.684174870E-1,6.681957245E-1,2.453241348E0,6.790232658E0
3.731938930E-1,1.090528965E0,2.411366940E0,6.658627033E0
3.779703520E-1,1.494915962E0,2.850450039E0,6.824330330E0
3.827468100E-1,1.460219979E0,2.811566591E0,6.603592396E0
3.875232160E-1,1.441077471E0,2.696112871E0,6.507879257E0
3.922996740E-1,1.874776483E0,3.077169895E0,6.874579430E0
3.970760810E-1,1.658226132E0,2.460419893E0,6.866802692E0
4.018525390E-1,9.768698215E-1,1.847259045E0,6.443871498E0
4.066289450E-1,7.974081635E-1,1.287936807E0,6.330212116E0
4.113920700E-1,1.137188911E0,8.117650747E-1,6.414559364E0
4.161818100E-1,1.721037745E0,4.707878530E-1,6.738188744E0
4.209582680E-1,2.461018085E0,2.560320199E-1,7.185646534E0
4.257213930E-1,2.969492912E0,1.268195957E-1,7.720442295E0
4.305111330E-1,2.822334290E0,2.703889608E-1,8.580661774E0
4.352875910E-1,1.112662554E-1,1.412961721E0,1.338305664E1
4.400507160E-1,-3.343969584E0,3.035295486E0,1.870289993E1
4.448404560E-1,-2.802593470E0,3.890131474E0,1.739821434E1
4.496168620E-1,-2.773879766E0,4.837689400E0,1.003609657E1
4.543799870E-1,-4.354339123E0,5.409573555E0,5.581258774E0
4.591697270E-1,-5.367101192E0,5.975476265E0,5.931209087E0
4.639461850E-1,-5.991627693E0,5.843272686E0,6.404987812E0
4.687093100E-1,-3.570689678E0,4.177269936E0,6.254240036E0
4.734990490E-1,5.623133108E-2,2.259422779E0,6.323632240E0
4.782754560E-1,2.353341103E0,8.476574421E-1,6.974479675E0
4.830385810E-1,2.788236618E0,2.949153781E-1,7.697710514E0
4.878283720E-1,1.998006940E0,4.037888348E-1,7.759325504E0
4.926047790E-1,1.205384374E0,8.398807645E-1,7.499105930E0
4.973812370E-1,8.380861282E-1,1.350150228E0,7.615756035E0
5.021576430E-1,9.302098155E-1,1.735394597E0,8.123632431E0
5.069341020E-1,1.231107235E0,1.986042738E0,8.495717049E0
5.116972270E-1,1.577468276E0,2.112862349E0,8.301898003E0
5.164869660E-1,1.826920033E0,2.157129526E0,7.873582840E0
5.212633720E-1,2.018944025E0,2.124228239E0,7.359126091E0
5.260264970E-1,2.574079037E0,2.178664923E0,7.125825882E0
5.308162890E-1,3.229114056E0,2.180459738E0,6.906882763E0
5.355926950E-1,3.679563046E0,2.094916344E0,6.607181549E0
5.403558200E-1,3.978067636E0,1.931606054E0,6.341578007E0
5.451455600E-1,3.981656790E0,1.830509305E0,6.034100533E0
5.499220180E-1,3.852444410E0,1.772483349E0,5.900700569E0
5.546984240E-1,3.621536970E0,1.641476393E0,6.160920143E0
5.594748830E-1,3.491128206E0,1.405185103E0,6.637091637E0
5.642512890E-1,3.448655605E0,1.077368379E0,7.222734928E0
5.690277470E-1,3.248256683E0,8.590233326E-1,7.838288784E0
5.738041540E-1,2.900100946E0,5.647061467E-1,8.224131584E0
5.785806120E-1,2.630908489E0,5.324030295E-2,8.341380119E0
5.833437370E-1,2.285743713E0,-7.710871100E-1,8.237890244E0
5.881334770E-1,2.193022013E0,-1.320239902E0,7.596015453E0
5.929099350E-1,1.842473388E0,-1.210170031E0,7.050451756E0
5.976730600E-1,1.615753531E0,-8.590233326E-1,6.792625427E0
6.024627990E-1,1.395015597E0,-6.622136831E-1,6.534200668E0
6.072392060E-1,1.319641709E0,-9.409775138E-1,5.776872158E0
6.120023310E-1,1.456032634E0,-1.060618639E0,4.633700848E0
6.167920700E-1,6.454638839E-1,-1.019342422E0,4.331008911E0
6.215685290E-1,2.057827413E-1,-7.896314859E-1,4.990231514E0
6.263316540E-1,5.443671346E-2,-6.604190469E-1,5.965306759E0
6.311213930E-1,5.042873621E-1,-7.848458290E-1,7.100102901E0
6.358978520E-1,1.176072359E0,-1.221535921E0,7.879564762E0
6.406609770E-1,1.446461320E0,-1.770688772E0,8.166105270E0
6.454507160E-1,8.895317912E-1,-2.079961061E0,8.030312538E0
6.502271220E-1,4.013960063E-1,-2.447259426E0,8.023732185E0
6.549902470E-1,4.331009090E-1,-2.789433002E0,7.649255753E0
6.597799870E-1,1.338186026E0,-2.820539713E0,7.054041386E0
6.645564450E-1,2.280958176E0,-2.740978241E0,6.459424496E0
6.693195700E-1,2.892324448E0,-2.647658348E0,6.023931026E0
6.741093100E-1,3.375076294E0,-2.545365095E0,5.781657696E0
6.788857160E-1,3.564109325E0,-2.356930256E0,5.679364681E0
6.836488410E-1,3.647858143E0,-2.057827473E0,5.434100151E0
6.884386330E-1,4.091726780E0,-1.805982947E0,4.980660439E0
6.932150390E-1,4.263411522E0,-1.709073544E0,4.370490551E0
6.979781640E-1,4.247260094E0,-1.916052699E0,4.000799656E0
7.027679040E-1,4.144967079E0,-2.340180635E0,4.078566074E0
7.075443620E-1,4.014558315E0,-2.774477959E0,4.300500393E0
7.123207680E-1,3.873381615E0,-3.323630571E0,4.248456478E0
7.170972270E-1,3.836292982E0,-3.892524242E0,4.134199142E0
7.218736330E-1,3.832703590E0,-4.263411522E0,4.138985157E0
7.266367580E-1,4.358526230E0,-4.141975880E0,4.621138573E0
7.314264970E-1,5.049454212E0,-3.518645763E0,5.120640278E0
7.362029560E-1,5.610570908E0,-2.862414122E0,5.487340450E0
7.409660810E-1,5.949155331E0,-2.587239504E0,5.696114540E0
7.457558200E-1,6.348756790E0,-2.937788010E0,5.540580750E0
7.505322790E-1,6.944569588E0,-3.528815269E0,5.475974560E0
7.552954040E-1,7.669594765E0,-4.018745422E0,5.472385406E0
7.600851430E-1,8.199007034E0,-4.426722050E0,5.398207664E0
7.648615490E-1,8.764909744E0,-4.449453831E0,5.419145107E0
7.696246740E-1,9.474979401E0,-4.332205296E0,5.640480995E0
7.744144140E-1,1.002353382E1,-4.268197536E0,5.930611134E0
7.791908720E-1,1.029033375E1,-4.311268330E0,6.010770321E0
7.839539970E-1,1.051286602E1,-4.661816597E0,5.583053589E0
7.887437370E-1,1.074377346E1,-4.993820667E0,4.996213913E0
7.935201430E-1,1.110748291E1,-5.156532764E0,4.548157692E0
7.982833200E-1,1.168654537E1,-5.188836098E0,4.243072987E0
8.030730600E-1,1.241755295E1,-5.105087280E0,4.100101471E0
8.078494660E-1,1.327837086E1,-4.977669239E0,4.104887009E0
8.126125910E-1,1.399262905E1,-4.831707001E0,4.211368084E0
8.174023310E-1,1.456032562E1,-4.603790760E0,4.616353035E0
8.221787890E-1,1.472303772E1,-4.535595417E0,4.859822750E0
8.269419140E-1,1.484387493E1,-4.699503899E0,4.936393261E0
8.317316540E-1,1.491087437E1,-4.882554531E0,4.945366383E0
8.365080600E-1,1.505444336E1,-4.954937458E0,5.112864017E0
8.412711850E-1,1.525603867E1,-5.079364300E0,5.347360611E0
8.460609770E-1,1.551506233E1,-5.305486202E0,5.586044312E0
8.508373830E-1,1.565145302E1,-5.430510998E0,6.012565136E0
8.556005080E-1,1.577408504E1,-5.598606586E0,6.568896294E0
8.603902470E-1,1.580638790E1,-5.738586903E0,7.153941631E0
8.651667060E-1,1.568674660E1,-5.879165173E0,7.711469173E0
8.699298310E-1,1.571426487E1,-5.946762562E0,8.248658180E0
8.747195700E-1,1.610250092E1,-5.989833355E0,8.702695847E0
8.794959770E-1,1.644706726E1,-6.056233883E0,8.994022369E0
8.842591020E-1,1.660020638E1,-6.099305153E0,9.127422333E0
8.890488410E-1,1.653859138E1,-6.224927902E0,9.069993973E0
8.938252990E-1,1.644766426E1,-6.470192432E0,8.898308754E0
8.986017580E-1,1.635075569E1,-6.648457527E0,8.418548584E0
9.033781640E-1,1.619940948E1,-6.716054916E0,7.781459332E0
9.081546220E-1,1.633280945E1,-6.720242500E0,7.046264648E0
9.129310290E-1,1.621974754E1,-6.710670948E0,6.413960934E0
9.177074870E-1,1.588834190E1,-6.629314899E0,6.040680885E0
9.224838930E-1,1.546361637E1,-6.625725746E0,5.745765209E0
9.272470180E-1,1.532423401E1,-6.572485447E0,5.611767292E0
9.320367580E-1,1.544267941E1,-6.379863262E0,5.582455158E0
9.368132160E-1,1.565564060E1,-6.205785751E0,5.508875847E0
9.415896220E-1,1.580698681E1,-6.027520180E0,5.479563713E0
9.463660810E-1,1.586321735E1,-5.897111416E0,5.407180786E0
9.511425390E-1,1.603011703E1,-5.944967747E0,5.416153908E0
9.559189450E-1,1.608754539E1,-6.060421467E0,5.377270699E0
9.606954040E-1,1.605404472E1,-6.151947021E0,5.315057278E0
9.654718100E-1,1.608335686E1,-6.108277798E0,5.410770416E0
9.702482680E-1,1.613599968E1,-5.968895912E0,5.573482037E0
9.750246740E-1,1.623649788E1,-5.790032387E0,5.779264927E0
9.798011330E-1,1.629273033E1,-5.678766251E0,5.668596745E0
9.845775390E-1,1.624905968E1,-5.529214859E0,4.838287354E0
9.893539970E-1,1.593021679E1,-5.178068161E0,3.538984776E0
9.941304040E-1,1.576570988E1,-4.599603176E0,1.773679733E0
9.988935290E-1,1.605105400E1,-4.083351612E0,1.143171072E0
1.003683320E0,1.659422493E1,-3.946960926E0,6.652047038E-1
1.008459727E0,1.756092453E1,-4.117449760E0,-7.896314561E-2
1.013222852E0,1.854437637E1,-4.365705013E0,2.859423161E-1
1.018012591E0,1.904926109E1,-4.499104977E0,3.505485058E-1
1.022789049E0,1.892662811E1,-4.277768612E0,-1.094716340E-1
1.027552174E0,1.835653877E1,-3.600599766E0,3.439682424E-1
1.032341914E0,1.794258118E1,-2.888136864E0,7.441678643E-1
1.037118320E0,1.744128418E1,-2.204986095E0,3.589234129E-2
1.041881445E0,1.695075607E1,-1.868196249E0,-1.344168067E0
1.046671185E0,1.632144356E1,-1.309472203E0,-4.456034184E0
1.051447643E0,1.589910984E1,-1.823330879E0,1.633101404E-1
1.056210768E0,1.566580963E1,-2.154138565E0,5.438885689E0
1.061000508E0,1.651885033E1,-3.291327477E0,1.054636574E1
1.065776966E0,1.679163361E1,-3.372683525E0,1.074138069E1
1.070540091E0,1.652483368E1,-3.381656647E0,9.154341698E0
1.075329831E0,1.545464325E1,-3.022733212E0,7.816154957E0
1.080106237E0,1.455972767E1,-2.344367981E0,5.723033428E0
1.084869362E0,1.372762394E1,-1.772483349E0,2.958127022E0
1.089659102E0,1.322034550E1,-1.478764415E0,2.967100143E-1
1.094435560E0,1.232303619E1,-1.319641709E0,-2.462214470E0
1.099198685E0,1.126062298E1,-1.578664780E0,-1.991426587E0
1.103988424E0,9.911071777E0,-1.658824325E0,-2.617748022E0
1.108764831E0,9.213563919E0,-2.155933142E0,-2.623131752E0
1.113527956E0,8.924032211E0,-2.760120869E0,-1.152742267E0
1.118317747E0,8.916853905E0,-3.477967739E0,3.924229145E-1
1.123094154E0,8.206783295E0,-3.755535126E0,1.505085468E0
1.127857279E0,7.539783955E0,-3.998406649E0,2.089532375E0
1.132647018E0,6.958328247E0,-4.221537113E0,2.635095835E0
1.137423477E0,6.237490654E0,-4.261617184E0,2.144567251E0
1.142186602E0,5.784648895E0,-4.127020836E0,1.321436286E0
1.146976341E0,5.295316696E0,-3.810570002E0,8.297112584E-1
1.151752799E0,4.710869789E0,-3.522234917E0,4.049852192E-1
1.156515872E0,4.043870449E0,-3.147758245E0,-4.701896608E-1
1.161305664E0,3.607778311E0,-2.879163742E0,-8.422735929E-1
1.166082070E0,3.765106440E0,-2.729612350E0,-6.849454641E-1
1.170845195E0,4.167698860E0,-2.723630428E0,-2.117647976E-1
1.175634935E0,4.628317356E0,-2.766103029E0,4.624129832E-1
1.180411393E0,5.115854740E0,-2.842673302E0,1.530210137E0
1.185174518E0,5.587240696E0,-2.899502754E0,2.386840582E0
1.189964258E0,6.153741837E0,-2.907877684E0,2.441277266E0
1.194740664E0,5.921039581E0,-2.759522676E0,2.499901533E0
1.199503789E0,5.041079044E0,-2.857628345E0,2.557329178E0
1.204293529E0,5.642873764E0,-3.169293642E0,2.056032896E0
1.209069987E0,6.116652966E0,-3.317050457E0,1.520638824E0
1.213846445E0,6.565905571E0,-3.175873756E0,1.215553880E0
1.218622852E0,6.556932449E0,-2.684746981E0,7.501499057E-1
1.223399310E0,6.744170666E0,-2.192423820E0,5.180460811E-1
1.228162435E0,6.851249218E0,-1.398006678E0,6.131607890E-1
1.232952174E0,6.549155712E0,-5.892325640E-1,1.386640668E0
1.237728581E0,6.716653347E0,-1.076770201E-2,2.685943365E0
1.242491706E0,6.934998035E0,2.919243574E-1,4.350151539E0
1.247281445E0,7.514061451E0,3.355933726E-1,6.415755749E0
1.252057904E0,6.366104603E0,-3.619144261E-1,8.154141426E0
1.256821029E0,3.351148129E0,-2.040479422E0,8.377271652E0
1.261610768E0,2.004587173E0,-4.211966038E0,8.683553696E0
1.266387174E0,8.512466550E-1,-6.190232277E0,8.057231903E0
1.271150352E0,1.429711580E0,-7.888537884E0,6.832107067E0
1.275940039E0,2.846262455E0,-8.660821915E0,6.268597126E0
1.280716497E0,3.812364578E0,-8.258827209E0,6.483951092E0
1.285479622E0,4.549354076E0,-8.098507881E0,7.377072334E0
1.290269362E0,4.960919380E0,-8.135597229E0,6.851847649E0
1.295045820E0,5.218746185E0,-7.941180229E0,4.810770035E0
1.299808945E0,4.683950424E0,-4.336392879E0,-6.071787477E-1
1.304598685E0,5.959922791E0,-1.895115495E0,-1.588834286E0
1.309375091E0,7.730013371E0,-2.896511793E0,6.627520561E0
1.314138216E0,7.248457909E0,-4.309473515E0,7.216753006E0
1.318927956E0,7.532007694E0,-5.368297577E0,5.574678421E0
1.323704414E0,7.969295979E0,-5.958726406E0,3.691527128E0
1.328467539E0,8.453842163E0,-6.217151642E0,2.571087837E0
1.333257279E0,9.131608963E0,-5.845067501E0,2.413759947E0
1.338033737E0,9.451649666E0,-5.362315655E0,3.520440340E0
1.342810143E0,8.176275253E0,-4.594219685E0,3.147160053E0
1.347586602E0,7.316055298E0,-3.449253798E0,2.330011129E0
1.352363008E0,7.904091358E0,-2.633899450E0,1.759921074E0
1.357126133E0,9.064012527E0,-2.178066730E0,2.617748022E0
1.361915872E0,9.865608215E0,-2.090130568E0,3.817748547E0
1.366692331E0,8.912666321E0,-2.188834429E0,3.511467218E0
1.371455456E0,8.790632248E0,-2.261217356E0,2.989233732E0
1.376245195E0,1.038066292E1,-3.611367464E0,3.101696253E0
1.381021602E0,1.076530933E1,-4.250849247E0,3.440878868E0
1.385798060E0,9.410373688E0,-4.071387768E0,3.763910055E0
1.390574466E0,9.195617676E0,-4.288536549E0,3.564109325E0
1.395350924E0,9.942776680E0,-4.108476639E0,3.651447296E0
1.400114049E0,1.062233829E1,-4.131208420E0,4.262215137E0
1.404903789E0,1.129113197E1,-4.120440483E0,4.771886349E0
1.409680247E0,1.121216869E1,-3.783650875E0,4.445864677E0
1.414443372E0,1.144845963E1,-3.391826153E0,3.633501291E0
1.419233112E0,1.210469151E1,-3.346362352E0,2.871387243E0
1.424009518E0,1.209930801E1,-3.091526747E0,2.823530674E0
1.428772643E0,1.149392319E1,-2.538784742E0,2.096710920E0
1.433562383E0,1.181216908E1,-2.740380049E0,2.704487801E0
1.438338841E0,1.141735363E1,-2.986840963E0,2.639881611E0
1.443115247E0,1.117388344E1,-3.555734396E0,3.006581545E0
1.447891706E0,1.067198944E1,-3.104687452E0,2.821137905E0
1.452668112E0,9.437891006E0,-3.570689678E0,4.618147850E0
1.457431237E0,8.816953659E0,-3.379263878E0,4.314259052E0
1.462220977E0,9.294919968E0,-2.848057270E0,3.346362352E0
1.466997435E0,1.156511021E1,-9.433703423E-1,2.129014015E0
1.471760560E0,1.151486111E1,5.401797295E-1,1.753340840E0
1.476550299E0,1.185464191E1,7.046862841E-1,2.145763636E0
1.481326758E0,1.245224857E1,3.738785386E-1,2.531008244E0
1.486089883E0,1.281536007E1,2.781656384E-1,2.682952404E0
1.490879622E0,1.265982628E1,-3.870390654E-1,2.535195589E0
1.495656029E0,1.243310642E1,-9.798609018E-1,2.556132793E0
1.500432487E0,1.148315620E1,-1.729412556E0,2.360519648E0
1.505208893E0,1.136052418E1,-2.081157446E0,2.452044964E0
1.509985352E0,1.032443142E1,-2.439482689E0,2.395813704E0
1.514748477E0,9.040083885E0,-2.828914642E0,2.244467735E0
1.519538216E0,7.374679565E0,-2.837289333E0,2.181057930E0
1.524314674E0,6.500102520E0,-3.084946632E0,2.219342947E0
1.529077747E0,4.710869789E0,-3.407379389E0,1.979462504E0
1.533867487E0,4.336392879E0,-3.489931822E0,2.096710920E0
1.538643945E0,3.991826296E0,-3.707678795E0,1.704287887E0
1.543407070E0,4.404588223E0,-3.639483213E0,1.515254974E0
1.548196810E0,4.587639332E0,-3.778865099E0,1.812563181E0
1.552973268E0,4.635495663E0,-4.043272018E0,1.739582062E0
1.557736393E0,5.163113117E0,-4.220340729E0,1.540379524E0
1.562526133E0,5.961119175E0,-4.208376884E0,1.315454245E0
1.567302539E0,6.912864685E0,-3.883551121E0,8.309076428E-1
1.572078997E0,7.506284714E0,-3.577867985E0,7.363911867E-1
1.576855404E0,7.902296543E0,-3.650250912E0,9.308080077E-1
1.581631862E0,8.089534760E0,-3.668795347E0,1.107278705E0
1.586408268E0,8.204390526E0,-3.596412420E0,1.246062398E0
1.591184727E0,8.525029182E0,-3.720839262E0,1.560718536E0
1.595961133E0,8.903095245E0,-4.105485439E0,1.717448473E0
1.600724258E0,8.929415703E0,-4.524229527E0,1.943570137E0
1.605513997E0,8.784051895E0,-4.871787071E0,2.079362869E0
1.610290456E0,8.850452423E0,-5.001597404E0,2.011765718E0
1.615066862E0,9.007183075E0,-4.905286312E0,1.962712765E0
1.619843320E0,9.534799576E0,-4.937589645E0,1.797009826E0
1.624619727E0,9.911071777E0,-4.864608288E0,1.972284079E0
1.629382852E0,1.007258701E1,-4.560121536E0,2.143969059E0
1.634172643E0,1.029571724E1,-4.593023300E0,1.989632010E0
1.638949049E0,1.033460140E1,-4.554738045E0,2.099701881E0
1.643712174E0,1.097109222E1,-4.514657974E0,1.971685886E0
1.648501914E0,1.127378368E1,-3.854238987E0,2.079961061E0
1.653278372E0,1.183549881E1,-4.392025948E0,1.779661894E0
1.658054779E0,1.045005512E1,-4.766502857E0,1.441675663E0
1.662831237E0,1.017248726E1,-4.646263599E0,1.265205026E0
1.667607643E0,9.499505997E0,-4.022335052E0,1.998006940E0
1.672384102E0,8.931808472E0,-3.595216036E0,2.048854351E0
1.677160508E0,9.135796547E0,-3.502494097E0,2.009372711E0
1.681936966E0,9.159725189E0,-3.531208038E0,1.994417667E0
1.686713372E0,8.447261810E0,-3.470789194E0,2.151745796E0
1.691489831E0,7.533802032E0,-3.410370588E0,2.170888424E0
1.696266237E0,7.499105930E0,-3.352344513E0,2.012962103E0
1.701029362E0,7.198208809E0,-3.401397467E0,1.764108539E0
1.705819102E0,7.135396957E0,-3.647259951E0,1.443470240E0
1.710595560E0,7.329215527E0,-3.747758389E0,1.192822099E0
1.715371966E0,7.275975227E0,-3.988835335E0,9.248259664E-1
1.720148424E0,7.209574699E0,-4.234099865E0,8.440681696E-1
1.724924831E0,7.380661488E0,-4.243670940E0,8.620143533E-1
1.729701289E0,7.913064480E0,-4.083351612E0,9.074779749E-1
1.734477747E0,8.403593063E0,-3.971487284E0,9.284151793E-1
1.739254154E0,8.684151649E0,-3.806980848E0,1.027717352E0
1.744030612E0,8.483154297E0,-3.812364578E0,8.416753411E-1
1.748807018E0,7.906484127E0,-3.504886866E0,1.196411327E-1
1.753583477E0,7.776673794E0,-3.471387386E0,6.430711150E-1
1.758359883E0,7.669594765E0,-3.423531055E0,1.095314622E0
1.763136341E0,7.500900745E0,-3.525225878E0,1.378864050E0
1.767912747E0,7.859225750E0,-3.669991732E0,1.602592945E0
1.772689206E0,6.955935478E0,-3.559921980E0,2.685943544E-1
1.777465612E0,7.350152969E0,-3.916452408E0,1.456630826E0
1.782242070E0,7.579265594E0,-3.905684710E0,3.050848842E-2
1.787018477E0,7.625925541E0,-4.310071945E0,4.336991012E-1
1.791794935E0,8.406583786E0,-4.587639332E0,1.140179992E0
1.796571341E0,9.048459053E0,-4.716851711E0,1.045663476E0
1.801334466E0,9.353543282E0,-4.721039295E0,1.101894855E0
1.806124206E0,9.722636223E0,-4.526622295E0,9.176474810E-1
1.810900664E0,9.426525116E0,-4.325026989E0,8.135597110E-1
1.815677122E0,9.460622787E0,-4.368695736E0,8.853443861E-1
1.820453529E0,9.703494072E0,-4.579862595E0,8.554341197E-1
1.825229987E0,9.639486313E0,-4.956133842E0,1.052243710E0
1.830006393E0,9.893125534E0,-5.312066078E0,1.080359459E0
1.834782852E0,1.006959629E1,-5.677569866E0,1.055234790E0
1.839559258E0,9.728020668E0,-6.232704639E0,8.368897438E-1
1.844322383E0,9.492925644E0,-7.259225845E0,7.381857634E-1
1.849112122E0,9.134002686E0,-8.392227173E0,6.442674994E-1
1.853888581E0,7.992027760E0,-8.635697365E0,4.923232496E-1
1.858651706E0,7.387241840E0,-8.280961037E0,5.192425251E-1
1.863441445E0,7.825726509E0,-8.135597229E0,7.764709592E-1
1.868217852E0,8.626724243E0,-8.283353806E0,9.930213690E-1
1.872980977E0,8.773882866E0,-8.268398285E0,9.104689956E-1
1.877770716E0,8.210372925E0,-7.686344624E0,7.884350419E-1
1.882547174E0,7.336394310E0,-6.888338089E0,7.680960894E-1
1.887310299E0,6.630511761E0,-6.134000778E0,8.482556343E-1
1.892100039E0,6.405586243E0,-5.590231895E0,9.116654396E-1
1.896876445E0,6.347560406E0,-5.272584915E0,9.451649189E-1
1.901639622E0,6.399604321E0,-5.103890896E0,9.589236975E-1
1.906429362E0,6.589833736E0,-5.112864017E0,9.822536707E-1
1.911205768E0,6.775875568E0,-5.199005604E0,1.028913736E0
1.915982227E0,6.947560310E0,-5.347958565E0,1.057029366E0
1.920758633E0,7.019943237E0,-5.569294930E0,9.894321561E-1
1.925535091E0,6.987041950E0,-5.834300041E0,8.895317912E-1
1.930311497E0,7.044469833E0,-6.114260197E0,8.315058947E-1
1.935087956E0,7.116254330E0,-6.388238430E0,7.836494446E-1
1.939864362E0,7.079165936E0,-6.643671989E0,7.788637877E-1
1.944640820E0,7.061219692E0,-6.903891563E0,7.890332937E-1
1.949417227E0,6.885347366E0,-7.092326164E0,8.189435601E-1
1.954193685E0,6.558128834E0,-7.112665176E0,9.547362328E-1
1.958970091E0,6.273382664E0,-7.103692055E0,1.100100160E0
1.963746549E0,6.006583214E0,-6.863213539E0,1.101296663E0
1.968522956E0,6.047859192E0,-6.482754707E0,1.091127157E0
1.973299414E0,6.294918060E0,-6.092126369E0,1.262213945E0
1.978075820E0,6.404389858E0,-6.043671608E0,1.271187067E0
1.982852279E0,6.528816700E0,-6.312864304E0,1.256830096E0
1.987628685E0,6.467201233E0,-6.645466805E0,1.165902853E0
1.992405143E0,6.356533527E0,-7.089335442E0,1.483550072E0
1.997181602E0,6.309873104E0,-7.542177200E0,1.359123230E0
2.001958008E0,6.391229153E0,-6.293721676E0,1.319641709E0
2.006734466E0,5.980860233E0,-2.598605394E0,-1.637288928E0
2.011510872E0,5.044668198E0,-1.150947690E0,-6.352944374E-1
2.016273997E0,5.825924873E0,-1.217348576E0,1.856830359E0
2.021063737E0,6.744170666E0,-1.552941918E0,2.413759947E0
2.025840195E0,6.802196503E0,-2.197807550E0,1.491924882E0
2.030616602E0,6.142375946E0,-3.181855917E0,3.254238665E-1
2.035393060E0,5.531607628E0,-4.439882278E0,-5.635097623E-1
2.040169466E0,4.773082733E0,-5.525625706E0,-7.651050687E-1
2.044932591E0,4.479363918E0,-6.476174355E0,-1.962114573E-1
2.049722331E0,4.521836758E0,-6.894918442E0,2.739782035E-1
2.054498789E0,4.857429981E0,-6.986443996E0,5.886343718E-1
2.059261914E0,5.189434052E0,-7.207181931E0,3.379862010E-1
2.064051654E0,5.530411243E0,-7.259225845E0,8.195417374E-2
2.068828112E0,5.642275810E0,-7.152745247E0,-2.063809484E-1
2.073604518E0,5.541179180E0,-6.891927242E0,-2.829512656E-1
2.078380977E0,5.507679462E0,-6.772286415E0,5.180460811E-1
2.083157383E0,5.640480995E0,-6.801000118E0,1.237687469E0
2.087933841E0,5.869594097E0,-7.075576782E0,1.159920812E0
2.092710247E0,5.930611134E0,-7.494320393E0,7.806583643E-1
2.097486706E0,5.948556900E0,-7.792825222E0,4.588237405E-1
2.102249831E0,5.887540340E0,-8.231309891E0,3.493520916E-1
2.107039570E0,6.035895348E0,-8.283951759E0,4.971089065E-1
2.111815977E0,6.143572330E0,-8.650053978E0,7.758727670E-1
2.116579102E0,5.773880959E0,-9.059824944E0,4.845465720E-2
2.121368841E0,5.763113499E0,-9.098110199E0,-1.339980662E-1
2.126145299E0,6.862017155E0,-8.503493309E0,2.051845491E-1
2.130921706E0,6.157928944E0,-8.751151085E0,7.423732281E-1
2.135698164E0,4.849055290E0,-8.566305161E0,7.728816867E-1
2.140474570E0,3.882952929E0,-8.520841599E0,7.824530005E-1
2.145237695E0,3.394817114E0,-8.550751686E0,1.054038405E0
2.150027435E0,3.716651678E0,-8.829515457E0,1.412363529E0
2.154803893E0,3.876971006E0,-8.438887596E0,1.406381488E0
2.159580299E0,4.121038914E0,-8.163712502E0,9.972088337E-1
2.164356758E0,4.406980991E0,-8.794221878E0,1.576271892E0
2.169133164E0,3.745365620E0,-8.222934723E0,1.733001828E0
2.173896289E0,1.966302037E0,-6.844669342E0,2.609971285E0
2.178686029E0,2.201396823E-1,-5.976672649E0,2.268395901E0
2.183462487E0,-2.165504545E-1,-5.708078384E0,2.586641312E0
2.188225612E0,7.435696125E-1,-6.144768715E0,3.743571043E0
2.193015352E0,1.895115495E0,-6.912266254E0,3.368496180E0
2.197791810E0,3.506083488E0,-7.317849636E0,2.079362869E0
2.202568216E0,4.079762459E0,-7.546962738E0,1.606182218E0
2.207344622E0,3.700500250E0,-7.114459991E0,1.161715388E0
2.212121081E0,2.603989124E0,-6.307480335E0,1.267597795E0
2.216884206E0,7.746763229E-1,-5.878567219E0,1.142572761E0
2.221673945E0,9.900303483E-1,-7.313064098E0,-1.633101404E-1
2.226450404E0,2.587239504E0,-9.404391289E0,-1.595414519E0
2.231213477E0,4.199403763E0,-1.167458153E1,-2.029113531E0
2.236003268E0,4.505684853E0,-1.246301651E1,-2.179263115E0
2.240779674E0,4.983651161E0,-1.330529022E1,-2.343769789E0
2.245542799E0,5.368297577E0,-1.414756393E1,-2.019542217E0
2.250332539E0,5.505885124E0,-1.448495197E1,-1.486541033E0
2.255108997E0,5.502893925E0,-1.455733490E1,-4.983053207E-1
2.259872122E0,5.564508915E0,-1.438445377E1,3.409772217E-1
2.264661862E0,5.292923450E0,-1.397587872E1,1.263410330E0
2.269438268E0,4.678566456E0,-1.319701481E1,1.659422517E0
2.274201393E0,3.000001431E0,-1.134078312E1,4.049852192E-1
2.278991133E0,1.712662816E0,-8.641080856E0,-1.800599098E-1
2.283767591E0,1.239482164E0,-7.105486870E0,2.673979402E-1
2.288530716E0,1.294517040E0,-6.734599113E0,9.481559992E-1
2.293320456E0,1.389631748E0,-6.955935478E0,1.514058471E0
2.298096862E0,1.473978758E0,-7.515257835E0,1.792822361E0
2.302859987E0,1.404586911E0,-7.867002487E0,1.889133453E0
2.307649727E0,1.022931695E0,-8.359326363E0,1.531406522E0
2.312426185E0,9.236295223E-1,-8.913264275E0,1.296909928E0
2.317189310E0,6.245267391E-1,-9.762118340E0,9.780662656E-1
2.321979049E0,9.786644578E-1,-1.067139053E1,8.374879360E-1
2.326755456E0,1.241874933E0,-1.138863945E1,7.310073376E-1
2.331518581E0,1.647458434E0,-1.147478104E1,8.823533654E-1
2.336308320E0,1.709073544E0,-1.149392319E1,8.392825127E-1
2.341084779E0,1.866999865E0,-1.151306629E1,9.104689956E-1
2.345861185E0,2.133799553E0,-1.135274696E1,1.086341500E0
2.350637643E0,2.300100803E0,-1.123190975E1,1.152742267E0
2.355414049E0,2.532204628E0,-1.120259762E1,9.355936646E-1
2.360190508E0,2.373680115E0,-1.100040436E1,8.691928387E-1
2.364966966E0,2.202593327E0,-1.083709335E1,1.008574724E0
2.369743372E0,2.116451740E0,-1.068814087E1,9.708877802E-1
2.374519831E0,1.886740685E0,-1.060199928E1,7.513462901E-1
2.379296237E0,1.986641049E0,-1.057268715E1,8.368897438E-1
2.384072695E0,1.987239242E0,-1.033699417E1,1.014556766E0
2.388849102E0,1.797009826E0,-1.006241703E1,1.159322619E0
2.393625560E0,1.645663738E0,-9.802796364E0,1.404586911E0
2.398401966E0,1.492523074E0,-9.629914284E0,1.332802176E0
2.403178424E0,1.412363529E0,-9.360722542E0,1.601994753E0
2.407954831E0,1.243071318E0,-8.985049248E0,1.415354609E0
2.412731289E0,1.368694544E0,-9.051449776E0,8.871390224E-1
2.417507695E0,1.557727575E0,-9.384052277E0,4.875376225E-1
2.422284154E0,1.862812400E0,-1.001396275E1,2.805584669E-1
2.427060560E0,1.927418590E0,-1.115055370E1,1.752742529E-1
2.431823685E0,1.951945066E0,-1.279860973E1,1.190429255E-1
2.436613424E0,1.990230203E0,-1.443589878E1,1.196411327E-1
2.441389883E0,1.956730723E0,-1.523629856E1,4.223332107E-1
2.446153008E0,1.901695848E0,-1.533799362E1,7.399803996E-1
2.450942747E0,2.039881229E0,-1.467219067E1,1.118046403E0
2.455719154E0,2.403590441E0,-1.369890976E1,1.259222865E0
2.460495612E0,2.623131752E0,-1.253659630E1,1.089332461E0
2.465272018E0,2.533401012E0,-1.144307613E1,9.930213690E-1
2.470048477E0,1.983649969E0,-1.072702408E1,9.906286001E-1
2.474811602E0,1.359123230E0,-1.042971611E1,8.979067206E-1
2.479601341E0,7.489534616E-1,-1.037348461E1,7.908278704E-1
2.484377747E0,2.159522474E-1,-1.036989498E1,8.458628058E-1
2.489140872E0,-4.241278172E-1,-1.063669491E1,9.218349457E-1
2.493930612E0,-6.705885530E-1,-1.085862923E1,9.613165259E-1
2.498707070E0,-7.555337548E-1,-1.100818062E1,1.057627559E0
2.503470195E0,-6.179464459E-1,-1.087298584E1,1.076171994E0
2.508259935E0,-3.188436031E-1,-1.061695385E1,1.088734269E0
2.513036341E0,-8.793623000E-2,-1.030289650E1,9.625129104E-1
2.517812799E0,1.441675574E-1,-1.025922680E1,7.842476368E-1
2.522589206E0,2.590230405E-1,-1.025384331E1,8.458628058E-1
2.527365664E0,2.644068897E-1,-1.042792130E1,8.697910309E-1
2.532142070E0,3.020938635E-1,-1.064447117E1,6.825526357E-1
2.536918529E0,1.651047617E-1,-1.069771194E1,8.368897438E-1
2.541694987E0,3.092723191E-1,-1.085623646E1,9.613165259E-1
2.546471393E0,3.098705411E-1,-1.104885864E1,8.943174481E-1
2.551247799E0,3.768695593E-1,-1.123190975E1,9.511470199E-1
2.556024258E0,-9.870393574E-2,-1.071326542E1,1.269990563E0
2.560800716E0,-7.136593461E-1,-1.043031406E1,1.153340459E0
2.565577122E0,-1.261615753E0,-1.046560764E1,1.021735311E0
2.570353581E0,-1.637288928E0,-1.046142101E1,1.057029366E0
2.575116706E0,-1.622333765E0,-1.042792130E1,1.167697430E0
2.579906445E0,-1.362712502E0,-1.037408257E1,9.409775138E-1
2.584682852E0,-1.144965649E0,-1.029093170E1,8.147560954E-1
2.589459310E0,-8.596215248E-1,-1.015035343E1,7.842476368E-1
2.594235716E0,-5.090730190E-1,-1.002951622E1,5.802595019E-1
2.599012174E0,-1.866401732E-1,-9.980463028E0,4.492524564E-1
2.603788581E0,-5.102694035E-1,-9.533603668E0,7.196413875E-1
2.608565039E0,-1.908276081E-1,-8.742775917E0,1.288534999E0
2.613341445E0,1.019940615E0,-9.067003250E0,1.507478237E0
2.618104570E0,2.152343988E0,-9.594620705E0,1.223928809E0
2.622894310E0,1.916650891E0,-9.753743172E0,6.783652306E-1
2.627670768E0,1.140778184E0,-9.582656860E0,7.256234884E-1
2.632447174E0,6.095715761E-1,-9.588638306E0,9.589236975E-1
2.637223633E0,1.585244983E-1,-9.580264091E0,1.133599758E0
2.642000039E0,-3.128615618E-1,-9.581459999E0,1.107278705E0
2.646776497E0,-6.035895348E-1,-9.524032593E0,1.022333503E0
2.651552904E0,-7.555337548E-1,-9.538987160E0,1.009172916E0
2.656329362E0,-7.938188910E-1,-9.461818695E0,9.948160052E-1
2.661105768E0,-7.794619799E-1,-9.486345291E0,1.037886858E0
2.665882227E0,-6.460621357E-1,-9.495318413E0,1.013360381E0
2.670658633E0,-4.325026870E-1,-9.581459999E0,8.823533654E-1
2.675435091E0,-1.956132501E-1,-9.542576790E0,8.141579032E-1
2.680211497E0,-1.914258115E-2,-9.715457916E0,7.842476368E-1
2.684987956E0,2.087737769E-1,-9.661619186E0,8.171489239E-1
2.689764362E0,8.135596663E-2,-9.710074425E0,9.326026440E-1
2.694540820E0,-8.374879137E-3,-9.778269768E0,9.667003751E-1
2.699317227E0,-2.638086975E-1,-9.918250084E0,1.112064362E0
2.704093685E0,-3.678964674E-1,-9.928419113E0,1.194018483E0
2.708870091E0,-3.547359705E-1,-9.995418549E0,1.012163997E0
2.713646549E0,-4.265206456E-1,-9.875179291E0,9.308080077E-1
2.718422956E0,-5.132604837E-1,-9.841679573E0,8.255237937E-1
2.723199414E0,-4.803591371E-1,-9.894321442E0,6.765705943E-1
2.727975820E0,-5.467599630E-1,-9.952347755E0,7.058826685E-1
2.732752279E0,-2.865405083E-1,-1.003370380E1,4.642075896E-1
2.737528685E0,-3.667000830E-1,-1.001456070E1,5.270192027E-1
2.742305143E0,-2.380858511E-1,-9.932606697E0,6.508477330E-1
2.747081549E0,1.465603858E-1,-9.425926208E0,8.793623447E-1
2.751858008E0,7.094719410E-1,-8.200801849E0,9.044869542E-1
2.756634414E0,2.016551256E0,-8.380861282E0,6.047859192E-1
2.761397539E0,2.828316450E0,-9.433703423E0,5.198407173E-1
2.766187279E0,2.734996319E0,-9.544969559E0,7.603194118E-1
2.770963737E0,3.006581545E0,-1.024247742E1,4.618147612E-1
2.775740195E0,1.225723386E0,-1.043988514E1,9.176474810E-1
2.780516602E0,-5.982056856E-1,-1.029511929E1,1.469193101E0
2.785293008E0,-1.253839016E0,-1.011386299E1,1.755135417E0
2.790056133E0,-1.067797065E0,-9.780662537E0,1.188036442E0
2.794845924E0,-1.034895778E0,-9.713065147E0,4.630111754E-1
2.799622331E0,-8.321040869E-1,-9.476176262E0,1.501496136E-1
2.804398737E0,-5.515456200E-1,-9.470791817E0,1.872383654E-1
2.809175195E0,-7.286145091E-1,-9.813564301E0,6.340979934E-1
2.813951602E0,-7.244270444E-1,-1.012164021E1,1.119242787E0
2.818728060E0,-5.563312769E-1,-1.022273636E1,1.363310695E0
2.823504466E0,-5.802594870E-2,-1.009591675E1,1.240678549E0
2.828280924E0,6.101697683E-1,-9.848857880E0,9.014959335E-1
2.833057383E0,7.465606928E-1,-9.689137459E0,7.088736892E-1
2.837833789E0,6.466603279E-1,-9.636494637E0,7.956135273E-1
2.842610195E0,5.527420044E-1,-9.632308006E0,9.397810698E-1
2.847386654E0,3.672982752E-1,-9.617950439E0,9.553344250E-1
2.852163112E0,1.908276081E-1,-9.647262573E0,9.224331379E-1
2.856939518E0,7.657032460E-2,-9.710074425E0,8.943174481E-1
2.861715977E0,7.178468257E-2,-9.801599503E0,8.177471161E-1
2.866492383E0,1.621137410E-1,-9.835099220E0,7.932206988E-1
2.871268841E0,2.189432681E-1,-9.839884758E0,7.591229677E-1
2.876045247E0,2.380858511E-1,-9.835099220E0,6.873382926E-1
2.880821706E0,1.992024779E-1,-9.815957069E0,6.436693072E-1
2.885598112E0,1.417747438E-1,-9.835099220E0,6.299105883E-1
2.890374570E0,8.015955985E-2,-9.815957069E0,6.155536175E-1
2.895150977E0,1.794617064E-2,-9.806385040E0,6.017948985E-1
2.899927435E0,3.589233849E-3,-9.811170578E0,5.778666735E-1
2.904703841E0,-5.982056726E-3,-9.801599503E0,5.826523304E-1
2.909480299E0,-1.495514158E-2,-9.806385040E0,6.400800347E-1
2.914256706E0,-5.383851007E-3,-9.811769485E0,6.837490797E-1
2.919033164E0,-1.495514158E-2,-9.811769485E0,6.837490797E-1
2.923809570E0,-2.452643216E-2,-9.816555023E0,6.885347366E-1
2.928586029E0,-1.974078640E-2,-9.835697174E0,6.885347366E-1
2.933362435E0,-5.383851007E-3,-9.854840279E0,6.885347366E-1
2.938138893E0,1.375873014E-2,-9.845269203E0,6.837490797E-1
2.942915299E0,6.580262631E-2,-9.835099220E0,6.789634228E-1
2.947691706E0,1.136590764E-1,-9.849455833E0,6.687939167E-1
2.952468164E0,1.184447184E-1,-9.820742607E0,6.640082598E-1
2.957244622E0,1.465603858E-1,-9.815957069E0,6.640082598E-1
2.962021029E0,1.513460279E-1,-9.815957069E0,6.735795736E-1
2.966797487E0,1.423729509E-1,-9.820742607E0,6.879364848E-1
2.971573893E0,1.471585929E-1,-9.830313683E0,6.975077987E-1
2.976350352E0,1.615155339E-1,-9.835099220E0,7.022934556E-1
2.981126758E0,1.848455518E-1,-9.830313683E0,7.022934556E-1
2.985903216E0,2.135594189E-1,-9.844670296E0,7.112665176E-1
2.990679622E0,2.572284341E-1,-9.854242325E0,7.256234884E-1
2.995456081E0,2.572284341E-1,-9.878170013E0,7.351947427E-1
3.000232487E0,2.572284341E-1,-9.887741089E0,7.256234884E-1
3.005008945E0,2.333002090E-1,-9.897313118E0,7.160521746E-1
3.009785352E0,1.950150430E-1,-9.902696609E0,7.262216806E-1
3.014561810E0,1.854437590E-1,-9.912267685E0,7.118647099E-1
3.019338216E0,1.519442350E-1,-9.897911072E0,6.640082598E-1
3.024114674E0,9.451649338E-2,-9.912267685E0,6.251249313E-1
3.028891081E0,2.273181453E-2,-9.936794281E0,5.682953596E-1
3.033667539E0,-7.716853172E-2,-9.951150894E0,5.347958803E-1
3.038443945E0,-1.770688742E-1,-9.975677490E0,4.827519655E-1
3.043220404E0,-2.823530734E-1,-9.985248566E0,4.115654826E-1
3.047996810E0,-3.918247223E-1,-1.000977516E1,3.493520916E-1
3.052773268E0,-4.438686073E-1,-1.005344391E1,3.834498227E-1
3.057549674E0,-4.719842672E-1,-1.008215809E1,4.558327198E-1
3.062326133E0,-4.522434771E-1,-1.012044334E1,5.563312769E-1
3.067102539E0,-4.181457460E-1,-1.016411209E1,6.233302951E-1
3.071878997E0,-3.649054468E-1,-1.020718288E1,7.244270444E-1
3.076655404E0,-3.314059377E-1,-1.019282627E1,8.488538265E-1
3.081431862E0,-2.877369225E-1,-1.015932655E1,9.254241586E-1
3.086208268E0,-1.968096644E-1,-1.007198906E1,1.102493048E0
3.090984727E0,-1.728814393E-1,-9.980463028E0,1.183848977E0
3.095761133E0,-1.064806059E-1,-9.855438232E0,1.226321578E0
3.100537591E0,-6.400800496E-2,-9.739984512E0,1.250249863E0
3.105313997E0,-3.110669367E-2,-9.609575272E0,1.268794179E0
3.110090456E0,-2.392822644E-3,-9.518050194E0,1.316650629E0
3.114866862E0,3.589234129E-2,-9.440881729E0,1.359721422E0
3.119643320E0,6.879365444E-2,-9.378069878E0,1.388435364E0
3.124419727E0,1.016949639E-1,-9.334999084E0,1.373480201E0
3.129196185E0,1.160518974E-1,-9.291330338E0,1.354337573E0
3.133972591E0,1.160518974E-1,-9.296115875E0,1.383051515E0
3.138749049E0,1.112662554E-1,-9.315856934E0,1.344766378E0
3.143525456E0,9.152546525E-2,-9.358927727E0,1.253839016E0
3.148301914E0,6.759724021E-2,-9.412167549E0,1.201196909E0
3.153078320E0,9.152546525E-2,-9.474381447E0,1.153340459E0
3.157854779E0,1.250249892E-1,-9.512666702E0,1.124028444E0
3.162631185E0,1.818545163E-1,-9.565906525E0,1.080957651E0
3.167407643E0,2.440679073E-1,-9.642477036E0,1.032503009E0
3.172184049E0,3.008974493E-1,-9.690333366E0,9.744769931E-1
3.176960508E0,3.343969584E-1,-9.753145218E0,9.122636318E-1
3.181736914E0,3.385843933E-1,-9.805787086E0,8.404789567E-1
3.186513372E0,3.290131092E-1,-9.868598938E0,7.782655358E-1
3.191289779E0,2.667997181E-1,-9.902696609E0,6.873382926E-1
3.196066237E0,1.848455518E-1,-9.964909554E0,6.197410822E-1
3.200842643E0,1.136590764E-1,-1.001815033E1,5.581258535E-1
3.205619102E0,3.768695518E-2,-1.010488987E1,5.443671346E-1
3.210395508E0,2.871387079E-2,-1.016770172E1,5.730810165E-1
3.215171966E0,2.452643216E-2,-1.020658493E1,6.448656917E-1
3.219948372E0,2.931207791E-2,-1.023051357E1,7.172485590E-1
3.224724831E0,5.982056726E-3,-1.024965572E1,7.561319470E-1
3.229501237E0,-1.256231871E-2,-1.023051357E1,8.039883971E-1
3.234277695E0,-4.606183618E-2,-1.018265629E1,8.620143533E-1
3.239054102E0,-4.546362907E-2,-1.015872860E1,9.050851464E-1
3.243830560E0,-2.632104978E-2,-1.008634567E1,9.481559992E-1
3.248606966E0,1.615155302E-2,-9.994820595E0,9.714859724E-1
3.253383424E0,7.298108935E-2,-9.903294563E0,9.762716293E-1
3.258159831E0,1.435693651E-1,-9.801599503E0,9.756734371E-1
3.262936289E0,2.249253243E-1,-9.734002113E0,1.003789067E0
3.267712695E0,3.248256743E-1,-9.637691498E0,1.031904817E0
3.272489154E0,4.199403822E-1,-9.545567513E0,1.074975610E0
3.277265560E0,5.054838061E-1,-9.468399048E0,1.079162955E0
3.282042018E0,6.239284873E-1,-9.381659508E0,1.064207911E0
3.286818424E0,7.040880919E-1,-9.318847656E0,1.030110121E0
3.291594883E0,7.369893789E-1,-9.279964447E0,9.720842242E-1
3.296371289E0,7.698906660E-1,-9.241679192E0,9.385846853E-1
3.301147747E0,7.316055298E-1,-9.222537041E0,8.955138922E-1
3.305924154E0,6.933203340E-1,-9.212965012E0,8.524430394E-1
3.310700612E0,6.460621357E-1,-9.270393372E0,8.285148144E-1
3.315477018E0,5.605186820E-1,-9.381659508E0,7.860422134E-1
3.320253424E0,4.749752879E-1,-9.521639824E0,7.579265833E-1
3.325029883E0,3.942175210E-1,-9.651450157E0,7.345965505E-1
3.329806341E0,2.949153781E-1,-9.786644936E0,7.064808607E-1
3.334582747E0,2.183450609E-1,-9.859027863E0,6.681957245E-1
3.339359206E0,2.039881349E-1,-9.887741089E0,6.101697683E-1
3.344135612E0,1.986042857E-1,-9.917053223E0,5.670989752E-1
3.348912070E0,1.842473447E-1,-9.940981865E0,5.048855543E-1
3.353688477E0,1.692921966E-1,-9.936196327E0,4.426721931E-1
3.358464935E0,1.597209126E-1,-9.931410789E0,3.565305769E-1
3.363241341E0,1.160518974E-1,-9.950552940E0,2.703889608E-1
3.368017799E0,1.064806059E-1,-9.950552940E0,2.608176768E-1
3.372794206E0,9.272187948E-2,-9.989436150E0,2.751746178E-1
3.377570664E0,7.896314561E-2,-1.001336479E1,3.182454109E-1
3.382347070E0,1.028913707E-1,-1.001815033E1,3.852444589E-1
3.387123477E0,1.603191197E-1,-9.988838196E0,4.235295951E-1
3.391899935E0,2.267199457E-1,-9.964909554E0,4.516452849E-1
3.396676393E0,3.128615618E-1,-9.930811882E0,4.947160780E-1
3.401452799E0,3.559323549E-1,-9.911669731E0,5.569294691E-1
3.406229258E0,3.750749528E-1,-9.872786522E0,5.659025311E-1
3.411005664E0,3.846462369E-1,-9.844072342E0,5.994020700E-1
3.415782122E0,3.990031779E-1,-9.786644936E0,6.376872063E-1
3.420558529E0,3.894318938E-1,-9.723833084E0,6.723831892E-1
3.425334935E0,3.990031779E-1,-9.670592308E0,6.520441771E-1
3.430111393E0,3.984049559E-1,-9.627521515E0,6.281159520E-1
3.434887799E0,4.223332107E-1,-9.617950439E0,6.376872063E-1
3.439664258E0,3.984049559E-1,-9.589237213E0,6.281159520E-1
3.444440664E0,4.169493318E-1,-9.535996437E0,6.185446382E-1
3.449217122E0,4.025924206E-1,-9.512067795E0,6.233302951E-1
3.453993529E0,4.169493318E-1,-9.502496719E0,6.137589812E-1
3.458769987E0,4.217349887E-1,-9.512067795E0,5.850451589E-1
3.463546393E0,4.648058116E-1,-9.540781975E0,5.940182209E-1
3.468322852E0,4.983053207E-1,-9.579067230E0,6.083751321E-1
3.473099258E0,5.174478889E-1,-9.632308006E0,5.844469070E-1
3.477875716E0,5.647061467E-1,-9.661021233E0,5.844469070E-1
3.482652122E0,5.647061467E-1,-9.665806770E0,6.131607890E-1
3.487428581E0,5.886343718E-1,-9.684949875E0,6.083751321E-1
3.492204987E0,5.605186820E-1,-9.708877563E0,5.940182209E-1
3.496981445E0,5.359922647E-1,-9.718449593E0,5.557330847E-1
3.501757852E0,5.078766346E-1,-9.733404160E0,5.365904570E-1
3.506534310E0,4.504488707E-1,-9.752547264E0,4.983053207E-1
3.511310716E0,3.601198196E-1,-9.777072906E0,4.749752879E-1
3.516087174E0,2.937189937E-1,-9.829715729E0,4.564309120E-1
3.520863581E0,2.027917206E-1,-9.882955551E0,4.277170599E-1
3.525640039E0,1.124626622E-1,-9.950552940E0,4.331009090E-1
3.530416445E0,3.170489892E-2,-9.979865074E0,4.480560422E-1
3.535192904E0,-3.469592705E-2,-1.000379372E1,4.438686073E-1
3.539969310E0,-8.195417374E-2,-1.001874828E1,4.342973232E-1
3.544745768E0,-9.690931439E-2,-9.994820595E0,4.295116663E-1
3.549522174E0,-1.016949639E-1,-9.970293999E0,4.199403822E-1
3.554298633E0,-7.776673883E-2,-9.946365356E0,4.103690982E-1
3.559075039E0,-3.529413417E-2,-9.946365356E0,4.199403822E-1
3.563851497E0,-1.076770201E-2,-9.946365356E0,4.528416991E-1
3.568627904E0,4.127619043E-2,-9.970293999E0,4.719842672E-1
3.573404362E0,1.082752272E-1,-9.975079536E0,4.863412082E-1
3.578180768E0,1.603191197E-1,-9.969695091E0,5.048855543E-1
3.582957227E0,2.470589429E-1,-9.960124016E0,5.186443329E-1
3.587733633E0,3.278166950E-1,-9.916455269E0,5.425725579E-1
3.592510091E0,4.277170599E-1,-9.868000984E0,5.802595019E-1
3.597286497E0,4.893322289E-1,-9.781260490E0,6.233302951E-1
3.602062956E0,5.605186820E-1,-9.680164337E0,6.568298340E-1
3.606839362E0,6.029912829E-1,-9.593423843E0,6.317051649E-1
3.611615820E0,6.311069727E-1,-9.497113228E0,6.364908218E-1
3.616392227E0,6.544370055E-1,-9.415159225E0,6.412764788E-1
3.621168633E0,6.927221417E-1,-9.357132912E0,6.263213158E-1
3.625945091E0,7.399803996E-1,-9.347561836E0,6.454638839E-1
3.630721497E0,8.213363886E-1,-9.357132912E0,7.178468108E-1
3.635497956E0,8.267202377E-1,-9.395418167E0,7.609176040E-1
3.640274362E0,7.980063558E-1,-9.453444481E0,7.513462901E-1
3.645050820E0,7.603194118E-1,-9.520442963E0,7.130611539E-1
3.649827227E0,6.939185858E-1,-9.593423843E0,7.040880919E-1
3.654603685E0,5.988038778E-1,-9.680164337E0,7.142575383E-1
3.659380091E0,5.132604837E-1,-9.771689415E0,6.669993401E-1
3.664156549E0,4.372883439E-1,-9.868000984E0,5.802595019E-1
3.668932956E0,3.990031779E-1,-9.959526062E0,4.893322289E-1
3.673709414E0,3.840480447E-1,-1.000798035E1,4.271188378E-1
3.678485820E0,4.175475538E-1,-1.003190899E1,3.792623878E-1
3.683262279E0,4.360919297E-1,-1.003669453E1,3.068794906E-1
3.688038685E0,4.833501875E-1,-1.003190899E1,2.494517565E-1
3.692815143E0,5.449653864E-1,-1.003609657E1,2.105683982E-1
3.697591549E0,5.970092416E-1,-1.004566765E1,2.099701911E-1
3.702368008E0,6.161518097E-1,-1.005045319E1,2.291127741E-1
3.707144414E0,6.017948985E-1,-1.005523872E1,2.243271172E-1
3.711920872E0,5.593222976E-1,-1.008455086E1,2.440679073E-1
3.716697279E0,4.881358147E-1,-1.015214825E1,2.590230405E-1
3.721473737E0,4.031906128E-1,-1.019581699E1,2.733799815E-1
3.726250143E0,3.415754437E-1,-1.014736271E1,3.314059377E-1
3.731026602E0,3.128615618E-1,-1.008993530E1,3.553341627E-1
3.735803008E0,3.032902777E-1,-1.004148006E1,3.702892959E-1
3.740579466E0,2.937189937E-1,-9.979267120E0,3.990031779E-1
3.745355872E0,3.224328458E-1,-9.940383911E0,4.468596280E-1
3.750132331E0,3.505485058E-1,-9.868598938E0,4.510470629E-1
3.754908737E0,3.840480447E-1,-9.824930191E0,4.606183469E-1
3.759685195E0,4.121637046E-1,-9.771689415E0,4.797609448E-1
3.764461602E0,4.121637046E-1,-9.709476471E0,5.180460811E-1
3.769238060E0,4.169493318E-1,-9.656235695E0,5.132604837E-1
3.774014466E0,3.930211067E-1,-9.603593826E0,5.228317380E-1
3.778790924E0,3.690928817E-1,-9.574879646E0,5.276173949E-1
3.783567331E0,3.266202807E-1,-9.565308571E0,5.324030519E-1
3.788343789E0,2.787638307E-1,-9.550951958E0,5.473581553E-1
3.793120195E0,2.554338276E-1,-9.555737495E0,5.808576941E-1
3.797896654E0,2.171486616E-1,-9.550951958E0,6.101697683E-1
3.802673060E0,1.980060786E-1,-9.550951958E0,6.197410822E-1
3.807449466E0,1.932204217E-1,-9.555737495E0,6.245267391E-1
3.812225924E0,1.788634956E-1,-9.584450722E0,6.245267391E-1
3.817002331E0,1.932204217E-1,-9.604191780E0,6.149554253E-1
3.821778789E0,1.884347796E-1,-9.647262573E0,5.814558864E-1
3.826555195E0,1.597209126E-1,-9.705288887E0,5.575276613E-1
3.831331654E0,1.316052526E-1,-9.792028427E0,5.383850932E-1
3.836108060E0,1.178465188E-1,-9.859027863E0,5.341976285E-1
3.840884518E0,1.034895778E-1,-9.931410789E0,5.246263742E-1
3.845660924E0,8.913264424E-2,-9.999007225E0,5.102694035E-1
3.850437383E0,7.537391037E-2,-1.003250694E1,4.911268353E-1
3.855213789E0,8.434699476E-2,-1.006660461E1,4.671986103E-1
3.859990247E0,9.391828626E-2,-1.008574772E1,4.576273263E-1
3.864766654E0,1.034895778E-1,-1.007617569E1,4.432703853E-1
3.869543112E0,1.274178028E-1,-1.005643559E1,4.474578202E-1
3.874319518E0,1.507478207E-1,-1.001815033E1,4.522434771E-1
3.879095977E0,1.698904037E-1,-9.964909554E0,4.570291340E-1
3.883872383E0,1.692921966E-1,-9.917053223E0,4.522434771E-1
3.888648841E0,1.645065546E-1,-9.868598938E0,4.618147612E-1
3.893425247E0,1.357926875E-1,-9.815957069E0,4.618147612E-1
3.898201706E0,9.332008660E-2,-9.777671814E0,4.713860750E-1
3.902978112E0,5.024927482E-2,-9.734002113E0,4.624129832E-1
3.907754570E0,1.674975827E-2,-9.695717812E0,4.576273263E-1
3.912530977E0,6.580262445E-3,-9.671789169E0,4.193421602E-1
3.917307435E0,1.136590727E-2,-9.667003632E0,3.858426511E-1
3.922083841E0,4.486542568E-2,-9.686145782E0,3.708875179E-1
3.926860299E0,9.212367237E-2,-9.705288887E0,3.708875179E-1
3.931636706E0,1.447657645E-1,-9.734002113E0,3.708875179E-1
3.936413164E0,1.878365725E-1,-9.734002113E0,4.181457460E-1
3.941189570E0,1.884347796E-1,-9.738788605E0,5.240281820E-1
3.945966029E0,2.273181528E-1,-9.743574142E0,6.634100676E-1
3.950742435E0,2.428714931E-1,-9.724431038E0,7.926225066E-1
3.955518841E0,2.237289101E-1,-9.729216576E0,9.032905698E-1
3.960295299E0,2.392822653E-1,-9.729216576E0,9.990034699E-1
3.965071706E0,2.057827413E-1,-9.748359680E0,1.071386337E0
3.969848164E0,1.591227055E-1,-9.719645500E0,1.167099237E0
3.974624570E0,1.256231815E-1,-9.690931320E0,1.177268744E0
3.979401029E0,8.733802289E-2,-9.657432556E0,1.148554921E0
3.984177435E0,1.555334684E-2,-9.628718376E0,1.100698471E0
3.988953893E0,-3.708875179E-2,-9.604789734E0,1.053440213E0
3.993730299E0,-1.088734269E-1,-9.561120987E0,9.816554785E-1
3.998506758E0,-1.423729509E-1,-9.541978836E0,9.290133715E-1
4.003283164E0,-1.621137410E-1,-9.537193298E0,8.763712645E-1
4.008059622E0,-1.764706671E-1,-9.566504478E0,7.950153351E-1
4.012836029E0,-2.003988922E-1,-9.638289452E0,7.184450030E-1
4.017612487E0,-2.153540403E-1,-9.710672379E0,6.562315822E-1
4.022388893E0,-2.721835673E-1,-9.783055305E0,5.934200287E-1
4.027165352E0,-3.152543902E-1,-9.850652695E0,5.024927258E-1
4.031941758E0,-3.056831062E-1,-9.923035622E0,4.977070987E-1
4.036718216E0,-3.337987661E-1,-9.966106415E0,5.270192027E-1
4.041494622E0,-3.242274821E-1,-9.994820595E0,5.318048596E-1
4.046271081E0,-3.002992272E-1,-1.004806042E1,5.312066078E-1
4.051047487E0,-2.715853751E-1,-1.006720352E1,5.742774606E-1
4.055823945E0,-2.045863420E-1,-1.011027431E1,6.029912829E-1
4.060600352E0,-1.519442350E-1,-1.013420200E1,6.508477330E-1
4.065376810E0,-8.554340899E-2,-1.014377308E1,6.502495408E-1
4.070153216E0,4.785645287E-3,-1.012463093E1,6.113662124E-1
4.074929622E0,3.768695518E-2,-1.009531879E1,5.682953596E-1
4.079706081E0,6.580262631E-2,-1.008096218E1,5.485545993E-1
4.084482539E0,1.040877849E-1,-1.005643559E1,5.198407173E-1
4.089258945E0,1.274178028E-1,-9.960124016E0,5.198407173E-1
4.094035352E0,1.651047617E-1,-9.878170013E0,5.479564071E-1
4.098811810E0,1.890329868E-1,-9.825528145E0,5.479564071E-1
4.103588216E0,1.932204217E-1,-9.777072906E0,5.431707501E-1
4.108364674E0,1.740778536E-1,-9.714859962E0,5.527420044E-1
4.113141081E0,1.220339537E-1,-9.671191216E0,5.431707501E-1
4.117917539E0,7.896314561E-2,-9.637691498E0,5.533402562E-1
4.122693945E0,3.649054468E-2,-9.623334885E0,5.724828243E-1
4.127470404E0,2.991028363E-3,-9.647860527E0,5.820540786E-1
4.132246810E0,1.734796353E-2,-9.690931320E0,5.820540786E-1
4.137023268E0,6.041877344E-2,-9.734002113E0,5.676971674E-1
4.141799674E0,8.913264424E-2,-9.768099785E0,5.724828243E-1
4.146576133E0,1.507478207E-1,-9.801599503E0,5.670989752E-1
4.151352539E0,1.986042857E-1,-9.825528145E0,5.623133183E-1
4.156128997E0,2.703889608E-1,-9.839884758E0,5.665007830E-1
4.160905404E0,3.182454109E-1,-9.844072342E0,5.760720372E-1
4.165681862E0,3.469592929E-1,-9.848857880E0,6.047859192E-1
4.170458268E0,3.846462369E-1,-9.839286804E0,5.946164131E-1
4.175234727E0,4.085744619E-1,-9.805787086E0,6.281159520E-1
4.180011133E0,4.181457460E-1,-9.786644936E0,6.376872063E-1
4.184787591E0,4.181457460E-1,-9.757332802E0,6.472585201E-1
4.189563997E0,4.037888348E-1,-9.742975235E0,6.669993401E-1
4.194340456E0,3.607180119E-1,-9.723833084E0,6.580262184E-1
4.199116862E0,3.326023519E-1,-9.742975235E0,6.382854581E-1
4.203893320E0,3.038884699E-1,-9.767501831E0,6.430711150E-1
4.208669727E0,2.709871531E-1,-9.791430473E0,6.436693072E-1
4.213446185E0,2.614158690E-1,-9.810572624E0,6.484549642E-1
4.218222591E0,2.374876440E-1,-9.820742607E0,6.340979934E-1
4.222998997E0,2.374876440E-1,-9.810572624E0,6.197410822E-1
4.227775456E0,2.129612118E-1,-9.825528145E0,6.293123364E-1
4.232551914E0,1.890329868E-1,-9.811170578E0,6.197410822E-1
4.237328320E0,1.657029688E-1,-9.820742607E0,6.149554253E-1
4.242104727E0,1.274178028E-1,-9.796813965E0,6.346961856E-1
4.246881185E0,1.130608693E-1,-9.792028427E0,6.592226624E-1
4.251657591E0,1.088734269E-1,-9.768099785E0,6.735795736E-1
4.256434049E0,1.130608693E-1,-9.763314247E0,6.687939167E-1
4.261210456E0,1.082752272E-1,-9.763314247E0,6.592226624E-1
4.265986914E0,1.226321608E-1,-9.767501831E0,6.592226624E-1
4.270763320E0,1.226321608E-1,-9.782457352E0,6.592226624E-1
4.275539779E0,1.274178028E-1,-9.772886276E0,6.687939167E-1
4.280316185E0,1.465603858E-1,-9.777671814E0,6.687939167E-1
4.285092643E0,1.657029688E-1,-9.762716293E0,6.735795736E-1
4.289869049E0,1.752742529E-1,-9.777072906E0,6.729813814E-1
4.294645508E0,1.842473447E-1,-9.772287369E0,6.436693072E-1
4.299421914E0,2.081755698E-1,-9.777072906E0,6.586244106E-1
4.304198372E0,2.129612118E-1,-9.777072906E0,6.484549642E-1
4.308974779E0,2.033899277E-1,-9.772287369E0,6.293123364E-1
4.313751237E0,1.842473447E-1,-9.753145218E0,6.101697683E-1
4.318527643E0,1.459621787E-1,-9.729216576E0,5.670989752E-1
4.323304102E0,1.268195957E-1,-9.714859962E0,5.814558864E-1
4.328080508E0,1.178465188E-1,-9.714859962E0,6.251249313E-1
4.332856914E0,8.973085135E-2,-9.729216576E0,6.783652306E-1
4.337633372E0,1.280160099E-1,-9.768099785E0,6.927221417E-1
4.342409779E0,1.615155339E-1,-9.796813965E0,7.118647099E-1
4.347186237E0,1.950150430E-1,-9.811170578E0,7.453642488E-1
4.351962643E0,2.620140910E-1,-9.810572624E0,7.734799385E-1
4.356739102E0,3.092723191E-1,-9.810572624E0,7.591229677E-1
4.361515508E0,3.523431420E-1,-9.815358162E0,7.441678643E-1
4.366291966E0,3.756731451E-1,-9.796216011E0,7.298108935E-1
4.371068372E0,3.661018610E-1,-9.820143700E0,7.010970116E-1
4.375844831E0,3.523431420E-1,-9.829715729E0,7.106683254E-1
4.380621237E0,3.092723191E-1,-9.834501266E0,7.304090858E-1
4.385397695E0,2.811566591E-1,-9.844670296E0,7.208378315E-1
4.390174102E0,2.333002090E-1,-9.820742607E0,6.969096065E-1
4.394950560E0,1.896311939E-1,-9.830313683E0,6.634100676E-1
4.399726966E0,1.465603858E-1,-9.835099220E0,6.490531564E-1
4.404503424E0,1.232303679E-1,-9.839884758E0,6.735795736E-1
4.409279831E0,1.088734269E-1,-9.835099220E0,6.831508875E-1
4.414056289E0,1.040877849E-1,-9.854242325E0,6.975077987E-1
4.418832695E0,8.075776696E-2,-9.883553505E0,7.268198729E-1
4.423609154E0,9.990034252E-2,-9.897911072E0,7.214360237E-1
4.428385560E0,1.238285750E-1,-9.917053223E0,7.166503668E-1
4.433162018E0,1.567298770E-1,-9.917053223E0,7.166503668E-1
4.437938424E0,1.998006850E-1,-9.917053223E0,6.873382926E-1
4.442714831E0,2.428714931E-1,-9.936196327E0,6.436693072E-1
4.447491289E0,2.853440940E-1,-9.936196327E0,6.340979934E-1
4.452267695E0,2.997010350E-1,-9.930811882E0,6.191428304E-1
4.457044154E0,3.469592929E-1,-9.906884193E0,6.430711150E-1
4.461820560E0,3.613162339E-1,-9.892526627E0,6.628118753E-1
4.466597018E0,3.804588020E-1,-9.868598938E0,6.430711150E-1
4.471373424E0,3.756731451E-1,-9.829715729E0,6.723831892E-1
4.476149883E0,3.948157430E-1,-9.805787086E0,7.345965505E-1
4.480926289E0,3.858426511E-1,-9.781859398E0,7.633104324E-1
4.485702747E0,3.906283081E-1,-9.781859398E0,7.968099117E-1
4.490479154E0,4.097708762E-1,-9.791430473E0,8.207381964E-1
4.495255612E0,4.145565331E-1,-9.796216011E0,8.398807645E-1
4.500032018E0,4.241278172E-1,-9.772287369E0,8.303094506E-1
4.504808477E0,3.906283081E-1,-9.752547264E0,7.872386575E-1
4.509584883E0,3.708875179E-1,-9.738189697E0,7.489534616E-1
4.514361341E0,3.379862010E-1,-9.733404160E0,7.489534616E-1
4.519137747E0,2.853440940E-1,-9.714262009E0,7.447660565E-1
4.523914154E0,2.662015259E-1,-9.699904442E0,7.543373108E-1
4.528690612E0,2.087737769E-1,-9.680762291E0,7.447660565E-1
4.533467070E0,1.800599098E-1,-9.686145782E0,7.692924738E-1
4.538243477E0,1.609173268E-1,-9.705288887E0,7.549355626E-1
4.543019883E0,1.615155339E-1,-9.700503349E0,8.315058947E-1
4.547796341E0,1.621137410E-1,-9.724431038E0,8.458628058E-1
4.552572747E0,1.525424421E-1,-9.753743172E0,8.602197170E-1
4.557349206E0,1.286142170E-1,-9.782457352E0,8.464609981E-1
4.562125612E0,1.148554832E-1,-9.820742607E0,8.560323119E-1
4.566902070E0,8.614161611E-2,-9.859625816E0,8.703892231E-1
4.571678477E0,1.100698411E-1,-9.830313683E0,8.943174481E-1
4.576454935E0,1.339980662E-1,-9.811170578E0,8.943174481E-1
4.581231341E0,9.571290761E-2,-9.815957069E0,8.656035662E-1
4.586007799E0,9.571290761E-2,-9.825528145E0,8.512466550E-1
4.590784206E0,9.092725813E-2,-9.835697174E0,8.608179688E-1
4.595560664E0,1.621137410E-1,-9.792028427E0,8.745766878E-1
4.600337070E0,1.525424421E-1,-9.777671814E0,8.793623447E-1
4.605113529E0,1.004985496E-1,-9.758528709E0,8.895317912E-1
4.609889935E0,7.178468257E-2,-9.763314247E0,9.038887620E-1
4.614666393E0,8.135596663E-2,-9.763314247E0,9.086744189E-1
4.619442799E0,1.764706671E-1,-9.700503349E0,9.272187948E-1
4.624219258E0,1.621137410E-1,-9.667003632E0,9.032905698E-1
4.628995664E0,1.477568001E-1,-9.676574707E0,8.937192559E-1
4.633772070E0,1.668993831E-1,-9.676574707E0,9.224331379E-1
4.638548529E0,1.812563092E-1,-9.690931320E0,9.463613629E-1
4.643324935E0,2.291127741E-1,-9.686145782E0,9.463613629E-1
4.648101393E0,2.434697002E-1,-9.695717812E0,9.367900491E-1
4.652877799E0,2.632105052E-1,-9.767501831E0,9.367900491E-1
4.657654258E0,7.178468257E-2,-9.820742607E0,8.273184299E-1
4.662430664E0,1.142572835E-1,-9.734002113E0,8.273184299E-1
4.667207122E0,1.333998591E-1,-9.753145218E0,8.410771489E-1
4.671983529E0,7.178468257E-2,-9.782457352E0,8.512466550E-1
4.676759987E0,4.785645381E-2,-9.806385040E0,8.273184299E-1
4.681536393E0,-4.785645287E-3,-9.830911636E0,7.507480979E-1
4.686312852E0,8.135596663E-2,-9.912267685E0,8.033902049E-1
4.691089258E0,-4.785645381E-2,-9.888339996E0,6.747759581E-1
4.695865716E0,-1.525424421E-1,-9.821340561E0,6.747759581E-1
4.700642122E0,-5.264209956E-2,-9.864411354E0,7.322037220E-1
4.705418529E0,-6.640082598E-2,-9.936794281E0,7.561319470E-1
4.710194987E0,-1.914258115E-2,-9.936794281E0,7.369893789E-1
4.714971393E0,0.000000000E0,-9.951150894E0,7.316055298E-1
4.719747852E0,1.333998591E-1,-9.945767403E0,7.597211599E-1
4.724524258E0,2.811566591E-1,-9.916455269E0,7.016952634E-1
4.729300716E0,1.992024779E-1,-9.811170578E0,7.310073376E-1
4.734077122E0,4.235295951E-1,-9.796216011E0,7.202396393E-1
4.738853581E0,4.761717021E-1,-9.824930191E0,7.435696125E-1
4.743629987E0,4.857429862E-1,-9.844072342E0,7.674978375E-1
4.748406445E0,4.432703853E-1,-9.858428955E0,7.824530005E-1
4.753182852E0,3.810569942E-1,-9.906884193E0,7.728816867E-1
4.757959310E0,3.056831062E-1,-9.945767403E0,8.165507317E-1
4.762735716E0,4.582255483E-1,-1.005105114E1,8.829515576E-1
4.767512174E0,-9.870393574E-2,-9.990034103E0,8.333004713E-1
4.772288581E0,-9.870393574E-2,-1.001874828E1,8.668000102E-1
4.777065039E0,-1.220339537E-1,-1.003789139E1,9.098708034E-1
4.781841445E0,-2.165504545E-1,-1.002891827E1,9.774680734E-1
4.786617852E0,-8.315058798E-2,-1.005763149E1,1.034297585E0
4.791394310E0,-3.457628787E-1,-9.937392235E0,9.445667267E-1
4.796170716E0,-4.600201547E-1,-9.856036186E0,9.260223508E-1
4.800947174E0,-5.174478889E-1,-9.856036186E0,9.116654396E-1
4.805723581E0,-4.265206456E-1,-9.802796364E0,1.012163997E0
4.810500039E0,-2.213360965E-1,-9.667601585E0,1.174277663E0
4.815276445E0,-1.932204217E-1,-9.744770050E0,1.063609719E0
4.820052904E0,-5.210371017E-1,-9.658628464E0,1.161117196E0
4.824829310E0,-4.594219327E-1,-9.629914284E0,1.218544960E0
4.829605768E0,-4.019941986E-1,-9.658628464E0,1.189232826E0
4.834382174E0,-2.787638307E-1,-9.605388641E0,1.193420291E0
4.839158633E0,-1.740778536E-1,-9.576076508E0,1.245464206E0
4.843935039E0,-1.124626622E-1,-9.623932838E0,1.164108157E0
4.848711497E0,-4.169493318E-1,-9.658628464E0,1.103091240E0
4.853487904E0,-2.219343036E-1,-9.590433121E0,1.106680512E0
4.858264362E0,-1.226321608E-1,-9.619147301E0,1.072582722E0
4.863040768E0,-9.810572863E-2,-9.686744690E0,1.096511006E0
4.867817174E0,-4.127619043E-2,-9.739386559E0,1.106082320E0
4.872593633E0,1.794616925E-3,-9.782457352E0,1.086939692E0
4.877370039E0,2.512463741E-2,-9.796813965E0,1.048056364E0
4.882146497E0,6.819544733E-2,-9.850054741E0,1.019342422E0
4.886922904E0,9.631111473E-2,-9.893125534E0,9.756734371E-1
4.891699362E0,1.393819153E-1,-9.945767403E0,9.469595551E-1
4.896475768E0,1.579262912E-1,-9.979865074E0,9.038887620E-1
4.901252227E0,1.387837082E-1,-9.984650612E0,8.703892231E-1
4.906028633E0,1.010967568E-1,-9.970293999E0,8.560323119E-1
4.910805091E0,5.802594870E-2,-9.941579819E0,8.321040869E-1
4.915581497E0,1.914258115E-2,-9.902696609E0,7.938188910E-1
4.920357956E0,-3.290131316E-2,-9.883553505E0,7.800601721E-1
4.925134362E0,-6.221338734E-2,-9.850054741E0,7.369893789E-1
4.929910820E0,-1.238285750E-1,-9.830911636E0,7.561319470E-1
4.934687227E0,-1.567298770E-1,-9.840482712E0,7.902296782E-1
4.939463685E0,-1.806581169E-1,-9.850652695E0,8.093722463E-1
4.944240091E0,-1.752742529E-1,-9.855438232E0,8.333004713E-1
4.949016497E0,-1.896311939E-1,-9.869794846E0,8.865407705E-1
4.953792956E0,-1.890329868E-1,-9.869794846E0,9.439685345E-1
4.958569362E0,-1.746760458E-1,-9.860223770E0,9.966106415E-1
4.963345820E0,-1.363908947E-1,-9.830911636E0,1.006181955E0
4.968122227E0,-7.956135273E-2,-9.797411919E0,1.015154958E0
4.972898685E0,-2.213360928E-2,-9.753743172E0,1.043868899E0
4.977675091E0,4.426721856E-2,-9.725028992E0,1.057627559E0
4.982451549E0,1.250249892E-1,-9.695717812E0,1.052243710E0
4.987227956E0,2.057827413E-1,-9.642477036E0,1.061815023E0
4.992004414E0,2.871387303E-1,-9.579665184E0,1.061216831E0
4.996780820E0,3.343969584E-1,-9.555737495E0,1.027119160E0
5.001557279E0,3.906283081E-1,-9.550353050E0,9.792626500E-1
5.006333685E0,4.049852192E-1,-9.550353050E0,9.116654396E-1
5.011110091E0,4.187439680E-1,-9.574281693E0,8.398807645E-1
5.015886549E0,4.229314029E-1,-9.617950439E0,7.531409264E-1
5.020662956E0,4.414757788E-1,-9.670592308E0,6.520441771E-1
5.025439414E0,4.223332107E-1,-9.704689980E0,5.994020700E-1
5.030215820E0,3.984049559E-1,-9.719047546E0,5.515456200E-1
5.034992279E0,3.499503136E-1,-9.704689980E0,4.606183469E-1
5.039768685E0,3.068794906E-1,-9.680762291E0,3.840480447E-1
5.044545143E0,2.494517565E-1,-9.671191216E0,3.511467278E-1
5.049321549E0,2.153540403E-1,-9.704689980E0,2.985046208E-1
5.054098008E0,1.633101404E-1,-9.757930756E0,2.745763958E-1
5.058874414E0,1.633101404E-1,-9.825528145E0,2.841476798E-1
5.063650872E0,1.830509305E-1,-9.906884193E0,3.367897868E-1
5.068427279E0,2.171486616E-1,-9.993623734E0,3.846462369E-1
5.073203685E0,2.656033039E-1,-1.008993530E1,4.468596280E-1
5.077980143E0,3.373879790E-1,-1.015753174E1,5.042873621E-1
5.082756549E0,4.139583111E-1,-1.018146038E1,5.419743061E-1
5.087533008E0,4.905286431E-1,-1.017129040E1,5.659025311E-1
5.092309414E0,5.665007830E-1,-1.011805058E1,5.844469070E-1
5.097085872E0,6.281159520E-1,-1.005523872E1,6.035895348E-1
5.101862279E0,6.562315822E-1,-9.978668213E0,6.125625968E-1
5.106638737E0,6.705885530E-1,-9.920642853E0,5.934200287E-1
5.111415143E0,6.604190469E-1,-9.891928673E0,5.599204898E-1
5.116191602E0,6.317051649E-1,-9.857831001E0,5.407779217E-1
5.120968008E0,6.173482537E-1,-9.819545746E0,5.359922647E-1
5.125744466E0,5.982056856E-1,-9.805189133E0,5.264210105E-1
5.130520872E0,5.790630579E-1,-9.790832520E0,5.264210105E-1
5.135297279E0,5.455635786E-1,-9.776474953E0,4.983053207E-1
5.140073737E0,4.839483798E-1,-9.776474953E0,4.887340367E-1
5.144850143E0,4.313062727E-1,-9.757332802E0,4.600201547E-1
5.149626602E0,3.457628787E-1,-9.733404160E0,4.606183469E-1
5.154403008E0,3.026920557E-1,-9.738189697E0,4.223332107E-1
5.159179466E0,2.309073806E-1,-9.748359680E0,3.798605800E-1
5.163955872E0,1.734796464E-1,-9.762716293E0,3.655036688E-1
5.168732331E0,1.304088384E-1,-9.777072906E0,3.373879790E-1
5.173508737E0,8.793623000E-2,-9.801599503E0,3.661018610E-1
5.178285195E0,5.443671346E-2,-9.811170578E0,3.756731451E-1
5.183061602E0,3.110669367E-2,-9.806385040E0,3.906283081E-1
5.187838060E0,1.674975827E-2,-9.796813965E0,3.906283081E-1
5.192614466E0,3.110669367E-2,-9.772886276E0,4.049852192E-1
5.197390872E0,2.632104978E-2,-9.744172096E0,4.241278172E-1
5.202167331E0,4.546362907E-2,-9.738788605E0,4.241278172E-1
5.206943737E0,4.965107143E-2,-9.734002113E0,4.097708762E-1
5.211720195E0,8.793623000E-2,-9.724431038E0,3.948157430E-1
5.216496602E0,1.256231815E-1,-9.724431038E0,3.996013701E-1
5.221273060E0,1.782652885E-1,-9.743574142E0,4.037888348E-1
5.226049466E0,2.159522474E-1,-9.753145218E0,3.894318938E-1
5.230825924E0,2.691925466E-1,-9.757930756E0,3.649054468E-1
5.235602331E0,2.877369225E-1,-9.757930756E0,3.266202807E-1
5.240378789E0,3.158525825E-1,-9.762118340E0,2.931207716E-1
5.245155195E0,3.254238665E-1,-9.757332802E0,2.404786795E-1
5.249931654E0,3.439682424E-1,-9.766903877E0,1.872383654E-1
5.254708060E0,3.535395563E-1,-9.776474953E0,1.728814393E-1
5.259484466E0,3.487538993E-1,-9.801001549E0,1.633101404E-1
5.264260924E0,3.248256743E-1,-9.801001549E0,1.824527234E-1
5.269037331E0,2.967100143E-1,-9.815358162E0,2.069791555E-1
5.273813789E0,2.685943544E-1,-9.829715729E0,2.404786795E-1
5.278590195E0,2.542374134E-1,-9.844072342E0,2.644068897E-1
5.283366654E0,2.590230405E-1,-9.854242325E0,2.787638307E-1
5.288143060E0,2.596212626E-1,-9.849455833E0,3.320041299E-1
5.292919518E0,2.835494876E-1,-9.839286804E0,3.846462369E-1
5.297695924E0,3.074777126E-1,-9.844072342E0,3.792623878E-1
5.302472383E0,3.170489967E-1,-9.824930191E0,3.696911037E-1
5.307248789E0,3.068794906E-1,-9.810572624E0,3.649054468E-1
5.312025247E0,2.883351147E-1,-9.829715729E0,3.553341627E-1
5.316801654E0,2.835494876E-1,-9.824930191E0,3.457628787E-1
5.321578060E0,2.644068897E-1,-9.824930191E0,3.266202807E-1
5.326354518E0,2.452643216E-1,-9.834501266E0,3.415754437E-1
5.331130924E0,2.207378894E-1,-9.835099220E0,3.367897868E-1
5.335907383E0,2.111666054E-1,-9.824930191E0,3.176472187E-1
5.340683789E0,2.063809484E-1,-9.835099220E0,3.080759048E-1
5.345460247E0,1.776670814E-1,-9.820742607E0,2.937189937E-1
5.350236654E0,2.063809484E-1,-9.805787086E0,3.080759048E-1
5.355013112E0,1.824527234E-1,-9.796216011E0,3.320041299E-1
5.359789518E0,1.926222295E-1,-9.801001549E0,3.511467278E-1
5.364565924E0,1.686939895E-1,-9.791430473E0,3.463610709E-1
5.369342383E0,1.686939895E-1,-9.777072906E0,3.655036688E-1
5.374118789E0,1.639083475E-1,-9.762716293E0,3.607180119E-1
5.378895247E0,1.543370634E-1,-9.738788605E0,3.655036688E-1
5.383671654E0,1.734796464E-1,-9.743574142E0,3.846462369E-1
5.388448112E0,2.063809484E-1,-9.729216576E0,3.846462369E-1
5.393224518E0,2.159522474E-1,-9.729216576E0,3.798605800E-1
5.398000977E0,2.404786795E-1,-9.723833084E0,3.607180119E-1
5.402777383E0,2.733799815E-1,-9.714262009E0,3.457628787E-1
5.407553841E0,2.877369225E-1,-9.719047546E0,3.409772217E-1
5.412330247E0,2.973082066E-1,-9.733404160E0,3.266202807E-1
5.417106706E0,3.254238665E-1,-9.728618622E0,3.122633696E-1
5.421883112E0,3.445664644E-1,-9.747760773E0,3.170489967E-1
5.426659518E0,3.684946895E-1,-9.762118340E0,2.973082066E-1
5.431435977E0,3.876372576E-1,-9.771689415E0,2.781656384E-1
5.436212383E0,3.876372576E-1,-9.795618057E0,2.781656384E-1
5.440988841E0,3.780659735E-1,-9.795618057E0,2.781656384E-1
5.445765247E0,3.637090325E-1,-9.801001549E0,2.638086975E-1
5.450541706E0,3.732803464E-1,-9.810572624E0,2.494517565E-1
5.455318112E0,3.918247223E-1,-9.815358162E0,2.159522474E-1
5.460094570E0,3.966103494E-1,-9.809974670E0,2.063809484E-1
5.464870977E0,3.870390654E-1,-9.805189133E0,2.063809484E-1
5.469647435E0,3.774677813E-1,-9.824930191E0,2.159522474E-1
5.474423841E0,3.583251834E-1,-9.834501266E0,1.968096644E-1
5.479200247E0,3.302095234E-1,-9.848857880E0,2.015953064E-1
5.483976706E0,2.967100143E-1,-9.873384476E0,1.734796464E-1
5.488753112E0,2.446661144E-1,-9.868598938E0,1.782652885E-1
5.493529570E0,2.009970993E-1,-9.873384476E0,1.836491376E-1
5.498305977E0,1.441675574E-1,-9.859027863E0,1.932204217E-1
5.503082435E0,1.393819153E-1,-9.849455833E0,2.123630047E-1
5.507858841E0,1.250249892E-1,-9.844670296E0,2.027917206E-1
5.512635299E0,9.631111473E-2,-9.844670296E0,2.027917206E-1
5.517411706E0,8.673982322E-2,-9.806385040E0,2.321037948E-1
5.522188164E0,9.212367237E-2,-9.796813965E0,2.799602449E-1
5.526964570E0,8.733802289E-2,-9.796813965E0,2.991028428E-1
5.531740977E0,8.255238086E-2,-9.796813965E0,2.991028428E-1
5.536517435E0,8.733802289E-2,-9.801599503E0,3.086741269E-1
5.541293841E0,1.112662554E-1,-9.806385040E0,3.469592929E-1
5.546070299E0,9.272187948E-2,-9.815957069E0,3.613162339E-1
5.550846706E0,1.070788130E-1,-9.815957069E0,3.756731451E-1
5.555623164E0,1.070788130E-1,-9.830313683E0,3.708875179E-1
5.560399570E0,1.070788130E-1,-9.835099220E0,3.613162339E-1
5.565176029E0,1.166501045E-1,-9.835099220E0,3.565305769E-1
5.569952435E0,1.208375469E-1,-9.811170578E0,3.469592929E-1
5.574728841E0,1.064806059E-1,-9.806385040E0,3.182454109E-1
5.579505299E0,9.690931439E-2,-9.806385040E0,2.895315289E-1
5.584281706E0,1.160518974E-1,-9.830313683E0,2.602194548E-1
5.589058164E0,1.537388563E-1,-9.839884758E0,2.315055877E-1
5.593834570E0,1.818545163E-1,-9.849455833E0,1.932204217E-1
5.598611029E0,2.105683982E-1,-9.835099220E0,2.171486616E-1
5.603387435E0,2.105683982E-1,-9.835099220E0,2.267199457E-1
5.608163893E0,2.009970993E-1,-9.830313683E0,2.362912297E-1
5.612940299E0,1.962114573E-1,-9.825528145E0,2.171486616E-1
5.617716706E0,1.866401732E-1,-9.830313683E0,2.219343036E-1
5.622493164E0,1.680957973E-1,-9.820742607E0,2.362912297E-1
5.627269570E0,1.633101404E-1,-9.811170578E0,2.362912297E-1
5.632046029E0,1.728814393E-1,-9.815957069E0,2.410768867E-1
5.636822435E0,2.105683982E-1,-9.796216011E0,2.117647976E-1
5.641598893E0,2.536391914E-1,-9.777072906E0,2.117647976E-1
5.646375299E0,3.014956415E-1,-9.762118340E0,2.261217386E-1
5.651151758E0,3.391826153E-1,-9.742975235E0,2.159522474E-1
5.655928164E0,3.487538993E-1,-9.738189697E0,1.920240223E-1
5.660704622E0,3.391826153E-1,-9.723833084E0,1.537388563E-1
5.665481029E0,3.290131092E-1,-9.723833084E0,1.345962733E-1
5.670257435E0,3.194418252E-1,-9.719047546E0,1.058823988E-1
5.675033893E0,3.098705411E-1,-9.728618622E0,1.058823988E-1
5.679810299E0,3.242274821E-1,-9.738189697E0,1.058823988E-1
5.684586758E0,3.242274821E-1,-9.723833084E0,1.250249892E-1
5.689363164E0,3.242274821E-1,-9.733404160E0,1.202393398E-1
5.694139622E0,3.194418252E-1,-9.752547264E0,1.058823988E-1
5.698916029E0,3.385843933E-1,-9.771689415E0,9.152546525E-2
5.703692487E0,3.433700502E-1,-9.786046028E0,8.195417374E-2
5.708468893E0,3.529413342E-1,-9.781260490E0,6.759724021E-2
5.713245299E0,3.762713671E-1,-9.771689415E0,6.699903309E-2
5.718021758E0,3.954139352E-1,-9.757332802E0,5.742774159E-2
5.722798164E0,4.384847581E-1,-9.747760773E0,6.699903309E-2
5.727574622E0,4.576273263E-1,-9.771689415E0,5.742774159E-2
5.732351029E0,4.666004181E-1,-9.766903877E0,3.828516230E-2
5.737127487E0,4.570291340E-1,-9.800403595E0,2.871387079E-2
5.741903893E0,4.576273263E-1,-9.814760208E0,6.221338734E-2
5.746680352E0,4.576273263E-1,-9.843474388E0,4.785645381E-2
5.751456758E0,4.384847581E-1,-9.872786522E0,7.178468257E-2
5.756233164E0,4.247260094E-1,-9.868000984E0,1.052841991E-1
5.761009622E0,4.109672904E-1,-9.863214493E0,1.728814393E-1
5.765786029E0,3.774677813E-1,-9.844072342E0,1.728814393E-1
5.770562487E0,3.726821244E-1,-9.824930191E0,1.633101404E-1
5.775338893E0,3.678964674E-1,-9.800403595E0,1.441675574E-1
5.780115352E0,3.672982752E-1,-9.786046028E0,1.250249892E-1
5.784891758E0,3.960121572E-1,-9.805189133E0,1.250249892E-1
5.789668216E0,4.007977843E-1,-9.820143700E0,1.298106313E-1
5.794444622E0,4.103690982E-1,-9.863214493E0,1.148554832E-1
5.799221081E0,4.390829504E-1,-9.891928673E0,1.292124242E-1
5.803997487E0,4.342973232E-1,-9.896714211E0,1.339980662E-1
5.808773893E0,3.966103494E-1,-9.896714211E0,1.633101404E-1
5.813550352E0,3.493520916E-1,-9.872786522E0,1.872383654E-1
5.818326758E0,3.062812984E-1,-9.824930191E0,2.069791555E-1
5.823103216E0,2.536391914E-1,-9.810572624E0,1.734796464E-1
5.827879622E0,2.147558331E-1,-9.810572624E0,1.256231815E-1
5.832656081E0,1.908276081E-1,-9.805787086E0,1.208375469E-1
5.837432487E0,1.860419661E-1,-9.810572624E0,1.256231815E-1
5.842208945E0,1.818545163E-1,-9.810572624E0,1.788634956E-1
5.846985352E0,2.201396823E-1,-9.810572624E0,2.309073806E-1
5.851761758E0,2.590230405E-1,-9.820143700E0,2.835494876E-1
5.856538216E0,2.973082066E-1,-9.834501266E0,2.596212626E-1
5.861314622E0,3.062812984E-1,-9.839286804E0,2.452643216E-1
5.866091081E0,3.014956415E-1,-9.848857880E0,2.356930375E-1
5.870867487E0,2.877369225E-1,-9.839286804E0,2.644068897E-1
5.875643945E0,3.020938635E-1,-9.834501266E0,2.979064286E-1
5.880420352E0,3.068794906E-1,-9.824930191E0,2.883351147E-1
5.885196810E0,3.302095234E-1,-9.805787086E0,2.787638307E-1
5.889973216E0,3.014956415E-1,-9.801001549E0,2.548356056E-1
5.894749622E0,2.590230405E-1,-9.810572624E0,2.261217386E-1
5.899526081E0,2.297109663E-1,-9.796216011E0,2.069791555E-1
5.904302487E0,2.105683982E-1,-9.786644936E0,2.410768867E-1
5.909078945E0,1.872383654E-1,-9.786644936E0,2.937189937E-1
5.913855352E0,1.776670814E-1,-9.781859398E0,3.080759048E-1
5.918631810E0,2.111666054E-1,-9.772287369E0,3.128615618E-1
5.923408216E0,2.404786795E-1,-9.757930756E0,3.320041299E-1
5.928184674E0,2.685943544E-1,-9.743574142E0,3.505485058E-1
5.932961081E0,3.164508045E-1,-9.757930756E0,3.696911037E-1
5.937737487E0,3.732803464E-1,-9.757332802E0,3.451646566E-1
5.942513945E0,4.348955154E-1,-9.766903877E0,3.068794906E-1
5.947290352E0,4.540380836E-1,-9.781260490E0,2.973082066E-1
5.952066810E0,4.779663086E-1,-9.781260490E0,2.967100143E-1
5.956843216E0,4.923232496E-1,-9.809974670E0,3.062812984E-1
5.961619674E0,4.636093974E-1,-9.820143700E0,2.877369225E-1
5.966396081E0,4.588237405E-1,-9.824930191E0,2.733799815E-1
5.971172539E0,4.779663086E-1,-9.819545746E0,2.823530734E-1
5.975948945E0,4.827519655E-1,-9.819545746E0,2.967100143E-1
5.980725352E0,5.018945336E-1,-9.814760208E0,3.110669553E-1
5.985501810E0,5.210371017E-1,-9.829116821E0,3.158525825E-1
5.990278216E0,5.306084156E-1,-9.814760208E0,3.349951804E-1
5.995054674E0,5.730810165E-1,-9.809974670E0,3.206382394E-1
5.999831081E0,5.778666735E-1,-9.814760208E0,3.349951804E-1
6.004607539E0,5.970092416E-1,-9.805189133E0,3.349951804E-1
6.009383945E0,5.922235847E-1,-9.800403595E0,3.008974493E-1
6.014160352E0,5.587241054E-1,-9.786046028E0,3.110669553E-1
6.018936810E0,5.306084156E-1,-9.766903877E0,3.493520916E-1
6.023713216E0,4.971089065E-1,-9.742975235E0,3.834498227E-1
6.028489674E0,4.731806815E-1,-9.742975235E0,3.738785386E-1
6.033266081E0,4.833501875E-1,-9.742975235E0,3.978067636E-1
6.038042539E0,4.689932466E-1,-9.738189697E0,4.504488707E-1
6.042818945E0,4.833501875E-1,-9.742975235E0,4.648058116E-1
6.047595352E0,4.833501875E-1,-9.757332802E0,4.600201547E-1
6.052371810E0,5.072783828E-1,-9.781260490E0,4.600201547E-1
6.057148216E0,5.359922647E-1,-9.786046028E0,4.743770957E-1
6.061924674E0,5.551348329E-1,-9.805189133E0,4.785645306E-1
6.066701081E0,5.551348329E-1,-9.809974670E0,4.839483798E-1
6.071477539E0,5.790630579E-1,-9.805189133E0,4.642075896E-1
6.076253945E0,5.784648657E-1,-9.829116821E0,4.402793646E-1
6.081030404E0,5.784648657E-1,-9.814760208E0,4.402793646E-1
6.085806810E0,5.647061467E-1,-9.809974670E0,4.689932466E-1
6.090583268E0,5.455635786E-1,-9.809974670E0,4.887340367E-1
6.095359674E0,5.318048596E-1,-9.809974670E0,5.126622319E-1
6.100136081E0,5.270192027E-1,-9.819545746E0,4.983053207E-1
6.104912539E0,5.126622319E-1,-9.819545746E0,4.983053207E-1
6.109688945E0,5.030909777E-1,-9.819545746E0,5.126622319E-1
6.114465404E0,5.126622319E-1,-9.824331284E0,5.078766346E-1
6.119241810E0,5.174478889E-1,-9.814760208E0,5.126622319E-1
6.124018268E0,5.174478889E-1,-9.805189133E0,5.222335458E-1
6.128794674E0,5.078766346E-1,-9.814760208E0,5.126622319E-1
6.133571081E0,4.695914388E-1,-9.800403595E0,5.270192027E-1
6.138347539E0,4.558327198E-1,-9.800403595E0,5.324030519E-1
6.143123945E0,4.271188378E-1,-9.815358162E0,5.276173949E-1
6.147900404E0,3.888336718E-1,-9.820143700E0,5.132604837E-1
6.152676810E0,3.792623878E-1,-9.805787086E0,4.749752879E-1
6.157453268E0,3.649054468E-1,-9.815358162E0,4.606183469E-1
6.162229674E0,3.601198196E-1,-9.820143700E0,4.654040039E-1
6.167006081E0,3.409772217E-1,-9.810572624E0,4.654040039E-1
6.171782539E0,3.553341627E-1,-9.815358162E0,4.414757788E-1
6.176558945E0,3.409772217E-1,-9.820143700E0,4.319044948E-1
6.181335404E0,3.266202807E-1,-9.834501266E0,4.366901219E-1
6.186111810E0,3.074777126E-1,-9.824930191E0,4.319044948E-1
6.190888268E0,2.931207716E-1,-9.810572624E0,4.325026870E-1
6.195664674E0,2.931207716E-1,-9.796216011E0,4.229314029E-1
6.200441081E0,2.787638307E-1,-9.796216011E0,4.277170599E-1
6.205217539E0,2.787638307E-1,-9.786644936E0,4.372883439E-1
6.209993945E0,2.787638307E-1,-9.777072906E0,4.372883439E-1
6.214770404E0,2.602194548E-1,-9.791430473E0,4.372883439E-1
6.219546810E0,2.261217386E-1,-9.801001549E0,4.468596280E-1
6.224323268E0,2.069791555E-1,-9.805787086E0,4.564309120E-1
6.229099674E0,2.117647976E-1,-9.805787086E0,4.372883439E-1
6.233876081E0,2.117647976E-1,-9.815957069E0,4.372883439E-1
6.238652539E0,2.315055877E-1,-9.825528145E0,4.229314029E-1
6.243428945E0,2.697907388E-1,-9.839884758E0,4.133601189E-1
6.248205404E0,2.883351147E-1,-9.844072342E0,3.942175210E-1
6.252981810E0,3.122633696E-1,-9.844072342E0,3.649054468E-1
6.257758268E0,3.164508045E-1,-9.853643417E0,3.409772217E-1
6.262534674E0,3.260220885E-1,-9.868598938E0,3.409772217E-1
6.267311133E0,3.122633696E-1,-9.882955551E0,3.505485058E-1
6.272087539E0,2.979064286E-1,-9.882955551E0,3.505485058E-1
6.276863997E0,3.026920557E-1,-9.911669731E0,3.553341627E-1
6.281640404E0,3.026920557E-1,-9.902098656E0,3.840480447E-1
6.286416810E0,2.979064286E-1,-9.887741089E0,3.696911037E-1
6.291193268E0,2.979064286E-1,-9.878170013E0,3.361915946E-1
6.295969674E0,2.829512656E-1,-9.848857880E0,3.074777126E-1
6.300746133E0,2.781656384E-1,-9.848857880E0,2.883351147E-1
6.305522539E0,2.733799815E-1,-9.815358162E0,2.739782035E-1
6.310298945E0,2.733799815E-1,-9.786644936E0,2.739782035E-1
6.315075404E0,2.829512656E-1,-9.772287369E0,2.787638307E-1
6.319851810E0,2.877369225E-1,-9.767501831E0,3.122633696E-1
6.324628268E0,2.829512656E-1,-9.742975235E0,3.553341627E-1
6.329404674E0,2.835494876E-1,-9.747760773E0,4.085744619E-1
6.334181133E0,2.787638307E-1,-9.748359680E0,4.516452849E-1
6.338957539E0,2.835494876E-1,-9.733404160E0,4.564309120E-1
6.343733997E0,2.835494876E-1,-9.742975235E0,4.516452849E-1
6.348510404E0,2.835494876E-1,-9.738189697E0,4.612165689E-1
6.353286810E0,2.650051117E-1,-9.733404160E0,4.755735099E-1
6.358063268E0,2.650051117E-1,-9.762716293E0,4.660021961E-1
6.362839674E0,2.602194548E-1,-9.786644936E0,4.277170599E-1
6.367616133E0,2.596212626E-1,-9.820143700E0,3.894318938E-1
6.372392539E0,2.739782035E-1,-9.849455833E0,3.798605800E-1
6.377168997E0,2.691925466E-1,-9.863813400E0,3.655036688E-1
6.381945404E0,2.500499785E-1,-9.878170013E0,3.272185028E-1
6.386721810E0,2.404786795E-1,-9.892526627E0,2.889333367E-1
6.391498268E0,2.500499785E-1,-9.921240807E0,2.644068897E-1
6.396274674E0,2.500499785E-1,-9.921240807E0,2.548356056E-1
6.401051133E0,2.452643216E-1,-9.916455269E0,2.452643216E-1
6.405827539E0,2.159522474E-1,-9.897313118E0,2.554338276E-1
6.410603997E0,1.872383654E-1,-9.911669731E0,2.650051117E-1
6.415380404E0,1.447657645E-1,-9.902098656E0,2.458625287E-1
6.420156810E0,1.112662554E-1,-9.878170013E0,2.219343036E-1
6.424933268E0,7.298108935E-2,-9.868598938E0,2.177468538E-1
6.429709674E0,2.093719877E-2,-9.839884758E0,2.560320199E-1
6.434486133E0,-1.734796353E-2,-9.787242889E0,3.044866920E-1
6.439262539E0,-4.067798331E-2,-9.758528709E0,3.523431420E-1
6.444038997E0,-4.067798331E-2,-9.739386559E0,3.810569942E-1
6.448815404E0,-2.632104978E-2,-9.744172096E0,4.193421602E-1
6.453591810E0,-3.529413417E-2,-9.739386559E0,4.480560422E-1
6.458368268E0,-3.050848842E-2,-9.744172096E0,4.917250574E-1
6.463144674E0,-4.905286431E-2,-9.768099785E0,5.156532526E-1
6.467921133E0,-3.469592705E-2,-9.792028427E0,5.252245665E-1
6.472697539E0,-1.555334684E-2,-9.821340561E0,5.347958803E-1
6.477473997E0,3.649054468E-2,-9.835099220E0,5.485545993E-1
6.482250404E0,8.434699476E-2,-9.859027863E0,5.341976285E-1
6.487026862E0,1.411765367E-1,-9.878170013E0,5.144568682E-1
6.491803268E0,1.746760458E-1,-9.907482147E0,5.000999570E-1
6.496579674E0,2.225325108E-1,-9.931410789E0,5.144568682E-1
6.501356133E0,2.321037948E-1,-9.940981865E0,5.048855543E-1
6.506132539E0,2.608176768E-1,-9.940981865E0,4.899304509E-1
6.510908997E0,2.895315289E-1,-9.930811882E0,4.803591371E-1
6.515685404E0,3.128615618E-1,-9.911669731E0,4.660021961E-1
6.520461810E0,3.367897868E-1,-9.902098656E0,4.654040039E-1
6.525238268E0,3.840480447E-1,-9.882357597E0,4.510470629E-1
6.530014674E0,3.984049559E-1,-9.848857880E0,4.462614357E-1
6.534791133E0,4.408775866E-1,-9.829715729E0,4.504488707E-1
6.539567539E0,4.833501875E-1,-9.819545746E0,4.408775866E-1
6.544343997E0,5.264210105E-1,-9.805189133E0,4.504488707E-1
6.549120404E0,5.784648657E-1,-9.805189133E0,4.498506486E-1
6.553896810E0,6.215356588E-1,-9.795618057E0,4.498506486E-1
6.558673268E0,6.311069727E-1,-9.775876999E0,4.498506486E-1
6.563449674E0,6.448656917E-1,-9.756733894E0,4.402793646E-1
6.568226133E0,6.448656917E-1,-9.732806206E0,4.594219327E-1
6.573002539E0,6.735795736E-1,-9.708877563E0,4.827519655E-1
6.577778997E0,6.831508875E-1,-9.669994354E0,5.066801906E-1
6.582555404E0,7.022934556E-1,-9.665208817E0,4.827519655E-1
6.587331810E0,7.160521746E-1,-9.684351921E0,4.540380836E-1
6.592108268E0,6.879364848E-1,-9.689137459E0,4.492524564E-1
6.596884674E0,6.448656917E-1,-9.693922997E0,4.396811724E-1
6.601661133E0,6.305087805E-1,-9.699306488E0,4.402793646E-1
6.606437539E0,6.257231236E-1,-9.704092026E0,4.061816335E-1
6.611213945E0,6.305087805E-1,-9.693922997E0,3.822534084E-1
6.615990404E0,6.257231236E-1,-9.704092026E0,3.822534084E-1
6.620766810E0,6.352944374E-1,-9.713663101E0,3.726821244E-1
6.625543268E0,6.490531564E-1,-9.737591743E0,3.678964674E-1
6.630319674E0,6.448656917E-1,-9.756733894E0,3.583251834E-1
6.635096133E0,6.394818425E-1,-9.780662537E0,3.296113312E-1
6.639872539E0,6.394818425E-1,-9.790233612E0,3.056831062E-1
6.644648997E0,6.155536175E-1,-9.819545746E0,2.913261652E-1
6.649425404E0,5.874379873E-1,-9.829116821E0,3.110669553E-1
6.654201810E0,5.491527915E-1,-9.833903313E0,3.014956415E-1
6.658978268E0,5.306084156E-1,-9.824331284E0,3.014956415E-1
6.663754674E0,5.066801906E-1,-9.819545746E0,2.967100143E-1
6.668531133E0,4.875376225E-1,-9.800403595E0,2.919243574E-1
6.673307539E0,4.683950245E-1,-9.790832520E0,2.877369225E-1
6.678083945E0,4.444667995E-1,-9.795618057E0,2.973082066E-1
6.682860404E0,4.211367965E-1,-9.815358162E0,3.260220885E-1
6.687636810E0,3.972085714E-1,-9.834501266E0,3.355933726E-1
6.692413268E0,3.738785386E-1,-9.848857880E0,3.649054468E-1
6.697189674E0,3.505485058E-1,-9.863214493E0,3.840480447E-1
6.701966133E0,3.547359705E-1,-9.863214493E0,3.792623878E-1
6.706742539E0,3.547359705E-1,-9.848857880E0,3.792623878E-1
6.711518945E0,3.403790295E-1,-9.824930191E0,3.936193287E-1
6.716295404E0,3.074777126E-1,-9.805787086E0,4.127618968E-1
6.721071810E0,2.697907388E-1,-9.791430473E0,4.564309120E-1
6.725848268E0,2.219343036E-1,-9.791430473E0,4.899304509E-1
6.730624674E0,1.932204217E-1,-9.796216011E0,5.240281820E-1
6.735401133E0,1.746760458E-1,-9.801599503E0,5.766702294E-1
6.740177539E0,1.698904037E-1,-9.796813965E0,5.862415433E-1
6.744953997E0,1.555334777E-1,-9.811170578E0,5.958128572E-1
6.749730404E0,1.704886109E-1,-9.844670296E0,6.005984545E-1
6.754506810E0,1.992024779E-1,-9.854242325E0,6.245267391E-1
6.759283268E0,2.135594189E-1,-9.882955551E0,6.340979934E-1
6.764059674E0,2.273181528E-1,-9.873384476E0,6.388836503E-1
6.768836133E0,2.428714931E-1,-9.882955551E0,6.532405615E-1
6.773612539E0,2.279163599E-1,-9.878170013E0,6.634100676E-1
6.778388945E0,2.135594189E-1,-9.878170013E0,6.777670383E-1
6.783165404E0,2.087737769E-1,-9.859027863E0,6.825526357E-1
6.787941810E0,1.992024779E-1,-9.873384476E0,6.729813814E-1
6.792718268E0,1.800599098E-1,-9.849455833E0,6.436693072E-1
6.797494674E0,1.657029688E-1,-9.835099220E0,6.340979934E-1
6.802271081E0,1.465603858E-1,-9.815957069E0,6.394818425E-1
6.807047539E0,1.513460279E-1,-9.811170578E0,6.538388133E-1
6.811823945E0,1.513460279E-1,-9.806385040E0,6.442674994E-1
6.816600404E0,1.561316848E-1,-9.806385040E0,6.735795736E-1
6.821376810E0,1.609173268E-1,-9.811170578E0,6.831508875E-1
6.826153268E0,1.752742529E-1,-9.811170578E0,6.879364848E-1
6.830929674E0,1.944168359E-1,-9.811170578E0,6.873382926E-1
6.835706081E0,1.896311939E-1,-9.815957069E0,6.729813814E-1
6.840482539E0,2.231307179E-1,-9.805787086E0,6.777670383E-1
6.845258945E0,2.518445849E-1,-9.810572624E0,6.729813814E-1
6.850035404E0,2.757728100E-1,-9.801001549E0,6.436693072E-1
6.854811810E0,3.038884699E-1,-9.801001549E0,6.095715761E-1
6.859588216E0,3.182454109E-1,-9.801001549E0,6.143572330E-1
6.864364674E0,3.230310678E-1,-9.781859398E0,5.952146053E-1
6.869141081E0,3.320041299E-1,-9.767501831E0,6.000002623E-1
6.873917539E0,3.086741269E-1,-9.777072906E0,5.856433511E-1
6.878693945E0,3.224328458E-1,-9.786644936E0,5.808576941E-1
6.883470404E0,3.224328458E-1,-9.786644936E0,5.904290080E-1
6.888246810E0,3.230310678E-1,-9.791430473E0,5.952146053E-1
6.893023216E0,3.463610709E-1,-9.786644936E0,5.904290080E-1
6.897799674E0,3.655036688E-1,-9.791430473E0,5.808576941E-1
6.902576081E0,3.798605800E-1,-9.801001549E0,5.754738450E-1
6.907352539E0,3.750749528E-1,-9.801001549E0,5.659025311E-1
6.912128945E0,3.702892959E-1,-9.801001549E0,5.754738450E-1
6.916905352E0,3.463610709E-1,-9.786644936E0,5.808576941E-1
6.921681810E0,3.320041299E-1,-9.796216011E0,5.952146053E-1
6.926458216E0,3.278166950E-1,-9.810572624E0,5.904290080E-1
6.931234674E0,3.134597540E-1,-9.820143700E0,5.808576941E-1
6.936011081E0,3.230310678E-1,-9.820143700E0,5.808576941E-1
6.940787539E0,3.230310678E-1,-9.834501266E0,6.000002623E-1
6.945563945E0,3.182454109E-1,-9.848857880E0,6.334998012E-1
6.950340352E0,3.092723191E-1,-9.844072342E0,6.526423693E-1
6.955116810E0,3.140579760E-1,-9.854242325E0,6.580262184E-1
6.959893216E0,3.236292601E-1,-9.854242325E0,6.819544435E-1
6.964669674E0,2.997010350E-1,-9.844670296E0,6.723831892E-1
6.969446081E0,2.853440940E-1,-9.820143700E0,6.382854581E-1
6.974222487E0,2.518445849E-1,-9.796216011E0,6.197410822E-1
6.978998945E0,2.560320199E-1,-9.777072906E0,6.197410822E-1
6.983775352E0,2.368894368E-1,-9.767501831E0,6.101697683E-1
6.988551810E0,2.225325108E-1,-9.781859398E0,6.005984545E-1
6.993328216E0,2.368894368E-1,-9.801001549E0,5.766702294E-1
6.998104674E0,2.464607358E-1,-9.835099220E0,5.718846321E-1
7.002881081E0,2.656033039E-1,-9.849455833E0,5.569294691E-1
7.007657487E0,2.847459018E-1,-9.868598938E0,5.569294691E-1
7.012433945E0,3.176472187E-1,-9.873384476E0,5.186443329E-1
7.017210352E0,3.320041299E-1,-9.882955551E0,4.947160780E-1
7.021986810E0,3.744767308E-1,-9.872786522E0,4.797609448E-1
7.026763216E0,3.936193287E-1,-9.868000984E0,4.797609448E-1
7.031539674E0,3.792623878E-1,-9.872786522E0,4.701896608E-1
7.036316081E0,3.505485058E-1,-9.868000984E0,4.510470629E-1
7.041092487E0,2.979064286E-1,-9.887741089E0,4.085744619E-1
7.045868945E0,2.213360965E-1,-9.882955551E0,3.990031779E-1
7.050645352E0,1.501496136E-1,-9.873384476E0,4.378865361E-1
7.055421810E0,1.268195957E-1,-9.844670296E0,4.857429862E-1
7.060198216E0,1.172483116E-1,-9.815957069E0,5.192425251E-1
7.064974622E0,1.178465188E-1,-9.782457352E0,5.772684813E-1
7.069751081E0,1.369891018E-1,-9.743574142E0,6.538388133E-1
7.074527487E0,1.657029688E-1,-9.705288887E0,6.831508875E-1
7.079303945E0,1.944168359E-1,-9.685547829E0,7.399803996E-1
7.084080352E0,2.279163599E-1,-9.652048111E0,7.734799385E-1
7.088856758E0,2.709871531E-1,-9.637093544E0,7.974081635E-1
7.093633216E0,3.188436031E-1,-9.627521515E0,8.213363886E-1
7.098409622E0,3.756731451E-1,-9.646664619E0,8.063812256E-1
7.103186081E0,4.187439680E-1,-9.670592308E0,7.776673436E-1
7.107962487E0,4.325026870E-1,-9.709476471E0,7.339983582E-1
7.112738893E0,4.516452849E-1,-9.752547264E0,6.861419082E-1
7.117515352E0,4.277170599E-1,-9.781260490E0,6.376872063E-1
7.122291758E0,3.936193287E-1,-9.805787086E0,5.611169338E-1
7.127068216E0,3.559323549E-1,-9.820143700E0,5.324030519E-1
7.131844622E0,3.272185028E-1,-9.824930191E0,5.138586760E-1
7.136621081E0,3.032902777E-1,-9.839286804E0,4.660021961E-1
7.141397487E0,2.841476798E-1,-9.853643417E0,4.420739710E-1
7.146173893E0,2.793620527E-1,-9.853643417E0,4.325026870E-1
7.150950352E0,2.745763958E-1,-9.863214493E0,4.229314029E-1
7.155726758E0,2.506481707E-1,-9.878170013E0,4.277170599E-1
7.160503216E0,2.602194548E-1,-9.892526627E0,4.372883439E-1
7.165279622E0,2.602194548E-1,-9.882955551E0,4.468596280E-1
7.170056081E0,2.410768867E-1,-9.868598938E0,4.181457460E-1
7.174832487E0,2.315055877E-1,-9.859027863E0,3.655036688E-1
7.179608893E0,2.356930375E-1,-9.834501266E0,3.032902777E-1
7.184385352E0,2.207378894E-1,-9.815358162E0,2.841476798E-1
7.189161758E0,2.063809484E-1,-9.781859398E0,3.080759048E-1
7.193938216E0,2.015953064E-1,-9.762716293E0,3.224328458E-1
7.198714622E0,2.111666054E-1,-9.742975235E0,3.750749528E-1
7.203491029E0,2.159522474E-1,-9.728618622E0,4.181457460E-1
7.208267487E0,2.596212626E-1,-9.714262009E0,4.660021961E-1
7.213043893E0,2.937189937E-1,-9.728618622E0,5.138586760E-1
7.217820352E0,3.607180119E-1,-9.742975235E0,5.808576941E-1
7.222596758E0,4.181457460E-1,-9.752547264E0,6.185446382E-1
7.227373164E0,4.654040039E-1,-9.786046028E0,6.233302951E-1
7.232149622E0,5.036891699E-1,-9.790832520E0,5.988038778E-1
7.236926029E0,5.318048596E-1,-9.805189133E0,5.653043389E-1
7.241702487E0,5.413761139E-1,-9.814760208E0,5.461617708E-1
7.246478893E0,5.126622319E-1,-9.838688850E0,4.983053207E-1
7.251255299E0,4.791627228E-1,-9.868000984E0,4.600201547E-1
7.256031758E0,4.408775866E-1,-9.877572060E0,4.313062727E-1
7.260808164E0,3.984049559E-1,-9.901499748E0,4.271188378E-1
7.265584622E0,3.696911037E-1,-9.887143135E0,4.079762697E-1
7.270361029E0,3.266202807E-1,-9.906884193E0,3.936193287E-1
7.275137487E0,3.074777126E-1,-9.916455269E0,3.744767308E-1
7.279913893E0,3.026920557E-1,-9.906884193E0,3.696911037E-1
7.284690299E0,3.170489967E-1,-9.911669731E0,3.696911037E-1
7.289466758E0,3.218346536E-1,-9.877572060E0,3.696911037E-1
7.294243164E0,3.218346536E-1,-9.848857880E0,3.888336718E-1
7.299019570E0,3.361915946E-1,-9.815358162E0,4.079762697E-1
7.303796029E0,3.122633696E-1,-9.791430473E0,4.510470629E-1
7.308572435E0,3.122633696E-1,-9.762118340E0,4.995017350E-1
7.313348893E0,2.841476798E-1,-9.762716293E0,5.090730190E-1
7.318125299E0,2.745763958E-1,-9.733404160E0,5.186443329E-1
7.322901758E0,2.841476798E-1,-9.733404160E0,4.995017350E-1
7.327678164E0,2.787638307E-1,-9.719047546E0,4.468596280E-1
7.332454570E0,2.883351147E-1,-9.719047546E0,4.277170599E-1
7.337231029E0,2.691925466E-1,-9.714262009E0,4.229314029E-1
7.342007435E0,2.644068897E-1,-9.714262009E0,4.085744619E-1
7.346783893E0,2.739782035E-1,-9.709476471E0,3.942175210E-1
7.351560299E0,3.068794906E-1,-9.723833084E0,4.127618968E-1
7.356336706E0,3.074777126E-1,-9.719047546E0,4.660021961E-1
7.361113164E0,3.409772217E-1,-9.709476471E0,4.893322289E-1
7.365889570E0,3.792623878E-1,-9.719047546E0,5.276173949E-1
7.370666029E0,4.169493318E-1,-9.723833084E0,5.276173949E-1
7.375442435E0,4.169493318E-1,-9.733404160E0,5.228317380E-1
7.380218841E0,4.265206456E-1,-9.752547264E0,5.084748268E-1
7.384995299E0,4.217349887E-1,-9.762118340E0,5.132604837E-1
7.389771706E0,4.025924206E-1,-9.776474953E0,4.893322289E-1
7.394548164E0,3.888336718E-1,-9.786046028E0,4.845465720E-1
7.399324570E0,3.738785386E-1,-9.795618057E0,4.462614357E-1
7.404100977E0,3.547359705E-1,-9.810572624E0,4.079762697E-1
7.408877435E0,3.170489967E-1,-9.820143700E0,3.840480447E-1
7.413653841E0,3.068794906E-1,-9.839286804E0,3.361915946E-1
7.418430299E0,3.020938635E-1,-9.839286804E0,3.314059377E-1
7.423206706E0,3.164508045E-1,-9.844072342E0,3.122633696E-1
7.427983112E0,3.445664644E-1,-9.834501266E0,2.979064286E-1
7.432759570E0,3.637090325E-1,-9.815358162E0,2.925225794E-1
7.437535977E0,3.637090325E-1,-9.815358162E0,3.122633696E-1
7.442312435E0,3.732803464E-1,-9.810572624E0,3.218346536E-1
7.447088841E0,3.780659735E-1,-9.815358162E0,3.409772217E-1
7.451865247E0,3.834498227E-1,-9.795618057E0,3.649054468E-1
7.456641706E0,3.738785386E-1,-9.786046028E0,3.649054468E-1
7.461418112E0,3.834498227E-1,-9.786046028E0,3.696911037E-1
7.466194570E0,3.643072546E-1,-9.796216011E0,3.649054468E-1
7.470970977E0,3.786641955E-1,-9.815358162E0,3.936193287E-1
7.475747435E0,3.690928817E-1,-9.839286804E0,3.984049559E-1
7.480523841E0,3.643072546E-1,-9.848857880E0,3.984049559E-1
7.485300247E0,3.643072546E-1,-9.848857880E0,4.031906128E-1
7.490076706E0,3.457628787E-1,-9.848857880E0,3.888336718E-1
7.494853112E0,3.553341627E-1,-9.839286804E0,4.079762697E-1
7.499629570E0,3.505485058E-1,-9.834501266E0,4.223332107E-1
7.504405977E0,3.218346536E-1,-9.834501266E0,4.127618968E-1
7.509182383E0,3.170489967E-1,-9.848857880E0,4.031906128E-1
7.513958841E0,2.883351147E-1,-9.873384476E0,3.942175210E-1
7.518735247E0,2.602194548E-1,-9.868598938E0,3.894318938E-1
7.523511654E0,2.458625287E-1,-9.863813400E0,3.798605800E-1
7.528288112E0,2.261217386E-1,-9.849455833E0,3.798605800E-1
7.533064518E0,2.165504545E-1,-9.835099220E0,3.607180119E-1
7.537840977E0,2.165504545E-1,-9.835099220E0,3.702892959E-1
7.542617383E0,2.207378894E-1,-9.839884758E0,3.559323549E-1
7.547393789E0,2.261217386E-1,-9.854242325E0,3.607180119E-1
7.552170247E0,2.452643216E-1,-9.878170013E0,3.607180119E-1
7.556946654E0,2.500499785E-1,-9.897313118E0,3.415754437E-1
7.561723112E0,2.787638307E-1,-9.892526627E0,3.655036688E-1
7.566499518E0,3.074777126E-1,-9.887741089E0,3.840480447E-1
7.571275977E0,3.074777126E-1,-9.878170013E0,4.031906128E-1
7.576052383E0,3.218346536E-1,-9.873384476E0,4.414757788E-1
7.580828789E0,3.224328458E-1,-9.873384476E0,4.947160780E-1
7.585605247E0,3.367897868E-1,-9.829715729E0,5.569294691E-1
7.590381654E0,3.326023519E-1,-9.834501266E0,5.856433511E-1
7.595158060E0,3.469592929E-1,-9.805787086E0,6.143572330E-1
7.599934518E0,3.278166950E-1,-9.786644936E0,6.430711150E-1
7.604710924E0,2.943171859E-1,-9.772287369E0,6.526423693E-1
7.609487383E0,2.751746178E-1,-9.743574142E0,6.287141442E-1
7.614263789E0,2.512463629E-1,-9.719047546E0,6.053841114E-1
7.619040247E0,2.123630047E-1,-9.690333366E0,5.670989752E-1
7.623816654E0,1.980060786E-1,-9.709476471E0,5.144568682E-1
7.628593060E0,1.549352705E-1,-9.724431038E0,4.953143001E-1
7.633369518E0,1.501496136E-1,-9.738788605E0,4.761717021E-1
7.638145924E0,1.453639716E-1,-9.767501831E0,4.378865361E-1
7.642922383E0,1.501496136E-1,-9.801599503E0,4.426721931E-1
7.647698789E0,1.363908947E-1,-9.854242325E0,4.666004181E-1
7.652475195E0,1.411765367E-1,-9.897911072E0,5.144568682E-1
7.657251654E0,1.657029688E-1,-9.921838760E0,5.623133183E-1
7.662028060E0,1.800599098E-1,-9.940981865E0,6.293123364E-1
7.666804518E0,1.950150430E-1,-9.940981865E0,7.118647099E-1
7.671580924E0,2.045863420E-1,-9.921838760E0,7.740781307E-1
7.676357331E0,1.812563092E-1,-9.897313118E0,8.123632669E-1
7.681133789E0,1.525424421E-1,-9.882955551E0,8.362914920E-1
7.685910195E0,7.178468257E-2,-9.844670296E0,8.368897438E-1
7.690686654E0,2.871387079E-2,-9.825528145E0,8.273184299E-1
7.695463060E0,-1.435693540E-2,-9.787242889E0,7.896314859E-1
7.700239466E0,-3.828516230E-2,-9.739386559E0,7.657032609E-1
7.705015924E0,-3.409772366E-2,-9.690931320E0,7.561319470E-1
7.709792331E0,-5.982056609E-4,-9.643074989E0,7.555337548E-1
7.714568789E0,4.187439755E-2,-9.594620705E0,7.746763229E-1
7.719345195E0,9.451649338E-2,-9.570094109E0,7.788637877E-1
7.724121602E0,1.226321608E-1,-9.555737495E0,7.884350419E-1
7.728898060E0,1.657029688E-1,-9.546165466E0,8.362914920E-1
7.733674466E0,1.944168359E-1,-9.546165466E0,8.506484628E-1
7.738450924E0,1.992024779E-1,-9.565308571E0,8.554341197E-1
7.743227331E0,1.992024779E-1,-9.613762856E0,8.554341197E-1
7.748003737E0,2.045863420E-1,-9.666405678E0,8.602197170E-1
7.752780195E0,1.758724600E-1,-9.710074425E0,8.267202377E-1
7.757556602E0,1.471585929E-1,-9.743574142E0,7.836494446E-1
7.762333060E0,1.280160099E-1,-9.762716293E0,7.405785918E-1
7.767109466E0,1.513460279E-1,-9.757930756E0,7.214360237E-1
7.771885872E0,1.848455518E-1,-9.767501831E0,7.262216806E-1
7.776662331E0,2.279163599E-1,-9.762716293E0,7.112665176E-1
7.781438737E0,2.614158690E-1,-9.753145218E0,6.969096065E-1
7.786215143E0,3.182454109E-1,-9.733404160E0,6.963114142E-1
7.790991862E0,3.565305769E-1,-9.747760773E0,6.675975323E-1
7.795864102E0,3.804588020E-1,-9.766903877E0,6.723831892E-1
7.800736341E0,4.037888348E-1,-9.795618057E0,6.574280262E-1
7.805608372E0,3.852444589E-1,-9.872786522E0,6.478567123E-1
7.810480352E0,3.517449200E-1,-9.902098656E0,5.904290080E-1
7.815352279E0,3.038884699E-1,-9.930811882E0,5.569294691E-1
7.820224258E0,2.129612118E-1,-9.960124016E0,5.335994363E-1
7.825096185E0,1.226321608E-1,-9.988838196E0,4.809573591E-1
7.829968112E0,2.213360928E-2,-9.989436150E0,4.241278172E-1
7.834840091E0,-5.862415582E-2,-1.000379372E1,3.864408433E-1
7.839712018E0,-1.304088384E-1,-1.002831936E1,3.242274821E-1
7.844583997E0,-1.830509305E-1,-1.007139015E1,2.333002090E-1
7.849455924E0,-2.500499785E-1,-1.011027431E1,1.286142170E-1
7.854327852E0,-3.122633696E-1,-1.016351414E1,8.554340899E-2
7.859199831E0,-3.690928817E-1,-1.019701385E1,7.597211748E-2
7.864071758E0,-3.738785386E-1,-1.021137047E1,1.196411327E-1
7.868943737E0,-3.445664644E-1,-1.021137047E1,2.153540403E-1
7.873815664E0,-2.536391914E-1,-1.020179939E1,3.152543902E-1
7.878687591E0,-1.052841991E-1,-1.014855862E1,4.444667995E-1
7.883559570E0,3.290131316E-2,-1.007139015E1,5.587241054E-1
7.888431497E0,1.806581169E-1,-9.974481583E0,6.687939167E-1
7.893303477E0,3.050848842E-1,-9.878170013E0,7.399803996E-1
7.898175404E0,3.810569942E-1,-9.805787086E0,8.063812256E-1
7.903047331E0,4.426721931E-1,-9.728618622E0,8.398807645E-1
7.907919310E0,4.809573591E-1,-9.680164337E0,8.781659007E-1
7.912791237E0,5.186443329E-1,-9.593423843E0,9.014959335E-1
7.917663216E0,5.000999570E-1,-9.555138588E0,9.062815905E-1
7.922535143E0,4.995017350E-1,-9.497113228E0,8.871390224E-1
7.927407070E0,4.947160780E-1,-9.482755661E0,8.632107973E-1
7.932279049E0,4.851447940E-1,-9.458827972E0,8.536394835E-1
7.937150977E0,4.995017350E-1,-9.444471359E0,8.679963946E-1
7.942022956E0,5.419743061E-1,-9.415159225E0,8.871390224E-1
7.946894883E0,5.563312769E-1,-9.396016121E0,8.919246197E-1
7.951766810E0,5.988038778E-1,-9.366703987E0,8.913264275E-1
7.956638789E0,6.179464459E-1,-9.357132912E0,8.913264275E-1
7.961510716E0,6.035895348E-1,-9.372088432E0,8.865407705E-1
7.966382695E0,5.988038778E-1,-9.400801659E0,8.578268886E-1
7.971254622E0,5.706881881E-1,-9.453444481E0,8.626125455E-1
7.976126549E0,5.467599630E-1,-9.516255379E0,8.679963946E-1
7.980998529E0,5.282155871E-1,-9.569496155E0,8.392825127E-1
7.985870456E0,5.186443329E-1,-9.607781410E0,8.009973764E-1
7.990742383E0,4.989035130E-1,-9.617352486E0,7.627122402E-1
7.995614362E0,4.941178858E-1,-9.656235695E0,7.052844763E-1
8.000486289E0,4.845465720E-1,-9.694520950E0,6.520441771E-1
8.005358268E0,4.845465720E-1,-9.732806206E0,6.185446382E-1
8.010230195E0,4.743770957E-1,-9.762118340E0,5.509474277E-1
8.015102122E0,4.743770957E-1,-9.800403595E0,4.695914388E-1
8.019974102E0,4.546363056E-1,-9.833903313E0,4.025924206E-1
8.024846029E0,4.307080805E-1,-9.891928673E0,3.403790295E-1
8.029718008E0,3.978067636E-1,-9.926026344E0,3.116651475E-1
8.034589362E0,3.595215976E-1,-9.945169449E0,3.218346536E-1
8.039365768E0,2.979064286E-1,-9.984052658E0,3.607180119E-1
8.044142227E0,2.745763958E-1,-9.998409271E0,4.133601189E-1
8.048918633E0,2.560320199E-1,-9.998409271E0,4.803591371E-1
8.053695039E0,2.566302419E-1,-1.000798035E1,5.718846321E-1
8.058471497E0,2.572284341E-1,-1.001276588E1,6.149554253E-1
8.063247904E0,2.811566591E-1,-9.993623734E0,6.729813814E-1
8.068024362E0,3.337987661E-1,-9.988838196E0,7.112665176E-1
8.072800768E0,3.762713671E-1,-9.969097137E0,7.106683254E-1
8.077577174E0,4.378865361E-1,-9.973882675E0,6.813562512E-1
8.082353633E0,5.090730190E-1,-9.959526062E0,6.281159520E-1
8.087130039E0,5.659025311E-1,-9.934999466E0,6.275177598E-1
8.091906497E0,5.994020700E-1,-9.915857315E0,6.370890141E-1
8.096682904E0,6.466603279E-1,-9.886545181E0,6.508477330E-1
8.101459310E0,6.658028960E-1,-9.862616539E0,6.460621357E-1
8.106235768E0,6.610172391E-1,-9.862616539E0,6.508477330E-1
8.111012174E0,6.418746710E-1,-9.881759644E0,6.568298340E-1
8.115788633E0,6.131607890E-1,-9.891928673E0,6.370890141E-1
8.120565039E0,5.659025311E-1,-9.901499748E0,6.370890141E-1
8.125341445E0,5.282155871E-1,-9.896714211E0,6.669993401E-1
8.130117904E0,4.522434771E-1,-9.891928673E0,7.292127013E-1
8.134894310E0,3.481557071E-1,-9.887741089E0,7.680960894E-1
8.139670768E0,1.902294010E-1,-9.878170013E0,7.357929349E-1
8.144447174E0,5.204389244E-2,-9.883553505E0,6.544370055E-1
8.149223581E0,-9.571290761E-2,-9.927223206E0,5.736792088E-1
8.154000039E0,-2.105683982E-1,-9.994820595E0,4.731806815E-1
8.158776445E0,-2.584248483E-1,-1.003310490E1,4.067798555E-1
8.163552904E0,-2.961117923E-1,-1.005284595E1,4.163511395E-1
8.168329310E0,-3.242274821E-1,-1.004806042E1,5.270192027E-1
8.173105716E0,-3.523431420E-1,-1.000498962E1,5.988038778E-1
8.177882174E0,-4.187439680E-1,-9.942177773E0,6.669993401E-1
8.182658581E0,-4.666004181E-1,-9.836296082E0,6.957131624E-1
8.187434987E0,-4.522434771E-1,-9.754940033E0,7.387840152E-1
8.192211445E0,-4.283152521E-1,-9.677771568E0,7.627122402E-1
8.196987852E0,-3.475574851E-1,-9.638887405E0,8.195417523E-1
8.201764310E0,-2.805584669E-1,-9.629316330E0,8.817551732E-1
8.206540716E0,-2.135594189E-1,-9.629316330E0,9.774680734E-1
8.211317122E0,-1.938186288E-1,-9.619147301E0,1.049252748E0
8.216093581E0,-1.603191197E-1,-9.600004196E0,1.073180914E0
8.220869987E0,-1.465603858E-1,-9.604789734E0,1.077966571E0
8.225646393E0,-1.178465188E-1,-9.600004196E0,1.072582722E0
8.230422852E0,-8.913264424E-2,-9.628718376E0,1.072582722E0
8.235199258E0,-5.144568533E-2,-9.652647018E0,1.053440213E0
8.239975716E0,-2.751746029E-2,-9.686145782E0,1.034297585E0
8.244752122E0,-1.794617064E-2,-9.715457916E0,1.014556766E0
8.249528581E0,-8.973085321E-3,-9.734601021E0,9.571290612E-1
8.254304987E0,-3.290131316E-2,-9.744172096E0,8.709874153E-1
8.259081393E0,-7.118647546E-2,-9.772886276E0,8.039883971E-1
8.263857852E0,-8.075776696E-2,-9.792626381E0,7.800601721E-1
8.268634258E0,-1.094716340E-1,-9.816555023E0,7.609176040E-1
8.273410664E0,-1.238285750E-1,-9.835697174E0,7.465606928E-1
8.278187122E0,-1.286142170E-1,-9.840482712E0,7.465606928E-1
8.282963529E0,-9.990034252E-2,-9.835697174E0,7.322037220E-1
8.287739987E0,-4.785645381E-2,-9.835697174E0,7.082754970E-1
8.292516393E0,8.973085321E-3,-9.835697174E0,7.076773047E-1
8.297292799E0,1.040877849E-1,-9.830313683E0,7.070791125E-1
8.302069258E0,1.800599098E-1,-9.835099220E0,6.831508875E-1
8.306845664E0,2.805584669E-1,-9.839286804E0,6.239284873E-1
8.311622070E0,3.559323549E-1,-9.820143700E0,5.712863803E-1
8.316398529E0,3.942175210E-1,-9.805787086E0,5.659025311E-1
8.321174935E0,4.175475538E-1,-9.805189133E0,5.419743061E-1
8.325951393E0,4.313062727E-1,-9.819545746E0,4.749752879E-1
8.330727799E0,4.265206456E-1,-9.844072342E0,4.749752879E-1
8.335504206E0,4.031906128E-1,-9.839286804E0,4.654040039E-1
8.340280664E0,3.649054468E-1,-9.839286804E0,5.084748268E-1
8.345057070E0,3.367897868E-1,-9.824930191E0,5.282155871E-1
8.349833477E0,3.032902777E-1,-9.791430473E0,5.569294691E-1
8.354609935E0,2.656033039E-1,-9.786644936E0,5.617151260E-1
8.359386341E0,2.368894368E-1,-9.786644936E0,5.425725579E-1
8.364162799E0,2.321037948E-1,-9.753145218E0,5.575276613E-1
8.368939206E0,2.506481707E-1,-9.753145218E0,5.330012441E-1
8.373715612E0,2.787638307E-1,-9.709476471E0,4.899304509E-1
8.378492070E0,2.883351147E-1,-9.685547829E0,4.612165689E-1
8.383268477E0,3.595215976E-1,-9.694520950E0,4.558327198E-1
8.388044935E0,4.169493318E-1,-9.689735413E0,4.552344978E-1
8.392821341E0,4.881358147E-1,-9.713663101E0,4.313062727E-1
8.397597747E0,5.407779217E-1,-9.737591743E0,4.594219327E-1
8.402374206E0,5.742774606E-1,-9.771091461E0,4.833501875E-1
8.407150612E0,5.407779217E-1,-9.805189133E0,5.030909777E-1
8.411927070E0,5.270192027E-1,-9.848259926E0,4.983053207E-1
8.416703477E0,4.983053207E-1,-9.868000984E0,4.839483798E-1
8.421479883E0,4.408775866E-1,-9.891928673E0,4.654040039E-1
8.426256341E0,3.984049559E-1,-9.887143135E0,4.414757788E-1
8.431032747E0,3.409772217E-1,-9.892526627E0,3.984049559E-1
8.435809206E0,2.979064286E-1,-9.882955551E0,3.990031779E-1
8.440585612E0,2.410768867E-1,-9.868598938E0,4.085744619E-1
8.445362018E0,1.884347796E-1,-9.849455833E0,4.426721931E-1
8.450138477E0,1.740778536E-1,-9.810572624E0,4.809573591E-1
8.454914883E0,1.692921966E-1,-9.791430473E0,5.192425251E-1
8.459691289E0,1.842473447E-1,-9.796216011E0,5.623133183E-1
8.464467747E0,1.938186288E-1,-9.791430473E0,6.245267391E-1
8.469244154E0,2.081755698E-1,-9.801001549E0,6.586244106E-1
8.474020612E0,2.225325108E-1,-9.805787086E0,6.532405615E-1
8.478797018E0,2.566302419E-1,-9.791430473E0,6.729813814E-1
8.483573424E0,2.662015259E-1,-9.796216011E0,6.777670383E-1
8.488349883E0,2.949153781E-1,-9.805787086E0,6.825526357E-1
8.493126289E0,3.182454109E-1,-9.805787086E0,6.675975323E-1
8.497902695E0,3.517449200E-1,-9.829715729E0,6.430711150E-1
8.502679154E0,3.756731451E-1,-9.834501266E0,6.382854581E-1
8.507455560E0,3.990031779E-1,-9.834501266E0,6.281159520E-1
8.512232018E0,4.181457460E-1,-9.815358162E0,6.185446382E-1
8.517008424E0,4.133601189E-1,-9.805787086E0,6.329016089E-1
8.521784831E0,4.181457460E-1,-9.801001549E0,6.233302951E-1
8.526561289E0,3.990031779E-1,-9.781260490E0,6.089733839E-1
8.531337695E0,3.888336718E-1,-9.771689415E0,5.706881881E-1
8.536114102E0,3.696911037E-1,-9.791430473E0,5.371887088E-1
8.540890560E0,3.649054468E-1,-9.762118340E0,5.036891699E-1
8.545666966E0,3.601198196E-1,-9.762118340E0,4.558327198E-1
8.550443424E0,3.601198196E-1,-9.776474953E0,4.558327198E-1
8.555219831E0,3.649054468E-1,-9.786644936E0,4.510470629E-1
8.559996237E0,3.930211067E-1,-9.815358162E0,4.414757788E-1
8.564772695E0,4.217349887E-1,-9.844072342E0,4.271188378E-1
8.569549102E0,4.408775866E-1,-9.848857880E0,4.265206456E-1
8.574325560E0,4.552344978E-1,-9.877572060E0,4.456632137E-1
8.579101966E0,4.791627228E-1,-9.863214493E0,4.791627228E-1
8.583878372E0,5.174478889E-1,-9.853643417E0,4.935196638E-1
8.588654831E0,5.126622319E-1,-9.858428955E0,4.839483798E-1
8.593431237E0,5.030909777E-1,-9.882357597E0,4.648058116E-1
8.598207643E0,4.839483798E-1,-9.896714211E0,4.695914388E-1
8.602984102E0,4.319044948E-1,-9.911669731E0,4.845465720E-1
8.607760508E0,3.607180119E-1,-9.911669731E0,4.893322289E-1
8.612536966E0,2.847459018E-1,-9.921240807E0,4.851447940E-1
8.617313372E0,1.980060786E-1,-9.936196327E0,4.570291340E-1
8.622089779E0,1.028913707E-1,-9.931410789E0,4.522434771E-1
8.626866237E0,6.041877344E-2,-9.921838760E0,4.767699242E-1
8.631642643E0,2.751746029E-2,-9.907482147E0,5.150550604E-1
8.636419049E0,8.374879137E-3,-9.878767967E0,5.150550604E-1
8.641195508E0,-1.196411322E-3,-9.864411354E0,5.252245665E-1
8.645971914E0,-1.076770201E-2,-9.859625816E0,5.491527915E-1
8.650748372E0,-1.076770201E-2,-9.869196892E0,5.730810165E-1
8.655524779E0,-5.982056726E-3,-9.864411354E0,5.826523304E-1
8.660301185E0,-1.076770201E-2,-9.854840279E0,5.778666735E-1
8.665077643E0,-1.076770201E-2,-9.869196892E0,5.874379873E-1
8.669854049E0,-5.383851007E-3,-9.864411354E0,6.209374666E-1
8.674630508E0,-2.452643216E-2,-9.845269203E0,6.161518097E-1
8.679406914E0,-4.845465720E-2,-9.830911636E0,6.448656917E-1
8.684183320E0,-6.759724021E-2,-9.811769485E0,6.550351977E-1
8.688959779E0,-1.052841991E-1,-9.802198410E0,6.263213158E-1
8.693736185E0,-1.483550072E-1,-9.778269768E0,5.928218365E-1
8.698512591E0,-1.962114573E-1,-9.759127617E0,5.593222976E-1
8.703289049E0,-2.488535494E-1,-9.739984512E0,5.599204898E-1
8.708065456E0,-2.961117923E-1,-9.716055870E0,5.742774606E-1
8.712841914E0,-3.152543902E-1,-9.711270332E0,5.599204898E-1
8.717618320E0,-3.391826153E-1,-9.735198975E0,5.503492355E-1
8.722394727E0,-3.774677813E-1,-9.759127617E0,5.270192027E-1
8.727171185E0,-4.103690982E-1,-9.788438797E0,5.222335458E-1
8.731947591E0,-4.390829504E-1,-9.812367439E0,5.078766346E-1
8.736723997E0,-4.815555513E-1,-9.826724052E0,5.084748268E-1
8.741500456E0,-5.246263742E-1,-9.846465111E0,5.132604837E-1
8.746276862E0,-5.772684813E-1,-9.846465111E0,4.893322289E-1
8.751053320E0,-6.484549642E-1,-9.841679573E0,4.755735099E-1
8.755829727E0,-7.202396393E-1,-9.832108498E0,4.468596280E-1
8.760606133E0,-7.914260626E-1,-9.842277527E0,4.331009090E-1
8.765382591E0,-8.440681696E-1,-9.847063065E0,4.043870270E-1
8.770158997E0,-8.865407705E-1,-9.851848602E0,3.906283081E-1
8.774935456E0,-9.254241586E-1,-9.871589661E0,3.667000830E-1
8.779711862E0,-9.637092948E-1,-9.895518303E0,3.523431420E-1
8.784488268E0,-9.684949517E-1,-9.914660454E0,3.332005441E-1
8.789264727E0,-9.684949517E-1,-9.929018021E0,3.188436031E-1
8.794041133E0,-9.589236975E-1,-9.943374634E0,3.188436031E-1
8.798817539E0,-9.302098155E-1,-9.943374634E0,3.332005441E-1
8.803593997E0,-9.014959335E-1,-9.952945709E0,3.044866920E-1
8.808370404E0,-8.488538265E-1,-9.957731247E0,2.943171859E-1
8.813146810E0,-8.057830334E-1,-9.948160172E0,3.038884699E-1
8.817923268E0,-7.728816867E-1,-9.928419113E0,3.080759048E-1
8.822699674E0,-7.208378315E-1,-9.904491425E0,3.080759048E-1
8.827476081E0,-6.400800347E-1,-9.870393753E0,2.979064286E-1
8.832252539E0,-5.539384484E-1,-9.841679573E0,3.266202807E-1
8.837028945E0,-4.540380836E-1,-9.802796364E0,3.930211067E-1
8.841805404E0,-3.822534084E-1,-9.793225288E0,4.498506486E-1
8.846581810E0,-3.206382394E-1,-9.763913155E0,4.689932466E-1
8.851358216E0,-2.398804724E-1,-9.759127617E0,4.683950245E-1
8.856134674E0,-1.968096644E-1,-9.763913155E0,4.683950245E-1
8.860911081E0,-1.447657645E-1,-9.797411919E0,4.438686073E-1
8.865687539E0,-1.064806059E-1,-9.811769485E0,4.342973232E-1
8.870463945E0,-5.922235921E-2,-9.825528145E0,4.486542344E-1
8.875240352E0,-2.572284266E-2,-9.839884758E0,4.384847581E-1
8.880016810E0,3.110669367E-2,-9.854242325E0,4.241278172E-1
8.884793216E0,6.460621208E-2,-9.854242325E0,4.193421602E-1
8.889569622E0,1.028913707E-1,-9.863813400E0,4.235295951E-1
8.894346081E0,1.310070455E-1,-9.859027863E0,4.187439680E-1
8.899122487E0,1.501496136E-1,-9.835099220E0,4.139583111E-1
8.903898945E0,1.782652885E-1,-9.839884758E0,3.846462369E-1
8.908675352E0,1.830509305E-1,-9.844670296E0,3.607180119E-1
8.913451758E0,1.974078715E-1,-9.839884758E0,3.415754437E-1
8.918228216E0,2.015953064E-1,-9.829715729E0,3.272185028E-1
8.923004622E0,2.309073806E-1,-9.824930191E0,2.841476798E-1
8.927781029E0,2.494517565E-1,-9.834501266E0,2.596212626E-1
8.932557487E0,2.733799815E-1,-9.805787086E0,2.548356056E-1
8.937333893E0,3.110669553E-1,-9.801001549E0,2.452643216E-1
8.942110352E0,3.678964674E-1,-9.800403595E0,2.015953064E-1
8.946886758E0,4.151547253E-1,-9.790832520E0,1.680957973E-1
8.951663164E0,4.438686073E-1,-9.776474953E0,1.818545163E-1
8.956439622E0,4.863412082E-1,-9.756733894E0,1.818545163E-1
8.961216029E0,5.341976285E-1,-9.737591743E0,1.866401732E-1
8.965992435E0,5.766702294E-1,-9.737591743E0,1.860419661E-1
8.970768893E0,6.101697683E-1,-9.732806206E0,1.908276081E-1
8.975545299E0,6.484549642E-1,-9.742377281E0,1.956132501E-1
8.980321706E0,6.669993401E-1,-9.761520386E0,1.758724600E-1
8.985098164E0,7.052844763E-1,-9.780662537E0,1.280160099E-1
8.989874570E0,7.148557901E-1,-9.799804688E0,1.375873089E-1
8.994651029E0,7.238288522E-1,-9.795019150E0,1.184447184E-1
8.999427435E0,7.621139884E-1,-9.784850121E0,8.434699476E-2
9.004203841E0,7.902296782E-1,-9.760921478E0,6.999006122E-2
9.008980299E0,8.183453679E-1,-9.736993790E0,3.589234129E-2
9.013756706E0,8.087740541E-1,-9.702896118E0,2.153540403E-2
9.018533112E0,8.183453679E-1,-9.669396400E0,7.178467698E-3
9.023309570E0,8.087740541E-1,-9.674181938E0,5.563312769E-2
9.028085977E0,7.758727670E-1,-9.669396400E0,9.391828626E-2
9.032862435E0,7.998009920E-1,-9.683753014E0,1.369891018E-1
9.037638841E0,7.764709592E-1,-9.708279610E0,1.800599098E-1
9.042415247E0,7.812566161E-1,-9.713065147E0,2.183450609E-1
9.047191706E0,7.818548083E-1,-9.722636223E0,2.476571500E-1
9.051968112E0,7.818548083E-1,-9.727422714E0,2.811566591E-1
9.056744518E0,7.770691514E-1,-9.722636223E0,3.146561682E-1
9.061520977E0,7.633104324E-1,-9.727422714E0,3.385843933E-1
9.066297383E0,7.441678643E-1,-9.761520386E0,3.481557071E-1
9.071073841E0,7.304090858E-1,-9.766305923E0,3.726821244E-1
9.075850247E0,7.351947427E-1,-9.771091461E0,4.013960063E-1
9.080626654E0,7.256234884E-1,-9.771091461E0,4.253242314E-1
9.085403112E0,7.214360237E-1,-9.751948357E0,4.588237405E-1
9.090179518E0,7.262216806E-1,-9.756733894E0,4.923232496E-1
9.094955924E0,7.268198729E-1,-9.771091461E0,5.353940725E-1
9.099732383E0,7.363911867E-1,-9.785448074E0,5.593222976E-1
9.104508789E0,7.459624410E-1,-9.809376717E0,5.401797295E-1
9.109285195E0,7.453642488E-1,-9.809376717E0,4.683950245E-1
9.114061654E0,7.399803996E-1,-9.804591179E0,4.013960063E-1
9.118838060E0,7.495517135E-1,-9.814162254E0,3.672982752E-1
9.123614466E0,7.304090858E-1,-9.809376717E0,3.433700502E-1
9.128390924E0,7.064808607E-1,-9.809376717E0,3.200400174E-1
9.133167331E0,7.064808607E-1,-9.790233612E0,3.104687333E-1
9.137943789E0,7.016952634E-1,-9.780662537E0,3.104687333E-1
9.142720195E0,6.825526357E-1,-9.771091461E0,3.296113312E-1
9.147496602E0,6.825526357E-1,-9.756733894E0,3.535395563E-1
9.152273060E0,6.681957245E-1,-9.775876999E0,3.200400174E-1
9.157049466E0,6.634100676E-1,-9.771091461E0,2.961117923E-1
9.161825872E0,6.538388133E-1,-9.780662537E0,2.578266263E-1
9.166602331E0,6.442674994E-1,-9.790233612E0,2.434697002E-1
9.171378737E0,6.059823632E-1,-9.790233612E0,2.386840582E-1
9.176155195E0,5.581258535E-1,-9.805189133E0,2.344966233E-1
9.180931602E0,5.198407173E-1,-9.795618057E0,1.914258152E-1
9.185708008E0,4.821537733E-1,-9.790832520E0,1.674975902E-1
9.190484466E0,4.671986103E-1,-9.786046028E0,1.531406492E-1
9.195260872E0,4.582255483E-1,-9.790832520E0,1.627119333E-1
9.200037279E0,4.486542344E-1,-9.795618057E0,1.914258152E-1
9.204813737E0,4.534398913E-1,-9.790832520E0,2.153540403E-1
9.209590143E0,4.582255483E-1,-9.790832520E0,2.249253243E-1
9.214366549E0,4.444667995E-1,-9.790832520E0,2.398804724E-1
9.219143008E0,4.636093974E-1,-9.786046028E0,2.536391914E-1
9.223919414E0,4.683950245E-1,-9.800403595E0,2.727817893E-1
9.228695872E0,4.875376225E-1,-9.814760208E0,2.967100143E-1
9.233472279E0,4.779663086E-1,-9.833903313E0,2.632105052E-1
9.238248685E0,4.827519655E-1,-9.833903313E0,2.775674164E-1
9.243025143E0,4.923232496E-1,-9.853643417E0,2.823530734E-1
9.247801549E0,4.923232496E-1,-9.848857880E0,3.014956415E-1
9.252577956E0,4.683950245E-1,-9.844072342E0,2.584248483E-1
9.257354414E0,4.827519655E-1,-9.824331284E0,2.632105052E-1
9.262130820E0,4.725824594E-1,-9.814760208E0,2.392822653E-1
9.266907227E0,4.582255483E-1,-9.809974670E0,2.153540403E-1
9.271683685E0,4.301098585E-1,-9.819545746E0,2.063809484E-1
9.276460091E0,4.253242314E-1,-9.819545746E0,2.638086975E-1
9.281236497E0,4.402793646E-1,-9.833903313E0,3.355933726E-1
9.286012956E0,4.115654826E-1,-9.844072342E0,3.308077157E-1
9.290789362E0,3.780659735E-1,-9.848857880E0,3.068794906E-1
9.295565820E0,3.589234054E-1,-9.853643417E0,2.685943544E-1
9.300342227E0,3.254238665E-1,-9.858428955E0,2.548356056E-1
9.305118633E0,2.967100143E-1,-9.848857880E0,2.261217386E-1
9.309895091E0,2.871387303E-1,-9.839286804E0,2.117647976E-1
9.314671497E0,2.057827413E-1,-9.848857880E0,1.980060786E-1
9.319447904E0,1.345962733E-1,-9.820143700E0,1.980060786E-1
9.324224362E0,8.673982322E-2,-9.806385040E0,1.932204217E-1
9.329000768E0,5.802594870E-2,-9.801599503E0,2.081755698E-1
9.333777174E0,2.512463741E-2,-9.792028427E0,2.464607358E-1
9.338553633E0,6.580262445E-3,-9.787242889E0,2.751746178E-1
9.343330039E0,-2.213360928E-2,-9.772886276E0,3.188436031E-1
9.348106445E0,-3.170489892E-2,-9.768099785E0,3.284149170E-1
9.352882904E0,-6.460621208E-2,-9.782457352E0,3.523431420E-1
9.357659310E0,-7.417750359E-2,-9.806385040E0,3.427718580E-1
9.362435716E0,-9.810572863E-2,-9.821340561E0,3.290131092E-1
9.367212174E0,-9.272187948E-2,-9.830911636E0,3.529413342E-1
9.371988581E0,-8.793623000E-2,-9.854840279E0,3.481557071E-1
9.376765039E0,-8.315058798E-2,-9.850054741E0,3.433700502E-1
9.381541445E0,-7.836493850E-2,-9.854840279E0,3.385843933E-1
9.386317852E0,-8.315058798E-2,-9.854840279E0,3.385843933E-1
9.391094310E0,-7.836493850E-2,-9.850054741E0,3.529413342E-1
9.395870716E0,-7.836493850E-2,-9.826126099E0,3.672982752E-1
9.400647122E0,-7.417750359E-2,-9.792028427E0,3.523431420E-1
9.405423581E0,-5.024927482E-2,-9.792028427E0,3.188436031E-1
9.410199987E0,-1.256231871E-2,-9.787242889E0,3.332005441E-1
9.414976393E0,6.580262445E-3,-9.792028427E0,3.092723191E-1
9.419752852E0,1.615155302E-2,-9.772886276E0,3.236292601E-1
9.424529258E0,4.965107143E-2,-9.757930756E0,3.326023519E-1
9.429305716E0,4.905286431E-2,-9.729216576E0,3.086741269E-1
9.434082122E0,1.016949639E-1,-9.719645500E0,3.278166950E-1
9.438858529E0,5.264209956E-2,-9.661619186E0,1.698904037E-1
9.443634987E0,3.684946895E-1,-9.781260490E0,3.266202807E-1
9.448411393E0,2.255235314E-1,-9.728618622E0,4.133601189E-1
9.453187799E0,1.280160099E-1,-9.565308571E0,1.166501045E-1
9.457964258E0,5.617151260E-1,-9.636494637E0,9.032905847E-2
9.462740664E0,7.968099117E-1,-9.790233612E0,3.864408433E-1
9.467517070E0,7.465606928E-1,-9.915258408E0,6.173482537E-1
9.472293529E0,4.887340367E-1,-9.954740524E0,4.121637046E-1
9.477069935E0,3.439682424E-1,-9.921240807E0,8.195417374E-2
9.481846341E0,2.673979402E-1,-9.940383911E0,-8.973085321E-3
9.486622799E0,-7.178468257E-2,-9.873982430E0,-1.459621787E-1
9.491399206E0,-2.638086975E-1,-9.816555023E0,-3.320041299E-1
9.496175664E0,-3.212364316E-1,-9.729815483E0,-3.942175210E-1
9.500952070E0,-2.542374134E-1,-9.671789169E0,-3.373879790E-1
9.505728477E0,-1.064806059E-1,-9.671789169E0,-2.422732860E-1
9.510504935E0,6.999006122E-2,-9.719047546E0,-1.471585929E-1
9.515281341E0,2.476571500E-1,-9.810572624E0,-4.725824669E-2
9.520057747E0,3.625126183E-1,-9.858428955E0,1.058823988E-1
9.524834206E0,6.640082598E-1,-9.954142570E0,3.296113312E-1
9.529610612E0,7.657032609E-1,-1.004028416E1,5.449653864E-1
9.534387018E0,7.896314859E-1,-1.002592659E1,6.311069727E-1
9.539163477E0,9.320043921E-1,-9.953543663E0,5.826523304E-1
9.543939883E0,1.240678549E0,-9.861420631E0,5.665007830E-1
9.548716289E0,1.207777262E0,-9.894919395E0,6.484549642E-1
9.553492747E0,1.026520967E0,-9.780064583E0,6.394818425E-1
9.558269154E0,1.068395257E0,-9.678967476E0,4.713860750E-1
9.563045560E0,1.214955688E0,-9.596415520E0,4.079762697E-1
9.567822018E0,1.224527001E0,-9.562915802E0,4.462614357E-1
9.572598424E0,1.071984529E0,-9.553344727E0,3.990031779E-1
9.577374883E0,1.028913736E0,-9.558130264E0,3.613162339E-1
9.582151289E0,9.864411354E-1,-9.592227936E0,3.661018610E-1
9.586927695E0,9.684949517E-1,-9.712467194E0,5.246263742E-1
9.591704154E0,9.457631707E-1,-9.693324089E0,6.161518097E-1
9.596480560E0,1.016949654E0,-9.736394882E0,5.724828243E-1
9.601256966E0,1.002592683E0,-9.736394882E0,5.533402562E-1
9.606033424E0,9.930213690E-1,-9.726823807E0,5.820540786E-1
9.610809831E0,9.595218897E-1,-9.717252731E0,5.868397355E-1
9.615586237E0,9.595218897E-1,-9.722038269E0,5.629115105E-1
9.620362695E0,9.308080077E-1,-9.746564865E0,5.294120312E-1
9.625139102E0,8.925228715E-1,-9.794421196E0,4.917250574E-1
9.629915508E0,8.548358679E-1,-9.833304405E0,4.725824594E-1
9.634691966E0,8.069794178E-1,-9.872187614E0,4.630111754E-1
9.639468372E0,7.405785918E-1,-9.886545181E0,4.779663086E-1
9.644244779E0,6.837490797E-1,-9.896116257E0,4.833501875E-1
9.649021237E0,6.173482537E-1,-9.911071777E0,4.785645306E-1
9.653797643E0,5.509474277E-1,-9.934999466E0,4.791627228E-1
9.658574049E0,4.887340367E-1,-9.959526062E0,4.648058116E-1
9.663350508E0,4.175475538E-1,-9.973882675E0,4.462614357E-1
9.668126914E0,3.505485058E-1,-9.969097137E0,3.888336718E-1
9.672903372E0,2.787638307E-1,-9.959526062E0,3.511467278E-1
9.677679779E0,2.506481707E-1,-9.969695091E0,3.367897868E-1
9.682456185E0,2.165504545E-1,-9.950552940E0,3.415754437E-1
9.687232643E0,2.117647976E-1,-9.935597420E0,3.607180119E-1
9.692009049E0,2.123630047E-1,-9.930811882E0,4.325026870E-1
9.696785456E0,2.171486616E-1,-9.921240807E0,4.857429862E-1
9.701561914E0,1.938186288E-1,-9.916455269E0,5.288137794E-1
9.706338320E0,1.603191197E-1,-9.902098656E0,5.479564071E-1
9.711114727E0,1.082752272E-1,-9.882955551E0,5.868397355E-1
9.715891185E0,6.101697683E-2,-9.854242325E0,5.820540786E-1
9.720667591E0,1.316052489E-2,-9.820742607E0,5.635097623E-1
9.725443997E0,1.256231871E-2,-9.763314247E0,5.629115105E-1
9.730220456E0,2.691925503E-2,-9.734002113E0,5.820540786E-1
9.734996862E0,7.477571070E-2,-9.724431038E0,6.107679605E-1
9.739773268E0,1.226321608E-1,-9.705288887E0,6.346961856E-1
9.744549727E0,1.651047617E-1,-9.699904442E0,6.586244106E-1
9.749326133E0,1.938186288E-1,-9.690333366E0,6.729813814E-1
9.754102591E0,2.177468538E-1,-9.695118904E0,6.825526357E-1
9.758878997E0,2.225325108E-1,-9.723833084E0,6.921239495E-1
9.763655404E0,2.566302419E-1,-9.733404160E0,6.921239495E-1
9.768431862E0,2.805584669E-1,-9.757930756E0,6.969096065E-1
9.773208268E0,2.853440940E-1,-9.791430473E0,6.825526357E-1
9.777984674E0,2.853440940E-1,-9.834501266E0,6.586244106E-1
