"Time (s)","Gyroscope x (rad/s)","Gyroscope y (rad/s)","Gyroscope z (rad/s)"
1.980501800E-2,2.401462197E-1,-2.887099683E-1,-1.568395346E-1
2.455960200E-2,2.205985487E-1,-2.691622972E-1,-1.629481763E-1
2.931423700E-2,2.047160566E-1,-2.520580888E-1,-1.684459597E-1
3.406882100E-2,1.943313628E-1,-2.276234925E-1,-1.763872057E-1
3.882340400E-2,1.906661689E-1,-1.989128441E-1,-1.843284518E-1
4.357798700E-2,1.918879002E-1,-1.714239269E-1,-1.916588247E-1
4.833257100E-2,1.986074150E-1,-1.469893306E-1,-1.971566081E-1
5.308720600E-2,2.071595192E-1,-1.280525327E-1,-1.996000707E-1
5.784178900E-2,2.181550860E-1,-1.109483168E-1,-2.014326602E-1
6.259637300E-2,2.297615111E-1,-9.873101860E-2,-2.038761228E-1
6.735095600E-2,2.389244884E-1,-9.750928730E-2,-2.093739063E-1
7.210553900E-2,2.468657345E-1,-1.030070707E-1,-2.197586000E-1
7.686012300E-2,2.535852492E-1,-1.078939885E-1,-2.338084877E-1
8.161470600E-2,2.578612864E-1,-1.109483168E-1,-2.484692484E-1
8.636934100E-2,2.389244884E-1,-1.414915472E-1,-2.967275679E-1
9.112392500E-2,2.096029818E-1,-1.592066288E-1,-3.590357602E-1
9.587850800E-2,1.912770271E-1,-1.451567411E-1,-3.987419903E-1
1.006330910E-1,1.790597439E-1,-1.188895553E-1,-4.231765866E-1
1.053876750E-1,1.674533039E-1,-9.567669779E-2,-4.439459741E-1
1.101422580E-1,1.546251476E-1,-7.979421318E-2,-4.671588540E-1
1.148968930E-1,1.448513120E-1,-6.696604937E-2,-4.940368831E-1
1.196514770E-1,1.460730433E-1,-4.864010960E-2,-5.282453299E-1
1.244060600E-1,1.650098413E-1,-2.420551702E-2,-5.716167092E-1
1.291606430E-1,1.998291463E-1,8.170315996E-3,-6.229293346E-1
1.339152270E-1,2.468657345E-1,5.093085021E-2,-6.785180569E-1
1.386698100E-1,2.994000912E-1,1.065195426E-1,-7.328850031E-1
1.434243930E-1,3.519344628E-1,1.798233241E-1,-7.786998749E-1
1.481790290E-1,3.953058720E-1,2.616792023E-1,-8.116865754E-1
1.529336120E-1,4.270708263E-1,3.410916328E-1,-8.330668211E-1
1.576881960E-1,4.429533184E-1,4.107302129E-1,-8.434515595E-1
1.624427790E-1,4.441750646E-1,4.718166888E-1,-8.465058804E-1
1.671973620E-1,4.313468933E-1,5.243510604E-1,-8.471167088E-1
1.719519460E-1,4.063014388E-1,5.726093650E-1,-8.440623879E-1
1.767065290E-1,3.672060966E-1,6.202568412E-1,-8.379537463E-1
1.814611640E-1,3.171151876E-1,6.691260338E-1,-8.275690675E-1
1.862157480E-1,2.615264952E-1,7.118865252E-1,-8.135191798E-1
1.909703310E-1,2.059377879E-1,7.412080765E-1,-7.976366878E-1
1.957249140E-1,1.540142894E-1,7.570905089E-1,-7.829759121E-1
2.004794980E-1,1.081994250E-1,7.583122849E-1,-7.738129497E-1
2.052340810E-1,6.666062027E-2,7.436515093E-1,-7.695369124E-1
2.099886640E-1,3.123046272E-2,7.131083012E-1,-7.719803452E-1
2.147432480E-1,3.741546767E-3,6.691260338E-1,-7.799215913E-1
2.194978310E-1,-1.153007243E-2,6.129264235E-1,-7.915280461E-1
2.242524660E-1,-1.030834299E-2,5.475639105E-1,-8.061888218E-1
2.290070500E-1,8.628465235E-3,4.815905094E-1,-8.239038587E-1
2.337616330E-1,4.528035223E-2,4.198931754E-1,-8.410080671E-1
2.385162160E-1,9.537126124E-2,3.624718785E-1,-8.550579548E-1
2.432708000E-1,1.515708268E-1,3.099375069E-1,-8.660535216E-1
2.480253830E-1,2.114355713E-1,2.629009187E-1,-8.721621633E-1
2.527799660E-1,2.706894577E-1,2.176969349E-1,-8.770490885E-1
2.575345500E-1,3.299433291E-1,1.767689884E-1,-8.776599765E-1
2.622891850E-1,3.891972303E-1,1.431714296E-1,-8.709404469E-1
2.670437680E-1,4.435641766E-1,1.071304083E-1,-8.538362384E-1
2.717983520E-1,4.893790483E-1,7.964149863E-2,-8.348994255E-1
2.765529350E-1,5.217548609E-1,5.459604040E-2,-8.153517842E-1
2.813075180E-1,5.339722037E-1,2.344193682E-2,-7.988584042E-1
2.860621020E-1,5.272526741E-1,-1.809686981E-2,-7.872520089E-1
2.908166850E-1,5.034289360E-1,-8.162680268E-2,-7.762564421E-1
2.955712680E-1,4.557814896E-1,-2.031888962E-1,-7.579304576E-1
3.003258520E-1,4.246273935E-1,-2.691622972E-1,-7.567087412E-1
3.050804870E-1,4.142426848E-1,-2.813795805E-1,-7.652608752E-1
3.098350710E-1,4.001927972E-1,-2.978729308E-1,-7.732021213E-1
3.145896540E-1,3.782016635E-1,-3.479638398E-1,-7.866411209E-1
3.193442370E-1,3.549887836E-1,-4.365392327E-1,-7.982475758E-1
3.240988210E-1,3.391063213E-1,-5.428296924E-1,-7.958040833E-1
3.288534040E-1,3.415497839E-1,-6.430115104E-1,-7.786998749E-1
3.336079870E-1,3.629300296E-1,-7.279217243E-1,-7.542653084E-1
3.383625710E-1,4.001927972E-1,-8.073341846E-1,-7.279980779E-1
3.431171540E-1,4.508945644E-1,-8.879683018E-1,-6.956222653E-1
3.478717370E-1,5.144245028E-1,-9.857066870E-1,-6.553052068E-1
3.526263730E-1,5.871174335E-1,-1.102992773E0,-6.046034098E-1
3.573809040E-1,6.701950431E-1,-1.230663419E0,-5.453495383E-1
3.621355390E-1,7.593812943E-1,-1.377881885E0,-4.793761373E-1
3.668901230E-1,8.467349410E-1,-1.548313141E0,-4.121810198E-1
3.716447060E-1,9.157626629E-1,-1.786550403E0,-3.394880891E-1
3.763992890E-1,9.621883631E-1,-2.073045969E0,-2.716821134E-1
3.811538730E-1,1.011057615E0,-2.299676895E0,-2.331976295E-1
3.859084560E-1,1.034270406E0,-2.482936144E0,-2.197586000E-1
3.906630390E-1,1.015333652E0,-2.647258997E0,-2.307541668E-1
3.954176230E-1,9.469167590E-1,-2.800585985E0,-2.704603672E-1
4.001722060E-1,8.259655237E-1,-2.936197996E0,-3.229947388E-1
4.049267890E-1,6.634755135E-1,-3.042488337E0,-3.706422150E-1
4.096813730E-1,4.734965563E-1,-3.102353096E0,-4.060723484E-1
4.144360080E-1,2.755763829E-1,-3.095022678E0,-4.256200492E-1
4.191905910E-1,8.254310489E-2,-3.023551702E0,-4.323395491E-1
4.239451750E-1,-8.422297984E-2,-2.874500513E0,-4.298960865E-1
4.286997580E-1,-2.344957143E-1,-2.700404167E0,-4.201222658E-1
4.334543410E-1,-3.676642478E-1,-2.537914038E0,-4.024071693E-1
4.382089250E-1,-4.733438492E-1,-2.405967236E0,-3.736965358E-1
4.429635080E-1,-5.411498547E-1,-2.305174589E0,-3.327685893E-1
4.477180910E-1,-5.661953092E-1,-2.233703375E0,-2.826776803E-1
4.524726750E-1,-5.435932875E-1,-2.194607973E0,-2.240346521E-1
4.572272580E-1,-4.855611324E-1,-2.202549219E0,-1.641699076E-1
4.619818410E-1,-4.006509483E-1,-2.262413979E0,-1.153007299E-1
4.667364250E-1,-2.974147797E-1,-2.369926214E0,-7.925970852E-2
4.714910080E-1,-1.795178801E-1,-2.512868643E0,-5.360338464E-2
4.762455910E-1,-6.284271181E-2,-2.689408541E0,-3.711003438E-2
4.810002270E-1,3.245219216E-2,-2.890383005E0,-3.039052337E-2
4.857548100E-1,8.865175396E-2,-3.099298716E0,-3.711003438E-2
4.905093930E-1,9.353867173E-2,-3.292332172E0,-4.810560122E-2
4.952639770E-1,4.650207981E-2,-3.454211235E0,-5.787943676E-2
5.000185600E-1,-5.367974192E-2,-3.581882000E0,-6.276635826E-2
5.047731430E-1,-2.155589163E-1,-3.702222347E0,-5.726857483E-2
5.095277270E-1,-3.762163520E-1,-3.674733400E0,-5.665770918E-2
5.142823100E-1,-5.362629294E-1,-3.518352032E0,-5.177079141E-2
5.190368930E-1,-7.011964321E-1,-3.293553829E0,-4.444041103E-2
5.237914770E-1,-8.746820092E-1,-3.089524984E0,-3.833176568E-2
5.285460600E-1,-1.042058945E0,-2.919704676E0,-2.855792828E-2
5.333006430E-1,-1.175838351E0,-2.771264315E0,-4.581485991E-4
5.380552270E-1,-1.254639864E0,-2.635041475E0,4.657844082E-2
5.428098100E-1,-1.277852774E0,-2.506759882E0,1.027780026E-1
5.475643930E-1,-1.254029036E0,-2.406578064E0,1.644753367E-1
5.523189770E-1,-1.194164276E0,-2.354654551E0,2.322813272E-1
5.570735600E-1,-1.114751816E0,-2.349767685E0,3.055851161E-1
5.618281430E-1,-1.034728527E0,-2.391917467E0,3.770562708E-1
5.665827270E-1,-9.638682604E-1,-2.481714487E0,4.344775677E-1
5.713373100E-1,-9.076687098E-1,-2.595335484E0,4.711294472E-1
5.760918930E-1,-8.691841960E-1,-2.710788727E0,4.827359021E-1
5.808465290E-1,-8.545234799E-1,-2.816468477E0,4.686860144E-1
5.856011120E-1,-8.697950840E-1,-2.901378632E0,4.418079555E-1
5.903556960E-1,-9.143882394E-1,-2.955134630E0,4.149298966E-1
5.951102790E-1,-9.834159613E-1,-2.969184637E0,3.935496211E-1
5.998648620E-1,-1.064050078E0,-2.934365273E0,3.849975169E-1
6.046194460E-1,-1.143462539E0,-2.843346357E0,3.898844421E-1
6.093740290E-1,-1.208824992E0,-2.706512690E0,4.063777924E-1
6.141286120E-1,-1.254029036E0,-2.537303209E0,4.283689260E-1
6.188831960E-1,-1.275409341E0,-2.350378513E0,4.564687014E-1
6.236377790E-1,-1.268689752E0,-2.159788847E0,4.918988645E-1
6.283923620E-1,-1.239979148E0,-1.983859777E0,5.352702737E-1
6.331469460E-1,-1.191110015E0,-1.845193386E0,5.847502947E-1
6.379015290E-1,-1.129412651E0,-1.763337493E0,6.360629797E-1
6.426561120E-1,-1.059774041E0,-1.734016061E0,6.782126427E-1
6.474106960E-1,-9.883028269E-1,-1.736459494E0,7.075341344E-1
6.521652790E-1,-9.247729182E-1,-1.757228851E0,7.197514176E-1
6.569198620E-1,-8.759037256E-1,-1.781663537E0,7.154753804E-1
6.616744460E-1,-8.478039503E-1,-1.797546029E0,6.995928884E-1
6.664290290E-1,-8.410844207E-1,-1.796324253E0,6.769908667E-1
6.711836120E-1,-8.594104052E-1,-1.770057082E0,6.458367705E-1
6.759381960E-1,-8.948405385E-1,-1.713246584E0,6.085740328E-1
6.806927790E-1,-9.443206191E-1,-1.626503825E0,5.713112950E-1
6.854473620E-1,-9.986875653E-1,-1.521435142E0,5.383245945E-1
6.902019460E-1,-1.050611019E0,-1.412090302E0,5.126682520E-1
6.949565290E-1,-1.091539025E0,-1.314962745E0,5.028944016E-1
6.997111120E-1,-1.113530159E0,-1.233106971E0,5.041161776E-1
7.044656960E-1,-1.120860457E0,-1.157970548E0,5.108356476E-1
7.092202790E-1,-1.115973592E0,-1.091386318E0,5.224421024E-1
7.139748620E-1,-1.110475779E0,-1.041295409E0,5.322159529E-1
7.187294460E-1,-1.120860457E0,-1.068173409E0,5.493201613E-1
7.234840290E-1,-1.118417025E0,-1.085277677E0,5.627591610E-1
7.282386120E-1,-1.079321742E0,-1.003421783E0,5.816959739E-1
7.329931960E-1,-1.060384870E0,-9.313397408E-1,6.097957492E-1
7.377477790E-1,-1.079321742E0,-9.105703235E-1,6.275108457E-1
7.425023620E-1,-1.114140987E0,-9.093486071E-1,6.336194873E-1
7.472569460E-1,-1.143462539E0,-8.879683018E-1,6.317868829E-1
7.520115290E-1,-1.154458046E0,-8.287144303E-1,6.171261668E-1
7.567661120E-1,-1.148960233E0,-7.419716120E-1,5.878046155E-1
7.615206960E-1,-1.132466912E0,-6.430115104E-1,5.487092733E-1
7.662752790E-1,-1.108032346E0,-5.367210507E-1,5.132791400E-1
7.710298620E-1,-1.073213100E0,-4.206567705E-1,4.912880063E-1
7.757844460E-1,-1.026176453E0,-2.997055352E-1,4.876227975E-1
7.805390290E-1,-9.669225812E-1,-1.818086356E-1,4.980075061E-1
7.852936120E-1,-9.003383517E-1,-7.673988491E-2,5.175551772E-1
7.900481960E-1,-8.252019882E-1,6.337722298E-3,5.401571989E-1
7.948027790E-1,-7.457895279E-1,6.375901401E-2,5.639809370E-1
7.995573620E-1,-6.584358811E-1,9.674570709E-2,5.878046155E-1
8.043119460E-1,-5.655844212E-1,1.077412739E-1,6.104066372E-1
8.090665290E-1,-4.666243196E-1,8.941533417E-2,6.293434501E-1
8.138211120E-1,-3.713294268E-1,4.176788032E-2,6.397281289E-1
8.185756960E-1,-2.894735336E-1,-2.237292193E-2,6.391173005E-1
8.233302790E-1,-2.302196622E-1,-9.384410083E-2,6.281217337E-1
8.280848620E-1,-2.008981556E-1,-1.628718227E-1,6.091849208E-1
8.328394460E-1,-1.960112303E-1,-2.160170525E-1,5.871937871E-1
8.375940290E-1,-2.063959390E-1,-2.441168427E-1,5.670352578E-1
8.423486120E-1,-2.235001475E-1,-2.441168427E-1,5.548179150E-1
8.471031960E-1,-2.436586916E-1,-2.202931046E-1,5.462658405E-1
8.518577790E-1,-2.619846463E-1,-1.818086356E-1,5.389354229E-1
8.566123620E-1,-2.894735336E-1,-1.769217104E-1,5.334376693E-1
8.613669460E-1,-3.041343093E-1,-1.702021956E-1,5.199986696E-1
8.661215290E-1,-2.760345340E-1,-7.551816106E-2,5.016726851E-1
8.708761120E-1,-2.467130125E-1,1.611155830E-2,4.943423271E-1
8.756306960E-1,-2.302196622E-1,5.398517475E-2,4.900662601E-1
8.803852790E-1,-2.167806327E-1,5.826122686E-2,4.931205809E-1
8.851398620E-1,-1.978438348E-1,5.581776798E-2,5.083922148E-1
8.898944460E-1,-1.685223281E-1,5.765036494E-2,5.346593857E-1
8.946490290E-1,-1.318704337E-1,5.581776798E-2,5.621483326E-1
8.994036120E-1,-9.216422588E-2,3.504836559E-2,5.914698243E-1
9.041581960E-1,-5.429060757E-2,-1.076649129E-2,6.183478832E-1
9.089127270E-1,-1.702785492E-2,-7.307469845E-2,6.464476585E-1
9.136673100E-1,1.962403022E-2,-1.421024203E-1,6.733257174E-1
9.184218930E-1,5.199986324E-2,-2.251800299E-1,6.977602839E-1
9.231764770E-1,7.399099320E-2,-3.241401315E-1,7.148644924E-1
9.279310600E-1,8.865175396E-2,-4.267654121E-1,7.228057384E-1
9.326856430E-1,9.781472385E-2,-5.196168423E-1,7.246383429E-1
9.374402270E-1,9.781472385E-2,-6.020836234E-1,7.209731340E-1
9.421948100E-1,8.804088831E-2,-6.802743077E-1,7.111993432E-1
9.469493930E-1,6.727148592E-2,-7.615193129E-1,6.965385675E-1
9.517039770E-1,4.344775900E-2,-8.390991092E-1,6.855430007E-1
9.564585600E-1,2.084576152E-2,-9.014073610E-1,6.873756051E-1
9.612131430E-1,2.519817324E-3,-9.380592108E-1,7.087558508E-1
9.659677270E-1,-1.580612548E-2,-9.502764940E-1,7.472403646E-1
9.707223100E-1,-4.085158184E-2,-9.533308744E-1,7.906117439E-1
9.754768930E-1,-6.711876392E-2,-9.527199864E-1,8.321505189E-1
9.802314770E-1,-9.033162892E-2,-9.502764940E-1,8.681915402E-1
9.849860600E-1,-9.888373315E-2,-9.411135316E-1,8.950695992E-1
9.897406430E-1,-8.910989761E-2,-9.221767187E-1,9.133955836E-1
9.944952270E-1,-5.795579776E-2,-8.940769434E-1,9.256128669E-1
9.992498100E-1,-1.153007243E-2,-8.604794145E-1,9.347758293E-1
1.004004341E0,4.528035223E-2,-8.177188635E-1,9.414953589E-1
1.008758925E0,1.088102907E-1,-7.627410293E-1,9.506583214E-1
1.013513508E0,1.735619605E-1,-6.961567998E-1,9.622647166E-1
1.018268091E0,2.334267050E-1,-6.295725107E-1,9.763146043E-1
1.023022675E0,2.884045243E-1,-5.703186393E-1,9.909753799E-1
1.027777258E0,3.391063213E-1,-5.226711631E-1,1.005636096E0
1.032531841E0,3.879754841E-1,-4.872410297E-1,1.020296931E0
1.037286425E0,4.362338185E-1,-4.658607543E-1,1.028238177E0
1.042041008E0,4.887681901E-1,-4.609738290E-1,1.026405573E0
1.046795591E0,5.425242782E-1,-4.756345749E-1,1.014799118E0
1.051550175E0,5.981130004E-1,-5.055669546E-1,9.983057380E-1
1.056304758E0,6.567559838E-1,-5.452731848E-1,9.848667383E-1
1.061059341E0,7.111229897E-1,-5.929206014E-1,9.781472087E-1
1.065813873E0,7.581595778E-1,-6.509527564E-1,9.787580967E-1
1.070568456E0,7.972549200E-1,-7.077631950E-1,9.787580967E-1
1.075323039E0,8.186351657E-1,-7.480802536E-1,9.708168507E-1
1.080077623E0,8.186351657E-1,-7.572432756E-1,9.488257170E-1
1.084832206E0,7.905353904E-1,-7.291435003E-1,9.176716208E-1
1.089586789E0,7.386118770E-1,-6.656135321E-1,8.846849203E-1
1.094341373E0,6.677515507E-1,-5.788707137E-1,8.547525406E-1
1.099095956E0,5.920043588E-1,-4.786889255E-1,8.297070861E-1
1.103850539E0,5.174788237E-1,-3.693441153E-1,8.058833480E-1
1.108605123E0,4.502837062E-1,-2.587775886E-1,7.790052891E-1
1.113359706E0,3.898080885E-1,-1.573740393E-1,7.496837974E-1
1.118114237E0,3.391063213E-1,-7.612902671E-2,7.185297012E-1
1.122868821E0,2.987892330E-1,-2.664897591E-2,6.892082095E-1
1.127623404E0,2.713003159E-1,-4.046979360E-3,6.629409790E-1
1.132377987E0,2.609156072E-1,-3.436114406E-3,6.378955245E-1
1.137132571E0,2.664133906E-1,-1.382081583E-2,6.140718460E-1
1.141887154E0,2.847393453E-1,-3.642281145E-2,5.926915407E-1
1.146641737E0,3.091739416E-1,-6.696604937E-2,5.743656158E-1
1.151396321E0,3.360520005E-1,-1.054505333E-1,5.603157282E-1
1.156150904E0,3.586539924E-1,-1.408806890E-1,5.450441241E-1
1.160905487E0,3.782016635E-1,-1.683696061E-1,5.303833485E-1
1.165660071E0,3.928624094E-1,-1.836412251E-1,5.157225728E-1
1.170414602E0,4.093557596E-1,-1.842520833E-1,5.059487820E-1
1.175169185E0,4.276817143E-1,-1.714239269E-1,5.022835732E-1
1.179923768E0,4.527271688E-1,-1.543197185E-1,5.071704984E-1
1.184678352E0,4.881573021E-1,-1.414915472E-1,5.187768936E-1
1.189432935E0,5.303069949E-1,-1.372154951E-1,5.395463109E-1
1.194187518E0,5.858956575E-1,-1.408806890E-1,5.694786906E-1
1.198942102E0,6.482039094E-1,-1.524871141E-1,6.079631448E-1
1.203696685E0,7.160098553E-1,-1.793651730E-1,6.507236958E-1
1.208451268E0,7.893136740E-1,-2.221257091E-1,6.947059631E-1
1.213205800E0,8.681151867E-1,-2.777144015E-1,7.338013053E-1
1.217960383E0,9.456950426E-1,-3.388008773E-1,7.661771774E-1
1.222714966E0,1.015944481E0,-3.998873532E-1,7.887791395E-1
1.227469550E0,1.080085278E0,-4.609738290E-1,8.016073108E-1
1.232224133E0,1.133841395E0,-5.165625215E-1,8.046616316E-1
1.236978716E0,1.175991058E0,-5.611556768E-1,8.003855944E-1
1.241733300E0,1.206534266E0,-5.941423774E-1,7.948877811E-1
1.246487883E0,1.223027706E0,-6.124683022E-1,7.893900275E-1
1.251242414E0,1.222416759E0,-6.326268315E-1,7.906117439E-1
1.255996998E0,1.218751550E0,-6.307942271E-1,7.924443483E-1
1.260751581E0,1.213864684E0,-5.886445642E-1,7.948877811E-1
1.265506164E0,1.201647401E0,-5.544361472E-1,7.912226319E-1
1.270260748E0,1.181488872E0,-5.495492220E-1,7.814487815E-1
1.275015331E0,1.164995551E0,-5.581013560E-1,7.661771774E-1
1.279769914E0,1.153999925E0,-5.721512437E-1,7.509055138E-1
1.284524446E0,1.147891283E0,-5.929206014E-1,7.368556261E-1
1.289279029E0,1.145447850E0,-6.033053398E-1,7.191405892E-1
1.294033612E0,1.143004417E0,-6.063596606E-1,6.995928884E-1
1.298788196E0,1.129565358E0,-6.216312647E-1,6.843212843E-1
1.303542779E0,1.115515471E0,-6.478984356E-1,6.800451875E-1
1.308297362E0,1.107574224E0,-6.747764945E-1,6.910407543E-1
1.313051946E0,1.106963396E0,-7.114284039E-1,7.166970968E-1
1.317806477E0,1.111239433E0,-7.688496709E-1,7.484620810E-1
1.322561060E0,1.120402336E0,-8.507055640E-1,7.814487815E-1
1.327315643E0,1.133841395E0,-9.521090984E-1,8.132137656E-1
1.332070227E0,1.150945544E0,-1.066340804E0,8.455895782E-1
1.336824810E0,1.153389096E0,-1.203785419E0,9.091194868E-1
1.341579393E0,1.116737127E0,-1.369940639E0,9.976949096E-1
1.346333977E0,1.068478823E0,-1.542815328E0,1.070387840E0
1.351088508E0,1.033048749E0,-1.672318697E0,1.125365615E0
1.355843091E0,1.023274899E0,-1.743789911E0,1.148578525E0
1.360597675E0,1.048320293E0,-1.741957307E0,1.133917689E0
1.365352258E0,1.086193919E0,-1.704083681E0,1.099709272E0
1.370106841E0,1.118569732E0,-1.660712242E0,1.070387840E0
1.374861425E0,1.161941171E0,-1.608788729E0,1.038622856E0
1.379615956E0,1.208977699E0,-1.571526051E0,1.007468700E0
1.384370539E0,1.250516534E0,-1.553200006E0,9.891427755E-1
1.389125123E0,1.267009854E0,-1.548923969E0,1.018464327E0
1.393879706E0,1.299385786E0,-1.477452874E0,1.028849006E0
1.398634289E0,1.356806993E0,-1.363831997E0,1.014799118E0
1.403388873E0,1.416671753E0,-1.258152366E0,9.934188724E-1
1.408143456E0,1.469206095E0,-1.190957189E0,9.848667383E-1
1.412897987E0,1.533957839E0,-1.103603601E0,9.683734179E-1
1.417652571E0,1.609705091E0,-1.013195634E0,9.616538882E-1
1.422407154E0,1.636583090E0,-9.215658903E-1,9.714277387E-1
1.427161737E0,1.370246053E0,-5.391645432E-1,8.852958083E-1
1.431916321E0,9.860121012E-1,-1.640935540E-1,8.058833480E-1
1.436670852E0,8.858302832E-1,-2.111301422E-1,9.531017542E-1
1.441425435E0,8.992693424E-1,-4.353175163E-1,1.122311354E0
1.446180018E0,8.962149620E-1,-5.953640938E-1,1.181565166E0
1.450934602E0,8.607848287E-1,-6.014727354E-1,1.113148332E0
1.455689185E0,8.675043583E-1,-5.770381689E-1,1.030681610E0
1.460443768E0,8.962149620E-1,-5.159516931E-1,9.640973210E-1
1.465198300E0,9.426407218E-1,-5.202277303E-1,9.347758293E-1
1.469952883E0,1.014111876E0,-6.112465858E-1,9.359975457E-1
1.474707466E0,1.084972262E0,-7.126501203E-1,9.341649413E-1
1.479462050E0,1.127732754E0,-8.006146550E-1,9.335541129E-1
1.484216633E0,1.179656267E0,-8.342122436E-1,9.097303748E-1
1.488971216E0,1.256014347E0,-8.409317136E-1,8.718567491E-1
1.493725748E0,1.347644091E0,-8.470403552E-1,8.376483321E-1
1.498480331E0,1.438052058E0,-8.610902429E-1,8.181006312E-1
1.503234914E0,1.519297123E0,-8.940769434E-1,8.138245940E-1
1.507989498E0,1.587103009E0,-9.405027032E-1,8.150463104E-1
1.512744081E0,1.648189545E0,-9.991456866E-1,8.144354820E-1
1.517498612E0,1.695837021E0,-1.052290916E0,8.071050644E-1
1.522253196E0,1.736154079E0,-1.094440579E0,7.918334603E-1
1.527007779E0,1.780136347E0,-1.137812018E0,7.777835727E-1
1.531762362E0,1.818620801E0,-1.175074816E0,7.576250434E-1
1.536516946E0,1.836946726E0,-1.179350853E0,7.197514176E-1
1.541271477E0,1.836946726E0,-1.123762131E0,6.812669635E-1
1.546026060E0,1.829616427E0,-1.030299783E0,6.501128674E-1
1.550780643E0,1.791742802E0,-9.514982700E-1,6.140718460E-1
1.555535227E0,1.728823662E0,-8.800270557E-1,5.658134818E-1
1.560289810E0,1.664682865E0,-7.987820506E-1,5.236638188E-1
1.565044393E0,1.622533202E0,-7.108175159E-1,5.059487820E-1
1.569798925E0,1.604207277E0,-6.143009067E-1,4.998401105E-1
1.574553508E0,1.598709464E0,-5.116755962E-1,4.931205809E-1
1.579308091E0,1.588324785E0,-4.292088747E-1,4.772381186E-1
1.584062675E0,1.562668443E0,-3.687332571E-1,4.485274553E-1
1.588817206E0,1.528460026E0,-3.113119602E-1,4.167625010E-1
1.593571789E0,1.490586400E0,-2.490037531E-1,3.898844421E-1
1.598326373E0,1.448436737E0,-1.824194938E-1,3.727802336E-1
1.603080956E0,1.402011037E0,-1.243873388E-1,3.623955250E-1
1.607835539E0,1.348865747E0,-7.979421318E-2,3.575085998E-1
1.612590071E0,1.293277144E0,-4.497491941E-2,3.581194878E-1
1.617344654E0,1.243797064E0,-2.420551702E-2,3.654498458E-1
1.622099237E0,1.204701662E0,-1.992946304E-2,3.856084049E-1
1.626853821E0,1.179656267E0,-3.397935256E-2,4.155407548E-1
1.631608404E0,1.168660641E0,-6.574432552E-2,4.515817761E-1
1.636362935E0,1.168660641E0,-1.091157198E-1,4.955640435E-1
1.641117518E0,1.175380230E0,-1.647044122E-1,5.419898033E-1
1.645872102E0,1.187597513E0,-2.294560820E-1,5.908589363E-1
1.650626685E0,1.210199475E0,-3.021489978E-1,6.464476585E-1
1.655381216E0,1.237688422E0,-3.742310405E-1,7.081450224E-1
1.660135800E0,1.268842459E0,-4.444804788E-1,7.753401399E-1
1.664890383E0,1.298164010E0,-5.049561262E-1,8.419243693E-1
1.669644966E0,1.318933368E0,-5.574904680E-1,9.085086584E-1
1.674399498E0,1.341535449E0,-6.191878319E-1,9.708168507E-1
1.679154081E0,1.368413448E0,-7.236456871E-1,1.059392214E0
1.683908664E0,1.409952283E0,-8.531489968E-1,1.147356749E0
1.688663248E0,1.472260475E0,-9.618829489E-1,1.167515278E0
1.693417831E0,1.527238250E0,-1.055956125E0,1.180954337E0
1.698172362E0,1.565111876E0,-1.127427340E0,1.201112866E0
1.702926946E0,1.596876860E0,-1.150640130E0,1.189506412E0
1.707681529E0,1.620700598E0,-1.145753264E0,1.157130599E0
1.712436112E0,1.633528829E0,-1.141477227E0,1.118035316E0
1.717190643E0,1.623754978E0,-1.133535981E0,1.072831273E0
1.721945227E0,1.551061988E0,-1.135368586E0,1.030681610E0
1.726699810E0,1.411173940E0,-1.114599109E0,1.019685984E0
1.731454393E0,1.207756042E0,-1.085277677E0,1.028238177E0
1.736208925E0,9.359211922E-1,-1.043128014E0,1.030070782E0
1.740963508E0,6.170498133E-1,-9.783763289E-1,1.025183797E0
1.745718091E0,2.890154123E-1,-8.604794145E-1,1.024572968E0
1.750472675E0,6.872228696E-4,-6.784417033E-1,1.036179423E0
1.755227206E0,-2.289979309E-1,-4.628064334E-1,1.045953274E0
1.759981789E0,-4.000400603E-1,-2.441168427E-1,1.049007535E0
1.764736373E0,-5.154935122E-1,-4.497491941E-2,1.045342326E0
1.769490956E0,-5.814669132E-1,1.327867359E-1,1.039844513E0
1.774245539E0,-6.022363305E-1,2.940550447E-1,1.038622856E0
1.779000071E0,-5.826886296E-1,4.388299882E-1,1.038012028E0
1.783754654E0,-5.252673626E-1,5.603920817E-1,1.030681610E0
1.788509237E0,-4.519635737E-1,6.007091403E-1,1.046564102E0
1.793263768E0,-4.049269855E-1,5.304597020E-1,1.116813540E0
1.798018352E0,-3.780489266E-1,4.241692424E-1,1.232877851E0
1.802772935E0,-3.493382931E-1,3.319286406E-1,1.364824653E0
1.807527518E0,-3.206276596E-1,2.580140233E-1,1.499825716E0
1.812282102E0,-2.821431756E-1,2.170860767E-1,1.619555235E0
1.817036633E0,-2.393826395E-1,1.828776449E-1,1.717904449E0
1.821791216E0,-1.899025887E-1,1.303432733E-1,1.802814722E0
1.826545800E0,-1.214857325E-1,8.147408813E-2,1.882838011E0
1.831300383E0,-4.207331315E-2,1.427896414E-2,1.969580770E0
1.836054914E0,2.939786762E-2,-7.796161622E-2,2.067319155E0
1.840809498E0,8.376483619E-2,-1.976911128E-1,2.170555353E0
1.845564081E0,1.112537459E-1,-3.497964442E-1,2.282954454E0
1.850318664E0,1.210275814E-1,-4.939605296E-1,2.402683973E0
1.855073196E0,1.344666034E-1,-6.069704890E-1,2.501033068E0
1.859827779E0,1.424078494E-1,-6.827177405E-1,2.565173864E0
1.864582362E0,1.491273642E-1,-6.869937778E-1,2.616486549E0
1.869336893E0,1.454621702E-1,-6.405680776E-1,2.654360294E0
1.874091477E0,1.540142894E-1,-5.458840132E-1,2.647029877E0
1.878846060E0,1.808923334E-1,-4.334849119E-1,2.594495535E0
1.883600643E0,2.102138400E-1,-3.186423481E-1,2.540128469E0
1.888355175E0,2.187659442E-1,-2.013563067E-1,2.501643896E0
1.893109758E0,1.992182732E-1,-9.750928730E-2,2.482707262E0
1.897864341E0,1.607337892E-1,-6.490438245E-3,2.479042053E0
1.902618925E0,1.185841262E-1,9.185878932E-2,2.507141829E0
1.907373456E0,6.604975462E-2,1.908188909E-1,2.537074089E0
1.912128039E0,9.850194678E-3,3.074940443E-1,2.531576395E0
1.916882623E0,-5.551233515E-2,4.058432877E-1,2.507141829E0
1.921637206E0,-1.245400533E-1,5.017490387E-1,2.463159561E0
1.926391737E0,-1.911243200E-1,6.776781082E-1,2.390466690E0
1.931146321E0,-2.632063627E-1,8.175661564E-1,2.296393394E0
1.935900904E0,-3.230711222E-1,8.371137977E-1,2.205374479E0
1.940655435E0,-3.597230017E-1,8.139009476E-1,2.116188288E0
1.945410018E0,-3.792706728E-1,7.967967391E-1,2.022726059E0
1.950164602E0,-3.878227770E-1,7.851903439E-1,1.920711637E0
1.954919185E0,-3.798815310E-1,7.460949421E-1,1.807701588E0
1.959673716E0,-3.462839723E-1,6.831759214E-1,1.675754786E0
1.964428300E0,-2.864192128E-1,6.117047071E-1,1.536477685E0
1.969182883E0,-2.106719911E-1,5.371792316E-1,1.394757032E0
1.973937414E0,-1.318704337E-1,4.626537263E-1,1.266475439E0
1.978691998E0,-5.429060757E-2,3.954585791E-1,1.158352375E0
1.983446581E0,7.406735327E-3,3.398698866E-1,1.072220445E0
1.988201164E0,5.383246019E-2,3.050506115E-1,1.014188290E0
1.992955696E0,4.039343446E-2,1.840993762E-1,1.009301305E0
1.997710279E0,-5.245801434E-2,-5.535962060E-2,1.060003161E0
2.002464862E0,-1.556941569E-1,-2.587775886E-1,1.076496482E0
2.007219446E0,-2.442695498E-1,-4.395935535E-1,1.043509722E0
2.011973977E0,-3.273471594E-1,-6.234638691E-1,9.799798131E-1
2.016728560E0,-3.988183439E-1,-7.609084249E-1,9.140064120E-1
2.021483143E0,-4.519635737E-1,-8.000037670E-1,8.694133162E-1
2.026237675E0,-4.910589159E-1,-7.682388425E-1,8.553634286E-1
2.030992258E0,-5.423715711E-1,-6.650026441E-1,8.474221826E-1
2.035746841E0,-6.254491806E-1,-5.122864842E-1,8.071050644E-1
2.040501373E0,-7.109702229E-1,-4.340957701E-1,8.016073108E-1
2.045255956E0,-7.861065865E-1,-4.854084253E-1,8.516982198E-1
2.050010539E0,-8.655190468E-1,-6.173552275E-1,9.543235302E-1
2.054765071E0,-9.492074847E-1,-7.877864838E-1,1.097265840E0
2.059519654E0,-1.005407095E0,-1.063897371E0,1.271362305E0
2.064274237E0,-1.057330608E0,-1.342451692E0,1.476001978E0
2.069028821E0,-1.103145480E0,-1.588019371E0,1.683085203E0
2.073783352E0,-1.138575554E0,-1.779830933E0,1.879172802E0
2.078537935E0,-1.161177635E0,-1.914831996E0,2.064264774E0
2.083292518E0,-1.166064501E0,-1.983248830E0,2.231030941E0
2.088047050E0,-1.145905972E0,-1.848858595E0,2.373362303E0
2.092801633E0,-1.099480271E0,-1.398040414E0,2.483318090E0
2.097556216E0,-1.018235207E0,-7.804561257E-1,2.540739298E0
2.102310748E0,-8.997274637E-1,-1.298851222E-1,2.549902201E0
2.107065331E0,-7.470112443E-1,4.858665764E-1,2.525467634E0
2.111819914E0,-5.551997423E-1,1.019151568E0,2.486983299E0
2.116574498E0,-3.413970470E-1,1.443091631E0,2.446666241E0
2.121329029E0,-1.269835234E-1,1.724700332E0,2.423453331E0
2.126083612E0,6.482802331E-2,1.870086193E0,2.430172920E0
2.130838196E0,2.181550860E-1,1.926285744E0,2.464992046E0
2.135592727E0,3.287216127E-1,1.941557288E0,2.524856806E0
2.140347310E0,3.910298049E-1,1.920787930E0,2.603047609E0
2.145101893E0,4.215730429E-1,1.766849995E0,2.672686100E0
2.149856425E0,4.179078639E-1,1.474856615E0,2.731329203E0
2.154611008E0,3.788125217E-1,1.122387648E0,2.771646261E0
2.159365591E0,3.220020831E-1,7.680860758E-1,2.784474373E0
2.164120175E0,2.609156072E-1,4.351648092E-1,2.769202709E0
2.168874706E0,2.138790339E-1,1.358410567E-1,2.733772516E0
2.173629289E0,1.766162813E-1,-1.115591824E-1,2.694066286E0
2.178383873E0,1.546251476E-1,-3.003163934E-1,2.672075272E0
2.183138404E0,1.448513120E-1,-4.322631955E-1,2.688568592E0
2.187892987E0,1.466839015E-1,-5.196168423E-1,2.748433352E0
2.192647571E0,1.619555205E-1,-5.752055645E-1,2.843117476E0
2.197402102E0,1.967748106E-1,-6.210203767E-1,2.941466570E0
2.202156685E0,2.377027571E-1,-7.022654414E-1,2.920697212E0
2.206911268E0,2.132681608E-1,-8.904117942E-1,2.566395760E0
2.211665800E0,1.540142894E-1,-1.092607975E0,2.086866856E0
2.216420383E0,1.149189398E-1,-1.244713306E0,1.667813540E0
2.221174966E0,7.582359016E-2,-1.429194450E0,1.288466573E0
2.225929498E0,6.421715766E-2,-1.627725601E0,1.056337953E0
2.230684081E0,9.842558950E-2,-1.797546029E0,1.012355685E0
2.235438664E0,1.778380126E-1,-1.889786601E0,1.107039690E0
2.240193196E0,2.719111741E-1,-1.884899616E0,1.282357931E0
2.244947779E0,3.672060966E-1,-1.777998328E0,1.501658320E0
2.249702362E0,4.618901312E-1,-1.576412916E0,1.744782567E0
2.254456893E0,5.632936954E-1,-1.305799842E0,2.019671679E0
2.259211477E0,6.763036847E-1,-1.007086992E0,2.323882341E0
2.263966060E0,8.058069944E-1,-7.169261575E-1,2.654360294E0
2.268720643E0,9.493602514E-1,-4.683042169E-1,3.006218195E0
2.273475175E0,1.091080904E0,-2.209039778E-1,3.346469879E0
2.278229758E0,1.211421251E0,2.771798894E-2,3.639685154E0
2.282984289E0,1.293887973E0,2.574031353E-1,3.884031057E0
2.287738873E0,1.347644091E0,4.577668011E-1,4.085616589E0
2.292493456E0,1.382463336E0,6.098721027E-1,4.267653942E0
2.297248039E0,1.401400208E0,7.045561671E-1,4.448470116E0
2.302002571E0,1.395902395E0,7.961859107E-1,4.610960007E0
2.306757154E0,1.351309299E0,9.391282201E-1,4.690983295E0
2.311511685E0,1.267620802E0,1.100396514E0,4.698924541E0
2.316266268E0,1.155221701E0,1.245171547E0,4.675100803E0
2.321020852E0,1.022663951E0,1.366122723E0,4.642724991E0
2.325775435E0,8.668934703E-1,1.429652691E0,4.588968754E0
2.330529966E0,6.964622140E-1,1.451032877E0,4.515665054E0
2.335284550E0,5.254200697E-1,1.429041743E0,4.431976795E0
2.340039133E0,3.629300296E-1,1.344131589E0,4.318966866E0
2.344793664E0,2.059377879E-1,1.177976370E0,4.150979042E0
2.349548248E0,5.566505343E-2,9.537889957E-1,3.907243729E0
2.354302779E0,-9.094249457E-2,6.990583539E-1,3.585318089E0
2.359057362E0,-2.204458266E-1,4.082867503E-1,3.149160624E0
2.363811946E0,-2.955822051E-1,7.658717036E-2,2.557843447E0
2.368566477E0,-3.200167716E-1,-3.082576394E-1,1.818086267E0
2.373321060E0,-3.157407343E-1,-7.926734090E-1,1.028849006E0
2.378075643E0,-3.071886301E-1,-1.442022681E0,2.634354234E-1
2.382830175E0,-3.053560257E-1,-2.157956123E0,-4.415025115E-1
2.387584758E0,-3.145190179E-1,-2.812803268E0,-1.104290843E0
2.392339341E0,-3.548360765E-1,-3.294164658E0,-1.686444998E0
2.397093873E0,-4.336376488E-1,-3.461541653E0,-2.079231024E0
2.401848456E0,-5.784125924E-1,-3.381518364E0,-2.233779669E0
2.406603039E0,-7.244092822E-1,-3.189095974E0,-2.187354088E0
2.411357571E0,-8.429170251E-1,-2.930089235E0,-1.997375131E0
2.416112154E0,-8.966731429E-1,-2.642371893E0,-1.735314131E0
2.420866737E0,-8.630755544E-1,-2.301509380E0,-1.448207617E0
2.425621268E0,-7.347939610E-1,-1.877569199E0,-1.167209864E0
2.430375852E0,-5.283216834E-1,-1.359555960E0,-9.069814682E-1
2.435130435E0,-2.998582423E-1,-7.657953501E-1,-6.815723777E-1
2.439884966E0,-8.972076327E-2,-1.402698308E-1,-4.915934205E-1
2.444639550E0,7.643445581E-2,4.931969643E-1,-3.291034102E-1
2.449394133E0,1.857792437E-1,1.097342253E0,-1.947131455E-1
2.454148664E0,2.529743910E-1,1.625129342E0,-8.964440972E-2
2.458903248E0,2.939023077E-1,2.040517330E0,-1.756236330E-2
2.463657779E0,3.238346875E-1,2.298302412E0,2.397644334E-2
2.468412362E0,3.427715003E-1,2.370995283E0,3.802633286E-2
2.473166946E0,3.598757088E-1,2.240880966E0,3.008509055E-2
2.477921477E0,3.672060966E-1,1.966602802E0,3.207040019E-3
2.482676060E0,3.470475674E-1,1.639179230E0,-3.955349326E-2
2.487430643E0,2.945131958E-1,1.325805664E0,-9.269873053E-2
2.492185175E0,2.279289216E-1,1.047251344E0,-1.434005052E-1
2.496939758E0,1.308014244E-1,7.833577394E-1,-1.317940801E-1
2.501694341E0,3.733910993E-2,4.852557182E-1,-1.159115955E-1
2.506448873E0,-3.901898861E-2,1.798233241E-1,-1.379027218E-1
2.511203456E0,-1.080467105E-1,-1.121700481E-1,-2.002109289E-1
2.515957987E0,-1.434768587E-1,-4.224893451E-1,-3.315468729E-1
2.520712571E0,-1.043815166E-1,-7.444151044E-1,-5.245801210E-1
2.525467154E0,1.534797717E-2,-1.054123521E0,-7.102830410E-1
2.530221685E0,1.613446623E-1,-1.372384071E0,-8.739947677E-1
2.534976268E0,3.244455457E-1,-1.724853039E0,-1.024878383E0
2.539730852E0,4.942659736E-1,-1.994244456E0,-1.139110088E0
2.544485383E0,6.256018877E-1,-2.142684460E0,-1.178205490E0
2.549239966E0,7.428879142E-1,-2.223318815E0,-1.167209864E0
2.553994550E0,8.290198445E-1,-2.209879637E0,-1.146440506E0
2.558749081E0,8.668934703E-1,-2.115195751E0,-1.104901671E0
2.563503664E0,8.632283211E-1,-1.956370831E0,-1.047480345E0
2.568258196E0,8.400154114E-1,-1.736459494E0,-9.851721525E-1
2.573012779E0,8.033635616E-1,-1.477452874E0,-9.118683934E-1
2.577767362E0,7.636573315E-1,-1.193400741E0,-8.336777091E-1
2.582521893E0,7.239511013E-1,-8.849139810E-1,-7.530435324E-1
2.587276477E0,6.732493639E-1,-5.532144308E-1,-6.742420197E-1
2.592031060E0,6.005564332E-1,-2.105192691E-1,-6.021599770E-1
2.596785591E0,5.089266896E-1,1.407279670E-1,-5.496255755E-1
2.601540175E0,4.087449014E-1,4.968621433E-1,-5.141954422E-1
2.606294706E0,3.403280377E-1,8.242856860E-1,-5.117519498E-1
2.611049289E0,3.189477623E-1,1.110170364E0,-5.404626131E-1
2.615803873E0,3.195586503E-1,1.334968567E0,-5.801688433E-1
2.620558404E0,3.323867917E-1,1.483408809E0,-6.272054315E-1
2.625312987E0,3.452149630E-1,1.549993038E0,-6.577486396E-1
2.630067571E0,3.446041048E-1,1.582979679E0,-6.834049821E-1
2.634822102E0,3.158934414E-1,1.578092813E0,-7.157807946E-1
2.639576685E0,2.969566286E-1,1.532888770E0,-7.909171581E-1
2.644331216E0,2.847393453E-1,1.458974123E0,-8.947641850E-1
2.649085800E0,2.670242786E-1,1.319086075E0,-9.808961153E-1
2.653840383E0,2.456440032E-1,1.085735798E0,-1.026710987E0
2.658594914E0,2.230419964E-1,8.377246857E-1,-1.046869516E0
2.663349498E0,1.888335794E-1,6.611847878E-1,-1.046258688E0
2.668104029E0,1.338557452E-1,5.451204777E-1,-1.012661099E0
2.672858612E0,6.299543381E-2,4.467712343E-1,-9.601266980E-1
2.677613196E0,-2.680169232E-2,3.588066995E-1,-8.953750730E-1
2.682367727E0,-1.361464858E-1,2.873355150E-1,-8.202387094E-1
2.687122310E0,-2.595411837E-1,2.384663373E-1,-7.457131743E-1
2.691876893E0,-3.811032772E-1,2.189186662E-1,-6.717985272E-1
2.696631425E0,-4.825068116E-1,2.464075834E-1,-6.046034098E-1
2.701386008E0,-5.649735332E-1,3.001636863E-1,-5.453495383E-1
2.706140539E0,-6.223948598E-1,3.789652288E-1,-5.013672709E-1
2.710895123E0,-6.517163515E-1,4.956403971E-1,-4.696022868E-1
2.715649706E0,-6.523272395E-1,6.398044825E-1,-4.439459741E-1
2.720404237E0,-6.285035014E-1,7.809142470E-1,-4.225656986E-1
2.725158821E0,-5.784125924E-1,8.969785571E-1,-4.011854529E-1
2.729913352E0,-5.075522661E-1,9.800561666E-1,-3.767508566E-1
2.734667935E0,-4.183660150E-1,1.011821151E0,-3.437641561E-1
2.739422518E0,-3.132972717E-1,9.849430919E-1,-3.016144931E-1
2.744177050E0,-2.039524764E-1,9.006437659E-1,-2.454149276E-1
2.748931633E0,-9.155336022E-2,7.595340014E-1,-1.763872057E-1
2.753686164E0,1.840230078E-2,5.677224398E-1,-9.514218569E-2
2.758440748E0,1.204167232E-1,3.325395286E-1,-2.901607659E-3
2.763195331E0,2.077703774E-1,8.086322248E-2,9.361502528E-2
2.767949862E0,2.774089575E-1,-1.476002038E-1,1.766926348E-1
2.772704446E0,3.360520005E-1,-3.229183853E-1,2.371682525E-1
2.777458977E0,3.794233799E-1,-4.365392327E-1,2.787070572E-1
2.782213560E0,4.130209386E-1,-4.927388132E-1,3.055851161E-1
2.786968143E0,4.374555349E-1,-5.037343502E-1,3.220784664E-1
2.791722675E0,4.557814896E-1,-4.738020003E-1,3.306305707E-1
2.796477258E0,4.649444520E-1,-4.157698452E-1,3.385718167E-1
2.801231789E0,4.704422355E-1,-3.339139521E-1,3.440696001E-1
2.805986373E0,4.741074145E-1,-2.404516488E-1,3.489564955E-1
2.810740956E0,4.728856981E-1,-1.414915472E-1,3.501782417E-1
2.815495487E0,4.728856981E-1,-4.436405376E-2,3.495673835E-1
2.820250071E0,4.710530937E-1,4.665479809E-2,3.471239209E-1
2.825004654E0,4.679987729E-1,1.272889525E-1,3.471239209E-1
2.829759185E0,4.643335938E-1,1.944840699E-1,3.477347791E-1
2.834513768E0,4.594466686E-1,2.427423894E-1,3.471239209E-1
2.839268300E0,4.545597434E-1,2.793942690E-1,3.471239209E-1
2.844022883E0,4.490619600E-1,3.038288653E-1,3.446804583E-1
2.848777414E0,4.429533184E-1,3.245982826E-1,3.471239209E-1
2.853531998E0,4.325686097E-1,3.435350657E-1,3.495673835E-1
2.858286581E0,4.221839309E-1,3.624718785E-1,3.544542789E-1
2.863041112E0,4.093557596E-1,3.875173330E-1,3.575085998E-1
2.867795696E0,3.910298049E-1,4.119519293E-1,3.611738086E-1
2.872550227E0,3.720930219E-1,4.290561378E-1,3.654498458E-1
2.877304810E0,3.439932168E-1,4.333322048E-1,3.709476292E-1
2.882059393E0,3.103956580E-1,4.284452796E-1,3.746128380E-1
2.886813925E0,2.688568532E-1,4.082867503E-1,3.758345544E-1
2.891568508E0,2.254854590E-1,3.630827665E-1,3.752236962E-1
2.896323039E0,1.815031916E-1,3.007745445E-1,3.697259128E-1
2.901077623E0,1.393535286E-1,2.213621289E-1,3.605629504E-1
2.905832206E0,9.842558950E-2,1.364519149E-1,3.465130329E-1
2.910586737E0,6.177370250E-2,5.765036494E-2,3.251327872E-1
2.915341321E0,2.695440874E-2,-1.076649129E-2,3.006981909E-1
2.920095852E0,-1.145371469E-3,-6.146826968E-2,2.762635946E-1
2.924850435E0,-2.619082667E-2,-9.628756344E-2,2.524398565E-1
2.929605018E0,-4.451677203E-2,-1.152243689E-1,2.310595959E-1
2.934359550E0,-5.856665969E-2,-1.243873388E-1,2.127336562E-1
2.939114133E0,-6.834049523E-2,-1.274416596E-1,1.944077164E-1
2.943868664E0,-7.261654735E-2,-1.256090701E-1,1.779143661E-1
2.948623248E0,-6.956222653E-2,-1.207221523E-1,1.626427472E-1
2.953377779E0,-6.345357746E-2,-1.182786897E-1,1.455385387E-1
2.958132362E0,-5.062541738E-2,-1.182786897E-1,1.302669197E-1
2.962886893E0,-3.352120519E-2,-1.176678315E-1,1.180496216E-1
2.967641477E0,-1.214093715E-2,-1.121700481E-1,1.064431891E-1
2.972396060E0,1.412624773E-2,-1.054505333E-1,9.483675659E-2
2.977150591E0,4.894553870E-2,-9.506583214E-2,8.628465235E-2
2.981905175E0,9.048434347E-2,-7.796161622E-2,8.139773458E-2
2.986659706E0,1.375209391E-1,-4.741837829E-2,8.017600328E-2
2.991414289E0,1.931096315E-1,-6.490438245E-3,8.384118974E-2
2.996168821E0,2.548069656E-1,4.604393244E-2,8.994983882E-2
3.000923404E0,3.213912249E-1,1.077412739E-1,1.039997265E-1
3.005677987E0,3.898080885E-1,1.767689884E-1,1.235474050E-1
3.010432518E0,4.594466686E-1,2.464075834E-1,1.504254490E-1
3.015187102E0,5.266417861E-1,3.068831861E-1,1.797469556E-1
3.019941633E0,5.889499784E-1,3.520871997E-1,2.054032832E-1
3.024696216E0,6.433169842E-1,3.924042583E-1,2.237292230E-1
3.029450800E0,6.879100800E-1,4.327213466E-1,2.359465212E-1
3.034205331E0,7.245619893E-1,4.718166888E-1,2.408334464E-1
3.038959914E0,7.508291602E-1,5.060251355E-1,2.420551628E-1
3.043714446E0,7.691551447E-1,5.335140228E-1,2.444986254E-1
3.048469029E0,7.777072191E-1,5.548942685E-1,2.487746775E-1
3.053223560E0,7.758746147E-1,5.726093650E-1,2.573267817E-1
3.057978143E0,7.667116523E-1,5.866592526E-1,2.725984156E-1
3.062732727E0,7.502183318E-1,5.927678943E-1,2.927569449E-1
3.067487258E0,7.263945937E-1,5.964331031E-1,3.171915412E-1
3.072241841E0,6.934078932E-1,5.976548195E-1,3.452913165E-1
3.076996373E0,6.537016630E-1,6.000983119E-1,3.825540543E-1
3.081750956E0,6.084976792E-1,6.062069535E-1,4.283689260E-1
3.086505487E0,5.577958822E-1,6.117047071E-1,4.833467603E-1
3.091260071E0,5.058723688E-1,6.098721027E-1,5.456549525E-1
3.096014602E0,4.527271688E-1,6.007091403E-1,6.152935624E-1
3.100769185E0,4.026362598E-1,5.817723274E-1,6.873756051E-1
3.105523768E0,3.574322462E-1,5.536725521E-1,7.551816106E-1
3.110278300E0,3.220020831E-1,5.231293440E-1,8.126028776E-1
3.115032883E0,2.957349122E-1,4.931969643E-1,8.614720702E-1
3.119787414E0,2.798524201E-1,4.650971591E-1,9.005674124E-1
3.124541998E0,2.700785995E-1,4.400517046E-1,9.347758293E-1
3.129296529E0,2.645808160E-1,4.119519293E-1,9.659299254E-1
3.134051112E0,2.627482116E-1,3.844630122E-1,9.946405888E-1
3.138805643E0,2.621373534E-1,3.649153411E-1,1.020296931E0
3.143560227E0,2.627482116E-1,3.563632369E-1,1.038012028E0
3.148314810E0,2.645808160E-1,3.606393039E-1,1.049618363E0
3.153069341E0,2.670242786E-1,3.771326542E-1,1.052672744E0
3.157823925E0,2.682459950E-1,4.027889669E-1,1.045953274E0
3.162578456E0,2.658025324E-1,4.437169135E-1,1.032514215E0
3.167333039E0,2.584721744E-1,5.029708147E-1,1.012355685E0
3.172087571E0,2.462548614E-1,5.836049318E-1,9.885319471E-1
3.176842154E0,2.291506529E-1,6.862302423E-1,9.604321718E-1
3.181596737E0,2.083812505E-1,8.010727763E-1,9.262236953E-1
3.186351268E0,1.882227063E-1,9.128610492E-1,8.816305995E-1
3.191105852E0,1.680641770E-1,1.007545114E0,8.278744817E-1
3.195860383E0,1.521816850E-1,1.072907686E0,7.661771774E-1
3.200614966E0,1.387426704E-1,1.102839947E0,6.959276795E-1
3.205369498E0,1.283579618E-1,1.094898701E0,6.159043908E-1
3.210124081E0,1.216384470E-1,1.053359985E0,5.279398561E-1
3.214878612E0,1.130863428E-1,9.873865843E-1,4.387536347E-1
3.219633196E0,9.720385820E-2,9.061415195E-1,3.501782417E-1
3.224387779E0,6.604975462E-2,7.974076271E-1,2.744309902E-1
3.229142310E0,2.695440874E-2,7.063887715E-1,2.035706937E-1
3.233896893E0,-1.702785492E-2,6.495783329E-1,1.406516135E-1
3.238651425E0,-6.650790572E-2,6.123155951E-1,9.605848789E-2
3.243406008E0,-1.233183295E-1,5.793288946E-1,7.162389904E-2
3.248160539E0,-1.825722158E-1,5.408443809E-1,6.918043643E-2
3.252915123E0,-2.375500351E-1,5.121337771E-1,7.284562290E-2
3.257669654E0,-2.851974964E-1,4.693732262E-1,7.834340632E-2
3.262424237E0,-3.304014802E-1,3.979020417E-1,8.384118974E-2
3.267178768E0,-3.707185686E-1,2.958876193E-1,8.139773458E-2
3.271933352E0,-4.079813063E-1,1.645517051E-1,6.856957078E-2
3.276687935E0,-4.421897531E-1,3.321577236E-2,3.863719851E-2
3.281442466E0,-4.745655656E-1,-4.864010960E-2,-2.183841541E-2
3.286197050E0,-5.063305497E-1,-5.841394514E-2,-1.110246703E-1
3.290951581E0,-5.545888543E-1,-3.436114406E-3,-2.222020626E-1
3.295706164E0,-6.352230310E-1,8.330668509E-2,-3.529271185E-1
3.300460696E0,-7.518981695E-1,1.523344070E-1,-5.001455545E-1
3.305215279E0,-9.046143889E-1,1.682168841E-1,-6.644681692E-1
3.309969810E0,-1.084819436E0,1.211803034E-1,-8.403972387E-1
3.314724393E0,-1.279074430E0,1.305723470E-2,-1.024267554E0
3.319478925E0,-1.470275164E0,-1.347720474E-1,-1.206305265E0
3.324233508E0,-1.647426009E0,-3.033707142E-1,-1.384066820E0
3.328988091E0,-1.804418206E0,-4.780780375E-1,-1.552665591E0
3.333742623E0,-1.935143232E0,-6.344594359E-1,-1.706603527E0
3.338497206E0,-2.012723207E0,-7.712931633E-1,-1.839161158E0
3.343251737E0,-2.018220901E0,-9.209550023E-1,-1.935066938E0
3.348006321E0,-1.969351649E0,-1.102992773E0,-1.991266489E0
3.352760852E0,-1.900323987E0,-1.271591425E0,-2.017533541E0
3.357515435E0,-1.825798512E0,-1.374827504E0,-2.022420645E0
3.362269966E0,-1.745775223E0,-1.380936146E0,-2.013257504E0
3.367024550E0,-1.663308382E0,-1.246545911E0,-1.999207735E0
3.371779081E0,-1.590004683E0,-9.350048900E-1,-1.986990452E0
3.376533664E0,-1.528307319E0,-4.554760456E-1,-1.989433885E0
3.381288196E0,-1.480049014E0,1.272889525E-1,-2.014479399E0
3.386042779E0,-1.433623314E0,7.015018463E-1,-2.071289778E0
3.390797310E0,-1.376812816E0,1.143767953E0,-2.158032656E0
3.395551893E0,-1.304730773E0,1.391168118E0,-2.270431757E0
3.400306477E0,-1.222264051E0,1.446146011E0,-2.392604589E0
3.405061008E0,-1.145295143E0,1.346575022E0,-2.511112452E0
3.409815591E0,-1.086041212E0,1.146211386E0,-2.625344038E0
3.414570123E0,-1.050000191E0,8.927025199E-1,-2.731634617E0
3.419324706E0,-1.037782907E0,6.178133488E-1,-2.816544771E0
3.424079237E0,-1.055498004E0,3.533089161E-1,-2.880685568E0
3.428833821E0,-1.112919211E0,1.126281917E-1,-2.934441566E0
3.433588352E0,-1.212490201E0,-1.054505333E-1,-2.985754251E0
3.438342935E0,-1.343215346E0,-3.155880272E-1,-3.033401728E0
3.443097466E0,-1.480659842E0,-5.409971476E-1,-3.081049204E0
3.447852050E0,-1.593058944E0,-7.883973718E-1,-3.118922949E0
3.452606633E0,-1.654756308E0,-1.043128014E0,-3.144579172E0
3.457361164E0,-1.657810688E0,-1.266093612E0,-3.150076866E0
3.462115748E0,-1.602221966E0,-1.401094675E0,-3.138470411E0
3.466870279E0,-1.494709730E0,-1.431638002E0,-3.120144606E0
3.471624862E0,-1.362762928E0,-1.355279922E0,-3.099375248E0
3.476379393E0,-1.258305073E0,-1.148196697E0,-3.074940681E0
3.481133977E0,-1.199051261E0,-8.403208852E-1,-3.041342974E0
3.485888508E0,-1.177060127E0,-5.202277303E-1,-3.009577990E0
3.490643091E0,-1.202105522E0,-2.221257091E-1,-2.969871759E0
3.495397623E0,-1.261970282E0,-3.436114406E-3,-2.933219910E0
3.500152206E0,-1.351767421E0,1.278998107E-1,-2.905730963E0
3.504906737E0,-1.440953612E0,1.773798615E-1,-2.891070366E0
3.509661321E0,-1.504483581E0,1.786015928E-1,-2.896568060E0
3.514415852E0,-1.521587849E0,1.217911690E-1,-2.927722216E0
3.519170435E0,-1.481270790E0,-1.137735695E-2,-2.968650103E0
3.523924966E0,-1.361541271E0,-2.276234925E-1,-3.018130064E0
3.528679550E0,-1.188055634E0,-4.560869038E-1,-3.067610264E0
3.533434081E0,-1.004796147E0,-6.613374949E-1,-3.117701054E0
3.538188664E0,-8.392518759E-1,-8.500946760E-1,-3.165348530E0
3.542943196E0,-6.981421113E-1,-1.065729976E0,-3.201389551E0
3.547697779E0,-5.784125924E-1,-1.339397430E0,-3.219104767E0
3.552452362E0,-4.776198864E-1,-1.644829750E0,-3.195281029E0
3.557206893E0,-3.982074857E-1,-1.940488338E0,-3.126253128E0
3.561961477E0,-3.279580176E-1,-2.240422964E0,-3.013854027E0
3.566716008E0,-2.766453922E-1,-2.506149054E0,-2.856861830E0
3.571470591E0,-2.522107959E-1,-2.678412914E0,-2.651000500E0
3.576225123E0,-2.503781915E-1,-2.726060390E0,-2.393215418E0
3.580979706E0,-2.534325123E-1,-2.698571444E0,-2.095724344E0
3.585734237E0,-2.509890795E-1,-2.654589176E0,-1.770744324E0
3.590488821E0,-2.320522517E-1,-2.626489401E0,-1.432936072E0
3.595243352E0,-1.899025887E-1,-2.625267744E0,-1.095127821E0
3.599997935E0,-1.184314117E-1,-2.624656916E0,-7.603739500E-1
3.604752466E0,-2.802342176E-2,-2.603276730E0,-4.408916533E-1
3.609507050E0,7.032580674E-2,-2.548909664E0,-1.409570426E-1
3.614261581E0,1.760054082E-1,-2.470718861E0,1.388190240E-1
3.619016164E0,2.767980993E-1,-2.371148109E0,3.959930837E-1
3.623770696E0,3.720930219E-1,-2.253251076E0,6.342303753E-1
3.628525279E0,4.698313773E-1,-2.123136997E0,8.547525406E-1
3.633279810E0,5.681806207E-1,-1.975307584E0,1.055727005E0
3.638034393E0,6.610320210E-1,-1.808541536E0,1.243873358E0
3.642788925E0,7.483857274E-1,-1.622227788E0,1.414915562E0
3.647543508E0,8.351284862E-1,-1.427972794E0,1.569464326E0
3.652298039E0,9.279799461E-1,-1.220889568E0,1.710574150E0
3.657052623E0,1.016555309E0,-9.832631946E-1,1.839466572E0
3.661807154E0,1.103909016E0,-6.955459118E-1,1.960417747E0
3.666561737E0,1.191262722E0,-3.522399068E-1,2.073427677E0
3.671316268E0,1.270675063E0,3.993528336E-2,2.187659502E0
3.676070852E0,1.326263785E0,4.602102637E-1,2.303723812E0
3.680825383E0,1.344589710E0,8.951459527E-1,2.432005405E0
3.685579966E0,1.325042009E0,1.317864418E0,2.575558662E0
3.690334550E0,1.266399026E0,1.697822332E0,2.726442337E0
3.695089081E0,1.181488872E0,2.014250278E0,2.881601810E0
3.699843664E0,1.085583091E0,2.274478674E0,3.038594246E0
3.704598196E0,9.976185560E-1,2.482783556E0,3.169319153E0
3.709352779E0,9.279799461E-1,2.618395567E0,3.264003277E0
3.714107310E0,8.717803955E-1,2.684979677E0,3.321424484E0
3.718861893E0,8.033635616E-1,2.685590744E0,3.342804670E0
3.723616425E0,6.848557591E-1,2.618395567E0,3.329365730E0
3.728371008E0,4.686096311E-1,2.484005213E0,3.268279314E0
3.733125539E0,1.314122826E-1,2.268980980E0,3.142441034E0
3.737880123E0,-3.267363012E-1,1.939724803E0,2.925584078E0
3.742634654E0,-8.655190468E-1,1.480354428E0,2.593884468E0
3.747389237E0,-1.389030099E0,9.171370864E-1,2.144898891E0
3.752143768E0,-1.745775223E0,3.398698866E-1,1.579238176E0
3.756898352E0,-1.765322804E0,-5.658135191E-2,8.797979951E-1
3.761652883E0,-1.432401538E0,-1.494327933E-1,4.046979174E-2
3.766407466E0,-8.991165757E-1,-1.687514037E-2,-9.069814682E-1
3.771161998E0,-2.534325123E-1,1.871536970E-1,-1.866039157E0
3.775916581E0,4.484511018E-1,2.793942690E-1,-2.749349594E0
3.780671112E0,1.056872368E0,6.375901401E-2,-3.443902969E0
3.785425696E0,1.417893529E0,-3.473529816E-1,-3.835467339E0
3.790180227E0,1.530292630E0,-6.057487726E-1,-3.895942926E0
3.794934810E0,1.474093080E0,-5.953640938E-1,-3.677253246E0
3.799689341E0,1.295720577E0,-3.369682729E-1,-3.283245564E0
3.804443925E0,9.145409465E-1,2.378554791E-1,-2.798829794E0
3.809198456E0,1.692859083E-1,1.155374408E0,-2.235612392E0
3.813953039E0,-7.433460951E-1,2.299524069E0,-1.589928269E0
3.818707623E0,-1.483714223E0,3.417406559E0,-9.185879230E-1
3.823462154E0,-1.832517982E0,4.176711559E0,-3.003927469E-1
3.828216737E0,-1.764711976E0,4.359971046E0,2.713766694E-1
3.832971268E0,-1.390862703E0,3.994673967E0,8.364266157E-1
3.837725852E0,-8.728494048E-1,3.328220367E0,1.404530883E0
3.842480383E0,-3.212385178E-1,2.609843493E0,1.940870166E0
3.847234966E0,1.815031916E-1,1.920177102E0,2.406960011E0
3.851989498E0,5.803979039E-1,1.290986300E0,2.800356865E0
3.856744081E0,8.534544706E-1,7.784708142E-1,3.109454393E0
3.861498612E0,1.015944481E0,4.113410711E-1,3.335474491E0
3.866253196E0,1.085583091E0,1.688277572E-1,3.498575211E0
3.871007727E0,1.091691732E0,6.948587019E-3,3.603033304E0
3.875762310E0,1.063591957E0,-1.109483168E-1,3.654345751E0
3.880516841E0,1.015333652E0,-2.166279256E-1,3.660454512E0
3.885271425E0,9.542471170E-1,-3.168097436E-1,3.626245975E0
3.890025956E0,8.858302832E-1,-4.169915617E-1,3.562105179E0
3.894780539E0,8.125265241E-1,-5.110647678E-1,3.468642950E0
3.899535071E0,7.312815189E-1,-5.984184146E-1,3.348302603E0
3.904289654E0,6.408734918E-1,-6.723330617E-1,3.204749346E0
3.909044185E0,5.406916738E-1,-7.267000079E-1,3.052033186E0
3.913798768E0,4.282925725E-1,-7.865647674E-1,2.906036377E0
3.918553300E0,3.073413372E-1,-8.861356974E-1,2.776533127E0
3.923307883E0,1.857792437E-1,-1.023580313E0,2.669020891E0
3.928062466E0,7.948877662E-2,-1.188513756E0,2.581056356E0
3.932816998E0,2.390008420E-2,-1.343062520E0,2.514472246E0
3.937571581E0,6.910407543E-2,-1.462181211E0,2.471100807E0
3.942326112E0,3.000109792E-1,-1.479285479E0,2.461326838E0
3.947080696E0,7.697659731E-1,-1.274034858E0,2.497367859E0
3.951835227E0,1.372078657E0,-8.629228473E-1,2.573115110E0
3.956589810E0,1.932852507E0,-4.573086500E-1,2.654360294E0
3.961344341E0,2.392222881E0,-2.367864549E-1,2.711781502E0
3.966098925E0,2.779511213E0,-2.337321341E-1,2.726442337E0
3.970853456E0,3.141143084E0,-4.151589870E-1,2.701396704E0
3.975608039E0,3.496666431E0,-6.869937778E-1,2.653749228E0
3.980362571E0,3.838139772E0,-8.250492215E-1,2.612210512E0
3.985117154E0,4.141128540E0,-5.684860349E-1,2.582889080E0
3.989871685E0,4.341492176E0,2.250273079E-1,2.562119484E0
3.994626268E0,4.274297237E0,1.504178166E0,2.518748283E0
3.999380800E0,3.754451275E0,2.871293545E0,2.397186041E0
4.004135383E0,2.767293692E0,3.801640511E0,2.171777010E0
4.008889914E0,1.593822598E0,3.984289169E0,1.877340198E0
4.013644498E0,5.767326951E-1,3.435121775E0,1.622609615E0
4.018399029E0,-1.031597927E-1,2.469344616E0,1.515708208E0
4.023153612E0,-4.568504989E-1,1.526780128E0,1.572518706E0
4.027908143E0,-5.698604584E-1,1.024649262E0,1.744782567E0
4.032662727E0,-4.721221030E-1,1.071075082E0,1.986685038E0
4.037417258E0,-1.544724256E-1,1.394222498E0,2.292728186E0
4.042171841E0,3.207803667E-1,1.730198145E0,2.594495535E0
4.046926373E0,8.369610906E-1,1.951331139E0,2.794859171E0
4.051680956E0,1.286557555E0,2.033187151E0,2.854723930E0
4.056435487E0,1.590768218E0,1.995924354E0,2.818682909E0
4.061190071E0,1.690950036E0,1.876805663E0,2.736826897E0
4.065944602E0,1.552283764E0,1.698433161E0,2.642753839E0
4.070699185E0,1.175991058E0,1.463250279E0,2.529132843E0
4.075453768E0,6.262127757E-1,1.155374408E0,2.377027512E0
4.080208300E0,3.611737862E-2,8.016836643E-1,2.161392212E0
4.084962883E0,-4.702895284E-1,4.467712343E-1,1.877951026E0
4.089717414E0,-8.142064214E-1,9.308052063E-2,1.551749229E0
4.094471998E0,-9.870811105E-1,-2.832121849E-1,1.211497545E0
4.099226529E0,-1.022511244E0,-6.912698746E-1,8.981239200E-1
4.103981112E0,-9.473749399E-1,-1.143920660E0,6.207913160E-1
4.108735643E0,-7.799979448E-1,-1.649105787E0,3.788888752E-1
4.113490227E0,-5.490911007E-1,-2.190331936E0,1.699731201E-1
4.118244758E0,-2.992473841E-1,-2.718119144E0,-4.123337101E-3
4.122999341E0,-8.300124854E-2,-3.165272236E0,-1.507308781E-1
4.127753873E0,4.528035223E-2,-3.440161467E0,-2.674060464E-1
4.132508456E0,6.872228696E-4,-3.366246700E0,-3.565923274E-1
4.137262987E0,-2.699258626E-1,-2.839681387E0,-4.158461988E-1
4.142017571E0,-7.250201106E-1,-1.952705622E0,-4.378373325E-1
4.146772102E0,-1.229594469E0,-9.722676277E-1,-4.323395491E-1
4.151526685E0,-1.619326115E0,-2.520580888E-1,-3.956876695E-1
4.156281216E0,-1.839848399E0,7.903063297E-2,-3.327685893E-1
4.161035800E0,-1.923536777E0,8.636100590E-2,-2.564104795E-1
4.165790331E0,-1.918649912E0,-9.567669779E-2,-1.812741160E-1
4.170544914E0,-1.867337227E0,-3.583485484E-1,-1.153007299E-1
4.175299446E0,-1.797087789E0,-6.338485479E-1,-6.948586553E-2
4.180054029E0,-1.723784089E0,-8.843031526E-1,-5.054906011E-2
4.184808612E0,-1.654145479E0,-1.102381825E0,-6.337722391E-2
4.189563143E0,-1.584506869E0,-1.269758821E0,-1.128572673E-1
4.194317727E0,-1.423849463E0,-1.327790976E0,-2.014326602E-1
4.199072258E0,-1.110475779E0,-1.200731039E0,-3.468184769E-1
4.203826789E0,-8.410844207E-1,-8.781944513E-1,-5.832231641E-1
4.208581373E0,-6.956986189E-1,-5.073995590E-1,-8.648318052E-1
4.213335956E0,-6.614902020E-1,-2.044106275E-1,-1.135444880E0
4.218090487E0,-7.323505282E-1,2.832885459E-2,-1.403614521E0
4.222845071E0,-8.905645013E-1,1.920406222E-1,-1.687666655E0
4.227599602E0,-1.104367137E0,2.983310819E-1,-2.003483772E0
4.232354185E0,-1.343826175E0,3.423133492E-1,-2.354731083E0
4.237108716E0,-1.601000190E0,3.081049323E-1,-2.735299826E0
4.241863300E0,-1.864893794E0,2.067013681E-1,-3.146411657E0
4.246617831E0,-2.130620003E0,5.215258151E-2,-3.585012674E0
4.251372414E0,-2.432997942E0,-1.237764731E-1,-4.049269676E0
4.256126946E0,-2.837390661E0,-2.349538654E-1,-4.506196976E0
4.260881529E0,-3.328525782E0,9.124792367E-2,-4.933802128E0
4.265636060E0,-3.742692232E0,1.389946461E0,-5.362629414E0
4.270390643E0,-3.861199856E0,3.846233845E0,-5.744419575E0
4.275145175E0,-3.343186617E0,6.665374756E0,-6.015643597E0
4.279899758E0,-2.171547890E0,8.661681175E0,-6.072453976E0
4.284654289E0,-6.523272395E-1,9.378835678E0,-5.785958290E0
4.289408873E0,9.279799461E-1,8.948787689E0,-5.115839958E0
4.294163456E0,2.298760414E0,7.665971279E0,-4.163501740E0
4.298917987E0,3.251098633E0,6.166298389E0,-3.131140232E0
4.303672571E0,3.650604248E0,5.012374401E0,-2.183688879E0
4.308427102E0,3.303022146E0,4.312934399E0,-1.426216602E0
4.313181685E0,2.527224064E0,3.344713688E0,-9.387464523E-1
4.317936216E0,1.656130791E0,1.975765824E0,-7.066178322E-1
4.322690800E0,8.161917329E-1,4.626537263E-1,-6.516399980E-1
4.327445331E0,6.971494108E-2,-1.059010506E0,-6.834049821E-1
4.332199914E0,-5.405389667E-1,-2.460945129E0,-7.402154207E-1
4.336954446E0,-9.760855436E-1,-3.592266798E0,-7.890845537E-1
4.341709029E0,-1.248531222E0,-4.405938625E0,-8.116865754E-1
4.346463560E0,-1.420795083E0,-4.980762482E0,-7.958040833E-1
4.351218143E0,-1.553963661E0,-5.408367634E0,-7.347176075E-1
4.355972675E0,-1.654756308E0,-5.680202484E0,-6.247619390E-1
4.360727258E0,-1.728670955E0,-5.779162407E0,-4.641045034E-1
4.365481789E0,-1.788535714E0,-5.751062870E0,-2.600756884E-1
4.370236373E0,-1.821522355E0,-5.621559620E0,-3.100138716E-2
4.374990904E0,-1.814802885E0,-5.354611397E0,2.194531709E-1
4.379745487E0,-1.760435939E0,-4.977097034E0,4.845684767E-1
4.384500018E0,-1.677358270E0,-4.536052704E0,7.527381182E-1
4.389254602E0,-1.590004683E0,-4.077904224E0,1.011744738E0
4.394009133E0,-1.491655469E0,-3.640525103E0,1.262199402E0
4.398763716E0,-1.346880436E0,-3.168326616E0,1.491273642E0
4.403518300E0,-1.144073367E0,-2.614272118E0,1.683696032E0
4.408272831E0,-9.064469934E-1,-1.997298717E0,1.845575213E0
4.413027414E0,-6.474403143E-1,-1.321071386E0,1.987295866E0
4.417781946E0,-3.847684562E-1,-6.143009067E-1,2.114966631E0
4.422536529E0,-1.477529258E-1,7.475458086E-2,2.238972187E0
4.427291060E0,4.650207981E-2,7.063887715E-1,2.355647326E0
4.432045643E0,1.986074150E-1,1.237230301E0,2.455829144E0
4.436800175E0,3.134499788E-1,1.670333385E0,2.532187223E0
4.441554758E0,3.891972303E-1,2.020969868E0,2.583499908E0
4.446309289E0,4.325686097E-1,2.316628218E0,2.603658438E0
4.451063873E0,4.521162808E-1,2.548146009E0,2.592051983E0
4.455818404E0,4.460076392E-1,2.662377834E0,2.548069715E0
4.460572987E0,4.979311526E-1,2.452240229E0,2.450942278E0
4.465327518E0,7.764855027E-1,1.534721375E0,2.217591763E0
4.470082102E0,1.113072038E0,1.169042438E-1,1.886503100E0
4.474836633E0,1.245018721E0,-1.723020434E0,1.550527573E0
4.479591216E0,9.243147969E-1,-3.974057198E0,1.206610680E0
4.484345748E0,3.611737862E-2,-6.441950798E0,8.614720702E-1
4.489100331E0,-1.111086726E0,-8.696042061E0,5.456549525E-1
4.493854862E0,-2.063424826E0,-1.034598732E1,2.762635946E-1
4.498609446E0,-2.748204231E0,-1.142966175E1,6.918043643E-2
4.503363977E0,-3.214294195E0,-1.207168102E1,-9.330959618E-2
4.508118560E0,-3.495291948E0,-1.230503082E1,-2.484692484E-1
4.512873091E0,-3.617464781E0,-1.207717896E1,-4.140135944E-1
4.517627675E0,-3.582034826E0,-1.116760063E1,-5.936078429E-1
4.522382206E0,-3.359679937E0,-9.299576759E0,-8.135191798E-1
4.527136789E0,-2.926576853E0,-6.380864620E0,-1.115897179E0
4.531891373E0,-2.284557819E0,-2.756603718E0,-1.492189884E0
4.536645904E0,-1.514257431E0,9.446260333E-1,-1.853211045E0
4.541400435E0,-6.804270148E-1,3.949469805E0,-2.125656605E0
4.546155018E0,1.411861181E-1,5.717923641E0,-2.277761936E0
4.550909602E0,8.296307325E-1,6.490667343E0,-2.309526920E0
4.555664133E0,1.381241679E0,6.689198494E0,-2.266766548E0
4.560418716E0,1.835114121E0,6.557251453E0,-2.218508244E0
4.565173248E0,2.188804865E0,6.251819134E0,-2.195295334E0
4.569927831E0,2.405050993E0,5.865752697E0,-2.205679893E0
4.574682362E0,2.478354692E0,5.451586246E0,-2.269820690E0
4.579436946E0,2.363512278E0,4.892034054E0,-2.412763119E0
4.584191477E0,2.083736181E0,4.222526550E0,-2.615570307E0
4.588946060E0,1.715995550E0,3.623878956E0,-2.826318502E0
4.593700591E0,1.315879107E0,3.102811337E0,-3.021795273E0
4.598455175E0,9.627992511E-1,2.581743717E0,-3.186117887E0
4.603209706E0,7.111229897E-1,2.032576084E0,-3.275915146E0
4.607964289E0,5.425242782E-1,1.671555161E0,-3.229489326E0
4.612718821E0,3.097847998E-1,1.498680353E0,-3.123809814E0
4.617473404E0,-1.220965981E-1,1.316642642E0,-2.952767611E0
4.622227987E0,-6.798161268E-1,1.192026258E0,-2.630231142E0
4.626982518E0,-1.218598843E0,1.206076145E0,-2.187964916E0
4.631737102E0,-1.684077859E0,1.428430915E0,-1.585041404E0
4.636491633E0,-2.070755243E0,1.962937593E0,-8.532254100E-1
4.641246216E0,-2.323653221E0,2.586630583E0,-3.894263133E-2
4.646000748E0,-2.388404846E0,2.999575138E0,7.655662894E-1
4.650755331E0,-2.278449297E0,3.168173790E0,1.483332396E0
4.655509862E0,-2.062813997E0,3.126635075E0,2.108857870E0
4.660264446E0,-1.745775223E0,2.831587315E0,2.675129652E0
4.665018977E0,-9.791398644E-1,2.049069643E0,3.144273758E0
4.669773560E0,2.994000912E-1,7.693078518E-1,3.503462315E0
4.674528091E0,1.480812550E0,-5.440514684E-1,3.774075270E0
4.679282675E0,2.219348192E0,-1.611843109E0,3.995819330E0
4.684037206E0,2.632903576E0,-2.427958488E0,4.160752773E0
4.688791789E0,2.890688419E0,-3.096855402E0,4.221839428E0
4.693546321E0,3.070282698E0,-3.694281101E0,4.176024437E0
4.698300904E0,3.246822596E0,-4.186638355E0,4.058738232E0
4.703055435E0,3.474675179E0,-4.522002697E0,3.915796041E0
4.707810018E0,3.799044371E0,-4.601415157E0,3.781405687E0
4.712564602E0,4.238255978E0,-4.342408657E0,3.670839071E0
4.717319133E0,4.761767387E0,-3.730322123E0,3.589594126E0
4.722073716E0,5.279780865E0,-2.810970545E0,3.537670612E0
4.726828248E0,5.705553532E0,-1.653992772E0,3.510792494E0
4.731582831E0,5.957840443E0,-3.326922357E-1,3.485747099E0
4.736337362E0,5.990216255E0,1.060690284E0,3.427715063E0
4.741091946E0,5.800848484E0,2.474231482E0,3.311039925E0
4.745846477E0,5.354306221E0,3.885329008E0,3.136332512E0
4.750601060E0,4.583395004E0,5.180362225E0,2.898706198E0
4.755355591E0,3.495444536E0,6.073446751E0,2.598160505E0
4.760110175E0,2.271271706E0,6.298855782E0,2.249356747E0
4.764864706E0,1.179656267E0,5.819937706E0,1.891390085E0
4.769619289E0,3.690386713E-1,4.818730354E0,1.565799117E0
4.774373821E0,-1.440877318E-1,3.666639566E0,1.287855625E0
4.779128404E0,-3.670533597E-1,2.766835690E0,1.052061915E0
4.783882935E0,-2.503781915E-1,2.400316715E0,8.553634286E-1
4.788637518E0,1.698967665E-1,2.437579632E0,7.105884552E-1
4.793392050E0,6.805797219E-1,2.554865599E0,6.360629797E-1
4.798146633E0,1.071533203E0,2.500498533E0,6.342303753E-1
4.802901164E0,1.276172876E0,2.213392258E0,6.727148294E-1
4.807655748E0,1.286557555E0,1.765017390E0,7.130318880E-1
4.812410331E0,1.130176187E0,1.242727995E0,7.478511930E-1
4.817164862E0,8.400154114E-1,7.479275465E-1,7.716749310E-1
4.821919446E0,4.502837062E-1,3.630827665E-1,7.783944607E-1
4.826673977E0,1.412624773E-2,1.046869531E-1,7.527381182E-1
4.831428560E0,-3.811032772E-1,-7.673988491E-2,6.855430007E-1
4.836183091E0,-6.712640524E-1,-2.490037531E-1,5.780308247E-1
4.840937675E0,-8.423061967E-1,-4.640281498E-1,4.460839927E-1
4.845692206E0,-8.960622549E-1,-7.517454624E-1,3.043633699E-1
4.850446789E0,-8.441387415E-1,-1.117653489E0,1.601992846E-1
4.855201321E0,-7.195223570E-1,-1.540371895E0,2.275471389E-2
4.859955904E0,-5.564214587E-1,-2.001574755E0,-1.067486182E-1
4.864710435E0,-3.792706728E-1,-2.459723473E0,-2.246455252E-1
4.869465018E0,-2.387717664E-1,-2.818911791E0,-3.272708058E-1
4.874219550E0,-1.837939471E-1,-2.971017122E0,-4.182896614E-1
4.878974133E0,-2.534325123E-1,-2.815246582E0,-4.952586293E-1
4.883728664E0,-4.470766485E-1,-2.358319759E0,-5.575668216E-1
4.888483248E0,-7.482330203E-1,-1.653992772E0,-6.131555438E-1
4.893237779E0,-1.109254122E0,-8.458186388E-1,-6.534726024E-1
4.897992362E0,-1.442786217E0,-1.421024203E-1,-6.730202436E-1
4.902746893E0,-1.706068993E0,3.746891916E-1,-6.760746241E-1
4.907501477E0,-1.906432629E0,7.118865252E-1,-6.687442064E-1
4.912256060E0,-2.038990259E0,8.676570654E-1,-6.589703560E-1
4.917010591E0,-2.101298571E0,8.413898945E-1,-6.516399980E-1
4.921765175E0,-2.109239817E0,6.923388839E-1,-6.485856771E-1
4.926519706E0,-2.086637735E0,4.846448302E-1,-6.485856771E-1
4.931274289E0,-2.040211916E0,2.738964856E-1,-6.601921320E-1
4.936028821E0,-1.984012485E0,9.796743840E-2,-6.821832657E-1
4.940783404E0,-1.922925949E0,-2.725984156E-2,-7.188351154E-1
4.945537935E0,-1.850843906E0,-1.115591824E-1,-7.701478004E-1
4.950292518E0,-1.722562313E0,-1.842520833E-1,-8.367320299E-1
4.955047050E0,-1.479438186E0,-2.862665057E-1,-9.265291691E-1
4.959801633E0,-1.217988014E0,-3.895026445E-1,-1.057865024E0
4.964556164E0,-1.025565624E0,-4.457022250E-1,-1.230129004E0
4.969310748E0,-9.131664634E-1,-4.334849119E-1,-1.422551394E0
4.974065279E0,-8.844558597E-1,-3.424660563E-1,-1.620471597E0
4.978819862E0,-9.553161860E-1,-7.857248187E-2,-1.831219912E0
4.983574446E0,-1.122693062E0,3.856847584E-1,-2.066402912E0
4.988328977E0,-1.356654286E0,9.641736746E-1,-2.334572554E0
4.993083560E0,-1.627878308E0,1.597640514E0,-2.643059254E0
4.997838091E0,-1.905821800E0,2.199953079E0,-2.998582602E0
5.002592675E0,-2.160552263E0,2.673984289E0,-3.398087978E0
5.007347206E0,-2.373744249E0,2.912832260E0,-3.840965033E0
5.012101789E0,-2.580216408E0,2.907945395E0,-4.325991631E0
5.016856321E0,-2.810512543E0,2.900004148E0,-4.837896347E0
5.021610904E0,-2.960785151E0,3.365483046E0,-5.364461899E0
5.026365435E0,-2.612592220E0,4.529791355E0,-5.838492870E0
5.031120018E0,-1.620547891E0,5.837041855E0,-6.144536018E0
5.035874550E0,-4.030944109E-1,6.449128628E0,-6.128653526E0
5.040629133E0,7.141773105E-1,6.369105339E0,-5.765799999E0
5.045383664E0,1.651854753E0,5.813828945E0,-5.112174511E0
5.050138248E0,2.370842457E0,5.074682713E0,-4.220922947E0
5.054892779E0,2.795393705E0,4.462596416E0,-3.225213289E0
5.059647362E0,2.829602003E0,4.017886639E0,-2.338237762E0
5.064401946E0,2.471635342E0,3.602498770E0,-1.673005939E0
5.069156477E0,1.934074283E0,2.967199326E0,-1.230129004E0
5.073911060E0,1.366580844E0,2.084499598E0,-9.637919068E-1
5.078665591E0,8.015309572E-1,1.002047300E0,-8.391754627E-1
5.083420175E0,2.713003159E-1,-2.166279256E-1,-8.067996502E-1
5.088174706E0,-1.618028134E-1,-1.407203436E0,-8.153517842E-1
5.092929289E0,-4.727329910E-1,-2.459112644E0,-8.348994255E-1
5.097683821E0,-6.865356565E-1,-3.341812134E0,-8.391754627E-1
5.102438404E0,-8.380300999E-1,-4.079125881E0,-7.976366878E-1
5.107192935E0,-9.455423355E-1,-4.664334297E0,-6.974548697E-1
5.111947518E0,-1.006017923E0,-5.046124935E0,-5.435169339E-1
5.116702050E0,-1.020067811E0,-5.214723587E0,-3.462076187E-1
5.121456633E0,-9.846376777E-1,-5.170130253E0,-1.134681329E-1
5.126211164E0,-9.149990678E-1,-4.933115005E0,1.547015011E-1
5.130965748E0,-8.533017635E-1,-4.594084740E0,4.528035223E-1
5.135720331E0,-8.166498542E-1,-4.221457481E0,7.606793642E-1
5.140474862E0,-8.019890785E-1,-3.843332052E0,1.060003161E0
5.145229446E0,-7.983239293E-1,-3.462152481E0,1.337946534E0
5.149983977E0,-7.922152877E-1,-3.083416224E0,1.596342444E0
5.154738560E0,-7.714458704E-1,-2.705901861E0,1.828470945E0
5.159493091E0,-7.323505282E-1,-2.337550402E0,2.017228127E0
5.164247675E0,-6.749292016E-1,-2.003407478E0,2.190713882E0
5.169002206E0,-6.028471589E-1,-1.692477226E0,2.350149632E0
5.173756789E0,-5.081631541E-1,-1.384601355E0,2.493702650E0
5.178511321E0,-3.823249936E-1,-1.059010506E0,2.610988855E0
5.183265904E0,-2.399934977E-1,-7.199804783E-1,2.697120667E0
5.188020435E0,-1.159879491E-1,-4.261545539E-1,2.763705015E0
5.192775018E0,-6.643154658E-3,-1.891390085E-1,2.816239357E0
5.197529550E0,8.987347782E-2,-3.817904799E-4,2.854112864E0
5.202284133E0,1.741728187E-1,1.468366235E-1,2.874882460E0
5.207038664E0,2.566395700E-1,2.616792023E-1,2.878547668E0
5.211793248E0,3.372737169E-1,3.435350657E-1,2.866330147E0
5.216547831E0,4.240165055E-1,3.893499374E-1,2.845560789E0
5.221302362E0,5.351939201E-1,4.046215713E-1,2.813795805E0
5.226056946E0,6.750819683E-1,4.418843091E-1,2.766759396E0
5.230811477E0,7.929788232E-1,6.037634611E-1,2.709337950E0
5.235566060E0,7.697659731E-1,9.397391081E-1,2.655581951E0
5.240320591E0,5.040398240E-1,1.305647135E0,2.599382401E0
5.245075175E0,-2.619082667E-2,1.414381027E0,2.505309105E0
5.249829706E0,-6.083449721E-1,9.696714878E-1,2.333045244E0
5.254584289E0,-1.122082233E0,1.370627880E-1,2.080147266E0
5.259338821E0,-1.464777350E0,-7.841212749E-1,1.743560791E0
5.264093404E0,-1.555185318E0,-1.625282049E0,1.330005288E0
5.268847935E0,-1.363373876E0,-2.253251076E0,8.345940113E-1
5.273602518E0,-9.302706718E-1,-2.644815445E0,2.493855506E-1
5.278357102E0,-3.536143601E-1,-2.825631380E0,-3.981311321E-1
5.283111633E0,2.645808160E-1,-2.829296589E0,-1.026100159E0
5.287866216E0,8.510109782E-1,-2.708956242E0,-1.608254194E0
5.292620748E0,1.354363561E0,-2.559905291E0,-2.137874126E0
5.297375331E0,1.737986684E0,-2.420628071E0,-2.588692188E0
5.302129862E0,1.992717266E0,-2.229427338E0,-2.944826365E0
5.306884446E0,2.140546560E0,-1.950262189E0,-3.202000380E0
5.311638977E0,2.216293812E0,-1.625892997E0,-3.360214472E0
5.316393560E0,2.243782759E0,-1.321682334E0,-3.428631306E0
5.321148091E0,2.226678371E0,-1.055345297E0,-3.428020477E0
5.325902675E0,2.155818224E0,-8.323796391E-1,-3.377318621E0
5.330657206E0,1.723325849E0,-5.352702737E-2,-3.260643482E0
5.335411789E0,2.519817324E-3,3.108309031E0,-3.007134676E0
5.340166321E0,-1.599778533E0,6.121705055E0,-2.825096846E0
5.344920904E0,-2.300440311E0,7.429566383E0,-2.813490391E0
5.349675487E0,-2.437274218E0,7.348932266E0,-2.896568060E0
5.354430018E0,-2.399400473E0,6.849855900E0,-3.001636744E0
5.359184602E0,-2.294331789E0,6.284805775E0,-3.110370636E0
5.363939133E0,-2.133063555E0,5.688601971E0,-3.183674574E0
5.368693716E0,-1.917428136E0,5.006266117E0,-3.155574799E0
5.373448248E0,-1.477605581E0,3.886550903E0,-2.866635799E0
5.378202831E0,-7.690023780E-1,2.180405378E0,-2.353509188E0
5.382957362E0,-2.851974964E-1,4.852557182E-1,-1.735924959E0
5.387711946E0,-5.795579776E-2,-8.555924892E-1,-1.027321815E0
5.392466477E0,7.887791097E-2,-1.629558206E0,-1.959348768E-1
5.397221060E0,2.285397798E-1,-2.021122456E0,7.069232464E-1
5.401975591E0,3.739255965E-1,-2.280740023E0,1.622609615E0
5.406730175E0,4.930442274E-1,-2.435288906E0,2.485761404E0
5.411484758E0,5.333613157E-1,-2.467053652E0,3.232238293E0
5.416239289E0,4.692205191E-1,-2.420628071E0,3.846157312E0
5.420993873E0,3.617083132E-1,-2.318613529E0,4.345844746E0
5.425748404E0,2.566395700E-1,-2.179336548E0,4.765508652E0
5.430502987E0,1.772271395E-1,-2.038837671E0,5.109425545E0
5.435257518E0,1.692859083E-1,-1.933157921E0,5.366600037E0
5.440012102E0,3.061196208E-1,-1.862908483E0,5.501600742E0
5.444766633E0,5.712349415E-1,-1.823813200E0,5.505877018E0
5.449521216E0,8.827759624E-1,-1.832976103E0,5.395921230E0
5.454275748E0,1.091691732E0,-1.960646868E0,5.226100922E0
5.459030331E0,1.150945544E0,-2.215377569E0,5.023293972E0
5.463784914E0,1.128343582E0,-2.526307583E0,4.773449898E0
5.468539446E0,1.100243807E0,-2.793255568E0,4.501004219E0
5.473294029E0,1.128343582E0,-2.927034855E0,4.236499786E0
5.478048560E0,1.213253856E0,-2.918482780E0,3.986045361E0
5.482803143E0,1.393458962E0,-2.778594732E0,3.748419046E0
5.487557675E0,1.678732753E0,-2.533027172E0,3.554163933E0
5.492312258E0,2.040975571E0,-2.204381943E0,3.412443399E0
5.497066789E0,2.455142021E0,-1.853745580E0,3.306152821E0
5.501821373E0,2.888245106E0,-1.517158985E0,3.249342442E0
5.506575904E0,3.305465698E0,-1.194622397E0,3.238346815E0
5.511330487E0,3.671373606E0,-9.460004568E-1,3.281718254E0
5.516085071E0,3.984747410E0,-7.572432756E-1,3.373958826E0
5.520839602E0,4.293233871E0,-4.964039922E-1,3.491855860E0
5.525594185E0,4.631653309E0,1.244636998E-2,3.593259335E0
5.530348716E0,4.966406822E0,9.434043169E-1,3.662897825E0
5.535103300E0,5.113625526E0,2.365497589E0,3.678780317E0
5.539857831E0,4.827129841E0,4.044764996E0,3.622580767E0
5.544612414E0,4.047055721E0,5.427151680E0,3.493688345E0
5.549366946E0,3.001255035E0,6.035573006E0,3.301265955E0
5.554121529E0,1.989052057E0,5.774734020E0,3.044091940E0
5.558876060E0,1.249905705E0,4.742372513E0,2.745989799E0
5.563630643E0,8.784999251E-1,3.160843372E0,2.432005405E0
5.568385227E0,7.838158607E-1,1.419878840E0,2.122297049E0
5.573139758E0,8.051961660E-1,-8.407026529E-2,1.852905631E0
5.577894341E0,8.742238283E-1,-1.175074816E0,1.636659503E0
5.582648873E0,9.444733262E-1,-1.746844172E0,1.485165000E0
5.587403456E0,9.744057059E-1,-1.791437268E0,1.403309107E0
5.592157987E0,9.267582297E-1,-1.385212302E0,1.372765899E0
5.596912571E0,7.654899359E-1,-6.735547781E-1,1.366046309E0
5.601667102E0,4.936550856E-1,1.370627880E-1,1.353218198E0
5.606421685E0,1.595120728E-1,8.358920813E-1,1.311679363E0
5.611176268E0,-1.660788655E-1,1.267773509E0,1.220049739E0
5.615930800E0,-4.336376488E-1,1.342909813E0,1.081383348E0
5.620685383E0,-6.223948598E-1,1.069853306E0,8.999565244E-1
5.625439914E0,-7.237983942E-1,5.310705900E-1,6.861538887E-1
5.630194498E0,-7.433460951E-1,-1.934150606E-1,4.369210303E-1
5.634949029E0,-7.164680362E-1,-9.979239702E-1,1.492037177E-1
5.639703612E0,-6.737074852E-1,-1.750509381E0,-1.757763475E-1
5.644458143E0,-6.394990683E-1,-2.330830812E0,-5.386300087E-1
5.649212727E0,-6.376664639E-1,-2.650313139E0,-9.375247359E-1
5.653967258E0,-6.859247684E-1,-2.652756691E0,-1.366351843E0
5.658721841E0,-7.983239293E-1,-2.318002701E0,-1.812283039E0
5.663476425E0,-9.650899768E-1,-1.667431831E0,-2.270431757E0
5.668230956E0,-1.162399292E0,-7.938951254E-1,-2.749349594E0
5.672985539E0,-1.356654286E0,1.523344070E-1,-3.254534721E0
5.677740071E0,-1.505705357E0,1.057636023E0,-3.774380684E0
5.682494654E0,-1.580841660E0,1.819384336E0,-4.276511669E0
5.687249185E0,-1.578398228E0,2.343506336E0,-4.719999313E0
5.692003768E0,-1.524031281E0,2.647106171E0,-5.066359997E0
5.696758352E0,-1.441564560E0,2.791270256E0,-5.311316490E0
5.701512883E0,-1.355432630E0,2.790048599E0,-5.431656837E0
5.706267466E0,-1.279685378E0,2.630002022E0,-5.419439793E0
5.711021998E0,-1.227761865E0,2.334343433E0,-5.291769028E0
5.715776581E0,-1.214933634E0,1.964159369E0,-5.081020355E0
5.720531112E0,-1.244255185E0,1.599473119E0,-4.828122616E0
5.725285696E0,-1.294346094E0,1.268384337E0,-4.563618183E0
5.730040227E0,-1.339550138E0,9.770018458E-1,-4.319882870E0
5.734794810E0,-1.371925950E0,7.308233380E-1,-4.119519234E0
5.739549393E0,-1.385365009E0,5.451204777E-1,-3.967414141E0
5.744303925E0,-1.378034592E0,4.101193547E-1,-3.856847525E0
5.749058508E0,-1.356654286E0,3.117701113E-1,-3.781711102E0
5.753813039E0,-1.354210854E0,2.305250913E-1,-3.737728834E0
5.758567623E0,-1.378034592E0,7.108938694E-2,-3.715737820E0
5.763322154E0,-1.416519046E0,-2.514472008E-1,-3.693746567E0
5.768076737E0,-1.470275164E0,-7.218130827E-1,-3.649764299E0
5.772831268E0,-1.553352833E0,-1.283197880E0,-3.575238943E0
5.777585852E0,-1.682856083E0,-1.836641312E0,-3.506821871E0
5.782340435E0,-1.895437002E0,-2.244699001E0,-3.546528101E0
5.787094966E0,-2.236910582E0,-2.410243273E0,-3.709629059E0
5.791849550E0,-2.695669889E0,-2.205603600E0,-3.978409529E0
5.796604081E0,-3.247891665E0,-1.616119146E0,-4.338209152E0
5.801358664E0,-3.780565739E0,-4.273762703E-1,-4.812850952E0
5.806113196E0,-3.892354012E0,1.276325583E0,-5.435322285E0
5.810867779E0,-3.294928312E0,2.928103924E0,-6.079784393E0
5.815622362E0,-2.316933632E0,4.229246140E0,-6.505557060E0
5.820376893E0,-1.175838351E0,4.967170715E0,-6.586802006E0
5.825131477E0,-8.116865903E-2,5.113778114E0,-6.325963020E0
5.829886008E0,9.169843793E-1,5.093008518E0,-5.738310814E0
5.834640591E0,1.704999924E0,4.980609417E0,-4.856832981E0
5.839395123E0,2.171089888E0,4.832169533E0,-3.801258802E0
5.844149706E0,2.246836901E0,4.438772678E0,-2.802495003E0
5.848904289E0,1.978667378E0,3.727115154E0,-1.954614520E0
5.853658821E0,1.566333652E0,2.736292362E0,-1.294269800E0
5.858413404E0,1.143615246E0,1.538386583E0,-8.348994255E-1
5.863167935E0,7.667116523E-1,2.824485898E-1,-5.471821427E-1
5.867922518E0,4.576140642E-1,-8.531489968E-1,-3.822486401E-1
5.872677050E0,2.432005405E-1,-1.787161231E0,-2.924515009E-1
5.877431633E0,1.161406636E-1,-2.496986151E0,-2.454149276E-1
5.882186164E0,4.222602770E-2,-3.031492710E0,-2.307541668E-1
5.886940748E0,-1.091920771E-2,-3.454822063E0,-2.264781147E-1
5.891695331E0,-4.085158184E-2,-3.766973972E0,-2.026543915E-1
5.896449862E0,-5.184714869E-2,-3.960618258E0,-1.464548260E-1
5.901204446E0,-5.429060757E-2,-4.048582554E0,-6.154462695E-2
5.905958977E0,-4.757109284E-2,-4.021704674E0,5.818486959E-2
5.910713560E0,-1.580612548E-2,-3.831114769E0,2.151771188E-1
5.915468091E0,4.283689335E-2,-3.472537279E0,4.039343297E-1
5.920222675E0,1.161406636E-1,-3.000949621E0,6.165152788E-1
5.924977258E0,1.833357960E-1,-2.485379696E0,8.413135409E-1
5.929731789E0,2.364810258E-1,-1.971642375E0,1.067333460E0
5.934486373E0,2.737437785E-1,-1.462181211E0,1.290910006E0
5.939240904E0,2.981783748E-1,-9.649372697E-1,1.503490925E0
5.943995487E0,3.213912249E-1,-5.171734095E-1,1.708130598E0
5.948750018E0,3.531562090E-1,-1.347720474E-1,1.899331331E0
5.953504602E0,3.849211633E-1,1.859319657E-1,2.071595192E0
5.958259185E0,4.234056473E-1,4.577668011E-1,2.232863426E0
5.963013716E0,4.679987729E-1,7.118865252E-1,2.370918989E0
5.967768300E0,5.156462193E-1,9.598976374E-1,2.503476620E0
5.972522831E0,5.590176582E-1,1.190804482E0,2.630536556E0
5.977277414E0,5.858956575E-1,1.399109364E0,2.758818150E0
5.982031946E0,5.993347168E-1,1.564653754E0,2.890153885E0
5.986786529E0,5.987238288E-1,1.673387647E0,3.010494232E0
5.991541112E0,5.797870159E-1,1.692935348E0,3.114341259E0
5.996295643E0,5.443568826E-1,1.608636022E0,3.195586443E0
6.001050227E0,5.125918984E-1,1.429041743E0,3.246899128E0
6.005804758E0,4.802160859E-1,1.148043990E0,3.265224934E0
6.010559341E0,3.867537677E-1,7.931315303E-1,3.259116411E0
6.015313873E0,7.765618712E-2,3.771326542E-1,3.242012024E0
6.020068456E0,-4.861720204E-1,-1.885281354E-1,3.210247040E0
6.024823039E0,-1.097647667E0,-9.569960237E-1,3.114341259E0
6.029577571E0,-1.694462538E0,-1.813428402E0,2.945742607E0
6.034332154E0,-2.229580164E0,-2.680856466E0,2.722777128E0
6.039086685E0,-2.630307436E0,-3.481089354E0,2.461937666E0
6.043841268E0,-2.742095709E0,-4.058967590E0,2.162003279E0
6.048595852E0,-2.440328360E0,-4.307589531E0,1.819308043E0
6.053350383E0,-1.748829484E0,-4.194579601E0,1.408196092E0
6.058104966E0,-8.117629290E-1,-3.710774422E0,9.030108452E-1
6.062859498E0,1.772271395E-1,-2.999727964E0,3.196350038E-1
6.067614081E0,1.075809240E0,-2.247142553E0,-3.211621642E-1
6.072368612E0,1.786244988E0,-1.615508318E0,-9.442442060E-1
6.077123196E0,2.282267094E0,-1.194011569E0,-1.519068003E0
6.081877779E0,2.584034443E0,-9.569960237E-1,-2.035859585E0
6.086632310E0,2.708650827E0,-8.024472594E-1,-2.484234333E0
6.091386893E0,2.671998978E0,-5.807033181E-1,-2.829372883E0
6.096141425E0,2.511952400E0,-2.428951114E-1,-3.056003809E0
6.100896008E0,2.276769400E0,1.584430486E-1,-3.174511433E0
6.105650539E0,1.979889154E0,5.713876486E-1,-3.187950611E0
6.110405123E0,1.514410138E0,1.223791242E0,-3.109148979E0
6.115159706E0,3.128391206E-1,3.384419918E0,-2.944826365E0
6.119914237E0,-9.443206191E-1,5.488849163E0,-2.798218727E0
6.124668821E0,-1.621158719E0,6.153470039E0,-2.751182318E0
6.129423404E0,-1.941251874E0,5.968378067E0,-2.779282093E0
6.134177935E0,-2.125733137E0,5.431427956E0,-2.815323114E0
6.138932518E0,-2.281503677E0,4.742372513E0,-2.803105831E0
6.143687050E0,-2.417726517E0,3.978791475E0,-2.717584610E0
6.148441633E0,-2.558225393E0,3.173671722E0,-2.504392862E0
6.153196164E0,-2.727434874E0,2.394208193E0,-2.118937254E0
6.157950748E0,-2.463541269E0,1.675220251E0,-1.569769740E0
6.162705331E0,-1.294346094E0,1.221958637E0,-9.521854520E-1
6.167459862E0,-2.998582423E-1,1.077794552E0,-3.260490894E-1
6.172214446E0,2.945131958E-1,8.328377604E-1,3.104720116E-1
6.176968977E0,7.844267488E-1,5.964331031E-1,9.353867173E-1
6.181723560E0,1.205312610E0,3.325395286E-1,1.521206021E0
6.186478143E0,1.402011037E0,3.077231348E-2,2.048382282E0
6.191232675E0,1.328096390E0,-2.117410004E-1,2.532187223E0
6.195987258E0,1.067867994E0,-4.035525322E-1,2.968955517E0
6.200741789E0,7.300597429E-1,-5.678751469E-1,3.345248222E0
6.205496373E0,3.775908053E-1,-7.144827247E-1,3.665952206E0
6.210250956E0,3.428478539E-2,-8.745293021E-1,3.928624153E0
6.215005487E0,-2.851974964E-1,-1.067562580E0,4.120435715E0
6.219760071E0,-5.661953092E-1,-1.302134633E0,4.232223988E0
6.224514602E0,-8.093194962E-1,-1.572747707E0,4.277427673E0
6.229269185E0,-1.002963662E0,-1.865962863E0,4.276206017E0
6.234023768E0,-1.131245255E0,-2.196440697E0,4.247495651E0
6.238778300E0,-1.164231896E0,-2.587394238E0,4.203513145E0
6.243532883E0,-1.061606646E0,-3.033325434E0,4.158309460E0
6.248287414E0,-8.404735923E-1,-3.461541653E0,4.122268200E0
6.253041998E0,-5.301542878E-1,-3.820119143E0,4.097222805E0
6.257796581E0,-1.361464858E-1,-4.066908836E0,4.083783627E0
6.262551112E0,3.501018882E-1,-4.181751251E0,4.070344925E0
6.267305696E0,9.175952673E-1,-4.159759998E0,4.044688225E0
6.272060227E0,1.577329278E0,-3.950844288E0,4.012923241E0
6.276814810E0,2.315864801E0,-3.547062635E0,3.975049734E0
6.281569393E0,3.077002287E0,-3.040045023E0,3.937176228E0
6.286323925E0,3.780718565E0,-2.534248829E0,3.910298109E0
6.291078508E0,4.413574219E0,-2.012570381E0,3.871202707E0
6.295833039E0,4.987787247E0,-1.446909547E0,3.827220678E0
6.300587623E0,5.445935726E0,-9.765437245E-1,3.816835880E0
6.305342206E0,5.812454700E0,-4.909062088E-1,3.811949015E0
6.310096737E0,6.104448318E0,6.422479749E-1,3.768577576E0
6.314851321E0,5.965170860E0,2.901836872E0,3.684889078E0
6.319605852E0,5.020773888E0,5.553600788E0,3.557218313E0
6.324360435E0,3.483838081E0,7.259746075E0,3.377624035E0
6.329115018E0,1.954232812E0,7.573730469E0,3.138776064E0
6.333869550E0,8.021417856E-1,6.744176388E0,2.862054110E0
6.338624133E0,1.491273642E-1,5.212127209E0,2.582278252E0
6.343378716E0,5.322159454E-2,3.215821266E0,2.318384647E0
6.348133248E0,3.281107545E-1,1.090011835E0,2.107025385E0
6.352887831E0,5.810087919E-1,-5.990293026E-1,1.937204957E0
6.357642362E0,7.709876895E-1,-1.780441761E0,1.793651700E0
6.362396946E0,8.644500375E-1,-2.372980595E0,1.670256972E0
6.367151529E0,7.899245024E-1,-2.331441879E0,1.578016400E0
6.371906060E0,5.406916738E-1,-1.798767686E0,1.491884470E0
6.376660643E0,1.723402292E-1,-1.075503826E0,1.376431108E0
6.381415175E0,-1.990655661E-1,-4.860192835E-1,1.218217134E0
6.386169758E0,-4.928915203E-1,-2.056323588E-1,1.027627230E0
6.390924341E0,-6.737074852E-1,-2.948186100E-1,8.113811612E-1
6.395678873E0,-7.445678115E-1,-7.725148797E-1,5.597048402E-1
6.400433456E0,-7.402917743E-1,-1.477452874E0,2.536616027E-1
6.405187987E0,-7.048615813E-1,-2.213544846E0,-1.342375278E-1
6.409942571E0,-6.730966568E-1,-2.841513872E0,-6.058251262E-1
6.414697154E0,-6.669879556E-1,-3.262399673E0,-1.138499260E0
6.419451685E0,-6.999746561E-1,-3.414505005E0,-1.713933825E0
6.424206268E0,-7.690023780E-1,-3.276449680E0,-2.337015867E0
6.428960852E0,-8.801797628E-1,-2.782259941E0,-2.975369692E0
6.433715383E0,-1.013348341E0,-1.870849729E0,-3.570962667E0
6.438469966E0,-1.168507934E0,-6.967676282E-1,-4.073704720E0
6.443224550E0,-1.328554511E0,5.157989264E-1,-4.462825298E0
6.447979081E0,-1.461112142E0,1.578092813E0,-4.729162216E0
6.452733664E0,-1.524031281E0,2.351447582E0,-4.850724697E0
6.457488248E0,-1.525863886E0,2.794935465E0,-4.823235512E0
6.462242779E0,-1.503872752E0,2.985525370E0,-4.667465210E0
6.466997362E0,-1.471496940E0,3.005683899E0,-4.421897411E0
6.471751893E0,-1.430568933E0,2.887176037E0,-4.124406338E0
6.476506477E0,-1.399414897E0,2.630002022E0,-3.813476086E0
6.481261060E0,-1.385365009E0,2.272645950E0,-3.522704363E0
6.486015591E0,-1.382310629E0,1.898796797E0,-3.280191183E0
6.490770175E0,-1.385365009E0,1.552436471E0,-3.093877316E0
6.495524758E0,-1.384754062E0,1.248225808E0,-2.956432819E0
6.500279289E0,-1.373758554E0,9.904409051E-1,-2.862359524E0
6.505033873E0,-1.349934816E0,7.870228887E-1,-2.801883936E0
6.509788456E0,-1.322445869E0,6.239219904E-1,-2.770730019E0
6.514542987E0,-1.293124437E0,4.791470468E-1,-2.773784161E0
6.519297571E0,-1.283350587E0,3.557523787E-1,-2.813490391E0
6.524052102E0,-1.307785153E0,1.993709952E-1,-2.873965979E0
6.528806685E0,-1.355432630E0,-6.452259421E-2,-2.938106775E0
6.533561268E0,-1.419573426E0,-4.444804788E-1,-3.004691124E0
6.538315852E0,-1.505705357E0,-8.983530402E-1,-3.081049204E0
6.543070383E0,-1.599778533E0,-1.383990526E0,-3.194669962E0
6.547824966E0,-1.699349403E0,-1.870238900E0,-3.410305262E0
6.552579498E0,-1.844735265E0,-2.387030602E0,-3.721846342E0
6.557334081E0,-2.093357325E0,-2.812803268E0,-4.143953800E0
6.562088664E0,-2.534401655E0,-2.811581612E0,-4.724886417E0
6.566843248E0,-3.198411703E0,-1.933157921E0,-5.493354321E0
6.571597779E0,-3.762239933E0,7.475458086E-2,-6.426755428E0
6.576352362E0,-3.522780895E0,2.727129459E0,-7.376650333E0
6.581106946E0,-2.519740820E0,4.887147427E0,-8.004008293E0
6.585861477E0,-1.272965789E0,6.121705055E0,-8.052877426E0
6.590616060E0,4.528035223E-2,6.479061127E0,-7.525701523E0
6.595370643E0,1.229747176E0,6.238380432E0,-6.547707081E0
6.600125175E0,2.108781576E0,5.694099903E0,-5.263058186E0
6.604879758E0,2.579758406E0,5.019704819E0,-3.922820807E0
6.609634341E0,2.587699652E0,4.215196133E0,-2.714530468E0
6.614388873E0,2.183307171E0,3.284238100E0,-1.745698810E0
6.619143456E0,1.612148523E0,2.129092932E0,-1.063362837E0
6.623898039E0,1.053207278E0,7.864120603E-1,-6.375901103E-1
6.628652571E0,5.675697327E-1,-5.880337358E-1,-4.237874448E-1
6.633407154E0,1.839466542E-1,-1.854967237E0,-3.553705812E-1
6.638161737E0,-8.239039034E-2,-2.897102594E0,-3.694204688E-1
6.642916268E0,-2.522107959E-1,-3.724213600E0,-4.176788032E-1
6.647670852E0,-3.652207851E-1,-4.343019485E0,-4.683805704E-1
6.652425435E0,-4.415788651E-1,-4.777344227E0,-5.001455545E-1
6.657180018E0,-4.947241247E-1,-5.053455353E0,-4.983129501E-1
6.661934550E0,-5.295433998E-1,-5.167686939E0,-4.402807951E-1
6.666689133E0,-5.374846458E-1,-5.116985321E0,-3.223838806E-1
6.671443716E0,-5.057196617E-1,-4.906847477E0,-1.525634825E-1
6.676198248E0,-4.238637984E-1,-4.535441875E0,6.734783947E-2
6.680952831E0,-2.998582423E-1,-4.019872189E0,3.294088244E-1
6.685707414E0,-1.495855153E-1,-3.409007311E0,6.226239204E-1
6.690461998E0,7.635809743E-5,-2.780427456E0,9.256128669E-1
6.695216529E0,1.320231557E-1,-2.193386316E0,1.214551926E0
6.699971112E0,2.596938908E-1,-1.661323071E0,1.482110620E0
6.704725696E0,3.812559843E-1,-1.172631264E0,1.726456642E0
6.709480227E0,4.942659736E-1,-7.413607836E-1,1.954920053E0
6.714234810E0,5.962803960E-1,-3.626246154E-1,2.146120787E0
6.718989393E0,6.811906099E-1,-5.879573524E-3,2.311665058E0
6.723743925E0,7.380009890E-1,3.294851780E-1,2.475987673E0
6.728498508E0,7.832050323E-1,6.642391086E-1,2.610378027E0
6.733253091E0,8.161917329E-1,9.904409051E-1,2.721555233E0
6.738007675E0,8.137482405E-1,1.278769016E0,2.838230371E0
6.742762206E0,7.911462188E-1,1.536553979E0,2.954294682E0
6.747516789E0,7.502183318E-1,1.776623845E0,3.055698395E0
6.752271373E0,6.793580055E-1,1.950109482E0,3.144273758E0
6.757025956E0,5.846739411E-1,2.025856733E0,3.223686218E0
6.761780487E0,4.771617651E-1,2.013028622E0,3.286605120E0
6.766535071E0,3.678169549E-1,1.936059594E0,3.331809282E0
6.771289654E0,2.505309284E-1,1.814497471E0,3.363574266E0
6.776044185E0,1.265253723E-1,1.667279005E0,3.381900072E0
6.780798768E0,-2.130390890E-2,1.530445337E0,3.387398005E0
6.785553352E0,-2.589302957E-1,1.402163744E0,3.378234863E0
6.790307935E0,-6.584358811E-1,1.226845503E0,3.347691774E0
6.795062466E0,-1.117806196E0,8.560506105E-1,3.276220560E0
6.799817050E0,-1.548465848E0,2.286925018E-1,3.143052101E0
6.804571633E0,-1.902767420E0,-5.794816017E-1,2.949407816E0
6.809326216E0,-2.149556875E0,-1.406592488E0,2.706283808E0
6.814080748E0,-2.215530157E0,-2.115195751E0,2.425285816E0
6.818835331E0,-2.009057999E0,-2.540357590E0,2.113744736E0
6.823589914E0,-1.522809505E0,-2.560516119E0,1.765551925E0
6.828344498E0,-8.178715706E-1,-2.195829868E0,1.358105063E0
6.833099081E0,-1.275180187E-2,-1.608788729E0,8.840740323E-1
6.837853612E0,7.948114276E-1,-1.019915104E0,3.385718167E-1
6.842608196E0,1.513188362E0,-5.953640938E-1,-2.790125012E-1
6.847362779E0,2.057468891E0,-5.226711631E-1,-9.753983617E-1
6.852117362E0,2.416046619E0,-8.366556764E-1,-1.701105714E0
6.856871893E0,2.612134218E0,-1.409646869E0,-2.366337538E0
6.861626477E0,2.668333769E0,-1.940488338E0,-2.902676821E0
6.866381060E0,2.607247353E0,-2.222707748E0,-3.267363071E0
6.871135643E0,2.461861372E0,-2.250196695E0,-3.446346283E0
6.875890175E0,2.272493362E0,-2.088928461E0,-3.455509424E0
6.880644758E0,2.083736181E0,-1.787772179E0,-3.332725525E0
6.885399341E0,1.915748358E0,-1.416366339E0,-3.121977091E0
6.890153925E0,1.748982191E0,-1.047404051E0,-2.867246628E0
6.894908456E0,1.559003234E0,-7.242565751E-1,-2.603963852E0
6.899663039E0,1.192484379E0,-2.245691717E-1,-2.330907345E0
6.904417623E0,-6.834049523E-2,1.885357738E0,-1.920406103E0
6.909172206E0,-1.398803949E0,4.181598663E0,-1.540448308E0
6.913926789E0,-2.013334036E0,5.067963123E0,-1.394451618E0
6.918681321E0,-2.212475777E0,5.109502316E0,-1.379790783E0
6.923435904E0,-2.320598841E0,4.772915363E0,-1.393840671E0
6.928190487E0,-2.505079985E0,4.307436466E0,-1.382234335E0
6.932945071E0,-2.772638798E0,3.769875526E0,-1.316871762E0
6.937699654E0,-3.088455915E0,3.110141754E0,-1.187368393E0
6.942454185E0,-3.415268660E0,2.326402187E0,-9.167553186E-1
6.947208768E0,-3.710927248E0,1.576871037E0,-4.751000702E-1
6.951963352E0,-3.517893791E0,9.568433166E-1,3.375028074E-2
6.956717935E0,-2.356639862E0,4.143953919E-1,5.413789153E-1
6.961472518E0,-1.392084479E0,1.183550525E-2,1.035568476E0
6.966227050E0,-5.258781910E-1,-5.658135191E-2,1.460119486E0
6.970981633E0,3.531562090E-1,6.131555140E-2,1.807701588E0
6.975736216E0,1.105130792E0,1.272889525E-1,2.094197273E0
6.980490800E0,1.540677309E0,1.474474818E-1,2.350149632E0
6.985245331E0,1.643913507E0,1.505018175E-1,2.612210512E0
6.989999914E0,1.552894592E0,1.633299738E-1,2.862665176E0
6.994754498E0,1.373300433E0,1.657734364E-1,3.075246096E0
6.999509081E0,1.146058679E0,1.260672212E-1,3.248731613E0
7.004263664E0,8.980475664E-1,2.527453005E-2,3.371515512E0
7.009018248E0,6.512582302E-1,-1.372154951E-1,3.436267138E0
7.013772779E0,4.172970057E-1,-3.669006526E-1,3.450316906E0
7.018527362E0,2.041051984E-1,-6.631700993E-1,3.438710451E0
7.023281946E0,1.229365356E-2,-1.002810836E0,3.412443399E0
7.028036529E0,-1.489746422E-1,-1.396818638E0,3.383732796E0
7.032791112E0,-2.522107959E-1,-1.831143498E0,3.367850304E0
7.037545643E0,-2.589302957E-1,-2.247753382E0,3.369682789E0
7.042300227E0,-1.489746422E-1,-2.587394238E0,3.383121967E0
7.047054810E0,6.788235158E-2,-2.842735529E0,3.398393393E0
7.051809393E0,3.836994469E-1,-2.989343166E0,3.437488794E0
7.056563977E0,8.021417856E-1,-3.009501696E0,3.499186277E0
7.061318560E0,1.363526583E0,-2.878165722E0,3.580431223E0
7.066073091E0,2.094731569E0,-2.612439632E0,3.681834698E0
7.070827675E0,2.951775074E0,-2.217820883E0,3.797899008E0
7.075582258E0,3.839972258E0,-1.719966173E0,3.893804789E0
7.080336841E0,4.695794106E0,-1.140866280E0,3.964665174E0
7.085091425E0,5.411727428E0,-5.959749222E-1,4.066068649E0
7.089846008E0,5.997546673E0,-1.127809063E-1,4.194350243E0
7.094600591E0,6.512506008E0,6.306415200E-1,4.320188522E0
7.099355123E0,6.633457184E0,2.207894325E0,4.371500969E0
7.104109706E0,5.555280685E0,4.241463184E0,4.286591053E0
7.108864289E0,3.549811602E0,5.374006748E0,4.085005283E0
7.113618873E0,1.694615245E0,5.149208069E0,3.836994410E0
7.118373456E0,3.891972303E-1,4.010556221E0,3.565159559E0
7.123128039E0,-2.155589163E-1,2.583576202E0,3.184590816E0
7.127882571E0,-3.462839723E-1,1.172478557E0,2.751487732E0
7.132637154E0,-1.349247545E-1,-1.885281354E-1,2.345262527E0
7.137391737E0,1.931096315E-1,-1.294804215E0,2.005010843E0
7.142146321E0,5.095375776E-1,-1.960036039E0,1.763108492E0
7.146900904E0,7.715985775E-1,-2.134743214E0,1.600007534E0
7.151655487E0,9.169843793E-1,-1.642386317E0,1.468671679E0
7.156410018E0,8.326850533E-1,-5.654317141E-1,1.358105063E0
7.161164602E0,5.321395993E-1,6.355284452E-1,1.232877851E0
7.165919185E0,1.332448870E-1,1.528612733E0,1.078329086E0
7.170673768E0,-2.149480432E-1,1.893298984E0,8.859066367E-1
7.175428352E0,-4.208094776E-1,1.703320026E0,6.653844714E-1
7.180182935E0,-4.507418573E-1,1.008155942E0,4.210385382E-1
7.184937518E0,-3.554469347E-1,-2.725984156E-2,1.467602700E-1
7.189692050E0,-2.045633495E-1,-1.142698884E0,-1.751654744E-1
7.194446633E0,-5.184714869E-2,-2.135965109E0,-5.581777096E-1
7.199201216E0,5.566505343E-2,-2.904433012E0,-9.967786074E-1
7.203955800E0,7.032580674E-2,-3.341812134E0,-1.475085735E0
7.208710383E0,-3.535379842E-2,-3.306992769E0,-1.962555766E0
7.213464966E0,-2.790888548E-1,-2.782259941E0,-2.423147917E0
7.218219550E0,-6.315578222E-1,-1.881234407E0,-2.812879562E0
7.222974133E0,-1.025565624E0,-8.238275051E-1,-3.122587919E0
7.227728664E0,-1.398803949E0,1.822667718E-1,-3.347997189E0
7.232483248E0,-1.704236388E0,9.922734499E-1,-3.498269796E0
7.237237831E0,-1.899102211E0,1.531667113E0,-3.563021660E0
7.241992414E0,-1.976071239E0,1.882914305E0,-3.533089161E0
7.246746998E0,-1.973627687E0,2.082667112E0,-3.413359642E0
7.251501581E0,-1.947971463E0,2.100993156E0,-3.234987259E0
7.256256164E0,-1.910097837E0,1.947666049E0,-3.033401728E0
7.261010748E0,-1.870391607E0,1.638568401E0,-2.836703300E0
7.265765279E0,-1.845346093E0,1.240895391E0,-2.664439440E0
7.270519862E0,-1.845957041E0,8.456659317E-1,-2.525162220E0
7.275274446E0,-1.864893794E0,5.096902847E-1,-2.424980402E0
7.280029029E0,-1.886274099E0,2.366337478E-1,-2.363893986E0
7.284783612E0,-1.897880554E0,7.559451740E-3,-2.335794210E0
7.289538196E0,-1.896658778E0,-1.885281354E-1,-2.330907345E0
7.294292779E0,-1.876500249E0,-3.809505403E-1,-2.346179008E0
7.299047362E0,-1.850843906E0,-5.519927144E-1,-2.372446060E0
7.303801893E0,-1.867948174E0,-6.680569649E-1,-2.425591230E0
7.308556477E0,-1.942473650E0,-8.012255430E-1,-2.519053698E0
7.313311060E0,-2.041433811E0,-1.042517066E0,-2.661995888E0
7.318065643E0,-2.156887293E0,-1.382768750E0,-2.850142241E0
7.322820227E0,-2.304105520E0,-1.774943948E0,-3.070053577E0
7.327574810E0,-2.508745193E0,-2.129856348E0,-3.332114697E0
7.332329393E0,-2.795240879E0,-2.291735649E0,-3.668701172E0
7.337083977E0,-3.183750868E0,-2.074267626E0,-4.164723396E0
7.341838560E0,-3.655338526E0,-1.308854103E0,-4.961901665E0
7.346593091E0,-4.066450596E0,1.059086844E-1,-6.013811111E0
7.351347675E0,-4.070115566E0,2.022191525E0,-7.168345451E0
7.356102258E0,-3.537441492E0,3.840125084E0,-8.208647728E0
7.360856841E0,-2.710941553E0,5.304368019E0,-8.813404083E0
7.365611425E0,-1.639484763E0,6.209058762E0,-8.804852486E0
7.370366008E0,-4.513527155E-1,6.565192699E0,-8.170164108E0
7.375120591E0,6.359865665E-1,6.460124016E0,-7.128639221E0
7.379875175E0,1.419726133E0,6.031297207E0,-5.881864071E0
7.384629758E0,1.764864683E0,5.553600788E0,-4.525133610E0
7.389384341E0,1.761199474E0,5.033143997E0,-3.225213289E0
7.394138925E0,1.475314856E0,4.154720306E0,-2.186743259E0
7.398893456E0,1.069700599E0,2.989801407E0,-1.463479280E0
7.403648039E0,6.915752888E-1,1.689270139E0,-9.980003238E-1
7.408402623E0,3.953058720E-1,3.911825418E-1,-7.218894362E-1
7.413157206E0,1.680641770E-1,-8.348230720E-1,-5.966621637E-1
7.417911789E0,-5.345066893E-4,-1.874514937E0,-5.874992013E-1
7.422666373E0,-1.251509190E-1,-2.646037102E0,-6.491965652E-1
7.427420956E0,-2.192240953E-1,-3.228191376E0,-7.622065544E-1
7.432175539E0,-2.900844216E-1,-3.683285475E0,-8.984293938E-1
7.436930123E0,-3.487274349E-1,-4.024147987E0,-1.025489211E0
7.441684706E0,-3.902662396E-1,-4.275824547E0,-1.113453746E0
7.446439237E0,-4.128682315E-1,-4.455418587E0,-1.124449372E0
7.451193873E0,-4.140899479E-1,-4.534220219E0,-1.021824002E0
7.455948404E0,-3.847684562E-1,-4.482296467E0,-8.000801206E-1
7.460702987E0,-3.224602342E-1,-4.290484905E0,-4.751000702E-1
7.465457571E0,-2.283870727E-1,-3.956953049E0,-7.498364896E-2
7.470212154E0,-1.031597927E-1,-3.494528294E0,3.672824502E-1
7.474966737E0,3.428478539E-2,-2.960021734E0,8.126028776E-1
7.479721321E0,1.582903415E-1,-2.407799959E0,1.226158381E0
7.484475904E0,2.804632783E-1,-1.851302028E0,1.590844631E0
7.489230487E0,4.117992222E-1,-1.298469424E0,1.906050801E0
7.493985071E0,5.529089570E-1,-7.828995585E-1,2.185826778E0
7.498739654E0,6.921861768E-1,-3.223075271E-1,2.428340197E0
7.503494237E0,8.155808449E-1,5.765036494E-2,2.644586325E0
7.508248768E0,9.194278717E-1,3.740783334E-1,2.831511021E0
7.513003352E0,1.004948974E0,6.172025204E-1,3.004385710E0
7.517757935E0,1.066035390E0,8.108466268E-1,3.161377907E0
7.522512518E0,1.102076411E0,9.776127338E-1,3.300044298E0
7.527267102E0,1.111239433E0,1.107116103E0,3.428325891E0
7.532021685E0,1.091080904E0,1.205465317E0,3.548055410E0
7.536776268E0,1.061759353E0,1.269606113E0,3.637852430E0
7.541530852E0,1.019609690E0,1.264108300E0,3.706269264E0
7.546285435E0,9.554688931E-1,1.171867728E0,3.764301538E0
7.551040018E0,8.675043583E-1,9.788344502E-1,3.805840254E0
7.555794602E0,7.551051974E-1,7.167734504E-1,3.829663992E0
7.560549185E0,6.170498133E-1,4.015672207E-1,3.828442335E0
7.565303768E0,4.056905806E-1,8.086322248E-2,3.806451082E0
7.570058300E0,3.184132650E-2,-1.866955459E-1,3.756360292E0
7.574812883E0,-5.026653409E-1,-4.725802541E-1,3.648237228E0
7.579567466E0,-9.791398644E-1,-9.588286281E-1,3.450316906E0
7.584322050E0,-1.343215346E0,-1.653992772E0,3.147938967E0
7.589076633E0,-1.671860576E0,-2.308228970E0,2.761872292E0
7.593831216E0,-1.955301762E0,-2.797531605E0,2.313497543E0
7.598585800E0,-2.105574608E0,-3.103574753E0,1.826638460E0
7.603340383E0,-2.014555693E0,-3.192150354E0,1.320231557E0
7.608094966E0,-1.622380495E0,-3.002171278E0,7.918334603E-1
7.612849550E0,-9.944115281E-1,-2.584950686E0,2.469420880E-1
7.617604133E0,-2.485456020E-1,-2.082208872E0,-3.181078434E-1
7.622358716E0,4.838812649E-1,-1.567860842E0,-8.746056557E-1
7.627113300E0,1.119180679E0,-1.087110281E0,-1.383455992E0
7.631867883E0,1.617035389E0,-6.979893446E-1,-1.826332927E0
7.636622466E0,1.967671871E0,-4.322631955E-1,-2.195906162E0
7.641377050E0,2.190026522E0,-2.154061943E-1,-2.481790781E0
7.646131581E0,2.296927929E0,6.498073786E-2,-2.674824238E0
7.650886164E0,2.288375854E0,4.327213466E-1,-2.789666653E0
7.655640748E0,2.181474447E0,8.371137977E-1,-2.841590166E0
7.660395331E0,1.983554244E0,1.241506338E0,-2.851364136E0
7.665149914E0,1.589546561E0,1.916511893E0,-2.844033718E0
7.669904498E0,7.984766364E-1,3.211545229E0,-2.832427263E0
7.674659081E0,-5.001455545E-2,4.295219421E0,-2.842812061E0
7.679413664E0,-6.621010900E-1,4.700833321E0,-2.885572433E0
7.684168248E0,-1.013348341E0,4.478478909E0,-2.886794329E0
7.688922831E0,-1.253418207E0,3.913428783E0,-2.781725407E0
7.693677414E0,-1.492266297E0,3.209712744E0,-2.547153473E0
7.698431998E0,-1.761046767E0,2.471787930E0,-2.206901789E0
7.703186581E0,-2.042655468E0,1.837710381E0,-1.784183264E0
7.707941164E0,-1.969962597E0,1.232954144E0,-1.239902735E0
7.712695748E0,-1.026176453E0,5.274053812E-1,-5.508472919E-1
7.717450331E0,-1.905134469E-1,4.247801006E-1,1.424842030E-1
7.722204914E0,3.000109792E-1,4.284452796E-1,7.466294765E-1
7.726959498E0,5.871174335E-1,2.800051570E-1,1.278692722E0
7.731714081E0,7.972549200E-1,7.964149863E-2,1.736230373E0
7.736468612E0,9.279799461E-1,-1.518762559E-1,2.111301422E0
7.741223196E0,9.395864010E-1,-4.347066581E-1,2.416122913E0
7.745977779E0,8.504001498E-1,-6.802743077E-1,2.676351309E0
7.750732362E0,6.396517754E-1,-8.079450130E-1,2.923140764E0
7.755486946E0,3.598757088E-1,-8.287144303E-1,3.161988735E0
7.760241529E0,7.765618712E-2,-7.841212749E-1,3.384343624E0
7.764996112E0,-1.954003721E-1,-7.028762698E-1,3.564548731E0
7.769750696E0,-4.617374241E-1,-6.216312647E-1,3.694662809E0
7.774505279E0,-7.225766778E-1,-5.605447888E-1,3.771631956E0
7.779259862E0,-9.828050733E-1,-5.348884463E-1,3.800342560E0
7.784014446E0,-1.241811752E0,-5.483275056E-1,3.786292553E0
7.788769029E0,-1.490433693E0,-6.045270562E-1,3.744143009E0
7.793523612E0,-1.714621067E0,-7.028762698E-1,3.692830324E0
7.798278196E0,-1.903989196E0,-8.513164520E-1,3.645182848E0
7.803032779E0,-1.984012485E0,-1.065119147E0,3.615861416E0
7.807787362E0,-1.745775223E0,-1.402927279E0,3.618915558E0
7.812541946E0,-1.170951366E0,-1.736459494E0,3.672060966E0
7.817296529E0,-3.261254430E-1,-1.883677959E0,3.786292553E0
7.822051112E0,5.681806207E-1,-1.870238900E0,3.951837063E0
7.826805696E0,1.366580844E0,-1.751120210E0,4.151589870E0
7.831560279E0,2.068464518E0,-1.535485029E0,4.352564335E0
7.836314810E0,2.736750603E0,-1.358945012E0,4.516275883E0
7.841069446E0,3.433136463E0,-1.272813082E0,4.636616230E0
7.845823977E0,4.130133152E0,-1.255708933E0,4.732522011E0
7.850578560E0,4.759934902E0,-1.259374142E0,4.786278248E0
7.855333143E0,5.285889149E0,-1.307021499E0,4.763676167E0
7.860087727E0,5.723879337E0,-1.409035921E0,4.718472481E0
7.864842310E0,6.137434959E0,-1.497000456E0,4.680598736E0
7.869596893E0,6.691489220E0,-8.769727349E-1,4.619512081E0
7.874351477E0,7.082442760E0,1.687437654E0,4.466795921E0
7.879106060E0,6.302978992E0,5.680660725E0,4.189463139E0
7.883860643E0,4.320723057E0,8.808898926E0,3.752695084E0
7.888615227E0,2.009210587E0,9.644561768E0,3.193142891E0
7.893369810E0,4.508945644E-1,8.119233131E0,2.640921116E0
7.898124393E0,1.229365356E-2,4.783300400E0,2.198655128E0
7.902878977E0,1.246927753E-1,1.281212568E0,1.883448839E0
7.907633560E0,3.592648506E-1,-1.430416226E0,1.660483241E0
7.912388143E0,6.133846045E-1,-2.997895241E0,1.529147267E0
7.917142727E0,8.406262994E-1,-3.547062635E0,1.480888963E0
7.921897310E0,1.019609690E0,-3.375409603E0,1.476612926E0
7.926651893E0,1.098411202E0,-2.715675831E0,1.500436664E0
7.931406477E0,1.064202785E0,-1.727907419E0,1.516319156E0
7.936161060E0,9.285908341E-1,-6.026944518E-1,1.513264775E0
7.940915643E0,6.854666471E-1,4.369973838E-1,1.458287001E0
7.945670227E0,3.525453210E-1,1.193858862E0,1.349552989E0
7.950424810E0,3.367391974E-2,1.522504091E0,1.185841203E0
7.955179393E0,-1.776852906E-1,1.386281252E0,9.891427755E-1
7.959933977E0,-2.662606835E-1,8.762091398E-1,7.716749310E-1
7.964688560E0,-2.632063627E-1,1.236237586E-1,5.334376693E-1
7.969443143E0,-2.076176703E-1,-7.529671788E-1,2.689332068E-1
7.974197675E0,-1.165988147E-1,-1.627725601E0,-3.711003438E-2
7.978952310E0,-8.475748822E-3,-2.385808706E0,-4.011854529E-1
7.983706841E0,8.620829135E-2,-2.933143616E0,-8.306233883E-1
7.988461477E0,1.405752599E-1,-3.236743450E0,-1.325423837E0
7.993216008E0,1.240819097E-1,-3.289277792E0,-1.877034783E0
7.997970591E0,2.328922041E-2,-3.009501696E0,-2.425591230E0
8.002725175E0,-1.624136716E-1,-2.303952932E0,-2.905730963E0
8.007479758E0,-3.975966275E-1,-1.212948322E0,-3.270417213E0
8.012234341E0,-6.364447474E-1,2.099847607E-2,-3.528813124E0
8.016988925E0,-8.361974955E-1,9.446260333E-1,-3.688859701E0
8.021743508E0,-9.730312228E-1,1.399109364E0,-3.752389669E0
8.026498091E0,-1.057330608E0,1.543273449E0,-3.708407402E0
8.031252675E0,-1.130023479E0,1.533499718E0,-3.577682257E0
8.036007258E0,-1.202105522E0,1.408883214E0,-3.382816315E0
8.040761841E0,-1.277241945E0,1.147433162E0,-3.161072493E0
8.045516425E0,-1.351767421E0,7.467058301E-1,-2.937495947E0
8.050271008E0,-1.437899351E0,2.574031353E-1,-2.723082542E0
8.055025591E0,-1.539913774E0,-2.777144015E-1,-2.537990332E0
8.059780175E0,-1.646815062E0,-8.061124086E-1,-2.387106895E0
8.064534758E0,-1.751272917E0,-1.226998210E0,-2.291811943E0
8.069289341E0,-1.857563496E0,-1.475009322E0,-2.236223221E0
8.074043925E0,-1.956523538E0,-1.578245521E0,-2.210566998E0
8.078798508E0,-2.042044640E0,-1.598404050E0,-2.211788654E0
8.083553091E0,-2.104963779E0,-1.575802088E0,-2.240499258E0
8.088307675E0,-2.149556875E0,-1.532430649E0,-2.297920465E0
8.093062258E0,-2.189873934E0,-1.490891814E0,-2.385885000E0
8.097816841E0,-2.238743067E0,-1.489059210E0,-2.506836414E0
8.102571425E0,-2.310825109E0,-1.585575938E0,-2.656498194E0
8.107326008E0,-2.426889420E0,-1.823202252E0,-2.835481644E0
8.112080591E0,-2.584492445E0,-2.172616959E0,-3.053560257E0
8.116835175E0,-2.773249626E0,-2.572733402E0,-3.338223219E0
8.121589758E0,-2.997437000E0,-2.985067129E0,-3.670533657E0
8.126344341E0,-3.293095589E0,-3.267897606E0,-4.063930511E0
8.131098925E0,-3.671221018E0,-2.983234406E0,-4.566672325E0
8.135853508E0,-4.043848515E0,-1.621006012E0,-5.303986073E0
8.140608091E0,-4.299800873E0,9.690605998E-1,-6.285645962E0
8.145362675E0,-4.306520462E0,4.108294487E0,-7.380926609E0
8.150117258E0,-3.914956093E0,7.129021168E0,-8.349146843E0
8.154871789E0,-2.877707720E0,9.422818184E0,-8.978948593E0
8.159626373E0,-1.151403785E0,1.050404930E1,-9.177479744E0
8.164381008E0,7.728202939E-1,1.015707779E1,-8.850056648E0
8.169135539E0,2.417268276E0,8.614033699E0,-8.102968216E0
8.173890123E0,3.564472437E0,6.599401474E0,-7.070607185E0
8.178644706E0,4.150902748E0,5.067352295E0,-5.760912895E0
8.183399289E0,4.225428104E0,4.364858150E0,-4.300946236E0
8.188153873E0,3.863185167E0,4.140059471E0,-3.001636744E0
8.192908456E0,3.203451157E0,3.798586369E0,-2.041357279E0
8.197663039E0,2.463083267E0,2.921995401E0,-1.454927206E0
8.202417623E0,1.723325849E0,1.558545113E0,-1.180648923E0
8.207172206E0,1.021442294E0,-8.895718306E-2,-1.118340731E0
8.211926789E0,3.751473427E-1,-1.784717798E0,-1.183703184E0
8.216681373E0,-2.296088040E-1,-3.354029417E0,-1.295491457E0
8.221435956E0,-7.799979448E-1,-4.675330162E0,-1.382234335E0
8.226190539E0,-1.264413714E0,-5.697917461E0,-1.400560260E0
8.230945123E0,-1.651702046E0,-6.434009552E0,-1.334586859E0
8.235699706E0,-1.933310628E0,-6.901932240E0,-1.189200997E0
8.240454289E0,-2.114126682E0,-7.133450031E0,-9.717331529E-1
8.245208873E0,-2.205756426E0,-7.195757866E0,-6.931788325E-1
8.249963456E0,-2.206978083E0,-7.103517532E0,-3.688096106E-1
8.254718039E0,-2.126343966E0,-6.870167255E0,-1.389717404E-2
8.259472623E0,-1.961410403E0,-6.499372005E0,3.507890999E-1
8.264227206E0,-1.736001372E0,-6.004571915E0,7.209731340E-1
8.268981789E0,-1.484935880E0,-5.430358887E0,1.077718139E0
8.273736373E0,-1.238146544E0,-4.827435493E0,1.391091824E0
8.278490956E0,-1.010904908E0,-4.224511623E0,1.665370107E0
8.283245539E0,-8.099303246E-1,-3.650909662E0,1.914602876E0
8.288000123E0,-6.394990683E-1,-3.117624760E0,2.123518705E0
8.292754706E0,-5.106065869E-1,-2.649702311E0,2.304334641E0
8.297509289E0,-4.122573733E-1,-2.211712360E0,2.450942278E0
8.302263873E0,-3.334558010E-1,-1.771889687E0,2.579834700E0
8.307018456E0,-2.839757502E-1,-1.354668975E0,2.705672741E0
8.311773039E0,-2.619846463E-1,-9.716567993E-1,2.826013088E0
8.316527623E0,-2.503781915E-1,-5.984184146E-1,2.939634085E0
8.321282206E0,-2.326631248E-1,-2.147953212E-1,3.049589634E0
8.326036789E0,-2.051742077E-1,1.743255407E-1,3.144884586E0
8.330791373E0,-1.782961637E-1,5.384009480E-1,3.205360174E0
8.335545956E0,-1.587484777E-1,8.365029693E-1,3.229183912E0
8.340300539E0,-1.392008066E-1,1.042364359E0,3.213912249E0
8.345055071E0,-9.216422588E-2,1.122387648E0,3.131445646E0
8.349809654E0,3.550651670E-2,1.033201456E0,2.932303667E0
8.354564237E0,3.140608668E-1,6.850084662E-1,2.623206139E0
8.359318821E0,7.172316313E-1,7.292198390E-2,2.229809046E0
8.364073404E0,9.988402724E-1,-7.022654414E-1,1.810145020E0
8.368827987E0,5.761218667E-1,-1.471344233E0,1.461952090E0
8.373582571E0,-3.316232264E-1,-2.610606909E0,1.144913316E0
8.378337154E0,-1.232648730E0,-3.740095854E0,7.759509683E-1
8.383091737E0,-2.023718596E0,-4.451753616E0,3.825540543E-1
8.387846321E0,-2.703000307E0,-4.890354156E0,1.481347065E-2
8.392600904E0,-3.313254118E0,-5.191510677E0,-3.138317764E-1
8.397355487E0,-3.817217588E0,-5.189678192E0,-5.917752385E-1
8.402110071E0,-4.038350582E0,-4.584311008E0,-8.061888218E-1
8.406864654E0,-3.733529091E0,-3.208643675E0,-9.821178317E-1
8.411619237E0,-2.814788580E0,-1.261817575E0,-1.081077933E0
8.416373821E0,-1.470275164E0,7.851903439E-1,-1.081077933E0
8.421128404E0,-3.291033953E-2,2.481561899E0,-1.041371703E0
8.425882987E0,1.235855818E0,3.719173908E0,-1.019380569E0
8.430637571E0,2.279823780E0,4.585380077E0,-1.051145554E0
8.435392154E0,3.171075344E0,5.104004383E0,-1.141553521E0
8.440146737E0,3.962756157E0,5.320250511E0,-1.255785227E0
8.444901321E0,4.576675415E0,5.304978848E0,-1.366351843E0
8.449655904E0,4.988398075E0,5.143710613E0,-1.464701056E0
8.454410487E0,5.269395828E0,4.882871151E0,-1.547167778E0
8.459165071E0,5.471591949E0,4.544452190E0,-1.617417216E0
8.463919654E0,5.582158566E0,4.130896568E0,-1.680336237E0
8.468674237E0,5.546728611E0,3.632431030E0,-1.762192130E0
8.473428821E0,5.317043304E0,3.048444271E0,-1.875813007E0
8.478183404E0,4.870501041E0,2.434525251E0,-1.991877317E0
8.482937987E0,4.140517712E0,1.906738043E0,-2.062737703E0
8.487692571E0,3.224220753E0,1.591531873E0,-2.004094601E0
8.492447154E0,2.265773773E0,1.465693712E0,-1.781129003E0
8.497201737E0,1.191262722E0,1.487684846E0,-1.473863959E0
8.501956321E0,1.290451828E-2,1.742415428E0,-1.105512500E0
8.506710904E0,-1.151403785E0,2.317850113E0,-6.039925218E-1
8.511465487E0,-2.183154345E0,3.250029802E0,3.802633286E-2
8.516220071E0,-3.070130110E0,4.273228168E0,8.022181988E-1
8.520974602E0,-3.808054686E0,5.243281364E0,1.633605123E0
8.525729237E0,-4.382267475E0,5.934780598E0,2.480874538E0
8.530483768E0,-4.667541504E0,6.226773739E0,3.296989918E0
8.535238352E0,-4.588739872E0,6.196841240E0,4.033692837E0
8.539992935E0,-4.177017212E0,5.841928959E0,4.702589989E0
8.544747518E0,-3.150764227E0,4.680064201E0,5.267028809E0
8.549502102E0,-4.892263412E-1,1.669722557E0,5.571239471E0
8.554256685E0,2.009210587E0,-1.335121274E0,5.632936954E0
8.559011268E0,2.956661940E0,-3.104185820E0,5.568796158E0
8.563765852E0,3.195509911E0,-4.230620384E0,5.438070774E0
8.568520435E0,3.262094259E0,-5.157913208E0,5.247481346E0
8.573275018E0,3.313406944E0,-5.791990757E0,5.020239353E0
8.578029602E0,3.456960201E0,-5.977693558E0,4.813156128E0
8.582784185E0,3.712301731E0,-5.581853390E0,4.689761639E0
8.587538768E0,4.029340267E0,-4.306367397E0,4.661050797E0
8.592293352E0,4.184500217E0,-2.288681269E0,4.695259571E0
8.597047935E0,3.976806164E0,-1.482110620E-1,4.737409115E0
8.601802518E0,3.461236238E0,1.515173674E0,4.727024555E0
8.606557102E0,2.860145330E0,2.453462124E0,4.631729603E0
8.611311685E0,2.364123106E0,2.749731541E0,4.455800533E0
8.616066268E0,2.056858063E0,2.655658245E0,4.207789421E0
8.620820852E0,1.901698470E0,2.413145065E0,3.924348116E0
8.625575435E0,1.779525518E0,2.242102861E0,3.606698275E0
8.630330018E0,1.622533202E0,2.263483047E0,3.212079763E0
8.635084602E0,1.458210588E0,2.478507519E0,2.751487732E0
8.639839185E0,1.337259412E0,2.713690519E0,2.292728186E0
8.644593768E0,1.247462273E0,2.837696075E0,1.905439973E0
8.649348352E0,1.195538759E0,2.772333384E0,1.677587390E0
8.654102935E0,1.315879107E0,2.418031931E0,1.681252599E0
8.658857518E0,1.705610871E0,1.784565091E0,1.900552988E0
8.663612102E0,2.127107620E0,1.065577269E0,2.243859053E0
8.668366685E0,2.372675180E0,3.844630122E-1,2.599382401E0
8.673121216E0,2.322584152E0,-2.392299175E-1,2.866941214E0
8.677875800E0,1.923689604E0,-8.000037670E-1,2.985448837E0
8.682630383E0,1.334815860E0,-1.256930590E0,2.934136152E0
8.687384966E0,8.131373525E-1,-1.577023745E0,2.747211695E0
8.692139550E0,4.747183025E-1,-1.811595917E0,2.493702650E0
8.696894133E0,2.627482116E-1,-1.966144681E0,2.209039688E0
8.701648716E0,8.681915700E-2,-1.977140188E0,1.909716010E0
8.706403300E0,-8.361211419E-2,-1.862297654E0,1.612835765E0
8.711157883E0,-2.167806327E-1,-1.770057082E0,1.330005288E0
8.715912466E0,-2.760345340E-1,-1.823813200E0,1.055727005E0
8.720667050E0,-2.619846463E-1,-1.994244456E0,7.845031023E-1
8.725421633E0,-2.192240953E-1,-2.170784235E0,5.132791400E-1
8.730176216E0,-1.947895139E-1,-2.226372957E0,2.432768941E-1
8.734930800E0,-2.235001475E-1,-2.064493895E0,-2.611446939E-2
8.739685383E0,-3.200167716E-1,-1.664377451E0,-2.967275679E-1
8.744439966E0,-4.684569240E-1,-1.121318698E0,-5.453495383E-1
8.749194550E0,-6.401099563E-1,-5.361102223E-1,-7.622065544E-1
8.753949133E0,-8.300888538E-1,2.344193682E-2,-9.527963400E-1
8.758703716E0,-1.024954796E0,5.133554935E-1,-1.122616768E0
8.763458300E0,-1.185001373E0,8.914808035E-1,-1.274722099E0
8.768212883E0,-1.303509116E0,1.151709199E0,-1.408501506E0
8.772967466E0,-1.376812816E0,1.284266829E0,-1.535561323E0
8.777722050E0,-1.406134367E0,1.282434225E0,-1.661399484E0
8.782476633E0,-1.417740822E0,1.200578332E0,-1.779907227E0
8.787231216E0,-1.446451426E0,1.113835573E0,-1.893528104E0
8.791985800E0,-1.509981394E0,1.061912060E0,-2.001040220E0
8.796740383E0,-1.600389361E0,1.027703643E0,-2.105498075E0
8.801494966E0,-1.719508052E0,1.008155942E0,-2.208734274E0
8.806249550E0,-1.854509115E0,9.886083007E-1,-2.313192129E0
8.811004133E0,-1.983401537E0,9.592867494E-1,-2.429867268E0
8.815758664E0,-2.084194183E0,9.287435412E-1,-2.559981585E0
8.820513300E0,-2.141004801E0,9.159153700E-1,-2.705978155E0
8.825267831E0,-2.150167704E0,9.281326532E-1,-2.875798702E0
8.830022414E0,-2.127565622E0,9.562324286E-1,-3.069442749E0
8.834776998E0,-2.093357325E0,9.837213755E-1,-3.277136803E0
8.839531581E0,-2.063424826E0,9.653954506E-1,-3.503156900E0
8.844286164E0,-2.053651094E0,8.432224989E-1,-3.730398417E0
8.849040748E0,-2.081140041E0,5.829941034E-1,-3.957029343E0
8.853795331E0,-2.152000189E0,1.822667718E-1,-4.201986313E0
8.858549914E0,-2.250349522E0,-3.015381396E-1,-4.492146969E0
8.863304498E0,-2.352363825E0,-8.122211099E-1,-4.844005108E0
8.868059081E0,-2.464762926E0,-1.364442825E0,-5.252673626E0
8.872813664E0,-2.585714340E0,-1.933768868E0,-5.726093769E0
8.877568248E0,-2.699335098E0,-2.439564943E0,-6.272817612E0
8.882322831E0,-2.825784206E0,-2.574565887E0,-6.939882278E0
8.887077414E0,-2.737208605E0,-5.263363719E-1,-7.831133842E0
8.891831998E0,-2.302273035E0,2.590295792E0,-8.824399948E0
8.896586581E0,-1.736612201E0,4.793684959E0,-9.611193657E0
8.901341164E0,-9.620356560E-1,6.151026726E0,-9.996649742E0
8.906095748E0,-1.159879491E-1,6.693474293E0,-9.805448532E0
8.910850331E0,7.483857274E-1,6.739900112E0,-8.963677406E0
8.915604914E0,1.563890219E0,6.401481152E0,-7.628937721E0
8.920359498E0,2.171089888E0,5.701429844E0,-6.166527271E0
8.925114081E0,2.475300550E0,4.902419090E0,-4.791470528E0
8.929868664E0,2.573649645E0,4.350808144E0,-3.593564749E0
8.934623196E0,2.518671751E0,3.947637320E0,-2.652222157E0
8.939377779E0,2.354959965E0,3.381976604E0,-1.997985959E0
8.944132362E0,2.113668442E0,2.424751282E0,-1.603367329E0
8.948886946E0,1.791131854E0,1.091233611E0,-1.415220976E0
8.953641529E0,1.370246053E0,-5.128973126E-1,-1.359632254E0
8.958396112E0,8.827759624E-1,-2.245920658E0,-1.363908291E0
8.963150696E0,3.922515512E-1,-3.915414095E0,-1.376736522E0
8.967905279E0,-7.506000996E-2,-5.371716022E0,-1.354134440E0
8.972659862E0,-5.112174749E-1,-6.545797825E0,-1.278387308E0
8.977414446E0,-9.015600681E-1,-7.399176121E0,-1.126892805E0
8.982169029E0,-1.232648730E0,-7.940402031E0,-8.917098641E-1
8.986923612E0,-1.478827238E0,-8.190856934E0,-5.844448805E-1
8.991678196E0,-1.635208607E0,-8.187802315E0,-2.301433086E-1
8.996432779E0,-1.708512425E0,-7.983773708E0,1.485928595E-1
9.001187362E0,-1.713399291E0,-7.610535145E0,5.438223481E-1
9.005941946E0,-1.662086725E0,-7.092521667E0,9.366084337E-1
9.010696529E0,-1.571678758E0,-6.487765789E0,1.315344572E0
9.015451112E0,-1.456225276E0,-5.823755741E0,1.677587390E0
9.020205696E0,-1.318169832E0,-5.113319874E0,1.997069716E0
9.024960279E0,-1.170340538E0,-4.395554066E0,2.292728186E0
9.029714810E0,-1.012126565E0,-3.706498384E0,2.558454514E0
9.034469393E0,-8.490256667E-1,-3.079751253E0,2.793026447E0
9.039223977E0,-6.975312233E-1,-2.506149054E0,3.006218195E0
9.043978560E0,-5.698604584E-1,-1.975918531E0,3.193753719E0
9.048733143E0,-4.654026031E-1,-1.471955061E0,3.357465506E0
9.053487727E0,-3.792706728E-1,-9.514982700E-1,3.478416681E0
9.058242310E0,-3.059668839E-1,-4.237110913E-1,3.557218313E0
9.062996893E0,-2.491564751E-1,8.269581944E-2,3.599368095E0
9.067751477E0,-2.241110206E-1,5.255727768E-1,3.612807035E0
9.072506060E0,-2.204458266E-1,9.036980867E-1,3.607920170E0
9.077260643E0,-2.210566849E-1,1.215849996E0,3.583485603E0
9.082015227E0,-2.247218788E-1,1.466304541E0,3.528507710E0
9.086769810E0,-1.990655661E-1,1.597640514E0,3.414886951E0
9.091524393E0,-9.216422588E-2,1.504788995E0,3.200473309E0
9.096278977E0,1.106428802E-1,1.119333386E0,2.876714945E0
9.101033560E0,3.482692838E-1,4.913643599E-1,2.483928919E0
9.105788143E0,5.150353909E-1,-4.750237167E-1,2.021504164E0
9.110542675E0,1.570686102E-1,-1.991801023E0,1.505323529E0
9.115297258E0,-7.671698332E-1,-3.611814260E0,9.726494551E-1
9.120051841E0,-1.674914837E0,-4.843317986E0,4.228711426E-1
9.124806425E0,-2.456821680E0,-5.725406647E0,-1.189659163E-1
9.129561008E0,-3.087234259E0,-6.444394112E0,-6.143772602E-1
9.134315591E0,-3.556378365E0,-7.078472137E0,-1.029154420E0
9.139070175E0,-3.769570112E0,-7.300215721E0,-1.315039158E0
9.143824758E0,-3.611967087E0,-6.696070671E0,-1.475085735E0
9.148579341E0,-2.977889538E0,-5.127980709E0,-1.534950495E0
9.153333925E0,-1.873445868E0,-2.776762247E0,-1.508072376E0
9.158088508E0,-5.588648915E-1,-1.341611743E-1,-1.419497013E0
9.162843091E0,6.763036847E-1,2.255541801E0,-1.298545837E0
9.167597675E0,1.704999924E0,4.133951187E0,-1.167820692E0
9.172352258E0,2.513784885E0,5.529166222E0,-1.045647740E0
9.177106841E0,3.123427868E0,6.565192699E0,-9.283617735E-1
9.181861425E0,3.565694094E0,7.353208542E0,-7.854194045E-1
9.186616008E0,3.877846003E0,7.934751511E0,-6.278162599E-1
9.191370539E0,4.105698586E0,8.257899284E0,-5.025889874E-1
9.196125123E0,4.299953461E0,8.270116806E0,-4.457785785E-1
9.200879706E0,4.464887142E0,7.956742764E0,-4.818195999E-1
9.205634289E0,4.569955826E0,7.316556454E0,-6.229293346E-1
9.210388873E0,4.588281631E0,6.414309025E0,-8.520036340E-1
9.215143456E0,4.508258343E0,5.366065502E0,-1.145218730E0
9.219898039E0,4.299953461E0,4.276893616E0,-1.489746451E0
9.224652623E0,3.923660755E0,3.198717117E0,-1.872147799E0
9.229407206E0,3.238881350E0,2.184681416E0,-2.266155720E0
9.234161789E0,2.372064352E0,1.238451958E0,-2.546542645E0
9.238916373E0,1.530903459E0,2.971093655E-1,-2.569755316E0
9.243670956E0,5.510764122E-1,-6.711113453E-1,-2.522718906E0
9.248425539E0,-7.390699983E-1,-1.329623580E0,-2.341291904E0
9.253180123E0,-2.004781961E0,-1.335732222E0,-1.921627879E0
9.257934654E0,-2.937572479E0,-5.929206014E-1,-1.253341794E0
9.262689237E0,-3.472689867E0,5.567268729E-1,-3.590357602E-1
9.267443821E0,-3.673053503E0,1.828547359E0,6.012436748E-1
9.272198404E0,-3.664501429E0,3.001407623E0,1.551749229E0
9.276952987E0,-3.461083412E0,3.812025309E0,2.450331450E0
9.281707571E0,-2.795851707E0,4.198091984E0,3.307374716E0
9.286462154E0,-1.001131058E0,4.251847744E0,4.045910358E0
9.291216737E0,1.201036572E0,3.869446516E0,4.560869217E0
9.295971321E0,2.741026640E0,3.253083944E0,5.001913548E0
9.300725904E0,3.317072153E0,2.646495342E0,5.474722862E0
9.305480487E0,3.344561100E0,1.991648197E0,5.917599678E0
9.310235071E0,3.120984554E0,1.170035124E0,6.238303661E0
9.314989654E0,2.772791624E0,1.248454899E-1,6.402015686E0
9.319744237E0,2.400164127E0,-1.097494960E0,6.436834812E0
9.324498768E0,2.099007845E0,-2.402912855E0,6.344594479E0
9.329253352E0,1.964006662E0,-3.548284531E0,6.105746269E0
9.334007935E0,2.008599758E0,-4.321028233E0,5.749611855E0
9.338762518E0,2.156429052E0,-4.649673462E0,5.360491276E0
9.343517102E0,2.391612053E0,-3.934961796E0,5.001302719E0
9.348271685E0,2.631681919E0,-1.583132386E0,4.703811646E0
9.353026268E0,2.513784885E0,1.250669241E0,4.449691772E0
9.357780852E0,2.121609688E0,3.110141754E0,4.202291489E0
9.362535435E0,1.781968951E0,3.739943266E0,3.964665174E0
9.367290018E0,1.653076410E0,3.520031929E0,3.780184031E0
9.372044602E0,1.691560984E0,2.860908747E0,3.659232855E0
9.376799185E0,1.772195101E0,2.170020819E0,3.527896881E0
9.381553716E0,1.797851443E0,1.752189279E0,3.384343624E0
9.386308300E0,1.755090833E0,1.438815594E0,3.225518703E0
9.391062883E0,1.655519962E0,1.061301231E0,3.026987791E0
9.395817466E0,1.531514406E0,7.186060548E-1,2.783252716E0
9.400572050E0,1.409952283E0,4.241692424E-1,2.528522015E0
9.405326633E0,1.313435674E0,2.250273079E-1,2.293339014E0
9.410081216E0,1.249294877E0,1.627191007E-1,2.091753721E0
9.414835800E0,1.221805930E0,1.908188909E-1,1.948200464E0
9.419590383E0,1.238299251E0,2.683987021E-1,1.878561854E0
9.424344966E0,1.320155144E0,4.107302129E-1,1.868177176E0
9.429099550E0,1.516853571E0,6.562978625E-1,1.907883406E0
9.433854133E0,1.777692914E0,9.684497714E-1,1.997680545E0
9.438608716E0,1.888259411E0,1.155374408E0,2.100305796E0
9.443363248E0,1.807014346E0,1.116279006E0,2.168722630E0
9.448117831E0,1.610926747E0,8.444442153E-1,2.195600748E0
9.452872414E0,1.370856881E0,3.649153411E-1,2.189491987E0
9.457626998E0,1.124678373E0,-2.593884468E-1,2.158338070E0
9.462381581E0,9.059888124E-1,-9.270636439E-1,2.103971004E0
9.467136164E0,7.288380265E-1,-1.527543783E0,2.014784813E0
9.471890748E0,5.901717544E-1,-1.995466113E0,1.876729369E0
9.476645331E0,4.600575268E-1,-2.297844172E0,1.688583016E0
9.481399914E0,3.110065162E-1,-2.418184519E0,1.461952090E0
9.486154498E0,9.292780608E-2,-2.311894178E0,1.213940978E0
9.490909081E0,-2.540434003E-1,-1.915442824E0,9.384410381E-1
9.495663612E0,-6.663771272E-1,-1.323514938E0,6.537780166E-1
9.500418196E0,-1.048167586E0,-7.114284039E-1,3.788888752E-1
9.505172779E0,-1.345658779E0,-1.671478748E-1,1.033888608E-1
9.509927362E0,-1.568013549E0,2.958876193E-1,-1.818849891E-1
9.514681946E0,-1.729281783E0,7.051670551E-1,-4.793761373E-1
9.519436529E0,-1.840459228E0,1.011210322E0,-7.738129497E-1
9.524191112E0,-1.885663271E0,1.111392140E0,-1.050534725E0
9.528945696E0,-1.833739758E0,9.385173917E-1,-1.290604591E0
9.533700279E0,-1.704236388E0,5.622246861E-1,-1.509904981E0
9.538454862E0,-1.570456982E0,1.566104591E-1,-1.718209863E0
9.543209446E0,-1.482492447E0,-1.573740393E-1,-1.929569125E0
9.547964029E0,-1.470275164E0,-3.436878026E-1,-2.141539097E0
9.552718560E0,-1.539913774E0,-4.059959948E-1,-2.339459419E0
9.557473143E0,-1.687132120E0,-3.614028692E-1,-2.520275354E0
9.562227727E0,-1.891160965E0,-2.380081862E-1,-2.680321932E0
9.566982310E0,-2.101298571E0,-9.078978002E-2,-2.834870815E0
9.571736893E0,-2.282114506E0,5.276344717E-2,-2.997360706E0
9.576491477E0,-2.426278591E0,2.109774202E-1,-3.172678947E0
9.581246060E0,-2.538677692E0,3.856847584E-1,-3.355938435E0
9.586000643E0,-2.622977018E0,5.512291193E-1,-3.554469347E0
9.590755227E0,-2.678565741E0,6.825650334E-1,-3.767661333E0
9.595509810E0,-2.718271971E0,7.369319797E-1,-4.003455162E0
9.600264341E0,-2.765308380E0,6.459131241E-1,-4.270402908E0
9.605018925E0,-2.831281900E0,3.807978332E-1,-4.585608959E0
9.609773508E0,-2.914970398E0,-3.703367710E-2,-4.958847523E0
9.614528091E0,-3.018206596E0,-5.458840132E-1,-5.390728951E0
9.619282675E0,-3.145877361E0,-1.080390692E0,-5.893470764E0
9.624037258E0,-3.285154343E0,-1.545258760E0,-6.544652462E0
9.628791841E0,-3.444590092E0,-1.674151301E0,-7.374207020E0
9.633546425E0,-3.667555809E0,-8.433752060E-1,-8.372970581E0
9.638301008E0,-3.660225391E0,1.542662621E0,-9.518953323E0
9.643055591E0,-3.282100201E0,4.173046589E0,-1.061850929E1
9.647810175E0,-2.802571297E0,6.025188446E0,-1.144012260E1
9.652564706E0,-2.137339592E0,7.243863583E0,-1.182252407E1
9.657319289E0,-1.309617758E0,7.961019039E0,-1.149510098E1
9.662073873E0,-3.291797638E-1,7.846786976E0,-1.046518230E1
9.666828456E0,6.274344921E-1,7.172392368E0,-8.823178291E0
9.671583039E0,1.440495491E0,6.366662025E0,-6.917891026E0
9.676337623E0,2.058690548E0,5.546270370E0,-5.175093651E0
9.681092206E0,2.468580961E0,5.034976482E0,-3.728565931E0
9.685846789E0,2.653672934E0,4.730154991E0,-2.582583666E0
9.690601373E0,2.647564411E0,4.424111843E0,-1.675449371E0
