"Time (s)","Acceleration x (m/s^2)","Acceleration y (m/s^2)","Acceleration z (m/s^2)"
7.467045000E-3,2.256431818E0,5.551348686E0,6.250052929E0
1.212886800E-2,2.141576290E0,5.575276852E0,6.273981094E0
1.688428400E-2,2.050648928E0,5.266602516E0,6.376872540E0
2.163959700E-2,2.026720762E0,5.029713154E0,6.465406895E0
2.639496100E-2,2.141576290E0,4.771288395E0,6.647261143E0
3.115032600E-2,1.849651933E0,4.558327198E0,6.623332977E0
3.590563900E-2,1.856830359E0,4.280759811E0,6.884150982E0
4.066100300E-2,2.038684845E0,3.981656790E0,7.472784996E0
4.541636800E-2,2.328216314E0,3.672982693E0,8.697910309E0
5.017168000E-2,2.404786825E0,3.467200041E0,1.015274620E1
5.492704500E-2,2.548356056E0,3.294916868E0,1.135633659E1
5.968240900E-2,2.636890650E0,3.275774240E0,1.196650600E1
6.443772200E-2,2.220539331E0,3.474378586E0,1.197129154E1
6.919308600E-2,1.586441398E0,3.680161238E0,1.155733299E1
7.394845100E-2,1.232303619E0,3.696911097E0,1.101177025E1
7.870376400E-2,1.076770186E0,3.661018610E0,1.028435135E1
8.345912800E-2,9.906286001E-1,3.644268990E0,9.578469276E0
8.821449300E-2,8.398807645E-1,3.574877024E0,8.970691681E0
9.296985700E-2,7.250252366E-1,3.548556089E0,8.487341881E0
9.772517000E-2,6.795616150E-1,3.596412420E0,8.145168304E0
1.024805340E-1,2.416750938E-1,4.022335052E0,7.704888821E0
1.072358990E-1,9.571290575E-3,4.149154663E0,7.496713161E0
1.119912110E-1,-4.785645287E-3,4.163511276E0,7.408178806E0
1.167465760E-1,4.785645381E-2,4.048655987E0,7.470392227E0
1.215019410E-1,5.982056633E-2,4.005585194E0,7.312466145E0
1.262573050E-1,-4.546362907E-2,4.003192425E0,7.006184578E0
1.310126180E-1,-1.292124242E-1,3.914657831E0,6.809973240E0
1.357679820E-1,-2.249253243E-1,3.780659676E0,6.601797581E0
1.405233470E-1,-3.014956415E-1,3.625126362E0,6.362515450E0
1.452786590E-1,-4.115654826E-1,3.529413462E0,6.384050846E0
1.500340240E-1,-5.910272002E-1,3.376272678E0,6.805187702E0
1.547893890E-1,-7.441678643E-1,3.282952785E0,7.379465103E0
1.595447530E-1,-8.327022791E-1,3.192025423E0,7.944170952E0
1.643000660E-1,-9.403793216E-1,3.091526747E0,8.506484032E0
1.690554300E-1,-9.954141974E-1,3.036491871E0,8.980263710E0
1.738107950E-1,-1.067198873E0,2.952743053E0,9.408578873E0
1.785661070E-1,-1.007378340E0,2.878565550E0,9.683753014E0
1.833214720E-1,-7.968099117E-1,2.773281336E0,9.662218094E0
1.880768360E-1,-6.388836503E-1,2.624926329E0,9.678967476E0
1.928322010E-1,-5.670989752E-1,2.533999205E0,9.762716293E0
1.975875140E-1,-5.479564071E-1,2.529213428E0,9.848857880E0
2.023428780E-1,-5.862415433E-1,2.572284460E0,9.865608215E0
2.070982430E-1,-6.364908218E-1,2.715853691E0,9.856036186E0
2.118535550E-1,-7.106683254E-1,2.811566591E0,9.848857880E0
2.166089200E-1,-6.675975323E-1,2.873780012E0,9.844072342E0
2.213642840E-1,-7.154539824E-1,2.816352367E0,9.817750931E0
2.261196490E-1,-6.747759581E-1,2.775674343E0,9.827322960E0
2.308749610E-1,-6.269195080E-1,2.636890650E0,9.994820595E0
2.356303260E-1,-5.503492355E-1,2.459821701E0,1.032263660E1
2.403856910E-1,-4.977070987E-1,2.325823545E0,1.060020447E1
2.451410550E-1,-2.129612118E-1,2.093719721E0,1.162911797E1
2.498963680E-1,-3.014956415E-1,2.029113531E0,1.186600780E1
2.546517320E-1,-6.053841114E-1,2.098505497E0,1.120080280E1
2.594070970E-1,-7.728816867E-1,2.110469580E0,1.070070267E1
2.641624610E-1,-8.494520187E-1,2.132004976E0,1.045184898E1
2.689177740E-1,-7.992027402E-1,2.143969059E0,1.038245773E1
2.736731390E-1,-7.226324677E-1,2.194218397E0,1.031785107E1
2.784285030E-1,-6.819544435E-1,2.263610125E0,1.020060253E1
2.831838680E-1,-6.293123364E-1,2.347358942E0,1.002353382E1
2.879391800E-1,-6.029912829E-1,2.438286304E0,9.789037704E0
2.926945450E-1,-8.685946465E-1,2.502892494E0,9.590433121E0
2.974499090E-1,-9.906286001E-1,2.560320139E0,9.394221306E0
3.022052740E-1,-1.095912814E0,2.586641312E0,9.164510727E0
3.069605860E-1,-1.127019525E0,2.586641312E0,9.035298347E0
3.117159510E-1,-1.076770186E0,2.488535643E0,9.346364975E0
3.164713160E-1,-9.906286001E-1,2.414358139E0,9.681360245E0
3.212266800E-1,-9.882357717E-1,2.361716032E0,9.841679573E0
3.259819930E-1,-1.012163997E0,2.306680918E0,9.803394318E0
3.307373570E-1,-1.050449133E0,2.299502611E0,9.693324089E0
3.354927220E-1,-1.064806104E0,2.249253273E0,9.635896683E0
3.402480860E-1,-1.095912814E0,2.225325108E0,9.626325607E0
3.450033990E-1,-1.110269666E0,2.189432621E0,9.600004196E0
3.497587640E-1,-1.007378340E0,2.158325911E0,9.556933403E0
3.545141280E-1,-7.728816867E-1,2.175075769E0,9.403793335E0
3.592694930E-1,-3.565305769E-1,2.165504456E0,9.221938133E0
3.640248570E-1,1.651047617E-1,2.246860504E0,9.114261627E0
3.687801700E-1,7.250252366E-1,2.330609322E0,9.142974854E0
3.735355340E-1,1.337587833E0,2.450250387E0,9.267401695E0
3.782908990E-1,1.820937991E0,2.581855536E0,9.430113792E0
3.830462640E-1,2.069791555E0,2.739781857E0,9.559326172E0
3.878016280E-1,2.079362869E0,2.895315409E0,9.645467758E0
3.925569410E-1,1.768295884E0,2.971885681E0,9.602396965E0
3.973123050E-1,1.328016520E0,2.959921598E0,9.533005714E0
4.020676700E-1,7.800601721E-1,2.857030153E0,9.552147865E0
4.068230340E-1,-1.100698411E-1,2.943171740E0,9.523433685E0
4.115783990E-1,-1.055234790E0,2.986242771E0,9.485149384E0
4.163337110E-1,-1.761117458E0,2.876172781E0,9.805787086E0
4.210890760E-1,-2.313859463E0,2.555534601E0,1.053559780E1
4.258444410E-1,-2.519642353E0,2.081755638E0,1.093759251E1
4.305998050E-1,-2.254039049E0,1.514656782E0,1.107159042E1
4.353551700E-1,-2.048256159E0,1.287338614E0,1.070548820E1
4.401104820E-1,-1.789831281E0,1.182054400E0,1.042313576E1
4.448658470E-1,-1.435693622E0,1.131805062E0,1.033220863E1
4.496212110E-1,-7.800601721E-1,1.127019525E0,1.011685371E1
4.543765760E-1,-6.221338734E-2,1.313659668E0,9.760323524E0
4.591318890E-1,1.890329868E-1,1.713261008E0,9.554540634E0
4.638872530E-1,-2.368894368E-1,2.079362869E0,9.437292099E0
4.686426180E-1,-9.116654396E-1,2.333002090E0,9.348757744E0
4.733979820E-1,-1.237089276E0,2.421536446E0,9.073583603E0
4.781533470E-1,-1.131805062E0,2.435893536E0,8.724231720E0
4.829086590E-1,-9.068797827E-1,2.400001049E0,8.465806961E0
4.876640240E-1,-6.460621357E-1,2.373680115E0,8.291130066E0
4.924193890E-1,-7.896314561E-2,2.268395901E0,8.154739380E0
4.971747530E-1,4.785645287E-3,2.191825628E0,8.087740898E0
5.019301180E-1,1.962114573E-1,2.100898266E0,8.106883049E0
5.066854820E-1,3.182454109E-1,2.055434704E0,8.082955360E0
5.114407950E-1,1.076770201E-1,2.060220242E0,8.130811691E0
5.161961590E-1,-2.943171859E-1,2.069791555E0,8.362915039E0
5.209515240E-1,-7.298108935E-1,2.148754835E0,8.726624489E0
5.257068890E-1,-1.050449133E0,2.304288149E0,9.126225471E0
5.304622530E-1,-1.143769264E0,2.749353170E0,9.454042435E0
5.352175660E-1,-1.562513232E0,3.426522017E0,9.726823807E0
5.399729300E-1,-1.897508383E0,3.445664644E0,1.009771156E1
5.447282950E-1,-2.215753794E0,3.292523861E0,1.031545830E1
5.494836590E-1,-2.321038008E0,2.907279491E0,1.070548820E1
5.542390240E-1,-1.947757602E0,2.610569477E0,1.064327526E1
5.589943890E-1,-1.373480201E0,2.266003132E0,1.053320503E1
5.637497010E-1,-9.164510965E-1,2.045863390E0,1.039202881E1
5.685050660E-1,-5.886343718E-1,1.873580098E0,1.002353382E1
5.732604300E-1,-4.283152521E-1,1.758724689E0,9.470791817E0
5.780157950E-1,-4.187439680E-1,1.720439434E0,8.958727837E0
5.827711590E-1,-4.187439680E-1,1.749153376E0,8.645268440E0
5.875265240E-1,-3.900300860E-1,1.818545222E0,8.520841599E0
5.922818360E-1,-4.091726840E-1,1.887937069E0,8.391629219E0
5.970372010E-1,-5.455635786E-1,1.907079697E0,8.331808090E0
6.017925660E-1,-6.053841114E-1,2.002792597E0,8.449056625E0
6.065479300E-1,-6.245267391E-1,1.981257200E0,8.472985268E0
6.113032950E-1,-5.742774606E-1,1.914258122E0,8.547162056E0
6.160586590E-1,-4.857429862E-1,1.828116536E0,8.717052460E0
6.208139720E-1,-4.977070987E-1,1.670190215E0,8.714659691E0
6.255693360E-1,-5.910272002E-1,1.555334687E0,8.831908226E0
6.303247010E-1,-6.843472719E-1,1.478764415E0,8.819944382E0
6.350800660E-1,-8.853443861E-1,1.435693622E0,8.836693764E0
6.398354300E-1,-1.045663476E0,1.471585870E0,8.846264839E0
6.445907950E-1,-1.170090318E0,1.519442320E0,8.714659691E0
6.493461070E-1,-1.497906923E0,1.552941918E0,8.559126854E0
6.541014720E-1,-1.875972986E0,1.569691658E0,8.480163574E0
6.588568360E-1,-2.074577332E0,1.689332843E0,8.470592499E0
6.636122010E-1,-2.158325911E0,1.859223247E0,8.432307243E0
6.683675660E-1,-2.210968018E0,1.998006940E0,8.377271652E0
6.731229300E-1,-2.478964329E0,2.036292076E0,8.413164139E0
6.778782430E-1,-2.687139750E0,2.017149448E0,8.456234932E0
6.826336070E-1,-2.565105915E0,1.914258122E0,8.437092781E0
6.873889720E-1,-2.452643156E0,1.761117458E0,8.446663857E0
6.921443360E-1,-2.337787628E0,1.639083505E0,8.389236450E0
6.968997010E-1,-2.316252232E0,1.445264935E0,8.257631302E0
7.016550660E-1,-2.105684042E0,1.217946768E0,8.037490845E0
7.064104300E-1,-1.971685886E0,1.050449133E0,7.889136314E0
7.111657430E-1,-2.165504456E0,8.877372146E-1,7.819744587E0
7.159211070E-1,-2.270788670E0,7.704889178E-1,7.819744587E0
7.206764720E-1,-2.292324066E0,8.183453679E-1,7.601997375E0
7.254318360E-1,-2.524427891E0,8.255237937E-1,7.759923935E0
7.301872010E-1,-2.538784742E0,8.327022791E-1,8.032705307E0
7.349425660E-1,-2.500499725E0,8.207381964E-1,8.128418922E0
7.396979300E-1,-2.847458839E0,8.255237937E-1,8.666803360E0
7.444532950E-1,-2.833101988E0,7.202396393E-1,8.963513374E0
7.492086070E-1,-2.799602509E0,6.460621357E-1,9.200403214E0
7.539639720E-1,-2.873780012E0,6.747759581E-1,9.427721024E0
7.587193360E-1,-3.069991350E0,7.034898400E-1,9.329615593E0
7.634747010E-1,-2.969492912E0,7.082754970E-1,9.056833267E0
7.682300660E-1,-2.962314367E0,7.680960894E-1,8.776873589E0
7.729854300E-1,-3.019742250E0,8.566305041E-1,8.520841599E0
7.777407950E-1,-3.067598581E0,9.523434043E-1,8.264809608E0
7.824961070E-1,-3.184846878E0,9.762716293E-1,8.051848412E0
7.872514720E-1,-3.361915827E0,9.738788009E-1,7.939385414E0
7.920068360E-1,-3.493520975E0,9.260223508E-1,7.941778183E0
7.967622010E-1,-3.716053486E0,8.757730722E-1,8.006384850E0
8.015175660E-1,-3.577269793E0,7.513462901E-1,7.980063438E0
8.062729300E-1,-3.476771355E0,6.532405615E-1,8.051848412E0
8.110282950E-1,-3.460021496E0,5.264210105E-1,8.104490280E0
8.157836590E-1,-3.476771355E0,4.163511395E-1,8.140382767E0
8.205389720E-1,-3.565305710E0,3.254238665E-1,8.111668587E0
8.252943360E-1,-3.730410576E0,2.799602449E-1,8.128418922E0
8.300497010E-1,-3.732803345E0,3.373879790E-1,8.324629784E0
8.348050660E-1,-3.742374659E0,4.378865361E-1,8.547162056E0
8.395604300E-1,-3.835694790E0,5.216353536E-1,8.599804878E0
8.443157950E-1,-3.996013880E0,5.024927258E-1,8.508877754E0
8.490711590E-1,-4.242474556E0,4.642075896E-1,8.195417404E0
8.538265240E-1,-4.524827480E0,3.062812984E-1,7.953742504E0
8.585818360E-1,-4.594219685E0,-4.067798331E-2,7.374679565E0
8.633372010E-1,-4.677968502E0,-3.254238665E-1,6.975078106E0
8.680925660E-1,-4.835894585E0,-4.378865361E-1,6.690331936E0
8.728479300E-1,-5.094319344E0,-4.570291340E-1,6.384050846E0
8.776032950E-1,-5.324030399E0,-4.378865361E-1,6.190232277E0
8.823586590E-1,-5.458028316E0,-4.331009090E-1,6.089733601E0
8.871140240E-1,-5.649454117E0,-4.043870270E-1,5.936593056E0
8.918693890E-1,-5.958128452E0,-3.684946895E-1,5.599205017E0
8.966247530E-1,-6.467799664E0,-2.799602449E-1,5.402993679E0
9.013800660E-1,-7.104290485E0,-1.363908947E-1,5.434100151E0
9.061354300E-1,-7.678567886E0,5.982056633E-2,5.594419479E0
9.108907950E-1,-8.106883049E0,3.972085714E-1,6.015556335E0
9.156461590E-1,-8.370093346E0,7.585247755E-1,6.403193474E0
9.204015240E-1,-8.484949112E0,1.067198873E0,6.838686943E0
9.251568890E-1,-8.525627136E0,1.237089276E0,7.140182972E0
9.299122530E-1,-8.506484032E0,1.205982566E0,7.267002583E0
9.346676180E-1,-8.532805443E0,1.124626637E0,7.389036179E0
9.394229820E-1,-8.604590416E0,9.858429432E-1,7.436892986E0
9.441783470E-1,-8.683553696E0,8.231309652E-1,7.247859955E0
9.489336590E-1,-8.707481384E0,6.699903607E-1,6.960721016E0
9.536890240E-1,-8.654839516E0,5.527420044E-1,6.812366009E0
9.584443890E-1,-8.496912956E0,4.307080805E-1,6.613761902E0
9.631997530E-1,-8.391629219E0,3.086741269E-1,6.647261143E0
9.679551180E-1,-8.228917122E0,1.842473447E-1,6.362515450E0
9.727104820E-1,-8.195417404E0,6.221338734E-2,5.994020939E0
9.774658470E-1,-8.238488197E0,-1.052841991E-1,5.668596745E0
9.822212110E-1,-8.415556908E0,-2.751746178E-1,5.376672268E0
9.869765760E-1,-8.733802795E0,-3.326023519E-1,5.168497086E0
9.917319410E-1,-9.032905579E0,-3.230310678E-1,5.022534847E0
9.964873050E-1,-9.291330338E0,-2.464607358E-1,4.898108006E0
1.001242618E0,-9.186046600E0,-4.618147612E-1,4.436293125E0
1.005997982E0,-9.353543282E0,-4.713860750E-1,4.285545349E0
1.010753347E0,-9.442078590E0,-3.684946895E-1,4.409972191E0
1.015508711E0,-9.695717812E0,-2.464607358E-1,4.613361835E0
1.020264076E0,-9.920642853E0,-1.339980662E-1,4.749752998E0
1.025019441E0,-1.007139015E1,3.589234129E-2,4.914857864E0
1.029774805E0,-1.019820976E1,1.579262912E-1,5.163711071E0
1.034530170E0,-1.050209904E1,2.368894368E-1,5.338387489E0
1.039285534E0,-1.088495064E1,2.440679073E-1,5.362315655E0
1.044040899E0,-1.106680489E1,1.555334777E-1,5.151747227E0
1.048796211E0,-1.109791183E1,8.853443712E-2,4.955535889E0
1.053551576E0,-1.103091240E1,-1.435693540E-2,4.886143684E0
1.058306941E0,-1.094237804E1,-1.100698411E-1,4.780859470E0
1.063062305E0,-1.064327526E1,-5.240281820E-1,4.457828522E0
1.067817670E0,-1.090887833E1,-6.939185858E-1,4.340580463E0
1.072573034E0,-1.096391296E1,-7.058826685E-1,4.302295208E0
1.077328399E0,-1.097587776E1,-7.154539824E-1,4.182653904E0
1.082083764E0,-1.090648556E1,-7.178468108E-1,4.012763500E0
1.086839128E0,-1.080838013E1,-7.465606928E-1,3.888336897E0
1.091594493E0,-1.087059307E1,-7.513462901E-1,3.771088600E0
1.096349857E0,-1.101894855E1,-8.039883971E-1,3.560520172E0
1.101105222E0,-1.117926693E1,-8.781659007E-1,3.314059258E0
1.105860534E0,-1.138983536E1,-8.829515576E-1,3.141776085E0
1.110615899E0,-1.161715412E1,-8.350951076E-1,2.938386202E0
1.115371264E0,-1.188036442E1,-7.776673436E-1,2.672782898E0
1.120126628E0,-1.211246777E1,-7.345965505E-1,2.467000246E0
1.124881993E0,-1.187557888E1,-1.050449133E0,2.196611166E0
1.129637357E0,-1.210528946E1,-1.229910851E0,2.120040894E0
1.134392722E0,-1.234457207E1,-1.153340459E0,2.206182480E0
1.139148086E0,-1.278485107E1,-8.111668825E-1,2.342573404E0
1.143903451E0,-1.311027527E1,-4.139583111E-1,2.471785784E0
1.148658816E0,-1.315813160E1,-8.853443712E-2,2.505285263E0
1.153414180E0,-1.300259781E1,7.657032460E-2,2.553141832E0
1.158169545E0,-1.295952702E1,2.105683982E-1,2.584248543E0
1.162924857E0,-1.300738430E1,2.153540403E-1,2.672782898E0
1.167680274E0,-1.298345566E1,2.536391914E-1,2.799602509E0
1.172435586E0,-1.281117249E1,5.024927482E-2,2.888136864E0
1.177190951E0,-1.244746304E1,-3.780659735E-1,2.837887764E0
1.181946316E0,-1.210768223E1,-8.829515576E-1,2.806781054E0
1.186701680E0,-1.190907860E1,-1.337587833E0,2.861815929E0
1.191457045E0,-1.181575775E1,-1.658226132E0,2.758924484E0
1.196212409E0,-1.179661560E1,-1.818545222E0,2.730210543E0
1.200967774E0,-1.183968639E1,-1.897508383E0,2.758924484E0
1.205723139E0,-1.192343521E1,-1.897508383E0,2.754138947E0
1.210478503E0,-1.204546928E1,-1.895115495E0,2.720639229E0
1.215233868E0,-1.218185997E1,-1.914258122E0,2.553141832E0
1.219989232E0,-1.230389404E1,-1.952543259E0,2.316252232E0
1.224744597E0,-1.243071365E1,-2.033899307E0,2.074577332E0
1.229499961E0,-1.244267750E1,-2.170290232E0,1.715653777E0
1.234255326E0,-1.210768223E1,-2.409572363E0,1.397408366E0
1.239010639E0,-1.200000572E1,-2.268395901E0,1.131805062E0
1.243766003E0,-1.190907860E1,-2.050648928E0,9.475577474E-1
1.248521368E0,-1.180618668E1,-1.895115495E0,7.178468108E-1
1.253276732E0,-1.165065384E1,-2.033899307E0,5.814558864E-1
1.258032097E0,-1.104766178E1,-2.538784742E0,6.317051649E-1
1.262787461E0,-1.096869946E1,-2.579462767E0,6.101697683E-1
1.267542826E0,-1.120080280E1,-2.311466694E0,5.670989752E-1
1.272298191E0,-1.122951698E1,-2.112862349E0,6.819544435E-1
1.277053555E0,-1.111705399E1,-2.115255117E0,1.045663476E0
1.281808920E0,-1.110030460E1,-2.246860504E0,1.418943882E0
1.286564284E0,-1.069830990E1,-2.696711063E0,1.818545222E0
1.291319649E0,-1.046142101E1,-2.943171740E0,2.043470621E0
1.296075014E0,-1.085145092E1,-2.904886723E0,2.019542217E0
1.300830378E0,-1.138983536E1,-2.885744095E0,1.887937069E0
1.305585743E0,-1.159801102E1,-2.785245657E0,1.847259045E0
1.310341107E0,-1.162433243E1,-2.691925526E0,1.753939033E0
1.315096472E0,-1.092802143E1,-3.498306751E0,1.722832322E0
1.319851836E0,-1.118166065E1,-3.524627686E0,1.552941918E0
1.324607149E0,-1.116969585E1,-3.448057413E0,1.423729420E0
1.329362514E0,-1.132522964E1,-3.211168051E0,1.524227977E0
1.334117878E0,-1.133240795E1,-2.988635540E0,1.744367719E0
1.338873243E0,-1.127019501E1,-2.768495798E0,2.050648928E0
1.343628607E0,-1.083709335E1,-2.825923443E0,2.285145521E0
1.348383972E0,-1.056191921E1,-2.976671457E0,2.249253273E0
1.353139336E0,-1.061456108E1,-3.072384357E0,2.026720762E0
1.357894701E0,-1.079162979E1,-3.132204771E0,1.749153376E0
1.362650066E0,-1.078205872E1,-3.101098061E0,1.521835208E0
1.367405430E0,-1.067198944E1,-3.136990547E0,1.414158225E0
1.372160795E0,-1.037288570E1,-3.211168051E0,1.339980721E0
1.376916159E0,-9.856036186E0,-3.349951744E0,1.457229018E0
1.381671524E0,-9.678967476E0,-3.479164124E0,1.469193101E0
1.386426889E0,-1.002592659E1,-3.414557934E0,5.000999570E-1
1.391182253E0,-9.990034103E0,-3.211168051E0,8.015955687E-1
1.395937618E0,-9.796216011E0,-3.069991350E0,8.494520187E-1
1.400692982E0,-1.005703354E1,-2.995813847E0,8.015955687E-1
1.405448347E0,-1.065523911E1,-2.864208698E0,7.657032609E-1
1.410203711E0,-1.105005455E1,-2.696711063E0,9.667003751E-1
1.414959024E0,-1.116251755E1,-2.467000246E0,1.045663476E0
1.419714389E0,-1.074377346E1,-2.847458839E0,1.165304661E0
1.424469753E0,-1.119362450E1,-2.596212626E0,1.162911773E0
1.429225118E0,-1.148315620E1,-2.249253273E0,1.100698471E0
1.433980482E0,-1.016231823E1,-1.931007862E0,1.842473447E-1
1.438735847E0,-1.090409279E1,-1.758724689E0,-6.436693072E-1
1.443491211E0,-1.132283688E1,-1.069591761E0,-1.282552958E0
1.448246576E0,-1.217228889E1,-7.274180651E-1,-1.555334687E0
1.453001941E0,-1.262213898E1,-5.934200287E-1,-1.931007862E0
1.457757305E0,-1.269631672E1,-6.364908218E-1,-2.206182480E0
1.462512670E0,-1.251206970E1,-8.231309652E-1,-2.359323025E0
1.467268034E0,-1.231346512E1,-1.105484009E0,-2.763710260E0
1.472023399E0,-1.244267750E1,-1.002592683E0,-2.505285263E0
1.476778764E0,-1.213639641E1,-1.107876897E0,-2.146361828E0
1.481534128E0,-1.199522018E1,-1.313659668E0,-1.732403636E0
1.486289493E0,-1.181097221E1,-1.330409408E0,-8.518448472E-1
1.491044857E0,-1.142812061E1,-1.663011789E0,-3.302095234E-1
1.495800222E0,-1.110030460E1,-2.019542217E0,-1.124626622E-1
1.500555586E0,-1.061456108E1,-2.474178553E0,-2.392822653E-1
1.505310951E0,-1.013838959E1,-2.895315409E0,-3.924229145E-1
1.510066316E0,-9.858428955E0,-3.184846878E0,-4.163511395E-1
1.514821680E0,-9.690931320E0,-3.452843189E0,-3.038884699E-1
1.519577045E0,-9.511469841E0,-3.687339783E0,-8.853443712E-2
1.524332409E0,-9.293723106E0,-3.883551121E0,3.086741269E-1
1.529087774E0,-9.186046600E0,-3.957728624E0,5.503492355E-1
1.533843139E0,-9.150154114E0,-3.972085476E0,8.135597110E-1
1.538598503E0,-9.128618240E0,-3.986442566E0,7.226324677E-1
1.543353868E0,-9.013762474E0,-4.151547432E0,6.532405615E-1
1.548109232E0,-8.946763992E0,-4.266402721E0,4.713860750E-1
1.552864545E0,-9.174081802E0,-4.354937077E0,4.187439680E-1
1.557619909E0,-9.087940216E0,-4.577469826E0,3.397808075E-1
1.562375274E0,-8.592626572E0,-4.709074974E0,3.948157430E-1
1.567130639E0,-8.353343964E0,-4.668396950E0,6.149554253E-1
1.571886003E0,-8.276773453E0,-4.687539577E0,6.891329288E-1
1.576641368E0,-8.331808090E0,-4.658825874E0,7.154539824E-1
1.581396732E0,-8.355736732E0,-4.618147850E0,5.982056856E-1
1.586152097E0,-8.322237015E0,-4.536791801E0,7.896314859E-1
1.590907461E0,-8.382058144E0,-4.491328239E0,8.662018180E-1
1.595662826E0,-8.757730484E0,-4.457828522E0,8.757730722E-1
1.600418191E0,-9.140582085E0,-4.567898273E0,6.699903607E-1
1.605173555E0,-9.506684303E0,-4.709074974E0,9.140582681E-1
1.609928920E0,-9.970891953E0,-4.831109047E0,1.026520967E0
1.614684284E0,-1.019820976E1,-4.912465096E0,7.298108935E-1
1.619439649E0,-1.028674412E1,-4.962714195E0,5.790630579E-1
1.624195014E0,-1.026281643E1,-4.759324074E0,5.383850932E-1
1.628950378E0,-9.963713646E0,-4.565505505E0,1.435693651E-1
1.633705743E0,-9.619147301E0,-4.438685894E0,-1.292124242E-1
1.638461107E0,-9.370293617E0,-4.414757729E0,-4.283152521E-1
1.643216472E0,-9.370293617E0,-4.453042984E0,-3.349951804E-1
1.647971836E0,-9.537791252E0,-4.575077057E0,-5.383850932E-1
1.652727201E0,-9.162117958E0,-4.766502857E0,-5.503492355E-1
1.657482566E0,-8.865407944E0,-4.759324074E0,-3.732803464E-1
1.662237930E0,-8.863015175E0,-4.663611412E0,-2.536391914E-1
1.666993295E0,-9.178867340E0,-4.510470867E0,-3.230310678E-1
1.671748659E0,-9.166903496E0,-4.498506546E0,-6.532405615E-1
1.676504024E0,-8.822337151E0,-4.572684288E0,-9.475577474E-1
1.681259389E0,-8.530412674E0,-4.627718925E0,-9.786644578E-1
1.686014753E0,-8.190631866E0,-4.756931305E0,-9.284151793E-1
1.690770118E0,-7.905886173E0,-5.142175674E0,-7.776673436E-1
1.695525482E0,-7.683353424E0,-5.259424210E0,-8.997012973E-1
1.700280847E0,-7.556533813E0,-5.075176716E0,-3.948157430E-1
1.705036211E0,-7.721638680E0,-5.137390137E0,-1.962114573E-1
1.709791576E0,-7.731209755E0,-5.218746185E0,-3.684946895E-1
1.714546941E0,-7.604390144E0,-5.192425251E0,-2.775674164E-1
1.719302305E0,-7.704888821E0,-4.991427898E0,-7.178467698E-3
1.724057670E0,-8.044670105E0,-4.701896667E0,3.756731451E-1
1.728813034E0,-7.537391186E0,-4.271188259E0,1.170090318E0
1.733568399E0,-8.410771370E0,-4.287938118E0,1.373480201E0
1.738323711E0,-9.260223389E0,-3.972085476E0,1.450050473E0
1.743079076E0,-9.829715729E0,-3.871587038E0,1.576870084E0
1.747834441E0,-1.052363396E1,-4.098905087E0,1.617548108E0
1.752589805E0,-1.120798111E1,-4.321437836E0,1.653440475E0
1.757345170E0,-1.165065384E1,-4.448257446E0,1.840080619E0
1.762100534E0,-1.193779182E1,-4.364508629E0,1.907079697E0
1.766855899E0,-1.222253799E1,-4.194618225E0,1.667797327E0
1.771611264E0,-1.250489140E1,-3.991228104E0,1.194018483E0
1.776366628E0,-1.257667542E1,-3.826123476E0,8.853443861E-1
1.781121993E0,-1.243789196E1,-3.704089403E0,6.867401004E-1
1.785877357E0,-1.206939697E1,-3.929014683E0,2.440679073E-1
1.790632722E0,-1.202871990E1,-3.854837179E0,6.317051649E-1
1.795388086E0,-1.146879864E1,-3.852444410E0,7.704889178E-1
1.800143451E0,-1.113619614E1,-3.909872293E0,8.829515576E-1
1.804898816E0,-1.099262714E1,-4.158725739E0,5.431707501E-1
1.809654180E0,-1.077248764E1,-4.249652863E0,4.642075896E-1
1.814409545E0,-1.051884842E1,-4.280759811E0,3.014956415E-1
1.819164909E0,-1.058824062E1,-4.046263218E0,-3.828516230E-2
1.823920274E0,-9.844072342E0,-4.079762459E0,1.220339537E-1
1.828675639E0,-9.856036186E0,-4.115654945E0,-1.890329868E-1
1.833431003E0,-1.077488041E1,-4.000799656E0,-7.178468108E-1
1.838186368E0,-1.166501045E1,-3.637090445E0,-9.547362328E-1
1.842941732E0,-1.191625690E1,-3.077169895E0,-6.580262184E-1
1.847697097E0,-1.161476135E1,-2.687139750E0,-3.613162339E-1
1.852452461E0,-1.123669529E1,-2.589034081E0,3.349951655E-2
1.857207826E0,-1.076291656E1,-2.682354212E0,3.589234129E-2
1.861963191E0,-1.066720295E1,-2.794816732E0,6.221338734E-2
1.866718555E0,-1.057149029E1,-2.811566591E0,-1.435693540E-2
1.871473920E0,-1.064327526E1,-2.816352367E0,1.028913707E-1
1.876229284E0,-1.103569794E1,-2.859423161E0,5.024927258E-1
1.880984649E0,-1.059063339E1,-2.921636343E0,9.284151793E-1
1.885740014E0,-1.013599682E1,-3.062813044E0,1.284945726E0
1.890495378E0,-9.858428955E0,-3.108276606E0,1.639083505E0
1.895250743E0,-9.640682220E0,-3.072384357E0,1.631905079E0
1.900006107E0,-8.733802795E0,-3.184846878E0,1.648654819E0
1.904761472E0,-9.016156197E0,-3.512663603E0,1.452443361E0
1.909516836E0,-9.224330902E0,-3.842873096E0,1.239482164E0
1.914272201E0,-8.982656479E0,-4.051048756E0,1.158126116E0
1.919027566E0,-8.559126854E0,-4.079762459E0,6.508477330E-1
1.923782930E0,-8.169096947E0,-4.240081787E0,3.972085714E-1
1.928538295E0,-8.023134232E0,-4.417150497E0,3.517449200E-1
1.933293659E0,-8.559126854E0,-4.560719967E0,3.373879790E-1
1.938049024E0,-9.176474571E0,-4.479363918E0,9.571290575E-3
1.942804389E0,-9.279366493E0,-4.697110653E0,-4.091726840E-1
1.947559753E0,-1.015274620E1,-3.909872293E0,3.110669367E-2
1.952315118E0,-1.054995537E1,-3.117847919E0,-6.699903309E-2
1.957070482E0,-1.054756260E1,-3.201596737E0,-3.948157430E-1
1.961825847E0,-1.032742214E1,-3.529413462E0,-2.033899277E-1
1.966581211E0,-1.018863869E1,-3.601198196E0,-7.513462901E-1
1.971336576E0,-1.056909752E1,-3.708875179E0,-6.915257573E-1
1.976091941E0,-1.042552853E1,-3.567698479E0,-8.111668825E-1
1.980847305E0,-1.019342422E1,-3.340380430E0,-8.135597110E-1
1.985602670E0,-1.039202881E1,-3.187239647E0,-9.499505758E-1
1.990358034E0,-1.080359459E1,-3.393022537E0,-7.322037220E-1
1.995113399E0,-1.133719349E1,-3.596412420E0,-4.977070987E-1
1.999868764E0,-1.138026428E1,-3.354737282E0,-7.704889178E-1
2.004624128E0,-1.169611740E1,-2.983849764E0,-6.340979934E-1
2.009379493E0,-1.187557888E1,-2.821137905E0,-5.048855543E-1
2.014134857E0,-1.102373409E1,-2.653640270E0,4.570291340E-1
2.018890222E0,-1.074855900E1,-2.457428932E0,7.657032609E-1
2.023645586E0,-1.140658569E1,-2.749353170E0,7.178467698E-3
2.028400951E0,-1.183490086E1,-3.249453068E0,-9.571290761E-2
2.033156316E0,-1.190190029E1,-3.582055569E0,2.775674164E-1
2.037911680E0,-1.163629627E1,-3.749552965E0,5.647061467E-1
2.042667045E0,-1.141854954E1,-3.806980848E0,3.876372576E-1
2.047422409E0,-1.127258778E1,-3.847658873E0,2.249253243E-1
2.052177774E0,-1.139940739E1,-4.115654945E0,1.938186288E-1
2.056933139E0,-1.178943729E1,-4.436293125E0,2.464607358E-1
2.061688503E0,-1.228953743E1,-4.591826439E0,3.086741269E-1
2.066443868E0,-1.218425274E1,-4.412364960E0,4.402793646E-1
2.071199232E0,-1.242832088E1,-4.687539577E0,2.273181528E-1
2.075954597E0,-1.204546928E1,-4.871787071E0,-8.853443712E-2
2.080709961E0,-1.100937653E1,-4.728217602E0,-2.775674164E-1
2.085465326E0,-9.915857315E0,-4.512863636E0,-3.589234054E-1
2.090220691E0,-9.327222824E0,-4.409972191E0,-4.905286431E-1
2.094976055E0,-9.114261627E0,-4.412364960E0,-8.925228715E-1
2.099731420E0,-9.343972206E0,-4.603790760E0,-1.323230863E0
2.104486784E0,-9.492327690E0,-4.543970108E0,-1.804188251E0
2.109242149E0,-9.623932838E0,-4.316651821E0,-2.088934183E0
2.113997514E0,-9.293723106E0,-4.230510235E0,-2.931207657E0
2.118752878E0,-9.561718941E0,-4.063013077E0,-2.478964329E0
2.123508243E0,-9.363115311E0,-3.495913982E0,-1.643869162E0
2.128263607E0,-8.528019905E0,-3.093919754E0,-1.201196909E0
2.133018972E0,-7.262216568E0,-2.859423161E0,-6.412764788E-1
2.137774336E0,-7.334001541E0,-3.213560820E0,-1.251446247E0
2.142529701E0,-8.171489716E0,-3.553341627E0,-1.868794441E0
2.147285066E0,-8.807980537E0,-3.929014683E0,-2.036292076E0
2.152040430E0,-9.286544800E0,-4.024727821E0,-1.789831281E0
2.156795795E0,-8.987442017E0,-3.895515203E0,-1.548156261E0
2.161551159E0,-8.853444099E0,-3.639483213E0,-1.251446247E0
2.166306524E0,-9.920642853E0,-3.582055569E0,-1.052842021E0
2.171061889E0,-9.954142570E0,-3.177668571E0,-9.786644578E-1
2.175817253E0,-9.693324089E0,-2.945564747E0,-6.675975323E-1
2.180572618E0,-9.332008362E0,-2.792423964E0,-6.412764788E-1
2.185327982E0,-1.002114105E1,-2.967100143E0,-1.253839016E0
2.190083347E0,-1.076052380E1,-2.952743053E0,-9.786644578E-1
2.194838764E0,-1.175833035E1,-2.756531715E0,-7.345965505E-1
2.199594076E0,-1.054516983E1,-1.899901152E0,1.124626622E-1
2.204349493E0,-9.860821724E0,-2.065006018E0,7.178468257E-2
2.209104857E0,-9.552147865E0,-2.447857618E0,-6.005984545E-1
2.213860222E0,-9.473184586E0,-2.490928411E0,-7.058826685E-1
2.218615586E0,-9.308079720E0,-2.392822742E0,-8.039883971E-1
2.223370951E0,-9.367900848E0,-2.261217356E0,-1.170090318E0
2.228126316E0,-9.286544800E0,-1.988435626E0,-1.306481123E0
2.232881680E0,-8.836693764E0,-1.744367719E0,-1.552941918E0
2.237637045E0,-8.573483467E0,-1.741974831E0,-1.720439434E0
2.242392409E0,-8.484949112E0,-1.744367719E0,-1.605584025E0
2.247147774E0,-7.977670670E0,-1.926222205E0,-2.196611166E0
2.251903139E0,-7.657032490E0,-2.222932339E0,-2.763710260E0
2.256658503E0,-7.609176159E0,-2.347358942E0,-2.670390129E0
2.261413868E0,-7.635497093E0,-2.342573404E0,-2.294716835E0
2.266169232E0,-7.496713161E0,-2.388036966E0,-1.904686809E0
2.270924597E0,-7.391428947E0,-2.464607239E0,-1.615155339E0
2.275679961E0,-7.324429989E0,-2.490928411E0,-1.380658627E0
2.280435326E0,-7.319644451E0,-2.447857618E0,-1.210768223E0
2.285190691E0,-7.398607731E0,-2.347358942E0,-1.270588875E0
2.289946055E0,-7.496713161E0,-2.275574446E0,-1.416550994E0
2.294701420E0,-7.661818027E0,-2.297109842E0,-1.646261930E0
2.299456784E0,-8.176275253E0,-2.617748022E0,-3.005385160E0
2.304212149E0,-8.384450912E0,-2.837887764E0,-2.108076811E0
2.308967514E0,-8.327022552E0,-3.036491871E0,-1.493121386E0
2.313722878E0,-8.532805443E0,-3.148954630E0,-1.153340459E0
2.318478243E0,-9.159725189E0,-3.218346357E0,-1.033699393E0
2.323233607E0,-9.635896683E0,-3.122633457E0,-1.026520967E0
2.327988972E0,-9.748359680E0,-2.962314367E0,-1.143769264E0
2.332744336E0,-9.927821159E0,-2.883351326E0,-1.347159147E0
2.337499701E0,-9.829715729E0,-2.945564747E0,-1.572084427E0
2.342255066E0,-9.891928673E0,-2.988635540E0,-1.591227055E0
2.347010430E0,-9.693324089E0,-3.048455954E0,-1.555334687E0
2.351765795E0,-9.358329773E0,-3.163311481E0,-1.588834286E0
2.356521211E0,-9.262616158E0,-3.230310678E0,-1.624726534E0
2.361276576E0,-9.193224907E0,-3.328416348E0,-1.663011789E0
2.366031941E0,-9.159725189E0,-3.622733593E0,-1.674975872E0
2.370787305E0,-9.154939651E0,-3.974478483E0,-2.194218397E0
2.375542670E0,-9.195617676E0,-4.342973232E0,-2.392822742E0
2.380298034E0,-8.994620323E0,-4.539184570E0,-2.598605394E0
2.385053399E0,-8.831908226E0,-4.589433670E0,-2.517249346E0
2.389808764E0,-8.647661209E0,-4.608576298E0,-2.467000246E0
2.394564128E0,-8.566305161E0,-4.627718925E0,-2.720639229E0
2.399319493E0,-8.678768158E0,-4.823930264E0,-2.433500528E0
2.404074857E0,-8.518448830E0,-4.792823792E0,-2.569891453E0
2.408830222E0,-8.391629219E0,-4.725824833E0,-2.356930256E0
2.413585586E0,-8.532805443E0,-4.697110653E0,-2.124826431E0
2.418340951E0,-8.580661774E0,-4.620540619E0,-2.287538528E0
2.423096316E0,-8.863015175E0,-4.572684288E0,-2.053041935E0
2.427851680E0,-9.121439934E0,-4.582255363E0,-2.273181438E0
2.432607045E0,-9.078369141E0,-4.706682205E0,-2.100898266E0
2.437362409E0,-8.788837433E0,-4.725824833E0,-1.964507341E0
2.442117774E0,-8.762516975E0,-4.689932346E0,-2.029113531E0
2.446873139E0,-8.939585686E0,-4.831109047E0,-2.297109842E0
2.451628503E0,-8.944371223E0,-5.060820103E0,-2.615355253E0
2.456383920E0,-8.807980537E0,-5.307280540E0,-2.799602509E0
2.461139284E0,-8.669196129E0,-5.458028316E0,-2.586641312E0
2.465894649E0,-8.831908226E0,-5.659025669E0,-2.256431818E0
2.470650014E0,-8.874979019E0,-5.864808083E0,-1.981257200E0
2.475405378E0,-8.822337151E0,-5.979663849E0,-1.674975872E0
2.480160743E0,-8.733802795E0,-6.087340832E0,-1.414158225E0
2.484916107E0,-8.606983185E0,-6.759724140E0,-1.117448211E0
2.489671472E0,-8.568697929E0,-7.491927624E0,-1.103091240E0
2.494426836E0,-8.951549530E0,-7.884350777E0,-1.028913736E0
2.499182201E0,-9.678967476E0,-8.111668587E0,-1.064806104E0
2.503937566E0,-9.884750366E0,-8.171489716E0,-1.268195987E0
2.508692930E0,-1.024845982E1,-8.626125336E0,-1.789831281E0
2.513448295E0,-1.026042366E1,-8.599804878E0,-1.792224169E0
2.518203659E0,-9.676574707E0,-7.982456207E0,-2.060220242E0
2.522959024E0,-9.209974289E0,-7.298109055E0,-2.201396942E0
2.527714389E0,-9.150154114E0,-6.819544315E0,-2.447857618E0
2.532469805E0,-9.389435768E0,-6.632904530E0,-2.500499725E0
2.537225118E0,-9.391828537E0,-6.750152588E0,-2.562713146E0
2.541980534E0,-9.119047165E0,-6.498906136E0,-2.495713949E0
2.546735899E0,-9.334401131E0,-6.348158360E0,-2.488535643E0
2.551491264E0,-9.767501831E0,-6.226124287E0,-2.632104874E0
2.556246628E0,-9.985248566E0,-6.101697922E0,-2.892922640E0
2.561001993E0,-9.784252167E0,-6.070590973E0,-2.845066071E0
2.565757357E0,-9.396614075E0,-6.075376511E0,-2.813959360E0
2.570512722E0,-9.099904060E0,-6.218945980E0,-2.983849764E0
2.575268086E0,-8.805587769E0,-6.534798622E0,-2.976671457E0
2.580023451E0,-8.504091263E0,-6.984649181E0,-2.983849764E0
2.584778816E0,-8.154739380E0,-7.456035137E0,-2.981456995E0
2.589534180E0,-7.929814339E0,-7.561319351E0,-2.756531715E0
2.594289545E0,-7.494320393E0,-7.171289444E0,-2.517249346E0
2.599044909E0,-7.386643410E0,-6.838686943E0,-2.167897224E0
2.603800274E0,-7.322037220E0,-6.522834301E0,-1.969292998E0
2.608555691E0,-7.027719975E0,-6.290730953E0,-2.000399828E0
2.613311055E0,-6.757331371E0,-6.223731518E0,-1.835294962E0
2.618066420E0,-6.752545357E0,-6.113661766E0,-1.694118381E0
2.622821784E0,-6.745367050E0,-6.017949104E0,-1.643869162E0
2.627577149E0,-6.668796539E0,-5.936593056E0,-1.816152334E0
2.632332514E0,-6.589833736E0,-5.857629776E0,-1.986042738E0
2.637087878E0,-6.506084919E0,-5.761917114E0,-2.072184324E0
2.641843243E0,-6.410371780E0,-5.599205017E0,-2.239681959E0
2.646598607E0,-6.386443615E0,-5.369493961E0,-2.395215511E0
2.651353972E0,-6.331408501E0,-5.190032482E0,-2.533999205E0
2.656109336E0,-6.202196121E0,-4.934000492E0,-2.744567633E0
2.660864701E0,-6.082555294E0,-4.709074974E0,-2.976671457E0
2.665620066E0,-5.962913990E0,-4.512863636E0,-3.060420275E0
2.670375430E0,-5.790630817E0,-4.273581028E0,-3.029313564E0
2.675130795E0,-5.632704735E0,-4.039084435E0,-2.969492912E0
2.679886211E0,-5.398207664E0,-3.804588079E0,-2.957528830E0
2.684641576E0,-5.151747227E0,-3.644268990E0,-2.852244616E0
2.689396941E0,-4.931607246E0,-3.570091486E0,-2.438286304E0
2.694152305E0,-4.778466702E0,-3.529413462E0,-1.883151412E0
2.698907670E0,-4.656432629E0,-3.567698479E0,-1.351944804E0
2.703663034E0,-4.601397991E0,-3.641875982E0,-8.255237937E-1
2.708418399E0,-4.520041943E0,-3.902693748E0,-5.718846321E-1
2.713173764E0,-4.517649174E0,-3.909872293E0,-2.560320199E-1
2.717929128E0,-4.448257446E0,-3.991228104E0,-2.392822644E-3
2.722684493E0,-4.378865242E0,-4.113262177E0,5.264209956E-2
2.727439857E0,-4.297509670E0,-4.266402721E0,7.657032460E-2
2.732195222E0,-4.168296814E0,-4.405186653E0,3.589234129E-2
2.736950639E0,-4.067798615E0,-4.534399033E0,-5.024927482E-2
2.741706003E0,-3.981656790E0,-4.689932346E0,-1.244267747E-1
2.746461368E0,-3.924229145E0,-4.843072891E0,-7.896314561E-2
2.751216732E0,-3.768695593E0,-5.032105923E0,2.201396823E-1
2.755972097E0,-3.294916868E0,-5.120640278E0,1.674975827E-2
2.760727461E0,-2.859423161E0,-5.345565796E0,3.732803464E-1
2.765482826E0,-2.438286304E0,-5.525027275E0,7.657032609E-1
2.770238191E0,-2.105684042E0,-5.489135265E0,1.048056364E0
2.774993555E0,-1.947757602E0,-5.307280540E0,1.440479279E0
2.779748920E0,-1.840080619E0,-5.099104881E0,1.852044702E0
2.784504284E0,-1.610369682E0,-4.981856823E0,2.306680918E0
2.789259649E0,-1.318445325E0,-4.977071285E0,2.749353170E0
2.794015066E0,-9.212366939E-1,-5.022534847E0,3.249453068E0
2.798770430E0,-6.699903607E-1,-5.125426292E0,3.505485058E0
2.803525795E0,-1.823330879E0,-6.008377552E0,9.834501147E-1
2.808281159E0,-1.615155339E0,-5.752345562E0,6.005984545E-1
2.813036524E0,-1.438086390E0,-5.383851051E0,4.713860750E-1
2.817791889E0,-1.071984529E0,-5.003392220E0,6.053841114E-1
2.822547253E0,-4.546363056E-1,-4.608576298E0,9.810572863E-1
2.827302618E0,3.158525825E-1,-4.287938118E0,1.727617979E0
2.832057982E0,7.058826685E-1,-4.436293125E0,2.603390932E0
2.836813347E0,5.551348329E-1,-6.434299946E0,2.766103029E0
2.841568764E0,-3.656233072E0,-1.250967693E1,1.174875975E0
2.846324128E0,-1.079402256E1,-1.754656792E1,-9.547362328E-1
2.851079493E0,-1.079162979E1,-2.324148560E1,-1.971685886E0
2.855834857E0,-1.293081379E1,-2.900579643E1,-3.326023579E0
2.860590222E0,-1.587398529E1,-3.548316574E1,-3.055634499E0
2.865345586E0,-1.728096581E1,-4.036213303E1,-3.067598581E0
2.870100951E0,-1.765185356E1,-4.319284058E1,-2.433500528E0
2.874856316E0,-1.581416512E1,-4.334119797E1,-2.299502611E0
2.879611680E0,-1.141854954E1,-4.018984985E1,-1.868794441E0
2.884367045E0,-6.857829571E0,-3.460978699E1,-1.466800332E0
2.889122409E0,-4.261617184E0,-2.762753105E1,-1.122233868E0
2.893877826E0,-2.514856577E0,-2.176032829E1,-1.031306505E0
2.898633191E0,-7.728816867E-1,-1.746999741E1,-9.978070259E-1
2.903388555E0,6.843472719E-1,-1.420140266E1,-9.284151793E-1
2.908143920E0,1.818545222E0,-1.154776192E1,-9.619147182E-1
2.912899284E0,2.380858421E0,-9.525827408E0,-1.141376376E0
2.917654649E0,2.615355253E0,-7.960920811E0,-1.210768223E0
2.922410014E0,2.687139750E0,-6.733402729E0,-1.134197950E0
2.927165378E0,2.490928411E0,-5.869594097E0,-1.060020447E0
2.931920743E0,2.124826431E0,-5.276174068E0,-1.074377418E0
2.936676107E0,1.505085468E0,-4.996213913E0,-1.263410330E0
2.941431524E0,8.159525394E-1,-4.953142643E0,-1.481157184E0
2.946186889E0,7.441678643E-1,-6.233303070E0,-1.962114573E0
2.950942253E0,2.847459018E-1,-7.264609337E0,-2.325823545E0
2.955697618E0,-4.881358147E-1,-7.910671711E0,-2.364108801E0
2.960452982E0,-1.763510346E0,-7.805387497E0,-2.096112728E0
2.965208347E0,-2.708675146E0,-7.788637638E0,-1.627119422E0
2.969963711E0,-3.598805189E0,-7.609176159E0,-1.079162955E0
2.974719076E0,-4.455435753E0,-7.415357590E0,-6.197410822E-1
2.979474441E0,-5.185246468E0,-7.458428383E0,-4.354937077E-1
2.984229857E0,-5.706882000E0,-7.915457249E0,-1.141376376E0
2.988985222E0,-6.372086525E0,-7.867600918E0,-5.192425251E-1
2.993740586E0,-6.463014126E0,-8.219346046E0,-9.332008660E-2
2.998495951E0,-6.336194515E0,-8.673981667E0,-1.316052526E-1
3.003251316E0,-6.022734642E0,-8.841479301E0,3.828516230E-2
3.008006680E0,-5.565705299E0,-8.867800713E0,2.847459018E-1
3.012762045E0,-5.099104881E0,-8.791230202E0,5.288137794E-1
3.017517409E0,-4.807180882E0,-8.532805443E0,8.446664214E-1
3.022272774E0,-4.637290478E0,-8.286344528E0,1.191625714E0
3.027028191E0,-4.697110653E0,-8.128418922E0,1.557727575E0
3.031783555E0,-4.996213913E0,-7.724031448E0,1.959721804E0
3.036538920E0,-5.113461971E0,-7.527820110E0,2.124826431E0
3.041294284E0,-5.144568920E0,-7.673782349E0,1.998006940E0
3.046049649E0,-5.209175110E0,-7.874779224E0,1.938186288E0
3.050805014E0,-5.099104881E0,-8.063812256E0,2.000399828E0
3.055560378E0,-4.668396950E0,-8.343772888E0,1.998006940E0
3.060315743E0,-3.926621914E0,-8.939585686E0,1.852044702E0
3.065071107E0,-3.388236761E0,-9.561718941E0,1.725225091E0
3.069826472E0,-3.299702406E0,-1.036570740E1,1.359123230E0
3.074581889E0,-3.661018610E0,-1.088734341E1,1.038485050E0
3.079337253E0,-4.120440483E0,-1.132762241E1,8.685946465E-1
3.084092618E0,-4.156332970E0,-1.186600780E1,7.609176040E-1
3.088847982E0,-3.479164124E0,-1.238046455E1,3.326023519E-1
3.093603347E0,-2.711068153E0,-1.256949711E1,-1.986042857E-1
3.098358711E0,-2.136790514E0,-1.285663605E1,-7.896314859E-1
3.103114076E0,-1.631905079E0,-1.298345566E1,-1.299302697E0
3.107869441E0,-1.337587833E0,-1.304088306E1,-1.753939033E0
3.112624857E0,-1.349551916E0,-1.296431351E1,-2.266003132E0
3.117380222E0,-1.873580098E0,-1.250489140E1,-2.543570518E0
3.122135586E0,-2.579462767E0,-1.172722340E1,-2.493321180E0
3.126890951E0,-3.244667530E0,-1.105244732E1,-2.148754835E0
3.131646316E0,-3.751945972E0,-1.051167011E1,-1.811366796E0
3.136401680E0,-3.921836376E0,-1.009053326E1,-1.481157184E0
3.141157045E0,-3.902693748E0,-9.757930756E0,-1.194018483E0
3.145912409E0,-3.799802303E0,-9.528220177E0,-8.374879360E-1
3.150667774E0,-3.725624800E0,-9.327222824E0,-4.761717021E-1
3.155423139E0,-3.610769272E0,-9.178867340E0,-1.028913707E-1
3.160178555E0,-3.625126362E0,-9.032905579E0,2.512463629E-1
3.164933920E0,-3.766302824E0,-8.891729355E0,5.120640397E-1
3.169689284E0,-3.984049797E0,-8.788837433E0,7.082754970E-1
3.174444649E0,-4.216153622E0,-8.726624489E0,8.350951076E-1
3.179200014E0,-4.488935471E0,-8.721838951E0,8.997012973E-1
3.183955378E0,-4.689932346E0,-8.774480820E0,8.781659007E-1
3.188710743E0,-4.831109047E0,-8.839086533E0,8.398807645E-1
3.193466159E0,-4.934000492E0,-8.906085968E0,7.537391186E-1
3.198221524E0,-5.034498692E0,-8.997013092E0,6.293123364E-1
3.202976889E0,-5.077569485E0,-9.056833267E0,5.240281820E-1
3.207732253E0,-5.132604599E0,-9.073583603E0,4.259224236E-1
3.212487618E0,-5.115854740E0,-9.095118523E0,3.326023519E-1
3.217242982E0,-5.099104881E0,-9.097511292E0,2.273181528E-1
3.221998347E0,-5.053641319E0,-9.068798065E0,1.196411327E-1
3.226753711E0,-5.015356064E0,-9.059226990E0,1.914258115E-2
3.231509128E0,-4.972285271E0,-9.061619759E0,-6.939185411E-2
3.236264493E0,-4.898108006E0,-9.042476654E0,-1.268195957E-1
3.241019857E0,-4.814359188E0,-9.020941734E0,-1.722832322E-1
3.245775222E0,-4.718646049E0,-8.989834785E0,-1.818545163E-1
3.250530586E0,-4.622933388E0,-8.961120605E0,-1.938186288E-1
3.255285951E0,-4.551148891E0,-8.932407379E0,-1.986042857E-1
3.260041316E0,-4.476971149E0,-8.920442581E0,-1.722832322E-1
3.264796680E0,-4.455435753E0,-8.879764557E0,-1.100698411E-1
3.269552097E0,-4.460221291E0,-8.901300430E0,-4.307080805E-2
3.274307461E0,-4.469792843E0,-8.882157326E0,2.871387079E-2
3.279062826E0,-4.548755646E0,-8.918049812E0,1.172483116E-1
3.283818191E0,-4.596612453E0,-8.937192917E0,1.842473447E-1
3.288573555E0,-4.649254322E0,-8.987442017E0,2.249253243E-1
3.293328920E0,-4.723432064E0,-8.985049248E0,2.273181528E-1
3.298084284E0,-4.919643402E0,-8.968298912E0,2.249253243E-1
3.302839649E0,-5.041677475E0,-8.889336586E0,1.770688742E-1
3.307595066E0,-5.137390137E0,-8.824729919E0,1.028913707E-1
3.312350430E0,-5.187639713E0,-8.714659691E0,2.871387079E-2
3.317105795E0,-5.194818020E0,-8.604590416E0,-3.110669367E-2
3.321861159E0,-5.185246468E0,-8.480163574E0,-9.571290761E-2
3.326616524E0,-5.194818020E0,-8.398807526E0,-1.435693651E-1
3.331371889E0,-5.225924492E0,-8.343772888E0,-1.770688742E-1
3.336127253E0,-5.245067120E0,-8.283951759E0,-1.770688742E-1
3.340882618E0,-5.266602516E0,-8.255238533E0,-1.100698411E-1
3.345638034E0,-5.257031441E0,-8.228917122E0,-1.914258115E-2
3.350393399E0,-5.225924492E0,-8.231309891E0,1.100698411E-1
3.355148764E0,-5.173282623E0,-8.216953278E0,2.656033039E-1
3.359904128E0,-5.142175674E0,-8.207381248E0,4.139583111E-1
3.364659493E0,-5.142175674E0,-8.250452042E0,5.599204898E-1
3.369414857E0,-5.106283665E0,-8.243273735E0,6.436693072E-1
3.374170222E0,-5.101497650E0,-8.262416840E0,6.747759581E-1
3.378925639E0,-5.087141037E0,-8.271987915E0,6.556333899E-1
3.383681003E0,-5.070391178E0,-8.305487633E0,6.077769399E-1
3.388436368E0,-5.067998409E0,-8.353343964E0,5.312066078E-1
3.393191732E0,-5.123033047E0,-8.408378601E0,4.259224236E-1
3.397947097E0,-5.161318302E0,-8.482556343E0,3.541377485E-1
3.402702461E0,-5.221138954E0,-8.597412109E0,2.775674164E-1
3.407457878E0,-5.273781300E0,-8.693124771E0,2.201396823E-1
3.412213191E0,-5.321637630E0,-8.791230202E0,1.698904037E-1
3.416968607E0,-5.369493961E0,-8.903693199E0,1.579262912E-1
3.421723972E0,-5.371886730E0,-8.961120605E0,1.722832322E-1
3.426479336E0,-5.321637630E0,-9.011369705E0,2.105683982E-1
3.431234701E0,-5.242674351E0,-9.016156197E0,2.440679073E-1
3.435990066E0,-5.132604599E0,-8.980263710E0,2.679961324E-1
3.440745482E0,-4.960321426E0,-8.915657043E0,2.560320199E-1
3.445500847E0,-4.780859470E0,-8.839086533E0,2.440679073E-1
3.450256211E0,-4.620540619E0,-8.784051895E0,1.938186288E-1
3.455011576E0,-4.469792843E0,-8.755337715E0,1.507478207E-1
3.459766941E0,-4.338187218E0,-8.772088051E0,1.004985496E-1
3.464522305E0,-4.216153622E0,-8.822337151E0,6.699903309E-2
3.469277670E0,-4.127619267E0,-8.891729355E0,3.110669367E-2
3.474033034E0,-4.070191383E0,-8.973084450E0,2.153540403E-2
3.478788451E0,-4.074976921E0,-9.035298347E0,1.196411345E-2
3.483543816E0,-4.122833252E0,-9.061619759E0,3.349951655E-2
3.488299180E0,-4.220939159E0,-9.102297783E0,5.982056633E-2
3.493054545E0,-4.314259052E0,-9.133403778E0,1.339980662E-1
3.497809909E0,-4.390829563E0,-9.150154114E0,1.986042857E-1
3.502565274E0,-4.457828522E0,-9.157332420E0,2.727817893E-1
3.507320639E0,-4.529613495E0,-9.183652878E0,3.254238665E-1
3.512076055E0,-4.579862595E0,-9.176474571E0,3.637090325E-1
3.516831420E0,-4.599005222E0,-9.169296265E0,3.541377485E-1
3.521586784E0,-4.625326157E0,-9.119047165E0,3.326023519E-1
3.526342149E0,-4.639683247E0,-9.114261627E0,2.608176768E-1
3.531097514E0,-4.625326157E0,-9.085547447E0,1.507478207E-1
3.535852878E0,-4.613361835E0,-9.052047729E0,3.828516230E-2
3.540608295E0,-4.591826439E0,-9.030512810E0,-8.135596663E-2
3.545363659E0,-4.575077057E0,-8.999405861E0,-1.890329868E-1
3.550119024E0,-4.579862595E0,-9.008976936E0,-2.560320199E-1
3.554874389E0,-4.579862595E0,-8.975478172E0,-2.632105052E-1
3.559629753E0,-4.567898273E0,-8.939585686E0,-2.344966233E-1
3.564385118E0,-4.599005222E0,-8.908478737E0,-1.890329868E-1
3.569140482E0,-4.632504463E0,-8.882157326E0,-1.028913707E-1
3.573895899E0,-4.673182487E0,-8.851051331E0,-2.153540403E-2
3.578651264E0,-4.716253281E0,-8.791230202E0,5.742774159E-2
3.583406628E0,-4.737788677E0,-8.736195564E0,1.698904037E-1
3.588161993E0,-4.740181446E0,-8.654839516E0,2.823530734E-1
3.592917357E0,-4.725824833E0,-8.599804878E0,3.996013701E-1
3.597672722E0,-4.701896667E0,-8.532805443E0,4.809573591E-1
3.602428086E0,-4.687539577E0,-8.484949112E0,5.144568682E-1
3.607183503E0,-4.654039860E0,-8.453842163E0,5.120640397E-1
3.611938868E0,-4.632504463E0,-8.439485550E0,4.857429862E-1
3.616694232E0,-4.639683247E0,-8.461020470E0,4.331009090E-1
3.621449597E0,-4.677968502E0,-8.499305725E0,4.235295951E-1
3.626204961E0,-4.716253281E0,-8.520841599E0,3.756731451E-1
3.630960326E0,-4.759324074E0,-8.516056061E0,3.541377485E-1
3.635715691E0,-4.780859470E0,-8.561519623E0,2.991028428E-1
3.640471107E0,-4.804787636E0,-8.549555779E0,2.727817893E-1
3.645226472E0,-4.840680122E0,-8.556734085E0,2.392822653E-1
3.649981836E0,-4.890929699E0,-8.559126854E0,1.914258152E-1
3.654737201E0,-4.938786030E0,-8.573483467E0,1.531406492E-1
3.659492566E0,-4.974678040E0,-8.573483467E0,1.339980662E-1
3.664247930E0,-5.010570526E0,-8.595019341E0,1.052841991E-1
3.669003347E0,-5.046463013E0,-8.595019341E0,1.004985496E-1
3.673758711E0,-4.991427898E0,-8.614161491E0,4.307080805E-2
3.678514076E0,-4.979464054E0,-8.633303642E0,-2.392822644E-3
3.683269441E0,-4.936393261E0,-8.650053978E0,-3.828516230E-2
3.688024805E0,-4.934000492E0,-8.669196129E0,-1.004985496E-1
3.692780222E0,-4.922036171E0,-8.681160927E0,-1.603191197E-1
3.697535586E0,-4.895715237E0,-8.678768158E0,-1.914258152E-1
3.702290951E0,-4.890929699E0,-8.657232285E0,-1.890329868E-1
3.707046316E0,-4.864608288E0,-8.630910873E0,-1.794617027E-1
3.711801680E0,-4.864608288E0,-8.599804878E0,-1.148554832E-1
3.716557045E0,-4.862215519E0,-8.559126854E0,-2.392822690E-2
3.721312409E0,-4.871787071E0,-8.513663292E0,6.699903309E-2
3.726067826E0,-4.859822750E0,-8.458627701E0,1.962114573E-1
3.730823191E0,-4.886143684E0,-8.415556908E0,2.871387303E-1
3.735578555E0,-4.917250633E0,-8.382058144E0,3.828516304E-1
3.740333920E0,-4.965106964E0,-8.379665375E0,4.498506486E-1
3.745089284E0,-5.012963295E0,-8.327022552E0,5.144568682E-1
3.749844649E0,-5.036891460E0,-8.324629784E0,5.431707501E-1
3.754600014E0,-5.053641319E0,-8.298309326E0,5.503492355E-1
3.759355430E0,-5.094319344E0,-8.288737297E0,5.551348329E-1
3.764110795E0,-5.137390137E0,-8.264809608E0,5.647061467E-1
3.768866159E0,-5.156532764E0,-8.236095428E0,5.623133183E-1
3.773621524E0,-5.187639713E0,-8.219346046E0,5.718846321E-1
3.778376889E0,-5.221138954E0,-8.193024635E0,5.790630579E-1
3.783132305E0,-5.242674351E0,-8.176275253E0,6.197410822E-1
3.787887670E0,-5.288137913E0,-8.152346611E0,6.508477330E-1
3.792643034E0,-5.295316696E0,-8.102097511E0,7.130611539E-1
3.797398399E0,-5.300102234E0,-8.099704742E0,7.704889178E-1
3.802153764E0,-5.285745144E0,-8.094919205E0,7.968099117E-1
3.806909128E0,-5.261816978E0,-8.085348129E0,8.350951076E-1
3.811664545E0,-5.254638672E0,-8.097311974E0,8.590233326E-1
3.816419909E0,-5.209175110E0,-8.118846893E0,8.709874153E-1
3.821175274E0,-5.192425251E0,-8.126026154E0,8.709874153E-1
3.825930639E0,-5.142175674E0,-8.166703224E0,8.422735929E-1
3.830686003E0,-5.115854740E0,-8.224131584E0,8.087740541E-1
3.835441368E0,-5.087141037E0,-8.243273735E0,7.968099117E-1
3.840196784E0,-5.067998409E0,-8.298309326E0,7.728816867E-1
3.844952149E0,-5.017749310E0,-8.365307808E0,7.393822074E-1
3.849707514E0,-4.981856823E0,-8.391629219E0,7.250252366E-1
3.854462878E0,-4.969892502E0,-8.437092781E0,7.034898400E-1
3.859218243E0,-4.945964336E0,-8.494520187E0,6.604190469E-1
3.863973607E0,-4.914857864E0,-8.532805443E0,6.436693072E-1
3.868729024E0,-4.929214478E0,-8.556734085E0,5.958128572E-1
3.873484389E0,-4.883750916E0,-8.556734085E0,5.694918036E-1
3.878239753E0,-4.845465660E0,-8.547162056E0,5.312066078E-1
3.882995118E0,-4.857429981E0,-8.556734085E0,4.689932466E-1
3.887750482E0,-4.850251675E0,-8.513663292E0,4.307080805E-1
3.892505847E0,-4.876572609E0,-8.496912956E0,4.019941986E-1
3.897261264E0,-4.926821709E0,-8.484949112E0,3.469592929E-1
3.902016628E0,-4.962714195E0,-8.475378036E0,3.134597540E-1
3.906771993E0,-4.991427898E0,-8.501698494E0,2.967100143E-1
3.911527357E0,-5.077569485E0,-8.516056061E0,2.775674164E-1
3.916282722E0,-5.106283665E0,-8.539983749E0,2.656033039E-1
3.921038139E0,-5.139782906E0,-8.520841599E0,2.464607358E-1
3.925793503E0,-5.163711071E0,-8.528019905E0,1.962114573E-1
3.930548868E0,-5.197210789E0,-8.535198212E0,1.555334777E-1
3.935304232E0,-5.178068161E0,-8.559126854E0,1.004985496E-1
3.940059597E0,-5.180460930E0,-8.573483467E0,4.546362907E-2
3.944814961E0,-5.146961689E0,-8.578269005E0,-2.153540403E-2
3.949570378E0,-5.154139996E0,-8.585447311E0,-6.221338734E-2
3.954325743E0,-5.163711071E0,-8.595019341E0,-1.148554832E-1
3.959081107E0,-5.163711071E0,-8.590232849E0,-1.316052526E-1
3.963836472E0,-5.182853699E0,-8.551948547E0,-1.627119333E-1
3.968591836E0,-5.199603558E0,-8.501698494E0,-1.507478207E-1
3.973347253E0,-5.257031441E0,-8.484949112E0,-1.316052526E-1
3.978102618E0,-5.278566837E0,-8.410771370E0,-5.982056633E-2
3.982857982E0,-5.331208706E0,-8.398807526E0,-4.785645287E-3
3.987613347E0,-5.359922886E0,-8.405985832E0,2.392822690E-2
3.992368711E0,-5.369493961E0,-8.341380119E0,8.135596663E-2
3.997124076E0,-5.302495003E0,-8.295916557E0,1.052841991E-1
4.001879493E0,-5.240281582E0,-8.283951759E0,9.810572863E-2
4.006634857E0,-5.235496044E0,-8.250452042E0,6.939185411E-2
4.011390222E0,-5.240281582E0,-8.195417404E0,6.221338734E-2
4.016145586E0,-5.266602516E0,-8.204988480E0,5.024927482E-2
4.020900951E0,-5.300102234E0,-8.190631866E0,1.196411345E-2
4.025656368E0,-5.328815937E0,-8.166703224E0,9.571290575E-3
4.030411732E0,-5.347958565E0,-8.183453560E0,1.914258115E-2
4.035167097E0,-5.355136871E0,-8.159524918E0,4.785645381E-2
4.039922461E0,-5.393422127E0,-8.133204460E0,1.076770201E-1
4.044677826E0,-5.422136307E0,-8.142775536E0,1.651047617E-1
4.049433243E0,-5.426921844E0,-8.114061356E0,2.105683982E-1
4.054188607E0,-5.448457241E0,-8.109275818E0,2.871387303E-1
4.058943972E0,-5.453242779E0,-8.111668587E0,3.158525825E-1
4.063699336E0,-5.405386448E0,-8.078168869E0,3.206382394E-1
4.068454701E0,-5.343173027E0,-8.066205025E0,3.110669553E-1
4.073210066E0,-5.266602516E0,-8.090133667E0,2.919243574E-1
4.077965482E0,-5.204389095E0,-8.106883049E0,2.560320199E-1
4.082720847E0,-5.134997368E0,-8.152346611E0,2.033899277E-1
4.087476211E0,-5.079962254E0,-8.173882484E0,1.363908947E-1
4.092231576E0,-4.979464054E0,-8.212167740E0,8.853443712E-2
4.096986941E0,-4.914857864E0,-8.255238533E0,8.135596663E-2
4.101742357E0,-4.900500774E0,-8.293522835E0,9.092725813E-2
4.106497722E0,-4.900500774E0,-8.291130066E0,1.411765367E-1
4.111253086E0,-4.890929699E0,-8.307880402E0,2.081755698E-1
4.116008451E0,-4.945964336E0,-8.338987350E0,3.230310678E-1
4.120763816E0,-5.063212872E0,-8.298309326E0,4.761717021E-1
4.125519232E0,-5.142175674E0,-8.276773453E0,6.101697683E-1
4.130274597E0,-5.182853699E0,-8.281558990E0,7.274180651E-1
4.135029961E0,-5.225924492E0,-8.264809608E0,8.039883971E-1
4.139785326E0,-5.264209747E0,-8.243273735E0,8.781659007E-1
4.144540691E0,-5.259424210E0,-8.221738815E0,9.619147182E-1
4.149296055E0,-5.247459888E0,-8.219346046E0,9.714859724E-1
4.154051472E0,-5.223531723E0,-8.264809608E0,1.000199914E0
4.158806836E0,-5.209175110E0,-8.303094864E0,9.834501147E-1
4.163562201E0,-5.190032482E0,-8.362915039E0,9.547362328E-1
4.168317566E0,-5.163711071E0,-8.396414757E0,9.308080077E-1
4.173072930E0,-5.158925533E0,-8.444271088E0,8.901300430E-1
4.177828347E0,-5.137390137E0,-8.508877754E0,8.374879360E-1
4.182583711E0,-5.108676434E0,-8.604590416E0,7.633104324E-1
4.187339076E0,-5.103890896E0,-8.618947029E0,6.484549642E-1
4.192094441E0,-5.096712112E0,-8.688339233E0,5.790630579E-1
4.196849805E0,-5.125426292E0,-8.688339233E0,5.024927258E-1
4.201605222E0,-5.146961689E0,-8.690732002E0,4.235295951E-1
4.206360586E0,-5.173282623E0,-8.654839516E0,3.828516304E-1
4.211115951E0,-5.170889854E0,-8.621339798E0,3.780659735E-1
4.215871316E0,-5.230710506E0,-8.573483467E0,3.948157430E-1
4.220626732E0,-5.245067120E0,-8.530412674E0,4.426721931E-1
4.225382097E0,-5.237888813E0,-8.475378036E0,4.594219327E-1
4.230137461E0,-5.201996326E0,-8.465806961E0,4.594219327E-1
4.234892826E0,-5.175675392E0,-8.420342445E0,4.905286431E-1
4.239648191E0,-5.139782906E0,-8.391629219E0,5.048855543E-1
4.244403555E0,-5.099104881E0,-8.427521706E0,4.953143001E-1
4.249158972E0,-5.046463013E0,-8.422736168E0,4.977070987E-1
4.253914336E0,-5.017749310E0,-8.458627701E0,4.761717021E-1
4.258669701E0,-4.989035130E0,-8.465806961E0,4.450650215E-1
4.263425066E0,-4.943571568E0,-8.458627701E0,3.852444589E-1
4.268180482E0,-4.910071850E0,-8.456234932E0,2.847459018E-1
4.272935847E0,-4.847858906E0,-8.480163574E0,1.986042857E-1
4.277691211E0,-4.835894585E0,-8.492127419E0,1.531406492E-1
4.282446576E0,-4.840680122E0,-8.537590981E0,9.571290761E-2
4.287201941E0,-4.859822750E0,-8.587840080E0,4.785645381E-2
4.291957357E0,-4.900500774E0,-8.647661209E0,7.178467698E-3
4.296712722E0,-4.934000492E0,-8.743373871E0,-2.871387079E-2
4.301468086E0,-4.955535889E0,-8.807980537E0,-4.307080805E-2
4.306223451E0,-5.015356064E0,-8.877371788E0,-5.503492057E-2
4.310978816E0,-5.024927616E0,-8.918049812E0,-5.982056633E-2
4.315734232E0,-5.029713154E0,-8.910871506E0,-3.589234129E-2
4.320489597E0,-5.075176716E0,-8.877371788E0,-3.110669367E-2
4.325244961E0,-5.087141037E0,-8.819944382E0,1.674975827E-2
4.330000326E0,-5.106283665E0,-8.779266357E0,2.392822690E-2
4.334755691E0,-5.089533806E0,-8.695517540E0,5.264209956E-2
4.339511107E0,-5.077569485E0,-8.650053978E0,8.135596663E-2
4.344266472E0,-5.046463013E0,-8.571090698E0,1.172483116E-1
4.349021836E0,-5.048855782E0,-8.518448830E0,1.579262912E-1
4.353777201E0,-5.056034088E0,-8.499305725E0,2.033899277E-1
4.358532566E0,-5.046463013E0,-8.453842163E0,2.584248483E-1
4.363287982E0,-5.048855782E0,-8.487341881E0,3.014956415E-1
4.368043347E0,-5.058426857E0,-8.482556343E0,3.373879790E-1
4.372798711E0,-5.063212872E0,-8.508877754E0,3.732803464E-1
4.377554076E0,-5.034498692E0,-8.575876236E0,3.541377485E-1
4.382309493E0,-5.005784988E0,-8.633303642E0,3.326023519E-1
4.387064857E0,-4.977071285E0,-8.676374435E0,2.919243574E-1
4.391820222E0,-4.938786030E0,-8.709874153E0,2.512463629E-1
4.396575586E0,-4.898108006E0,-8.745766640E0,2.177468538E-1
4.401330951E0,-4.869394302E0,-8.776873589E0,1.866401732E-1
4.406086368E0,-4.883750916E0,-8.791230202E0,1.890329868E-1
4.410841732E0,-4.862215519E0,-8.815158844E0,2.153540403E-1
4.415597097E0,-4.831109047E0,-8.836693764E0,2.392822653E-1
4.420352461E0,-4.819144726E0,-8.807980537E0,2.823530734E-1
4.425107826E0,-4.768895626E0,-8.793622971E0,3.110669553E-1
4.429863243E0,-4.759324074E0,-8.774480820E0,3.493520916E-1
4.434618607E0,-4.723432064E0,-8.752944946E0,3.780659735E-1
4.439373972E0,-4.709074974E0,-8.724231720E0,3.996013701E-1
4.444129336E0,-4.730610371E0,-8.673981667E0,4.235295951E-1
4.448884701E0,-4.737788677E0,-8.642875671E0,4.546363056E-1
4.453640118E0,-4.783252239E0,-8.606983185E0,4.761717021E-1
4.458395482E0,-4.752145767E0,-8.575876236E0,4.594219327E-1
4.463150847E0,-4.756931305E0,-8.566305161E0,4.618147612E-1
4.467906211E0,-4.759324074E0,-8.578269005E0,4.283152521E-1
4.472661628E0,-4.759324074E0,-8.599804878E0,3.517449200E-1
4.477416993E0,-4.800002098E0,-8.573483467E0,2.919243574E-1
4.482172357E0,-4.876572609E0,-8.561519623E0,2.225325108E-1
4.486927722E0,-4.977071285E0,-8.559126854E0,1.387837082E-1
4.491683086E0,-5.046463013E0,-8.549555779E0,1.100698411E-1
4.496438503E0,-5.125426292E0,-8.513663292E0,7.417750359E-2
4.501193868E0,-5.156532764E0,-8.492127419E0,8.853443712E-2
4.505949232E0,-5.206781864E0,-8.446663857E0,9.810572863E-2
4.510704597E0,-5.213960648E0,-8.420342445E0,1.196411327E-1
4.515459961E0,-5.240281582E0,-8.396414757E0,1.363908947E-1
4.520215378E0,-5.242674351E0,-8.350951195E0,1.866401732E-1
4.524970743E0,-5.216353416E0,-8.322237015E0,2.368894368E-1
4.529726107E0,-5.180460930E0,-8.338987350E0,2.656033039E-1
4.534481472E0,-5.144568920E0,-8.365307808E0,2.775674164E-1
4.539236889E0,-5.063212872E0,-8.417949677E0,2.943171859E-1
4.543992253E0,-5.010570526E0,-8.489734650E0,2.727817893E-1
4.548747618E0,-4.922036171E0,-8.551948547E0,2.177468538E-1
4.553502982E0,-4.852644444E0,-8.606983185E0,1.698904037E-1
4.558258399E0,-4.792823792E0,-8.650053978E0,6.460621208E-2
4.563013764E0,-4.747360229E0,-8.666803360E0,-4.785645287E-3
4.567769128E0,-4.740181446E0,-8.688339233E0,-2.632104978E-2
4.572524493E0,-4.790431023E0,-8.662017822E0,-2.153540403E-2
4.577279857E0,-4.821537495E0,-8.623732567E0,-7.178467698E-3
4.582035274E0,-4.886143684E0,-8.590232849E0,4.785645287E-3
4.586790639E0,-4.902893543E0,-8.583054543E0,4.067798331E-2
4.591546003E0,-4.986642361E0,-8.525627136E0,5.503492057E-2
4.596301368E0,-5.017749310E0,-8.489734650E0,7.417750359E-2
4.601056784E0,-5.065605640E0,-8.470592499E0,1.196411327E-1
4.605812149E0,-5.079962254E0,-8.401200294E0,1.651047617E-1
4.610567514E0,-5.127819061E0,-8.362915039E0,2.273181528E-1
4.615322878E0,-5.151747227E0,-8.317451477E0,2.584248483E-1
4.620078243E0,-5.168497086E0,-8.300702095E0,2.895315289E-1
4.624833659E0,-5.206781864E0,-8.295916557E0,3.278166950E-1
4.629589024E0,-5.201996326E0,-8.298309326E0,3.493520916E-1
4.634344389E0,-5.187639713E0,-8.319844246E0,3.421736360E-1
4.639099753E0,-5.180460930E0,-8.367700577E0,3.254238665E-1
4.643855170E0,-5.118247509E0,-8.401200294E0,2.775674164E-1
4.648610534E0,-5.079962254E0,-8.441878319E0,2.512463629E-1
4.653365899E0,-5.008177757E0,-8.453842163E0,2.249253243E-1
4.658121264E0,-4.955535889E0,-8.456234932E0,2.560320199E-1
4.662876628E0,-4.910071850E0,-8.463413239E0,2.440679073E-1
4.667632045E0,-4.850251675E0,-8.494520187E0,2.871387303E-1
4.672387409E0,-4.826323509E0,-8.544769287E0,3.230310678E-1
4.677142774E0,-4.804787636E0,-8.595019341E0,3.349951804E-1
4.681898139E0,-4.797609329E0,-8.685946465E0,3.373879790E-1
4.686653555E0,-4.804787636E0,-8.743373871E0,3.373879790E-1
4.691408920E0,-4.850251675E0,-8.769695282E0,3.804588020E-1
4.696164284E0,-4.883750916E0,-8.798408508E0,3.900300860E-1
4.700919649E0,-4.924428940E0,-8.772088051E0,4.426721931E-1
4.705675066E0,-4.996213913E0,-8.690732002E0,4.785645306E-1
4.710430430E0,-5.067998409E0,-8.590232849E0,5.144568682E-1
4.715185795E0,-5.125426292E0,-8.501698494E0,5.335994363E-1
4.719941159E0,-5.173282623E0,-8.405985832E0,5.742774606E-1
4.724696576E0,-5.180460930E0,-8.350951195E0,5.718846321E-1
4.729451941E0,-5.168497086E0,-8.336593628E0,5.982056856E-1
4.734207305E0,-5.120640278E0,-8.312665939E0,6.005984545E-1
4.738962670E0,-5.094319344E0,-8.322237015E0,5.742774606E-1
4.743718034E0,-5.058426857E0,-8.334200859E0,5.718846321E-1
4.748473451E0,-5.000999451E0,-8.362915039E0,5.599204898E-1
4.753228816E0,-4.938786030E0,-8.365307808E0,5.479564071E-1
4.757984180E0,-4.878965378E0,-8.389236450E0,5.479564071E-1
4.762739545E0,-4.814359188E0,-8.410771370E0,5.503492355E-1
4.767494961E0,-4.764110088E0,-8.417949677E0,5.575276613E-1
4.772250326E0,-4.747360229E0,-8.449056625E0,5.359922647E-1
4.777005691E0,-4.687539577E0,-8.444271088E0,5.288137794E-1
4.781761055E0,-4.701896667E0,-8.484949112E0,5.240281820E-1
4.786516472E0,-4.687539577E0,-8.475378036E0,5.168496966E-1
4.791271836E0,-4.701896667E0,-8.437092781E0,5.048855543E-1
4.796027201E0,-4.735395908E0,-8.422736168E0,5.192425251E-1
4.800782566E0,-4.766502857E0,-8.372486115E0,5.264210105E-1
4.805537930E0,-4.792823792E0,-8.295916557E0,5.431707501E-1
4.810293347E0,-4.814359188E0,-8.262416840E0,5.431707501E-1
4.815048711E0,-4.850251675E0,-8.224131584E0,5.312066078E-1
4.819804076E0,-4.852644444E0,-8.190631866E0,5.288137794E-1
4.824559441E0,-4.859822750E0,-8.149953842E0,5.192425251E-1
4.829314857E0,-4.893322468E0,-8.157132149E0,4.905286431E-1
4.834070222E0,-4.881358147E0,-8.197810173E0,4.402793646E-1
4.838825586E0,-4.857429981E0,-8.195417404E0,3.780659735E-1
4.843580951E0,-4.816751957E0,-8.260024071E0,2.775674164E-1
4.848336368E0,-4.790431023E0,-8.279166222E0,1.770688742E-1
4.853091732E0,-4.723432064E0,-8.327022552E0,8.135596663E-2
4.857847097E0,-4.689932346E0,-8.358129501E0,-0.000000000E0
4.862602461E0,-4.622933388E0,-8.377271652E0,-6.939185411E-2
4.867357878E0,-4.601397991E0,-8.396414757E0,-1.124626622E-1
4.872113243E0,-4.572684288E0,-8.384450912E0,-1.363908947E-1
4.876868607E0,-4.579862595E0,-8.396414757E0,-1.507478207E-1
4.881623972E0,-4.575077057E0,-8.429914474E0,-1.435693651E-1
4.886379389E0,-4.565505505E0,-8.422736168E0,-1.052841991E-1
4.891134753E0,-4.589433670E0,-8.444271088E0,-7.896314561E-2
4.895890118E0,-4.622933388E0,-8.456234932E0,-1.435693540E-2
4.900645482E0,-4.634897232E0,-8.494520187E0,7.896314561E-2
4.905400899E0,-4.682754040E0,-8.504091263E0,1.555334777E-1
4.910156264E0,-4.759324074E0,-8.492127419E0,2.177468538E-1
4.914911628E0,-4.821537495E0,-8.477770805E0,2.727817893E-1
4.919666993E0,-4.895715237E0,-8.449056625E0,2.919243574E-1
4.924422357E0,-4.984249592E0,-8.413164139E0,3.062812984E-1
4.929177774E0,-5.094319344E0,-8.341380119E0,3.397808075E-1
4.933933139E0,-5.175675392E0,-8.286344528E0,3.565305769E-1
4.938688503E0,-5.247459888E0,-8.195417404E0,4.283152521E-1
4.943443868E0,-5.300102234E0,-8.157132149E0,4.833501875E-1
4.948199284E0,-5.340780258E0,-8.082955360E0,5.527420044E-1
4.952954649E0,-5.367101192E0,-7.982456207E0,6.412764788E-1
4.957710014E0,-5.410171986E0,-7.881958008E0,6.915257573E-1
4.962465378E0,-5.443671703E0,-7.843672752E0,7.441678643E-1
4.967220795E0,-5.450850010E0,-7.779066563E0,7.752745152E-1
4.971976159E0,-5.453242779E0,-7.747959614E0,8.087740541E-1
4.976731524E0,-5.436492920E0,-7.750352383E0,8.111668825E-1
4.981486889E0,-5.422136307E0,-7.793423176E0,8.398807645E-1
4.986242305E0,-5.417350292E0,-7.822137356E0,8.590233326E-1
4.990997670E0,-5.381458282E0,-7.850851059E0,8.566305041E-1
4.995753034E0,-5.321637630E0,-7.903493404E0,7.896314859E-1
5.000508451E0,-5.264209747E0,-7.958528042E0,7.202396393E-1
5.005263816E0,-5.254638672E0,-7.977670670E0,6.221339107E-1
5.010019180E0,-5.204389095E0,-7.989634991E0,5.264210105E-1
5.014774545E0,-5.187639713E0,-7.992027760E0,4.474578202E-1
5.019529961E0,-5.096712112E0,-8.035098076E0,3.493520916E-1
5.024285326E0,-5.063212872E0,-8.051848412E0,2.775674164E-1
5.029040691E0,-4.977071285E0,-8.075776100E0,1.938186288E-1
5.033796055E0,-4.864608288E0,-8.094919205E0,1.459621787E-1
5.038551420E0,-4.785645485E0,-8.159524918E0,9.332008660E-2
5.043306836E0,-4.685146809E0,-8.216953278E0,7.657032460E-2
5.048062201E0,-4.606183529E0,-8.303094864E0,7.178468257E-2
5.052817566E0,-4.496113777E0,-8.389236450E0,6.939185411E-2
5.057572982E0,-4.381258488E0,-8.461020470E0,5.503492057E-2
5.062328347E0,-4.278367043E0,-8.537590981E0,4.546362907E-2
5.067083711E0,-4.187439442E0,-8.606983185E0,4.785645287E-3
5.071839076E0,-4.113262177E0,-8.647661209E0,-4.307080805E-2
5.076594493E0,-4.077369690E0,-8.707481384E0,-7.417750359E-2
5.081349857E0,-4.048655987E0,-8.721838951E0,-1.339980662E-1
5.086105222E0,-4.046263218E0,-8.738588333E0,-1.746760458E-1
5.090860586E0,-4.041477680E0,-8.712266922E0,-1.698904037E-1
5.095616003E0,-4.082155228E0,-8.693124771E0,-1.363908947E-1
5.100371368E0,-4.122833252E0,-8.671588898E0,-6.939185411E-2
5.105126732E0,-4.153940201E0,-8.638090134E0,2.153540403E-2
5.109882097E0,-4.194618225E0,-8.585447311E0,1.483550072E-1
5.114637514E0,-4.252045631E0,-8.532805443E0,3.062812984E-1
5.119392878E0,-4.285545349E0,-8.465806961E0,4.498506486E-1
5.124148243E0,-4.311866283E0,-8.432307243E0,5.670989752E-1
5.128903607E0,-4.326223373E0,-8.358129501E0,6.580262184E-1
5.133659024E0,-4.354937077E0,-8.298309326E0,7.417750359E-1
5.138414389E0,-4.328616142E0,-8.255238533E0,7.800601721E-1
5.143169753E0,-4.316651821E0,-8.209774017E0,7.968099117E-1
5.147925170E0,-4.326223373E0,-8.200202942E0,7.824530005E-1
5.152680534E0,-4.350151539E0,-8.169096947E0,7.657032609E-1
5.157435899E0,-4.393222332E0,-8.173882484E0,7.728816867E-1
5.162191264E0,-4.448257446E0,-8.183453560E0,7.417750359E-1
5.166946628E0,-4.520041943E0,-8.147561073E0,7.154539824E-1
5.171702045E0,-4.584648132E0,-8.121239662E0,6.843472719E-1
5.176457409E0,-4.646861553E0,-8.111668587E0,6.364908218E-1
5.181212774E0,-4.711467743E0,-8.049455643E0,6.053841114E-1
5.185968191E0,-4.809573650E0,-8.015955925E0,5.431707501E-1
5.190723555E0,-4.871787071E0,-7.956135273E0,5.096712112E-1
5.195478920E0,-4.960321426E0,-7.915457249E0,4.426721931E-1
5.200234284E0,-4.981856823E0,-7.879564762E0,4.091726840E-1
5.204989701E0,-5.029713154E0,-7.867600918E0,3.924229145E-1
5.209745066E0,-5.077569485E0,-7.841279984E0,3.661018610E-1
5.214500430E0,-5.079962254E0,-7.838887215E0,3.182454109E-1
5.219255795E0,-5.094319344E0,-7.858029366E0,2.799602449E-1
5.224011211E0,-5.137390137E0,-7.886743546E0,2.416750938E-1
5.228766576E0,-5.139782906E0,-7.903493404E0,2.249253243E-1
5.233521941E0,-5.149354458E0,-7.915457249E0,1.794617027E-1
5.238277357E0,-5.154139996E0,-7.920242786E0,1.651047617E-1
5.243032722E0,-5.139782906E0,-7.936992645E0,1.674975902E-1
5.247788086E0,-5.154139996E0,-7.944170952E0,1.627119333E-1
5.252543451E0,-5.134997368E0,-7.958528042E0,1.746760458E-1
5.257298868E0,-5.142175674E0,-7.929814339E0,2.033899277E-1
5.262054232E0,-5.115854740E0,-7.932207108E0,2.536391914E-1
5.266809597E0,-5.113461971E0,-7.915457249E0,2.895315289E-1
5.271565014E0,-5.063212872E0,-7.889136314E0,3.397808075E-1
5.276320378E0,-5.034498692E0,-7.850851059E0,3.924229145E-1
5.281075743E0,-4.984249592E0,-7.843672752E0,4.450650215E-1
5.285831107E0,-4.965106964E0,-7.838887215E0,4.618147612E-1
5.290586524E0,-4.888536453E0,-7.824530125E0,4.953143001E-1
5.295341889E0,-4.867001057E0,-7.819744587E0,4.953143001E-1
5.300097253E0,-4.811966419E0,-7.836493969E0,4.785645306E-1
5.304852618E0,-4.785645485E0,-7.853243828E0,4.689932466E-1
5.309608034E0,-4.759324074E0,-7.869993687E0,4.115654826E-1
5.314363399E0,-4.776073933E0,-7.891529083E0,3.469592929E-1
5.319118764E0,-4.776073933E0,-7.898707390E0,2.967100143E-1
5.323874180E0,-4.785645485E0,-7.889136314E0,2.536391914E-1
5.328629545E0,-4.831109047E0,-7.896314621E0,2.153540403E-1
5.333384909E0,-4.876572609E0,-7.877171993E0,2.201396823E-1
5.338140274E0,-4.905286312E0,-7.848458290E0,2.488535494E-1
5.342895691E0,-4.936393261E0,-7.824530125E0,2.560320199E-1
5.347651055E0,-4.943571568E0,-7.817351341E0,2.895315289E-1
5.352406420E0,-4.969892502E0,-7.798209190E0,3.493520916E-1
5.357161836E0,-4.974678040E0,-7.771887779E0,4.019941986E-1
5.361917201E0,-4.998606682E0,-7.745566845E0,4.570291340E-1
5.366672566E0,-5.036891460E0,-7.714460373E0,4.809573591E-1
5.371427930E0,-5.036891460E0,-7.657032490E0,4.905286431E-1
5.376183347E0,-5.024927616E0,-7.601997375E0,4.474578202E-1
5.380938711E0,-5.034498692E0,-7.575676441E0,3.852444589E-1
5.385694076E0,-5.041677475E0,-7.556533813E0,3.134597540E-1
5.390449493E0,-5.077569485E0,-7.527820110E0,2.799602449E-1
5.395204857E0,-5.046463013E0,-7.508677483E0,2.488535494E-1
5.399960222E0,-5.060820103E0,-7.520641804E0,2.440679073E-1
5.404715586E0,-5.036891460E0,-7.513463020E0,2.632105052E-1
5.409471003E0,-5.032105923E0,-7.542177200E0,2.775674164E-1
5.414226368E0,-5.065605640E0,-7.527820110E0,2.943171859E-1
5.418981732E0,-5.046463013E0,-7.530212879E0,3.086741269E-1
5.423737149E0,-5.056034088E0,-7.503891945E0,3.254238665E-1
5.428492514E0,-5.075176716E0,-7.496713161E0,3.445664644E-1
5.433247878E0,-5.084748268E0,-7.482356548E0,3.421736360E-1
5.438003243E0,-5.094319344E0,-7.458428383E0,3.469592929E-1
5.442758659E0,-5.051248550E0,-7.448856831E0,3.326023519E-1
5.447514024E0,-5.072783947E0,-7.417750359E0,2.847459018E-1
5.452269389E0,-5.084748268E0,-7.422535896E0,2.584248483E-1
5.457024753E0,-5.079962254E0,-7.439285755E0,2.081755698E-1
5.461780170E0,-5.106283665E0,-7.448856831E0,1.555334777E-1
5.466535534E0,-5.099104881E0,-7.479963779E0,9.571290761E-2
5.471290899E0,-5.113461971E0,-7.539783955E0,2.392822690E-2
5.476046316E0,-5.120640278E0,-7.563712597E0,7.178467698E-3
5.480801680E0,-5.144568920E0,-7.601997375E0,-1.674975827E-2
5.485557045E0,-5.132604599E0,-7.645068169E0,-2.392822644E-3
5.490312461E0,-5.099104881E0,-7.637889862E0,4.067798331E-2
5.495067826E0,-5.084748268E0,-7.623532772E0,5.024927482E-2
5.499823191E0,-5.029713154E0,-7.640282631E0,6.221338734E-2
5.504578555E0,-4.993820667E0,-7.637889862E0,7.896314561E-2
5.509333972E0,-4.979464054E0,-7.628318787E0,9.571290761E-2
5.514089336E0,-4.957928658E0,-7.613961697E0,1.172483116E-1
5.518844701E0,-4.984249592E0,-7.633104324E0,1.387837082E-1
5.523600118E0,-4.960321426E0,-7.625925541E0,1.076770201E-1
5.528355482E0,-4.924428940E0,-7.635497093E0,1.339980662E-1
5.533110847E0,-4.905286312E0,-7.630711555E0,1.244267747E-1
5.537866211E0,-4.857429981E0,-7.633104324E0,1.363908947E-1
5.542621628E0,-4.811966419E0,-7.657032490E0,1.052841991E-1
5.547376993E0,-4.785645485E0,-7.685746193E0,9.810572863E-2
5.552132357E0,-4.764110088E0,-7.690532207E0,9.092725813E-2
5.556887774E0,-4.733003139E0,-7.680960655E0,8.374879509E-2
5.561643139E0,-4.692325115E0,-7.671389580E0,8.374879509E-2
5.566398503E0,-4.673182487E0,-7.707281590E0,6.460621208E-2
5.571153868E0,-4.637290478E0,-7.714460373E0,8.374879509E-2
5.575909284E0,-4.639683247E0,-7.731209755E0,4.785645381E-2
5.580664649E0,-4.668396950E0,-7.764709473E0,1.435693540E-2
5.585420014E0,-4.697110653E0,-7.759923935E0,-2.392822644E-3
5.590175430E0,-4.699503899E0,-7.774280548E0,-0.000000000E0
5.594930795E0,-4.697110653E0,-7.805387497E0,4.785645287E-3
5.599686159E0,-4.721039295E0,-7.814958572E0,-2.392822690E-2
5.604441576E0,-4.754538536E0,-7.807780266E0,-5.264209956E-2
5.609196941E0,-4.800002098E0,-7.807780266E0,-4.785645381E-2
5.613952305E0,-4.807180882E0,-7.800601959E0,-5.503492057E-2
5.618707670E0,-4.821537495E0,-7.788637638E0,-7.896314561E-2
5.623463086E0,-4.800002098E0,-7.783852100E0,-5.982056633E-2
5.628218451E0,-4.797609329E0,-7.762316704E0,-4.785645381E-2
5.632973816E0,-4.771288395E0,-7.752745152E0,-2.392822644E-3
5.637729232E0,-4.718646049E0,-7.716853142E0,7.178467698E-3
5.642484597E0,-4.701896667E0,-7.728816986E0,6.221338734E-2
5.647239961E0,-4.682754040E0,-7.740781307E0,1.124626622E-1
5.651995326E0,-4.649254322E0,-7.735995770E0,1.435693651E-1
5.656750743E0,-4.606183529E0,-7.745566845E0,1.842473447E-1
5.661506107E0,-4.627718925E0,-7.776673794E0,1.914258152E-1
5.666261472E0,-4.639683247E0,-7.774280548E0,1.818545163E-1
5.671016889E0,-4.651647091E0,-7.793423176E0,1.651047617E-1
5.675772253E0,-4.673182487E0,-7.836493969E0,9.332008660E-2
5.680527618E0,-4.725824833E0,-7.812565804E0,4.067798331E-2
5.685282982E0,-4.764110088E0,-7.838887215E0,-2.392822690E-2
5.690038399E0,-4.790431023E0,-7.862815380E0,-7.896314561E-2
5.694793764E0,-4.845465660E0,-7.853243828E0,-1.531406492E-1
5.699549128E0,-4.864608288E0,-7.874779224E0,-2.057827413E-1
5.704304545E0,-4.890929699E0,-7.874779224E0,-2.823530734E-1
5.709059909E0,-4.934000492E0,-7.874779224E0,-3.134597540E-1
5.713815274E0,-4.962714195E0,-7.891529083E0,-3.541377485E-1
5.718570691E0,-4.965106964E0,-7.922635555E0,-3.493520916E-1
5.723326055E0,-4.984249592E0,-7.941778183E0,-3.230310678E-1
5.728081420E0,-4.974678040E0,-7.953742504E0,-3.134597540E-1
5.732836836E0,-4.948357105E0,-7.963313580E0,-2.608176768E-1
5.737592201E0,-4.907679081E0,-7.972885132E0,-2.105683982E-1
5.742347566E0,-4.881358147E0,-7.987242222E0,-1.244267747E-1
5.747102930E0,-4.826323509E0,-7.965706348E0,-5.264209956E-2
5.751858347E0,-4.804787636E0,-7.929814339E0,-4.067798331E-2
5.756613711E0,-4.735395908E0,-7.874779224E0,-2.153540403E-2
5.761369076E0,-4.670789719E0,-7.817351341E0,-1.435693540E-2
5.766124493E0,-4.610969067E0,-7.769495010E0,-4.307080805E-2
5.770879857E0,-4.546362877E0,-7.733603001E0,-6.221338734E-2
5.775635222E0,-4.491328239E0,-7.709674358E0,-8.374879509E-2
5.780390586E0,-4.453042984E0,-7.668996811E0,-1.148554832E-1
5.785146003E0,-4.402793884E0,-7.676175117E0,-1.483550072E-1
5.789901368E0,-4.398007870E0,-7.733603001E0,-1.339980662E-1
5.794656732E0,-4.405186653E0,-7.764709473E0,-1.387837082E-1
5.799412149E0,-4.436293125E0,-7.795815945E0,-7.896314561E-2
5.804167514E0,-4.469792843E0,-7.836493969E0,-4.307080805E-2
5.808922878E0,-4.476971149E0,-7.841279984E0,2.392822690E-2
5.813678295E0,-4.510470867E0,-7.838887215E0,6.699903309E-2
5.818433659E0,-4.529613495E0,-7.822137356E0,9.332008660E-2
5.823189024E0,-4.572684288E0,-7.783852100E0,9.332008660E-2
5.827944441E0,-4.596612453E0,-7.726424217E0,4.307080805E-2
5.832699805E0,-4.634897232E0,-7.692924976E0,-0.000000000E0
5.837455170E0,-4.692325115E0,-7.637889862E0,-3.110669367E-2
5.842210534E0,-4.754538536E0,-7.621140003E0,-6.221338734E-2
5.846965951E0,-4.792823792E0,-7.611568928E0,-1.004985496E-1
5.851721316E0,-4.823930264E0,-7.597211838E0,-1.076770201E-1
5.856476680E0,-4.876572609E0,-7.599604607E0,-1.076770201E-1
5.861232097E0,-4.919643402E0,-7.618747234E0,-1.028913707E-1
5.865987461E0,-4.965106964E0,-7.659425259E0,-1.100698411E-1
5.870742826E0,-5.029713154E0,-7.668996811E0,-1.052841991E-1
5.875498191E0,-5.067998409E0,-7.690532207E0,-1.244267747E-1
5.880253607E0,-5.118247509E0,-7.683353424E0,-1.866401732E-1
5.885008972E0,-5.158925533E0,-7.685746193E0,-2.321037948E-1
5.889764336E0,-5.173282623E0,-7.666603565E0,-3.038884699E-1
5.894519753E0,-5.247459888E0,-7.654639721E0,-3.421736360E-1
5.899275118E0,-5.245067120E0,-7.657032490E0,-3.780659735E-1
5.904030482E0,-5.245067120E0,-7.623532772E0,-3.900300860E-1
5.908785899E0,-5.223531723E0,-7.628318787E0,-3.996013701E-1
5.913541264E0,-5.225924492E0,-7.659425259E0,-3.996013701E-1
5.918296628E0,-5.197210789E0,-7.659425259E0,-3.804588020E-1
5.923052045E0,-5.178068161E0,-7.695317745E0,-3.445664644E-1
5.927807409E0,-5.158925533E0,-7.714460373E0,-2.847459018E-1
5.932562774E0,-5.111069202E0,-7.735995770E0,-2.512463629E-1
5.937318139E0,-5.044070244E0,-7.764709473E0,-2.225325108E-1
5.942073555E0,-4.984249592E0,-7.764709473E0,-2.440679073E-1
5.946828920E0,-4.934000492E0,-7.747959614E0,-2.847459018E-1
5.951584284E0,-4.843072891E0,-7.755138397E0,-3.158525825E-1
5.956339701E0,-4.742574692E0,-7.788637638E0,-3.493520916E-1
5.961095066E0,-4.697110653E0,-7.783852100E0,-3.732803464E-1
5.965850430E0,-4.654039860E0,-7.802994728E0,-3.708875179E-1
5.970605847E0,-4.599005222E0,-7.788637638E0,-4.283152521E-1
5.975361211E0,-4.577469826E0,-7.829315662E0,-4.474578202E-1
5.980116576E0,-4.582255363E0,-7.867600918E0,-4.426721931E-1
5.984871993E0,-4.572684288E0,-7.865208149E0,-3.924229145E-1
5.989627357E0,-4.603790760E0,-7.886743546E0,-3.373879790E-1
5.994382722E0,-4.610969067E0,-7.877171993E0,-2.488535494E-1
5.999138086E0,-4.610969067E0,-7.886743546E0,-1.722832322E-1
6.003893503E0,-4.618147850E0,-7.872386456E0,-7.417750359E-2
6.008648868E0,-4.608576298E0,-7.872386456E0,-3.828516230E-2
6.013404232E0,-4.599005222E0,-7.889136314E0,-2.392822644E-3
6.018159649E0,-4.582255363E0,-7.872386456E0,-7.178467698E-3
6.022915014E0,-4.575077057E0,-7.905886173E0,-2.871387079E-2
6.027670378E0,-4.510470867E0,-7.901100159E0,-4.785645381E-2
6.032425743E0,-4.467400074E0,-7.936992645E0,-8.374879509E-2
6.037181159E0,-4.438685894E0,-7.920242786E0,-1.387837082E-1
6.041936524E0,-4.409972191E0,-7.917850018E0,-1.435693651E-1
6.046691889E0,-4.412364960E0,-7.867600918E0,-1.531406492E-1
6.051447305E0,-4.414757729E0,-7.838887215E0,-1.172483116E-1
6.056202670E0,-4.453042984E0,-7.810173035E0,-8.614161611E-2
6.060958034E0,-4.472185612E0,-7.802994728E0,-6.221338734E-2
6.065713451E0,-4.546362877E0,-7.757531166E0,-3.589234129E-2
6.070468816E0,-4.599005222E0,-7.731209755E0,4.785645287E-3
6.075224180E0,-4.670789719E0,-7.735995770E0,4.067798331E-2
6.079979545E0,-4.713860512E0,-7.716853142E0,4.785645381E-2
6.084734961E0,-4.776073933E0,-7.738388538E0,4.785645381E-2
6.089490326E0,-4.802394867E0,-7.738388538E0,6.939185411E-2
6.094245691E0,-4.795216560E0,-7.774280548E0,3.349951655E-2
6.099001107E0,-4.802394867E0,-7.793423176E0,7.178467698E-3
6.103756472E0,-4.797609329E0,-7.819744587E0,-1.196411345E-2
6.108511836E0,-4.780859470E0,-7.879564762E0,-5.024927482E-2
6.113267253E0,-4.749752998E0,-7.905886173E0,-8.614161611E-2
6.118022618E0,-4.718646049E0,-7.915457249E0,-1.411765367E-1
6.122777982E0,-4.692325115E0,-7.953742504E0,-1.818545163E-1
6.127533347E0,-4.673182487E0,-7.956135273E0,-2.249253243E-1
6.132288764E0,-4.673182487E0,-7.932207108E0,-2.416750938E-1
6.137044128E0,-4.634897232E0,-7.889136314E0,-2.560320199E-1
6.141799493E0,-4.661218643E0,-7.853243828E0,-2.488535494E-1
6.146554909E0,-4.637290478E0,-7.802994728E0,-2.249253243E-1
6.151310274E0,-4.630111694E0,-7.762316704E0,-1.962114573E-1
6.156065639E0,-4.620540619E0,-7.745566845E0,-1.770688742E-1
6.160821055E0,-4.587040901E0,-7.745566845E0,-1.698904037E-1
6.165576420E0,-4.553541660E0,-7.740781307E0,-1.698904037E-1
6.170331784E0,-4.529613495E0,-7.757531166E0,-1.674975902E-1
6.175087149E0,-4.493721008E0,-7.805387497E0,-1.962114573E-1
6.179842566E0,-4.474578381E0,-7.829315662E0,-2.368894368E-1
6.184597930E0,-4.431507587E0,-7.881958008E0,-2.943171859E-1
6.189353295E0,-4.448257446E0,-7.917850018E0,-3.445664644E-1
6.194108711E0,-4.431507587E0,-7.939385414E0,-3.924229145E-1
6.198864076E0,-4.469792843E0,-8.013563156E0,-4.378865361E-1
6.203619441E0,-4.484149456E0,-8.023134232E0,-4.618147612E-1
6.208374857E0,-4.577469826E0,-8.051848412E0,-4.642075896E-1
6.213130222E0,-4.632504463E0,-8.044670105E0,-4.737788737E-1
6.217885586E0,-4.721039295E0,-8.037490845E0,-4.857429862E-1
6.222640951E0,-4.795216560E0,-8.006384850E0,-4.857429862E-1
6.227396368E0,-4.878965378E0,-7.992027760E0,-4.666004181E-1
6.232151732E0,-4.960321426E0,-7.963313580E0,-4.713860750E-1
6.236907097E0,-5.008177757E0,-7.925028801E0,-4.474578202E-1
6.241662514E0,-5.034498692E0,-7.889136314E0,-4.378865361E-1
6.246417878E0,-5.015356064E0,-7.846065521E0,-4.019941986E-1
6.251173243E0,-4.984249592E0,-7.814958572E0,-3.756731451E-1
6.255928659E0,-4.936393261E0,-7.793423176E0,-3.756731451E-1
6.260684024E0,-4.855037212E0,-7.750352383E0,-3.637090325E-1
6.265439389E0,-4.749752998E0,-7.769495010E0,-3.948157430E-1
6.270194753E0,-4.670789719E0,-7.791030407E0,-4.091726840E-1
6.274950170E0,-4.630111694E0,-7.817351341E0,-4.474578202E-1
6.279705534E0,-4.567898273E0,-7.836493969E0,-4.666004181E-1
6.284460899E0,-4.532006264E0,-7.896314621E0,-4.833501875E-1
6.289216316E0,-4.496113777E0,-7.908278942E0,-4.522434771E-1
6.293971680E0,-4.479363918E0,-7.898707390E0,-4.139583111E-1
6.298727045E0,-4.448257446E0,-7.896314621E0,-3.589234054E-1
6.303482409E0,-4.460221291E0,-7.853243828E0,-3.158525825E-1
6.308237826E0,-4.467400074E0,-7.810173035E0,-2.775674164E-1
6.312993191E0,-4.479363918E0,-7.781459332E0,-2.584248483E-1
6.317748555E0,-4.498506546E0,-7.757531166E0,-2.249253243E-1
6.322503972E0,-4.517649174E0,-7.781459332E0,-2.105683982E-1
6.327259336E0,-4.508078098E0,-7.791030407E0,-2.344966233E-1
6.332014701E0,-4.512863636E0,-7.814958572E0,-2.512463629E-1
6.336770118E0,-4.496113777E0,-7.841279984E0,-2.919243574E-1
6.341525482E0,-4.517649174E0,-7.877171993E0,-3.349951804E-1
6.346280847E0,-4.517649174E0,-7.891529083E0,-3.876372576E-1
6.351036211E0,-4.517649174E0,-7.905886173E0,-4.426721931E-1
6.355791628E0,-4.532006264E0,-7.903493404E0,-4.737788737E-1
6.360546993E0,-4.532006264E0,-7.915457249E0,-5.264210105E-1
6.365302357E0,-4.541577339E0,-7.893921852E0,-5.575276613E-1
6.370057774E0,-4.579862595E0,-7.901100159E0,-5.431707501E-1
6.374813139E0,-4.618147850E0,-7.869993687E0,-5.407779217E-1
6.379568503E0,-4.656432629E0,-7.848458290E0,-5.216353536E-1
6.384323920E0,-4.697110653E0,-7.824530125E0,-4.881358147E-1
6.389079284E0,-4.749752998E0,-7.812565804E0,-4.666004181E-1
6.393834649E0,-4.807180882E0,-7.822137356E0,-4.450650215E-1
6.398590014E0,-4.807180882E0,-7.798209190E0,-4.426721931E-1
6.403345430E0,-4.840680122E0,-7.819744587E0,-4.378865361E-1
6.408100795E0,-4.816751957E0,-7.843672752E0,-4.067798555E-1
6.412856159E0,-4.773681164E0,-7.850851059E0,-3.972085714E-1
6.417611524E0,-4.733003139E0,-7.874779224E0,-3.613162339E-1
6.422366941E0,-4.694717884E0,-7.905886173E0,-3.876372576E-1
6.427122305E0,-4.620540619E0,-7.910671711E0,-4.307080805E-1
6.431877670E0,-4.570291042E0,-7.922635555E0,-4.426721931E-1
6.436633086E0,-4.515256405E0,-7.910671711E0,-4.881358147E-1
6.441388451E0,-4.472185612E0,-7.956135273E0,-4.977070987E-1
6.446143816E0,-4.455435753E0,-7.956135273E0,-4.977070987E-1
6.450899232E0,-4.445864677E0,-7.953742504E0,-5.288137794E-1
6.455654597E0,-4.429114819E0,-7.946564198E0,-5.527420044E-1
6.460409961E0,-4.438685894E0,-7.965706348E0,-5.718846321E-1
6.465165326E0,-4.450650215E0,-7.984848976E0,-5.838487148E-1
6.469920743E0,-4.486542225E0,-8.008777618E0,-6.053841114E-1
6.474676107E0,-4.486542225E0,-8.006384850E0,-6.149554253E-1
6.479431472E0,-4.505684853E0,-8.027919769E0,-5.958128572E-1
6.484186836E0,-4.527220249E0,-8.018348694E0,-5.982056856E-1
6.488942253E0,-4.553541660E0,-8.008777618E0,-5.694918036E-1
6.493697618E0,-4.551148891E0,-7.975277901E0,-5.599204898E-1
6.498452982E0,-4.565505505E0,-7.944170952E0,-5.455635786E-1
6.503208399E0,-4.551148891E0,-7.913064480E0,-5.288137794E-1
6.507963764E0,-4.515256405E0,-7.905886173E0,-5.288137794E-1
6.512719128E0,-4.484149456E0,-7.915457249E0,-5.024927258E-1
6.517474545E0,-4.474578381E0,-7.913064480E0,-5.024927258E-1
6.522229909E0,-4.469792843E0,-7.956135273E0,-4.809573591E-1
6.526985274E0,-4.469792843E0,-7.951349735E0,-4.857429862E-1
6.531740639E0,-4.486542225E0,-7.929814339E0,-4.977070987E-1
6.536496055E0,-4.488935471E0,-7.925028801E0,-4.857429862E-1
6.541251420E0,-4.515256405E0,-7.915457249E0,-4.881358147E-1
6.546006784E0,-4.517649174E0,-7.865208149E0,-4.594219327E-1
6.550762201E0,-4.575077057E0,-7.850851059E0,-4.546363056E-1
6.555517566E0,-4.618147850E0,-7.841279984E0,-4.019941986E-1
6.560272930E0,-4.654039860E0,-7.841279984E0,-3.972085714E-1
6.565028295E0,-4.699503899E0,-7.838887215E0,-3.804588020E-1
6.569783711E0,-4.716253281E0,-7.817351341E0,-3.780659735E-1
6.574539076E0,-4.737788677E0,-7.862815380E0,-3.876372576E-1
6.579294441E0,-4.733003139E0,-7.905886173E0,-4.139583111E-1
6.584049805E0,-4.706682205E0,-7.896314621E0,-4.522434771E-1
6.588805222E0,-4.656432629E0,-7.917850018E0,-4.809573591E-1
6.593560586E0,-4.668396950E0,-7.927421570E0,-4.953143001E-1
6.598315951E0,-4.618147850E0,-7.922635555E0,-5.383850932E-1
6.603071368E0,-4.584648132E0,-7.901100159E0,-5.431707501E-1
6.607826732E0,-4.582255363E0,-7.893921852E0,-5.312066078E-1
6.612582097E0,-4.539184570E0,-7.889136314E0,-5.192425251E-1
6.617337461E0,-4.541577339E0,-7.884350777E0,-5.048855543E-1
6.622092878E0,-4.510470867E0,-7.872386456E0,-5.000999570E-1
6.626848243E0,-4.457828522E0,-7.860422611E0,-4.713860750E-1
6.631603607E0,-4.467400074E0,-7.829315662E0,-4.378865361E-1
6.636359024E0,-4.445864677E0,-7.805387497E0,-4.307080805E-1
6.641114389E0,-4.457828522E0,-7.824530125E0,-4.019941986E-1
6.645869753E0,-4.472185612E0,-7.817351341E0,-4.091726840E-1
6.650625118E0,-4.469792843E0,-7.810173035E0,-4.043870270E-1
6.655380534E0,-4.493721008E0,-7.841279984E0,-4.019941986E-1
6.660135899E0,-4.539184570E0,-7.874779224E0,-3.924229145E-1
6.664891264E0,-4.577469826E0,-7.901100159E0,-4.139583111E-1
6.669646628E0,-4.615755081E0,-7.917850018E0,-4.139583111E-1
6.674402045E0,-4.639683247E0,-7.963313580E0,-4.067798555E-1
6.679157409E0,-4.680361271E0,-7.953742504E0,-4.115654826E-1
6.683912774E0,-4.677968502E0,-7.972885132E0,-4.043870270E-1
6.688668191E0,-4.682754040E0,-7.960920811E0,-3.996013701E-1
6.693423555E0,-4.680361271E0,-7.972885132E0,-3.924229145E-1
6.698178920E0,-4.637290478E0,-7.968099594E0,-4.091726840E-1
6.702934284E0,-4.591826439E0,-7.951349735E0,-3.948157430E-1
6.707689701E0,-4.539184570E0,-7.948956966E0,-3.732803464E-1
6.712445066E0,-4.488935471E0,-7.920242786E0,-3.565305769E-1
6.717200430E0,-4.443471432E0,-7.884350777E0,-3.397808075E-1
6.721955795E0,-4.405186653E0,-7.860422611E0,-2.967100143E-1
6.726711211E0,-4.378865242E0,-7.831708431E0,-3.014956415E-1
6.731466576E0,-4.359723091E0,-7.834101200E0,-3.038884699E-1
6.736221941E0,-4.393222332E0,-7.862815380E0,-3.421736360E-1
6.740977305E0,-4.388436794E0,-7.874779224E0,-3.613162339E-1
6.745732722E0,-4.383651257E0,-7.896314621E0,-3.708875179E-1
6.750488086E0,-4.431507587E0,-7.917850018E0,-3.780659735E-1
6.755243451E0,-4.460221291E0,-7.941778183E0,-4.091726840E-1
6.759998816E0,-4.491328239E0,-7.960920811E0,-3.972085714E-1
6.764754232E0,-4.527220249E0,-7.956135273E0,-4.139583111E-1
6.769509597E0,-4.543970108E0,-7.946564198E0,-4.259224236E-1
6.774264961E0,-4.589433670E0,-7.927421570E0,-4.426721931E-1
6.779020378E0,-4.608576298E0,-7.951349735E0,-4.618147612E-1
6.783775743E0,-4.630111694E0,-7.936992645E0,-4.474578202E-1
6.788531107E0,-4.666004181E0,-7.927421570E0,-4.833501875E-1
6.793286472E0,-4.699503899E0,-7.925028801E0,-5.000999570E-1
6.798041889E0,-4.716253281E0,-7.908278942E0,-5.288137794E-1
6.802797253E0,-4.744967461E0,-7.910671711E0,-5.240281820E-1
6.807552618E0,-4.759324074E0,-7.881958008E0,-5.431707501E-1
6.812307982E0,-4.780859470E0,-7.862815380E0,-5.120640397E-1
6.817063399E0,-4.804787636E0,-7.860422611E0,-4.737788737E-1
6.821818764E0,-4.804787636E0,-7.822137356E0,-4.211367965E-1
6.826574128E0,-4.807180882E0,-7.826922894E0,-3.732803464E-1
6.831329493E0,-4.809573650E0,-7.812565804E0,-3.134597540E-1
6.836084909E0,-4.800002098E0,-7.810173035E0,-2.847459018E-1
6.840840274E0,-4.771288395E0,-7.807780266E0,-2.656033039E-1
6.845595639E0,-4.701896667E0,-7.822137356E0,-2.679961324E-1
6.850351003E0,-4.651647091E0,-7.822137356E0,-2.584248483E-1
6.855106420E0,-4.591826439E0,-7.836493969E0,-2.608176768E-1
6.859861784E0,-4.539184570E0,-7.829315662E0,-2.488535494E-1
6.864617149E0,-4.484149456E0,-7.834101200E0,-2.584248483E-1
6.869372514E0,-4.436293125E0,-7.834101200E0,-2.799602449E-1
6.874127930E0,-4.393222332E0,-7.846065521E0,-3.038884699E-1
6.878883295E0,-4.400400639E0,-7.846065521E0,-3.254238665E-1
6.883638659E0,-4.407579422E0,-7.824530125E0,-3.517449200E-1
6.888394024E0,-4.433900356E0,-7.817351341E0,-3.828516304E-1
6.893149441E0,-4.453042984E0,-7.812565804E0,-3.900300860E-1
6.897904805E0,-4.515256405E0,-7.834101200E0,-3.876372576E-1
6.902660170E0,-4.515256405E0,-7.853243828E0,-3.780659735E-1
6.907415534E0,-4.560719967E0,-7.893921852E0,-3.708875179E-1
6.912170951E0,-4.584648132E0,-7.932207108E0,-3.541377485E-1
6.916926316E0,-4.589433670E0,-7.941778183E0,-3.589234054E-1
6.921681680E0,-4.608576298E0,-7.982456207E0,-3.397808075E-1
6.926437045E0,-4.610969067E0,-7.968099594E0,-3.373879790E-1
6.931192461E0,-4.603790760E0,-7.977670670E0,-3.397808075E-1
6.935947826E0,-4.582255363E0,-7.977670670E0,-3.302095234E-1
6.940703191E0,-4.579862595E0,-7.977670670E0,-3.206382394E-1
6.945458555E0,-4.572684288E0,-7.972885132E0,-3.182454109E-1
6.950213972E0,-4.546362877E0,-7.994420528E0,-3.158525825E-1
6.954969336E0,-4.512863636E0,-7.982456207E0,-3.349951804E-1
6.959724701E0,-4.536791801E0,-7.972885132E0,-3.302095234E-1
6.964480066E0,-4.536791801E0,-7.989634991E0,-3.158525825E-1
6.969235482E0,-4.539184570E0,-8.013563156E0,-2.847459018E-1
6.973990847E0,-4.551148891E0,-8.042277336E0,-2.488535494E-1
6.978746211E0,-4.563112736E0,-8.042277336E0,-2.153540403E-1
6.983501576E0,-4.565505505E0,-8.059026718E0,-2.105683982E-1
6.988256993E0,-4.587040901E0,-8.075776100E0,-2.009970993E-1
6.993012357E0,-4.587040901E0,-8.102097511E0,-2.297109663E-1
6.997767722E0,-4.584648132E0,-8.135597229E0,-2.560320199E-1
7.002523086E0,-4.565505505E0,-8.142775536E0,-3.038884699E-1
7.007278503E0,-4.567898273E0,-8.181060791E0,-3.326023519E-1
7.012033868E0,-4.553541660E0,-8.190631866E0,-3.661018610E-1
7.016789232E0,-4.567898273E0,-8.197810173E0,-3.996013701E-1
7.021544597E0,-4.565505505E0,-8.149953842E0,-4.235295951E-1
7.026299961E0,-4.560719967E0,-8.133204460E0,-4.187439680E-1
7.031055378E0,-4.565505505E0,-8.111668587E0,-4.139583111E-1
7.035810743E0,-4.567898273E0,-8.121239662E0,-3.900300860E-1
7.040566107E0,-4.575077057E0,-8.126026154E0,-3.637090325E-1
7.045321472E0,-4.579862595E0,-8.145168304E0,-3.326023519E-1
7.050076889E0,-4.577469826E0,-8.154739380E0,-3.206382394E-1
7.054832253E0,-4.603790760E0,-8.137989998E0,-2.871387303E-1
7.059587618E0,-4.620540619E0,-8.121239662E0,-2.632105052E-1
7.064342982E0,-4.625326157E0,-8.121239662E0,-2.392822653E-1
7.069098399E0,-4.606183529E0,-8.092526436E0,-2.297109663E-1
7.073853764E0,-4.630111694E0,-8.070990562E0,-1.986042857E-1
7.078609128E0,-4.594219685E0,-8.044670105E0,-1.794617027E-1
7.083364493E0,-4.579862595E0,-8.059026718E0,-1.555334777E-1
7.088119857E0,-4.560719967E0,-8.073383331E0,-1.028913707E-1
7.092875274E0,-4.546362877E0,-8.090133667E0,-5.503492057E-2
7.097630639E0,-4.539184570E0,-8.106883049E0,-4.785645381E-2
7.102386003E0,-4.522434711E0,-8.094919205E0,-1.914258115E-2
7.107141368E0,-4.493721008E0,-8.087740898E0,-1.914258115E-2
7.111896784E0,-4.491328239E0,-8.059026718E0,-1.914258115E-2
7.116652149E0,-4.510470867E0,-8.037490845E0,-2.871387079E-2
7.121407514E0,-4.522434711E0,-8.032705307E0,-4.067798331E-2
7.126162878E0,-4.558327198E0,-8.015955925E0,-7.178468257E-2
7.130918243E0,-4.601397991E0,-8.025527000E0,-8.614161611E-2
7.135673659E0,-4.642076015E0,-8.056633949E0,-1.387837082E-1
7.140429024E0,-4.687539577E0,-8.097311974E0,-1.770688742E-1
7.145184389E0,-4.718646049E0,-8.128418922E0,-2.153540403E-1
7.149939753E0,-4.699503899E0,-8.137989998E0,-2.416750938E-1
7.154695170E0,-4.706682205E0,-8.161917686E0,-2.249253243E-1
7.159450534E0,-4.701896667E0,-8.164310455E0,-2.368894368E-1
7.164205899E0,-4.692325115E0,-8.183453560E0,-2.081755698E-1
7.168961264E0,-4.706682205E0,-8.200202942E0,-1.794617027E-1
7.173716628E0,-4.670789719E0,-8.200202942E0,-1.722832322E-1
7.178472045E0,-4.697110653E0,-8.176275253E0,-1.411765367E-1
7.183227409E0,-4.692325115E0,-8.164310455E0,-1.316052526E-1
7.187982774E0,-4.709074974E0,-8.154739380E0,-1.052841991E-1
7.192738139E0,-4.699503899E0,-8.121239662E0,-8.614161611E-2
7.197493503E0,-4.706682205E0,-8.114061356E0,-6.699903309E-2
7.202248920E0,-4.723432064E0,-8.085348129E0,-5.982056633E-2
7.207004284E0,-4.728217602E0,-8.111668587E0,-5.982056633E-2
7.211759649E0,-4.704289436E0,-8.130811691E0,-7.657032460E-2
7.216515014E0,-4.687539577E0,-8.142775536E0,-7.657032460E-2
7.221270378E0,-4.668396950E0,-8.164310455E0,-1.004985496E-1
7.226025795E0,-4.649254322E0,-8.200202942E0,-1.148554832E-1
7.230781159E0,-4.610969067E0,-8.243273735E0,-1.746760458E-1
7.235536524E0,-4.589433670E0,-8.262416840E0,-2.105683982E-1
7.240291889E0,-4.615755081E0,-8.262416840E0,-2.679961324E-1
7.245047253E0,-4.599005222E0,-8.286344528E0,-2.943171859E-1
7.249802670E0,-4.613361835E0,-8.303094864E0,-3.158525825E-1
7.254558034E0,-4.639683247E0,-8.307880402E0,-3.110669553E-1
7.259313399E0,-4.663611412E0,-8.307880402E0,-2.871387303E-1
7.264068764E0,-4.701896667E0,-8.312665939E0,-2.512463629E-1
7.268824128E0,-4.704289436E0,-8.288737297E0,-2.081755698E-1
7.273579545E0,-4.699503899E0,-8.288737297E0,-1.387837082E-1
7.278334909E0,-4.716253281E0,-8.245666504E0,-6.699903309E-2
7.283090274E0,-4.685146809E0,-8.271987915E0,-1.674975827E-2
7.287845639E0,-4.689932346E0,-8.252845764E0,9.571290575E-3
7.292601055E0,-4.644468784E0,-8.250452042E0,4.785645287E-3
7.297356420E0,-4.603790760E0,-8.298309326E0,-2.632104978E-2
7.302111784E0,-4.603790760E0,-8.300702095E0,-7.417750359E-2
7.306867149E0,-4.584648132E0,-8.336593628E0,-1.196411327E-1
7.311622514E0,-4.608576298E0,-8.348558426E0,-1.770688742E-1
7.316377878E0,-4.625326157E0,-8.315058708E0,-2.344966233E-1
7.321133295E0,-4.625326157E0,-8.312665939E0,-2.488535494E-1
7.325888659E0,-4.651647091E0,-8.310273170E0,-2.727817893E-1
7.330644024E0,-4.670789719E0,-8.283951759E0,-2.560320199E-1
7.335399389E0,-4.697110653E0,-8.271987915E0,-2.488535494E-1
7.340154753E0,-4.735395908E0,-8.255238533E0,-2.344966233E-1
7.344910118E0,-4.761716843E0,-8.260024071E0,-1.938186288E-1
7.349665534E0,-4.790431023E0,-8.286344528E0,-1.722832322E-1
7.354420899E0,-4.816751957E0,-8.317451477E0,-1.363908947E-1
7.359176264E0,-4.828716278E0,-8.334200859E0,-1.100698411E-1
7.363931628E0,-4.843072891E0,-8.374878883E0,-8.374879509E-2
7.368686993E0,-4.838287354E0,-8.355736732E0,-6.460621208E-2
7.373442409E0,-4.819144726E0,-8.334200859E0,-7.178468257E-2
7.378197774E0,-4.795216560E0,-8.303094864E0,-8.135596663E-2
7.382953139E0,-4.828716278E0,-8.288737297E0,-8.374879509E-2
7.387708503E0,-4.828716278E0,-8.255238533E0,-1.244267747E-1
7.392463868E0,-4.828716278E0,-8.236095428E0,-1.459621787E-1
7.397219284E0,-4.831109047E0,-8.226524353E0,-1.962114573E-1
7.401974649E0,-4.807180882E0,-8.248059273E0,-2.464607358E-1
7.406730014E0,-4.780859470E0,-8.267202377E0,-2.703889608E-1
7.411485378E0,-4.800002098E0,-8.307880402E0,-2.991028428E-1
7.416240743E0,-4.773681164E0,-8.324629784E0,-3.254238665E-1
7.420996107E0,-4.780859470E0,-8.319844246E0,-3.206382394E-1
7.425751472E0,-4.771288395E0,-8.327022552E0,-3.062812984E-1
7.430506889E0,-4.785645485E0,-8.338987350E0,-2.967100143E-1
7.435262253E0,-4.778466702E0,-8.374878883E0,-2.560320199E-1
7.440017618E0,-4.778466702E0,-8.384450912E0,-1.842473447E-1
7.444772982E0,-4.771288395E0,-8.384450912E0,-1.579262912E-1
7.449528347E0,-4.756931305E0,-8.394021988E0,-1.028913707E-1
7.454283764E0,-4.756931305E0,-8.374878883E0,-5.264209956E-2
7.459039128E0,-4.764110088E0,-8.391629219E0,-4.067798331E-2
7.463794493E0,-4.783252239E0,-8.374878883E0,-1.435693540E-2
7.468549857E0,-4.780859470E0,-8.362915039E0,-1.435693540E-2
7.473305222E0,-4.795216560E0,-8.370093346E0,-2.632104978E-2
7.478060586E0,-4.807180882E0,-8.365307808E0,-7.657032460E-2
7.482815951E0,-4.816751957E0,-8.348558426E0,-1.196411327E-1
7.487571368E0,-4.816751957E0,-8.379665375E0,-1.531406492E-1
7.492326732E0,-4.795216560E0,-8.379665375E0,-1.962114573E-1
7.497082097E0,-4.780859470E0,-8.396414757E0,-2.129612118E-1
7.501837461E0,-4.771288395E0,-8.403593063E0,-2.105683982E-1
7.506592826E0,-4.790431023E0,-8.396414757E0,-2.153540403E-1
7.511348191E0,-4.792823792E0,-8.415556908E0,-2.009970993E-1
7.516103607E0,-4.773681164E0,-8.432307243E0,-1.890329868E-1
7.520858972E0,-4.800002098E0,-8.420342445E0,-1.914258152E-1
7.525614336E0,-4.797609329E0,-8.422736168E0,-1.890329868E-1
7.530369701E0,-4.797609329E0,-8.449056625E0,-1.770688742E-1
7.535125066E0,-4.823930264E0,-8.458627701E0,-1.794617027E-1
7.539880430E0,-4.807180882E0,-8.446663857E0,-1.986042857E-1
7.544635795E0,-4.828716278E0,-8.432307243E0,-1.986042857E-1
7.549391211E0,-4.804787636E0,-8.461020470E0,-1.890329868E-1
7.554146576E0,-4.764110088E0,-8.439485550E0,-1.603191197E-1
7.558901941E0,-4.747360229E0,-8.420342445E0,-1.196411327E-1
7.563657305E0,-4.711467743E0,-8.472985268E0,-1.076770201E-1
7.568412670E0,-4.685146809E0,-8.465806961E0,-8.853443712E-2
7.573168086E0,-4.646861553E0,-8.475378036E0,-8.853443712E-2
7.577923451E0,-4.661218643E0,-8.513663292E0,-7.896314561E-2
7.582678816E0,-4.656432629E0,-8.542376518E0,-6.221338734E-2
7.587434180E0,-4.689932346E0,-8.549555779E0,-2.871387079E-2
7.592189545E0,-4.706682205E0,-8.528019905E0,-2.871387079E-2
7.596944909E0,-4.747360229E0,-8.528019905E0,-3.110669367E-2
7.601700274E0,-4.768895626E0,-8.492127419E0,-2.392822690E-2
7.606455639E0,-4.816751957E0,-8.480163574E0,4.785645287E-3
7.611211055E0,-4.838287354E0,-8.441878319E0,-9.571290575E-3
7.615966420E0,-4.874179840E0,-8.429914474E0,7.178467698E-3
7.620721784E0,-4.919643402E0,-8.405985832E0,-1.435693540E-2
7.625477149E0,-4.941178799E0,-8.382058144E0,-3.349951655E-2
7.630232514E0,-4.945964336E0,-8.382058144E0,-6.939185411E-2
7.634987878E0,-4.955535889E0,-8.382058144E0,-1.052841991E-1
7.639743295E0,-4.960321426E0,-8.391629219E0,-1.411765367E-1
7.644498659E0,-4.957928658E0,-8.420342445E0,-1.746760458E-1
7.649254024E0,-4.936393261E0,-8.470592499E0,-2.105683982E-1
7.654009389E0,-4.926821709E0,-8.513663292E0,-1.914258152E-1
7.658764753E0,-4.893322468E0,-8.547162056E0,-2.009970993E-1
7.663520118E0,-4.869394302E0,-8.566305161E0,-1.818545163E-1
7.668275482E0,-4.831109047E0,-8.578269005E0,-1.483550072E-1
7.673030847E0,-4.802394867E0,-8.583054543E0,-1.363908947E-1
7.677786211E0,-4.790431023E0,-8.573483467E0,-1.459621787E-1
7.682541628E0,-4.804787636E0,-8.568697929E0,-1.268195957E-1
7.687296993E0,-4.780859470E0,-8.551948547E0,-1.459621787E-1
7.692052357E0,-4.800002098E0,-8.547162056E0,-1.531406492E-1
7.696807722E0,-4.835894585E0,-8.530412674E0,-1.674975902E-1
7.701563086E0,-4.847858906E0,-8.547162056E0,-1.698904037E-1
7.706318451E0,-4.883750916E0,-8.539983749E0,-1.842473447E-1
7.711073816E0,-4.874179840E0,-8.571090698E0,-1.890329868E-1
7.715829180E0,-4.859822750E0,-8.551948547E0,-1.770688742E-1
7.720584597E0,-4.867001057E0,-8.580661774E0,-1.603191197E-1
7.725339961E0,-4.847858906E0,-8.595019341E0,-1.722832322E-1
7.730095326E0,-4.838287354E0,-8.597412109E0,-1.627119333E-1
7.734850691E0,-4.852644444E0,-8.628518105E0,-1.531406492E-1
7.739606055E0,-4.852644444E0,-8.623732567E0,-1.220339537E-1
7.744361420E0,-4.871787071E0,-8.635697365E0,-9.332008660E-2
7.749116784E0,-4.869394302E0,-8.635697365E0,-6.221338734E-2
7.753872149E0,-4.900500774E0,-8.606983185E0,-4.785645381E-2
7.758627566E0,-4.878965378E0,-8.587840080E0,-0.000000000E0
7.763382930E0,-4.871787071E0,-8.573483467E0,-0.000000000E0
7.768138295E0,-4.886143684E0,-8.551948547E0,1.196411345E-2
7.772893659E0,-4.874179840E0,-8.525627136E0,3.110669367E-2
7.777649024E0,-4.893322468E0,-8.535198212E0,4.785645381E-2
7.782404389E0,-4.871787071E0,-8.494520187E0,5.982056633E-2
7.787159753E0,-4.828716278E0,-8.511270523E0,6.460621208E-2
7.791915118E0,-4.821537495E0,-8.537590981E0,5.503492057E-2
7.796670482E0,-4.809573650E0,-8.547162056E0,5.503492057E-2
7.801425847E0,-4.778466702E0,-8.578269005E0,3.110669367E-2
7.806181211E0,-4.737788677E0,-8.623732567E0,4.785645287E-3
7.810936628E0,-4.706682205E0,-8.669196129E0,-3.110669367E-2
7.815691993E0,-4.718646049E0,-8.690732002E0,-6.699903309E-2
7.820447357E0,-4.697110653E0,-8.702695847E0,-8.614161611E-2
7.825202722E0,-4.704289436E0,-8.690732002E0,-9.810572863E-2
7.829958086E0,-4.713860512E0,-8.695517540E0,-1.387837082E-1
7.834713451E0,-4.728217602E0,-8.645268440E0,-1.722832322E-1
7.839468816E0,-4.749752998E0,-8.650053978E0,-2.009970993E-1
7.844224180E0,-4.780859470E0,-8.618947029E0,-1.914258152E-1
7.848979545E0,-4.809573650E0,-8.614161491E0,-1.818545163E-1
7.853734961E0,-4.835894585E0,-8.575876236E0,-1.411765367E-1
7.858490326E0,-4.867001057E0,-8.575876236E0,-7.896314561E-2
7.863245691E0,-4.867001057E0,-8.559126854E0,-2.632104978E-2
7.868001055E0,-4.893322468E0,-8.573483467E0,9.571290575E-3
7.872756420E0,-4.862215519E0,-8.575876236E0,5.264209956E-2
7.877511784E0,-4.850251675E0,-8.595019341E0,6.699903309E-2
7.882267149E0,-4.811966419E0,-8.585447311E0,9.092725813E-2
7.887022514E0,-4.809573650E0,-8.626125336E0,9.810572863E-2
7.891777878E0,-4.780859470E0,-8.623732567E0,9.332008660E-2
7.896533243E0,-4.756931305E0,-8.595019341E0,6.939185411E-2
7.901288659E0,-4.756931305E0,-8.609375954E0,5.982056633E-2
7.906044024E0,-4.744967461E0,-8.599804878E0,4.067798331E-2
7.910799389E0,-4.776073933E0,-8.616554260E0,4.067798331E-2
7.915554753E0,-4.792823792E0,-8.597412109E0,5.503492057E-2
7.920310118E0,-4.802394867E0,-8.602197647E0,4.067798331E-2
7.925065482E0,-4.811966419E0,-8.590232849E0,7.178467698E-3
7.929820847E0,-4.828716278E0,-8.580661774E0,4.785645287E-3
7.934576211E0,-4.838287354E0,-8.571090698E0,-1.914258115E-2
7.939331576E0,-4.814359188E0,-8.554341316E0,-2.153540403E-2
7.944086941E0,-4.821537495E0,-8.561519623E0,-2.153540403E-2
7.948842305E0,-4.819144726E0,-8.561519623E0,-2.392822690E-2
7.953597670E0,-4.835894585E0,-8.563912392E0,7.178467698E-3
7.958353086E0,-4.811966419E0,-8.583054543E0,4.307080805E-2
7.963108399E0,-4.814359188E0,-8.587840080E0,5.264209956E-2
7.967863816E0,-4.816751957E0,-8.614161491E0,8.135596663E-2
7.972619180E0,-4.823930264E0,-8.618947029E0,1.004985496E-1
7.977374545E0,-4.845465660E0,-8.602197647E0,1.004985496E-1
7.982129909E0,-4.867001057E0,-8.585447311E0,9.810572863E-2
7.986885274E0,-4.900500774E0,-8.592626572E0,5.982056633E-2
7.991640639E0,-4.962714195E0,-8.650053978E0,3.349951655E-2
7.996396003E0,-5.017749310E0,-8.685946465E0,-9.571290575E-3
8.001151368E0,-5.082355499E0,-8.724231720E0,-4.307080805E-2
8.005906732E0,-5.146961689E0,-8.745766640E0,-8.853443712E-2
8.010662097E0,-5.156532764E0,-8.767302513E0,-1.220339537E-1
8.015417461E0,-5.175675392E0,-8.769695282E0,-1.531406492E-1
8.020172826E0,-5.180460930E0,-8.760123253E0,-2.009970993E-1
8.024928191E0,-5.163711071E0,-8.707481384E0,-2.536391914E-1
8.029683607E0,-5.149354458E0,-8.662017822E0,-2.775674164E-1
8.034438972E0,-5.058426857E0,-8.604590416E0,-2.847459018E-1
8.039194336E0,-5.015356064E0,-8.559126854E0,-2.632105052E-1
8.043949701E0,-4.936393261E0,-8.537590981E0,-2.201396823E-1
8.048705066E0,-4.878965378E0,-8.489734650E0,-1.698904037E-1
8.053460430E0,-4.804787636E0,-8.470592499E0,-1.052841991E-1
8.058215795E0,-4.735395908E0,-8.463413239E0,-2.392822644E-3
8.062971159E0,-4.689932346E0,-8.463413239E0,5.982056633E-2
8.067726524E0,-4.656432629E0,-8.432307243E0,1.651047617E-1
8.072481889E0,-4.615755081E0,-8.417949677E0,2.560320199E-1
8.077237253E0,-4.577469826E0,-8.405985832E0,3.373879790E-1
8.081992618E0,-4.553541660E0,-8.401200294E0,4.091726840E-1
8.086747982E0,-4.529613495E0,-8.441878319E0,4.426721931E-1
8.091503347E0,-4.515256405E0,-8.470592499E0,4.426721931E-1
8.096258711E0,-4.465006828E0,-8.528019905E0,4.426721931E-1
8.101014128E0,-4.443471432E0,-8.575876236E0,4.019941986E-1
8.105769493E0,-4.433900356E0,-8.563912392E0,3.589234054E-1
8.110524857E0,-4.405186653E0,-8.595019341E0,2.584248483E-1
8.115280222E0,-4.405186653E0,-8.604590416E0,1.531406492E-1
8.120035586E0,-4.402793884E0,-8.585447311E0,4.307080805E-2
8.124790951E0,-4.476971149E0,-8.573483467E0,-6.221338734E-2
8.129546316E0,-4.503292084E0,-8.568697929E0,-1.411765367E-1
8.134301680E0,-4.567898273E0,-8.563912392E0,-1.603191197E-1
8.139057045E0,-4.608576298E0,-8.539983749E0,-1.627119333E-1
8.143812409E0,-4.644468784E0,-8.554341316E0,-1.651047617E-1
8.148567774E0,-4.713860512E0,-8.547162056E0,-1.268195957E-1
8.153323139E0,-4.773681164E0,-8.537590981E0,-1.100698411E-1
8.158078503E0,-4.852644444E0,-8.539983749E0,-7.178468257E-2
8.162833868E0,-4.934000492E0,-8.525627136E0,-2.871387079E-2
8.167589232E0,-5.005784988E0,-8.520841599E0,-4.785645287E-3
8.172344597E0,-5.051248550E0,-8.518448830E0,2.632104978E-2
8.177099961E0,-5.113461971E0,-8.523234367E0,4.067798331E-2
8.181855326E0,-5.168497086E0,-8.508877754E0,5.264209956E-2
8.186610691E0,-5.190032482E0,-8.501698494E0,6.460621208E-2
8.191366055E0,-5.245067120E0,-8.492127419E0,9.332008660E-2
8.196121472E0,-5.242674351E0,-8.504091263E0,1.004985496E-1
8.200876836E0,-5.245067120E0,-8.482556343E0,1.196411327E-1
8.205632201E0,-5.240281582E0,-8.475378036E0,1.507478207E-1
8.210387566E0,-5.233103275E0,-8.444271088E0,1.579262912E-1
8.215142930E0,-5.216353416E0,-8.470592499E0,1.555334777E-1
8.219898295E0,-5.192425251E0,-8.480163574E0,1.435693651E-1
8.224653659E0,-5.182853699E0,-8.484949112E0,1.148554832E-1
8.229409024E0,-5.156532764E0,-8.501698494E0,8.853443712E-2
8.234164389E0,-5.123033047E0,-8.532805443E0,5.982056633E-2
8.238919753E0,-5.065605640E0,-8.535198212E0,1.674975827E-2
8.243675118E0,-5.036891460E0,-8.539983749E0,-3.589234129E-2
8.248430482E0,-4.953142643E0,-8.621339798E0,-6.939185411E-2
8.253185847E0,-4.883750916E0,-8.654839516E0,-9.810572863E-2
8.257941211E0,-4.804787636E0,-8.681160927E0,-1.100698411E-1
8.262696576E0,-4.749752998E0,-8.683553696E0,-1.148554832E-1
8.267451941E0,-4.704289436E0,-8.697910309E0,-9.332008660E-2
8.272207305E0,-4.654039860E0,-8.688339233E0,-9.571290761E-2
8.276962670E0,-4.649254322E0,-8.683553696E0,-1.004985496E-1
8.281718034E0,-4.654039860E0,-8.664410591E0,-8.374879509E-2
8.286473399E0,-4.663611412E0,-8.652446747E0,-8.135596663E-2
8.291228764E0,-4.677968502E0,-8.628518105E0,-7.417750359E-2
8.295984128E0,-4.697110653E0,-8.635697365E0,-6.460621208E-2
8.300739493E0,-4.723432064E0,-8.626125336E0,-7.896314561E-2
8.305494857E0,-4.764110088E0,-8.597412109E0,-6.939185411E-2
8.310250222E0,-4.783252239E0,-8.575876236E0,-7.417750359E-2
8.315005586E0,-4.783252239E0,-8.566305161E0,-8.853443712E-2
8.319760951E0,-4.807180882E0,-8.547162056E0,-8.374879509E-2
8.324516316E0,-4.850251675E0,-8.518448830E0,-8.614161611E-2
8.329271732E0,-4.876572609E0,-8.461020470E0,-8.853443712E-2
8.334027097E0,-4.912465096E0,-8.463413239E0,-8.135596663E-2
8.338782409E0,-4.945964336E0,-8.439485550E0,-6.460621208E-2
8.343537826E0,-4.996213913E0,-8.441878319E0,-5.024927482E-2
8.348293191E0,-5.017749310E0,-8.425128937E0,-4.785645287E-3
8.353048555E0,-5.036891460E0,-8.394021988E0,4.785645287E-3
8.357803920E0,-5.099104881E0,-8.405985832E0,2.871387079E-2
8.362559284E0,-5.118247509E0,-8.405985832E0,4.307080805E-2
8.367314649E0,-5.151747227E0,-8.425128937E0,4.067798331E-2
8.372070014E0,-5.127819061E0,-8.446663857E0,5.264209956E-2
8.376825378E0,-5.118247509E0,-8.463413239E0,5.742774159E-2
8.381580743E0,-5.065605640E0,-8.516056061E0,7.657032460E-2
8.386336107E0,-5.039284706E0,-8.523234367E0,7.657032460E-2
8.391091472E0,-4.974678040E0,-8.549555779E0,9.092725813E-2
8.395846836E0,-4.919643402E0,-8.583054543E0,9.571290761E-2
8.400602201E0,-4.905286312E0,-8.614161491E0,9.092725813E-2
8.405357566E0,-4.871787071E0,-8.650053978E0,8.614161611E-2
8.410112930E0,-4.893322468E0,-8.671588898E0,5.742774159E-2
8.414868295E0,-4.900500774E0,-8.693124771E0,4.307080805E-2
8.419623659E0,-4.936393261E0,-8.709874153E0,4.546362907E-2
8.424379024E0,-4.957928658E0,-8.750552177E0,5.024927482E-2
8.429134389E0,-4.993820667E0,-8.755337715E0,6.699903309E-2
8.433889753E0,-5.034498692E0,-8.764909744E0,6.699903309E-2
8.438645118E0,-5.036891460E0,-8.724231720E0,7.417750359E-2
8.443400482E0,-5.084748268E0,-8.738588333E0,5.982056633E-2
8.448155847E0,-5.070391178E0,-8.662017822E0,2.392822644E-3
8.452911211E0,-5.029713154E0,-8.626125336E0,-3.828516230E-2
8.457666576E0,-5.022534847E0,-8.573483467E0,-6.460621208E-2
8.462421941E0,-4.993820667E0,-8.544769287E0,-1.052841991E-1
8.467177305E0,-4.967499733E0,-8.518448830E0,-1.339980662E-1
8.471932670E0,-4.924428940E0,-8.494520187E0,-1.411765367E-1
8.476688034E0,-4.874179840E0,-8.504091263E0,-1.603191197E-1
8.481443399E0,-4.826323509E0,-8.520841599E0,-1.483550072E-1
8.486198764E0,-4.778466702E0,-8.568697929E0,-1.220339537E-1
8.490954128E0,-4.680361271E0,-8.575876236E0,-8.135596663E-2
8.495709493E0,-4.625326157E0,-8.604590416E0,-4.546362907E-2
8.500464857E0,-4.622933388E0,-8.611768723E0,3.110669367E-2
8.505220222E0,-4.570291042E0,-8.602197647E0,9.332008660E-2
8.509975586E0,-4.575077057E0,-8.568697929E0,1.507478207E-1
8.514730951E0,-4.548755646E0,-8.523234367E0,1.962114573E-1
8.519486316E0,-4.541577339E0,-8.470592499E0,2.297109663E-1
8.524241680E0,-4.570291042E0,-8.427521706E0,2.584248483E-1
8.528997045E0,-4.591826439E0,-8.410771370E0,2.608176768E-1
8.533752409E0,-4.622933388E0,-8.391629219E0,2.751746178E-1
8.538507774E0,-4.651647091E0,-8.398807526E0,2.560320199E-1
8.543263139E0,-4.685146809E0,-8.427521706E0,2.225325108E-1
8.548018503E0,-4.699503899E0,-8.463413239E0,1.770688742E-1
8.552773868E0,-4.711467743E0,-8.482556343E0,1.196411327E-1
8.557529232E0,-4.711467743E0,-8.492127419E0,7.657032460E-2
8.562284597E0,-4.716253281E0,-8.487341881E0,5.024927482E-2
8.567039961E0,-4.701896667E0,-8.484949112E0,3.349951655E-2
8.571795326E0,-4.723432064E0,-8.449056625E0,6.221338734E-2
8.576550691E0,-4.737788677E0,-8.456234932E0,7.896314561E-2
8.581306055E0,-4.773681164E0,-8.408378601E0,9.810572863E-2
8.586061420E0,-4.821537495E0,-8.391629219E0,1.172483116E-1
8.590816784E0,-4.876572609E0,-8.382058144E0,1.459621787E-1
8.595572149E0,-4.941178799E0,-8.410771370E0,1.483550072E-1
8.600327514E0,-5.010570526E0,-8.434700012E0,1.579262912E-1
8.605082878E0,-5.046463013E0,-8.489734650E0,1.435693651E-1
8.609838243E0,-5.094319344E0,-8.561519623E0,1.339980662E-1
8.614593607E0,-5.120640278E0,-8.630910873E0,1.100698411E-1
8.619348972E0,-5.118247509E0,-8.697910309E0,6.939185411E-2
8.624104336E0,-5.132604599E0,-8.757730484E0,3.589234129E-2
8.628859701E0,-5.123033047E0,-8.791230202E0,-3.110669367E-2
8.633615066E0,-5.087141037E0,-8.793622971E0,-1.220339537E-1
8.638370378E0,-5.044070244E0,-8.767302513E0,-1.866401732E-1
8.643125743E0,-4.991427898E0,-8.709874153E0,-2.416750938E-1
8.647881107E0,-4.967499733E0,-8.642875671E0,-2.895315289E-1
8.652636472E0,-4.955535889E0,-8.597412109E0,-2.967100143E-1
8.657391836E0,-4.929214478E0,-8.587840080E0,-2.943171859E-1
8.662147201E0,-4.934000492E0,-8.566305161E0,-2.727817893E-1
8.666902566E0,-4.934000492E0,-8.559126854E0,-2.225325108E-1
8.671657930E0,-4.945964336E0,-8.571090698E0,-1.746760458E-1
8.676413295E0,-4.957928658E0,-8.585447311E0,-1.244267747E-1
8.681168659E0,-4.950749874E0,-8.566305161E0,-6.699903309E-2
8.685924024E0,-4.948357105E0,-8.580661774E0,-5.503492057E-2
8.690679389E0,-4.924428940E0,-8.571090698E0,-2.632104978E-2
8.695434753E0,-4.895715237E0,-8.542376518E0,-5.024927482E-2
8.700190118E0,-4.878965378E0,-8.549555779E0,-4.067798331E-2
8.704945482E0,-4.826323509E0,-8.551948547E0,-5.264209956E-2
8.709700847E0,-4.802394867E0,-8.528019905E0,-6.699903309E-2
8.714456211E0,-4.749752998E0,-8.528019905E0,-7.178468257E-2
8.719211576E0,-4.704289436E0,-8.525627136E0,-1.100698411E-1
8.723966941E0,-4.689932346E0,-8.530412674E0,-1.627119333E-1
8.728722305E0,-4.639683247E0,-8.530412674E0,-2.081755698E-1
8.733477670E0,-4.658825874E0,-8.547162056E0,-2.512463629E-1
8.738233034E0,-4.654039860E0,-8.575876236E0,-2.775674164E-1
8.742988399E0,-4.697110653E0,-8.583054543E0,-3.230310678E-1
8.747743764E0,-4.744967461E0,-8.575876236E0,-3.014956415E-1
8.752499128E0,-4.819144726E0,-8.549555779E0,-2.799602449E-1
8.757254493E0,-4.878965378E0,-8.539983749E0,-2.321037948E-1
8.762009857E0,-4.926821709E0,-8.511270523E0,-1.651047617E-1
8.766765170E0,-5.000999451E0,-8.494520187E0,-1.052841991E-1
8.771520534E0,-5.032105923E0,-8.492127419E0,-4.785645381E-2
8.776275899E0,-5.075176716E0,-8.465806961E0,-0.000000000E0
8.781031264E0,-5.072783947E0,-8.472985268E0,2.392822690E-2
8.785786628E0,-5.082355499E0,-8.465806961E0,3.349951655E-2
8.790541993E0,-5.072783947E0,-8.470592499E0,3.110669367E-2
8.795297357E0,-5.094319344E0,-8.461020470E0,1.674975827E-2
8.800052722E0,-5.070391178E0,-8.492127419E0,-7.178467698E-3
8.804808086E0,-5.060820103E0,-8.513663292E0,-4.785645381E-2
8.809563451E0,-5.051248550E0,-8.523234367E0,-6.699903309E-2
8.814318816E0,-5.058426857E0,-8.525627136E0,-9.571290761E-2
8.819074180E0,-5.039284706E0,-8.523234367E0,-1.100698411E-1
8.823829545E0,-5.041677475E0,-8.525627136E0,-9.332008660E-2
8.828584909E0,-5.056034088E0,-8.537590981E0,-9.092725813E-2
8.833340274E0,-5.044070244E0,-8.535198212E0,-9.092725813E-2
8.838095639E0,-5.034498692E0,-8.542376518E0,-4.785645381E-2
8.842851003E0,-4.998606682E0,-8.561519623E0,-3.828516230E-2
8.847606316E0,-4.977071285E0,-8.590232849E0,-1.914258115E-2
8.852361680E0,-4.969892502E0,-8.633303642E0,3.589234129E-2
8.857117045E0,-4.914857864E0,-8.640482903E0,5.024927482E-2
8.861872409E0,-4.869394302E0,-8.626125336E0,8.135596663E-2
8.866627774E0,-4.811966419E0,-8.618947029E0,8.614161611E-2
8.871383139E0,-4.768895626E0,-8.583054543E0,5.982056633E-2
8.876138503E0,-4.728217602E0,-8.561519623E0,2.871387079E-2
8.880893868E0,-4.704289436E0,-8.537590981E0,-9.571290575E-3
8.885649232E0,-4.733003139E0,-8.506484032E0,-2.871387079E-2
8.890404597E0,-4.747360229E0,-8.499305725E0,-4.785645381E-2
8.895159961E0,-4.759324074E0,-8.496912956E0,-3.589234129E-2
8.899915326E0,-4.814359188E0,-8.513663292E0,-1.196411345E-2
8.904670691E0,-4.857429981E0,-8.520841599E0,-1.914258115E-2
8.909426003E0,-4.878965378E0,-8.482556343E0,1.914258115E-2
8.914181420E0,-4.914857864E0,-8.475378036E0,3.110669367E-2
8.918936732E0,-4.917250633E0,-8.477770805E0,2.632104978E-2
8.923692097E0,-4.907679081E0,-8.484949112E0,2.392822644E-3
8.928447461E0,-4.922036171E0,-8.499305725E0,-1.435693540E-2
8.933202826E0,-4.914857864E0,-8.484949112E0,-1.196411345E-2
8.937958191E0,-4.881358147E0,-8.480163574E0,-1.674975827E-2
8.942713555E0,-4.878965378E0,-8.468199730E0,-2.871387079E-2
8.947468920E0,-4.871787071E0,-8.480163574E0,-5.024927482E-2
8.952224284E0,-4.862215519E0,-8.480163574E0,-3.110669367E-2
8.956979649E0,-4.878965378E0,-8.472985268E0,-4.546362907E-2
8.961735014E0,-4.876572609E0,-8.456234932E0,-5.024927482E-2
8.966490378E0,-4.876572609E0,-8.461020470E0,-9.092725813E-2
8.971245743E0,-4.893322468E0,-8.461020470E0,-1.148554832E-1
8.976001055E0,-4.895715237E0,-8.472985268E0,-1.579262912E-1
8.980756420E0,-4.931607246E0,-8.477770805E0,-1.459621787E-1
8.985511784E0,-4.967499733E0,-8.475378036E0,-1.244267747E-1
8.990267149E0,-4.986642361E0,-8.461020470E0,-1.124626622E-1
8.995022514E0,-5.003392220E0,-8.458627701E0,-9.571290761E-2
8.999777878E0,-5.036891460E0,-8.456234932E0,-7.417750359E-2
9.004533243E0,-5.063212872E0,-8.470592499E0,-4.307080805E-2
9.009288607E0,-5.056034088E0,-8.456234932E0,-2.392822690E-2
9.014043972E0,-5.065605640E0,-8.482556343E0,-2.392822644E-3
9.018799284E0,-5.063212872E0,-8.506484032E0,3.110669367E-2
9.023554649E0,-5.070391178E0,-8.501698494E0,7.178467698E-3
9.028310014E0,-5.048855782E0,-8.520841599E0,-7.178467698E-3
9.033065378E0,-5.046463013E0,-8.520841599E0,-9.571290575E-3
9.037820743E0,-5.010570526E0,-8.532805443E0,-1.435693540E-2
9.042576107E0,-4.996213913E0,-8.551948547E0,-3.828516230E-2
9.047331472E0,-4.960321426E0,-8.580661774E0,-5.982056633E-2
9.052086836E0,-4.931607246E0,-8.626125336E0,-7.896314561E-2
9.056842201E0,-4.912465096E0,-8.666803360E0,-1.052841991E-1
9.061597514E0,-4.907679081E0,-8.690732002E0,-1.196411327E-1
9.066352878E0,-4.898108006E0,-8.695517540E0,-1.316052526E-1
9.071108243E0,-4.893322468E0,-8.714659691E0,-1.674975902E-1
9.075863607E0,-4.902893543E0,-8.702695847E0,-1.770688742E-1
9.080618972E0,-4.936393261E0,-8.685946465E0,-1.818545163E-1
9.085374336E0,-4.957928658E0,-8.654839516E0,-1.627119333E-1
9.090129701E0,-4.981856823E0,-8.626125336E0,-1.579262912E-1
9.094885066E0,-4.998606682E0,-8.606983185E0,-1.268195957E-1
9.099640430E0,-4.979464054E0,-8.583054543E0,-9.332008660E-2
9.104395795E0,-4.979464054E0,-8.561519623E0,-6.221338734E-2
9.109151107E0,-4.979464054E0,-8.518448830E0,-2.392822690E-2
9.113906472E0,-4.965106964E0,-8.494520187E0,2.392822690E-2
9.118661836E0,-4.936393261E0,-8.487341881E0,8.135596663E-2
9.123417201E0,-4.931607246E0,-8.468199730E0,1.172483116E-1
9.128172566E0,-4.898108006E0,-8.482556343E0,1.746760458E-1
9.132927930E0,-4.874179840E0,-8.456234932E0,2.201396823E-1
9.137683295E0,-4.802394867E0,-8.446663857E0,2.464607358E-1
9.142438607E0,-4.771288395E0,-8.434700012E0,2.799602449E-1
9.147193972E0,-4.733003139E0,-8.465806961E0,2.727817893E-1
9.151949336E0,-4.723432064E0,-8.470592499E0,2.416750938E-1
9.156704701E0,-4.713860512E0,-8.494520187E0,1.698904037E-1
9.161460066E0,-4.699503899E0,-8.506484032E0,1.076770201E-1
9.166215430E0,-4.716253281E0,-8.532805443E0,2.871387079E-2
9.170970795E0,-4.716253281E0,-8.539983749E0,-5.742774159E-2
9.175726107E0,-4.754538536E0,-8.516056061E0,-9.571290761E-2
9.180481472E0,-4.766502857E0,-8.513663292E0,-1.076770201E-1
9.185236836E0,-4.816751957E0,-8.489734650E0,-1.292124242E-1
9.189992201E0,-4.869394302E0,-8.458627701E0,-1.459621787E-1
9.194747566E0,-4.919643402E0,-8.458627701E0,-1.459621787E-1
9.199502930E0,-4.977071285E0,-8.458627701E0,-1.244267747E-1
9.204258295E0,-4.993820667E0,-8.465806961E0,-1.316052526E-1
9.209013607E0,-5.010570526E0,-8.487341881E0,-1.363908947E-1
9.213768972E0,-5.012963295E0,-8.499305725E0,-1.483550072E-1
9.218524336E0,-4.991427898E0,-8.530412674E0,-1.507478207E-1
9.223279701E0,-4.950749874E0,-8.583054543E0,-1.339980662E-1
9.228035066E0,-4.907679081E0,-8.592626572E0,-1.292124242E-1
9.232790430E0,-4.871787071E0,-8.614161491E0,-1.268195957E-1
9.237545795E0,-4.850251675E0,-8.626125336E0,-1.220339537E-1
9.242301107E0,-4.845465660E0,-8.635697365E0,-1.316052526E-1
9.247056472E0,-4.840680122E0,-8.650053978E0,-1.579262912E-1
9.251811836E0,-4.821537495E0,-8.645268440E0,-1.722832322E-1
9.256567201E0,-4.831109047E0,-8.657232285E0,-1.986042857E-1
9.261322566E0,-4.821537495E0,-8.666803360E0,-2.177468538E-1
9.266077930E0,-4.855037212E0,-8.690732002E0,-2.392822653E-1
9.270833243E0,-4.898108006E0,-8.657232285E0,-2.273181528E-1
9.275588607E0,-4.922036171E0,-8.642875671E0,-2.368894368E-1
9.280343972E0,-4.924428940E0,-8.618947029E0,-2.225325108E-1
9.285099336E0,-4.986642361E0,-8.592626572E0,-2.033899277E-1
9.289854701E0,-4.993820667E0,-8.554341316E0,-1.531406492E-1
9.294610066E0,-5.036891460E0,-8.535198212E0,-9.571290761E-2
9.299365430E0,-5.053641319E0,-8.513663292E0,-3.589234129E-2
9.304120743E0,-5.063212872E0,-8.511270523E0,2.153540403E-2
9.308876107E0,-5.048855782E0,-8.511270523E0,6.460621208E-2
9.313631472E0,-5.032105923E0,-8.475378036E0,1.244267747E-1
9.318386836E0,-5.017749310E0,-8.506484032E0,1.674975902E-1
9.323142201E0,-5.003392220E0,-8.484949112E0,1.938186288E-1
9.327897566E0,-4.993820667E0,-8.475378036E0,2.177468538E-1
9.332652878E0,-4.984249592E0,-8.480163574E0,2.105683982E-1
9.337408243E0,-4.981856823E0,-8.470592499E0,1.722832322E-1
9.342163607E0,-4.996213913E0,-8.449056625E0,1.435693651E-1
9.346918972E0,-5.017749310E0,-8.444271088E0,8.374879509E-2
9.351674336E0,-4.981856823E0,-8.415556908E0,4.546362907E-2
9.356429649E0,-5.008177757E0,-8.405985832E0,-1.196411345E-2
9.361185014E0,-4.984249592E0,-8.434700012E0,-8.853443712E-2
9.365940378E0,-4.969892502E0,-8.439485550E0,-1.483550072E-1
9.370695743E0,-4.948357105E0,-8.456234932E0,-1.962114573E-1
9.375451107E0,-4.926821709E0,-8.494520187E0,-2.273181528E-1
9.380206472E0,-4.890929699E0,-8.504091263E0,-2.297109663E-1
9.384961784E0,-4.859822750E0,-8.530412674E0,-2.225325108E-1
9.389717149E0,-4.823930264E0,-8.530412674E0,-1.938186288E-1
9.394472514E0,-4.790431023E0,-8.563912392E0,-1.411765367E-1
9.399227878E0,-4.761716843E0,-8.568697929E0,-1.028913707E-1
9.403983243E0,-4.716253281E0,-8.592626572E0,-5.264209956E-2
9.408738555E0,-4.670789719E0,-8.599804878E0,-2.871387079E-2
9.413493920E0,-4.651647091E0,-8.614161491E0,1.196411345E-2
9.418249284E0,-4.637290478E0,-8.580661774E0,5.742774159E-2
9.423004649E0,-4.663611412E0,-8.573483467E0,6.939185411E-2
9.427760014E0,-4.704289436E0,-8.544769287E0,5.742774159E-2
9.432515326E0,-4.728217602E0,-8.530412674E0,3.349951655E-2
9.437270691E0,-4.790431023E0,-8.528019905E0,1.435693540E-2
9.442026055E0,-4.847858906E0,-8.525627136E0,1.674975827E-2
9.446781420E0,-4.912465096E0,-8.516056061E0,-4.785645287E-3
9.451536784E0,-4.934000492E0,-8.528019905E0,-2.632104978E-2
9.456292097E0,-4.972285271E0,-8.513663292E0,-6.939185411E-2
9.461047461E0,-5.008177757E0,-8.528019905E0,-1.196411327E-1
9.465802826E0,-5.039284706E0,-8.525627136E0,-1.411765367E-1
9.470558191E0,-5.053641319E0,-8.542376518E0,-1.770688742E-1
9.475313503E0,-5.032105923E0,-8.525627136E0,-2.105683982E-1
9.480068868E0,-5.020142078E0,-8.528019905E0,-2.033899277E-1
9.484824232E0,-5.022534847E0,-8.556734085E0,-2.081755698E-1
9.489579597E0,-5.010570526E0,-8.575876236E0,-1.962114573E-1
9.494334961E0,-4.981856823E0,-8.592626572E0,-1.938186288E-1
9.499090274E0,-4.936393261E0,-8.606983185E0,-1.651047617E-1
9.503845639E0,-4.900500774E0,-8.635697365E0,-1.268195957E-1
9.508601003E0,-4.864608288E0,-8.642875671E0,-9.332008660E-2
9.513356368E0,-4.831109047E0,-8.614161491E0,-6.939185411E-2
9.518111680E0,-4.816751957E0,-8.587840080E0,-7.657032460E-2
9.522867045E0,-4.795216560E0,-8.566305161E0,-6.460621208E-2
9.527622409E0,-4.788038254E0,-8.542376518E0,-9.332008660E-2
9.532377774E0,-4.764110088E0,-8.535198212E0,-1.148554832E-1
9.537133139E0,-4.783252239E0,-8.547162056E0,-1.244267747E-1
9.541888451E0,-4.788038254E0,-8.578269005E0,-1.004985496E-1
9.546643816E0,-4.768895626E0,-8.609375954E0,-6.460621208E-2
9.551399180E0,-4.804787636E0,-8.635697365E0,-5.982056633E-2
9.556154545E0,-4.807180882E0,-8.645268440E0,-5.024927482E-2
9.560909857E0,-4.835894585E0,-8.662017822E0,-3.110669367E-2
9.565665222E0,-4.867001057E0,-8.652446747E0,-2.871387079E-2
9.570420586E0,-4.902893543E0,-8.650053978E0,-2.871387079E-2
9.575175951E0,-4.890929699E0,-8.630910873E0,-5.264209956E-2
9.579931264E0,-4.941178799E0,-8.585447311E0,-7.178468257E-2
9.584686628E0,-4.977071285E0,-8.551948547E0,-7.178468257E-2
9.589441993E0,-4.998606682E0,-8.554341316E0,-5.024927482E-2
9.594197357E0,-5.053641319E0,-8.544769287E0,-3.349951655E-2
9.598952670E0,-5.015356064E0,-8.542376518E0,-5.024927482E-2
9.603708034E0,-4.969892502E0,-8.535198212E0,-4.546362907E-2
9.608463399E0,-4.945964336E0,-8.551948547E0,-5.024927482E-2
9.613218764E0,-4.938786030E0,-8.554341316E0,-6.460621208E-2
