"Time (s)","Gyroscope x (rad/s)","Gyroscope y (rad/s)","Gyroscope z (rad/s)"
1.576428400E-2,-8.725439906E-1,-3.326158822E-1,-5.360338464E-2
2.051959700E-2,-9.672279954E-1,-2.104429156E-1,-8.597921580E-2
2.527496100E-2,-1.049694777E0,-4.001164436E-2,-1.207985133E-1
3.003032600E-2,-1.130328894E0,1.548542231E-1,-1.592829973E-1
3.478563900E-2,-1.217682600E0,3.827067912E-1,-1.898262352E-1
3.954100300E-2,-1.298927546E0,6.282744408E-1,-2.160934210E-1
4.429636800E-2,-1.353905439E0,8.689551353E-1,-2.490801066E-1
4.905168000E-2,-1.353905439E0,1.101694584E0,-2.961167097E-1
5.380704500E-2,-1.287932038E0,1.328325510E0,-3.510945439E-1
5.856240900E-2,-1.173700333E0,1.511584878E0,-4.103484154E-1
6.331772200E-2,-1.037477493E0,1.642920852E0,-4.641045034E-1
6.807308600E-2,-9.049198031E-1,1.739437461E0,-4.928151667E-1
7.282845100E-2,-7.931315303E-1,1.798080444E0,-4.891499579E-1
7.758376400E-2,-7.106648088E-1,1.811519504E0,-4.671588540E-1
8.233912800E-2,-6.642391086E-1,1.784641504E0,-4.396699369E-1
8.709449300E-2,-6.459131241E-1,1.725998402E0,-4.121810198E-1
9.184985700E-2,-6.520217657E-1,1.652694702E0,-3.853029609E-1
9.660517000E-2,-6.740128994E-1,1.570227861E0,-3.578140438E-1
1.013605340E-1,-7.076104879E-1,1.482874274E0,-3.321577311E-1
1.061158990E-1,-7.546470761E-1,1.404683590E0,-2.985601723E-1
1.108712110E-1,-8.077923059E-1,1.335655808E0,-2.680169344E-1
1.156265760E-1,-8.591049314E-1,1.272736788E0,-2.490801066E-1
1.203819410E-1,-9.128610492E-1,1.207985044E0,-2.454149276E-1
1.251373050E-1,-9.794453382E-1,1.128572702E0,-2.576322258E-1
1.298926180E-1,-1.068020701E0,1.033277750E0,-2.722929716E-1
1.346479820E-1,-1.169424295E0,9.184352160E-1,-2.759581506E-1
1.394033470E-1,-1.285488605E0,8.109229803E-1,-2.771798968E-1
1.441586590E-1,-1.419878840E0,7.608320713E-1,-2.912297845E-1
1.489140240E-1,-1.546938658E0,7.321214676E-1,-3.028362095E-1
1.536693890E-1,-1.642844439E0,6.893609166E-1,-2.955058515E-1
1.584247530E-1,-1.705152631E0,6.307178736E-1,-2.741255760E-1
1.631800660E-1,-1.739971995E0,5.616901517E-1,-2.466366589E-1
1.679354300E-1,-1.744248033E0,4.749473631E-1,-2.136499584E-1
1.726907950E-1,-1.721646070E0,3.778198659E-1,-1.806632578E-1
1.774461070E-1,-1.670333385E0,2.800815105E-1,-1.470656991E-1
1.822014720E-1,-1.609246850E0,2.012799382E-1,-1.336266696E-1
1.869568360E-1,-1.560988545E0,1.408043355E-1,-1.507308781E-1
1.917122010E-1,-1.515784621E0,7.177661359E-2,-1.831067204E-1
1.964675140E-1,-1.458974123E0,-2.290742844E-2,-2.105956376E-1
2.012228780E-1,-1.389335632E0,-1.175914705E-1,-2.283107042E-1
2.059782430E-1,-1.308701396E0,-1.774562150E-1,-2.435823381E-1
2.107335550E-1,-1.221958637E0,-1.902843714E-1,-2.557996213E-1
2.154889200E-1,-1.128496289E0,-1.615737379E-1,-2.661843300E-1
2.202442840E-1,-1.031979680E0,-9.682206810E-2,-2.777907550E-1
2.249996490E-1,-9.348521829E-1,-1.527161920E-3,-2.900080681E-1
2.297549610E-1,-8.365029693E-1,8.765909821E-2,-3.034470677E-1
2.345103260E-1,-7.344885468E-1,1.273653060E-1,-3.119991720E-1
2.392656910E-1,-6.251437664E-1,1.004872546E-1,-3.132209182E-1
2.440210550E-1,-5.121337771E-1,6.414080039E-3,-3.107774556E-1
2.487763680E-1,-3.777435124E-1,-2.055560052E-1,-3.223838806E-1
2.535317320E-1,-2.427423894E-1,-4.089739621E-1,-3.388772309E-1
2.582870970E-1,-1.327867359E-1,-4.969384968E-1,-3.437641561E-1
2.630424610E-1,-3.688096255E-2,-5.073232055E-1,-3.352120519E-1
2.677977740E-1,4.497491941E-2,-4.847212136E-1,-3.229947388E-1
2.725531390E-1,1.121700481E-1,-4.615083337E-1,-3.132209182E-1
2.773085030E-1,1.622609496E-1,-4.431824088E-1,-3.083339930E-1
2.820638680E-1,1.983019859E-1,-4.279107749E-1,-3.077231348E-1
2.868191800E-1,2.178496569E-1,-4.114174247E-1,-3.132209182E-1
2.915745450E-1,2.221257091E-1,-3.863719702E-1,-3.248273432E-1
2.963299090E-1,2.147953212E-1,-3.332267404E-1,-3.388772309E-1
3.010852740E-1,2.001345754E-1,-2.849684060E-1,-3.523162603E-1
3.058405860E-1,1.787542999E-1,-2.568686306E-1,-3.584249020E-1
3.105959510E-1,1.561523080E-1,-2.684750557E-1,-3.535379767E-1
3.153513160E-1,1.463784724E-1,-3.484983444E-1,-3.419315517E-1
3.201066800E-1,1.543197185E-1,-4.773908257E-1,-3.254382014E-1
3.248619930E-1,1.720348001E-1,-6.099484563E-1,-3.028362095E-1
3.296173570E-1,1.885281354E-1,-7.150171995E-1,-2.674060464E-1
3.343727220E-1,2.031888962E-1,-7.816014886E-1,-2.222020626E-1
3.391280860E-1,2.154061943E-1,-8.182533979E-1,-1.660024971E-1
3.438833990E-1,2.227365673E-1,-8.353576064E-1,-9.392046183E-2
3.486387640E-1,2.160170525E-1,-8.353576064E-1,-1.145371422E-2
3.533941280E-1,1.915824711E-1,-8.188642263E-1,7.528908551E-2
3.581494930E-1,1.451567411E-1,-7.724385262E-1,1.540906429E-1
3.629048570E-1,7.429642975E-2,-6.838631034E-1,2.151771188E-1
3.676601700E-1,-1.427896414E-2,-5.433642268E-1,2.506072819E-1
3.724155340E-1,-1.132390574E-1,-3.521635532E-1,2.597702444E-1
3.771708990E-1,-2.170860767E-1,-1.243109852E-1,2.414443046E-1
3.819262640E-1,-3.209330738E-1,1.096502244E-1,1.980729103E-1
3.866816280E-1,-4.174497128E-1,3.069595397E-1,1.363755614E-1
3.914369410E-1,-5.011382103E-1,4.413498044E-1,6.673697382E-2
3.961923050E-1,-5.738310814E-1,5.140427351E-1,1.985310577E-3
4.009476700E-1,-6.330850124E-1,5.274817348E-1,-4.993819445E-2
4.057030340E-1,-6.782889962E-1,5.293143392E-1,-9.330959618E-2
4.104583990E-1,-7.027235627E-1,5.751292109E-1,-1.146898642E-1
4.152137110E-1,-7.015018463E-1,6.411026120E-1,-1.024725661E-1
4.199690760E-1,-6.593521833E-1,6.496546865E-1,-6.643154472E-2
4.247244410E-1,-5.744419694E-1,5.287034512E-1,-1.267544460E-2
4.294798050E-1,-4.638754427E-1,3.161225319E-1,4.596757516E-2
4.342351700E-1,-3.447568119E-1,8.826996386E-2,9.361502528E-2
4.389904820E-1,-2.311359644E-1,-3.390299529E-2,1.314886510E-1
4.437458470E-1,-1.217911690E-1,-4.978547990E-2,1.553123742E-1
4.485012110E-1,-1.977674663E-2,-2.412915789E-2,1.547015011E-1
4.532565760E-1,6.085740402E-2,-7.635809947E-3,1.192713454E-1
4.580118890E-1,1.140026376E-1,-1.252272818E-2,4.841103405E-2
4.627672530E-1,1.494327933E-1,-1.130099874E-2,-3.344484791E-2
4.675226180E-1,1.763108522E-1,2.046396956E-2,-8.964440972E-2
4.722779820E-1,1.964693815E-1,7.360920310E-2,-1.116355360E-1
4.770333470E-1,1.952476501E-1,1.261435747E-1,-1.153007299E-1
4.817886590E-1,1.695913374E-1,1.524107605E-1,-1.220202371E-1
4.865440240E-1,1.219438836E-1,1.524107605E-1,-1.330158114E-1
4.912993890E-1,5.780307949E-2,1.279761642E-1,-1.531743407E-1
4.960547530E-1,-2.222020552E-2,6.200277433E-2,-1.782197952E-1
5.008101180E-1,-1.083521396E-1,6.414080039E-3,-2.093739063E-1
5.055654820E-1,-1.993709952E-1,-4.245510325E-2,-2.600756884E-1
5.103207950E-1,-3.032180071E-1,-9.560033679E-2,-3.303251266E-1
5.150761590E-1,-4.033998251E-1,-1.627954692E-1,-3.975202441E-1
5.198315240E-1,-4.803687930E-1,-2.403752953E-1,-4.512763619E-1
5.245868890E-1,-5.200750232E-1,-3.283398151E-1,-4.854847789E-1
5.293422530E-1,-5.200750232E-1,-4.230238497E-1,-4.970912039E-1
5.340975660E-1,-4.791470468E-1,-4.743365049E-1,-4.744892120E-1
5.388529300E-1,-4.003455043E-1,-5.030471683E-1,-4.048506320E-1
5.436082950E-1,-2.916115820E-1,-4.822777510E-1,-3.065013885E-1
5.483636590E-1,-1.651625633E-1,-3.967566788E-1,-1.824958473E-1
5.531190240E-1,-3.993528336E-2,-2.990183234E-1,-5.543597788E-2
5.578743890E-1,6.574432552E-2,-1.383608729E-1,6.001746282E-2
5.626297010E-1,1.543197185E-1,5.192350596E-3,1.516471803E-1
5.673850660E-1,2.264017612E-1,1.744018942E-1,2.145662606E-1
5.721404300E-1,2.783252597E-1,3.564395905E-1,2.469420880E-1
5.768957950E-1,3.100902438E-1,5.244274139E-1,2.530507445E-1
5.816511590E-1,3.241401315E-1,6.649262905E-1,2.390008420E-1
5.864065240E-1,3.308596313E-1,7.840449214E-1,2.072358727E-1
5.911618360E-1,3.388008773E-1,8.909462690E-1,1.608101577E-1
5.959172010E-1,3.504073024E-1,9.715804458E-1,1.076649204E-1
6.006725660E-1,3.717875779E-1,1.049160242E0,5.818486959E-2
6.054279300E-1,3.950004280E-1,1.153618097E0,8.704823442E-3
6.101832950E-1,4.169915617E-1,1.205541611E0,-3.894263133E-2
6.149386590E-1,4.408152997E-1,1.239750028E0,-8.903354406E-2
6.196939720E-1,4.579195082E-1,1.242804408E0,-1.470656991E-1
6.244493360E-1,4.713585377E-1,1.174998403E0,-2.026543915E-1
6.292047010E-1,4.774671793E-1,1.130405307E0,-2.594648004E-1
6.339600660E-1,4.719693959E-1,1.070540547E0,-3.132209182E-1
6.387154300E-1,4.640281498E-1,1.036332130E0,-3.596466482E-1
6.434707950E-1,4.457022250E-1,1.074205756E0,-4.036289155E-1
6.482261070E-1,4.096612036E-1,1.147509456E0,-4.384481907E-1
6.529814720E-1,3.644571900E-1,1.247080445E0,-4.488328993E-1
6.577368360E-1,3.229183853E-1,1.353370905E0,-4.274526238E-1
6.624922010E-1,2.923751473E-1,1.448054910E0,-3.816377819E-1
6.672475660E-1,2.716057599E-1,1.515860915E0,-3.236056268E-1
6.720029300E-1,2.569449842E-1,1.545182467E0,-2.551887631E-1
6.767582430E-1,2.465602905E-1,1.545182467E0,-1.757763475E-1
6.815136070E-1,2.392299175E-1,1.530521750E0,-1.000291109E-1
6.862689720E-1,2.294560820E-1,1.520136952E0,-4.505127668E-2
6.910243360E-1,2.196822464E-1,1.523802161E0,-1.572976820E-2
6.957797010E-1,2.092975378E-1,1.534186840E0,-1.023198478E-2
7.005350660E-1,1.928042024E-1,1.551901937E0,-2.611446939E-2
7.052904300E-1,1.640935540E-1,1.561064959E0,-6.582067907E-2
7.100457430E-1,1.262199283E-1,1.563508391E0,-1.183550507E-1
7.148011070E-1,9.140064567E-2,1.542739034E0,-1.678351015E-1
7.195564720E-1,6.085740402E-2,1.532965183E0,-2.093739063E-1
7.243118360E-1,2.848157100E-2,1.604436398E0,-2.545779049E-1
7.290672010E-1,1.198822167E-2,1.659414172E0,-2.955058515E-1
7.338225660E-1,4.657844082E-3,1.732107043E0,-3.352120519E-1
7.385779300E-1,-5.726857111E-3,1.764482975E0,-3.779725730E-1
7.433332950E-1,-2.061668551E-3,1.714391947E0,-4.115701318E-1
7.480886070E-1,5.268708803E-3,1.694233418E0,-4.415025115E-1
7.528439720E-1,1.565340906E-2,1.691179156E0,-4.720457494E-1
7.575993360E-1,3.581194952E-2,1.690568328E0,-4.922043085E-1
7.623547010E-1,6.146826968E-2,1.706450820E0,-5.031998754E-1
7.671100660E-1,9.323323518E-2,1.725998402E0,-5.141954422E-1
7.718654300E-1,1.311068535E-1,1.755930781E0,-5.233584046E-1
7.766207950E-1,1.714239269E-1,1.815184712E0,-5.312996507E-1
7.813761070E-1,2.092975378E-1,1.906814456E0,-5.398517251E-1
7.861314720E-1,2.447277009E-1,2.024711370E0,-5.404626131E-1
7.908868360E-1,2.777144015E-1,2.175594807E0,-5.386300087E-1
7.956422010E-1,3.119228184E-1,2.329532862E0,-5.386300087E-1
8.003975660E-1,3.497964442E-1,2.466366529E0,-5.404626131E-1
8.051529300E-1,3.833940029E-1,2.561661482E0,-5.532907844E-1
8.099082950E-1,4.127155244E-1,2.664286852E0,-5.838339925E-1
8.146636590E-1,4.395935535E-1,2.761414289E0,-6.284271479E-1
8.194189720E-1,4.695259333E-1,2.854265690E0,-6.821832657E-1
8.241743360E-1,5.043452382E-1,2.914130449E0,-7.371610999E-1
8.289297010E-1,5.532144308E-1,2.981325626E0,-7.927497625E-1
8.336850660E-1,6.155226231E-1,3.057683706E0,-8.550579548E-1
8.384404300E-1,6.973785162E-1,3.126100540E0,-9.185879230E-1
8.431957950E-1,7.951168418E-1,3.189630508E0,-9.839504361E-1
8.479511590E-1,9.026290774E-1,3.234834433E0,-1.048091292E0
8.527065240E-1,1.016249895E0,3.236056089E0,-1.106123447E0
8.574618360E-1,1.124372959E0,3.262323380E0,-1.167820692E0
8.622172010E-1,1.210504889E0,3.305694818E0,-1.244789720E0
8.669725660E-1,1.268537045E0,3.344179153E0,-1.338252068E0
8.717279300E-1,1.297858596E0,3.376554966E0,-1.441488147E0
8.764832950E-1,1.292360783E0,3.416261196E0,-1.546556950E0
8.812386590E-1,1.263039231E0,3.459021807E0,-1.657123446E0
8.859940240E-1,1.212337494E0,3.502393246E0,-1.775631189E0
8.907493890E-1,1.141477227E0,3.552484035E0,-1.897193313E0
8.955047530E-1,1.049236655E0,3.616014004E0,-2.006538153E0
9.002600660E-1,9.545525908E-1,3.660607100E0,-2.081063509E0
9.050154300E-1,8.714749813E-1,3.665494204E0,-2.108552456E0
9.097707950E-1,8.085559011E-1,3.628842115E0,-2.096335173E0
9.145261590E-1,7.657953501E-1,3.538434267E0,-2.058461666E0
9.192815240E-1,7.438042164E-1,3.414428711E0,-2.012035847E0
9.240368890E-1,7.401390672E-1,3.285536289E0,-1.966831923E0
9.287922530E-1,7.578541040E-1,3.182300091E0,-1.922849655E0
9.335476180E-1,7.914516926E-1,3.099222422E0,-1.887419462E0
9.383029820E-1,8.348230720E-1,3.001484156E0,-1.856265306E0
9.430583470E-1,8.794162273E-1,2.884197950E0,-1.833663344E0
9.478136590E-1,9.075160027E-1,2.763246775E0,-1.819613457E0
9.525690240E-1,9.154572487E-1,2.642906427E0,-1.813504815E0
9.573243890E-1,9.075160027E-1,2.509737968E0,-1.819002628E0
9.620797530E-1,8.855248690E-1,2.372293472E0,-1.838550329E0
9.668351180E-1,8.555924892E-1,2.257450819E0,-1.869704366E0
9.715904820E-1,8.189405799E-1,2.172540665E0,-1.915519238E0
9.763458470E-1,7.780126333E-1,2.120617151E0,-1.972329617E0
9.811012110E-1,7.407498956E-1,2.087630272E0,-2.037081242E0
9.858565760E-1,7.077631950E-1,2.055865526E0,-2.104276419E0
9.906119410E-1,6.821069121E-1,2.019824505E0,-2.164141178E0
9.953673050E-1,6.619483232E-1,1.984394193E0,-2.211177826E0
1.000122618E0,6.454550028E-1,1.964235663E0,-2.252105713E0
1.004877982E0,6.240747571E-1,1.999055028E0,-2.305250883E0
1.009633347E0,6.057487726E-1,2.055865526E0,-2.360839605E0
1.014388711E0,6.014727354E-1,2.102291107E0,-2.410319805E0
1.019144076E0,6.143009067E-1,2.134666920E0,-2.443306446E0
1.023899441E0,6.454550028E-1,2.171929836E0,-2.460410595E0
1.028654805E0,6.986002326E-1,2.217744589E0,-2.465297461E0
1.033410170E0,7.737365961E-1,2.263559341E0,-2.459188938E0
1.038165534E0,8.671988845E-1,2.301433086E0,-2.431699991E0
1.042920899E0,9.655481577E-1,2.331365347E0,-2.382220030E0
1.047676211E0,1.051069260E0,2.357632637E0,-2.321133375E0
1.052431576E0,1.117653489E0,2.369849920E0,-2.267377377E0
1.057186941E0,1.163468361E0,2.362519503E0,-2.230114698E0
1.061942305E0,1.184237719E0,2.346637011E0,-2.213010311E0
1.066697670E0,1.171409607E0,2.343582630E0,-2.221562386E0
1.071453034E0,1.137201190E0,2.320980787E0,-2.235001564E0
1.076208399E0,1.089553714E0,2.256839991E0,-2.249051332E0
1.080963764E0,1.032132387E0,2.166431904E0,-2.266766548E0
1.085719128E0,9.710459113E-1,2.065639257E0,-2.292422771E0
1.090474493E0,9.136246443E-1,1.963014007E0,-2.321133375E0
1.095229857E0,8.610902429E-1,1.858556032E0,-2.344957113E0
1.099985222E0,8.109993339E-1,1.775478482E0,-2.362061501E0
1.104740534E0,7.621301413E-1,1.725998402E0,-2.374278784E0
1.109495899E0,7.163153291E-1,1.700953007E0,-2.381608963E0
1.114251264E0,6.729438901E-1,1.688735723E0,-2.382220030E0
1.119006628E0,6.295725107E-1,1.684459686E0,-2.375500441E0
1.123761993E0,5.874228477E-1,1.687513947E0,-2.364504814E0
1.128517357E0,5.458840132E-1,1.704007268E0,-2.368170023E0
1.133272722E0,5.073995590E-1,1.734550595E0,-2.379776478E0
1.138028086E0,4.774671793E-1,1.752265573E0,-2.380998135E0
1.142783451E0,4.542543292E-1,1.738215685E0,-2.354120255E0
1.147538816E0,4.316523373E-1,1.686292171E0,-2.298531532E0
1.152294180E0,4.053851366E-1,1.614210129E0,-2.227060318E0
1.157049545E0,3.748418987E-1,1.544571638E0,-2.148869514E0
1.161804857E0,3.491855860E-1,1.478598237E0,-2.062737703E0
1.166560274E0,3.259727061E-1,1.407737851E0,-1.963166714E0
1.171315586E0,3.082576394E-1,1.331990600E0,-1.851989269E0
1.176070951E0,2.972620726E-1,1.269682407E0,-1.740200996E0
1.180826316E0,2.917642891E-1,1.224478483E0,-1.636964917E0
1.185581680E0,2.966512144E-1,1.189048290E0,-1.547778606E0
1.190337045E0,3.149771392E-1,1.168278933E0,-1.473863959E0
1.195092409E0,3.449095190E-1,1.165835381E0,-1.418886185E0
1.199847774E0,3.882809281E-1,1.170111537E0,-1.383455992E0
1.204603139E0,4.457022250E-1,1.161559343E0,-1.363908291E0
1.209358503E0,5.128973126E-1,1.128572702E0,-1.355967045E0
1.214113868E0,5.758163929E-1,1.080925226E0,-1.348636746E0
1.218869232E0,6.222421527E-1,1.024725676E0,-1.333975911E0
1.223624597E0,6.485093236E-1,9.721912742E-1,-1.308319688E0
1.228379961E0,6.509527564E-1,9.385937452E-1,-1.272278666E0
1.233135326E0,6.295725107E-1,9.300416112E-1,-1.242957115E0
1.237890639E0,5.813142061E-1,9.257655740E-1,-1.228296399E0
1.242646003E0,5.128973126E-1,9.214895368E-1,-1.206916094E0
1.247401368E0,4.292088747E-1,8.988875151E-1,-1.173318505E0
1.252156732E0,3.424660563E-1,8.860593438E-1,-1.128114581E0
1.256912097E0,2.612210512E-1,8.903354406E-1,-1.095738649E0
1.261667461E0,1.946367919E-1,8.970549107E-1,-1.097571254E0
1.266422826E0,1.396589577E-1,9.049961567E-1,-1.095738649E0
1.271178191E0,9.445496649E-2,9.318742156E-1,-1.075580120E0
1.275933555E0,7.002037764E-2,9.685261250E-1,-1.047480345E0
1.280688920E0,7.307469845E-2,1.011286616E0,-1.021213174E0
1.285444284E0,1.023962051E-1,1.056490660E0,-1.004719853E0
1.290199649E0,1.512653977E-1,1.049771070E0,-9.986112118E-1
1.294955014E0,2.037997693E-1,1.006399751E0,-9.882264733E-1
1.299710378E0,2.453385741E-1,9.666935205E-1,-9.534072280E-1
1.304465743E0,2.667188346E-1,9.355394244E-1,-9.027054310E-1
1.309221107E0,2.654971182E-1,9.080504775E-1,-8.599448800E-1
1.313976472E0,2.404516488E-1,8.805615902E-1,-8.440623879E-1
1.318731836E0,1.964693815E-1,8.481857181E-1,-8.837686181E-1
1.323487149E0,1.402698308E-1,8.194751143E-1,-9.265291691E-1
1.328242514E0,7.490729541E-2,7.651081085E-1,-9.546289444E-1
1.332997878E0,1.992946304E-2,6.789761782E-1,-9.576832652E-1
1.337753243E0,-1.183550525E-2,5.849030018E-1,-9.424116611E-1
1.342508607E0,-1.000291109E-2,4.926624298E-1,-9.143118858E-1
1.347263972E0,1.443168055E-2,4.040870368E-1,-8.923207521E-1
1.352019336E0,4.253146052E-2,3.375027776E-1,-8.770490885E-1
1.356774701E0,6.513345987E-2,2.898553312E-1,-8.532254100E-1
1.361530066E0,7.735075057E-2,2.409861535E-1,-8.184061050E-1
1.366285430E0,8.590286225E-2,1.933387071E-1,-7.841976881E-1
1.371040795E0,9.567669779E-2,1.634063274E-1,-7.536544204E-1
1.375796159E0,1.091157198E-1,1.505781710E-1,-7.402154207E-1
1.380551524E0,1.286633909E-1,1.346956789E-1,-7.524327040E-1
1.385306889E0,1.390480995E-1,1.267544478E-1,-7.664825916E-1
1.390062253E0,1.072831303E-1,1.469129771E-1,-7.628173828E-1
1.394817618E0,6.635518372E-2,1.206457913E-1,-7.536544204E-1
1.399572982E0,1.443168055E-2,6.994401664E-2,-7.512109876E-1
1.404328347E0,-4.604393244E-2,1.679878123E-2,-7.396045327E-1
1.409083711E0,-1.065195426E-1,-3.695731983E-2,-7.035635114E-1
1.413839024E0,-1.535561383E-1,-1.004872546E-1,-6.522508860E-1
1.418594389E0,-1.895971596E-1,-1.744018942E-1,-6.088794470E-1
1.423349753E0,-2.134208828E-1,-2.538143098E-1,-5.960513353E-1
1.428105118E0,-2.323576957E-1,-3.570504785E-1,-5.673406720E-1
1.432860482E0,-2.708421648E-1,-4.798342884E-1,-5.343539715E-1
1.437615847E0,-3.600284159E-1,-6.026180983E-1,-5.459604263E-1
1.442371211E0,-4.968621433E-1,-6.899717450E-1,-5.410735011E-1
1.447126576E0,-6.697368622E-1,-7.254019380E-1,-5.355756879E-1
1.451881941E0,-8.578832150E-1,-7.626646757E-1,-5.025889874E-1
1.456637305E0,-1.060690284E0,-8.066469431E-1,-4.512763619E-1
1.461392670E0,-1.264108300E0,-8.775072694E-1,-3.999637067E-1
1.466148034E0,-1.471191406E0,-9.807434082E-1,-3.590357602E-1
1.470903399E0,-1.685605049E0,-1.085812092E0,-3.248273432E-1
1.475658764E0,-1.884746909E0,-1.197600365E0,-2.838993967E-1
1.480414128E0,-2.054567337E0,-1.275791049E0,-2.509126961E-1
1.485169493E0,-2.185292482E0,-1.308166981E0,-2.228129357E-1
1.489924857E0,-2.262872219E0,-1.336266756E0,-1.971566081E-1
1.494680222E0,-2.297691584E0,-1.335044980E0,-1.855501831E-1
1.499435586E0,-2.308686972E0,-1.297782183E0,-1.843284518E-1
1.504190951E0,-2.309298038E0,-1.220202446E0,-2.002109289E-1
1.508946316E0,-2.306243658E0,-1.125518322E0,-2.301433086E-1
1.513701680E0,-2.292193651E0,-1.021060467E0,-2.686277926E-1
1.518457045E0,-2.264093876E0,-9.123265743E-1,-3.071122766E-1
1.523212409E0,-2.213392258E0,-8.139773011E-1,-3.443750143E-1
1.527967774E0,-2.139477491E0,-7.333431840E-1,-3.761399984E-1
1.532723139E0,-2.041739225E0,-6.600393653E-1,-3.962985277E-1
1.537478503E0,-1.926896572E0,-5.934551358E-1,-4.036289155E-1
1.542233868E0,-1.804112792E0,-5.054906011E-1,-3.944659233E-1
1.546989232E0,-1.680107236E0,-4.218021333E-1,-3.730856776E-1
1.551744545E0,-1.565875530E0,-3.466657698E-1,-3.339903057E-1
1.556499909E0,-1.454698086E0,-2.813032269E-1,-2.661843300E-1
1.561255274E0,-1.345353365E0,-2.104429156E-1,-1.934914142E-1
1.566010639E0,-1.228067279E0,-1.365282834E-1,-1.415679157E-1
1.570766003E0,-1.093066216E0,-6.017018110E-2,-9.941824526E-2
1.575521368E0,-9.470694661E-1,4.001164436E-2,-6.948586553E-2
1.580276732E0,-7.931315303E-1,1.542433500E-1,-4.810560122E-2
1.585032097E0,-6.379718781E-1,2.831358314E-1,-4.382954910E-2
1.589787461E0,-4.822013974E-1,3.711003661E-1,-5.054906011E-2
1.594542826E0,-3.294851780E-1,4.364628792E-1,-5.787943676E-2
1.599298191E0,-1.871536970E-1,4.682278633E-1,-4.993819445E-2
1.604053555E0,-6.009382382E-2,5.036579967E-1,-2.794706449E-2
1.608808920E0,5.474875495E-2,4.847212136E-1,8.093958721E-3
1.613564284E0,1.567631811E-1,4.505127668E-1,6.795870513E-2
1.618319649E0,2.312886715E-1,4.187478125E-1,1.430950761E-1
1.623075014E0,2.746600807E-1,3.894262910E-1,2.212857604E-1
1.627830378E0,2.887099683E-1,3.332267404E-1,2.933678031E-1
1.632585743E0,2.667188346E-1,2.977965772E-1,3.483456373E-1
1.637341107E0,2.202931046E-1,2.739728391E-1,3.819431961E-1
1.642096472E0,1.585957706E-1,2.654207349E-1,4.027126133E-1
1.646851836E0,9.140064567E-2,2.128863782E-1,4.222602844E-1
1.651607201E0,2.054032870E-2,1.304196268E-1,4.558578432E-1
1.656362566E0,-4.360047355E-2,5.406153202E-2,4.772381186E-1
1.661117930E0,-8.941533417E-2,-1.007926930E-2,4.766272306E-1
1.665873295E0,-1.169042438E-1,-7.605266571E-2,4.723511934E-1
1.670628659E0,-1.340084672E-1,-1.377500147E-1,4.705185890E-1
1.675384024E0,-1.541669965E-1,-2.006690800E-1,4.558578432E-1
1.680139389E0,-1.792124510E-1,-2.782489061E-1,4.185950756E-1
1.684894753E0,-1.975383908E-1,-3.570504785E-1,3.660607338E-1
1.689650118E0,-2.091448307E-1,-4.291325212E-1,2.921460867E-1
1.694405482E0,-2.073122412E-1,-4.902189970E-1,1.919642538E-1
1.699160847E0,-2.005927265E-1,-5.348120928E-1,7.284562290E-2
1.703916211E0,-1.706603467E-1,-5.641336441E-1,-6.887500733E-2
1.708671576E0,-1.327867359E-1,-6.105593443E-1,-2.020435184E-1
1.713426941E0,-1.040760875E-1,-6.612611413E-1,-3.211621642E-1
1.718182305E0,-7.353284955E-2,-6.991347671E-1,-4.292852283E-1
1.722937670E0,-3.382663801E-2,-7.113520503E-1,-5.172497630E-1
1.727693034E0,1.931859925E-2,-6.918043494E-1,-5.820014477E-1
1.732448399E0,9.934188426E-2,-6.533198953E-1,-6.467530727E-1
1.737203711E0,1.897498667E-1,-5.781835318E-1,-6.608029604E-1
1.741959076E0,2.813795805E-1,-4.584540129E-1,-6.357575059E-1
1.746714441E0,3.730092943E-1,-3.075704277E-1,-5.960513353E-1
1.751469805E0,4.634172916E-1,-1.359174103E-1,-5.264127254E-1
1.756225170E0,5.562687516E-1,5.406153202E-2,-4.262309074E-1
1.760980534E0,6.552288532E-1,2.373209596E-1,-3.101665974E-1
1.765735899E0,7.535780668E-1,3.973675370E-1,-1.879936308E-1
1.770491264E0,8.342122436E-1,5.189296007E-1,-5.849030241E-2
1.775246628E0,8.855248690E-1,6.068941355E-1,7.528908551E-2
1.780001993E0,9.172898531E-1,6.838631034E-1,2.047924101E-1
1.784757357E0,9.343940616E-1,7.754928470E-1,3.208567202E-1
1.789512722E0,9.429461360E-1,9.104939699E-1,4.106538594E-1
1.794268086E0,9.582177401E-1,9.679152369E-1,4.851793647E-1
1.799023451E0,9.612720609E-1,9.129374027E-1,5.340485573E-1
1.803778816E0,9.453896284E-1,7.761036754E-1,5.652026534E-1
1.808534180E0,9.044616818E-1,6.411026120E-1,5.865828991E-1
1.813289545E0,8.488729596E-1,5.170970559E-1,5.945241451E-1
1.818044909E0,7.780126333E-1,4.059196413E-1,5.884155035E-1
1.822800274E0,6.918807030E-1,3.271180987E-1,5.780308247E-1
1.827555639E0,6.130791903E-1,2.373209596E-1,5.267181396E-1
1.832311003E0,5.330559015E-1,1.646280587E-1,4.601338804E-1
1.837066368E0,4.408152997E-1,1.298087686E-1,4.393644929E-1
1.841821732E0,3.497964442E-1,1.291978955E-1,4.619664848E-1
1.846577097E0,2.832121849E-1,1.572976857E-1,5.047270060E-1
1.851332461E0,2.447277009E-1,2.238819450E-1,5.426006317E-1
1.856087826E0,2.300669402E-1,3.069595397E-1,5.768090487E-1
1.860843191E0,2.190713882E-1,3.924806118E-1,6.140718460E-1
1.865598555E0,2.062432170E-1,4.657844007E-1,6.672170758E-1
1.870353920E0,1.940259188E-1,5.305360556E-1,7.338013053E-1
1.875109284E0,1.928042024E-1,5.904008150E-1,8.199332356E-1
1.879864649E0,2.129627317E-1,6.374374032E-1,9.195042253E-1
1.884620014E0,2.612210512E-1,6.783653498E-1,9.830341339E-1
1.889375378E0,3.296379149E-1,7.027999163E-1,1.006247044E0
1.894130743E0,4.145480990E-1,7.052434087E-1,9.989166260E-1
1.898886107E0,4.994583130E-1,7.003564835E-1,9.647082090E-1
1.903641472E0,5.819250345E-1,6.838631034E-1,8.944587708E-1
1.908396836E0,6.552288532E-1,6.667588949E-1,8.352048993E-1
1.913152201E0,7.218130827E-1,6.472112536E-1,7.875574231E-1
1.917907566E0,7.792344093E-1,6.417134404E-1,7.258600593E-1
1.922662930E0,8.073341846E-1,6.820304990E-1,6.433933377E-1
1.927418295E0,8.091667295E-1,7.363975048E-1,5.401571989E-1
1.932173659E0,7.908408046E-1,7.712168097E-1,4.393644929E-1
1.936929024E0,7.566323876E-1,7.828232050E-1,3.733910918E-1
1.941684389E0,6.992111206E-1,8.078686595E-1,3.336848915E-1
1.946439753E0,6.375137568E-1,8.768963814E-1,2.982547283E-1
1.951195118E0,5.874228477E-1,8.903354406E-1,3.123046160E-1
1.955950482E0,5.306124091E-1,8.530726433E-1,3.544542789E-1
1.960705847E0,4.768563211E-1,8.524618149E-1,3.947713673E-1
1.965461211E0,4.457022250E-1,9.049961567E-1,4.185950756E-1
1.970216576E0,4.108829200E-1,9.892954826E-1,4.338667095E-1
1.974971941E0,3.785070777E-1,1.058323264E0,4.546361268E-1
1.979727305E0,3.461312652E-1,1.121853113E0,4.601338804E-1
1.984482670E0,3.131445646E-1,1.165224552E0,4.454731345E-1
1.989238034E0,2.758817971E-1,1.194546103E0,4.381427765E-1
1.993993399E0,2.526689470E-1,1.204319954E0,4.503600597E-1
1.998748764E0,2.392299175E-1,1.216537237E0,4.778489769E-1
2.003504128E0,2.166279256E-1,1.276401997E0,5.071704984E-1
2.008259493E0,2.031888962E-1,1.342986226E0,5.560396910E-1
2.013014857E0,1.995237023E-1,1.387579322E0,6.042979956E-1
2.017770222E0,2.422842383E-1,1.349094868E0,6.024653912E-1
2.022525586E0,3.052033186E-1,1.261130333E0,5.835285783E-1
2.027280951E0,3.455203772E-1,1.181107044E0,5.878046155E-1
2.032036316E0,3.882809281E-1,1.113301039E0,6.000219584E-1
2.036791680E0,4.609738290E-1,1.085201263E0,5.975784659E-1
2.041547045E0,5.556578636E-1,1.099861979E0,5.694786906E-1
2.046302409E0,6.478984356E-1,1.150563836E0,5.285507441E-1
2.051057774E0,7.303652167E-1,1.213482857E0,4.943423271E-1
2.055813139E0,8.097776175E-1,1.255632520E0,4.851793647E-1
2.060568503E0,8.904117942E-1,1.274569392E0,5.108356476E-1
2.065323868E0,9.722676277E-1,1.261741161E0,5.768090487E-1
2.070079232E0,1.051680088E0,1.213482857E0,6.458367705E-1
2.074834597E0,1.108490467E0,1.100472927E0,7.289143801E-1
2.079589961E0,1.140866280E0,9.520327449E-1,7.979421020E-1
2.084345326E0,1.155527115E0,8.145881891E-1,8.089376688E-1
2.089100691E0,1.159803152E0,7.211259007E-1,7.588467598E-1
2.093856055E0,1.150640130E0,6.801979542E-1,6.788234711E-1
2.098611420E0,1.115820885E0,6.655371785E-1,6.030762792E-1
2.103366784E0,1.050458312E0,6.423243284E-1,5.499309897E-1
2.108122149E0,9.545525908E-1,6.068941355E-1,5.218312144E-1
2.112877514E0,8.397099972E-1,6.093376279E-1,5.120574236E-1
2.117632878E0,7.303652167E-1,7.962622643E-1,5.010618567E-1
2.122388243E0,6.289616227E-1,9.013310075E-1,5.047270060E-1
2.127143607E0,5.483275056E-1,8.775072694E-1,5.187768936E-1
2.131898972E0,4.902953506E-1,7.632755637E-1,5.047270060E-1
2.136654336E0,4.579195082E-1,5.977311730E-1,4.509709179E-1
2.141409701E0,4.066068828E-1,4.468475878E-1,4.088212550E-1
2.146165066E0,3.357465565E-1,3.680460155E-1,4.002691507E-1
2.150920430E0,2.667188346E-1,3.552178741E-1,4.082103968E-1
2.155675795E0,2.111301422E-1,3.869828284E-1,4.057669342E-1
2.160431159E0,1.708130687E-1,4.242455959E-1,3.605629504E-1
2.165186524E0,1.439350098E-1,4.505127668E-1,2.903134823E-1
2.169941889E0,1.268308014E-1,4.725039005E-1,2.414443046E-1
2.174697253E0,1.140026376E-1,4.798342884E-1,1.846338809E-1
2.179452618E0,1.097265854E-1,4.334085584E-1,1.101083755E-1
2.184207982E0,1.121700481E-1,4.272999167E-1,3.497200832E-2
2.188963347E0,1.091157198E-1,4.712821841E-1,-1.511890348E-2
2.193718764E0,9.078978002E-2,3.875937164E-1,-2.183841541E-2
2.198474076E0,6.085740402E-2,1.872300506E-1,-9.621120058E-3
2.203229493E0,5.535962060E-2,-5.833758786E-2,-5.726857483E-2
2.207984857E0,4.314232618E-2,-2.996291816E-1,-1.397353113E-1
2.212740222E0,-5.115992390E-3,-5.036579967E-1,-2.264781147E-1
2.217495586E0,-5.398517475E-2,-6.685914993E-1,-3.016144931E-1
2.222250951E0,-1.010217592E-1,-8.072578311E-1,-3.608683646E-1
2.227006316E0,-1.486692131E-1,-8.891136646E-1,-4.005745649E-1
2.231761680E0,-1.914297491E-1,-9.312633276E-1,-4.256200492E-1
2.236517045E0,-2.286925018E-1,-9.544762373E-1,-4.512763619E-1
2.241272409E0,-2.574031353E-1,-9.599739909E-1,-4.744892120E-1
2.246027774E0,-2.787834108E-1,-9.373720288E-1,-4.934260249E-1
2.250783139E0,-3.184896111E-1,-8.823941946E-1,-5.190823674E-1
2.255538503E0,-3.801869750E-1,-7.699950337E-1,-5.453495383E-1
2.260293868E0,-4.284452796E-1,-6.197223067E-1,-5.557342172E-1
2.265049232E0,-4.541015923E-1,-4.615083337E-1,-5.447386503E-1
2.269804597E0,-4.534907341E-1,-3.026835024E-1,-5.276344419E-1
2.274559961E0,-4.339430630E-1,-1.481347084E-1,-5.117519498E-1
2.279315326E0,-3.997346461E-1,-1.252272818E-2,-5.007563829E-1
2.284070691E0,-3.526980579E-1,9.010255337E-2,-4.958694875E-1
2.288826055E0,-3.013854027E-1,1.670715213E-1,-4.946477413E-1
2.293581420E0,-2.531270981E-1,2.293797284E-1,-5.013672709E-1
2.298336784E0,-2.189186662E-1,2.880227566E-1,-5.111411214E-1
2.303092149E0,-2.299142331E-1,4.065304995E-1,-5.258018374E-1
2.307847514E0,-2.225838602E-1,4.566214085E-1,-5.557342172E-1
2.312602878E0,-1.865428388E-1,4.596757591E-1,-6.082686186E-1
2.317358243E0,-1.425605714E-1,4.639517963E-1,-6.730202436E-1
2.322113607E0,-9.918916970E-2,4.773908257E-1,-7.292198539E-1
2.326868972E0,-6.864593178E-2,4.859429300E-1,-7.780889869E-1
2.331624336E0,-5.337430909E-2,4.761691093E-1,-8.300125003E-1
2.336379701E0,-5.826122686E-2,4.376846254E-1,-8.843795061E-1
2.341135066E0,-8.636100590E-2,3.521635532E-1,-9.442442060E-1
2.345890430E0,-1.199585721E-1,2.428187430E-1,-1.009606719E0
2.350645795E0,-1.492800862E-1,1.548542231E-1,-1.086575747E0
2.355401211E0,-1.786015928E-1,6.444623321E-2,-1.176372886E0
2.360156576E0,-2.073122412E-1,-4.489856213E-2,-1.267391682E0
2.364911941E0,-2.225838602E-1,-1.438586563E-1,-1.359021425E0
2.369667305E0,-2.274707705E-1,-2.446513474E-1,-1.446375132E0
2.374422670E0,-2.384663373E-1,-3.161225319E-1,-1.533117890E0
2.379178034E0,-2.592357397E-1,-3.955349326E-1,-1.621693254E0
2.383933399E0,-2.873355150E-1,-4.535670877E-1,-1.709657788E0
2.388688764E0,-3.001636863E-1,-4.358520210E-1,-1.793346286E0
2.393444128E0,-3.044397235E-1,-3.814850450E-1,-1.865428329E0
2.398199493E0,-3.062723279E-1,-2.709185183E-1,-1.926514745E0
2.402954857E0,-3.123809695E-1,-2.141081095E-1,-1.977216601E0
2.407710222E0,-3.227656782E-1,-1.744018942E-1,-2.018144608E0
2.412465586E0,-3.166570365E-1,-1.017089859E-1,-2.051131248E0
2.417220951E0,-2.964984775E-1,-1.130099874E-2,-2.070068121E0
2.421976316E0,-2.726747692E-1,1.053741723E-1,-2.074344158E0
2.426731680E0,-2.531270981E-1,1.646280587E-1,-2.060294151E0
2.431487045E0,-2.421315312E-1,2.214384824E-1,-2.026696682E0
2.436242409E0,-2.231947184E-1,2.703076601E-1,-1.992488146E0
2.440997774E0,-1.993709952E-1,3.100138903E-1,-1.967442751E0
2.445753139E0,-1.767689884E-1,3.674351573E-1,-1.936288595E0
2.450508503E0,-1.682168841E-1,4.303542376E-1,-1.886808634E0
2.455263920E0,-1.779907197E-1,4.822777510E-1,-1.826332927E0
2.460019284E0,-1.999818534E-1,5.164861679E-1,-1.770744324E0
2.464774649E0,-2.121991515E-1,5.421425104E-1,-1.721264243E0
2.469530014E0,-2.146426141E-1,5.610793233E-1,-1.666897297E0
2.474285378E0,-2.048687786E-1,5.714640021E-1,-1.612530351E0
2.479040743E0,-1.779907197E-1,5.421425104E-1,-1.578932762E0
2.483796107E0,-1.327867359E-1,5.152644515E-1,-1.567937136E0
2.488551472E0,-7.231111825E-2,4.816668928E-1,-1.579543591E0
2.493306836E0,-5.115992390E-3,4.431824088E-1,-1.622915030E0
2.498062201E0,7.368556410E-2,4.065304995E-1,-1.664453864E0
2.502817566E0,1.604283601E-1,3.594939113E-1,-1.682779789E0
2.507572930E0,2.416733801E-1,3.271180987E-1,-1.701105714E0
2.512328295E0,3.052033186E-1,3.124573231E-1,-1.711490393E0
2.517083659E0,3.669006526E-1,2.623664141E-1,-1.718209863E0
2.521839024E0,4.139372408E-1,2.299905866E-1,-1.744477153E0
2.526594389E0,4.457022250E-1,2.153298408E-1,-1.781129003E0
2.531349805E0,4.530325830E-1,2.104429156E-1,-1.798844099E0
2.536105118E0,4.475347996E-1,1.976147592E-1,-1.780518174E0
2.540860534E0,4.365392327E-1,1.890626550E-1,-1.738979340E0
2.545615899E0,4.292088747E-1,2.220493406E-1,-1.702938318E0
2.550371264E0,4.249328077E-1,2.696968019E-1,-1.654069066E0
2.555126628E0,4.139372408E-1,3.100138903E-1,-1.582597971E0
2.559881993E0,3.956113160E-1,3.772090077E-1,-1.501963735E0
2.564637357E0,3.803396821E-1,4.450149834E-1,-1.429270864E0
2.569392722E0,3.626246154E-1,5.225948095E-1,-1.376125574E0
2.574148086E0,3.320813775E-1,6.209440231E-1,-1.338862896E0
2.578903451E0,2.887099683E-1,7.162389755E-1,-1.319926023E0
2.583658816E0,2.337321341E-1,8.011491299E-1,-1.321758628E0
2.588414180E0,1.714239269E-1,8.811724186E-1,-1.346193314E0
2.593169545E0,1.170569658E-1,9.618065953E-1,-1.382234335E0
2.597924909E0,9.384410083E-2,1.102305532E0,-1.411555767E0
2.602680274E0,1.023962051E-1,1.258076072E0,-1.438433886E0
2.607435691E0,1.207221523E-1,1.357036114E0,-1.463479280E0
2.612191055E0,1.469893306E-1,1.465770006E0,-1.487913847E0
2.616946420E0,1.976911128E-1,1.579390883E0,-1.505628943E0
2.621701784E0,2.661079764E-1,1.685681343E0,-1.511126757E0
2.626457149E0,3.491855860E-1,1.782197952E0,-1.501963735E0
2.631212514E0,4.347066581E-1,1.867108226E0,-1.482416153E0
2.635967878E0,5.183951259E-1,1.933692455E0,-1.453705430E0
2.640723243E0,6.045270562E-1,1.988059402E0,-1.416442752E0
2.645478607E0,6.906589866E-1,2.043037176E0,-1.370627880E0
2.650233972E0,7.731257081E-1,2.107789040E0,-1.317482591E0
2.654989336E0,8.500946760E-1,2.187201262E0,-1.261283040E0
2.659744701E0,9.215658903E-1,2.277609348E0,-1.205694318E0
2.664500066E0,9.759328365E-1,2.371071577E0,-1.151327372E0
2.669255430E0,1.021136880E0,2.456592798E0,-1.101847291E0
2.674010795E0,1.057177901E0,2.520122766E0,-1.059086800E0
2.678766211E0,1.088942885E0,2.570213556E0,-1.019380569E0
2.683521576E0,1.109712243E0,2.611141443E0,-9.833396077E-1
2.688276941E0,1.126205564E0,2.633132696E0,-9.515746236E-1
2.693032305E0,1.145753264E0,2.616028309E0,-9.246965647E-1
2.697787670E0,1.176907301E0,2.548833370E0,-9.014837146E-1
2.702543034E0,1.220889568E0,2.459036112E0,-8.843795061E-1
2.707298399E0,1.281365275E0,2.371682405E0,-8.758273721E-1
2.712053764E0,1.350392938E0,2.308152676E0,-8.794925809E-1
2.716809128E0,1.429194450E0,2.252563953E0,-8.856012225E-1
2.721564493E0,1.519602537E0,2.209192514E0,-8.935424685E-1
2.726319857E0,1.614897370E0,2.183536053E0,-9.112575054E-1
2.731075222E0,1.715690136E0,2.178038359E0,-9.375247359E-1
2.735830639E0,1.822591424E0,2.195142508E0,-9.699005485E-1
2.740586003E0,1.934990525E0,2.222020626E0,-1.012661099E0
2.745341368E0,2.052276611E0,2.231183529E0,-1.059697628E0
2.750096732E0,2.183001757E0,2.196975231E0,-1.112842917E0
2.754852097E0,2.322278738E0,2.114508390E0,-1.181870580E0
2.759607461E0,2.448727846E0,1.988059402E0,-1.280830741E0
2.764362826E0,2.555629253E0,1.724165797E0,-1.417053580E0
2.769118191E0,2.650313139E0,1.377805471E0,-1.589928269E0
2.773873555E0,2.763323307E0,1.083368659E0,-1.775631189E0
2.778628920E0,2.902600288E0,8.659008145E-1,-1.944840789E0
2.783384284E0,3.057149172E0,6.814196706E-1,-2.084728718E0
2.788139649E0,3.226358652E0,5.164861679E-1,-2.208123446E0
2.792895066E0,3.385794401E0,3.106247485E-1,-2.336405039E0
2.797650430E0,3.533623695E0,4.550942779E-2,-2.480569124E0
2.802405795E0,3.580660343E0,-1.059850380E-1,-2.599687815E0
2.807161159E0,3.273395300E0,3.686569035E-1,-2.550207853E0
2.811916524E0,2.844568253E0,8.170316219E-1,-2.461632252E0
2.816671889E0,2.443840981E0,1.050382018E0,-2.398713350E0
2.821427253E0,2.087095976E0,1.165224552E0,-2.364504814E0
2.826182618E0,1.840917349E0,1.151785493E0,-2.398713350E0
2.830937982E0,1.750509381E0,9.978476167E-1,-2.514777660E0
2.835693347E0,1.810374141E0,6.954695582E-1,-2.660163403E0
2.840448764E0,1.936823130E0,2.776380479E-1,-2.749960423E0
2.845204128E0,1.948429585E0,-1.933387071E-1,-2.557538033E0
2.849959493E0,1.849469423E0,-6.374374032E-1,-2.012035847E0
2.854714857E0,1.671096921E0,-9.868520498E-1,-1.442098975E0
2.859470222E0,1.428583622E0,-1.130405307E0,-8.129082918E-1
2.864225586E0,1.164690018E0,-1.155450702E0,-9.330959618E-2
2.868980951E0,8.940769434E-1,-1.072373152E0,6.311760545E-1
2.873736316E0,6.527853608E-1,-8.640682101E-1,1.319620609E0
2.878491680E0,4.200458825E-1,-7.254019380E-1,1.825416684E0
2.883247045E0,2.251800299E-1,-6.899717450E-1,2.021504164E0
2.888002409E0,1.317177117E-1,-6.099484563E-1,1.963472128E0
2.892757826E0,1.530979872E-1,-4.670061171E-1,1.853516459E0
2.897513191E0,2.050214857E-1,-4.150826037E-1,1.753945470E0
2.902268555E0,2.502254844E-1,-4.902189970E-1,1.600618482E0
2.907023920E0,2.984837890E-1,-6.148353815E-1,1.368489861E0
2.911779284E0,3.418551981E-1,-7.510582209E-1,1.078329086E0
2.916534649E0,3.711767197E-1,-8.640682101E-1,7.619010806E-1
2.921290014E0,3.943895698E-1,-9.159917235E-1,4.424188137E-1
2.926045378E0,4.255436659E-1,-8.878919482E-1,1.308777779E-1
2.930800743E0,4.597521126E-1,-7.883210182E-1,-1.568395346E-1
2.935556107E0,4.854084253E-1,-6.386591196E-1,-4.060723484E-1
2.940311524E0,4.841867089E-1,-4.731147587E-1,-6.082686186E-1
2.945066889E0,4.377609789E-1,-3.136790693E-1,-7.841976881E-1
2.949822253E0,3.296379149E-1,-1.737910360E-1,-9.772309065E-1
2.954577618E0,1.488219351E-1,-1.237001196E-1,-1.142164469E0
2.959332982E0,-5.948295817E-2,-1.065959036E-1,-1.250898361E0
2.964088347E0,-2.616792023E-1,-1.114828214E-1,-1.269224286E0
2.968843711E0,-4.461603761E-1,-1.530216336E-1,-1.209970355E0
2.973599076E0,-5.860484242E-1,-1.982256174E-1,-1.079245329E0
2.978354441E0,-6.837867498E-1,-2.446513474E-1,-8.819360137E-1
2.983109857E0,-8.053488731E-1,-3.313941360E-1,-6.400335431E-1
2.987865222E0,-1.025871038E0,-4.547888339E-1,-3.724747896E-1
2.992620586E0,-1.138880968E0,-4.389063418E-1,-7.925970852E-2
2.997375951E0,-1.177365541E0,-3.582721949E-1,1.956294477E-1
3.002131316E0,-1.226234674E0,-3.124573231E-1,4.277580678E-1
3.006886680E0,-1.253112793E0,-3.094030023E-1,6.159043908E-1
3.011642045E0,-1.237230301E0,-3.704894781E-1,7.539598346E-1
3.016397409E0,-1.179198146E0,-4.902189970E-1,8.486438990E-1
3.021152774E0,-1.079016328E0,-6.472112536E-1,9.262236953E-1
3.025908191E0,-9.440151453E-1,-8.439096808E-1,9.976949096E-1
3.030663555E0,-7.772490978E-1,-1.066264510E0,1.085048556E0
3.035418920E0,-5.897135735E-1,-1.317940712E0,1.203556299E0
3.040174284E0,-4.345539212E-1,-1.639866471E0,1.336724877E0
3.044929649E0,-3.380373120E-1,-1.964235663E0,1.477834582E0
3.049685014E0,-2.525162399E-1,-2.137721300E0,1.630550861E0
3.054440378E0,-1.682168841E-1,-2.184147120E0,1.785710454E0
3.059195743E0,-1.022434905E-1,-2.197586060E0,1.902385592E0
3.063951107E0,-6.192641705E-2,-2.201251268E0,1.934761524E0
3.068706472E0,-3.688096255E-2,-2.192699194E0,1.888946652E0
3.073461889E0,-2.955058403E-2,-2.170097113E0,1.810755968E0
3.078217253E0,9.926552884E-4,-2.110232353E0,1.752723813E0
3.082972618E0,9.445496649E-2,-2.000887632E0,1.742339015E0
3.087727982E0,2.380081862E-1,-1.858556032E0,1.749058604E0
3.092483347E0,3.595702946E-1,-1.729052782E0,1.697745919E0
3.097238711E0,4.249328077E-1,-1.590997338E0,1.556025267E0
3.101994076E0,4.261545539E-1,-1.423620343E0,1.332448840E0
3.106749441E0,3.815613985E-1,-1.235473990E0,1.042288065E0
3.111504857E0,3.070359230E-1,-1.022893071E0,6.989820004E-1
3.116260222E0,2.007454336E-1,-7.528908253E-1,3.507890999E-1
3.121015586E0,9.140064567E-2,-4.010327160E-1,6.918043643E-2
3.125770951E0,1.198822167E-2,-7.635809947E-3,-1.104138121E-1
3.130526316E0,-3.443750367E-2,3.472766280E-1,-1.977674663E-1
3.135281680E0,-5.887209252E-2,6.087267399E-1,-2.167042792E-1
3.140037045E0,-7.170025259E-2,7.608320713E-1,-1.934914142E-1
3.144792409E0,-8.086322248E-2,8.035926223E-1,-1.586721241E-1
3.149547774E0,-8.636100590E-2,7.602212429E-1,-1.281288862E-1
3.154303139E0,-9.185878932E-2,6.411026120E-1,-1.091920808E-1
3.159058555E0,-1.010217592E-1,4.651735425E-1,-1.030834317E-1
3.163813920E0,-1.114064679E-1,2.580903769E-1,-1.006399691E-1
3.168569284E0,-1.254563481E-1,5.222893879E-2,-9.453132749E-2
3.173324649E0,-1.376736462E-1,-1.212566569E-1,-8.292489499E-2
3.178080014E0,-1.480583549E-1,-2.458730787E-1,-6.337722391E-2
3.182835378E0,-1.559995860E-1,-3.149007857E-1,-3.955349326E-2
3.187590743E0,-1.633299738E-1,-3.387245238E-1,-1.634063199E-2
3.192346159E0,-1.676060259E-1,-3.283398151E-1,-4.581485991E-4
3.197101524E0,-1.718820781E-1,-3.002400398E-1,1.175914705E-2
3.201856889E0,-1.731038094E-1,-2.641990185E-1,2.031125315E-2
3.206612253E0,-1.724929363E-1,-2.269362658E-1,2.519817278E-2
3.211367618E0,-1.669951528E-1,-1.951712966E-1,2.886336111E-2
3.216122982E0,-1.578321904E-1,-1.701258421E-1,2.947422490E-2
3.220878347E0,-1.450040340E-1,-1.542433500E-1,2.886336111E-2
3.225633711E0,-1.340084672E-1,-1.469129771E-1,2.947422490E-2
3.230389128E0,-1.224020272E-1,-1.475238502E-1,3.008509055E-2
3.235144493E0,-1.150716543E-1,-1.536324918E-1,3.252854943E-2
3.239899857E0,-1.150716543E-1,-1.640172005E-1,3.619373962E-2
3.244655222E0,-1.217911690E-1,-1.731801629E-1,3.863719851E-2
3.249410586E0,-1.315650046E-1,-1.774562150E-1,4.108065739E-2
3.254165951E0,-1.443931609E-1,-1.768453568E-1,4.046979174E-2
3.258921316E0,-1.541669965E-1,-1.725693047E-1,3.924806044E-2
3.263676680E0,-1.614973694E-1,-1.640172005E-1,3.619373962E-2
3.268432097E0,-1.639408320E-1,-1.536324918E-1,3.313941509E-2
3.273187461E0,-1.596647799E-1,-1.438586563E-1,3.130681813E-2
3.277942826E0,-1.498909444E-1,-1.340848207E-1,3.008509055E-2
3.282698191E0,-1.333975941E-1,-1.218675226E-1,3.069595434E-2
3.287453555E0,-1.120173261E-1,-1.078176349E-1,2.947422490E-2
3.292208920E0,-9.124792367E-2,-9.498947114E-2,2.641990222E-2
3.296964284E0,-7.108938694E-2,-8.643736690E-2,2.336557768E-2
3.301719649E0,-5.031998456E-2,-8.032871783E-2,2.458730713E-2
3.306475066E0,-3.321577236E-2,-7.605266571E-2,2.886336111E-2
3.311230430E0,-1.916588284E-2,-7.422006875E-2,3.191768378E-2
3.315985795E0,-8.170315996E-3,-7.422006875E-2,3.313941509E-2
3.320741159E0,-8.399390499E-4,-7.788526267E-2,3.008509055E-2
3.325496524E0,3.436114406E-3,-8.338304609E-2,2.519817278E-2
3.330251889E0,4.657844082E-3,-8.643736690E-2,2.031125315E-2
3.335007253E0,4.657844082E-3,-8.399390429E-2,1.664606482E-2
3.339762618E0,2.825249685E-3,-7.238747925E-2,1.298087649E-2
3.344518034E0,3.817904799E-4,-4.917461425E-2,9.926552884E-3
3.349273399E0,9.926552884E-4,-2.046396956E-2,8.704823442E-3
3.354028764E0,3.436114406E-3,1.374445762E-2,5.650499370E-3
3.358784128E0,1.137735695E-2,4.673115537E-2,3.207040019E-3
3.363539493E0,2.359465137E-2,7.605266571E-2,7.635809598E-4
3.368294857E0,4.375318810E-2,1.004872546E-1,1.527161949E-4
3.373050222E0,6.696604937E-2,1.145371497E-1,-4.581485991E-4
3.377805639E0,9.262236953E-2,1.224783882E-1,1.374445739E-3
3.382561003E0,1.195004210E-1,1.255327165E-1,3.817904973E-3
3.387316368E0,1.451567411E-1,1.304196268E-1,6.261364091E-3
3.392071732E0,1.665370166E-1,1.365282834E-1,9.926552884E-3
3.396827097E0,1.848629564E-1,1.481347084E-1,1.481347065E-2
3.401582461E0,1.983019859E-1,1.646280587E-1,2.275471389E-2
3.406337878E0,2.092975378E-1,1.860083193E-1,3.375028074E-2
3.411093191E0,2.172387838E-1,2.122755051E-1,4.596757516E-2
3.415848607E0,2.233474404E-1,2.367101014E-1,6.062832847E-2
3.420603972E0,2.282343507E-1,2.574795187E-1,7.651081681E-2
3.425359336E0,2.343430072E-1,2.727511227E-1,9.178243577E-2
3.430114701E0,2.392299175E-1,2.770271897E-1,1.076649204E-1
3.434870066E0,2.471711636E-1,2.690859437E-1,1.223256737E-1
3.439625482E0,2.557232678E-1,2.458730787E-1,1.351538301E-1
3.444380847E0,2.648862302E-1,2.159406990E-1,1.424842030E-1
3.449136211E0,2.703840137E-1,1.823431402E-1,1.479819864E-1
3.453891576E0,2.771035433E-1,1.524107605E-1,1.522580534E-1
3.458646941E0,2.777144015E-1,1.267544478E-1,1.553123742E-1
3.463402305E0,2.734383345E-1,1.078176349E-1,1.553123742E-1
3.468157670E0,2.661079764E-1,9.682206810E-2,1.504254490E-1
3.472913034E0,2.526689470E-1,9.376774728E-2,1.424842030E-1
3.477668451E0,2.343430072E-1,1.029307172E-1,1.302669197E-1
3.482423816E0,2.129627317E-1,1.218675226E-1,1.168278903E-1
3.487179180E0,1.897498667E-1,1.511890292E-1,1.064431891E-1
3.491934545E0,1.695913374E-1,1.823431402E-1,1.027780026E-1
3.496689909E0,1.537088454E-1,2.128863782E-1,1.039997265E-1
3.501445274E0,1.427132785E-1,2.342666388E-1,1.046105921E-1
3.506200639E0,1.396589577E-1,2.440404743E-1,1.039997265E-1
3.510956055E0,1.445458829E-1,2.434296161E-1,1.021671370E-1
3.515711420E0,1.537088454E-1,2.354883701E-1,9.911280870E-2
3.520466784E0,1.653152853E-1,2.226602137E-1,9.605848789E-2
3.525222149E0,1.781434417E-1,2.104429156E-1,9.300415963E-2
3.529977514E0,1.891390085E-1,2.012799382E-1,8.933897316E-2
3.534732878E0,1.964693815E-1,1.976147592E-1,8.567378670E-2
3.539488295E0,1.976911128E-1,1.994473487E-1,8.261945844E-2
3.544243659E0,1.934150606E-1,2.049451321E-1,7.895427197E-2
3.548999024E0,1.866955459E-1,2.141081095E-1,7.406735420E-2
3.553754389E0,1.763108522E-1,2.257145345E-1,6.795870513E-2
3.558509753E0,1.647044122E-1,2.397644222E-1,6.246092543E-2
3.563265118E0,1.543197185E-1,2.562577724E-1,5.635227636E-2
3.568020482E0,1.445458829E-1,2.709185183E-1,5.146535859E-2
3.572775899E0,1.384372264E-1,2.837466896E-1,4.718930274E-2
3.577531264E0,1.347720474E-1,2.953531146E-1,4.535670951E-2
3.582286628E0,1.366046369E-1,2.977965772E-1,4.413498193E-2
3.587041993E0,1.439350098E-1,2.953531146E-1,4.474584386E-2
3.591797357E0,1.549305767E-1,2.861901522E-1,4.291325063E-2
3.596552722E0,1.714239269E-1,2.739728391E-1,4.474584386E-2
3.601308086E0,1.897498667E-1,2.605338395E-1,4.352411628E-2
3.606063503E0,2.044106275E-1,2.458730787E-1,4.352411628E-2
3.610818868E0,2.166279256E-1,2.299905866E-1,4.352411628E-2
3.615574232E0,2.239582986E-1,2.147189677E-1,4.230238497E-2
3.620329597E0,2.257908881E-1,2.018908113E-1,4.474584386E-2
3.625084961E0,2.215148360E-1,1.927278340E-1,5.024362728E-2
3.629840326E0,2.105192691E-1,1.860083193E-1,5.757400393E-2
3.634595691E0,1.970802546E-1,1.805105358E-1,6.490438432E-2
3.639351107E0,1.824194938E-1,1.750127524E-1,7.223475724E-2
3.644106472E0,1.677587330E-1,1.676823795E-1,7.895427197E-2
3.648861836E0,1.537088454E-1,1.579085439E-1,8.506292105E-2
3.653617201E0,1.414915472E-1,1.456912458E-1,9.056070447E-2
3.658372566E0,1.317177117E-1,1.310304999E-1,9.483675659E-2
3.663127930E0,1.231656075E-1,1.151480079E-1,1.027780026E-1
3.667883347E0,1.182786897E-1,9.926552325E-2,1.107192412E-1
3.672638711E0,1.152243689E-1,8.704823256E-2,1.174387559E-1
3.677394076E0,1.115591824E-1,7.727439702E-2,1.192713454E-1
3.682149441E0,1.091157198E-1,7.483093441E-2,1.174387559E-1
3.686904805E0,1.048396677E-1,7.666353136E-2,1.149952933E-1
3.691660222E0,9.995274991E-2,8.582650125E-2,1.113301069E-1
3.696415586E0,9.323323518E-2,1.023198515E-1,1.076649204E-1
3.701170951E0,8.651372790E-2,1.224783882E-1,1.015562713E-1
3.705926316E0,7.918334752E-2,1.475238502E-1,9.666935354E-2
3.710681680E0,7.124210149E-2,1.762344837E-1,9.056070447E-2
3.715437045E0,6.513345987E-2,2.049451321E-1,8.628465235E-2
3.720192409E0,6.024653837E-2,2.354883701E-1,8.017600328E-2
3.724947826E0,5.902481079E-2,2.672533393E-1,7.345648855E-2
3.729703191E0,6.024653837E-2,2.959639728E-1,6.856957078E-2
3.734458555E0,6.513345987E-2,3.240637779E-1,6.246092543E-2
3.739213920E0,7.185296714E-2,3.436114490E-1,5.757400393E-2
3.743969284E0,8.162680268E-2,3.552178741E-1,5.513054505E-2
3.748724649E0,9.140064567E-2,3.619373739E-1,5.207622424E-2
3.753480014E0,1.023962051E-1,3.607156575E-1,5.024362728E-2
3.758235430E0,1.133917719E-1,3.552178741E-1,4.841103405E-2
3.762990795E0,1.237764731E-1,3.460549116E-1,4.718930274E-2
3.767746159E0,1.353829056E-1,3.375027776E-1,4.657844082E-2
3.772501524E0,1.469893306E-1,3.332267404E-1,4.535670951E-2
3.777256889E0,1.567631811E-1,3.313941360E-1,4.718930274E-2
3.782012305E0,1.665370166E-1,3.350593448E-1,4.841103405E-2
3.786767670E0,1.756999791E-1,3.442223072E-1,5.085449293E-2
3.791523034E0,1.842520833E-1,3.564395905E-1,5.574141070E-2
3.796278399E0,1.934150606E-1,3.692677617E-1,5.940660089E-2
3.801033764E0,2.025780380E-1,3.833176494E-1,6.368265301E-2
3.805789128E0,2.129627317E-1,3.967566788E-1,6.673697382E-2
3.810544545E0,2.227365673E-1,4.077522457E-1,7.040216774E-2
3.815299909E0,2.337321341E-1,4.126391709E-1,7.528908551E-2
3.820055274E0,2.471711636E-1,4.095848203E-1,8.017600328E-2
3.824810639E0,2.606101930E-1,4.016436040E-1,8.384118974E-2
3.829566003E0,2.734383345E-1,3.888154328E-1,8.872810751E-2
3.834321368E0,2.844339013E-1,3.723220825E-1,9.239330143E-2
3.839076784E0,2.935968935E-1,3.564395905E-1,9.605848789E-2
3.843832149E0,3.009272516E-1,3.417788446E-1,9.911280870E-2
3.848587514E0,3.052033186E-1,3.283398151E-1,1.021671370E-1
3.853342878E0,3.070359230E-1,3.173442483E-1,1.052214578E-1
3.858098243E0,3.088684976E-1,3.100138903E-1,1.046105921E-1
3.862853607E0,3.094793558E-1,3.039052188E-1,1.046105921E-1
3.867609024E0,3.088684976E-1,2.996291816E-1,1.052214578E-1
3.872364389E0,3.070359230E-1,2.953531146E-1,1.039997265E-1
3.877119753E0,3.052033186E-1,2.929096520E-1,9.972367436E-2
3.881875118E0,3.021489978E-1,2.929096520E-1,9.544762224E-2
3.886630482E0,2.978729308E-1,2.965748608E-1,9.178243577E-2
3.891385847E0,2.942077518E-1,3.051269650E-1,8.689551800E-2
3.896141264E0,2.893208265E-1,3.179551065E-1,8.200860023E-2
3.900896628E0,2.850447893E-1,3.320049942E-1,7.773254067E-2
3.905651993E0,2.813795805E-1,3.460549116E-1,7.406735420E-2
3.910407357E0,2.783252597E-1,3.582721949E-1,7.101303339E-2
3.915162722E0,2.777144015E-1,3.674351573E-1,6.918043643E-2
3.919918139E0,2.764926851E-1,3.753764033E-1,6.673697382E-2
3.924673503E0,2.758817971E-1,3.808741868E-1,6.490438432E-2
3.929428868E0,2.758817971E-1,3.875937164E-1,6.368265301E-2
3.934184232E0,2.752709389E-1,3.967566788E-1,6.185005978E-2
3.938939597E0,2.728274763E-1,4.077522457E-1,5.940660089E-2
3.943694961E0,2.697731555E-1,4.211912751E-1,5.635227636E-2
3.948450378E0,2.636645138E-1,4.364628792E-1,5.329795182E-2
3.953205743E0,2.575558722E-1,4.541779757E-1,4.902189970E-2
3.957961107E0,2.490037531E-1,4.749473631E-1,4.474584386E-2
3.962716472E0,2.404516488E-1,4.993819594E-1,4.046979174E-2
3.967471836E0,2.318995446E-1,5.274817348E-1,3.619373962E-2
3.972227253E0,2.202931046E-1,5.549706817E-1,3.191768378E-2
3.976982618E0,2.092975378E-1,5.818486810E-1,3.130681813E-2
3.981737982E0,1.964693815E-1,6.075050235E-1,3.313941509E-2
3.986493347E0,1.836412251E-1,6.313287616E-1,3.619373962E-2
3.991248711E0,1.714239269E-1,6.466003656E-1,4.474584386E-2
3.996004076E0,1.598175019E-1,6.582068205E-1,5.390881747E-2
4.000759493E0,1.500436664E-1,6.692023873E-1,5.696314201E-2
4.005514857E0,1.390480995E-1,6.795870662E-1,5.574141070E-2
4.010270222E0,1.286633909E-1,6.887500286E-1,5.513054505E-2
4.015025586E0,1.195004210E-1,6.973021626E-1,5.574141070E-2
4.019780951E0,1.127809063E-1,7.076868415E-1,5.879573524E-2
4.024536368E0,1.054505333E-1,7.168498039E-1,6.185005978E-2
4.029291732E0,9.812015295E-2,7.229584455E-1,6.734783947E-2
4.034047097E0,9.445496649E-2,7.272345424E-1,7.162389904E-2
4.038802461E0,9.078978002E-2,7.290670872E-1,7.651081681E-2
4.043557826E0,8.956804872E-2,7.284562588E-1,8.139773458E-2
4.048313243E0,8.895718306E-2,7.254019380E-1,8.628465235E-2
4.053068607E0,8.956804872E-2,7.223476171E-1,8.994983882E-2
4.057823972E0,9.384410083E-2,7.205150127E-1,9.605848789E-2
4.062579336E0,9.628756344E-2,7.211259007E-1,1.027780026E-1
4.067334701E0,1.005636156E-1,7.272345424E-1,1.082757786E-1
4.072090066E0,1.054505333E-1,7.370083332E-1,1.125518382E-1
4.076845482E0,1.103374511E-1,7.504473925E-1,1.149952933E-1
4.081600847E0,1.146135032E-1,7.644972801E-1,1.168278903E-1
4.086356211E0,1.188895553E-1,7.809906006E-1,1.180496216E-1
4.091111576E0,1.231656075E-1,7.980948091E-1,1.168278903E-1
4.095866941E0,1.256090701E-1,8.127555847E-1,1.131627038E-1
4.100622357E0,1.262199283E-1,8.213077188E-1,1.082757786E-1
4.105377722E0,1.286633909E-1,8.274163604E-1,1.046105921E-1
4.110133086E0,1.311068535E-1,8.255837560E-1,1.027780026E-1
4.114888451E0,1.329394430E-1,8.176425099E-1,1.003345400E-1
4.119643816E0,1.366046369E-1,8.029817343E-1,9.911280870E-2
4.124399232E0,1.408806890E-1,7.846558094E-1,9.789107740E-2
4.129154597E0,1.469893306E-1,7.657189965E-1,1.003345400E-1
4.133909961E0,1.530979872E-1,7.473930717E-1,1.052214578E-1
4.138665326E0,1.622609496E-1,7.327322960E-1,1.088866442E-1
4.143420691E0,1.738673896E-1,7.199041247E-1,1.137735620E-1
4.148176055E0,1.879172772E-1,7.095194459E-1,1.162170246E-1
4.152931472E0,2.031888962E-1,7.027999163E-1,1.198822111E-1
4.157686836E0,2.239582986E-1,6.954695582E-1,1.204930767E-1
4.162442201E0,2.477820218E-1,6.856957078E-1,1.223256737E-1
4.167197566E0,2.752709389E-1,6.740893126E-1,1.217148080E-1
4.171952930E0,3.039815724E-1,6.582068205E-1,1.186604798E-1
4.176708347E0,3.357465565E-1,6.380482912E-1,1.143844277E-1
4.181463711E0,3.681223989E-1,6.185005903E-1,1.088866442E-1
4.186219076E0,3.986656368E-1,6.032289863E-1,1.009454057E-1
4.190974441E0,4.273762703E-1,5.940660238E-1,9.117157012E-2
4.195729805E0,4.499782622E-1,5.940660238E-1,8.139773458E-2
4.200485222E0,4.664716125E-1,6.032289863E-1,7.284562290E-2
4.205240586E0,4.762454629E-1,6.197223067E-1,6.429351866E-2
4.209995951E0,4.792997837E-1,6.404917240E-1,5.635227636E-2
4.214751316E0,4.786889255E-1,6.661480665E-1,5.268708616E-2
4.219506732E0,4.750237167E-1,6.911935210E-1,5.207622424E-2
4.224262097E0,4.713585377E-1,7.107411623E-1,5.574141070E-2
4.229017461E0,4.670824707E-1,7.211259007E-1,6.062832847E-2
4.233772826E0,4.670824707E-1,7.241802216E-1,6.856957078E-2
4.238528191E0,4.683042169E-1,7.162389755E-1,7.467821985E-2
4.243283555E0,4.725802541E-1,6.954695582E-1,8.139773458E-2
4.248038972E0,4.811323583E-1,6.685914993E-1,8.506292105E-2
4.252794336E0,4.915170670E-1,6.368265152E-1,8.750637621E-2
4.257549701E0,5.025126338E-1,6.044507027E-1,8.872810751E-2
4.262305066E0,5.122864842E-1,5.763509274E-1,8.933897316E-2
4.267060482E0,5.202277303E-1,5.543597937E-1,8.872810751E-2
4.271815847E0,5.232820511E-1,5.415316224E-1,8.811724186E-2
4.276571211E0,5.226711631E-1,5.348120928E-1,8.567378670E-2
4.281326576E0,5.171734095E-1,5.329795480E-1,8.200860023E-2
4.286081941E0,5.080104470E-1,5.342012644E-1,7.834340632E-2
4.290837357E0,4.976257086E-1,5.366446972E-1,7.589995116E-2
4.295592722E0,4.866301417E-1,5.372555852E-1,7.345648855E-2
4.300348086E0,4.768563211E-1,5.342012644E-1,6.979130208E-2
4.305103451E0,4.670824707E-1,5.274817348E-1,6.856957078E-2
4.309858816E0,4.591412544E-1,5.177078843E-1,6.429351866E-2
4.314614232E0,4.530325830E-1,5.079340935E-1,6.062832847E-2
4.319369597E0,4.457022250E-1,4.957167804E-1,5.635227636E-2
4.324124961E0,4.389826953E-1,4.822777510E-1,5.207622424E-2
4.328880326E0,4.310414493E-1,4.725039005E-1,5.024362728E-2
4.333635691E0,4.218784869E-1,4.676169753E-1,5.024362728E-2
4.338391107E0,4.108829200E-1,4.688387215E-1,5.085449293E-2
4.343146472E0,4.004982114E-1,4.718930423E-1,5.146535859E-2
4.347901836E0,3.895026445E-1,4.749473631E-1,5.329795182E-2
4.352657201E0,3.803396821E-1,4.761691093E-1,5.818486959E-2
4.357412566E0,3.723984361E-1,4.725039005E-1,6.429351866E-2
4.362167982E0,3.675115108E-1,4.645626545E-1,6.734783947E-2
4.366923347E0,3.620137274E-1,4.486801922E-1,7.284562290E-2
4.371678711E0,3.607920110E-1,4.272999167E-1,7.773254067E-2
4.376434076E0,3.595702946E-1,3.992001414E-1,8.323032409E-2
4.381189493E0,3.577376902E-1,3.686569035E-1,8.750637621E-2
4.385944857E0,3.559050858E-1,3.375027776E-1,8.933897316E-2
4.390700222E0,3.497964442E-1,3.118464649E-1,9.056070447E-2
4.395455586E0,3.406334817E-1,2.898553312E-1,9.056070447E-2
4.400210951E0,3.278053105E-1,2.745837271E-1,8.811724186E-2
4.404966368E0,3.125337064E-1,2.629773021E-1,8.628465235E-2
4.409721732E0,2.954294682E-1,2.532034516E-1,8.567378670E-2
4.414477097E0,2.789361179E-1,2.422078848E-1,8.628465235E-2
4.419232461E0,2.624427676E-1,2.312123179E-1,8.628465235E-2
4.423987826E0,2.483928949E-1,2.196058929E-1,8.689551800E-2
4.428743243E0,2.361755967E-1,2.067777216E-1,8.445205539E-2
4.433498607E0,2.282343507E-1,1.939495653E-1,8.261945844E-2
4.438253972E0,2.227365673E-1,1.805105358E-1,7.773254067E-2
4.443009336E0,2.202931046E-1,1.731801629E-1,7.345648855E-2
4.447764701E0,2.190713882E-1,1.707367003E-1,6.795870513E-2
4.452520118E0,2.202931046E-1,1.725693047E-1,6.307178736E-2
4.457275482E0,2.239582986E-1,1.774562150E-1,5.940660089E-2
4.462030847E0,2.282343507E-1,1.841757298E-1,5.513054505E-2
4.466786211E0,2.331212759E-1,1.939495653E-1,5.024362728E-2
4.471541628E0,2.398407906E-1,2.092211843E-1,4.230238497E-2
4.476296993E0,2.459494323E-1,2.244928032E-1,3.436114267E-2
4.481052357E0,2.502254844E-1,2.385426909E-1,2.580903657E-2
4.485807722E0,2.520580888E-1,2.495382577E-1,1.542433538E-2
4.490563086E0,2.520580888E-1,2.593120933E-1,7.483093534E-3
4.495318503E0,2.477820218E-1,2.654207349E-1,7.635809598E-4
4.500073868E0,2.428951114E-1,2.666424811E-1,-4.123337101E-3
4.504829232E0,2.337321341E-1,2.654207349E-1,-8.399390616E-3
4.509584597E0,2.196822464E-1,2.648098767E-1,-1.206457894E-2
4.514339961E0,2.044106275E-1,2.648098767E-1,-1.511890348E-2
4.519095378E0,1.885281354E-1,2.666424811E-1,-1.756236330E-2
4.523850743E0,1.726456583E-1,2.678641975E-1,-1.817322709E-2
4.528606107E0,1.579848975E-1,2.666424811E-1,-1.817322709E-2
4.533361472E0,1.457676142E-1,2.641990185E-1,-1.695149764E-2
4.538116889E0,1.384372264E-1,2.556469142E-1,-1.572976820E-2
4.542872253E0,1.341611743E-1,2.428187430E-1,-1.511890348E-2
4.547627618E0,1.335503161E-1,2.269362658E-1,-1.572976820E-2
4.552382982E0,1.329394430E-1,2.104429156E-1,-1.756236330E-2
4.557138399E0,1.317177117E-1,1.939495653E-1,-2.183841541E-2
4.561893764E0,1.262199283E-1,1.792888194E-1,-2.794706449E-2
4.566649128E0,1.164461002E-1,1.658497900E-1,-3.588830680E-2
4.571404493E0,1.011744812E-1,1.530216336E-1,-4.138609022E-2
4.576159857E0,8.040507883E-2,1.395826042E-1,-4.749473557E-2
4.580915274E0,5.719221383E-2,1.249218509E-1,-5.177079141E-2
4.585670639E0,3.153589368E-2,1.114828214E-1,-5.543597788E-2
4.590426003E0,7.712167688E-3,9.987638891E-2,-5.543597788E-2
4.595181368E0,-1.427896414E-2,8.765909821E-2,-5.482511222E-2
4.599936784E0,-3.260490671E-2,7.422006875E-2,-5.421425030E-2
4.604692149E0,-4.665479809E-2,5.894844979E-2,-5.115992576E-2
4.609447514E0,-5.642863363E-2,4.184423760E-2,-4.871646687E-2
4.614202878E0,-6.253728271E-2,2.596175298E-2,-4.688387364E-2
4.618958243E0,-6.681333482E-2,1.007926930E-2,-4.505127668E-2
4.623713659E0,-6.925679743E-2,-3.359756200E-3,-4.382954910E-2
4.628469024E0,-6.986765563E-2,-1.740964688E-2,-4.138609022E-2
4.633224389E0,-7.108938694E-2,-3.329212964E-2,-3.833176568E-2
4.637979753E0,-7.047852129E-2,-4.917461425E-2,-3.711003438E-2
4.642735170E0,-7.108938694E-2,-6.322450191E-2,-3.588830680E-2
4.647490534E0,-7.353284955E-2,-7.788526267E-2,-3.711003438E-2
4.652245899E0,-7.841976732E-2,-9.071341902E-2,-4.077522457E-2
4.657001264E0,-8.330668509E-2,-1.010981202E-1,-4.321868345E-2
4.661756628E0,-9.063705802E-2,-1.114828214E-1,-4.566214234E-2
4.666512045E0,-9.735657275E-2,-1.230892539E-1,-4.993819445E-2
4.671267409E0,-1.034652218E-1,-1.346956789E-1,-5.421425030E-2
4.676022774E0,-1.071304083E-1,-1.432477981E-1,-5.910116807E-2
4.680778139E0,-1.107956022E-1,-1.517999023E-1,-6.459894776E-2
4.685533555E0,-1.132390574E-1,-1.572976857E-1,-7.192932814E-2
4.690288920E0,-1.132390574E-1,-1.621845961E-1,-8.109229803E-2
4.695044284E0,-1.126281917E-1,-1.689041108E-1,-8.842267841E-2
4.699799649E0,-1.126281917E-1,-1.792888194E-1,-9.453132749E-2
4.704555066E0,-1.120173261E-1,-1.921169758E-1,-9.758564830E-2
4.709310430E0,-1.120173261E-1,-2.061668634E-1,-1.006399691E-1
4.714065795E0,-1.114064679E-1,-2.183841616E-1,-9.941824526E-2
4.718821159E0,-1.095738709E-1,-2.312123179E-1,-9.514218569E-2
4.723576576E0,-1.089630052E-1,-2.458730787E-1,-8.720094711E-2
4.728331941E0,-1.071304083E-1,-2.660316229E-1,-8.109229803E-2
4.733087305E0,-1.065195426E-1,-2.892444730E-1,-7.315105945E-2
4.737842670E0,-1.065195426E-1,-3.149007857E-1,-6.643154472E-2
4.742598034E0,-1.083521396E-1,-3.448331654E-1,-6.032289565E-2
4.747353451E0,-1.126281917E-1,-3.765981495E-1,-5.299251899E-2
4.752108816E0,-1.169042438E-1,-4.071413875E-1,-4.810560122E-2
4.756864180E0,-1.242346242E-1,-4.401280880E-1,-4.321868345E-2
4.761619545E0,-1.297324002E-1,-4.706713259E-1,-4.138609022E-2
4.766374961E0,-1.333975941E-1,-4.987711012E-1,-3.955349326E-2
4.771130326E0,-1.388953775E-1,-5.232056975E-1,-4.016435891E-2
4.775885691E0,-1.431714296E-1,-5.433642268E-1,-4.016435891E-2
4.780641055E0,-1.474474818E-1,-5.561923981E-1,-4.138609022E-2
4.785396472E0,-1.535561383E-1,-5.647444725E-1,-4.199695215E-2
4.790151836E0,-1.608865112E-1,-5.708531141E-1,-4.321868345E-2
4.794907201E0,-1.682168841E-1,-5.781835318E-1,-4.382954910E-2
4.799662566E0,-1.786015928E-1,-5.842921734E-1,-4.260781780E-2
4.804417930E0,-1.865428388E-1,-5.922334194E-1,-4.077522457E-2
4.809173347E0,-1.938732117E-1,-5.977311730E-1,-4.016435891E-2
4.813928711E0,-2.005927265E-1,-6.032289863E-1,-3.833176568E-2
4.818684076E0,-2.036470473E-1,-6.075050235E-1,-3.649916872E-2
4.823439441E0,-2.054796368E-1,-6.117810607E-1,-3.527744114E-2
4.828194857E0,-2.054796368E-1,-6.154462695E-1,-3.405570984E-2
4.832950222E0,-2.042579055E-1,-6.178897023E-1,-3.283398226E-2
4.837705586E0,-2.012035847E-1,-6.185005903E-1,-2.977965772E-2
4.842460951E0,-1.981492639E-1,-6.197223067E-1,-3.039052337E-2
4.847216368E0,-1.920406222E-1,-6.172788739E-1,-3.222311661E-2
4.851971732E0,-1.883754283E-1,-6.160571575E-1,-3.588830680E-2
4.856727097E0,-1.840993762E-1,-6.166679859E-1,-3.955349326E-2
4.861482461E0,-1.840993762E-1,-6.172788739E-1,-4.505127668E-2
4.866237878E0,-1.895971596E-1,-6.203331947E-1,-5.238165334E-2
4.870993243E0,-2.012035847E-1,-6.227766275E-1,-5.971203372E-2
4.875748607E0,-2.189186662E-1,-6.221657991E-1,-6.643154472E-2
4.880503972E0,-2.433532625E-1,-6.178897023E-1,-7.376192510E-2
4.885259389E0,-2.708421648E-1,-6.117810607E-1,-7.742711157E-2
4.890014753E0,-2.995528281E-1,-6.062833071E-1,-8.109229803E-2
4.894770118E0,-3.276526034E-1,-6.032289863E-1,-8.170316368E-2
4.899525482E0,-3.520871997E-1,-6.038398147E-1,-8.292489499E-2
4.904280899E0,-3.698022664E-1,-6.062833071E-1,-8.292489499E-2
4.909036264E0,-3.795761168E-1,-6.087267399E-1,-8.475748450E-2
4.913791628E0,-3.814086914E-1,-6.111702323E-1,-8.659008145E-2
4.918546993E0,-3.771326542E-1,-6.105593443E-1,-8.903354406E-2
4.923302357E0,-3.691914082E-1,-6.068941355E-1,-9.147699922E-2
4.928057774E0,-3.588066995E-1,-6.007854939E-1,-9.330959618E-2
4.932813139E0,-3.496437371E-1,-5.928442478E-1,-9.453132749E-2
4.937568503E0,-3.392590284E-1,-5.842921734E-1,-9.269873053E-2
4.942323868E0,-3.307069242E-1,-5.757400393E-1,-8.964440972E-2
4.947079284E0,-3.233765364E-1,-5.665770769E-1,-8.536835015E-2
4.951834649E0,-3.160461783E-1,-5.568032265E-1,-7.803797722E-2
4.956590014E0,-3.074940443E-1,-5.451968312E-1,-7.070759684E-2
4.961345378E0,-3.001636863E-1,-5.311469436E-1,-6.154462695E-2
4.966100795E0,-2.910007238E-1,-5.134318471E-1,-5.054906011E-2
4.970856159E0,-2.824485898E-1,-4.920515716E-1,-4.016435891E-2
4.975611524E0,-2.726747692E-1,-4.725039005E-1,-2.916879393E-2
4.980366889E0,-2.592357397E-1,-4.578431547E-1,-1.817322709E-2
4.985122305E0,-2.439641207E-1,-4.486801922E-1,-6.566796452E-3
4.989877670E0,-2.238055766E-1,-4.468475878E-1,5.039634649E-3
4.994633034E0,-2.005927265E-1,-4.474584460E-1,1.481347065E-2
4.999388451E0,-1.755472720E-1,-4.468475878E-1,2.336557768E-2
5.004143816E0,-1.505018175E-1,-4.462367296E-1,3.130681813E-2
5.008899180E0,-1.278998107E-1,-4.425715208E-1,3.924806044E-2
5.013654545E0,-1.077412739E-1,-4.346303046E-1,4.780016840E-2
5.018409961E0,-9.246965498E-2,-4.254673123E-1,5.757400393E-2
5.023165326E0,-8.269581944E-2,-4.156934917E-1,6.551524997E-2
5.027920691E0,-7.841976732E-2,-4.016436040E-1,7.467821985E-2
5.032676055E0,-8.208495378E-2,-3.869828284E-1,8.139773458E-2
5.037431420E0,-9.246965498E-2,-3.717112243E-1,8.750637621E-2
5.042186836E0,-1.077412739E-1,-3.539961278E-1,9.178243577E-2
5.046942201E0,-1.266780794E-1,-3.362810612E-1,9.666935354E-2
5.051697566E0,-1.456148922E-1,-3.216203153E-1,9.911280870E-2
5.056452982E0,-1.645517051E-1,-3.130682111E-1,1.003345400E-1
5.061208347E0,-1.792124510E-1,-3.112356067E-1,9.911280870E-2
5.065963711E0,-1.908188909E-1,-3.155116439E-1,9.605848789E-2
5.070719076E0,-1.993709952E-1,-3.246746361E-1,9.117157012E-2
5.075474493E0,-2.054796368E-1,-3.344484568E-1,8.445205539E-2
5.080229857E0,-2.109774202E-1,-3.436114490E-1,7.712167501E-2
5.084985222E0,-2.207512558E-1,-3.491092324E-1,6.979130208E-2
5.089740586E0,-2.348011434E-1,-3.515526950E-1,6.246092543E-2
5.094496003E0,-2.531270981E-1,-3.497200906E-1,5.513054505E-2
5.099251368E0,-2.751182318E-1,-3.478874862E-1,5.085449293E-2
5.104006732E0,-3.001636863E-1,-3.448331654E-1,4.841103405E-2
5.108762097E0,-3.258199990E-1,-3.423897028E-1,4.596757516E-2
5.113517514E0,-3.502545953E-1,-3.417788446E-1,4.352411628E-2
5.118272878E0,-3.716348708E-1,-3.430005610E-1,4.230238497E-2
5.123028243E0,-3.862956166E-1,-3.472766280E-1,4.108065739E-2
5.127783607E0,-3.942368627E-1,-3.521635532E-1,4.169152305E-2
5.132539024E0,-3.966803253E-1,-3.588830531E-1,4.291325063E-2
5.137294389E0,-3.936260045E-1,-3.643808365E-1,4.413498193E-2
5.142049753E0,-3.862956166E-1,-3.704894781E-1,4.596757516E-2
5.146805170E0,-3.759109080E-1,-3.741546869E-1,4.352411628E-2
5.151560534E0,-3.649153411E-1,-3.772090077E-1,4.108065739E-2
5.156315899E0,-3.526980579E-1,-3.796524704E-1,3.863719851E-2
5.161071264E0,-3.417024910E-1,-3.802633286E-1,3.680460155E-2
5.165826628E0,-3.331503868E-1,-3.820959330E-1,3.436114267E-2
5.170582045E0,-3.252091408E-1,-3.827067912E-1,3.252854943E-2
5.175337409E0,-3.215439618E-1,-3.875937164E-1,3.130681813E-2
5.180092774E0,-3.203222156E-1,-3.937023580E-1,3.191768378E-2
5.184848191E0,-3.203222156E-1,-4.022544622E-1,3.375028074E-2
5.189603555E0,-3.239873946E-1,-4.101957083E-1,3.619373962E-2
5.194358920E0,-3.258199990E-1,-4.150826037E-1,4.108065739E-2
5.199114284E0,-3.300960660E-1,-4.163043499E-1,4.535670951E-2
5.203869701E0,-3.331503868E-1,-4.163043499E-1,4.780016840E-2
5.208625066E0,-3.355938494E-1,-4.089739621E-1,5.146535859E-2
5.213380430E0,-3.374264240E-1,-3.943132162E-1,5.390881747E-2
5.218135795E0,-3.362047076E-1,-3.772090077E-1,5.757400393E-2
5.222891211E0,-3.331503868E-1,-3.607156575E-1,6.062832847E-2
5.227646576E0,-3.288743198E-1,-3.472766280E-1,6.246092543E-2
5.232401941E0,-3.239873946E-1,-3.399462402E-1,6.551524997E-2
5.237157357E0,-3.172678947E-1,-3.368919194E-1,6.673697382E-2
5.241912722E0,-3.136027157E-1,-3.381136656E-1,6.795870513E-2
5.246668086E0,-3.111592531E-1,-3.405571282E-1,6.918043643E-2
5.251423451E0,-3.136027157E-1,-3.405571282E-1,6.918043643E-2
5.256178868E0,-3.203222156E-1,-3.387245238E-1,6.856957078E-2
5.260934232E0,-3.300960660E-1,-3.332267404E-1,6.734783947E-2
5.265689597E0,-3.404807448E-1,-3.234528899E-1,6.734783947E-2
5.270445014E0,-3.508654535E-1,-3.112356067E-1,6.918043643E-2
5.275200378E0,-3.600284159E-1,-2.990183234E-1,6.979130208E-2
5.279955743E0,-3.673588037E-1,-2.904661894E-1,7.040216774E-2
5.284711107E0,-3.698022664E-1,-2.886336148E-1,7.284562290E-2
5.289466524E0,-3.691914082E-1,-2.929096520E-1,7.345648855E-2
5.294221889E0,-3.643044829E-1,-3.051269650E-1,7.651081681E-2
5.298977253E0,-3.606393039E-1,-3.228420317E-1,7.712167501E-2
5.303732618E0,-3.533089161E-1,-3.417788446E-1,7.773254067E-2
5.308488034E0,-3.484219909E-1,-3.613265157E-1,7.712167501E-2
5.313243399E0,-3.465894163E-1,-3.772090077E-1,7.284562290E-2
5.317998764E0,-3.478111327E-1,-3.875937164E-1,6.979130208E-2
5.322754180E0,-3.533089161E-1,-3.937023580E-1,6.551524997E-2
5.327509545E0,-3.636936247E-1,-3.967566788E-1,6.246092543E-2
5.332264909E0,-3.771326542E-1,-3.949240744E-1,5.757400393E-2
5.337020274E0,-3.911825418E-1,-3.888154328E-1,5.635227636E-2
5.341775691E0,-4.052324295E-1,-3.808741868E-1,5.329795182E-2
5.346531055E0,-4.198931754E-1,-3.765981495E-1,5.207622424E-2
5.351286420E0,-4.284452796E-1,-3.765981495E-1,5.207622424E-2
5.356041836E0,-4.333322048E-1,-3.814850450E-1,5.207622424E-2
5.360797201E0,-4.333322048E-1,-3.906480372E-1,5.207622424E-2
5.365552566E0,-4.272235632E-1,-3.992001414E-1,5.207622424E-2
5.370307930E0,-4.162279963E-1,-4.046979249E-1,5.024362728E-2
5.375063347E0,-4.009563625E-1,-4.065304995E-1,4.718930274E-2
5.379818711E0,-3.862956166E-1,-4.034761786E-1,4.230238497E-2
5.384574076E0,-3.728565872E-1,-3.918697536E-1,3.619373962E-2
5.389329493E0,-3.636936247E-1,-3.765981495E-1,3.252854943E-2
5.394084857E0,-3.575849831E-1,-3.588830531E-1,2.825249545E-2
5.398840222E0,-3.539197743E-1,-3.430005610E-1,2.458730713E-2
5.403595586E0,-3.514763117E-1,-3.289506733E-1,2.153298259E-2
5.408351003E0,-3.490328491E-1,-3.222311735E-1,1.725693047E-2
5.413106368E0,-3.472002745E-1,-3.203985691E-1,1.481347065E-2
5.417861732E0,-3.410916328E-1,-3.222311735E-1,1.053741761E-2
5.422617149E0,-3.325395286E-1,-3.258963525E-1,5.650499370E-3
5.427372514E0,-3.233765364E-1,-3.313941360E-1,3.207040019E-3
5.432127878E0,-3.148244321E-1,-3.344484568E-1,7.635809598E-4
5.436883243E0,-3.050506115E-1,-3.362810612E-1,-1.679878100E-3
5.441638659E0,-2.946659029E-1,-3.332267404E-1,-2.290742937E-3
5.446394024E0,-2.836703360E-1,-3.289506733E-1,-5.955931731E-3
5.451149389E0,-2.732856274E-1,-3.246746361E-1,-9.010255337E-3
5.455904753E0,-2.629009187E-1,-3.167333901E-1,-1.023198478E-2
5.460660170E0,-2.525162399E-1,-3.069595397E-1,-1.145371422E-2
5.465415534E0,-2.433532625E-1,-2.971857190E-1,-1.328630932E-2
5.470170899E0,-2.360228747E-1,-2.898553312E-1,-1.572976820E-2
5.474926316E0,-2.311359644E-1,-2.819140851E-1,-1.939495653E-2
5.479681680E0,-2.268599123E-1,-2.751945853E-1,-2.061668597E-2
5.484437045E0,-2.268599123E-1,-2.672533393E-1,-2.061668597E-2
5.489192461E0,-2.268599123E-1,-2.580903769E-1,-2.061668597E-2
5.493947826E0,-2.280816436E-1,-2.495382577E-1,-2.183841541E-2
5.498703191E0,-2.274707705E-1,-2.446513474E-1,-2.489273995E-2
5.503458555E0,-2.274707705E-1,-2.446513474E-1,-2.916879393E-2
5.508213972E0,-2.244164497E-1,-2.464839369E-1,-3.222311661E-2
5.512969336E0,-2.183077931E-1,-2.489273995E-1,-3.527744114E-2
5.517724701E0,-2.091448307E-1,-2.525925934E-1,-3.711003438E-2
5.522480118E0,-1.975383908E-1,-2.544251680E-1,-3.833176568E-2
5.527235482E0,-1.847102344E-1,-2.525925934E-1,-3.894263133E-2
5.531990847E0,-1.718820781E-1,-2.495382577E-1,-4.016435891E-2
5.536746211E0,-1.572213173E-1,-2.385426909E-1,-4.138609022E-2
5.541501628E0,-1.456148922E-1,-2.312123179E-1,-4.505127668E-2
5.546256993E0,-1.401171088E-1,-2.299905866E-1,-4.627300799E-2
5.551012357E0,-1.388953775E-1,-2.306014597E-1,-4.932733253E-2
5.555767774E0,-1.407279670E-1,-2.342666388E-1,-4.993819445E-2
5.560523139E0,-1.450040340E-1,-2.409861535E-1,-5.054906011E-2
5.565278503E0,-1.492800862E-1,-2.495382577E-1,-5.054906011E-2
5.570033868E0,-1.559995860E-1,-2.599229515E-1,-5.054906011E-2
5.574789284E0,-1.627191007E-1,-2.733619809E-1,-5.177079141E-2
5.579544649E0,-1.718820781E-1,-2.874118686E-1,-5.177079141E-2
5.584300014E0,-1.822667718E-1,-2.959639728E-1,-5.177079141E-2
5.589055430E0,-1.902080178E-1,-3.020726442E-1,-5.177079141E-2
5.593810795E0,-1.975383908E-1,-3.075704277E-1,-5.299251899E-2
5.598566159E0,-2.018144578E-1,-3.094030023E-1,-5.543597788E-2
5.603321576E0,-2.042579055E-1,-3.081812859E-1,-5.726857483E-2
5.608076941E0,-2.048687786E-1,-3.045161068E-1,-6.032289565E-2
5.612832305E0,-2.005927265E-1,-2.990183234E-1,-6.337722391E-2
5.617587670E0,-1.957058012E-1,-2.929096520E-1,-6.582067907E-2
5.622343086E0,-1.902080178E-1,-2.861901522E-1,-6.765327603E-2
5.627098451E0,-1.853211075E-1,-2.806923687E-1,-7.009673119E-2
5.631853816E0,-1.828776449E-1,-2.727511227E-1,-7.009673119E-2
5.636609232E0,-1.822667718E-1,-2.623664141E-1,-7.009673119E-2
5.641364597E0,-1.834885031E-1,-2.501491308E-1,-7.070759684E-2
5.646119961E0,-1.877645552E-1,-2.385426909E-1,-7.131846249E-2
5.650875326E0,-1.902080178E-1,-2.287688553E-1,-7.192932814E-2
5.655630743E0,-1.889862865E-1,-2.238819450E-1,-7.315105945E-2
5.660386107E0,-1.865428388E-1,-2.244928032E-1,-7.498364896E-2
5.665141472E0,-1.816559136E-1,-2.275471240E-1,-7.742711157E-2
5.669896889E0,-1.743255407E-1,-2.318231910E-1,-7.925970852E-2
5.674652253E0,-1.657734364E-1,-2.360992432E-1,-8.109229803E-2
5.679407618E0,-1.584430486E-1,-2.391535640E-1,-8.353576064E-2
5.684162982E0,-1.529452652E-1,-2.409861535E-1,-8.475748450E-2
5.688918399E0,-1.517235339E-1,-2.415970266E-1,-8.414662629E-2
5.693673764E0,-1.523344070E-1,-2.434296161E-1,-8.292489499E-2
5.698429128E0,-1.572213173E-1,-2.415970266E-1,-7.925970852E-2
5.703184545E0,-1.663842946E-1,-2.403752953E-1,-7.498364896E-2
5.707939909E0,-1.773798615E-1,-2.403752953E-1,-7.070759684E-2
5.712695274E0,-1.932623386E-1,-2.409861535E-1,-6.398808211E-2
5.717450691E0,-2.085339576E-1,-2.422078848E-1,-5.726857483E-2
5.722206055E0,-2.231947184E-1,-2.440404743E-1,-5.177079141E-2
5.726961420E0,-2.366337478E-1,-2.458730787E-1,-4.444041103E-2
5.731716836E0,-2.470184416E-1,-2.501491308E-1,-4.016435891E-2
5.736472201E0,-2.543488145E-1,-2.556469142E-1,-3.649916872E-2
5.741227566E0,-2.567922771E-1,-2.623664141E-1,-3.222311661E-2
5.745982930E0,-2.543488145E-1,-2.715294063E-1,-2.916879393E-2
5.750738347E0,-2.470184416E-1,-2.813032269E-1,-2.794706449E-2
5.755493711E0,-2.372446060E-1,-2.898553312E-1,-2.611446939E-2
5.760249076E0,-2.274707705E-1,-2.947422564E-1,-2.489273995E-2
5.765004493E0,-2.176969349E-1,-2.935205400E-1,-2.428187430E-2
5.769759857E0,-2.103665620E-1,-2.861901522E-1,-2.550360374E-2
5.774515222E0,-2.054796368E-1,-2.696968019E-1,-2.550360374E-2
5.779270586E0,-2.024253160E-1,-2.428187430E-1,-2.855792828E-2
5.784026003E0,-2.005927265E-1,-2.141081095E-1,-3.100138716E-2
5.788781368E0,-2.060905099E-1,-1.976147592E-1,-3.649916872E-2
5.793536732E0,-2.176969349E-1,-1.945604384E-1,-3.833176568E-2
5.798292149E0,-2.280816436E-1,-2.012799382E-1,-3.894263133E-2
5.803047514E0,-2.384663373E-1,-2.153298408E-1,-3.955349326E-2
5.807802878E0,-2.470184416E-1,-2.373209596E-1,-3.894263133E-2
5.812558295E0,-2.494619042E-1,-2.629773021E-1,-3.894263133E-2
5.817313659E0,-2.464075834E-1,-2.886336148E-1,-3.833176568E-2
5.822069024E0,-2.366337478E-1,-3.051269650E-1,-3.955349326E-2
5.826824441E0,-2.225838602E-1,-3.100138903E-1,-4.321868345E-2
5.831579805E0,-2.079230994E-1,-3.014617562E-1,-4.749473557E-2
5.836335170E0,-1.950949430E-1,-2.825249732E-1,-5.177079141E-2
5.841090534E0,-1.847102344E-1,-2.605338395E-1,-5.482511222E-2
5.845845951E0,-1.767689884E-1,-2.342666388E-1,-5.604684353E-2
5.850601316E0,-1.737146676E-1,-2.092211843E-1,-5.787943676E-2
5.855356680E0,-1.718820781E-1,-1.896735132E-1,-5.726857483E-2
5.860112097E0,-1.706603467E-1,-1.744018942E-1,-5.787943676E-2
5.864867461E0,-1.676060259E-1,-1.682932526E-1,-5.787943676E-2
5.869622826E0,-1.639408320E-1,-1.676823795E-1,-5.849030241E-2
5.874378191E0,-1.584430486E-1,-1.725693047E-1,-5.604684353E-2
5.879133607E0,-1.505018175E-1,-1.768453568E-1,-5.299251899E-2
5.883888972E0,-1.450040340E-1,-1.823431402E-1,-4.932733253E-2
5.888644336E0,-1.401171088E-1,-1.829539984E-1,-4.260781780E-2
5.893399753E0,-1.370627880E-1,-1.829539984E-1,-3.588830680E-2
5.898155118E0,-1.388953775E-1,-1.798996776E-1,-2.672533318E-2
5.902910482E0,-1.413388401E-1,-1.762344837E-1,-1.756236330E-2
5.907665899E0,-1.468366235E-1,-1.701258421E-1,-8.399390616E-3
5.912421264E0,-1.535561383E-1,-1.640172005E-1,1.527161949E-4
5.917176628E0,-1.608865112E-1,-1.560759544E-1,9.315688163E-3
5.921932045E0,-1.657734364E-1,-1.517999023E-1,1.786779426E-2
5.926687409E0,-1.700494885E-1,-1.511890292E-1,2.703076601E-2
5.931442774E0,-1.718820781E-1,-1.554650813E-1,3.558287397E-2
5.936198139E0,-1.718820781E-1,-1.640172005E-1,4.108065739E-2
5.940953555E0,-1.688277572E-1,-1.707367003E-1,4.780016840E-2
5.945708920E0,-1.676060259E-1,-1.725693047E-1,5.329795182E-2
5.950464284E0,-1.663842946E-1,-1.682932526E-1,5.635227636E-2
5.955219701E0,-1.688277572E-1,-1.615737379E-1,5.879573524E-2
5.959975066E0,-1.724929363E-1,-1.505781710E-1,6.001746282E-2
5.964730430E0,-1.761581302E-1,-1.383608729E-1,5.879573524E-2
5.969485847E0,-1.822667718E-1,-1.261435747E-1,5.757400393E-2
5.974241211E0,-1.883754283E-1,-1.133154184E-1,5.390881747E-2
5.978996576E0,-1.950949430E-1,-1.029307172E-1,5.024362728E-2
5.983751993E0,-2.012035847E-1,-9.682206810E-2,4.596757516E-2
5.988507357E0,-2.042579055E-1,-9.315688163E-2,4.046979174E-2
5.993262722E0,-2.048687786E-1,-9.254601598E-2,3.558287397E-2
5.998018086E0,-2.030361742E-1,-9.498947114E-2,3.008509055E-2
6.002773503E0,-2.012035847E-1,-9.926552325E-2,2.397644334E-2
6.007528868E0,-1.963166744E-1,-1.017089859E-1,1.847865991E-2
6.012284232E0,-1.895971596E-1,-9.987638891E-2,1.237001177E-2
6.017039649E0,-1.822667718E-1,-9.376774728E-2,8.093958721E-3
6.021795014E0,-1.737146676E-1,-8.460476995E-2,2.596175298E-3
6.026550378E0,-1.639408320E-1,-7.788526267E-2,-1.679878100E-3
6.031305743E0,-1.547778696E-1,-7.238747925E-2,-7.177661173E-3
6.036061159E0,-1.462257504E-1,-6.872228533E-2,-1.267544460E-2
6.040816524E0,-1.388953775E-1,-6.750056148E-2,-1.634063199E-2
6.045571889E0,-1.333975941E-1,-6.872228533E-2,-2.000582218E-2
6.050327305E0,-1.315650046E-1,-7.116574794E-2,-2.306014486E-2
6.055082670E0,-1.333975941E-1,-7.788526267E-2,-2.550360374E-2
6.059838034E0,-1.364519149E-1,-8.338304609E-2,-2.550360374E-2
6.064593451E0,-1.401171088E-1,-8.949168772E-2,-2.428187430E-2
6.069348816E0,-1.456148922E-1,-9.682206810E-2,-2.306014486E-2
6.074104180E0,-1.492800862E-1,-1.035415828E-1,-2.000582218E-2
6.078859545E0,-1.505018175E-1,-1.102610901E-1,-1.511890348E-2
6.083614961E0,-1.505018175E-1,-1.151480079E-1,-1.145371422E-2
6.088370326E0,-1.468366235E-1,-1.188132018E-1,-5.955931731E-3
6.093125691E0,-1.419496983E-1,-1.194240674E-1,-1.679878100E-3
6.097881107E0,-1.352301836E-1,-1.157588735E-1,1.985310577E-3
6.102636472E0,-1.266780794E-1,-1.114828214E-1,3.817904973E-3
6.107391836E0,-1.175151095E-1,-1.065959036E-1,5.650499370E-3
6.112147253E0,-1.077412739E-1,-1.023198515E-1,4.428769462E-3
6.116902618E0,-9.735657275E-2,-9.865466505E-2,3.207040019E-3
6.121657982E0,-8.941533417E-2,-9.132428467E-2,1.374445739E-3
6.126413347E0,-8.391755074E-2,-8.460476995E-2,-1.069013379E-3
6.131168764E0,-8.025235683E-2,-8.216131479E-2,-3.512472380E-3
6.135924128E0,-7.841976732E-2,-8.338304609E-2,-5.955931731E-3
6.140679493E0,-7.903063297E-2,-8.949168772E-2,-7.788525894E-3
6.145434909E0,-8.025235683E-2,-9.987638891E-2,-7.788525894E-3
6.150190274E0,-8.147408813E-2,-1.114828214E-1,-5.955931731E-3
6.154945639E0,-8.330668509E-2,-1.194240674E-1,-6.566796452E-3
6.159701055E0,-8.575014025E-2,-1.237001196E-1,-5.345067009E-3
6.164456420E0,-8.697187155E-2,-1.218675226E-1,-4.123337101E-3
6.169211784E0,-8.819360286E-2,-1.169806048E-1,-4.123337101E-3
6.173967149E0,-8.880446851E-2,-1.096502244E-1,-5.955931731E-3
6.178722566E0,-8.880446851E-2,-1.004872546E-1,-6.566796452E-3
6.183477930E0,-8.941533417E-2,-9.010255337E-2,-8.399390616E-3
6.188233295E0,-9.002619982E-2,-8.155044913E-2,-1.206457894E-2
6.192988711E0,-9.063705802E-2,-7.544180006E-2,-1.389717404E-2
6.197744076E0,-9.246965498E-2,-7.116574794E-2,-1.695149764E-2
6.202499441E0,-9.613484144E-2,-6.994401664E-2,-1.878409274E-2
6.207254857E0,-9.796743840E-2,-7.116574794E-2,-2.061668597E-2
6.212010222E0,-9.918916970E-2,-7.483093441E-2,-2.306014486E-2
6.216765586E0,-1.010217592E-1,-7.910698652E-2,-2.489273995E-2
6.221520951E0,-1.040760875E-1,-8.399390429E-2,-2.550360374E-2
6.226276368E0,-1.059086844E-1,-8.765909821E-2,-2.855792828E-2
6.231031732E0,-1.077412739E-1,-8.826996386E-2,-3.100138716E-2
6.235787097E0,-1.089630052E-1,-8.765909821E-2,-3.100138716E-2
6.240542514E0,-1.101847365E-1,-8.765909821E-2,-2.855792828E-2
6.245297878E0,-1.101847365E-1,-8.643736690E-2,-2.550360374E-2
6.250053243E0,-1.107956022E-1,-8.643736690E-2,-2.244928107E-2
6.254808659E0,-1.114064679E-1,-8.826996386E-2,-1.878409274E-2
6.259564024E0,-1.107956022E-1,-8.765909821E-2,-1.389717404E-2
6.264319389E0,-1.114064679E-1,-8.643736690E-2,-9.010255337E-3
6.269074753E0,-1.138499230E-1,-8.643736690E-2,-5.345067009E-3
6.273830170E0,-1.156825200E-1,-8.399390429E-2,-3.512472380E-3
6.278585534E0,-1.175151095E-1,-8.216131479E-2,-4.581485991E-4
6.283340899E0,-1.187368408E-1,-7.910698652E-2,7.635809598E-4
6.288096316E0,-1.187368408E-1,-7.910698652E-2,1.374445739E-3
6.292851680E0,-1.187368408E-1,-8.338304609E-2,1.527161949E-4
6.297607045E0,-1.175151095E-1,-9.315688163E-2,-1.069013379E-3
6.302362409E0,-1.175151095E-1,-1.035415828E-1,-2.290742937E-3
6.307117826E0,-1.138499230E-1,-1.127045527E-1,-2.901607659E-3
6.311873191E0,-1.126281917E-1,-1.182023361E-1,-2.901607659E-3
6.316628555E0,-1.114064679E-1,-1.200349256E-1,-4.734201822E-3
6.321383972E0,-1.101847365E-1,-1.169806048E-1,-6.566796452E-3
6.326139336E0,-1.065195426E-1,-1.078176349E-1,-9.010255337E-3
6.330894701E0,-1.022434905E-1,-9.560033679E-2,-1.084284950E-2
6.335650118E0,-9.613484144E-2,-7.971785218E-2,-1.450803876E-2
6.340405482E0,-8.697187155E-2,-6.444623321E-2,-1.878409274E-2
6.345160847E0,-7.719803602E-2,-4.978547990E-2,-2.367101051E-2
6.349916211E0,-6.864593178E-2,-3.817904741E-2,-2.977965772E-2
6.354671628E0,-6.070468575E-2,-3.084867075E-2,-3.405570984E-2
6.359426993E0,-5.337430909E-2,-2.596175298E-2,-3.894263133E-2
6.364182357E0,-4.848739132E-2,-2.351829410E-2,-4.321868345E-2
6.368937774E0,-4.421133921E-2,-2.290742844E-2,-4.627300799E-2
6.373693139E0,-4.360047355E-2,-2.474002354E-2,-4.871646687E-2
6.378448503E0,-4.360047355E-2,-2.840521187E-2,-4.993819445E-2
6.383203920E0,-4.543306679E-2,-3.451386094E-2,-4.810560122E-2
6.387959284E0,-4.848739132E-2,-3.756818548E-2,-4.749473557E-2
6.392714649E0,-5.337430909E-2,-3.878991306E-2,-4.321868345E-2
6.397470014E0,-5.765036494E-2,-3.695731983E-2,-3.833176568E-2
6.402225430E0,-6.070468575E-2,-3.451386094E-2,-3.222311661E-2
6.406980795E0,-6.375901401E-2,-3.390299529E-2,-2.489273995E-2
6.411736159E0,-6.253728271E-2,-3.695731983E-2,-1.756236330E-2
6.416491524E0,-5.948295817E-2,-4.123337194E-2,-1.023198478E-2
6.421246941E0,-5.520690605E-2,-4.612028971E-2,-4.734201822E-3
6.426002305E0,-5.154171586E-2,-5.100720748E-2,1.527161949E-4
6.430757670E0,-4.970912263E-2,-5.345066637E-2,3.207040019E-3
6.435513086E0,-4.848739132E-2,-5.406153202E-2,5.039634649E-3
6.440268451E0,-4.848739132E-2,-5.772672221E-2,8.093958721E-3
6.445023816E0,-4.726566374E-2,-6.200277433E-2,7.483093534E-3
6.449779232E0,-4.665479809E-2,-6.627883017E-2,6.261364091E-3
6.454534597E0,-4.726566374E-2,-6.933315098E-2,4.428769462E-3
6.459289961E0,-4.909825698E-2,-6.811141968E-2,2.596175298E-3
6.464045326E0,-5.031998456E-2,-6.505709887E-2,1.527161949E-4
6.468800743E0,-5.215258151E-2,-6.139190868E-2,-2.290742937E-3
6.473556107E0,-5.459604040E-2,-5.711585656E-2,-3.512472380E-3
6.478311472E0,-5.642863363E-2,-5.406153202E-2,-6.566796452E-3
6.483066836E0,-5.459604040E-2,-5.100720748E-2,-9.010255337E-3
6.487822253E0,-5.398517475E-2,-4.734202102E-2,-1.145371422E-2
6.492577618E0,-5.337430909E-2,-4.673115537E-2,-1.267544460E-2
6.497332982E0,-5.337430909E-2,-4.612028971E-2,-1.389717404E-2
6.502088399E0,-5.459604040E-2,-4.795288667E-2,-1.389717404E-2
6.506843764E0,-5.520690605E-2,-5.039634556E-2,-1.389717404E-2
6.511599128E0,-5.581776798E-2,-5.467239767E-2,-1.511890348E-2
6.516354545E0,-5.520690605E-2,-5.833758786E-2,-1.450803876E-2
6.521109909E0,-5.459604040E-2,-6.200277433E-2,-1.389717404E-2
6.525865274E0,-5.398517475E-2,-6.322450191E-2,-1.511890348E-2
6.530620639E0,-5.459604040E-2,-6.078104675E-2,-1.511890348E-2
6.535376055E0,-5.520690605E-2,-5.406153202E-2,-1.695149764E-2
6.540131420E0,-5.520690605E-2,-4.550942779E-2,-1.817322709E-2
6.544886784E0,-5.520690605E-2,-3.695731983E-2,-1.878409274E-2
6.549642201E0,-5.459604040E-2,-3.207040206E-2,-1.939495653E-2
6.554397566E0,-5.337430909E-2,-3.145953640E-2,-1.878409274E-2
6.559152930E0,-5.093085021E-2,-3.390299529E-2,-1.695149764E-2
6.563908295E0,-4.787652567E-2,-3.817904741E-2,-1.511890348E-2
6.568663711E0,-4.298960790E-2,-4.428769648E-2,-1.328630932E-2
6.573419076E0,-3.810269013E-2,-4.917461425E-2,-9.621120058E-3
6.578174441E0,-3.321577236E-2,-4.978547990E-2,-8.399390616E-3
6.582929805E0,-3.016144782E-2,-4.673115537E-2,-5.955931731E-3
6.587685222E0,-2.893971838E-2,-4.245510325E-2,-5.955931731E-3
6.592440586E0,-2.771798894E-2,-3.817904741E-2,-5.345067009E-3
6.597195951E0,-2.832885459E-2,-3.512472659E-2,-4.734201822E-3
6.601951368E0,-2.832885459E-2,-3.268126398E-2,-5.345067009E-3
6.606706732E0,-2.832885459E-2,-3.084867075E-2,-5.955931731E-3
6.611462097E0,-2.771798894E-2,-2.962694131E-2,-5.955931731E-3
6.616217461E0,-2.832885459E-2,-2.718348242E-2,-5.955931731E-3
6.620972878E0,-2.893971838E-2,-2.412915789E-2,-6.566796452E-3
6.625728243E0,-3.016144782E-2,-2.107483521E-2,-5.955931731E-3
6.630483607E0,-3.016144782E-2,-1.802051067E-2,-7.177661173E-3
6.635239024E0,-2.955058403E-2,-1.802051067E-2,-7.788525894E-3
6.639994389E0,-2.771798894E-2,-1.618791744E-2,-9.010255337E-3
6.644749753E0,-2.588539571E-2,-1.435532235E-2,-9.010255337E-3
6.649505118E0,-2.344193682E-2,-1.130099874E-2,-1.145371422E-2
6.654260534E0,-1.977674663E-2,-8.246674202E-3,-1.328630932E-2
6.659015899E0,-1.794415340E-2,-5.803215317E-3,-1.511890348E-2
6.663771264E0,-1.366809942E-2,-3.970621154E-3,-1.511890348E-2
6.668526628E0,-1.000291109E-2,-3.970621154E-3,-1.634063199E-2
6.673282045E0,-4.505127668E-3,-8.246674202E-3,-1.695149764E-2
6.678037409E0,2.825249685E-3,-1.130099874E-2,-1.817322709E-2
6.682792774E0,9.544761851E-3,-1.374445762E-2,-1.817322709E-2
6.687548191E0,1.565340906E-2,-1.252272818E-2,-1.756236330E-2
6.692303555E0,2.359465137E-2,-8.857538924E-3,-1.695149764E-2
6.697058920E0,2.848157100E-2,-1.527161920E-3,-1.634063199E-2
6.701814284E0,3.153589368E-2,9.468403645E-3,-1.634063199E-2
6.706569701E0,3.336848691E-2,1.863137633E-2,-1.511890348E-2
6.711325066E0,3.397935256E-2,2.351829410E-2,-1.572976820E-2
6.716080430E0,3.336848691E-2,2.596175298E-2,-1.695149764E-2
6.720835795E0,3.520108387E-2,2.474002354E-2,-1.817322709E-2
6.725591211E0,3.947713599E-2,2.290742844E-2,-1.817322709E-2
6.730346576E0,4.558578506E-2,2.351829410E-2,-2.000582218E-2
6.735101941E0,4.802924395E-2,2.107483521E-2,-2.061668597E-2
6.739857305E0,4.986183718E-2,1.496618707E-2,-2.306014486E-2
6.744612722E0,4.864010960E-2,1.007926930E-2,-2.489273995E-2
6.749368086E0,4.619665071E-2,6.414080039E-3,-2.550360374E-2
6.754123451E0,4.497491941E-2,3.970621154E-3,-2.611446939E-2
6.758878816E0,4.436405376E-2,2.138026757E-3,-2.733619884E-2
6.763634232E0,4.253146052E-2,-3.054323897E-4,-2.794706449E-2
6.768389597E0,4.314232618E-2,-2.138026757E-3,-2.916879393E-2
6.773144961E0,4.558578506E-2,-3.970621154E-3,-2.916879393E-2
6.777900378E0,4.741837829E-2,-5.192350596E-3,-3.039052337E-2
6.782655743E0,4.986183718E-2,-6.414080039E-3,-3.161225095E-2
6.787411107E0,5.169443041E-2,-7.024944760E-3,-3.039052337E-2
6.792166472E0,5.352702737E-2,-5.803215317E-3,-2.977965772E-2
6.796921889E0,5.291616172E-2,-2.138026757E-3,-2.977965772E-2
6.801677253E0,5.230529606E-2,3.359756200E-3,-2.916879393E-2
6.806432618E0,4.864010960E-2,9.468403645E-3,-2.855792828E-2
6.811187982E0,4.558578506E-2,1.618791744E-2,-2.672533318E-2
6.815943399E0,4.314232618E-2,1.924224012E-2,-2.367101051E-2
6.820698764E0,4.253146052E-2,1.985310577E-2,-2.061668597E-2
6.825454128E0,4.558578506E-2,1.740964688E-2,-1.878409274E-2
6.830209493E0,5.047270283E-2,1.374445762E-2,-1.634063199E-2
6.834964909E0,5.658135191E-2,9.468403645E-3,-1.328630932E-2
6.839720274E0,6.330086291E-2,5.192350596E-3,-9.621120058E-3
6.844475639E0,7.002037764E-2,3.970621154E-3,-9.010255337E-3
6.849231003E0,7.735075057E-2,5.192350596E-3,-8.399390616E-3
6.853986420E0,8.468113095E-2,8.857538924E-3,-8.399390616E-3
6.858741784E0,9.140064567E-2,1.130099874E-2,-9.621120058E-3
6.863497149E0,1.011744812E-1,1.252272818E-2,-1.206457894E-2
6.868252514E0,1.097265854E-1,1.496618707E-2,-1.634063199E-2
6.873007930E0,1.195004210E-1,1.863137633E-2,-1.939495653E-2
6.877763295E0,1.268308014E-1,2.412915789E-2,-2.367101051E-2
6.882518659E0,1.323285848E-1,3.268126398E-2,-2.855792828E-2
6.887274024E0,1.366046369E-1,4.489856213E-2,-3.344484791E-2
6.892029441E0,1.359937787E-1,5.833758786E-2,-3.711003438E-2
6.896784805E0,1.341611743E-1,7.238747925E-2,-3.772090003E-2
6.901540170E0,1.311068535E-1,8.277218044E-2,-3.894263133E-2
6.906295534E0,1.280525327E-1,8.765909821E-2,-3.955349326E-2
6.911050951E0,1.243873388E-1,8.765909821E-2,-3.833176568E-2
6.915806316E0,1.213330179E-1,8.338304609E-2,-3.649916872E-2
6.920561680E0,1.201112866E-1,7.666353136E-2,-3.466657549E-2
6.925317045E0,1.176678315E-1,6.933315098E-2,-3.161225095E-2
6.930072461E0,1.182786897E-1,6.139190868E-2,-2.916879393E-2
6.934827826E0,1.176678315E-1,5.528326333E-2,-2.733619884E-2
6.939583191E0,1.176678315E-1,5.039634556E-2,-2.550360374E-2
6.944338555E0,1.170569658E-1,4.673115537E-2,-2.367101051E-2
6.949093972E0,1.164461002E-1,4.673115537E-2,-2.183841541E-2
6.953849336E0,1.146135032E-1,4.734202102E-2,-2.000582218E-2
6.958604701E0,1.115591824E-1,4.795288667E-2,-1.939495653E-2
6.963360066E0,1.072831303E-1,4.734202102E-2,-1.756236330E-2
6.968115482E0,1.036179364E-1,4.428769648E-2,-1.511890348E-2
6.972870847E0,9.750928730E-2,4.001164436E-2,-1.328630932E-2
6.977626211E0,9.262236953E-2,3.268126398E-2,-9.621120058E-3
6.982381576E0,8.834631741E-2,2.657261863E-2,-7.788525894E-3
6.987136993E0,8.529199660E-2,2.168569900E-2,-4.734201822E-3
6.991892357E0,8.345939964E-2,1.985310577E-2,-2.901607659E-3
6.996647722E0,8.345939964E-2,2.168569900E-2,-1.069013379E-3
7.001403086E0,8.101594448E-2,2.718348242E-2,1.374445739E-3
7.006158503E0,7.857248187E-2,3.268126398E-2,2.596175298E-3
7.010913868E0,7.735075057E-2,3.940077871E-2,1.985310577E-3
7.015669232E0,7.368556410E-2,4.550942779E-2,3.207040019E-3
7.020424597E0,6.879864633E-2,5.100720748E-2,5.039634649E-3
7.025179961E0,6.330086291E-2,5.833758786E-2,5.650499370E-3
7.029935378E0,5.719221383E-2,6.566796452E-2,5.650499370E-3
7.034690743E0,5.535962060E-2,6.994401664E-2,6.261364091E-3
7.039446107E0,5.352702737E-2,7.238747925E-2,5.650499370E-3
7.044201472E0,5.230529606E-2,7.055488229E-2,5.039634649E-3
7.048956889E0,5.230529606E-2,6.566796452E-2,5.039634649E-3
7.053712253E0,5.047270283E-2,5.894844979E-2,3.817904973E-3
7.058467618E0,4.558578506E-2,5.345066637E-2,4.428769462E-3
7.063222982E0,4.253146052E-2,5.161807314E-2,4.428769462E-3
7.067978399E0,3.947713599E-2,5.528326333E-2,3.817904973E-3
7.072733764E0,3.642281145E-2,6.078104675E-2,3.207040019E-3
7.077489128E0,3.459021822E-2,6.994401664E-2,4.428769462E-3
7.082244493E0,3.397935256E-2,7.605266571E-2,4.428769462E-3
7.086999857E0,3.397935256E-2,7.727439702E-2,3.817904973E-3
7.091755274E0,3.520108387E-2,7.299833745E-2,3.207040019E-3
7.096510639E0,3.886627033E-2,6.505709887E-2,1.985310577E-3
7.101266003E0,4.375318810E-2,5.467239767E-2,7.635809598E-4
7.106021368E0,4.925097153E-2,4.367683083E-2,-1.679878100E-3
7.110776784E0,5.535962060E-2,3.512472659E-2,-2.901607659E-3
7.115532149E0,5.963567272E-2,2.779434808E-2,-4.734201822E-3
7.120287514E0,6.330086291E-2,2.351829410E-2,-5.955931731E-3
7.125042878E0,6.635518372E-2,2.107483521E-2,-6.566796452E-3
7.129798243E0,6.635518372E-2,2.107483521E-2,-6.566796452E-3
7.134553659E0,6.635518372E-2,2.229656465E-2,-7.177661173E-3
7.139309024E0,6.391172856E-2,2.535088919E-2,-6.566796452E-3
7.144064389E0,6.330086291E-2,2.779434808E-2,-6.566796452E-3
7.148819753E0,6.330086291E-2,3.145953640E-2,-5.345067009E-3
7.153575170E0,6.330086291E-2,3.451386094E-2,-6.566796452E-3
7.158330534E0,6.391172856E-2,3.695731983E-2,-7.177661173E-3
7.163085899E0,6.391172856E-2,3.878991306E-2,-7.788525894E-3
7.167841264E0,6.513345987E-2,3.878991306E-2,-9.010255337E-3
7.172596628E0,6.574432552E-2,3.756818548E-2,-9.621120058E-3
7.177352045E0,6.452259421E-2,3.512472659E-2,-8.399390616E-3
7.182107409E0,6.207913160E-2,3.329212964E-2,-8.399390616E-3
7.186862774E0,6.024653837E-2,3.207040206E-2,-6.566796452E-3
7.191618139E0,5.780307949E-2,2.962694131E-2,-4.734201822E-3
7.196373503E0,5.413788930E-2,2.840521187E-2,-2.901607659E-3
7.201128920E0,5.230529606E-2,2.535088919E-2,7.635809598E-4
7.205884284E0,5.047270283E-2,2.412915789E-2,3.207040019E-3
7.210639649E0,5.047270283E-2,2.046396956E-2,6.872228812E-3
7.215395014E0,5.169443041E-2,1.618791744E-2,8.704823442E-3
7.220150378E0,5.291616172E-2,1.374445762E-2,1.053741761E-2
7.224905795E0,5.597048625E-2,1.191186346E-2,1.237001177E-2
7.229661159E0,5.841394514E-2,1.435532235E-2,1.114828233E-2
7.234416524E0,5.963567272E-2,1.802051067E-2,9.926552884E-3
7.239171889E0,6.146826968E-2,2.474002354E-2,6.872228812E-3
7.243927253E0,6.024653837E-2,3.268126398E-2,3.207040019E-3
7.248682670E0,5.719221383E-2,4.184423760E-2,-4.581485991E-4
7.253438034E0,5.291616172E-2,4.795288667E-2,-4.123337101E-3
7.258193399E0,4.680751264E-2,4.978547990E-2,-5.955931731E-3
7.262948764E0,3.947713599E-2,4.673115537E-2,-7.788525894E-3
7.267704128E0,3.092502989E-2,4.001164436E-2,-9.010255337E-3
7.272459545E0,2.237292193E-2,3.084867075E-2,-7.177661173E-3
7.277214909E0,1.504254527E-2,2.168569900E-2,-5.345067009E-3
7.281970274E0,1.137735695E-2,1.130099874E-2,-2.901607659E-3
7.286725639E0,1.015562657E-2,2.138026757E-3,-1.679878100E-3
7.291481055E0,1.076649129E-2,-4.581485875E-3,7.635809598E-4
7.296236420E0,1.626427472E-2,-1.069013402E-2,-4.581485991E-4
7.300991784E0,2.176205814E-2,-1.374445762E-2,-1.679878100E-3
7.305747149E0,2.970330045E-2,-1.252272818E-2,-3.512472380E-3
7.310502514E0,3.703367710E-2,-1.007926930E-2,-5.955931731E-3
7.315257878E0,4.497491941E-2,-7.024944760E-3,-8.399390616E-3
7.320013295E0,5.047270283E-2,-3.359756200E-3,-1.145371422E-2
7.324768659E0,5.169443041E-2,3.054323897E-4,-1.511890348E-2
7.329524024E0,4.986183718E-2,3.359756200E-3,-1.756236330E-2
7.334279389E0,4.558578506E-2,6.414080039E-3,-1.817322709E-2
7.339034753E0,3.764454275E-2,1.007926930E-2,-1.939495653E-2
7.343790118E0,2.970330045E-2,1.130099874E-2,-1.756236330E-2
7.348545534E0,2.115119249E-2,1.130099874E-2,-1.634063199E-2
7.353300899E0,1.565340906E-2,1.007926930E-2,-1.328630932E-2
7.358056264E0,1.137735695E-2,5.803215317E-3,-1.023198478E-2
7.362811628E0,9.544761851E-3,1.527161920E-3,-7.177661173E-3
7.367566993E0,1.076649129E-2,-3.970621154E-3,-5.345067009E-3
7.372322409E0,1.504254527E-2,-1.007926930E-2,-4.734201822E-3
7.377077774E0,1.931859925E-2,-1.496618707E-2,-4.734201822E-3
7.381833139E0,2.542724647E-2,-1.618791744E-2,-4.734201822E-3
7.386588503E0,3.092502989E-2,-1.557705179E-2,-4.734201822E-3
7.391343868E0,3.703367710E-2,-1.252272818E-2,-2.901607659E-3
7.396099284E0,4.253146052E-2,-9.468403645E-3,-2.901607659E-3
7.400854649E0,4.680751264E-2,-6.414080039E-3,-2.290742937E-3
7.405610014E0,4.864010960E-2,-7.024944760E-3,-2.290742937E-3
7.410365378E0,4.741837829E-2,-8.857538924E-3,-2.290742937E-3
7.415120743E0,4.436405376E-2,-1.130099874E-2,-1.679878100E-3
7.419876107E0,4.008800164E-2,-1.130099874E-2,-4.581485991E-4
7.424631472E0,3.336848691E-2,-8.246674202E-3,-4.581485991E-4
7.429386889E0,2.481638081E-2,-2.138026757E-3,7.635809598E-4
7.434142253E0,1.687514037E-2,5.192350596E-3,1.985310577E-3
7.438897618E0,1.137735695E-2,1.252272818E-2,1.985310577E-3
7.443652982E0,6.490438245E-3,1.863137633E-2,3.207040019E-3
7.448408347E0,6.490438245E-3,2.229656465E-2,3.207040019E-3
7.453163764E0,9.544761851E-3,2.168569900E-2,2.596175298E-3
7.457919128E0,1.382081583E-2,1.924224012E-2,1.527161949E-4
7.462674493E0,2.298378758E-2,1.618791744E-2,-2.290742937E-3
7.467429857E0,3.336848691E-2,1.252272818E-2,-4.123337101E-3
7.472185222E0,4.192059487E-2,1.069013402E-2,-4.734201822E-3
7.476940586E0,4.864010960E-2,1.252272818E-2,-6.566796452E-3
7.481695951E0,5.291616172E-2,1.496618707E-2,-7.788525894E-3
7.486451368E0,5.413788930E-2,1.985310577E-2,-7.177661173E-3
7.491206732E0,5.230529606E-2,2.412915789E-2,-8.399390616E-3
7.495962097E0,4.741837829E-2,3.023780696E-2,-6.566796452E-3
7.500717461E0,4.253146052E-2,3.390299529E-2,-5.955931731E-3
7.505472826E0,3.642281145E-2,3.512472659E-2,-2.901607659E-3
7.510228191E0,3.092502989E-2,3.573558852E-2,-1.679878100E-3
7.514983607E0,2.725984156E-2,3.390299529E-2,1.527161949E-4
7.519738972E0,2.603811212E-2,3.023780696E-2,1.985310577E-3
7.524494336E0,2.481638081E-2,2.779434808E-2,2.596175298E-3
7.529249701E0,2.542724647E-2,2.412915789E-2,3.207040019E-3
7.534005066E0,2.787070535E-2,2.229656465E-2,2.596175298E-3
7.538760430E0,2.848157100E-2,2.290742844E-2,2.596175298E-3
7.543515795E0,3.031416424E-2,2.412915789E-2,1.374445739E-3
7.548271211E0,3.031416424E-2,2.412915789E-2,-4.581485991E-4
7.553026576E0,3.031416424E-2,2.412915789E-2,-2.901607659E-3
7.557781941E0,3.214675933E-2,2.229656465E-2,-4.734201822E-3
7.562537305E0,3.214675933E-2,2.107483521E-2,-7.177661173E-3
7.567292670E0,3.275762498E-2,2.168569900E-2,-1.023198478E-2
7.572048086E0,3.275762498E-2,2.351829410E-2,-1.450803876E-2
7.576803451E0,3.336848691E-2,2.535088919E-2,-1.817322709E-2
7.581558816E0,3.336848691E-2,2.962694131E-2,-2.183841541E-2
7.586314180E0,3.459021822E-2,3.268126398E-2,-2.428187430E-2
7.591069545E0,3.581194952E-2,3.573558852E-2,-2.733619884E-2
7.595824909E0,3.825540841E-2,3.817904741E-2,-2.977965772E-2
7.600580274E0,3.886627033E-2,4.062250629E-2,-3.039052337E-2
7.605335639E0,4.069886729E-2,4.062250629E-2,-3.222311661E-2
7.610091055E0,4.314232618E-2,3.756818548E-2,-2.977965772E-2
7.614846420E0,4.497491941E-2,3.145953640E-2,-2.977965772E-2
7.619601784E0,4.802924395E-2,2.168569900E-2,-2.672533318E-2
7.624357149E0,5.169443041E-2,1.130099874E-2,-2.428187430E-2
7.629112514E0,5.474875495E-2,3.054323897E-4,-2.122755162E-2
7.633867878E0,5.658135191E-2,-7.024944760E-3,-1.695149764E-2
7.638623295E0,5.963567272E-2,-1.130099874E-2,-1.389717404E-2
7.643378659E0,6.024653837E-2,-1.313359290E-2,-1.206457894E-2
7.648134024E0,5.963567272E-2,-1.007926930E-2,-9.010255337E-3
7.652889389E0,5.719221383E-2,-7.024944760E-3,-5.955931731E-3
7.657644753E0,5.535962060E-2,-2.748891478E-3,-5.345067009E-3
7.662400118E0,5.291616172E-2,1.527161920E-3,-4.123337101E-3
7.667155482E0,5.169443041E-2,3.359756200E-3,-3.512472380E-3
7.671910847E0,4.864010960E-2,3.970621154E-3,-4.123337101E-3
7.676666211E0,4.802924395E-2,4.581485875E-3,-4.734201822E-3
7.681421628E0,4.741837829E-2,3.970621154E-3,-6.566796452E-3
7.686176993E0,4.741837829E-2,3.970621154E-3,-6.566796452E-3
7.690932357E0,4.680751264E-2,5.803215317E-3,-9.010255337E-3
7.695687722E0,4.680751264E-2,8.246674202E-3,-9.010255337E-3
7.700443086E0,4.558578506E-2,1.069013402E-2,-9.621120058E-3
7.705198451E0,4.558578506E-2,1.007926930E-2,-9.621120058E-3
7.709953816E0,4.619665071E-2,9.468403645E-3,-9.010255337E-3
7.714709180E0,4.619665071E-2,1.007926930E-2,-8.399390616E-3
7.719464597E0,4.619665071E-2,1.252272818E-2,-7.177661173E-3
7.724219961E0,4.619665071E-2,1.802051067E-2,-7.177661173E-3
7.728975326E0,4.558578506E-2,2.412915789E-2,-6.566796452E-3
7.733730691E0,4.558578506E-2,3.023780696E-2,-7.788525894E-3
7.738486055E0,4.436405376E-2,3.390299529E-2,-8.399390616E-3
7.743241420E0,4.497491941E-2,3.573558852E-2,-7.788525894E-3
7.747996784E0,4.436405376E-2,3.390299529E-2,-7.177661173E-3
7.752752149E0,4.497491941E-2,3.207040206E-2,-7.177661173E-3
7.757507566E0,4.436405376E-2,2.962694131E-2,-5.955931731E-3
7.762262930E0,4.375318810E-2,2.596175298E-2,-5.345067009E-3
7.767018295E0,4.314232618E-2,2.290742844E-2,-4.123337101E-3
7.771773659E0,4.253146052E-2,1.924224012E-2,-2.290742937E-3
7.776529024E0,4.130972922E-2,1.496618707E-2,-4.581485991E-4
7.781284389E0,4.069886729E-2,1.069013402E-2,2.596175298E-3
7.786039753E0,4.069886729E-2,5.803215317E-3,5.039634649E-3
7.790795118E0,4.130972922E-2,9.162971983E-4,8.093958721E-3
7.795550482E0,4.253146052E-2,-2.748891478E-3,9.926552884E-3
7.800305847E0,4.375318810E-2,-5.192350596E-3,1.175914705E-2
7.805061211E0,4.558578506E-2,-5.803215317E-3,1.237001177E-2
7.809816628E0,4.558578506E-2,-6.414080039E-3,1.053741761E-2
7.814571993E0,4.802924395E-2,-5.803215317E-3,1.053741761E-2
7.819327357E0,4.864010960E-2,-3.970621154E-3,8.093958721E-3
7.824082722E0,4.925097153E-2,-9.162971983E-4,6.872228812E-3
7.828838086E0,4.925097153E-2,2.748891478E-3,4.428769462E-3
7.833593451E0,4.986183718E-2,7.024944760E-3,2.596175298E-3
7.838348816E0,4.741837829E-2,1.374445762E-2,1.527161949E-4
7.843104180E0,4.558578506E-2,2.107483521E-2,-2.901607659E-3
7.847859545E0,4.130972922E-2,2.657261863E-2,-5.345067009E-3
7.852614961E0,3.825540841E-2,2.840521187E-2,-4.123337101E-3
7.857370326E0,3.520108387E-2,3.023780696E-2,-4.734201822E-3
7.862125691E0,3.092502989E-2,2.840521187E-2,-4.123337101E-3
7.866881055E0,2.848157100E-2,2.657261863E-2,-2.290742937E-3
7.871636420E0,2.664897591E-2,2.474002354E-2,-4.581485991E-4
7.876391784E0,2.542724647E-2,2.168569900E-2,7.635809598E-4
7.881147149E0,2.664897591E-2,2.107483521E-2,3.207040019E-3
7.885902514E0,2.725984156E-2,1.924224012E-2,5.039634649E-3
7.890657878E0,2.848157100E-2,1.740964688E-2,5.039634649E-3
7.895413243E0,3.031416424E-2,1.618791744E-2,5.650499370E-3
7.900168659E0,3.153589368E-2,1.679878123E-2,5.650499370E-3
7.904924024E0,3.336848691E-2,1.802051067E-2,5.039634649E-3
7.909679389E0,3.520108387E-2,1.863137633E-2,4.428769462E-3
7.914434753E0,3.581194952E-2,1.557705179E-2,4.428769462E-3
7.919190118E0,3.886627033E-2,1.130099874E-2,3.207040019E-3
7.923945482E0,3.886627033E-2,6.414080039E-3,3.207040019E-3
7.928700847E0,3.764454275E-2,3.359756200E-3,5.039634649E-3
7.933456211E0,3.520108387E-2,2.748891478E-3,6.261364091E-3
7.938211576E0,3.275762498E-2,4.581485875E-3,6.872228812E-3
7.942966941E0,2.970330045E-2,8.857538924E-3,7.483093534E-3
7.947722305E0,2.664897591E-2,1.435532235E-2,7.483093534E-3
7.952477670E0,2.542724647E-2,1.802051067E-2,6.261364091E-3
7.957233086E0,2.481638081E-2,2.229656465E-2,8.093958721E-3
7.961988399E0,2.542724647E-2,2.351829410E-2,8.704823442E-3
7.966743816E0,2.848157100E-2,2.351829410E-2,6.872228812E-3
7.971499180E0,3.459021822E-2,2.474002354E-2,5.650499370E-3
7.976254545E0,3.886627033E-2,2.657261863E-2,4.428769462E-3
7.981009909E0,4.436405376E-2,2.901607752E-2,4.428769462E-3
7.985765274E0,5.169443041E-2,3.268126398E-2,5.650499370E-3
7.990520639E0,5.841394514E-2,3.634645417E-2,5.650499370E-3
7.995276003E0,6.513345987E-2,4.001164436E-2,8.093958721E-3
8.000031368E0,7.307469845E-2,4.367683083E-2,1.114828233E-2
8.004786732E0,8.040507883E-2,4.550942779E-2,1.420260593E-2
8.009542097E0,8.651372790E-2,4.673115537E-2,1.664606482E-2
8.014297461E0,9.140064567E-2,4.612028971E-2,1.970038936E-2
8.019052826E0,9.506583214E-2,4.673115537E-2,2.336557768E-2
8.023808191E0,9.567669779E-2,4.978547990E-2,2.641990222E-2
8.028563607E0,9.201150388E-2,5.589412898E-2,3.008509055E-2
8.033318972E0,8.162680268E-2,6.505709887E-2,3.436114267E-2
8.038074336E0,6.940951198E-2,7.422006875E-2,3.924806044E-2
8.042829701E0,5.291616172E-2,8.155044913E-2,4.413498193E-2
8.047585066E0,3.275762498E-2,8.460476995E-2,5.024362728E-2
8.052340430E0,1.076649129E-2,8.338304609E-2,5.390881747E-2
8.057095795E0,-1.000291109E-2,7.666353136E-2,6.001746282E-2
8.061851159E0,-2.955058403E-2,6.750056148E-2,6.490438432E-2
8.066606524E0,-4.298960790E-2,5.833758786E-2,6.856957078E-2
8.071361889E0,-5.337430909E-2,4.917461425E-2,7.223475724E-2
8.076117253E0,-5.948295817E-2,4.001164436E-2,7.528908551E-2
8.080872618E0,-6.009382382E-2,3.207040206E-2,7.467821985E-2
8.085627982E0,-5.642863363E-2,2.657261863E-2,7.162389904E-2
8.090383347E0,-4.909825698E-2,2.412915789E-2,6.795870513E-2
8.095138711E0,-3.932442144E-2,2.168569900E-2,6.185005978E-2
8.099894128E0,-2.710712515E-2,1.618791744E-2,5.390881747E-2
8.104649493E0,-1.366809942E-2,8.857538924E-3,4.596757516E-2
8.109404857E0,-8.399390499E-4,3.359756200E-3,3.558287397E-2
8.114160222E0,8.933897130E-3,-3.054323897E-4,2.397644334E-2
8.118915586E0,1.565340906E-2,1.527161920E-3,1.114828233E-2
8.123670951E0,1.748600416E-2,8.246674202E-3,-4.581485991E-4
8.128426316E0,1.443168055E-2,2.046396956E-2,-1.145371422E-2
8.133181680E0,7.712167688E-3,3.451386094E-2,-2.122755162E-2
8.137937045E0,-8.399390499E-4,4.428769648E-2,-2.977965772E-2
8.142692409E0,-8.170315996E-3,4.489856213E-2,-3.772090003E-2
8.147447774E0,-1.305723470E-2,3.878991306E-2,-4.444041103E-2
8.152203139E0,-1.488982886E-2,2.962694131E-2,-4.993819445E-2
8.156958503E0,-1.427896414E-2,1.740964688E-2,-5.543597788E-2
8.161713868E0,-1.061377581E-2,7.635809947E-3,-5.787943676E-2
8.166469232E0,-3.283398226E-3,1.527161920E-3,-5.971203372E-2
8.171224597E0,3.436114406E-3,1.527161920E-3,-6.032289565E-2
8.175979961E0,1.137735695E-2,7.635809947E-3,-6.032289565E-2
8.180735326E0,1.809686981E-2,1.679878123E-2,-5.910116807E-2
8.185490691E0,2.420551702E-2,2.718348242E-2,-5.665770918E-2
8.190246055E0,2.970330045E-2,3.940077871E-2,-5.238165334E-2
8.195001472E0,3.459021822E-2,4.795288667E-2,-4.688387364E-2
8.199756836E0,3.703367710E-2,5.222893879E-2,-4.199695215E-2
8.204512201E0,4.253146052E-2,5.100720748E-2,-3.588830680E-2
8.209267566E0,4.802924395E-2,4.673115537E-2,-2.733619884E-2
8.214022930E0,5.047270283E-2,3.940077871E-2,-2.000582218E-2
8.218778295E0,5.474875495E-2,3.268126398E-2,-1.145371422E-2
8.223533659E0,5.597048625E-2,2.474002354E-2,-2.901607659E-3
8.228289024E0,5.535962060E-2,1.985310577E-2,6.872228812E-3
8.233044389E0,5.474875495E-2,1.496618707E-2,1.603520103E-2
8.237799753E0,5.291616172E-2,1.191186346E-2,2.336557768E-2
8.242555118E0,5.108356848E-2,1.007926930E-2,2.825249545E-2
8.247310482E0,4.925097153E-2,9.468403645E-3,3.191768378E-2
8.252065847E0,4.741837829E-2,1.191186346E-2,3.497200832E-2
8.256821211E0,4.375318810E-2,1.496618707E-2,3.741546720E-2
8.261576576E0,3.947713599E-2,1.557705179E-2,3.558287397E-2
8.266331941E0,3.581194952E-2,1.496618707E-2,3.313941509E-2
8.271087305E0,3.092502989E-2,1.130099874E-2,3.008509055E-2
8.275842670E0,2.481638081E-2,7.024944760E-3,2.764163166E-2
8.280598034E0,1.870773360E-2,2.748891478E-3,2.275471389E-2
8.285353399E0,1.259908639E-2,-2.748891478E-3,1.970038936E-2
8.290108764E0,7.101302966E-3,-5.192350596E-3,1.542433538E-2
8.294864128E0,4.046979360E-3,-7.635809947E-3,1.175914705E-2
8.299619493E0,2.825249685E-3,-6.414080039E-3,9.315688163E-3
8.304374857E0,2.825249685E-3,-2.748891478E-3,5.650499370E-3
8.309130222E0,3.436114406E-3,3.054323897E-4,1.374445739E-3
8.313885586E0,4.046979360E-3,5.803215317E-3,-4.123337101E-3
8.318640951E0,5.268708803E-3,1.130099874E-2,-8.399390616E-3
8.323396316E0,4.046979360E-3,1.618791744E-2,-1.145371422E-2
8.328151732E0,2.825249685E-3,2.107483521E-2,-1.450803876E-2
8.332907097E0,9.926552884E-4,2.535088919E-2,-1.634063199E-2
8.337662409E0,-2.290742996E-4,2.779434808E-2,-1.572976820E-2
8.342417826E0,-3.283398226E-3,2.840521187E-2,-1.572976820E-2
8.347173191E0,-5.726857111E-3,2.412915789E-2,-1.267544460E-2
8.351928555E0,-7.559451740E-3,1.679878123E-2,-9.621120058E-3
8.356683920E0,-9.392046370E-3,8.246674202E-3,-4.123337101E-3
8.361439284E0,-8.170315996E-3,3.054323897E-4,1.527161949E-4
8.366194649E0,-6.948587019E-3,-5.803215317E-3,5.650499370E-3
8.370950014E0,-5.726857111E-3,-8.246674202E-3,1.053741761E-2
8.375705378E0,-2.672533505E-3,-9.468403645E-3,1.603520103E-2
8.380460743E0,-8.399390499E-4,-8.857538924E-3,2.031125315E-2
8.385216107E0,2.214384731E-3,-7.024944760E-3,2.397644334E-2
8.389971472E0,6.490438245E-3,-2.748891478E-3,2.580903657E-2
8.394726836E0,1.137735695E-2,4.581485875E-3,2.703076601E-2
8.399482201E0,1.687514037E-2,1.313359290E-2,2.641990222E-2
8.404237566E0,2.054032870E-2,2.412915789E-2,2.580903657E-2
8.408992930E0,2.420551702E-2,3.390299529E-2,2.458730713E-2
8.413748295E0,2.542724647E-2,4.367683083E-2,2.580903657E-2
8.418503659E0,2.542724647E-2,4.856374860E-2,2.580903657E-2
8.423259024E0,2.542724647E-2,5.100720748E-2,2.580903657E-2
8.428014389E0,2.420551702E-2,5.039634556E-2,2.886336111E-2
8.432769753E0,2.359465137E-2,4.795288667E-2,3.130681813E-2
8.437525118E0,2.481638081E-2,4.489856213E-2,3.252854943E-2
8.442280482E0,2.725984156E-2,4.123337194E-2,3.619373962E-2
8.447035847E0,2.970330045E-2,3.756818548E-2,3.985892609E-2
8.451791211E0,3.214675933E-2,3.390299529E-2,4.169152305E-2
8.456546576E0,3.092502989E-2,3.084867075E-2,4.352411628E-2
8.461301941E0,3.214675933E-2,2.779434808E-2,4.657844082E-2
8.466057305E0,2.909243479E-2,2.535088919E-2,4.902189970E-2
8.470812670E0,2.359465137E-2,2.290742844E-2,5.268708616E-2
8.475568034E0,1.565340906E-2,2.535088919E-2,5.696314201E-2
8.480323399E0,6.490438245E-3,2.901607752E-2,5.879573524E-2
8.485078764E0,-6.948587019E-3,3.512472659E-2,6.185005978E-2
8.489834128E0,-2.160934173E-2,4.245510325E-2,6.368265301E-2
8.494589493E0,-3.504836559E-2,4.550942779E-2,6.185005978E-2
8.499344857E0,-4.665479809E-2,4.550942779E-2,5.940660089E-2
8.504100222E0,-5.581776798E-2,4.245510325E-2,5.574141070E-2
8.508855586E0,-6.070468575E-2,3.634645417E-2,4.963276163E-2
8.513610951E0,-6.436987966E-2,2.901607752E-2,4.474584386E-2
8.518366316E0,-6.375901401E-2,2.351829410E-2,3.802633286E-2
8.523121680E0,-6.070468575E-2,1.679878123E-2,3.130681813E-2
8.527877045E0,-5.459604040E-2,1.252272818E-2,2.458730713E-2
8.532632409E0,-4.787652567E-2,6.414080039E-3,1.908952370E-2
8.537387774E0,-4.115701467E-2,4.581485875E-3,1.359174121E-2
8.542143139E0,-3.260490671E-2,4.581485875E-3,8.093958721E-3
8.546898503E0,-2.710712515E-2,6.414080039E-3,1.374445739E-3
8.551653868E0,-2.283107117E-2,1.069013402E-2,-5.345067009E-3
8.556409232E0,-2.099847607E-2,1.557705179E-2,-1.023198478E-2
8.561164597E0,-1.977674663E-2,2.107483521E-2,-1.572976820E-2
8.565919961E0,-2.099847607E-2,2.596175298E-2,-2.183841541E-2
8.570675326E0,-2.099847607E-2,3.023780696E-2,-2.916879393E-2
8.575430691E0,-2.160934173E-2,3.329212964E-2,-3.405570984E-2
8.580186055E0,-2.038761228E-2,3.451386094E-2,-3.833176568E-2
8.584941420E0,-1.855501719E-2,3.329212964E-2,-4.077522457E-2
8.589696784E0,-1.488982886E-2,2.962694131E-2,-4.199695215E-2
8.594452149E0,-1.000291109E-2,2.535088919E-2,-4.077522457E-2
8.599207514E0,-3.894262947E-3,1.985310577E-2,-3.772090003E-2
8.603962878E0,2.214384731E-3,1.313359290E-2,-3.344484791E-2
8.608718243E0,1.198822167E-2,6.414080039E-3,-2.916879393E-2
8.613473607E0,2.054032870E-2,9.162971983E-4,-2.733619884E-2
8.618228972E0,3.092502989E-2,-5.192350596E-3,-2.428187430E-2
8.622984336E0,4.069886729E-2,-9.468403645E-3,-2.244928107E-2
8.627739701E0,4.925097153E-2,-1.069013402E-2,-1.939495653E-2
8.632495066E0,5.719221383E-2,-7.024944760E-3,-1.939495653E-2
8.637250378E0,6.207913160E-2,-3.054323897E-4,-1.939495653E-2
8.642005743E0,6.513345987E-2,8.246674202E-3,-1.817322709E-2
8.646761107E0,6.330086291E-2,1.557705179E-2,-1.634063199E-2
8.651516472E0,5.658135191E-2,2.107483521E-2,-1.450803876E-2
8.656271836E0,4.741837829E-2,2.351829410E-2,-1.145371422E-2
8.661027201E0,3.520108387E-2,2.229656465E-2,-8.399390616E-3
8.665782566E0,2.115119249E-2,1.740964688E-2,-3.512472380E-3
8.670537930E0,7.101302966E-3,1.191186346E-2,1.374445739E-3
8.675293295E0,-4.505127668E-3,5.803215317E-3,6.261364091E-3
8.680048659E0,-1.244636998E-2,-2.138026757E-3,1.053741761E-2
8.684804024E0,-1.855501719E-2,-8.246674202E-3,1.481347065E-2
8.689559389E0,-2.038761228E-2,-1.252272818E-2,1.786779426E-2
8.694314753E0,-2.099847607E-2,-1.557705179E-2,1.970038936E-2
8.699070118E0,-2.099847607E-2,-1.679878123E-2,2.031125315E-2
8.703825482E0,-1.855501719E-2,-1.802051067E-2,2.153298259E-2
8.708580847E0,-1.611155830E-2,-1.802051067E-2,2.153298259E-2
8.713336211E0,-1.366809942E-2,-1.557705179E-2,2.214384824E-2
8.718091576E0,-1.122464053E-2,-1.252272818E-2,2.031125315E-2
8.722846941E0,-1.000291109E-2,-1.007926930E-2,1.725693047E-2
8.727602305E0,-1.061377581E-2,-8.857538924E-3,1.359174121E-2
8.732357670E0,-1.427896414E-2,-7.635809947E-3,1.053741761E-2
8.737113034E0,-1.916588284E-2,-7.635809947E-3,5.650499370E-3
8.741868399E0,-2.527453005E-2,-4.581485875E-3,1.985310577E-3
8.746623764E0,-3.260490671E-2,-1.527161920E-3,-4.734201822E-3
8.751379128E0,-3.932442144E-2,2.748891478E-3,-9.010255337E-3
8.756134493E0,-4.360047355E-2,5.192350596E-3,-1.145371422E-2
8.760889857E0,-4.726566374E-2,5.192350596E-3,-1.206457894E-2
8.765645170E0,-4.787652567E-2,3.970621154E-3,-1.267544460E-2
8.770400534E0,-4.665479809E-2,2.138026757E-3,-1.206457894E-2
8.775155899E0,-4.237874225E-2,-3.054323897E-4,-1.145371422E-2
8.779911264E0,-3.565923125E-2,-2.138026757E-3,-9.010255337E-3
8.784666628E0,-2.955058403E-2,-3.970621154E-3,-7.177661173E-3
8.789421993E0,-2.038761228E-2,-5.192350596E-3,-5.345067009E-3
8.794177357E0,-1.244636998E-2,-7.024944760E-3,-4.734201822E-3
8.798932722E0,-5.726857111E-3,-8.857538924E-3,-2.290742937E-3
8.803688086E0,-2.672533505E-3,-9.468403645E-3,-4.581485991E-4
8.808443451E0,-2.290742996E-4,-1.007926930E-2,7.635809598E-4
8.813198816E0,-2.290742996E-4,-1.007926930E-2,1.985310577E-3
8.817954180E0,-2.061668551E-3,-1.007926930E-2,3.817904973E-3
8.822709545E0,-4.505127668E-3,-1.069013402E-2,7.483093534E-3
8.827464909E0,-8.170315996E-3,-1.069013402E-2,1.053741761E-2
8.832220274E0,-1.244636998E-2,-8.857538924E-3,1.298087649E-2
8.836975639E0,-1.672242396E-2,-7.024944760E-3,1.725693047E-2
8.841731003E0,-1.916588284E-2,-4.581485875E-3,2.031125315E-2
8.846486316E0,-1.916588284E-2,-3.359756200E-3,2.336557768E-2
8.851241680E0,-1.733328775E-2,-9.162971983E-4,2.397644334E-2
8.855997045E0,-1.427896414E-2,-1.527161920E-3,2.397644334E-2
8.860752409E0,-9.392046370E-3,-2.748891478E-3,2.153298259E-2
8.865507774E0,-4.505127668E-3,-3.970621154E-3,1.908952370E-2
8.870263139E0,1.603520010E-3,-3.970621154E-3,1.481347065E-2
8.875018503E0,8.323032409E-3,-1.527161920E-3,1.053741761E-2
8.879773868E0,1.259908639E-2,2.138026757E-3,6.872228812E-3
8.884529232E0,1.504254527E-2,5.803215317E-3,3.817904973E-3
8.889284597E0,1.626427472E-2,7.635809947E-3,7.635809598E-4
8.894039961E0,1.382081583E-2,6.414080039E-3,-4.581485991E-4
8.898795326E0,1.015562657E-2,2.138026757E-3,-1.679878100E-3
8.903550691E0,5.268708803E-3,-3.359756200E-3,-1.679878100E-3
8.908306003E0,-8.399390499E-4,-8.857538924E-3,-1.069013379E-3
8.913061420E0,-5.115992390E-3,-1.252272818E-2,-4.581485991E-4
8.917816732E0,-7.559451740E-3,-1.313359290E-2,1.374445739E-3
8.922572097E0,-9.392046370E-3,-1.313359290E-2,3.207040019E-3
8.927327461E0,-8.781181648E-3,-1.191186346E-2,3.817904973E-3
8.932082826E0,-8.781181648E-3,-1.252272818E-2,4.428769462E-3
8.936838191E0,-6.337722298E-3,-1.313359290E-2,5.650499370E-3
8.941593555E0,-5.726857111E-3,-1.557705179E-2,5.650499370E-3
8.946348920E0,-3.894262947E-3,-1.863137633E-2,5.650499370E-3
8.951104284E0,-2.672533505E-3,-2.229656465E-2,4.428769462E-3
8.955859649E0,-2.061668551E-3,-2.535088919E-2,3.817904973E-3
8.960615014E0,-2.061668551E-3,-2.657261863E-2,3.207040019E-3
8.965370378E0,-2.290742996E-4,-2.596175298E-2,3.207040019E-3
8.970125743E0,9.926552884E-4,-2.168569900E-2,2.596175298E-3
8.974881055E0,1.603520010E-3,-1.557705179E-2,7.635809598E-4
8.979636420E0,-1.450803829E-3,-8.857538924E-3,-4.581485991E-4
8.984391784E0,-4.505127668E-3,-3.970621154E-3,-4.581485991E-4
8.989147149E0,-6.337722298E-3,-3.054323897E-4,1.527161949E-4
8.993902514E0,-1.061377581E-2,2.138026757E-3,1.374445739E-3
8.998657878E0,-1.244636998E-2,3.970621154E-3,3.207040019E-3
9.003413243E0,-1.366809942E-2,5.803215317E-3,3.817904973E-3
9.008168607E0,-1.244636998E-2,7.024944760E-3,6.261364091E-3
9.012923972E0,-1.122464053E-2,6.414080039E-3,8.093958721E-3
9.017679284E0,-8.170315996E-3,4.581485875E-3,1.053741761E-2
9.022434649E0,-6.337722298E-3,2.748891478E-3,1.298087649E-2
9.027190014E0,-3.894262947E-3,1.527161920E-3,1.420260593E-2
9.031945378E0,-1.450803829E-3,2.138026757E-3,1.725693047E-2
9.036700743E0,1.603520010E-3,4.581485875E-3,1.847865991E-2
9.041456107E0,3.436114406E-3,8.246674202E-3,1.970038936E-2
9.046211472E0,4.046979360E-3,1.496618707E-2,1.847865991E-2
9.050966836E0,7.712167688E-3,2.229656465E-2,1.664606482E-2
9.055722201E0,1.015562657E-2,2.840521187E-2,1.298087649E-2
9.060477514E0,1.320995111E-2,3.268126398E-2,8.704823442E-3
9.065232878E0,1.687514037E-2,3.573558852E-2,5.039634649E-3
9.069988243E0,1.931859925E-2,3.756818548E-2,1.527161949E-4
9.074743607E0,2.237292193E-2,3.878991306E-2,-3.512472380E-3
9.079498972E0,2.054032870E-2,3.817904741E-2,-7.177661173E-3
9.084254336E0,1.748600416E-2,3.695731983E-2,-9.621120058E-3
9.089009701E0,1.198822167E-2,3.512472659E-2,-9.621120058E-3
9.093765066E0,4.657844082E-3,3.268126398E-2,-9.010255337E-3
9.098520430E0,-3.894262947E-3,3.023780696E-2,-6.566796452E-3
9.103275795E0,-1.122464053E-2,2.657261863E-2,-4.123337101E-3
9.108031107E0,-1.672242396E-2,2.290742844E-2,7.635809598E-4
9.112786472E0,-2.222020552E-2,1.802051067E-2,4.428769462E-3
9.117541836E0,-2.527453005E-2,1.374445762E-2,9.315688163E-3
9.122297201E0,-2.466366626E-2,8.857538924E-3,1.237001177E-2
9.127052566E0,-2.222020552E-2,2.748891478E-3,1.481347065E-2
9.131807930E0,-1.733328775E-2,-9.162971983E-4,1.786779426E-2
9.136563295E0,-1.183550525E-2,-2.138026757E-3,1.847865991E-2
9.141318607E0,-5.726857111E-3,-2.138026757E-3,1.847865991E-2
9.146073972E0,2.825249685E-3,3.054323897E-4,1.725693047E-2
9.150829336E0,1.076649129E-2,2.748891478E-3,1.603520103E-2
9.155584701E0,1.931859925E-2,4.581485875E-3,1.359174121E-2
9.160340066E0,2.909243479E-2,7.635809947E-3,1.114828233E-2
9.165095430E0,3.581194952E-2,8.857538924E-3,7.483093534E-3
9.169850795E0,3.886627033E-2,1.130099874E-2,3.817904973E-3
9.174606107E0,3.947713599E-2,1.313359290E-2,-4.581485991E-4
9.179361472E0,3.642281145E-2,1.252272818E-2,-4.123337101E-3
9.184116836E0,3.153589368E-2,1.191186346E-2,-5.955931731E-3
9.188872201E0,2.664897591E-2,1.007926930E-2,-7.788525894E-3
9.193627566E0,2.054032870E-2,6.414080039E-3,-7.177661173E-3
9.198382930E0,1.382081583E-2,2.138026757E-3,-5.345067009E-3
9.203138295E0,9.544761851E-3,-3.970621154E-3,-2.901607659E-3
9.207893607E0,4.046979360E-3,-8.857538924E-3,-1.069013379E-3
9.212648972E0,-1.450803829E-3,-1.313359290E-2,1.985310577E-3
9.217404336E0,-5.115992390E-3,-1.557705179E-2,4.428769462E-3
9.222159701E0,-8.781181648E-3,-1.679878123E-2,6.872228812E-3
9.226915066E0,-1.183550525E-2,-1.557705179E-2,6.261364091E-3
9.231670430E0,-1.305723470E-2,-1.496618707E-2,5.650499370E-3
9.236425795E0,-1.427896414E-2,-1.435532235E-2,3.817904973E-3
9.241181107E0,-1.611155830E-2,-1.313359290E-2,1.374445739E-3
9.245936472E0,-1.611155830E-2,-1.130099874E-2,-1.069013379E-3
9.250691836E0,-1.733328775E-2,-8.246674202E-3,-4.734201822E-3
9.255447201E0,-1.794415340E-2,-6.414080039E-3,-8.399390616E-3
9.260202566E0,-1.733328775E-2,-6.414080039E-3,-1.206457894E-2
9.264957930E0,-1.733328775E-2,-7.635809947E-3,-1.572976820E-2
9.269713243E0,-1.672242396E-2,-1.069013402E-2,-1.878409274E-2
9.274468607E0,-1.855501719E-2,-1.557705179E-2,-2.061668597E-2
9.279223972E0,-2.160934173E-2,-1.863137633E-2,-2.244928107E-2
9.283979336E0,-2.649625950E-2,-1.985310577E-2,-2.306014486E-2
9.288734701E0,-3.382663801E-2,-1.740964688E-2,-2.306014486E-2
9.293490066E0,-4.054614902E-2,-1.435532235E-2,-2.000582218E-2
9.298245430E0,-4.482220486E-2,-1.007926930E-2,-1.634063199E-2
9.303000743E0,-4.848739132E-2,-7.024944760E-3,-1.267544460E-2
9.307756107E0,-4.848739132E-2,-5.192350596E-3,-8.399390616E-3
9.312511472E0,-4.543306679E-2,-3.359756200E-3,-4.734201822E-3
9.317266836E0,-4.115701467E-2,-2.138026757E-3,-2.290742937E-3
9.322022201E0,-3.504836559E-2,-1.527161920E-3,-4.581485991E-4
9.326777566E0,-2.588539571E-2,3.054323897E-4,2.596175298E-3
9.331532878E0,-1.672242396E-2,-3.054323897E-4,7.635809598E-4
9.336288243E0,-7.559451740E-3,9.162971983E-4,1.374445739E-3
9.341043607E0,2.214384731E-3,3.359756200E-3,7.635809598E-4
9.345798972E0,9.544761851E-3,3.970621154E-3,7.635809598E-4
9.350554336E0,1.504254527E-2,2.138026757E-3,1.985310577E-3
9.355309649E0,1.870773360E-2,-2.138026757E-3,2.596175298E-3
9.360065014E0,1.870773360E-2,-4.581485875E-3,5.650499370E-3
9.364820378E0,1.748600416E-2,-8.246674202E-3,8.093958721E-3
9.369575743E0,1.382081583E-2,-1.130099874E-2,9.315688163E-3
9.374331107E0,8.323032409E-3,-1.435532235E-2,1.175914705E-2
9.379086472E0,3.436114406E-3,-1.557705179E-2,1.359174121E-2
9.383841784E0,-2.672533505E-3,-1.740964688E-2,1.359174121E-2
9.388597149E0,-7.559451740E-3,-1.802051067E-2,1.420260593E-2
9.393352514E0,-1.122464053E-2,-1.802051067E-2,1.237001177E-2
9.398107878E0,-1.488982886E-2,-1.618791744E-2,9.926552884E-3
9.402863243E0,-1.611155830E-2,-1.435532235E-2,6.261364091E-3
9.407618555E0,-1.488982886E-2,-1.435532235E-2,2.596175298E-3
9.412373920E0,-1.244636998E-2,-1.313359290E-2,-2.290742937E-3
9.417129284E0,-8.781181648E-3,-1.557705179E-2,-6.566796452E-3
9.421884649E0,-5.115992390E-3,-1.863137633E-2,-1.145371422E-2
9.426640014E0,-1.450803829E-3,-1.679878123E-2,-1.695149764E-2
9.431395326E0,9.926552884E-4,-1.435532235E-2,-2.122755162E-2
9.436150691E0,2.825249685E-3,-1.069013402E-2,-2.367101051E-2
9.440906055E0,4.046979360E-3,-7.024944760E-3,-2.611446939E-2
9.445661420E0,4.046979360E-3,-5.803215317E-3,-2.611446939E-2
9.450416784E0,2.825249685E-3,-8.246674202E-3,-2.672533318E-2
9.455172097E0,2.825249685E-3,-1.191186346E-2,-2.550360374E-2
9.459927461E0,2.214384731E-3,-1.679878123E-2,-2.367101051E-2
9.464682826E0,3.817904799E-4,-2.290742844E-2,-2.122755162E-2
9.469438191E0,-1.450803829E-3,-2.596175298E-2,-1.756236330E-2
9.474193503E0,-6.337722298E-3,-2.718348242E-2,-1.450803876E-2
