Time (s),Acceleration x (m/s^2),Acceleration y (m/s^2),Acceleration z (m/s^2)
9.000411511,-1.844722675634752,0.6038281348484243,-4.580941243955492
9.005166355,-2.0115534603759286,0.42716567907898545,-4.720554280531107
9.009921199,-2.1584407728168644,0.2479660309342708,-4.843670739080425
9.014676042,-2.2834193529567464,0.06633125593508303,-4.949894867698606
9.019430938,-2.3846757642032967,-0.11762545198184296,-5.038926970367823
9.024185782,-2.460568962905725,-0.30377817018304853,-5.110566460068503
9.028940626,-2.5096495616242414,-0.4919866909145353,-5.164714318457588
9.03369547,-2.5306775528694825,-0.6820950302699644,-5.2013749283650315
9.038450365,-2.522638273929683,-0.8739300249562675,-5.220657247005111
9.043205209,-2.484756409917028,-1.0673000401180535,-5.222775289697637
9.047960053,-2.4165078510600284,-1.2619938121655656,-5.208047896141784
9.052714949,-2.3176292413836865,-1.457779450861761,-5.1768977539934244
9.057469792,-2.1881250791344864,-1.6544036246655889,-5.129849657791768
9.062224636,-2.028272254490959,-1.851590952353406,-5.067527985285297
9.06697948,-1.838621937068929,-2.0490436221875252,-4.990653378011926
9.071734376,-1.619998754233389,-2.2464412574097583,-4.900038618642267
9.07648922,-1.3734972309567837,-2.443441043733729,-4.796583704102515
9.081244063,-1.100475492561481,-2.6396781309632726,-4.681270120819072
9.085998907,-0.8025462627599583,-2.834766317041832,-4.555154336498159
9.090753803,-0.4815652205390907,-3.028299018863705,-4.419360531556977
9.095508647,-0.13961681019762542,-3.219850530121774,-4.27507260248602
9.10026349,0.221002371160767,-3.408977562352748,-4.123525478802079
9.105018334,0.5978024554945768,-3.5952210611725897,-3.9659958045699684
9.10977323,0.9881212743877894,-3.7781082854835715,-3.8037920445000006
9.114528074,1.3891472118587977,-3.957155133232889,-3.638244083272267
9.119282917,1.7979437092096053,-4.131868693216416,-3.470692395080169
9.124037761,2.2114751703601603,-4.3017499985951035,-3.3024768687049613
9.128792657,2.6266339974985273,-4.4662969543950615,-3.134925382187883
9.133547501,3.040268471233245,-4.625007408486712,-2.969342230860732
9.138302345,3.449211176917667,-4.777382333582021,-2.8069965234287846
9.143057188,3.850307669583606,-4.922929086794029,-2.6491106728032157
9.147812084,4.240445064189676,-5.061164713261985,-2.4968491206867456
9.152566928,4.616580235932258,-5.191619261039376,-2.351307446190781
9.157321772,4.975767317429405,-5.31383907545953,-2.2135020171875035
9.162076615,5.315184185759703,-5.427390042025593,-2.0843603464723905
9.166831459,5.632157642490591,-5.531860747082706,-1.964712310825066
9.171586355,5.924187003735774,-5.626865524986746,-1.8552823780063281
9.176341199,6.18896583491144,-5.71204735954519,-1.756682964493966
9.181096042,6.424401586660472,-5.787080607009961,-1.669409017417025
9.185850938,6.62863291519284,-5.851673508871834,-1.593833881655629
9.190605782,6.800044502620987,-5.90557046589645,-1.5302064819820076
9.195360626,6.9372792303850135,-5.948554050410039,-1.4786498239261483
9.20011547,7.03924760009036,-5.980446741326298,-1.4391607971536593
9.204870313,7.105134338995424,-6.001112374955855,-1.4116112509580945
9.209625209,7.134402170222284,-6.010457313297597,-1.3957503013423744
9.214380053,7.126792769421966,-6.008431339391268,-1.3912078212828631
9.219134897,7.082324969460871,-5.995028295680874,-1.3974990586773697
9.22388974,7.001290312036548,-5.97028648564254,-1.414030319263874
9.228644636,6.884246079058071,-5.934288860805953,-1.440105644105971
9.23339948,6.732005966131829,-5.8871630146087215,-1.4749344031670468
9.238154324,6.545628584793936,-5.829081001376075,-1.5176397184000885
9.242909167,6.326403998867421,-5.76025899344347,-1.5672676220949178
9.247664063,6.075838513591118,-5.6809567825263345,-1.6227968492883873
9.252418907,5.7956379444053026,-5.591477123475364,-1.683149157055195
9.257173751,5.487689596101755,-5.492164910199113,-1.7472000586097276
9.261928595,5.154043183135193,-5.38340616556769,-1.813789856628925
9.26668349,4.796890918954345,-5.265626820468216,-1.881734858552043
9.271438334,4.418546996904717,-5.139291252851133,-1.9498386575379516
9.276193178,4.0214266780674714,-5.004900556340502,-2.0169033669146295
9.280948022,3.6080251925884874,-4.8629905100230015,-2.08174070334712
9.285702865,3.180896650787704,-4.714129226075177,-2.1431828233788335
9.290457761,2.7426331488914517,-4.558914459321343,-2.2000928271944122
9.295212605,2.2958442419875484,-4.39797057202285,-2.2513748502255106
9.299967449,1.843136944133993,-4.231945157758,-2.2959836669573805
9.304722292,1.3870964027423864,-4.061505339873769,-2.3329337335801537
9.309477188,0.9302673816669701,-3.8873337722709502,-2.3613075999257913
9.314232032,0.47513667508314766,-3.710124382440684,-2.380263628838182
9.318986876,0.02411656225675931,-3.530577907576808,-2.3890429728209073
9.32374172,-0.4204705985859322,-3.349397283172344,-2.3869757711912776
9.328496563,-0.8564065512762947,-3.1672829491769927,-2.3734865430412158
9.333251459,-1.2815900243626355,-2.9849281415327513,-2.3480987601898256
9.338006303,-1.6940482554954404,-2.803014237072852,-2.310438589843748
9.342761147,-2.0919471113152683,-2.622206217838697,-2.2602377998826846
9.34751599,-2.4735997703700496,-2.4431483172944133,-2.1973358219204706
9.352270834,-2.8374739501077997,-2.2664599060930124,-2.121680969612371
9.35702573,-3.1821976720744622,-2.0927316692982147,-2.03333081259804
9.361780574,-3.5065635719822428,-1.922522120545721,-1.9324517100649028
9.366535417,-3.809531773246465,-1.7563544917153384,-1.8193175120627862
9.371290261,-4.090231353875072,-1.5947140294000435,-1.6943074412313297
9.376045105,-4.347960447167928,-1.4380457218992788,-1.5579031723834849
9.380800001,-4.582185026450296,-1.2867524727462323,-1.410685132339909
9.385554845,-4.792536432940707,-1.1411937290365666,-1.2533280474728195
9.390309688,-4.97880771380684,-1.001684565193627,-1.0865957715047043
9.395064532,-5.140948844530835,-0.8684952154075883,-0.9113354310782255
9.399819376,-5.2790609159518755,-0.741851040948191,-0.728470931330448
9.404574272,-5.39338937181421,-0.6219329120049586,-0.5389958680962416
9.409329115,-5.484316387310924,-0.5088779777844772,-0.3439658974444494
9.414083959,-5.552352482938318,-0.40278079339746337,-0.14449061706974195
9.418838803,-5.598127470920928,-0.30369476766715886,0.058274982336593395
9.423593647,-5.622380833496492,-0.211633892418328,0.26313943423210917
9.428348542,-5.625951633432911,-0.1265747110776525,0.46888401725033935
9.433103386,-5.609768057272425,-0.04845848254117328,0.6742722126406133
9.43785823,-5.574836690984451,0.022806504752807478,0.8780593281497089
9.442613074,-5.522231626025968,0.08734251377212904,1.0790022162335258
9.447367917,-5.453083491361787,0.14529987941869893,1.2758690127289483
9.452122813,-5.36856850391103,0.19685451171542875,1.4674488207604484
9.456877657,-5.269897626280435,0.24220542245323373,1.6525612637233433
9.461632501,-5.158305916603977,0.28157231300375346,1.8300658306998567
9.466387345,-5.035042150850706,0.31519325706038775,1.998870937650408
9.471142188,-4.901358793041352,0.34332250728258384,2.1579426282060603
9.475897084,-4.758502383351619,0.36622844926894316,2.3063128389025387
9.480651928,-4.607704408019009,0.3841917201435322,2.4430871553052755
9.485406772,-4.4501727083042555,0.39750350253243216,2.5674519877916384
9.490161615,-4.287083478535465,0.406463998076792,2.67868109893574
9.494916459,-4.119573895573884,0.411381078112734,2.7761414186434776
9.499671355,-3.948735414008008,0.412569102977739,2.8592980885327575
9.504426199,-3.7756077531575767,0.41034789579984815,2.927718683590543
9.509181042,-3.601173593734849,0.405041851794101,2.981076566798908
9.513935886,-3.4263539939907712,0.3969791601986167,3.019153341027345
9.51869073,-3.2520045276097425,0.38649111315105095,3.0418403717824667
9.523445574,-3.078912138713123,0.3739114740958589,3.0491393641254785
9.52820047,-2.907792703204099,0.35957587771062954,3.041161987008106
9.532955313,-2.739289280350378,0.34382123375683127,3.018128548315594
9.537710157,-2.5739710339008157,0.32698510855888946,2.980365733960316
9.542465001,-2.4123327980812537,0.30940505984477723,2.9283034343544903
9.547219845,-2.2547952604253494,0.29141790329287276,2.8624706913976983
9.55197474,-2.101705730493723,0.2733588921746212,2.7834908086174135
9.556729584,-1.9533394610612285,0.255560794810379,2.692075676133621
9.561484428,-1.8099014862527656,0.23835285802685938,2.5890193704586304
9.566239272,-1.6715289393237724,0.22205964830463604,2.4751910965301565
9.570994115,-1.5382938112700426,0.20699976575480214,2.3515275455723272
9.575748959,-1.4102061102087062,0.19348442942329974,2.219024747222166
9.580503855,-1.2872173805201865,0.18181593567413826,2.078729497776641
9.585258699,-1.169224540097656,0.1722859945393749,1.9317304484267046
9.590013542,-1.0560739937194463,0.16517395192222462,1.7791489380533214
9.594768386,-0.9475659805392727,0.16074490836585595,1.622129654732998
9.59952323,-0.843459113978957,0.1592477477289336,1.4618312087336471
9.604278074,-0.7434750729086942,0.16091309153866834,1.2994166976828645
9.60903297,-0.6473034039087237,0.16595119703815767,1.1360443419807305
9.613787813,-0.5546063956169941,0.17454981901870495,0.9728582656409944
9.618542657,-0.4650239876603603,0.18687205742689375,0.8109794947913901
9.623297501,-0.3781786783977138,0.20305421444660524,0.6514972431948917
9.628052345,-0.29368039760280046,0.22320368625987974,0.4954605514305501
9.632807188,-0.21113131220427397,0.2473969159667306,0.34387034377618453
9.637562084,-0.1301305352174091,0.27567743516629967,0.19767196428787795
9.642316928,-0.05027871001289492,0.30805402244005337,0.057748250964051194
9.647071772,0.028817555926018982,0.34449900740568584,-0.07508679589503206
9.651826615,0.10754143157805006,0.38494674910862187,-0.2000936980563216
9.656581459,0.18626179901862053,0.42929231727064365,-0.3166124867257609
9.661336303,0.26532940565769075,0.47739040430478136,-0.4240669468876201
9.666091199,0.3450732493342065,0.5290544950082542,-0.5219680765985262
9.670846042,0.4257972111388807,0.5840563194259049,-0.6099167235230999
9.675600886,0.5077769483866725,0.6421256124889573,-0.6876053654513328
9.68035573,0.5912570576716129,0.7029502016294408,-0.754819005960145
9.685110574,0.6764485154531945,0.7661764406172633,-0.8114351606920451
9.689865417,0.7635264012526061,0.8314100043663281,-0.8574229144116372
9.694620261,0.8526279065588184,0.8982170554414941,-0.8928410357751205
9.699375105,0.943850631460074,0.9661257885318947,-0.9178351484401985
9.704130001,1.0372511712964285,1.03462835437371,-0.9326339758084041
9.708884845,1.1328439972194189,1.1031831597740016,-0.9375447010720458
9.713639688,1.2306006366687627,1.1712175358613524,-0.9329475096973856
9.718394532,1.3304491613742302,1.2381307627557332,-0.9192894030232396
9.723149376,1.4322739908740836,1.3032974356131144,-0.8970773868313221
9.72790422,1.5359160186421896,1.3660711544034472,-0.86687114782356
9.732659115,1.6411730660882713,1.4257885177018932,-0.8292753353883879
9.737413959,1.7478006673977562,1.4817733990979753,-0.784931567250983
9.742168803,1.8555131857660057,1.5333414834746086,-0.7345102765322734
9.746923647,1.9639852592450913,1.5798050393254686,-0.678702514976279
9.75167849,2.0728535721959824,1.620477902418847,-0.6182118230267849
9.756433334,2.181718946154901,1.6546806454207463,-0.5537462723201414
9.761188178,2.290148741654679,1.681745907480881,-0.48601078022042954
9.765943074,2.397679560060603,1.701023857168619,-0.4156997893901401
9.770697917,2.5038202316949527,1.7118877614282415,-0.34349039810978105
9.775452761,2.6080550734095738,1.7137396323304717,-0.2700360191038386
9.780207605,2.709847395363784,1.706015922286431,-0.19596063593623655
9.784962449,2.8086432331760185,1.6881932370406154,-0.12185371656237015
9.789717292,2.9038752779874604,1.6597940341537487,-0.048265833368240516
9.794472136,2.994966973478446,1.6203922727921845,0.024294971964522225
9.799227032,3.0813367456952863,1.569618978411449,0.09536605207163124
9.803981876,3.1624023288498155,1.5071676833196732,0.16453223147389406
9.80873672,3.2375851482063065,1.432799701132524,0.23142709613158935
9.813491563,3.3063147199111,1.3463491898428115,0.2957335057905281
9.818246407,3.368033027253082,1.2477279547438094,0.3571833527382211
9.823001251,3.4221988334025215,1.1369299389377452,0.4155566032412519
9.827756095,3.4682918920977572,1.0140353458477167,0.4706796701912894
9.832510938,3.505817019860802,0.8792143352873218,0.5224231770738362
9.837265782,3.5343079958601784,0.7327302325015476,0.5706991839971868
9.842020678,3.553331258200174,0.5749421884311972,0.6154579559010461
9.846775522,3.562489367939869,0.4063072294629218,0.6566843609777296
9.851530365,3.561424214381093,0.22738163620180393,0.6943939935577939
9.856285209,3.549819937078832,0.03882159332842664,0.7286291196502995
9.861040053,3.527405541663897,-0.15861694375401128,0.7594545434333558
9.865794897,3.4939571880138773,-0.3640792152527724,0.7869534869928952
9.87054974,3.449300130719556,-0.5766135009144643,0.8112235626004515
9.875304584,3.3933102934143107,-0.7951738804665875,0.8323728994149796
9.88005948,3.325915460627695,-1.018623943069842,0.8505164698697447
9.884814324,3.2470960735430654,-1.2457414708083572,0.8657726492689128
9.889569167,3.156885619367523,-1.4752241124388557,0.8782600359455813
9.894324011,3.055370607860866,-1.7056960533617975,0.8880945568225821
9.899078855,2.9426901328589983,-1.935715676111139,0.8953868819473305
9.903833699,2.819035021391317,-2.163784192733696,0.900240169698445
9.908588542,2.6846465782713236,-2.3883552164479434,0.902748160801843
9.913343386,2.5398149397556917,-2.6078452251598705,0.9029936338198776
9.91809823,2.3848770557364114,-2.820644854011894,0.9010472280902097
9.922853126,2.220214325543444,-3.0251309384312095,0.896966633464583
9.92760797,2.0462499174554285,-3.2196792134669665,0.8907961407360024
9.932362813,1.863445806323055,-3.4026775599525756,0.8825665427425355
9.937117657,1.6722995673603853,-3.5725396736123973,0.8722953735187738
9.941872501,1.4733409672428974,-3.7277190200579233,0.8599874709597191
9.946627345,1.2671283961939563,-3.86672292707894,0.8456358467248702
9.951382188,1.0542451867183364,-3.988126656106634,0.8292228451583191
9.956137032,0.8352958660398463,-4.0905872875664775,0.8107215706226101
9.960891876,0.6109023901654588,-4.172857250367465,0.7900975597962321
9.965646772,0.3817004079282143,-4.2337973242363915,0.7673106722773999
9.970401615,0.14833560346714952,-4.272388945157336,0.7423171694972567
9.975156459,-0.08853983453253368,-4.2877456488994,0.7150719487490154
9.979911303,-0.3282705688814648,-4.279123495539495,0.6855308963268033
9.984666147,-0.5702012479475822,-4.245930328983765,0.6536533214872248
9.98942099,-0.8136793717053793,-4.187733739652839,0.6194044312483231
9.994175834,-1.058057845765502,-4.1042676155165045,0.5827578049128356
9.998930678,-1.3026971824124345,-3.9954371862306504,0.5436978266206359
10.00368552,-1.5469673118435898,-3.8613224868174205,0.5022220342153434
10.00844036,-1.79024897215102,-3.7021801905937783,0.4583433433468422
10.01319521,-2.031934653184788,-3.5184437852314523,0.4120921071881499
10.0179501,-2.2714290773942882,-3.310722090159006,0.363517974608109
10.02270495,-2.508149210135122,-3.079796137196389,0.31269151328091366
10.02745979,-2.741523802689025,-2.8266144586261475,0.259705569156242
10.03221464,-2.9709924831061847,-2.552286847308832,0.20467634000208773
10.03696948,-3.196004422457672,-2.258076671579477,0.14774414827485538
10.04172432,-3.4160166165089656,-1.9453918432872095,0.08907390708340392
10.04647917,-3.630491834456705,-1.6157745503205114,0.028855281833744115
10.05123401,-3.838896296572352,-1.2708898752223126,-0.03269744208174359
10.05598886,-4.040697150950387,-0.9125134290407474,-0.09534577037022068
10.0607437,-4.235359825947714,-0.5425181345366045,-0.15882767402170966
10.06549854,-4.422345339555301,-0.16286029569199306,-0.22285851419632205
10.07025339,-4.601107650332894,0.22443490823961385,-0.28713221013614654
10.07500828,-4.771091137095046,0.617288365556655,-0.35132264597912227
10.07976313,-4.931728296425404,1.0135822735276774,-0.41508531333151316
10.08451797,-5.08243774819273,1.4111755410753872,-0.47805918477956655
10.08927281,-5.222622639254125,1.8079192171229528,-0.5398688098864516
10.09402766,-5.351669534115319,2.2016718116463423,-0.60012662059361
10.0987825,-5.468947878146133,2.590314380149537,-0.658435428349187
10.10353735,-5.573810113733039,2.9717652470364593,-0.7143910917254371
10.10829219,-5.665592522272456,3.3439942492203603,-0.7675853315961497
10.11304703,-5.743616855078232,3.7050363882852038,-0.8176086714917684
10.11780188,-5.807192804175244,4.05300478754598,-0.8640534831966341
10.12255672,-5.855621349811141,4.386102859337058,-0.9065171210480358
10.12731156,-5.888199005664446,4.702635597631615,-0.9446051315868307
10.13206641,-5.904222965519255,5.001019921486764,-0.9779345272786079
10.13682125,-5.902997136981191,5.27979400565961,-1.0061371135201511
10.14157615,-5.883839028993811,5.537625545918772,-1.028862857075599
10.14633099,-5.846087440852283,5.773318917971187,-1.0457832817837176
10.15108583,-5.789110881481507,5.985821200420472,-1.0565948743241722
10.15584068,-5.7123166293349685,6.174227043641272,-1.061022479497024
10.16059552,-5.615160325786066,6.337782377749588,-1.0588226612098453
10.16535036,-5.497155978778544,6.475886963805208,-1.0497870023809788
10.17010521,-5.357886239271207,6.5880958028018055,-1.0337453143242916
10.17486005,-5.197012801129772,6.674119426662343,-1.0105687238743941
10.1796149,-5.014286765948637,6.7338231041512495,-0.9801726045120427
10.18436974,-4.809558808009682,6.7672250021838645,-0.9425193160296329
10.18912458,-4.582788971207928,6.774493349388864,-0.8976207158292757
10.19387943,-4.33405592918874,6.755942653986728,-0.8455404038092192
10.19863427,-4.063565542013751,6.712029032190276,-0.786395662056751
10.20338912,-3.7716585472974757,6.643344706563716,-0.7203590503295374
10.20814396,-3.4588172308684615,6.55061173626636,-0.6476596186410363
10.21289886,-3.125670931548304,6.434675043026149,-0.5685836991905273
10.21765365,-2.773000246515587,6.296494798187899,-0.48347524139392606
10.22240854,-2.401739817792909,6.137138237381758,-0.39273565588553166
10.22716339,-2.012979596490764,5.957770970338939,-0.29682313609772404
10.23191823,-1.6079644993489839,5.759647854184213,-0.19625142941460005
10.23667307,-1.1880923915779453,5.54410349916839,-0.09158803395424425
10.24142792,-0.7549103507364617,5.3125424762661595,0.016548198237575577
10.24618276,-0.3101091881217929,5.066429296357468,0.12749006541505367
10.2509376,0.14448377334029516,4.807278230849692,0.24052563558997025
10.25569245,0.606913642622375,4.536643043603132,0.354902482380023
10.26044729,1.0751085799640738,4.256106703896233,0.46983253115314133
10.26520214,1.5468920228475838,3.9672711498798474,0.5844975015310131
10.26995698,2.0199964258323084,3.671747171458528,0.6980549239198623
10.27471182,2.4920783985567754,3.3711444807118776,0.8096446988313448
10.27946667,2.9607351043348635,3.067062036727534,0.9183961583590863
10.28422151,3.423521761429869,2.761078689957565,1.023435579228194
10.28897636,3.8779700706277573,2.454744208838768,1.1238940861880917
10.2937312,4.321607376329649,2.1495707483421866,1.2189158729995488
10.29848604,4.751976354143093,1.847024816229836,1.3076666558078403
10.30324089,5.1666550060309,1.548519787970358,1.3893422604976728
10.30799573,5.5632767347827805,1.2554090153882829,1.4631772323072079
10.31275057,5.9395502633490125,0.9689795671799905,1.5284533436666503
10.31750542,6.293279161876966,0.6904466316229043,1.5845078665977288
10.32226026,6.622380746436367,0.42094860360878333,1.6307414711614603
10.32701516,6.9249041184618525,0.16154287018503394,1.6666256134247934
10.33176995,7.199047122738637,-0.0867976984222559,1.6917092863974739
10.33652485,7.4431720142327915,-0.32318755177964786,1.7056250248227032
10.34127969,7.655819640427159,-0.5468305618566704,1.7080940771630198
10.34603453,7.835721966401724,-0.7570214374764365,1.6989306820796388
10.35078938,7.981812794663557,-0.9531464701837656,1.6780454088635712
10.35554422,8.093236559902229,-1.1346836392711186,1.6454475396611432
10.36029906,8.169355109012761,-1.301202112233632,1.6012464855229225
10.36505391,8.209752407436445,-1.4523611852329943,1.5456522388939253
10.36980875,8.214237143181112,-1.5879087156529603,1.4789748730733612
10.3745636,8.182843229494278,-1.7076791050454783,1.4016231052516168
10.37931844,8.115828236077979,-1.811590895335733,1.3141019446874587
10.38407328,8.013669806805964,-1.8996440438020172,1.2170094520215147
10.38882813,7.877060148625108,-1.971916942845743,1.111032640133069
10.39358297,7.70689870093579,-2.028563248755179,0.9969425516864575
10.39833781,7.50428311645574,-2.0698085794945578,0.8755885537361717
10.40309266,7.270498702677383,-2.09594713512053,0.7478918954452283
10.4078475,7.007006486997563,-2.1073382859979986,0.6148385810038691
10.41260234,6.715430078151672,-2.1044031639354666,0.47747161607899186
10.41735719,6.39754150175237,-2.0876212801231997,0.3368826924341195
10.42211203,6.055246188829022,-2.0575271817862966,0.19420338155482997
10.42686688,5.690567293812936,-2.0147071472563125,0.05059591396678063
10.43162172,5.3056295131028275,-1.9597959073658586,-0.09275637382391162
10.43637656,4.902642567964478,-1.8934733705188733,-0.23465883850897237
10.44113141,4.483884506834162,-1.8164613203752764,-0.3739154859603566
10.44588625,4.051684972691973,-1.7295200495017045,-0.5093389933123236
10.4506411,3.6084085713775886,-1.6334448899048,-0.6397607069339494
10.45539594,3.1564384666775944,-1.529062602059803,-0.7640405281308353
10.46015078,2.69816031779815,-1.417227587643844,-0.8810766009824401
10.46490563,2.235946664522846,-1.2988178973935225,-0.9898147185398594
10.46966047,1.7721418550285444,-1.1747310140869225,-1.0892573639784344
10.47441531,1.309047601193201,-1.0458794013677148,-1.1784723027027768
10.47917016,0.8489092367574107,-0.9131858215765019,-1.2566006417887434
10.483925,0.3939027456015403,-0.7775784391261182,-1.322864277458401
10.48867984,-0.053877378855652934,-0.6399857389987225,-1.376572661495242
10.49343469,-0.492429386866016,-0.5013313012657845,-1.4171288324332587
10.49818953,-0.9198545862235227,-0.3625284811717538,-1.444034673032999
10.50294438,-1.3343666699762302,-0.22447505007973675,-1.4568953682019716
10.50769922,-1.7343000176719499,-0.08804785588182003,-1.455423045740791
10.51245406,-2.118116937586019,0.04590243703888206,-1.4394395869007937
10.51720891,-2.484413825817659,0.17655646805084255,-1.4088785963796775
10.52196375,-2.831926226737236,0.30313110141881355,-1.363786523569802
10.5267186,-3.1595327877638715,0.42488409106053426,-1.3043229295315106
10.53147344,-3.4662581098128324,0.5411184347530158,-1.2307598976037941
10.53622828,-3.751274502960938,0.6511863678626673,-1.1434805897324993
10.54098313,-4.0139026648483656,0.7544929519198599,-1.0429769553323969
10.54573797,-4.253611306962619,0.8504992194545612,-0.9298466046572494
10.55049281,-4.470015761191804,0.9387248432903387,-0.8047888640938461
10.55524766,-4.662875605904738,1.0187503058096752,-0.6686000363612834
10.5600025,-4.832091357338849,1.0902185514042122,-0.5221678941092832
10.56475734,-4.977700278250311,1.1528361132479346,-0.3664654407237556
10.56951219,-5.099871361561887,1.2063737135177517,-0.20254397719515038
10.57426703,-5.1988995520485455,1.250666344080257,-0.03152551870080907
10.57902188,-5.275199273806111,1.2856128423052167,0.14540539083374332
10.58377672,-5.329297335203469,1.31117498387447,0.3270104134192496
10.58853156,-5.361825286075513,1.3273761210426132,0.5120066436968777
10.59328641,-5.37351130396436,1.3342994006151647,0.6990762659751223
10.59804125,-5.365171687214209,1.3320856008286681,0.8868765755473115
10.6027961,-5.337702032680075,1.3209306302678616,1.074050293890521
10.60755094,-5.292068174773101,1.301082734881269,1.2592361031018553
10.61230578,-5.229296960630406,1.2728394610217901,1.441079320818619
10.61706063,-5.150466933526092,1.2365444232238123,1.6182426329455426
10.62181547,-5.056698993461504,1.1925839251186638,1.7894167978338145
10.62657031,-4.9491471004473455,1.1413834804662084,1.9533312321965464
10.63132516,-4.82898908255496,1.0834042787214044,2.108764386106102
10.63608,-4.697417607533886,1.0191396358552793,2.254553812053095
10.64083484,-4.555631373725849,0.9491114663450514,2.389605831471835
10.64558969,-4.4048265730994824,0.8738668064491663,2.5129047016306014
10.65034453,-4.246188676343485,0.7939744123061,2.623521186661009
10.65509938,-4.080884586884609,0.7100214493572625,2.7206204390605917
10.65985422,-3.910055207217281,0.6226102824687361,2.803469102471549
10.66460906,-3.7348084568758475,0.5323553692922426,2.87144155300678
10.66936391,-3.556212776710142,0.43988025320339774,2.9240252047972217
10.67411875,-3.375291148967648,0.3458146468682899,2.960824815563568
10.67887354,-3.19301565731185,0.2507915933321934,2.9815657395323987
10.68362839,-3.0103026056520825,0.15544468862221983,2.9860960874861404
10.68838323,-2.828008209806485,0.06040534822482062,2.974387766723495
10.69313807,-2.646924871703297,-0.03369990064670939,2.9465363869040573
10.69789292,-2.467778042037792,-0.12625211848426987,2.902760031008883
10.70264776,-2.29122367395597,-0.21664266062177567,2.843396903885586
10.7074026,-2.117846267327582,-0.3042759058480396,2.7689018839437427
10.71215745,-1.9481575003929257,-0.3885720174206587,2.6798420163490166
10.71691229,-1.782595442902295,-0.46896974409736814,2.576890998325401
10.72166714,-1.6215243421999008,-0.544929265190368,2.46082271868318
10.72642198,-1.4652349709645085,-0.6159350798874588,2.332503924192348
10.73117682,-1.313945522508142,-0.6814989373025406,2.1928860946649507
10.73593167,-1.1678030367165009,-0.7411628000222235,2.0429966163799174
10.74068651,-1.0268853369825994,-0.7945018303763078,1.8839293496298026
10.74544136,-0.891203455924566,-0.8411273853093003,1.7168346906210856
10.7501962,-0.7607045253505927,-0.8806900025687485,1.5429092307386043
10.75495104,-0.6352751038698452,-0.9128823579451844,1.363385117392569
10.75970589,-0.5147449137511798,-0.9374421704950037,1.1795192204644744
10.76446073,-0.3988909570818938,-0.9541550300562395,0.9925822069550998
10.76921557,-0.2874419799333578,-0.962857118932913,0.8038476240462932
10.77397042,-0.180083252028332,-0.9634377973805384,0.6145810876858825
10.77872526,-0.07646162823324454,-0.955842020489029,0.42602967027516786
10.7834801,0.023809143020549754,-0.9400725522762219,0.2394115773315003
10.78823495,0.12114290060671273,-0.9161919413609393,0.055906199278316124
10.79298979,0.2159753785349863,-0.884324221588184,-0.12335537915989274
10.79774464,0.3087583799793887,-0.8446563005344222,-0.29729933313013907
10.80249948,0.3999538583828721,-0.7974389990066733,-0.4649174402469583
10.80725432,0.49002794816008166,-0.7429877055179959,-0.6252747402601639
10.81200912,0.579444989043692,-0.6816826113028637,-0.7775164444335789
10.81676396,0.6686615893910978,-0.6139684937331779,-0.9208740315626753
10.8215188,0.7581207746706505,-0.5403540189974774,-1.0546704722304703
10.82627365,0.8482462678088608,-0.46141053860344666,-1.1783245279731756
10.83102849,0.9394369480900078,-0.3777703586670898,-1.2913540774078776
10.83578333,1.0320615348947941,-0.2901244660954169,-1.3933784270201868
10.84053818,1.1264535417842192,-0.19921970170236245,-1.4841195708053225
10.84529302,1.2229065452627925,-0.10585537703580492,-1.5634023721062509
10.85004786,1.3216698109203728,-0.010879339118989082,-1.631153655167829
10.85480271,1.4229443174995222,0.08481650490992824,-1.687400213865193
10.85955755,1.5268792167912297,0.18030118361461206,-1.732265768402646
10.8643124,1.633568764214576,0.274610150741967,-1.765966923491384
10.86906724,1.7430497515705747,0.36675123511802454,-1.7888082007726909
10.87382208,1.8552994698241025,0.45571101194478064,-1.8011762335054433
10.87857693,1.9702342258693852,0.540461551422954,-1.8035332233737646
10.88333172,2.0877084330435105,0.6199674963487278,-1.796409768108111
10.88808656,2.2075142906125587,0.6931934169583532,-1.7803971744325073
10.89284141,2.3293820625336434,0.7591113889030262,-1.756139373601804
10.89759625,2.452980960526943,0.8167087388340737,-1.7243245567123586
10.9023511,2.57792063096056,0.8649959016036207,-1.6856766445751934
10.90710594,2.703753239347975,0.9030143334281658,-1.6409467028500913
10.91186078,2.829976140448854,0.9298444263797008,-1.5909044079050436
10.91661563,2.9560351160968787,0.9446133711015681,-1.536329662904251
10.92137047,3.081328157000202,0.9465029165278616,-1.4780044572218136
10.92612531,3.2052097589264075,0.9347569774474142,-1.4167050556009766
10.93088016,3.3269956979617836,0.9086890428296177,-1.3531945966069336
10.935635,3.4459682440086286,0.8676893397657172,-1.2882161728307104
10.94038984,3.5613817664514844,0.8112317095482584,-1.2224864578707837
10.94514469,3.6724686810725045,0.7388801537176878,-1.1566899371606203
10.94989953,3.7784456828884765,0.650295008782569,-1.0914737910363235
10.95465438,3.878520205660488,0.545238708721046,-1.0274434689268759
10.95940917,3.971897045456673,0.4235810942526305,-0.9651589831719785
10.96416401,4.057785082945665,0.2853042271888547,-0.9051319397857457
10.96891886,4.135404037224804,0.13050666691176674,-0.8478233116186797
10.9736737,4.203991183122252,-0.04059283576036511,-0.7936419470275164
10.97842854,4.2628079642304355,-0.22765227423320372,-0.742943794602939
10.98318339,4.311146435561748,-0.43020400053578667,-0.69603181201467
10.98793823,4.348335472685436,-0.6476530697520626,-0.6531565148948807
10.99269307,4.373746688344942,-0.8792763672271907,-0.6145171101669916
10.99744792,4.3868000025221345,-1.124222571704115,-0.5802631476429176
11.00220276,4.386968817259729,-1.3815130066040986,-0.5504966146197907
11.0069576,4.37378475284326,-1.6500434292391448,-0.5252743919272527
11.0117124,4.34684190687397,-1.9285868039458807,-0.5046109886579401
11.01646724,4.305800602235315,-2.215797100241008,-0.48848147851395785
11.02122208,4.2503905941015505,-2.510214151367034,-0.47682457241762455
11.02597693,4.180413710249011,-2.810269602047068,-0.4695457755610335
11.03073177,4.095745903308372,-3.1142939666866014,-0.46652058767022864
11.03548662,3.996338698424436,-3.4205248103589807,-0.4675977109511001
11.04024146,3.8822200251370558,-3.72711605447733,-0.47260223221412984
11.0449963,3.7534944281809937,-4.032148397000398,-0.48133874667926696
11.04975115,3.6103426583233835,-4.333640823359497,-0.49359439317782805
11.05450599,3.453020651249815,-4.629563169125707,-0.509141774894799
11.05926083,3.2818579096718836,-4.917849678929166,-0.5277417459729556
11.06401563,3.0972553109182313,-5.196413488533964,-0.5491460506912103
11.06877047,2.89968236892302,-5.463161938578207,-0.5730998068966108
11.07352531,2.6896739855235956,-5.716012609709636,-0.5993438281136354
11.07828016,2.4678267313343123,-5.952909950166078,-0.6276167795159664
11.083035,2.234794701339685,-6.17184234881056,-0.6576571625545793
11.08778985,1.991284994897314,-6.370859489806903,-0.6892051223948761
11.09254469,1.7380528740658527,-6.548089810095923,-0.7220040721526737
11.09729953,1.4758966579202506,-6.7017578681819785,-0.7558021287368429
11.10205438,1.2056524135618902,-6.830201423001584,-0.7903533571616995
11.10680922,0.9281885067286476,-6.9318880152641595,-0.8254188234401245
11.11156406,0.6444000762967881,-7.005430840941451,-0.8607674602302986
11.11631891,0.355203497755721,-7.0496037077172105,-0.8961767536539923
11.1210737,0.06153090118977621,-7.06335487028252,-0.9314332634602517
11.12582854,-0.2356751904358437,-7.045819549427978,-0.9663329914992842
11.13058339,-0.5354670368887529,-6.99633095298433,-1.0006816151402338
11.13533823,-0.8368966049394871,-6.9144296338040006,-1.0342946029258386
11.14009307,-1.139020177550649,-6.799871041053215,-1.06699722964233
11.14484792,-1.4409025870675982,-6.6526311457954375,-1.0986245073190626
11.14960276,-1.7416210158267669,-6.472910049637886,-1.1290210475997475
11.15435761,-2.0402683134830695,-6.261133515302756,-1.1580408694777797
11.15911245,-2.3359557877816353,-6.017952389440512,-1.1855471644862445
11.16386724,-2.627815434487935,-5.7442399198110845,-1.2114120289148993
11.16862208,-2.915001582790926,-5.441087000089694,-1.2355161692894978
11.17337693,-3.196691944671457,-5.1097954050371035,-1.257748583077387
11.17813177,-3.472088070277461,-4.751869105747432,-1.2780062117031241
11.18288662,-3.7404152258889276,-4.3690037783678575,-1.2961935588591496
11.18764146,-4.000921726107371,-3.9630746393550202,-1.3122222663273195
11.1923963,-4.252877766917842,-3.5361227555260424,-1.3260106441960902
11.19715115,-4.4955738206119245,-3.090339988015483,-1.337483161731789
11.20190599,-4.728318666588668,-2.6280527366229482,-1.3465699154266368
11.20666083,-4.950437143323463,-2.151704656118078,-1.353206097711465
11.21141563,-5.161267716131897,-1.6638385197842092,-1.3573314916026846
11.21617047,-5.3601599626769385,-1.167077408204723,-1.3588900138173388
11.22092531,-5.546472083337834,-0.6641054029724699,-1.3578293235044039
11.22568016,-5.719568546414501,-0.15764796539960502,-1.3541005075972454
11.230435,-5.8788179785939345,0.34954782082121477,-1.34765784834321
11.23518984,-6.023591409157413,0.8547329668868237,-1.3384586747505816
11.23994469,-6.153260972098882,1.3551760845991125,-1.326463297933499
11.24469953,-6.267199163722593,1.8481825154560536,-1.3116350305266393
11.24945432,-6.364778744518733,2.3311129261402006,-1.293940291921206
11.25420917,-6.445373363359621,2.80140122302855,-1.2733488032422886
11.25896401,-6.508358969494567,3.256571649262111,-1.249833877985701
11.26371886,-6.553116063598244,3.6942549399267945,-1.223372815529171
11.2684737,-6.57903282339148,4.112203423780906,-1.1939474050659624
11.27322854,-6.585509122285578,4.508304973479117,-1.1615445468262025
11.27798339,-6.571961441339157,4.880595720152219,-1.1261569958369249
11.28273823,-6.537828655864505,5.227271462298027,-1.0877842310971133
11.28749302,-6.482578658636772,5.5466977130604285,-1.0464334501210597
11.29224786,-6.4057157622168335,5.837418344002356,-1.0021206855380578
11.29700271,-6.306788803748905,6.09816279730965,-0.95487203699632
11.30175755,-6.185399857065606,6.327851851875686,-0.9047250081232023
11.3065124,-6.04121343936471,6.5256019417596995,-0.851729934818044
11.31126724,-5.873966083507454,6.690728037900083,-0.7959514877444435
11.31602208,-5.6834761325900915,6.8227451154904415,-0.7374702285741558
11.32077693,-5.469653601324826,6.921368239889334,-0.6763841963255873
11.32553172,-5.232509939295424,6.986511313178382,-0.6128104970267341
11.33028656,-4.972167524515738,7.018284531424846,-0.546886866897484
11.33504141,-4.688868711954102,7.016990609343386,-0.47877317628524324
11.33979625,-4.382984260752596,6.983119834463886,-0.4086528387345846
11.3445511,-4.055020965713461,6.917344017232669,-0.3367340869183905
11.34930594,-3.705628323215516,6.820509406867672,-0.26325107486023364
11.35406078,-3.3356040690654254,6.693628645430455,-0.18846476413247945
11.35881563,-2.9458984358974982,6.537871834647183,-0.11266355072305825
11.36357047,-2.537616990590641,6.354556791671632,-0.036163589197947155
11.36832526,-2.1120219276788506,6.145138571366196,0.040691228230771696
11.37308011,-1.6705317127221904,5.911198333869009,0.11752967801695423
11.37783495,-1.2147189898488766,5.654431637268337,0.19395403399936706
11.38258979,-0.7463066899035761,5.376636236149296,0.2695413511458131
11.38734464,-0.26716229953796733,5.0796994676244775,0.34384523143429513
11.39209948,0.22070972317575083,4.765585307200872,0.4163980924817212
11.39685432,0.7151773748008737,4.436321177445103,0.4867139521691785
11.40160917,1.2139923356293754,4.093984592859616,0.5542917344318726
11.40636396,1.7148029361521095,3.7406897246509185,0.6186190927130957
11.4111188,2.2151687684250922,3.378573969131009,0.6791767384385563
11.41587365,2.7125768236912737,3.009784603299433,0.7354432523220549
11.42062849,3.2044590126284747,2.6364656106373205,0.7869003463605476
11.42538333,3.688210901284327,2.260744759225974,0.8330385339121813
11.43013818,4.161211474533421,1.8847210128998926,0.873363154097675
11.43489302,4.620843719999804,1.5104523541694652,0.9074006847626862
11.43964781,5.064515808965229,1.1399440949874922,0.9347052653722452
11.44440266,5.489682636954943,0.775137747937538,0.9548653377170133
11.4491575,5.893867475672618,0.41790052593318394,0.9675102987302213
11.45391234,6.274683480091494,0.0700155329454521,0.9723170468914216
11.45866719,6.6298547902219775,-0.26682729827888624,0.9690162928530276
11.46342203,6.957236966714742,-0.5910394727011731,0.9573984977616351
11.46817688,7.254836503151024,-0.9011413620305195,0.9373193013466722
11.47293172,7.520829165527166,-1.195768761296008,0.9087043081888952
11.47768651,7.753576920961835,-1.4736785438649551,0.8715531155784016
11.48244136,7.951643233220713,-1.7337533914874346,0.8259424890278887
11.4871962,8.113806522738082,-1.9750055821651786,0.7720286188587082
11.49195104,8.239071613757387,-2.1965798262092155,0.7100484193708735
11.49670589,8.326679020638247,-2.3977551501187833,0.6403198574277228
11.50146073,8.376111958031322,-2.5779458386471727,0.5632413177735683
11.50621557,8.38710099386507,-2.736701456941547,0.4792900276089775
11.51097036,8.359626298649944,-2.873705986120479,0.38901957353147
11.51572521,8.293917478952817,-2.9887761163278186,0.29305655106044054
11.52048005,8.190451016946671,-3.081858750568789,0.19209639184351524
11.5252349,8.049945371486439,-3.153027779982948,0.08689841740676718
11.52998974,7.873353828536745,-3.2024801961753426,-0.02171982816093066
11.53474458,7.661855218990061,-3.230531608454162,-0.13288891033928113
11.53949943,7.41684264897174,-3.2376112331615867,-0.24569444039617067
11.54425422,7.1399104108477855,-3.224256418844805,-0.35918454979618447
11.54900906,6.832839261802169,-3.191106765162944,-0.47237783111293447
11.55376391,6.497580270792035,-3.1388978857748437,-0.5842716675959317
11.55851875,6.136237444069094,-3.068454856853963,-0.6938508673935079
11.5632736,5.751049344843078,-2.9806853843828844,-0.8000965128289318
11.56802844,5.3443699248560215,-2.876572716105018,-0.9019949307262846
11.57278328,4.918648785292118,-2.757168318881839,-0.9985466874117929
11.57753807,4.476411081809595,-2.623584339728471,-1.0887755125823224
11.58229292,4.020237283464428,-2.4769858690034265,-1.1717370601833974
11.58704776,3.552742987890449,-2.318583026765916,-1.2465274209422093
11.59180261,3.0765589856457956,-2.149622897671455,-1.312291308055191
11.59655745,2.594311755644769,-1.9713813454502374,-1.3682298424047539
11.60131229,2.1086045613868993,-1.7851547445964544,-1.4136078657494031
11.60606714,1.6219993043201748,-1.5922516740271966,-1.4477607110343982
11.61082193,1.136999276156929,-1.3939846246699916,-1.4701003615673562
11.61557677,0.656032936507445,-1.1916617794939066,-1.4801209386117349
11.62033162,0.18143882615667223,-0.9865789295375993,-1.477403470746073
11.62508646,-0.28454829001323584,-0.7800115922910651,-1.461619915275417
11.6298413,-0.7398099728960761,-0.5732073991063228,-1.4325364176407522
11.63459615,-1.1823552907329313,-0.3673788163978468,-1.390015806159213
11.63935099,-1.6103305875701661,-0.1636962617610613,-1.33401932605456
11.64410578,-2.0220278096004844,0.03671832870869842,-1.2646076197963703
11.64886063,-2.4158913754225866,0.23279743131353445,-1.1819409619576968
11.65361547,-2.7905235903842747,0.42353331961822466,-1.0862787575465893
11.65837031,-3.144688618421437,0.6079828658741481,-0.9779783138792105
11.66312516,-3.4773150372718087,0.7852717288421325,-0.8574928978085684
11.66788,-3.787497014680419,0.9545979054289025,-0.7253690924689469
11.67263485,-4.074494154159755,1.1152346313551684,-0.5822434705112086
11.67738964,-4.337730068853581,1.2665326239809678,-0.42883860397014195
11.68214448,-4.576789750884,1.4079216682748203,-0.26595843434539845
11.68689932,-4.7914158111057334,1.5389115545819854,-0.09448303012873502
11.69165417,-4.981503670424482,1.6590923842112615,0.08463723720577879
11.69640901,-5.147095788815164,1.7681342658325199,0.2703880638893175
11.70116386,-5.288375021993301,1.8657864321686832,0.4616980924995414
11.70591865,-5.405657198442706,1.9518758123722861,0.6574462559423887
11.71067349,-5.4993830112662705,2.026305100697531,0.8564695402385405
11.71542833,-5.570109320169434,2.0890503665387126,1.0575711156373742
11.72018318,-5.618499958865161,2.1401582545578393,1.2595287816744454
11.72493802,-5.645316142372161,2.179742826434608,1.4611036680037766
11.72969286,-5.651406567145663,2.2079820977067937,1.6610491292835508
11.73444766,-5.637697294810935,2.2251143241938816,1.8581197691865015
11.7392025,-5.605181507528359,2.231434092585015,2.0510805258341716
11.74395734,-5.5549092197727195,2.2272882689144073,2.2387157486665763
11.74871219,-5.487977027652531,2.213071856851108,2.419838194973907
11.75346703,-5.405517972935221,2.1892238150146017,2.593297873048227
11.75822188,-5.308691594752247,2.156222878916428,2.757990658194111
11.76297667,-5.198674237538698,2.1145834286489222,2.91286660773399
11.76773151,-5.07664967907755,2.064851438139483,3.056937901742506
11.77248636,-4.943800137534259,2.0076005357418873,3.189286337613708
11.7772412,-4.801297711061155,1.9434281992862177,3.3090703087405937
11.78199604,-4.650296297911585,1.872952101683543,3.4155312006050917
11.78675089,-4.49192403904664,1.796806616087969,3.507999141521498
11.79150568,-4.327276319010291,1.7156394827941275,3.5858980502674216
11.79626052,-4.157409354513707,1.6301086337958917,3.648749928958881
11.80101537,-3.9833343938692964,1.540879165485235,3.696178356760321
11.80577021,-3.8060125443343433,1.4486204454906884,3.7279111482239657
11.81052505,-3.626350238731212,1.3540033362443749,3.743782148997555
11.8152799,-3.4451953475083794,1.2576975155663401,3.743732151065247
11.82003469,-3.263333937709383,1.160368873340526,3.727808919359121
11.82478953,-3.0814876760846563,1.0626769631467754,3.696166331334554
11.82954438,-2.900311869753757,0.9652724883918076,3.649062640846685
11.83429922,-2.720394134322702,0.8687948039190259,3.5868578873137045
11.83905406,-2.542253676073193,0.7738694161408928,3.5100104805711196
11.84380891,-2.3663411716444767,0.6811054673084906,3.419073000805233
11.8485637,-2.193039225421022,0.5910931925112284,3.314687261258231
11.85331854,-2.0226633815592483,0.504401341301481,3.1975786887827065
11.85807339,-1.8554636642341018,0.42157455938211597,3.0685500835996464
11.86282823,-1.6916266163308098,0.34313072949317663,2.9284748246584424
11.86758307,-1.531277803569104,0.26955827440445634,2.778289590754547
11.87233792,-1.3744847480604465,0.201313428692044,2.618986670034738
11.87709271,-1.2212602526871315,0.1388174896908464,2.4516059317745427
11.88184755,-1.0715660755658742,0.08245406162655917,2.2772265344610836
11.8866024,-0.925316912307779,0.03256631040914539,2.0969584434044717
11.89135724,-0.7823846428603141,-0.010545750107973564,1.9119338295019184
11.89611208,-0.6426027994052781,-0.04662791646671276,1.7232984185884541
11.90086693,-0.5057712120285521,-0.07547437171514534,1.5322028582500329
11.90562172,-0.37166078959145354,-0.09693014988028198,1.3397941662734323
11.91037656,-0.24001839434811237,-0.11089345717546417,1.147207322247955
11.91513141,-0.1105717703106796,-0.11731781652035998,0.9555570613305309
11.91988625,0.016965512898834717,-0.11621400063183282,0.765929926875114
11.9246411,0.14288913703972714,-0.10765171814686116,0.579376636485346
11.92939589,0.26749916738946955,-0.09176101700319322,0.3969048140152836
11.93415073,0.391095272296801,-0.0687333696589067,0.21947213803717402
11.93890557,0.5139720604490436,-0.03882240570056901,0.047979955231905125
11.94366042,0.6364145642748152,-0.0023442589857238147,-0.11673259504574796
11.94841526,0.7586938961288971,0.040322501311230864,-0.27389390118231505
11.9531701,0.8810631022146949,0.0887373835541203,-0.4228046034967769
11.9579249,1.003753237557168,0.14239895482326026,-0.5628416838708528
11.96267974,1.1269696837069896,0.20074631096087184,-0.6934618855520401
11.96743458,1.2508887291960327,0.2631610517125125,-0.8142044310960729
11.97218943,1.3756544310338512,0.32896977249737586,-0.9246930097292152
11.97694427,1.5013757736907045,0.3974470793167748,-1.024637008675408
11.98169906,1.6281241400153559,0.4678191280141729,-1.1138319661340423
11.98645391,1.7559311063838066,0.5392676835942025,-1.1921592268612313
11.99120875,1.8847865721997048,0.610934689650678,-1.2595847857687412
11.9959636,2.0146372320546924,0.6819273321681627,-1.3161573128909008
12.00071844,2.145385397966901,0.7513235760472636,-1.3620053670924739
12.00547328,2.276888179419026,0.8181781467316521,-1.3973338263974333
12.01022807,2.4089570299351326,0.8815289235021491,-1.4224195863598652
12.01498292,2.5413576696217834,0.9404037056282545,-1.4376065991334974
12.01973776,2.673810392583063,0.9938273078056366,-1.4433003412920096
12.0244926,2.8059907662168047,1.0408289371836146,-1.4399618076857612
12.02924745,2.9375307264914885,1.080449800757099,-1.4281011331383118
12.03400224,3.06802006991748,1.111750888940943,-1.4082709450386373
12.03875708,3.197008339453682,1.1338208787830502,-1.3810595487500423
12.04351193,3.3240070982184218,1.1457840985525556,-1.3470840447387962
12.04826677,3.4484925816253975,1.1468084944000676,-1.3069834718149038
12.05302162,3.5699087153671227,1.1361135394259496,-1.261412065248105
12.05777646,3.6876704834006873,1.1129780257432318,-1.2110327121172566
12.06253125,3.801167626629146,1.0767476808526786,-1.1565106793347275
12.0672861,3.9097686492277792,1.0268425506860897,-1.0985076825096798
12.07204094,4.012825105539457,0.9627640928432089,-1.0376763562051956
12.07679578,4.109676136282454,0.8841019247021952,-0.9746551781311731
12.08155063,4.199653218693436,0.7905401721267767,-0.9100638912640264
12.08630542,4.2820850913971595,0.6818633653705736,-0.8444994586628762
12.09106026,4.35630281144488,0.5579618294610867,-0.7785325757825602
12.09581511,4.421644898255246,0.4188365168194963,-0.7127047543699118
12.10056995,4.477462517275571,0.2646032301503187,-0.6475259806700586
12.10532479,4.523124655206462,0.0954961837764257,-0.5834729388730402
12.11007958,4.558023238727149,-0.08812914827069869,-0.5209877788135946
12.11483443,4.581578149887275,-0.2857939487574539,-0.4604773952798745
12.11958927,4.593242093635764,-0.4968947888845932,-0.4023131752741088
12.12434412,4.592505276122009,-0.7207032239905722,-0.3468311595667839
12.12909896,4.57889985607676,-0.9563662996402729,-0.2943325564307062
12.13385375,4.552004135345459,-1.2029080106743808,-0.24508453973536098
12.1386086,4.511446458122606,-1.459231751033925,-0.19932126275525483
12.14336344,4.456908791373188,-1.7241237866794739,-0.15724502499215484
12.14811828,4.388129961311372,-1.9962577779753932,-0.11902754133311838
12.15287313,4.304908522877504,-2.2742003715719123,-0.08481127687446782
12.15762792,4.207105241279521,-2.5564178748909923,-0.05471082179858425
12.16238276,4.09464516714768,-2.841284018480185,-0.028814286433631344
12.1671376,3.96751928983285,-3.127088802458924,-0.007184698054246766
12.17189245,3.8257857568719023,-3.412048412871352,0.010138619293181673
12.17664729,3.6695706515983266,-3.6943161819043815,0.023138700219015363
12.18140208,3.4990683251899446,-3.9719945526332334,0.031819644402859316
12.18615693,3.3145412839475736,-4.243147994304178,0.036205384986609065
12.19091177,3.1163196370557857,-4.505816798335036,0.03633852421660648
12.19566662,2.9048001142449995,-4.758031668489584,0.032279236623341166
12.20042141,2.6804446664759025,-4.997829001441112,0.024104237028080074
12.20517625,2.4437786659575362,-5.223266736642271,0.011905809821926048
12.2099311,2.1953887245793267,-5.43244063757494,-0.004209103349015339
12.21468594,1.9359201523394134,-5.623500850601856,-0.024119758995415
12.21944078,1.6660740797107112,-5.7946685733269545,-0.04769241050618602
12.22419557,1.3866042701495231,-5.944252652137139,-0.07478104973229126
12.22895042,1.0983136511174696,-6.07066591895899,-0.10522809130818514
12.23370526,0.8020505940645661,-6.172441070662608,-0.13886500099136756
12.23846011,0.49870497586619755,-6.24824589131475,-0.175512871593335
12.24321495,0.1892040563201888,-6.296897617848835,-0.21498295281209728
12.24796974,-0.1254917914043262,-6.317376253831776,-0.25707714392085673
12.25272458,-0.444393457973293,-6.308836643980579,-0.3015884603827263
12.25747943,-0.7664875407102132,-6.270619133986064,-0.348301486830384
12.26223427,-1.0907408074116207,-6.202258656029106,-0.3969928294630678
12.26698912,-1.416104634348102,-6.103492100006862,-0.447431580869785
12.27174391,-1.741519370285044,-5.97426385366488,-0.49937980970396334
12.27649875,-2.065918578233576,-5.814729421125368,-0.5525930866091134
12.2812536,-2.388233108001678,-5.625257058068925,-0.6068210563749079
12.28600844,-2.7073949554958037,-5.406427392197821,-0.661808064440346
12.29076323,-3.0223408690539837,-5.1590310285393075,-0.7172938434168911
12.29551807,-3.3320156688308673,-4.884064169540523,-0.7730142621307443
12.30027292,-3.6353752524106357,-4.582722308758182,-0.8287021356909742
12.30502776,-3.9313892683398497,-4.256392083436521,-0.884088090237286
12.3097826,-4.219043448907105,-3.9066413947682266,-0.9389014703232703
12.3145374,-4.497341603813761,-3.5352079246654546,-0.9928712707895844
12.31929224,-4.765307286898626,-3.1439861940440665,-1.0457270701298962
12.32404708,-5.021985158454516,-2.735013319656553,-1.0971999417006104
12.32880193,-5.266442075708477,-2.310453634388614,-1.1470233249536914
12.33355672,-5.497767953505846,-1.8725823401841866,-1.194933850122524
12.33831156,-5.715076445796968,-1.423768364415293,-1.2406721221270498
12.34306641,-5.917505505859576,-0.9664565906696748,-1.283983478442255
12.34782125,-6.1042178891654695,-0.5031496342911045,-1.3246187394582707
12.3525761,-6.274401667372087,-0.03638933175817296,-1.3623349691855036
12.35733089,-6.427270824960056,0.43126188900286305,-1.3968962607989173
12.36208573,-6.562066011335389,0.8972395932194654,-1.428074557141146
12.36684057,-6.678055520599055,1.3589957187179469,-1.455650512124907
12.37159537,-6.774536568598733,1.8140165954957812,-1.4794143957662573
12.37635021,-6.850836932350873,2.2598404574230244,-1.4991670437309577
12.38110505,-6.90631701053935,2.694074306200821,-1.5147208517809396
12.3858599,-6.940372355672164,3.114409997214241,-1.525900815996208
12.39061474,-6.952436718735475,3.518639427705029,-1.5325456205428576
12.39536953,-6.941985635941828,3.904668719581056,-1.5345087755005076
12.40012438,-6.908540574523027,4.270531301948486,-1.53165980745395
12.40487922,-6.851673640565156,4.614399811853203,-1.5238855049738553
12.40963406,-6.7710128367603035,4.9345967455080535,-1.5110912196768713
12.41438891,-6.66624784185715,5.229603806240954,-1.493202221296024
12.4191437,-6.537136266796075,5.4980699093276915,-1.470165102245557
12.42389854,-6.3835103253375,5.738817817593305,-1.4419492237510954
12.42865339,-6.20528383980764,5.9508493950191665,-1.4085481919771576
12.43340818,-6.002459485812465,6.133349478440338,-1.3699813489115782
12.43816302,-5.775136163886009,6.285688379628346,-1.3262952591751844
12.44291786,-5.523516371600843,6.40742304148934,-1.2775651704730897
12.44767271,-5.247913437297874,6.498296882614357,-1.2238964221309208
12.45242755,-4.94875846688918,6.558238373838873,-1.1654257731122721
12.45718235,-4.626606848601028,6.587358398664079,-1.1023226181559571
12.46193719,-4.2821441572678305,6.585946456279184,-1.0347900582906733
12.46669203,-3.9161912998508592,6.554465771500317,-0.9630657900996076
12.47144688,-3.5297087470977058,6.493547380288258,-0.887422776850351
12.47620167,-3.1237997025201447,6.403983262767798,-0.8081696640723354
12.48095651,-2.6997120690281537,6.286718598020701,-0.7256509023818405
12.48571136,-2.2588390855248566,6.142843216540491,-0.6402465413001764
12.4904662,-1.8027185204361944,5.973582327286578,-0.5523716594528272
12.49522099,-1.3330303263639904,5.780286596904384,-0.4624753988614575
12.49997583,-0.8515926795836364,5.564421659008951,-0.37103957405497323
12.50473068,-0.3603563496529123,5.327557131552955,-0.27857683046239545
12.50948552,0.138602632413327,5.071355220271232,-0.1856283310491666
12.51424031,0.6430920145240305,4.79755898603314,-0.09276095543125547
12.51899516,1.1508140543186294,4.507980353638239,-0.0005640017096168552
12.52375,1.659377896569976,4.204487939148389,0.09035461205300767
12.52850484,2.1663135275533554,3.8889947722503893,0.17937264248380763
12.53325964,2.669087211195439,3.5634459893758836,0.2658582995191807
12.53801448,3.1651182868781174,3.2298065723474934,0.3491754882476239
12.54276932,3.6517971848539954,2.8900492061351097,0.4286894839450426
12.54752417,4.1265044927496515,2.5461423278444126,0.5037730001853065
12.55227896,4.58663088598286,2.2000384372603534,0.5738125988969563
12.5570338,5.029597716432594,1.853662737057594,0.6382153792013275
12.56178865,5.452878037639906,1.508902168080639,0.6964158688403195
12.56654349,5.8540178314195295,1.1675949017956635,0.7478830282607593
12.57129828,6.230657190288529,0.831520348040893,0.7921272635923665
12.57605313,6.580551202888558,0.5023897315091619,0.8287073318481581
12.58080797,6.901590285954443,0.1818372850276143,0.8572370110126338
12.58556281,7.1918197067067755,-0.1285878981656763,0.8773914007549863
12.59031761,7.449458044041405,-0.4274293169862103,0.8889127178082736
12.59507245,7.672914345569549,-0.713329789563812,0.8916154548829993
12.59982729,7.86080375026694,-0.9850374297435248,0.8853907840761412
12.60458208,8.011961363060912,-1.2414108526787935,0.8702101048162115
12.60933693,8.125454188157939,-1.4814235935772857,0.846127660804299
12.61409177,8.200590952476098,-1.7041677282777903,0.8132821772890096
12.61884662,8.236929679188865,-1.9088566896494426,0.7718974960165714
12.62360146,8.234282903553336,-2.094827280030747,0.7222822076423029
12.62835625,8.192720457767857,-2.2615408869426994,0.6648282989863213
12.6331111,8.112569787247347,-2.4085839167416734,0.6000088453534809
12.63786594,7.994413796315743,-2.5356674682322122,0.5283747871580177
12.64262073,7.8390862562283665,-2.642626275030786,0.45055083655873474
12.64737557,7.647664842270109,-2.7294169511784574,0.3672305649557518
12.65213042,7.421461898971094,-2.796115578692496,0.27917072702731655
12.65688526,7.162013062467034,-2.842914678023373,0.18718488215697435
12.66164005,6.871063895684974,-2.8701196024709836,0.09213637992168845
12.6663949,6.550554714381814,-2.8781443954715282,-0.005069217228136153
12.67114974,6.202603799494411,-2.8675071455521173,-0.1034921941044666
12.67590458,5.8294892037154105,-2.838824868238238,-0.20216713886452062
12.68065938,5.433629368156789,-2.7928079381801965,-0.30011170179137087
12.68541422,5.017562769205044,-2.730254089396078,-0.3963355583507111
12.69016906,4.583926817040886,-2.652041998043745,-0.48984947513717164
12.69492386,4.135436226372054,-2.5591244614972326,-0.5796743776998399
12.6996787,3.674861076959759,-2.4525211900763466,-0.6648503235929335
12.70443354,3.2050047766267142,-2.333311233221308,-0.744445291600723
12.70918839,2.7286821328557083,-2.202625069381924,-0.8175637066044669
12.71394323,2.2486977311845306,-2.061636397463926,-0.8833546261338598
12.71869802,1.7678248096793214,-1.9115536766201333,-0.9410195176079271
12.72345286,1.288784808971836,-1.753611470052731,-0.9898195552296688
12.72820771,0.814227766740303,-1.5890616569864893,-1.0290823653075734
12.7329625,0.34671371414995433,-1.4191645846473169,-1.0582081523896192
12.73771734,-0.11130478036788592,-1.2451802382863113,-1.076675148709738
12.74247219,-0.557498787703115,-1.0683595113108417,-1.0840443451945003
12.74722698,-0.9896777970321587,-0.8899356589527169,-1.0799634795522326
12.75198182,-1.4058029948830741,-0.7111160176131847,-1.064170271455018
12.75673667,-1.8039989590602976,-0.5330740684751303,-1.0364949045215328
12.76149151,-2.1825637002159417,-0.35694191872854597,-0.9968617600803611
12.7662463,-2.539977002375883,-0.1838032673269328,-0.9452904100486595
12.77100115,-2.8749070322322186,-0.014686914947859016,-0.881895877311707
12.77575599,-3.1862152050813366,0.14943912999778905,-0.8068881728980051
12.78051078,-3.4729593126349037,0.3076729057436567,-0.7205711205854074
12.78526563,-3.7343949343698846,0.4591830770270455,-0.6233404814830714
12.79002047,-3.9699751694644263,0.603212814502766,-0.5156813935400921
12.79477531,-4.17934874056816,0.7390829570011743,-0.3981651437116776
12.7995301,-4.362356533592992,0.8661944492309703,-0.2714452935779313
12.80428495,-4.51902664933815,0.9840300567346407,-0.13625318252851473
12.80903979,-4.649568053085389,1.0921553687843497,0.006607163806328271
12.81379464,-4.754362917374874,1.1902191082534748,0.15626468841970037
12.81854943,-4.833957761077751,1.2779527751497943,0.3117874857282789
12.82330427,-4.889053494668848,1.355169657323248,0.4721894730325429
12.82805912,-4.9204944872796625,1.4217632477661786,0.6364375075027603
12.83281391,-4.9292567756612105,1.477705112843693,0.8034589018060725
12.83756875,-4.9164355385931575,1.5230422597032935,0.9721492878862814
12.8423236,-4.883231962543831,1.5578940540255009,1.1413807749889677
12.84707844,-4.8309396255499495,1.5824487412192396,1.3100103448234832
12.85183323,-4.760930526408641,1.5969596251804121,1.4768884238067808
12.85658807,-4.674640885433862,1.6017409588790352,1.6408675696938362
12.86134292,-4.573556841298423,1.597163600391128,1.800811207624294
12.86609776,-4.459200165923949,1.583650486617826,1.9556023487537295
12.87085255,-4.33311411603921,1.5616719748952934,2.104152223231504
12.8756074,-4.196849535924946,1.5317411000334373,2.2454087583832743
12.88036224,-4.051951321006497,1.4944087910471617,2.378364832606346
12.88511703,-3.8999453463480025,1.4502590879725163,2.5020662357237082
12.88987188,-3.742325957761196,1.3999043947209704,2.6156192673735132
12.89462672,-3.580544116207655,1.3439807989904733,2.7181979064346624
12.89938151,-3.415996278502837,1.2831434849533345,2.8090504865320747
12.90413636,-3.250014089080177,1.2180622589639545,2.887505815387313
12.9088912,-3.083854948787104,1.1494172030871908,2.9529786792503323
12.91364604,-2.9186935174064224,1.0778944660496972,3.0049746779069966
12.91840083,-2.755614196910103,1.0041821964491033,3.043094340798618
12.92315568,-2.5956046325133175,0.9289666188830836,3.067036480567734
12.92791052,-2.439550258628239,0.8529282502251674,3.0766007467932455
12.93266531,-2.2882299070688763,0.7767382506907679,3.0716893497337314
12.93742016,-2.142312485535794,0.7010549026685211,3.052307931510082
12.942175,-2.002354725618872,0.6265202095297943,3.0185655702862815
12.94692985,-1.8687999912998323,0.5537566066900249,2.970673911587138
12.95168464,-1.7419781311677514,0.48336377794331714,2.908945429803155
12.95643948,-1.6221063502545618,0.41591557137347684,2.833790831993397
12.96119432,-1.5092910705733977,0.3519570108206117,2.745715625103776
12.96594912,-1.4035307431284543,0.29200140083500487,2.6453158764959386
12.97070396,-1.304719568349606,0.23652752517940054,2.5332732061037526
12.9754588,-1.212652076539638,0.18597694116185776,2.410349056501324
12.9802136,-1.1270285149605626,0.14075137432453616,2.2773782945703243
12.98496844,-1.0474609836074513,0.10121022022618599,2.135262205150559
12.98972328,-0.9734802575129546,0.06766816219747361,1.9849609428735993
12.99447813,-0.9045432295764403,0.040392915984089936,1.827485513163574
12.99923292,-0.8400409044074779,0.019603114088617483,1.6638893570690463
13.00398776,-0.7793068705317443,0.005466344344951437,1.495259617190348
13.0087426,-0.7216261755803933,-0.0019026412188613503,1.322708163583758
13.0134974,-0.6662445268444365,-0.0024435298697480547,1.1473624592826137
13.01825224,-0.6123777378923413,0.0038481544270217035,0.970356345107488
13.02300708,-0.5592213408622192,0.016919878979654104,0.792820822876327
13.02776188,-0.5059602835552385,0.03666117562978938,0.6158749151025072
13.03251672,-0.4517786305586443,0.06290297959752145,0.4406166779021851
13.03727156,-0.3958691882925004,0.0954172543329707,0.2681144422153028
13.04202641,-0.3374429750743788,0.13391692264896857,0.0993983566443382
13.0467812,-0.2757384589901042,0.1780561239998532,-0.06454769672505907
13.05153604,-0.2100304885077233,0.2274308171178876,-0.2227937442224271
13.05629089,-0.1396388433615827,0.2815797463253864,-0.374470853125079
13.06104568,-0.06393633627662147,0.33998578868586427,-0.5187776901642169
13.06580052,0.017643600375524555,0.4020776977017312,-0.6549864440535991
13.07055536,0.10559990487152641,0.4672322574622788,-0.7824480531519762
13.07531016,0.20035751071380556,0.5347768589476419,-0.9005966828306765
13.080065,0.302261657739511,0.6039925075635828,-1.0089534009996117
13.08481984,0.4115729364302376,0.6741172678924063,-1.1071290045361244
13.08957464,0.5284631060922627,0.744350148080886,-1.1948259539702502
13.09432948,0.6530117212653586,0.8138554222336299,-1.271839378526603
13.09908432,0.7852035941914762,0.8817673846325758,-1.3380571184520942
13.10383912,0.9249271144821968,0.947195524568996,-1.3934587773012075
13.10859396,1.0719734402902297,1.0092301050780652,-1.4381137662899437
13.1133488,1.2260365684141883,1.066948122958318,-1.4721783402422897
13.11810365,1.3867142840651916,1.1194196212853842,-1.495891652262439
13.12285844,1.55350998467839,1.1657143195141217,-1.5095708884186214
13.12761328,1.7258353660674035,1.2049085206541599,-1.5136055760265865
13.13236813,1.9030139530192243,1.2360922502694112,-1.5084511823008462
13.13712292,2.0842854497535535,1.2583765783090097,-1.494622132337789
13.14187776,2.2688108784972547,1.2709010719123275,-1.4726843791839719
13.1466326,2.455678467077892,1.2728413251530055,-1.443247657663253
13.1513874,2.643910239347721,1.2634165100472157,-1.4069575500712876
13.15614224,2.8324692556912985,1.2418968919725233,-1.364487486896755
13.16089708,3.020267444922857,1.2076112519004416,-1.3165307997767777
13.16565188,3.206173963498873,1.1599541575348897,-1.2637929370135568
13.17040672,3.38902401307906,1.0983930255629968,-1.2069839441377062
13.17516156,3.56762804300052,1.022474917736128,-1.1468113031607103
13.17991636,3.740781260151336,0.9318330143557801,-1.083973214308577
13.1846712,3.9072733650439657,0.826192709868485,-1.0191523932051625
13.18942604,4.0658984296278495,0.7053772765843319,-0.9530104447412745
13.19418083,4.215464829600612,0.5693130439170712,-0.8861828623157927
13.19893568,4.354805141763335,0.41803404188559795,-0.8192746878919351
13.20369052,4.482785915444527,0.2516860588154166,-0.75285685453811
13.20844531,4.598317226355942,0.07053006417178238,-0.6874632190133533
13.21320016,4.700361921621353,-0.12505505175477966,-0.6235882777245403
13.217955,4.787944466294792,-0.3345704689222336,-0.5616855452508405
13.22270984,4.860159304558531,-0.5573962062657647,-0.502166560853173
13.22746464,4.916178652971329,-0.7927907139636391,-0.44540047526890963
13.23221948,4.95525964850959,-1.0398913335117819,-0.3917141579935443
13.23697432,4.9767507804856965,-1.2977156673809005,-0.34139275461653423
13.24172912,4.980097542508841,-1.5651638964508094,-0.29468061552022157
13.24648396,4.9648472483968025,-1.8410220787472664,-0.2517825135050873
13.2512388,4.930652964502311,-2.123966457442254,-0.21286507180367134
13.2559936,4.877276520488933,-2.4125687998771044,-0.17805833696283763
13.26074844,4.804590571122582,-2.705302782603181,-0.1474574500513792
13.26550328,4.7125796927248516,-3.000551429880977,-0.12112438783285473
13.27025807,4.601340509047449,-3.2966156043600003,-0.09908975742111346
13.27501292,4.471080852154487,-3.5917235385026305,-0.08135463258610566
13.27976776,4.322117974401195,-3.884041383647613,-0.06789241993672657
13.28452255,4.1548758378948225,-4.171684740521581,-0.0586507419499211
13.2892774,3.9698815180165568,-4.452731120656411,-0.05355332337359087
13.29403224,3.767760767604239,-4.725233272740901,-0.05250186860254018
13.29878703,3.5492327979658773,-4.987233291653487,-0.055377919839255475
13.30354188,3.315104341617005,-5.236777411099579,-0.0620446883468713
13.30829672,3.0662630691732566,-5.471931363843477,-0.07234885311215898
13.31305151,2.803670439048625,-5.6907961770283855,-0.08612232239276268
13.31780636,2.5283540635897244,-5.891524254637977,-0.10318395394667015
13.3225612,2.2413996791945086,-6.072335585391258,-0.12334122949560329
13.32731599,1.9439428109625096,-6.23153390283803,-0.1463918785199012
13.33207083,1.637160224568786,-6.367522615579261,-0.1721254461555249
13.33682568,1.3222612593795053,-6.478820319681131,-0.20032479994895339
13.34158047,1.0004791373817679,-6.56407570267326,-0.2307675705072218
13.34633531,0.673062342351523,-6.622081649156936,-0.2632275215201379
13.35109016,0.3412661629012128,-6.651788362128187,-0.2974758451104516
13.35584495,0.0063444916788077165,-6.652315321759205,-0.3332823789578102
13.36059979,-0.33045802898608057,-6.622961914636303,-0.37041674216571624
13.36535464,-0.66791342739367,-6.563216581274121,-0.4086493873819704
13.37010943,-1.0048173047964097,-6.47276434793622,-0.44775256715345335
13.37486427,-1.3399951406814765,-6.351492630092907,-0.48750121277631686
13.37961912,-1.6723079284156455,-6.199495218835982,-0.5276737239029042
13.38437391,-2.000657076896903,-6.017074387721144,-0.5680526668321357
13.38912875,-2.323988523959032,-5.804741085124663,-0.6084253786833106
13.3938836,-2.641296019128268,-5.5632132054055266,-0.6485844734698167
13.39863839,-2.9516235467133076,-5.293411959972232,-0.6883282445094793
13.40339323,-3.2540668749024753,-4.9964563957695285,-0.727460956217549
13.40814802,-3.547774232412922,-4.6736561327934565,-0.7657930186552147
13.41290287,-3.83194613117014,-4.326502413232089,-0.8031410421757145
13.41765771,-4.105834371137589,-3.9566575722678796,-0.8393277776278834
13.4224125,-4.368740281009977,-3.5659430545574717,-0.8741819577399561
13.42716734,-4.620012265088566,-3.1563261115379184,-0.9075380640500411
13.43192219,-4.859042741549695,-2.729905323802309,-0.9392360486639197
13.43667698,-5.085264570141298,-2.2888951004502838,-0.969121040905333
13.44143182,-5.298147077940163,-1.83560931377035,-0.9970430666831492
13.44618667,-5.497191800044162,-1.3724442327552038,-1.0228568045180872
13.45094146,-5.6819280578368945,-0.9018609225632804,-1.0464213977119419
13.4556963,-5.851908500703217,-0.4263672789209513,-1.0676003377729941
13.46045115,-6.006704737871521,0.05150013350010258,-1.0862614303080358
13.46520594,-6.1459031855941895,0.5291942715307009,-1.102276851290709
13.46996078,-6.269101251369842,1.004175669275559,-1.1155232988468584
13.47471557,-6.375903971535415,1.4739302012196331,-1.125882243295469
13.47947042,-6.465921211403089,1.9359864019140478,-1.1332402760632785
13.48422526,-6.538765528208117,2.3879322002931054,-1.1374895563362313
13.48898005,-6.594050786476261,2.827430936865505,-1.138528353096205
13.4937349,-6.631391603045524,3.2522365433830247,-1.1362616796262197
13.49848974,-6.650403684943965,3.6602077768834804,-1.130602017601502
13.50324453,-6.6507051077133825,4.049321412986884,-1.121470128307385
13.50799938,-6.631918564694889,4.41768431675494,-1.1087959490169783
13.51275422,-6.593674599440237,4.763544323082668,-1.0925195727633548
13.51750901,-6.535615814045418,5.085299872277312,-1.072592309352554
13.52226386,-6.457402026149363,5.381508360018036,-1.0489778243327563
13.5270187,-6.358716326969529,5.6508931741321415,-1.021653350789813
13.53177349,-6.239271972455298,5.892349403448301,-0.9906109664402463
13.53652833,-6.098820019858179,6.10494821628736,-0.9558589257444107
13.54128313,-5.937157603202834,6.2879399178175985,-0.9174230338514706
13.54603797,-5.754136723771124,6.440755706414542,-0.8753480462660743
13.55079281,-5.549673416256953,6.563008159198719,-0.8296990753092433
13.55554761,-5.323757138148584,6.6544904859530964,-0.7805629818051564
13.56030245,-5.076460219490584,6.715174598535795,-0.7280497279901137
13.56505729,-4.807947202682686,6.745208049632871,-0.6722936654119301
13.56981208,-4.518483897468864,6.744909900234726,-0.6134547295676196
13.57456693,-4.208445974735781,6.714765579633419,-0.5517195112389084
13.57932177,-3.8783269240901164,6.655420805147104,-0.4873021729942244
13.58407656,-3.528745204310868,6.567674631328215,-0.4204451782299499
13.58883141,-3.160450422578435,6.452471700247764,-0.35141979951827684
13.5935862,-2.7743283877869156,6.3108937656973305,-0.28052637297643457
13.59834104,-2.3714048951568922,6.1441505649280055,-0.2080942659013174
13.60309589,-1.9528481136423645,5.9535701119566005,-0.13448152603808927
13.60785068,-1.519969464067991,5.740588486603937,-0.060074182580774904
13.61260552,-1.0742228942985972,5.506739193354292,0.01471482865531873
13.61736037,-0.6172024777681235,5.253642163880743,0.089447140486592
13.62211516,-0.15063828311068478,4.982992476692549,0.1636608510376584
13.62687,0.3236095148212777,4.696548866842248,0.23687285858523088
13.63162479,0.8035582888469454,4.396122097992994,0.30858164639223307
13.63637964,1.287112360487037,4.0835632684046,0.37827052376698334
13.64113448,1.7720741058870595,3.7607521215696957,0.4454113233317121
13.64588927,2.2561566997392526,3.429585431337456,0.5094685475792761
13.65064412,2.7369984057903056,3.0919655303966875,0.5699039502547184
13.65539896,3.212178298514056,2.749789049905667,0.6261815299320311
13.66015375,3.6792332774700585,2.404935936763763,0.6777729043199656
13.6649086,4.135676214173176,2.059258813407554,0.724163024166295
13.66966339,4.579015051263978,1.7145727429639048,0.7648561748829111
13.67441823,5.006772655561341,1.3726454599822981,0.7993822019452277
13.67917307,5.416507210308853,1.035188123663407,0.8273028826762994
13.68392787,5.805832917771062,0.70384664635326,0.8482183525066568
13.68868271,6.172440771634359,0.38019364495525454,0.8617734789813004
13.6934375,6.5141191499568665,0.06572105678841472,0.8676640630337858
13.69819234,6.828773974342958,-0.23816654555933328,0.8656427363959498
13.70294719,7.114448180151209,-0.5301579132513626,0.8555244190200738
13.70770198,7.369340246136418,-0.8090403341951212,0.8371912035408785
13.71245682,7.5918215399235836,-1.0737040866104193,0.8105965464048475
13.71721167,7.780452248021473,-1.3231461254725432,0.7757686664333094
13.72196646,7.9339956758456855,-1.556472999509069,0.7328130780108394
13.7267213,8.051430724697013,-1.772903002232737,0.6819142133442618
13.7314761,8.13196237871264,-1.971767567210872,0.6233361124367828
13.73623094,8.175030064579559,-2.1525119253733025,0.55742217855322
13.74098578,8.18031377877808,-2.314695050182363,0.4845940109671654
13.74574057,8.147737909887143,-2.457988924306848,0.40534933676192775
13.75049542,8.077472716252869,-2.5821771685019317,0.32025907071982135
13.75525021,7.969933451952616,-2.6871530793012655,0.22996353799140792
13.76000505,7.825777166479236,-2.772917126592331,0.13516789914000804
13.7647599,7.645897235591552,-2.8395739649079186,0.036636821954673146
13.76951469,7.431415711563703,-2.887329013039974,-0.06481155041318146
13.77426953,7.183673609641839,-2.91648465512001,-0.16831227963948067
13.77902438,6.904219272937564,-2.9274361125094654,-0.27296089892535785
13.78377917,6.594794979467172,-2.920667029816589,-0.3778211974009219
13.78853401,6.257321972040524,-2.8967448104526743,-0.4819334462057437
13.7932888,5.893884104033927,-2.8563157279437417,-0.5843229830678673
13.79804365,5.506710302021172,-2.8000998295452546,-0.6840090655003451
13.80279849,5.098156050466213,-2.72888563960047,-0.7800138969481879
13.80755328,4.670684105063946,-2.643524662649963,-0.871371725977706
13.81230813,4.2268446405781255,-2.544925681472255,-0.9571379166659116
13.81706292,3.769255036529626,-2.4340488435049004,-1.0363978893377663
13.82181776,3.3005794998937223,-2.3118995304309733,-1.1082758345901595
13.8265726,2.823508718110122,-2.1795220097087538,-1.1719431088302892
13.8313274,2.340739728381518,-2.0379928729541295,-1.226626224365133
13.83608224,1.8549561806567398,-1.8884142739529644,-1.2716143502277757
13.84083703,1.3688091619249607,-1.7319069884385447,-1.3062662424130187
13.84559188,0.8848987384112698,-1.5696033283380515,-1.3300165271524396
13.85034672,0.40575635995371023,-1.4026399543479309,-1.3423812714383532
13.85510151,-0.06617174256331727,-1.2321506413369403,-1.3429627914413664
13.85985636,-0.5285400500817374,-1.0592590599082903,-1.3314536683261606
13.86461115,-0.9791180367801965,-0.8850716435616071,-1.3076399576933815
13.86936599,-1.415803153612754,-0.710670614062288,-1.271403590803239
13.87412078,-1.8366324432241474,-0.5371072381912865,-1.2227239728260144
13.87887563,-2.2397927311602928,-0.365395387552255,-1.1616787870482275
13.88363047,-2.623629353667031,-0.19650547002569113,-1.088444015922473
13.88838526,-2.98665339722718,-0.03135879709498145,-1.0032931913748844
13.8931401,-3.3275474392278306,0.12917755419037066,-0.9065958885910683
13.89789495,-3.645169792743694,0.2842953322939972,-0.7988154798193483
13.90264974,-3.938557271330515,0.4332491103440708,-0.6805061675107426
13.90740458,-4.206926501878906,0.5753596565596452,-0.5523093192134977
13.91215938,-4.449673824888534,0.7100166480328324,-0.4149491299294474
13.91691422,-4.666373831870463,0.8366807093635165,-0.269227641050994
13.92166906,-4.856776598874301,0.9548847674119728,-0.11601914849396128
13.92642386,-5.020803683333799,1.064234723387429,0.043735963822318355
13.9311787,-5.158542958565022,1.1644094534626415,0.20903792547812777
13.93593349,-5.270242366403412,1.2551601589033163,0.37883477291745765
13.94068833,-5.356302673701113,1.3363090960982105,0.5520299881852914
13.94544313,-5.417269322785616,1.4077477256286668,0.7274905332667605
13.95019797,-5.453823469550356,1.4694343274010633,0.9040552270354785
13.95495281,-5.466772305630817,1.5213911357020942,1.080543408648264
13.9597076,-5.4570387631176915,1.5637010536971925,1.2557638281232442
13.96446245,-5.425650701459579,1.5965040112930413,1.4285237018546482
13.96921724,-5.373729676606313,1.6199930333745445,1.5976378680014196
13.97397208,-5.3024793920611195,1.6344100871795324,1.7619379740725336
13.97872688,-5.213173930400919,1.6400417779882712,1.9202816266454794
13.98348172,-5.107145862077022,1.6372149613946354,2.071561431039524
13.98823656,-4.985774326025504,1.6262923382179306,2.2147138469957657
13.99299136,-4.850473173875334,1.6076680946384188,2.3487277850859836
13.9977462,-4.702679266360692,1.5817636454227768,2.4726528677865387
14.00250099,-4.5438410068809185,1.5490235321790733,2.5856072790271765
14.00725583,-4.3754071929425455,1.5099115215027281,2.6867851266891605
14.01201068,-4.198816261420497,1.464906939765547,2.7754632441349
14.01676547,-4.015485998200355,1.4145012723722195,2.85100735956315
14.02152031,-3.8268037768677288,1.3591950458744329,2.912877565932479
14.02627511,-3.634117384759678,1.2994950017677107,2.9606330294451726
14.03102995,-3.438726487930418,1.2359115614808704,2.9939358811247185
14.03578474,-3.24187477944865,1.168956573350444,3.0125542437945247
14.04053958,-3.044742848019407,1.0991413245662036,3.0163643556715765
14.04529443,-2.8484417963564126,1.0269747944563064,3.0053517616461947
14.05004922,-2.654007631209232,0.9529621202606582,2.979611553839377
14.05480406,-2.462396439653348,0.8776032428234548,2.939347653842068
14.05955886,-2.2744803593170433,0.8013916974134921,2.8848711397763203
14.0643137,-2.0910443437335564,0.7248135140610188,2.8165976316964736
14.06906849,-1.9127837180316725,0.6483461922412137,2.7350437587250256
14.07382333,-1.7403025147609632,0.5724577162744386,2.640822740666874
14.07857818,-1.5741125747989402,0.4976055802789516,2.5346391256937246
14.08333297,-1.4146333939435751,0.42423579472053713,2.417282734043362
14.08808781,-1.262192691828798,0.3527818503719234,2.2896218654840843
14.09284261,-1.1170276760773608,0.2836636196503782,2.152595835454299
14.09759745,-0.9792869710441341,0.21728617969134548,2.0072069111846753
14.10235224,-0.8490331771035344,0.1540385460090534,1.8545117246255385
14.10710708,-0.7262460232626566,0.09429231008565554,1.6956122435179815
14.11186193,-0.6108260730326303,0.0384001786342563,1.5316463853716706
14.11661672,-0.5025989410533491,-0.013305583471345205,1.3637783614152075
14.12137156,-0.4013199759929121,-0.06051480057753296,1.1931888388161658
14.12612636,-0.30667936374006455,-0.10294111416584191,1.0210650097426643
14.1308812,-0.21830760384909864,-0.14032377810488653,0.8485906553011141
14.13563599,-0.13578131153222875,-0.17242950500831247,0.6769362911753676
14.14039083,-0.05862929715563877,-0.1990543448644086,0.5072494800300791
14.14514563,0.01366112490137264,-0.22002557495690395,0.3406453935307273
14.14990047,0.08163764611494366,-0.23520357841105197,0.17819770428166729
14.15465531,0.14587634040696623,-0.24448368745229482,0.02092988520522441
14.15941011,0.20697495538407995,-0.24779796661817904,-0.13019300902487121
14.16416495,0.2655461661355193,-0.24511691067675156,-0.27427200688384107
14.16891974,0.32221083949549306,-0.23645103184101784,-0.41048126274686575
14.17367458,0.37759135661252025,-0.22185231100145228,-0.5380744123539848
14.17842938,0.4323050414667965,-0.20141548810457555,-0.6563901795155004
14.18318422,0.486957742558424,-0.17527916746286962,-0.7648571766332654
14.18793901,0.542137614279039,-0.14362671466517116,-0.8629978460671802
14.19269386,0.5984091434109979,-0.10668692284545996,-0.9504314941962247
14.1974487,0.6563074647221779,-0.06473442735373296,-1.0268763750967789
14.20220349,0.716333007709125,-0.018089849367411374,-1.0921507859279431
14.20695833,0.778946514158938,0.03288034929549,-1.1461731413575278
14.21171313,0.8445644632796927,0.087764315947163,-1.188961000370182
14.21646797,0.9135549375087505,0.14610557500897337,-1.2206290277622704
14.22122276,0.9862339574902288,0.20740412549004175,-1.2413858880034652
14.2259776,1.0628623090381315,0.2711178768142001,-1.2515300930539464
14.23073245,1.1436428785441048,0.33666442939998004,-1.2514448558521245
14.23548724,1.22871850697608,0.40342320409522187,-1.2415920312524609
14.24024208,1.318170366976658,0.4707379225126129,-1.222505250204955
14.24499688,1.4120168628106944,0.5379194385089948,-1.1947823686285213
14.24975172,1.5102130488605738,0.6042489194046234,-1.1590773608099776
14.25450651,1.6126505587496507,0.6689813739199173,-1.1160917904579326
14.25926136,1.71915803382392,0.7313495221128221,-1.0665659925627708
14.26401615,1.829502036642818,0.7905680007645836,-1.0112700970633253
14.26877099,1.9433884324243518,0.8458378956463037,-0.9509950215894323
14.27352578,2.0604642191510045,0.8963515898810306,-0.8865435555268051
14.27828063,2.180319785285349,0.9412979151886979,-0.8187216514637201
14.28303547,2.3024915726828175,0.9798675901667404,-0.7483300327818017
14.28779026,2.426465121157632,1.0112589269256254,-0.6761562177766566
14.2925451,2.551678470066274,1.0346837843787202,-0.602967051274634
14.2972999,2.677525891081733,1.0493737433018488,-0.5295018243110678
14.30205474,2.8033619249992685,1.0545864749613054,-0.4564660511512967
14.30680953,2.9285056939869474,1.049612271691255,-0.38452596091045976
14.31156438,3.052245459263009,1.0337807042981269,-0.3143037484456668
14.31631917,3.173843392843781,1.0064673675747646,-0.2463736162586622
14.32107401,3.2925405308483655,0.9671006714977468,-0.18125862604603582
14.3258288,3.4075618749580605,0.9151686318252708,-0.11942836541023015
14.33058365,3.5181216081135616,0.8502256097784343,-0.06129742218402457
14.33533849,3.6234283905129727,0.7718989462632108,-0.007224645860322505
14.34009328,3.7226907025623106,0.6798954317099906,0.04248683721195367
14.34484813,3.8151222026780127,0.5740075481834388,0.0875889008096546
14.34960292,3.8999470696681637,0.45411941614551865,0.1278870460960192
14.35435776,3.976405301583172,0.320212374413,0.16323844862450657
14.35911255,4.043757945055562,0.17237011875130123,0.1935495046752436
14.3638674,4.101292230824956,0.010783322479967848,0.21877296474560384
14.36862219,4.148326591981105,-0.16424633838200084,0.2389047470578112
14.37337703,4.184215541158575,-0.35230283252457106,0.2539805236176662
14.37813182,4.208354381396224,-0.5528531689839744,0.264072163790831
14.38288667,4.220183722917875,-0.765245614490139,0.26928410639382633
14.38764146,4.219193775331259,-0.9887088032034875,0.26974971520100227
14.3923963,4.204928382365153,-1.2223518060865193,0.26562765959201545
14.39715115,4.17698876469887,-1.465165222927569,0.25709835425140515
14.40190594,4.135036935819681,-1.7160233548066246,0.24436048861714854
14.40666078,4.07879875618017,-1.9736875083552778,0.2276276759585053
14.41141557,4.008066592239842,-2.2368104752970126,0.20712525153829883
14.41617042,3.922701549324268,-2.5039422212529248,0.1830872479468958
14.42092521,3.8226352506735406,-2.7735368065030386,0.15575357266141582
14.42568005,3.7078711395490784,-3.0439605482222483,0.12536740803735863
14.43043484,3.5784852866413237,-3.3135014186618217,0.09217284773766451
14.43518969,3.434626690922617,-3.580379656903568,0.05641277701447984
14.43994448,3.276517068085162,-3.842759553351331,0.01832699843044004
14.44469932,3.104450126425375,-4.098762346335725,-0.021849399595133417
14.44945412,2.9187903353164275,-4.3464801494987615,-0.06388743633091158
14.45420896,2.7199711963187516,-4.583990807488093,-0.10756539997953429
14.45896375,2.5084930317404823,-4.809373556478241,-0.15266978192661812
14.4637186,2.2849203103407767,-5.020725345742529,-0.19899598863754914
14.46847339,2.049878535068801,-5.216177657545719,-0.24634883541747485
14.47322823,1.804050723320274,-5.393913645642268,-0.2945428265208603
14.47798302,1.5481735160652808,-5.552185398258443,-0.34340222742803705
14.48273786,1.2830329580531719,-5.689331120154239,-0.39276093766865244
14.48749266,1.00945999670834,-5.803792020629801,-0.4424621762244154
14.4922475,0.728325751932607,-5.894128690435985,-0.4923579957880993
14.49700229,0.4405366126958522,-5.9590367506150645,-0.5423086462778075
14.50175714,0.14702921912316314,-5.9973615604100825,-0.592181811344232
14.50651198,-0.1512346090722795,-6.008111779585236,-0.6418517437918418
14.51126677,-0.4532729354646513,-5.990471592794362,-0.6911983268365797
14.51602162,-0.7580886980128781,-5.943811419929061,-0.7401060881252897
14.52077641,-1.0646745655182004,-5.867696956470176,-0.7884631926311394
14.52553125,-1.3720175980122817,-5.761896411443887,-0.8361604389976374
14.53028604,-1.6791036525110727,-5.626385837201747,-0.88309028165083
14.53504089,-1.9849214800032438,-5.461352474272486,-0.9291458980649188
14.53979568,-2.288466465525813,-5.267196065131851,-0.9742203170051494
14.54455052,-2.588743970554188,-5.044528121905273,-1.0182056194483082
14.54930531,-2.8847722454938713,-4.794169163705967,-1.0609922192911685
14.55406016,-3.1755848896512,-4.517143968536357,-1.1024682260988823
14.55881495,-3.4602328466168184,-4.214674911596314,-1.142518887569024
14.56356979,-3.7377859345307116,-3.8881734857084553,-1.1810261064211558
14.56832458,-4.007333923197563,-3.53923011973634,-1.2178680270048272
14.57307943,-4.267987183229365,-3.1696024269343015,-1.252918692107334
14.57783422,-4.518876945660281,-2.7812020272648357,-1.286047778808754
14.58258906,-4.75915522294552,-2.376080096584252,-1.3171204303221185
14.58734386,-4.9879944532447205,-1.9564118022073451,-1.3459972054100302
14.5920987,-5.204586939099976,-1.5244797894649291,-1.3725341670575648
14.59685349,-5.408144158973507,-1.0826568877752487,-1.3965831283840529
14.60160833,-5.597896035551263,-0.6333882074375684,-1.4179920678732962
14.60636313,-5.773090248160053,-0.17917279966438063,-1.4366057193940875
14.61111797,-5.932991678030182,0.277454947855574,-1.4522663362735597
14.61587276,-6.076882074462271,0.7339440094149507,-1.464814623586332
14.62062761,-6.204060027266715,1.1877453468033732,-1.4740908292209964
14.6253824,-6.313841326207601,1.636330300029582,-1.4799359822722016
14.63013724,-6.405559781703607,2.077208588087061,-1.4821932666810291
14.63489203,-6.478568572859435,2.507945772773096,-1.4807095183808086
14.63964688,-6.532242179189709,2.9261800480902704,-1.4753368349855096
14.64440167,-6.565978941291679,3.329638228446546,-1.465934287834388
14.64915651,-6.5792042832946205,3.7161508205182736,-1.452369726675057
14.6539113,-6.571374616196254,4.083666076027721,-1.4345216672591876
14.65866615,-6.541981926263849,4.430262935593086,-1.4122812515625356
14.66342094,-6.490559036696444,4.754162787030082,-1.3855542692029439
14.66817578,-6.41668551396982,5.053739974838675,-1.3542632269470287
14.67293057,-6.319994173028724,5.327531010940136,-1.3183494510535132
14.67768542,-6.20017811808511,5.574242449905161,-1.2777752047223145
14.68244021,-6.056998238569938,5.792757404815231,-1.2325258002396156
14.68719505,-5.890291063131593,5.982140692409527,-1.1826116826674995
14.69194985,-5.699976858883555,6.14164260815739,-1.1280704592612667
14.69670469,-5.48606784885096,6.270701343212692,-1.0689688463389393
14.70145948,-5.248676408270962,6.368944065694591,-1.0054045031764471
14.70621432,-4.988023090562987,6.436186698251167,-0.9375077207114225
14.71096912,-4.7044443267807,6.472432432277957,-0.8654429314145383
14.71572396,-4.398399638379435,6.477869026406115,-0.7894100056248448
14.72047875,-4.070478202186725,6.452864942924445,-0.7096452989833458
14.7252336,-3.721404608440531,6.3979643806997775,-0.6264224154381912
14.72998839,-3.3520436575374,6.31388126702284,-0.5400526507552447
14.73474323,-2.9634040486335347,6.201492273798664,-0.4508850826301297
14.73949802,-2.5566408234182103,6.061828925812002,-0.35930627538177323
14.74425287,-2.133056441157075,5.896068870611045,-0.26573956978189184
14.74900766,-1.6941003763466442,5.705526381022245,-0.17064393178152087
14.7537625,-1.241367147840583,5.491642162560875,-0.07451233768424281
14.75851729,-0.7765927078849146,5.2559725391319025,0.02213032232306046
14.76327214,-0.30164914088887645,5.000178091488953,0.11872983540961701
14.76802693,0.18146235533994823,4.726011823966559,0.21470575965884373
14.77278177,0.6706202091294707,4.435306936024208,0.3094550213303023
14.77753656,1.1635929137137733,4.129964276130228,0.40235601053714654
14.78229141,1.6580511185818805,3.8119395564675806,0.49277316294106455
14.7870462,2.1515813015604275,3.4832304078661322,0.5800620075711298
14.79180104,2.641700924849772,3.145863355240688,0.6635746530085295
14.79655583,3.1258749539482724,2.8018807945809945,0.7426656759174312
14.80131068,3.6015335952650345,2.4533280530984465,0.8166983671604107
14.80606547,4.0660910867298705,2.1022406143661314,0.8850512813959908
14.81082026,4.5169653562283685,1.7506315900767506,0.9471250260126612
14.8155751,4.951598345437049,1.4004795192689299,1.0023492144897745
14.82032995,5.367476781754677,1.0537165744028412,1.0501894979226387
14.82508474,5.762153168704359,0.7122172513434906,1.090154576851073
14.82983953,6.133266755694939,0.37778761697679647,1.1218030843403475
14.83459438,6.478564241730567,0.05215518375090076,1.1447502215817063
14.83934917,6.795919964881875,-0.2630405250205144,1.1586740207279524
14.84410401,7.083355330290396,-0.5662566614393031,1.1633211082079686
14.8488588,7.339057234191963,-0.8560549397111671,1.1585118470864186
14.85361365,7.5613952498434145,-1.1311086784950275,1.1441447498315354
14.85836844,7.748937353372796,-1.3902089605587453,1.1202000721572296
14.86312328,7.900463983740861,-1.6322698781307152,1.0867425218477436
14.86787807,8.014980251516297,-1.8563328399652916,1.0439230403326953
14.87263292,8.091726135895042,-2.061569924962537,0.99197963639282
14.87738771,8.130184537462998,-2.2472862770845237,0.9312372691658078
14.88214255,8.130087084232859,-2.4129215468167047,0.8621067913346177
14.88689735,8.09141761920766,-2.558050394922672,0.7850829735580246
14.89165219,8.014413328455431,-2.6823820841858232,0.7007416386399694
14.89640698,7.899563499305205,-2.785759193806382,0.6097359394403222
14.90116182,7.747605928809431,-2.868155498792053,0.5127918188993662
14.90591662,7.5595210328033104,-2.929673062717891,0.4107026945380734
14.91067141,7.336523735127516,-2.970538596320311,0.3043234140350439
14.91542625,7.080053244110084,-2.9910991363087343,0.19456353336568044
14.92018104,6.791760848490598,-2.9918170984700465,0.08237997464016876
14.92493589,6.473495886968514,-2.973264756750303,-0.031230872924193125
14.92969068,6.127290063965313,-2.9361181959058733,-0.1452415387963343
14.93444552,5.755340298786581,-2.881150780194639,-0.2586022669512773
14.93920031,5.3599903063372825,-2.809226175391465,-0.3702501388332659
14.94395516,4.943711115387712,-2.721290957259511,-0.47911843545188365
14.94870995,4.50908073564512,-2.618366837412068,-0.5841461470101001
14.95346479,4.058763187849016,-2.501542537718456,-0.6842875367788331
14.95821958,3.5954871118046876,-2.3719653469788753,-0.7785216661032188
14.96297443,3.122024165653321,-2.2308323981092286,-0.8658617887551413
14.96772922,2.641167425777238,-2.0793817100338403,-0.9453645241727655
14.97248401,2.155709990652239,-1.9188830454204722,-1.0161387194462785
14.97723886,1.6684239838183355,-1.7506286428755429,-1.0773539089378952
14.98199365,1.1820401411697932,-1.5759238897597996,-1.1282482787923709
14.98674849,0.699228156333832,-1.3960780087839817,-1.1681360431142955
14.99150328,0.22257794544458037,-1.2123948372861857,-1.1964141425254624
14.99625813,-0.24541802055728398,-1.0261637818309126,-1.212568187413464
15.00101292,-0.7023811817901588,-0.8386510319229724,-1.2161775873187575
15.00576776,-1.1460620338062484,-0.651091115032686,-1.2069198298925337
15.01052255,-1.5743538465585967,-0.4646788711253471,-1.184573891813487
15.0152774,-1.9853048708872778,-0.28056191915138823,-1.149022776978039
15.02003219,-2.377128963014015,-0.09983368118139162,-1.1002551846291342
15.02478703,-2.748214575199266,0.07647297745256305,-1.038366313895866
15.02954182,-3.0971320779908877,0.24739144132448287,-0.9635578134795435
15.03429662,-3.4226393961928556,0.41202632876768186,-0.8761368872539156
15.03905146,-3.7236859568147818,0.5695577323602866,-0.7765145689143872
15.04380625,-3.999414962830409,0.719244691156453,-0.6652031815903593
15.0485611,-4.249164021477852,0.8604278795151615,-0.5428130014353464
15.05331589,-4.472464169896501,0.9925315075350367,-0.4100481475709835
15.05807073,-4.6690373539222145,1.1150644384339699,-0.26770172440107526
15.06282552,-4.838792427728646,1.2276205384422498,-0.1166502462748034
15.06758037,-4.981819752692054,1.329878284650227,0.04215262123620789
15.07233516,-5.098384483422163,1.4215996655381915,0.20768296464260486
15.07709,-5.188918637384955,1.5026284174092561,0.3788541269230668
15.08184479,-5.254012051930128,1.572887647456318,0.5545247647072326
15.08659958,-5.294402338762189,1.6323769005672442,0.7335074051271464
15.09135443,-5.310963950884777,1.681168732106957,0.9145774443124127
15.09610922,-5.304696480755341,1.7194048527639283,1.096482524589498
15.10086406,-5.276712310820472,1.7472919141073746,1.2779522225810163
15.10561886,-5.228223738847139,1.7650970047976107,1.457707975684652
15.1103737,-5.160529700670526,1.773142927465809,1.6344731699629063
15.11512849,-5.075002212287506,1.7718033251541168,1.8069833084237905
15.11988333,-4.973072651704829,1.7614977238787835,1.973996175144276
15.12463813,-4.856217998604008,1.7426865543482934,2.134301907802391
15.12939292,-4.725947146697324,1.7158662111837781,2.2867328890690617
15.13414776,-4.583787399633228,1.681564202261329,2.430173366102807
15.13890255,-4.431271256504288,1.6403344341823864,2.563568707203644
15.1436574,-4.269923587472773,1.5927526725573995,2.6859342055975586
15.14841219,-4.101249293819355,1.5394122079470907,2.796363342414614
15.15316703,-3.926721539898193,1.4809197501503175,2.8940354242943127
15.15792182,-3.747770637105861,1.4178915652959851,2.978222515817074
15.16267662,-3.5657736521112513,1.3509498621598155,3.048295593194684
15.16743146,-3.3820448033315493,1.2807194265679869,3.1037298533292015
15.17218625,-3.197826701068911,1.2078244959318982,3.1441091213109007
15.1769411,-3.014282477954025,1.1328858600964717,3.1691293093925137
15.18169589,-2.832488847517677,1.0565181699299735,3.1786008911090744
15.18645073,-2.653430119991544,0.979327431521011,3.1724503651853704
15.19120552,-2.4779931959679886,0.9019086614936379,3.1507206949307425
15.19596031,-2.306963550421663,0.8248436777520449,3.1135707197957787
15.20071516,-2.141022211868139,0.7486989998185054,3.0612735465583527
15.20546995,-1.9807437341351666,0.6740238337028887,2.994213938139958
15.21022479,-1.8265951513531387,0.6013481178031592,2.912884728233854
15.21497958,-1.6789359003127662,0.5311806085510415,2.817882299649521
15.21973443,-1.5380186882644673,0.46400698726362327,2.709901173451596
15.22448922,-1.4039912785264523,0.40028797283218126,2.5897277645200587
15.22924401,-1.2768991609085518,0.34045742837288795,2.4582333670047665
15.23399886,-1.1566890689208387,0.2849204536774615,2.316366440198562
15.23875365,-1.0432133009852913,0.2340514591333769,2.1651442714989066
15.24350849,-0.9362347983653792,0.18819222064627855,2.0056440982519526
15.24826328,-0.8354329282446734,0.1476499189311613,1.8389937742766038
15.25301813,-0.740409916326685,0.1126951703034081,1.6663620696946222
15.25777292,-0.6506978695330597,0.08356005975905521,1.4889486943469747
15.26252771,-0.5657663258967888,0.060436190642729135,1.307974135613629
15.26728255,-0.4850302656208962,0.04347276851489849,1.1246694009921117
15.27203735,-0.4078585145191186,0.03277473990044792,0.9402657545113015
15.27679219,-0.33358246867241415,0.02840100937881213,0.7559845341884519
15.28154698,-0.2615050671154488,0.03036276090861582,0.5730271355093647
15.28630182,-0.19090993770476936,0.038621911314682324,0.39256524350810923
15.29105662,-0.12107064001400449,0.05308972546047621,0.21573139355290064
15.29581141,-0.05125992815244685,0.07362562375826488,0.04360993844633018
15.30056625,0.01924104418457867,0.10003621332301864,-0.1227715030860814
15.30532104,0.09113365434096911,0.13207457426020242,-0.28245004404312823
15.31007589,0.16509295472276908,0.1694398323044595,-0.4345349031631531
15.31483068,0.24175910730110228,0.21177704829992317,-0.578214088427635
15.31958547,0.3217291845144783,0.25867745382282814,-0.7127603263283304
15.32434031,0.40554941073443607,0.3096790605736875,-0.8375361766773116
15.3290951,0.49370791605241104,0.3642676689899185,-0.9519982766433247
15.33384995,0.5866280710559321,0.42187829882891525,-1.0557006619735714
15.33860474,0.6846624675004578,0.481897061207513,-1.1482971178618182
15.34335953,0.7880876054037379,0.5436634876930279,-1.2295425164668239
15.34811438,0.8970993421216205,0.6064733274627724,-1.2992931028162145
15.35286917,1.011809153251364,0.6695818182779314,-1.3575056970589683
15.35762401,1.1322412482769766,0.7322074311385797,-1.4042357919844861
15.3623788,1.258330575142742,0.7935360821739431,-1.4396345444645198
15.36713365,1.3899217373456756,0.8527257988286194,-1.4639446892469061
15.37188844,1.5267688354944786,0.9089118210419598,-1.4774954389727686
15.37664328,1.668536233866516,0.9612121121944696,-1.480696467431879
15.38139807,1.8148002422089906,1.0087332493369539,-1.4740310975822115
15.38615287,1.9650516940500808,1.0505766577209288,-1.4580488301415522
15.39090771,2.118699394810663,1.0858451509161877,-1.4333573546206648
15.3956625,2.275074405658119,1.1136497348116041,-1.4006141853494185
15.40041729,2.4334351220677615,1.133116631522285,-1.3605180623985815
15.40517214,2.5929730993469438,1.1433944776140599,-1.3138002524503742
15.40992693,2.752819570907945,1.1436616499959462,-1.2612158782048175
15.41468177,2.9120525988531814,1.1331336721629361,-1.203535397129408
15.41943656,3.069704790482457,1.1110706530073278,-1.141536341425784
15.42419136,3.224771508704266,1.0767847099764332,-1.0759954211098142
15.4289462,3.376219499138153,1.029647327796373,-1.0076810811969097
15.43370099,3.5229958520766367,0.9690966032125661,-0.9373465922736717
15.43845583,3.664037213584512,0.8946443251645358,-0.8657237413275719
15.44321063,3.7982791569844156,0.8058828384928229,-0.7935171766984565
15.44796542,3.924665623913838,0.7024916376656369,-0.7213994475373359
15.45272026,4.042158343108637,0.5842436351187699,-0.650006764383652
15.45747505,4.149746135109928,0.45101104664108427,-0.5799354935986215
15.4622299,4.246454012226693,0.3027708338526177,-0.5117393845928206
15.46698469,4.331351985328906,0.1396096413038322,-0.4459275151819379
15.47173953,4.40356349239074,-0.038271836769691286,-0.3829629270746582
15.47649432,4.462273368101347,-0.23055512723009924,-0.3232619105331972
15.48124912,4.506735279181579,-0.4368009551725809,-0.267193884833007
15.48600396,4.536278556054654,-0.6564469968343789,-0.21508180963746176
15.49075875,4.5503143579093095,-0.8888064768899023,-0.1672030525275665
15.49551354,4.548341114686726,-1.133067676262731,-0.12379063130212176
15.50026839,4.529949195996159,-1.3882944124279266,-0.08503474899550235
15.50502318,4.4948247635081895,-1.6534275485895837,-0.051084547116803304
15.50977802,4.442752770215636,-1.92728758142343,-0.022050017341311717
15.51453281,4.373619077315487,-2.2085783494648465,0.0019959713555315474
15.5192876,4.287411667481956,-2.4958918956876524,0.021015560221391956
15.52404245,4.184220942008085,-2.7877145082427046,0.03500372648622085
15.52879724,4.064239098678886,-3.082433952610201,0.0439860693514444
15.53355208,3.927758597268372,-3.378347896520088,0.048016578422698214
15.53830688,3.7751697301508065,-3.673673515890319,0.04717540626552354
15.54306167,3.606957326510067,-3.9665582557052512,0.04156666438302516
15.54781651,3.4236966297003644,-4.255091704205945,0.031316258014044134
15.5525713,3.22604839800817,-4.537318522053265,0.01656977091131212
15.5573261,3.0147532889183006,-4.8112523504288225,-0.0025095921218735366
15.56208094,2.790625595638938,-5.0748906036647545,-0.025742999103876653
15.56683573,2.5545464119161485,-5.326230033361011,-0.0529379159395861
15.57159057,2.3074563070493586,-5.563282932558763,-0.08388995719045722
15.57634537,2.0503475975665317,-5.784093830944279,-0.11838465635229745
15.58110021,1.7842563053144893,-5.986756515843135,-0.15619914863308829
15.585855,1.5102538938568288,-6.169431199514845,-0.19710375856531492
15.59060979,1.2294388761645099,-6.330361641517792,-0.24086348448711567
15.59536464,0.9429283867812601,-6.467892026140599,-0.28723937212828676
15.60011943,0.6518498111098409,-6.580483389426794,-0.3359897702740056
15.60487422,0.35733256333749236,-6.666729388384605,-0.3868714626589173
15.60962906,0.0605001028993723,-6.7253712067384726,-0.4396406717130037
15.61438386,-0.23753772268205922,-6.755311397174947,-0.49405393141395737
15.6191387,-0.5356919232604043,-6.755626469546306,-0.5498688282392447
15.62389349,-0.8329011175858172,-6.725578047918272,-0.6068446110128178
15.62864828,-1.1281377124741876,-6.664622436572241,-0.6647426722031952
15.63340313,-1.4204134360997174,-6.572418455873902,-0.7233269047652829
15.63815792,-1.7087841581289527,-6.448833432959231,-0.782363939722602
15.64291271,-1.9923539372797525,-6.293947258990502,-0.8416232702072666
15.64766755,-2.2702782465116136,-6.108054453655879,-0.9008772675398526
15.65242235,-2.541766337426533,-5.891664207792839,-0.9599010942143771
15.65717719,-2.806082718479402,-5.645498405494356,-1.0184725178226874
15.66193198,-3.062547736132067,-5.370487656670831,-1.076371630171362
15.66668677,-3.310537263972604,-5.06776539864723,-1.1333804787061814
15.67144162,-3.549481521745016,-4.738660150023883,-1.1892826236651288
15.67619641,-3.778863063601954,-4.3846860212097205,-1.243862642961163
15.6809512,-3.998213991906423,-4.007531603792437,-1.2969056149066245
15.68570604,-4.207112468814257,-3.6090473756879833,-1.3481966139840103
15.69046083,-4.405178612148694,-3.1912317713342877,-1.3975202559652362
15.69521563,-4.592069874438999,-2.7562160764105257,-1.4446603263582778
15.69997047,-4.767476014247784,-2.3062483148018798,-1.489399521691573
15.70472526,-4.931113776891581,-1.8436763017768139,-1.5315193277315065
15.7094801,-5.0827214072492355,-1.3709300415335557,-1.5708000531583206
15.7142349,-5.222053120547695,-0.8905036493403996,-1.6070210319089542
15.71898969,-5.348873657926331,-0.40493697840444065,-1.6399610025036722
15.72374453,-5.462953052367413,0.08320287063866542,-1.6693986682645336
15.72849932,-5.564061727377131,0.5713399840579483,-1.6951134384264062
15.73325412,-5.651966045707305,1.056907845944102,-1.7168863467736568
15.73800896,-5.726424418509525,1.5373671665973851,-1.7345011416976748
15.74276375,-5.787184076715976,2.010223179000757,-1.7477455395731363
15.74751854,-5.833978596283602,2.473042265101111,-1.7564126321451448
15.75227339,-5.866526257371332,2.9234677858955767,-1.7603024381286916
15.75702818,-5.884529304658041,3.3592350025301854,-1.7592235892380348
15.76178302,-5.887674161912026,3.7781849895074178,-1.7529951410935065
15.76653781,-5.875632638639107,4.178277455404312,-1.7414484995830355
15.77129261,-5.8480641502578745,4.557602400986265,-1.7244294530032283
15.77604745,-5.804618955931402,4.914390559051104,-1.7018002994526131
15.78080224,-5.744942400136603,5.247022574550823,-1.6734420573726936
15.78555703,-5.668680125531461,5.554036897327876,-1.639256744831446
15.79031188,-5.575484205976559,5.834136373014042,-1.5991697102574707
15.79506667,-5.4650201299994166,6.0861935301472805,-1.5531319940986454
15.79982146,-5.336974546911492,6.309254573254571,-1.501122697552382
15.8045763,-5.191063670596123,6.502542102423838,-1.4431513312966777
15.8093311,-5.027042220123933,6.6654565896583655,-1.3792601141650889
15.81408589,-4.844712762282019,6.797576651002851,-1.309526189017545
15.81884073,-4.643935309250513,6.898658160994413,-1.2340637206900866
15.82359552,-4.424637015359429,6.968632262379163,-1.1530258388699242
15.82835031,-4.186821810321071,7.0076023292234435,-1.0666063870612743
15.83310516,-3.9305798026335794,7.015839945555634,-0.9750414375680383
15.83785995,-3.656096285936363,6.993779964563231,-0.8786105317849141
15.84261479,-3.363660182835321,6.94201471524446,-0.7776376052324963
15.84736958,-3.0536717649703253,6.8612874244059325,-0.672491557769228
15.85212438,-2.7266494947777846,6.752484922157414,-0.5635864311962392
15.85687922,-2.3832358434313674,6.6166296987427655,-0.45138115888580943
15.86163401,-2.0242019507073405,6.454871379826652,-0.33637885495348424
15.8663888,-1.6504510058396689,6.268477686381945,-0.2191256137516962
15.87114365,-1.2630202435868911,6.05882494421734,-0.10020879406603267
15.87589844,-0.863081466495708,5.827388207035636,0.019745233581044498
15.88065323,-0.45194002247734716,5.575731055773082,0.1400738935259592
15.88540807,-0.031032186081650488,5.30549513587272,0.2600817771656758
15.89016286,0.3980790879405546,5.018389493123642,0.3790445863588508
15.89491766,0.8337100492195492,4.716179767797569,0.49621364664911366
15.8996725,1.2740636633323887,4.4006773060752415,0.6108209810978585
15.90442729,1.7172387171631964,4.073728247187501,0.722084926845953
15.90918208,2.161240462662093,3.737202644254104,0.8292162671069949
15.91393693,2.6039927215791483,3.3929836763910237,0.9314248412746717
15.91869172,3.043351352335085,3.042957009152376,1.0279265853903667
15.92344651,3.47711895980055,2.6890003596569256,1.1179509445452227
15.92820136,3.9030607096837517,2.332973321717228,1.2007485880150037
15.93295615,4.318921091628685,1.9767075048509692,1.275599347124412
15.93771094,4.72244145908495,1.6219970391247804,1.3418202850799592
15.94246578,5.11137815961943,1.2705894952819818,1.3987737974377634
15.94722057,5.483521056776455,0.924177266471533,1.4458756317805752
15.95197537,5.836712234149823,0.5843894540978282,1.4826027060825813
15.95673021,6.168864664396766,0.25278429590799756,1.5085005979211963
15.961485,6.47798062091427,-0.06915783037228736,1.523190572242898
15.96623979,6.762169608151102,-0.3800407993841978,1.5263760152123917
15.97099464,7.019665588241526,-0.6785585024222045,1.5178481472680154
15.97574943,7.248843286900346,-0.963499963335897,1.4974909008432091
15.98050422,7.448233370423022,-1.2337537887971228,1.4652848669898937
15.98525906,7.6165362984592235,-1.4883119386409625,1.4213102384890386
15.99001386,7.752634674301638,-1.7262728055767018,1.3657487020447072
15.99476865,7.855603935759758,-1.9468435983847059,1.2988842558922211
15.99952349,7.9247212545923915,-2.1493420289606755,1.2211029495496104
16.00427828,7.9594725396419275,-2.3331973109952897,1.1328915586734039
16.00903307,7.959557466822583,-2.4979504861637167,1.0348352202293791
16.01378792,7.92489248702416,-2.6432541018655735,0.9276140622114076
16.01854271,7.8556117905641365,-2.7688712722976856,0.8119988688870727
16.0232975,7.752066234221808,-2.8746741615259146,0.6888458279215831
16.02805235,7.614820264164828,-2.9606419328018907,0.5590904104539058
16.03280714,7.444646894834686,-3.0268582121577334,0.4237404397700776
16.03756193,7.2425208293371,-3.0735081158599633,0.2838684089514332
16.04231677,7.00960983025376,-3.1008748903331274,0.1406031129622968
16.04707156,6.747264470331177,-3.1093362096416968,-0.004879333812985326
16.05182636,6.45700640962941,-3.099360169781262,-0.15136501757047116
16.0565812,6.14051535903433,-3.0715010113843535,-0.2976121992851882
16.06133599,5.799614899489211,-3.026394593775964,-0.44236165338871364
16.06609078,5.436257332251004,-2.9647536346393784,-0.5843472751408613
16.07084563,5.052507738582927,-2.8873627219696916,-0.7223068555828221
16.07560042,4.650527428178708,-2.795073099399712,-0.8549929188519464
16.08035521,4.232556954570226,-2.6887972228732493,-0.9811835143629626
16.08511,3.8008988727336406,-2.5695030861019124,-1.0996928566262778
16.08986484,3.3579004089040985,-2.4382083141101627,-1.209381708648089
16.09461964,2.9059362053148114,-2.295974028168429,-1.3091674102869324
16.09937448,2.447391293645051,-2.143898491195444,-1.3980334589227206
16.10412927,1.9846444409420232,-1.9831105499194681,-1.4750385545673985
16.10888406,1.520052000987179,-1.8147628983662103,-1.5393250244384469
16.11363886,1.0559323926009239,-1.640025196169084,-1.5901265439900716
16.1183937,0.5945513143847077,-1.4600770841558166,-1.6267750751275114
16.12314849,0.13810779329977466,-1.2761011477668032,-1.648706951223963
16.12790328,-0.31127884723823146,-1.089275885118664,-1.6554680540906355
16.13265813,-0.7515810252275298,-0.90076874025267,-1.6467180476957746
16.13741292,-1.1808738802484302,-0.711729263232825,-1.622233652170915
16.14216771,-1.5973451432650099,-0.5232824577708776,-1.5819109556152773
16.14692255,-1.9993038547461226,-0.3365223746260707,-1.5257667696029176
16.15167734,-2.385187901367916,-0.1525060056648967,-1.453939038601263
16.15643214,-2.753570353063316,0.02775247058592258,-1.366686315878247
16.16118698,-3.1031645933948178,0.20328704574184872,-1.26438632058513
16.16594177,-3.432828247065932,0.3731847998818316,-1.1475335933750912
16.17069656,-3.7415659188142643,0.5365903464858902,-1.0167362713077135
16.17545136,-4.028530767856946,0.6927097755704151,-0.8727120067542022
16.1802062,-4.293024951356765,0.8408140735014336,-0.7162830593849986
16.18496099,-4.534498978917422,0.9802420050955896,-0.5483705949750809
16.18971578,-4.752550027792216,1.1104024507878305,-0.3699882296115316
16.19447063,-4.946919275217186,1.2307761986804016,-0.18223486281353374
16.19922542,-5.117488310004013,1.340917198021741,0.013713152071147183
16.20398021,-5.264274690236226,1.440453286919924,0.2166104471763955
16.20873505,-5.387426717617819,1.5290864127086905,0.4251516317321763
16.21348984,-5.487217501745541,1.6065923682412298,0.6379807744631919
16.21824464,-5.564038389334085,1.6728200714501549,0.8537013113842518
16.22299943,-5.6183918342464905,1.7276904188147446,1.0708863099946586
16.22775427,-5.650883784126392,1.7711947459934332,1.2880890175566675
16.23250906,-5.662215658593863,1.803392930885739,1.5038536181592417
16.23726386,-5.653175992496617,1.8244111758221684,1.7167261206515694
16.2420187,-5.624631815768672,1.8344395064350336,1.925265297304986
16.24677349,-5.577519839195657,1.8337290250002487,2.1280535912310823
16.25152828,-5.512837512952968,1.8225889556146015,2.3237079091268833
16.25628313,-5.431634022279381,1.8013835174332,2.5108902148106544
16.26103792,-5.335001282156336,1.7705286602752137,2.6883178382690294
16.26579271,-5.224064990418611,1.730488694154344,2.8547734146362873
16.2705475,-5.099975796294613,1.6817728406877284,3.0091143677961223
16.27530234,-4.963900638865915,1.6249317299460595,3.1502818542867295
16.28005714,-4.817014307211806,1.560553861282801,3.2773090850778996
16.28481193,-4.660491270940639,1.4892620412560704,3.389328945770049
16.28956677,-4.495497826329738,1.4117098062271396,3.4855808400194936
16.29432156,-4.323184599401154,1.328577831912091,3.565416686637125
16.29907636,-4.144679443035375,1.2405703274022186,3.628306007846692
16.3038312,-3.9610807608145424,1.1484114072351663,3.673840054494436
16.30858599,-3.7734512858683873,1.0528414322056316,3.70173492332163
16.31334078,-3.582812338749763,0.9546133078921628,3.7118336314488714
16.31809557,-3.390138584438665,0.8544887294120668,3.7041071237227263
16.32285042,-3.1963533050338877,0.753234361684795,3.6786541993640394
16.32760521,-3.0023242015101306,0.6516179463855661,3.635700355308687
16.33236,-2.8088597349943334,0.5504043296421449,3.5755955546444715
16.33711485,-2.6167060152482806,0.4503514081791686,3.4988109395277367
16.34186964,-2.4265442413899914,0.35220599585517326,3.405934518819244
16.34662443,-2.238988697341958,0.25669961717466955,3.297665871313118
16.35137927,-2.054585302042096,0.16454423918727676,3.1748099157091065
16.35613406,-1.8738107120162029,0.07642795799562753,3.038269808201113
16.36088886,-1.6970719713662747,-0.006989339317157169,2.8890390374929162
16.36564365,-1.5247067014694222,-0.08508031232515181,2.728192794989715
16.37039849,-1.3569838196736905,-0.1572544757424423,2.5568787046832804
16.37515328,-1.1941047730784824,-0.2229624468971658,2.3763070027327515
16.37990807,-1.0362052702261049,-0.2817000978177564,2.187740260875704
16.38466292,-0.8833574903625646,-0.33301257564766495,1.9924827505695224
16.38941771,-0.7355727469896158,-0.376498153812886,1.7918695462019956
16.3941725,-0.5928045798142538,-0.41181187567132405,1.5872554659274791
16.39892729,-0.4549522469277936,-0.4386689522581032,1.3800039478501998
16.40368214,-0.3218645870796294,-0.4568478761896876,1.1714759576080134
16.40843693,-0.19334422018584208,-0.46619321477688036,0.9630190211538706
16.41319172,-0.06915205265611017,-0.46661804688197983,0.755956473933292
16.41794651,0.05098794734284291,-0.4581060099902417,0.5515770149184229
16.42270136,0.16738374101917988,-0.4407129263113721,0.3511246512000196
16.42745615,0.2803700143130188,-0.4145679794610971,0.15578911607002027
16.43221094,0.3903028168829461,-0.37987441638189096,-0.03330315931556427
16.43696578,0.4975540857559663,-0.33690975262473805,-0.2150974436131824
16.44172057,0.6025060962845833,-0.286025462889227,-0.38861839849406427
16.44647536,0.7055458845336917,-0.22764614274095896,-0.552976997166468
16.45123021,0.8070596864505953,-0.1622681316127384,-0.7073766020320916
16.455985,0.9074274400500522,-0.09045759147681955,-0.8511181397480749
16.46073979,1.0070173972918408,-0.012848039905381803,-0.9836043167783077
16.46549458,1.1061808922815208,0.06986265938855832,-1.1043428234818162
16.47024943,1.2052473118298999,0.15691584098761902,-1.212948479758105
16.47500422,1.304519313180353,0.24749610508453493,-1.3091442807107345
16.47975901,1.4042683317405873,0.34073589091143897,-1.3927613085927006
16.48451386,1.5047304188662873,0.4357205347994702,-1.4637374908588416
16.48926865,1.6061024462501272,0.5314937867114029,-1.5221152062110161
16.49402344,1.7085387095983458,0.6270637546299841,-1.5680377698267096
16.49877823,1.812147960390421,0.7214092421102042,-1.6017448598875486
16.50353307,1.916990890791157,0.81348644070608,-1.623566973990414
16.50828786,2.02307809318244,0.902235935849777,-1.6339190233027323
16.51304266,2.130368512188124,0.986589982054433,-1.6332931849832417
16.51779745,2.2387684034028212,1.065480001035017,-1.6222511409866989
16.52255229,2.348130809308805,1.1378442545305698,-1.601415835031974
16.52730708,2.4582555591435233,1.2026356422986575,-1.5714628799303305
16.53206188,2.5688897958295356,1.258829574956484,-1.5331117452479261
16.53681672,2.6797290294943625,1.3054318710753272,-1.4871168510331183
16.54157151,2.790418713495741,1.3414866282026707,-1.434258687646393
16.5463263,2.9005563350820385,1.3660840182758882,-1.3753350750435447
16.5510811,3.009694008715902,1.3783679591517206,-1.3111526674962926
16.55583594,3.117341555575844,1.3775436156098921,-1.2425188018733413
16.56059073,3.222970047799469,1.3628846850565872,-1.1702337793164999
16.56534552,3.326015790701001,1.3337404250902658,-1.0950836613854413
16.57010031,3.4258847106286785,1.289542381937367,-1.0178336523689677
16.57485516,3.521957110534901,1.229810780371907,-0.9392221292921776
16.57960995,3.6135927499526477,1.1541605369626171,-0.859955370060681
16.58436474,3.700136201132962,1.0623068592128726,-0.7807030181538426
16.58911958,3.7809224287910714,0.9540703932603871,-0.7020943093995191
16.59387438,3.8552825373875352,0.8293818822151193,-0.6247150728275634
16.59862917,3.9225496272754867,0.6882862959327654,-0.5491055037013389
16.60338396,3.982064699515481,0.530946391139853,-0.47575869292311584
16.6081388,4.033182548810863,0.35764565854920466,-0.40511988344586314
16.6128936,4.07527758487816,0.16879061124968814,-0.33758641135565853
16.61764839,4.107749524527263,-0.035087633368308696,-0.27350827706606684
16.62240318,4.13002889953242,-0.25333252713562165,-0.21318928069234944
16.62715802,4.141582328697438,-0.48516206913656496,-0.1568886452776655
16.63191281,4.141917506042029,-0.7296696359744279,-0.10482304237605196
16.6366676,4.130587860531198,-0.9858257091950051,-0.05716892731907342
16.6414224,4.107196846110471,-1.2524805407015613,-0.01406508829009603
16.64617724,4.071401823972391,-1.5283677919573289,0.024384682887687803
16.65093203,4.022917502058289,-1.8121091771658189,0.05810887803606549
16.65568682,3.961518900023169,-2.1022201346120393,0.0870655797293249
16.66044162,3.887043811552158,-2.397116543757875,0.11123983240700606
16.66519646,3.799394740227084,-2.6951224981120503,0.13064110955516225
16.66995125,3.6985402901677675,-2.994479134985038,0.14530090292673517
16.67470604,3.5845159983987327,-3.2933545128311907,0.1552704569450026
16.67946089,3.4574246022984334,-3.589854514978551,0.16061866864262897
16.68421568,3.3174357425254715,-3.882034745229912,0.1614301688664414
16.68897047,3.1647851093050026,-4.16791336618336,0.15780359397515092
16.69372526,2.999773047542222,-4.445484815287765,0.1498500501926587
16.69848005,2.822762643471921,-4.712734316812979,0.13769176679467254
16.7032349,2.634177322119127,-4.967653090388052,0.12146093035853889
16.70798969,2.4344979906215207,-5.2082541389812205,0.10129869036840838
16.71274448,2.2242597675218896,-5.432588481695654,0.0773543258975472
16.71749927,2.0040483426043183,-5.638761680119451,0.049784563131888095
16.72225412,1.7744960157839762,-5.824950491798117,0.01875303355959489
16.72700891,1.5362774669291983,-5.989419471290543,-0.015570137662067331
16.7317637,1.290105311197185,-6.1305373287938805,-0.05300862457667825
16.73651854,1.0367254964260126,-6.246792848975162,-0.09338008758570306
16.74127333,0.7769126003696533,-6.336810168809678,-0.1364962701980252
16.74602813,0.5114650862239145,-6.399363213150695,-0.18216302322315892
16.75078292,0.2412005751464981,-6.433389090590236,-0.23018027661182208
16.75553771,-0.03304880556461404,-6.438000259997836,-0.28034198087537493
16.76029255,-0.3104409403270018,-6.412495289981774,-0.33243604090429796
16.76504734,-0.5901280516813611,-6.35636804939456,-0.3862442650450597
16.76980214,-0.8712607792871478,-6.269315186809134,-0.4415423515654159
16.77455698,-1.1529919580065044,-6.151241780391966,-0.498099933228011
16.77931177,-1.43448004520653,-6.002265066345579,-0.5556806986348893
16.78406656,-1.7148921523409029,-5.822716183376108,-0.6140426062230329
16.78882136,-1.9934066421452352,-5.613139901523109,-0.6729382031089971
16.7935762,-2.269215260394844,-5.3742923350961975,-0.7321150562412604
16.79833099,-2.541524780120867,-5.107136670290577,-0.7913162974846552
16.80308578,-2.809558146408783,-4.812836967250763,-0.850281277429642
16.80784057,-3.0725551212371784,-4.492750122995125,-0.9087463151509075
16.81259536,-3.3297724399210527,-4.148416104939325,-0.9664455235831265
16.81735021,-3.580483503167186,-3.781546584158201,-1.02311168444776
16.822105,-3.8239776410874144,-3.3940121126066933,-1.0784771454226458
16.82685979,-4.059558997353392,-2.987827999279176,-1.1322747171772034
16.83161458,-4.286545092662753,-2.5651390472942786,-1.184238557722912
16.83636943,-4.504265136530957,-2.1282033181725906,-1.2341050424527504
16.84112422,-4.71205816493982,-1.679375092163104,-1.281613626506864
16.84587901,-4.909271088466768,-1.2210871950141489,-1.3265077099682574
16.8506338,-5.095256741080776,-0.7558328622484966,-1.3685355161984143
16.85538865,-5.269372023631735,-0.28614731167121776,-1.4074509907782775
16.86014344,-5.430976237952426,0.18541080668785678,-1.4430147245914746
16.86489823,-5.5794297072702665,0.6562779168856936,-1.4749949008384435
16.86965302,-5.714092776235218,1.1239038176841563,-1.5031682630585501
16.87440787,-5.834325279358872,1.5857696214215058,-1.5273211000334515
16.87916266,-5.939486560144935,2.0394051825129655,-1.5472502438430125
16.88391745,-6.028936114823831,2.4824058758626943,-1.562764079072365
16.88867224,-6.102034924546451,2.9124485957310924,-1.5736835636716937
16.89342708,-6.158147528306179,3.3273068570288533,-1.579843264579725
16.89818188,-6.196644875891627,3.724864893361652,-1.5810924133275797
16.90293667,-6.216907985957299,4.10313065916778,-1.5772959880095485
16.90769146,-6.218332418976703,4.4602476567364135,-1.5683358280353685
16.91244625,-6.200333558591526,4.794505522564396,-1.5541117869810765
16.9172011,-6.162352677918964,5.104349321233967,-1.53454292682163
16.92195589,-6.103863749993614,5.38838750862648,-1.5095687541309928
16.92671068,-6.024380943987499,5.645398539703479,-1.4791504957455184
16.93146547,-5.923466731470431,5.874336109176838,-1.4432724081316064
16.93622026,-5.8007405100662375,6.074333026045627,-1.40194311144733
16.9409751,-5.655887635804666,6.244703735078655,-1.3551969361366178
16.9457299,-5.488668740703368,6.384945509728852,-1.3030952668666815
16.95048469,-5.298929199110861,6.494738351520516,-1.245727865687597
16.95523948,-5.0866085955408575,6.57394364048877,-1.1832141534141234
16.95999432,-4.851750038463763,6.6226015896310315,-1.1157044253751334
16.96474912,-4.594509158966416,6.64092756346507,-1.0433809748646192
16.96950391,-4.315162630367129,6.629307326659444,-0.9664590949584838
16.9742587,-4.014116044704011,6.588291293361416,-0.8851879270030729
16.97901349,-3.6919109843939197,6.518587851404055,-0.7998511222215697
16.98376833,-3.349231132194937,6.421055838170009,-0.7107672816759861
16.98852313,-2.986907269832835,6.296696246670969,-0.6182901393753639
16.99327792,-2.6059210252308955,6.146643241504243,-0.5228084537114019
16.99803271,-2.207407240175796,5.972154564888331,-0.4247455736715355
17.00278755,-1.7926548443972732,5.774601413052219,-0.3245586484207362
17.00754234,-1.3631061383208243,5.555457862924422,-0.2227374518062949
17.01229714,-0.920354404995705,5.316289928378772,-0.11980279704756044
17.01705193,-0.4661397916742054,5.058744324272892,-0.016304521245418528
17.02180677,-0.002343422948925134,4.784537015191091,0.08718097568500972
17.02656156,0.4690202700528397,4.495441624214798,0.19005364755029483
17.03131636,0.9458129964599411,4.1932777752418176,0.2916931777908612
17.03607115,1.4257837964360625,3.8798994404181304,0.39146281227035934
17.04082594,1.9065819196023015,3.557183362181674,0.4887136396733842
17.04558078,2.385771310383386,3.2270176172698823,0.58278930316499
17.05033557,2.860846595458577,2.891290387797207,0.6730311196135621
17.05509036,3.329250445037338,2.551879002115169,0.7587835750385967
17.05984516,3.7883921572585737,2.2106393055492575,0.839400156936457
17.06459995,4.235667294029723,1.8693954181729304,0.9142494756207112
17.06935479,4.668478177426843,1.5299299334301248,0.982721617538999
17.07410958,5.0842550386521115,1.19397460755391,1.0442346636280002
17.07886438,5.480477596736015,0.8632015852663689,1.0982412952815142
17.08361917,5.854696831930154,0.5392152021569381,1.1442353998902097
17.08837396,6.204556709347461,0.22354439850923769,1.1817585779709254
17.0931288,6.527815602172536,-0.08236422658614505,1.210406445729557
17.0978836,6.8223671609603,-0.37715269787163097,1.2298346217461151
17.10263839,7.086260376353166,-0.6595572657754438,1.239764285559732
17.10739318,7.3177185870413215,-0.9284133146110459,1.2399872001697956
17.11214802,7.515157192954656,-1.1826595681283794,1.2303701000731866
17.11690281,7.677199845524944,-1.421341586719905,1.2108583607135497
17.1216576,7.802692902498941,-1.6436145537392741,1.1814788825715785
17.1264124,7.890717954302072,-1.8487453518571006,1.1423421416159176
17.13116719,7.940602252181266,-2.036113934463672,1.0936433756706592
17.13592203,7.951926894740321,-2.205214001917005,1.035662892206947
17.14067682,7.924532658208816,-2.3556529978131207,0.9687654965350019
17.14543162,7.858523386104011,-2.4871514461770006,0.893399050258775
17.15018641,7.754266885420142,-2.5995416562227662,0.8100921783911132
17.1549412,7.612393308958827,-2.6927658267765997,0.7194511501571061
17.15969604,7.433791036710984,-2.766873587248778,0.6221559638100533
17.16445083,7.219600102781021,-2.822019015797513,0.5189556703719244
17.16920563,6.971203247293443,-2.858457177636728,0.4106629756665854
17.17396042,6.690214703958749,-2.8765402269472,0.2981481647810663
17.17871521,6.378466862470218,-2.876713114366267,0.18233239842264262
17.18347,6.037994969783914,-2.859508938614173,0.06418043659719602
17.18822484,5.671020054979873,-2.825543975802045,-0.05530714849922406
