Time (s),Acceleration x (m/s^2),Acceleration y (m/s^2),Acceleration z (m/s^2)
4.001526654,-1.3899278444981425e+23,1.4979415047994314e+22,1.3654870328168625e+21
4.003526687,-1.4002711642415069e+23,1.5245784625425655e+22,1.365801475059057e+21
4.00552672,-1.4105344067504707e+23,1.5510519077389891e+22,1.3660803493747795e+21
4.007526753,-1.4207177399090565e+23,1.5773621247872078e+22,1.3663238417661202e+21
4.009526786,-1.4308213305979338e+23,1.6035094000045004e+22,1.3665321383071433e+21
4.011526619,-1.4408453447201857e+23,1.6294940215879741e+22,1.3667054251206047e+21
4.013527285,-1.4507899472281797e+23,1.6553162795762152e+22,1.3668438883550385e+21
4.015527285,-1.4606553021514816e+23,1.6809764658115064e+22,1.3669477141622355e+21
4.017527285,-1.470441572625751e+23,1.7064748739025785e+22,1.3670170886751524e+21
4.019527285,-1.4801489209225483e+23,1.7318117991878547e+22,1.3670521979862767e+21
4.021526618,-1.4897775084799783e+23,1.7569875386991462e+22,1.3670532281264924e+21
4.023526618,-1.4993274959340845e+23,1.7820023911257528e+22,1.367020365044475e+21
4.025526684,-1.5087990431509063e+23,1.806856656778928e+22,1.366953794586647e+21
4.02752665,-1.518192309259104e+23,1.831550637556671e+22,1.3668537024777206e+21
4.029526616,-1.5275074526830668e+23,1.8560846369087981e+22,1.3667202743018445e+21
4.031526582,-1.5367446311764174e+23,1.8804589598022505e+22,1.366553695484377e+21
4.033526148,-1.5459040018558294e+23,1.9046739126865938e+22,1.3663541512743084e+21
4.035525214,-1.5549857212350677e+23,1.928729803459663e+22,1.3661218267273468e+21
4.03752518,-1.5639899452591603e+23,1.9526269414333013e+22,1.3658569066896823e+21
4.039525146,-1.5729168293386266e+23,1.976365637299124e+22,1.3655595757824303e+21
4.041525146,-1.5817665283836948e+23,1.9999462030942533e+22,1.3652300183867669e+21
4.043524846,-1.590539196838444e+23,2.0233689521669668e+22,1.3648684186297644e+21
4.045524879,-1.5992349887148126e+23,2.046634199142215e+22,1.3644749603709303e+21
4.047524912,-1.607854057626405e+23,2.0697422598869487e+22,1.364049827189456e+21
4.049525345,-1.6163965568220326e+23,2.0926934514752125e+22,1.3635932023721883e+21
4.051525378,-1.624862639218935e+23,2.1154880921529632e+22,1.363105268902331e+21
4.053525411,-1.6332524574356588e+23,2.138126501302569e+22,1.36258620944888e+21
4.055525044,-1.6415661638245803e+23,2.1606089994069562e+22,1.3620362063567882e+21
4.057525044,-1.64980391050407e+23,2.182935908013365e+22,1.3614554416378544e+21
4.05952501,-1.6579658493903103e+23,2.2051075496966927e+22,1.360844096962321e+21
4.061524676,-1.6660521322287746e+23,2.2271242480223913e+22,1.360202353651147e+21
4.063524642,-1.6740629106253793e+23,2.2489863275088747e+22,1.359530392668938e+21
4.065524608,-1.681998336077322e+23,2.2706941135894088e+22,1.3588283946174933e+21
4.067524574,-1.6898585600036157e+23,2.292247932573466e+22,1.3580965397299483e+21
4.06952454,-1.697643733775328e+23,2.3136481116075342e+22,1.3573350078654762e+21
4.071524706,-1.7053540087455415e+23,2.3348949786353648e+22,1.3565439785045192e+21
4.073524306,-1.7129895362790506e+23,2.35598886235766e+22,1.3557236307445122e+21
4.075524339,-1.7205504677818168e+23,2.376930092191184e+22,1.354874143296073e+21
4.077524372,-1.7280369547301936e+23,2.397718998227282e+22,1.3539956944796207e+21
4.079524405,-1.7354491486999255e+23,2.4183559111897975e+22,1.3530884622223902e+21
4.081525105,-1.7427872013949212e+23,2.438841162392404e+22,1.3521526240557893e+21
4.083525138,-1.7500512646757863e+23,2.459175083695376e+22,1.3511883571130437e+21
4.085525071,-1.7572414905880834e+23,2.4793580074618287e+22,1.3501958381270708e+21
4.087525104,-1.7643580313902796e+23,2.499390266513462e+22,1.3491752434285266e+21
4.089525137,-1.7714010395813333e+23,2.519272194085836e+22,1.3481267489439817e+21
4.091524937,-1.778370667927884e+23,2.5390041237832174e+22,1.3470505301941892e+21
4.093525337,-1.785267069491015e+23,2.5585863895330555e+22,1.3459467622924104e+21
4.095526237,-1.7920903976525693e+23,2.578019325540127e+22,1.3448156199427758e+21
4.097525903,-1.7988408061410038e+23,2.5973032662403922e+22,1.343657277438663e+21
4.099525903,-1.8055184490567735e+23,2.6164385462546086e+22,1.3424719086610725e+21
4.101525903,-1.8121234808972234e+23,2.6354255003417817e+22,1.341259687076972e+21
4.103526203,-1.8186560565809675e+23,2.6542644633525203e+22,1.3400207857376003e+21
4.105526169,-1.825116331471726e+23,2.6729557701823495e+22,1.3387553772767082e+21
4.107526135,-1.8315044614015776e+23,2.691499755725019e+22,1.3374636339087163e+21
4.109525701,-1.8378206026935877e+23,2.70989675482587e+22,1.336145727426782e+21
4.111525667,-1.84406491218377e+23,2.7281471022352975e+22,1.3348018292007633e+21
4.113525633,-1.850237547242322e+23,2.746251132562369e+22,1.3334321101750812e+21
4.115525999,-1.85633866579408e+23,2.76420918022864e+22,1.3320367408664805e+21
4.117525965,-1.862368426338152e+23,2.7820215794222133e+22,1.3306158913616955e+21
4.119525965,-1.8683269879666794e+23,2.7996886640521107e+22,1.3291697313150298e+21
4.121525998,-1.874214510382687e+23,2.817210767702996e+22,1.3276984299458606e+21
4.123526031,-1.8800311539169953e+23,2.8345882235903274e+22,1.32620215603607e+21
4.125526064,-1.8857770795441706e+23,2.8518213645160174e+22,1.3246810779273962e+21
4.127526097,-1.891452448897528e+23,2.868910522824696e+22,1.3231353635187007e+21
4.12952613,-1.8970574242832048e+23,2.8858560303606492e+22,1.3215651802631478e+21
4.131526163,-1.902592168693315e+23,2.9026582184255044e+22,1.3199706951652936e+21
4.133526596,-1.9080568458182133e+23,2.919317417736706e+22,1.3183520747780791e+21
4.135526596,-1.9134516200579195e+23,2.9358339583868343e+22,1.3167094851997113e+21
4.137526562,-1.9187766565327415e+23,2.9522081698038304e+22,1.3150430920704315e+21
4.139526528,-1.9240321210931284e+23,2.96844038071219e+22,1.3133530605691727e+21
4.141526494,-1.9292181803287876e+23,2.9845309190951716e+22,1.3116395554101076e+21
4.14352646,-1.9343350015770914e+23,3.00048011215805e+22,1.3099027408390917e+21
4.145526426,-1.9393827529308085e+23,3.0162882862924295e+22,1.308142780630008e+21
4.147526392,-1.944361603245201e+23,3.0319557670416138e+22,1.3063598380810282e+21
4.149526358,-1.9492717221445178e+23,3.047482879067033e+22,1.3045540760108097e+21
4.151526391,-1.9541132800278905e+23,3.062869946115735e+22,1.3027256567546543e+21
4.153526424,-1.9588864480746415e+23,3.0781172909889657e+22,1.300874742160641e+21
4.155526457,-1.9635913982490122e+23,3.093225235511853e+22,1.2990014935857396e+21
4.157527223,-1.9682283033043342e+23,3.108194100504203e+22,1.2971060718919274e+21
4.159527256,-1.9727973367866584e+23,3.1230242057524127e+22,1.2951886374423212e+21
4.161527289,-1.9772986730378584e+23,3.1377158699825123e+22,1.2932493500973444e+21
4.163526922,-1.981732487198215e+23,3.152269410834385e+22,1.2912883692109394e+21
4.165526955,-1.986098955208511e+23,3.1666851448371913e+22,1.289305853626845e+21
4.167526988,-1.9903982538116623e+23,3.18096338738602e+22,1.2873019616749536e+21
4.169527388,-1.994630560553918e+23,3.1951044527197572e+22,1.2852768511677694e+21
4.171527388,-1.9987960537856634e+23,3.2091086539001833e+22,1.2832306793969688e+21
4.173527388,-2.0028949126618413e+23,3.222976302792299e+22,1.2811636031300598e+21
4.175527388,-2.006927317142e+23,3.2367077100458848e+22,1.2790757786071335e+21
4.177527388,-2.010893447989972e+23,3.2503031850782664e+22,1.2769673615377055e+21
4.179527388,-2.0147934867731746e+23,3.2637630360582732e+22,1.2748385070976462e+21
4.181528054,-2.0186276158615297e+23,3.2770875698913766e+22,1.272689369926198e+21
4.18352802,-2.022396018425981e+23,3.2902770922059964e+22,1.2705201041230906e+21
4.185527986,-2.0260988784365836e+23,3.303331907340985e+22,1.2683308632457567e+21
4.187527952,-2.0297363806601432e+23,3.3162523183343104e+22,1.2661218003066636e+21
4.189527918,-2.0333087106574066e+23,3.3290386269129476e+22,1.2638930677707603e+21
4.191527884,-2.0368160547798082e+23,3.341691133484002e+22,1.2616448175530364e+21
4.19352785,-2.0402586001657705e+23,3.3542101371270753e+22,1.2593772010161947e+21
4.195527816,-2.0436365347365543e+23,3.3665959355879027e+22,1.25709036896843e+21
4.197527816,-2.0469500471916524e+23,3.3788488252732773e+22,1.2547844716613127e+21
4.199527849,-2.0501993270037244e+23,3.3909691012472744e+22,1.2524596587877661e+21
4.201527882,-2.0533845644130558e+23,3.402957057228806e+22,1.2501160794801276e+21
4.203527915,-2.0565059504215156e+23,3.4148129855905225e+22,1.2477538823082932e+21
4.205527948,-2.059563676786004e+23,3.4265371773591064e+22,1.245373215277943e+21
4.207527981,-2.0625579360114006e+23,3.4381299222169885e+22,1.2429742258288538e+21
4.209528014,-2.0654889213430238e+23,3.44959150850555e+22,1.2405570608332957e+21
4.211528214,-2.068356826758629e+23,3.4609222232298603e+22,1.238121866594521e+21
4.213528214,-2.0711618469599684e+23,3.4721223520649847e+22,1.2356687888453458e+21
4.21552818,-2.0739041773639528e+23,3.4831921793639106e+22,1.2331979727468275e+21
4.217527746,-2.076584014093456e+23,3.4941319881671404e+22,1.2307095628870498e+21
4.219527712,-2.0792015539678292e+23,3.504942060213996e+22,1.2282037032800412e+21
4.221527012,-2.0817569944931892e+23,3.5156226759556644e+22,1.225680537364839e+21
4.223526712,-2.0842505338525367e+23,3.5261741145700065e+22,1.2231402080047097e+21
4.225526678,-2.0866823708957626e+23,3.5365966539781214e+22,1.220582857486526e+21
4.227526644,-2.0890527051295982e+23,3.546890570862658e+22,1.2180086275203075e+21
4.229526244,-2.0913617367075645e+23,3.557056140687867e+22,1.2154176592389352e+21
4.231526277,-2.0936096664199812e+23,3.5670936377214003e+22,1.2128100931980598e+21
4.23352631,-2.0957966956840855e+23,3.577003335057895e+22,1.210186069376206e+21
4.235526343,-2.097923026534307e+23,3.586785504644372e+22,1.2075457271750795e+21
4.237526376,-2.099988861612724e+23,3.5964404173075074e+22,1.2048892054200753e+21
4.239526409,-2.1019944041597344e+23,3.6059683427828434e+22,1.2022166423610065e+21
4.241525742,-2.103939858004948e+23,3.6153695497460356e+22,1.1995281756730583e+21
4.243525775,-2.1058254275583276e+23,3.6246443058461986e+22,1.1968239424579767e+21
4.245525808,-2.107651317801595e+23,3.633792877741437e+22,1.1941040792454992e+21
4.247525808,-2.109417734279934e+23,3.6428155311366072e+22,1.1913687219950353e+21
4.249525141,-2.1111248830939944e+23,3.651712530823302e+22,1.188618006097611e+21
4.251525141,-2.112772970892219e+23,3.660484140722027e+22,1.1858520663780827e+21
4.253524774,-2.114362204863503e+23,3.6691306239265637e+22,1.1830710370976347e+21
4.255524774,-2.11589279273016e+23,3.6776522427504764e+22,1.1802750519565615e+21
4.257524107,-2.1173649427411655e+23,3.686049258775715e+22,1.1774642440973299e+21
4.259524073,-2.1187788636656596e+23,3.6943219329032752e+22,1.174638746107925e+21
4.261524039,-2.1201347647866904e+23,3.7024705254058537e+22,1.1717986900254801e+21
4.263524005,-2.1214328558951784e+23,3.7104952959824294e+22,1.1689442073401937e+21
4.265523971,-2.1226733472840476e+23,3.7183965038147298e+22,1.1660754289995305e+21
4.267523937,-2.1238564497424627e+23,3.7261744076255115e+22,1.1631924854127004e+21
4.269523903,-2.1249823745501164e+23,3.7338292657385453e+22,1.1602955064553945e+21
4.271523469,-2.1260513334715256e+23,3.7413613361402325e+22,1.1573846214747651e+21
4.273523435,-2.127063538750292e+23,3.7487708765427507e+22,1.1544599592946431e+21
4.275523435,-2.1280192031032928e+23,3.756058144448599e+22,1.1515216482209932e+21
4.277523135,-2.1289185397147545e+23,3.763223397216426e+22,1.1485698160475966e+21
4.279523168,-2.1297617622301587e+23,3.7702668921280127e+22,1.145604590061958e+21
4.281523868,-2.1305490847499476e+23,3.777188886456276e+22,1.1426260970514353e+21
4.283524568,-2.1312807218230088e+23,3.783989637534141e+22,1.1396344633096048e+21
4.285524601,-2.131956888439919e+23,3.790669402824177e+22,1.1366298146428714e+21
4.287524634,-2.1325778000259276e+23,3.797228439988899e+22,1.1336122763773204e+21
4.289525067,-2.1331436724336566e+23,3.8036670069616465e+22,1.1305819733657995e+21
4.291525067,-2.1336547219354943e+23,3.809985362017984e+22,1.1275390299952183e+21
4.293525033,-2.1341111652156575e+23,3.816183763847483e+22,1.1244835701940625e+21
4.295524999,-2.1345132193619044e+23,3.822262471625753e+22,1.121415717440117e+21
4.297524965,-2.1348611018568727e+23,3.828221745086593e+22,1.1183355947683938e+21
4.299524931,-2.1351550305690088e+23,3.834061844594122e+22,1.1152433247792577e+21
4.301525131,-2.1353952237430574e+23,3.8397830312147865e+22,1.1121390296467306e+21
4.303525097,-2.1355818999900836e+23,3.8453855667891395e+22,1.1090228311269562e+21
4.305525063,-2.1357152782770093e+23,3.85086971400332e+22,1.1058948505668084e+21
4.307525329,-2.1357955779156505e+23,3.856235736460148e+22,1.1027552089126354e+21
4.309525995,-2.135823018551236e+23,3.861483898749748e+22,1.0996040267191319e+21
4.311525995,-2.135797820150395e+23,3.866614466519605e+22,1.0964414241583388e+21
4.313526361,-2.135720202988621e+23,3.871627706543929e+22,1.0932675210287723e+21
4.315526361,-2.135590387637219e+23,3.876523886792266e+22,1.0900824367646806e+21
4.317527027,-2.1354085949497364e+23,3.881303276497285e+22,1.0868862904454265e+21
4.319527027,-2.1351750460478913e+23,3.8859661462216984e+22,1.0836792008049888e+21
4.321527027,-2.1348899623070058e+23,3.890512767924306e+22,1.0804612862415649e+21
4.323527027,-2.1345535653409982e+23,3.894943415025108e+22,1.0772326648272493e+21
4.32552706,-2.1341660769869803e+23,3.899258362469495e+22,1.0739934543177591e+21
4.327527093,-2.1337277192895186e+23,3.903457886791522e+22,1.0707437721621837e+21
4.329527126,-2.13323871448462e+23,3.907542266176266e+22,1.0674837355127458e+21
4.331527559,-2.1326992849835206e+23,3.911511780521263e+22,1.0642134612345576e+21
4.333527592,-2.1321096533563593e+23,3.915366711496979e+22,1.0609330659153559e+21
4.335527625,-2.1314700423158067e+23,3.919107342606306e+22,1.0576426658751966e+21
4.337528325,-2.1307806747007243e+23,3.922733959243063e+22,1.0543423771760908e+21
4.339528325,-2.1300417734599414e+23,3.92624684874948e+22,1.0510323156315558e+21
4.341528291,-2.1292535616362126e+23,3.92964630047268e+22,1.0477125968160547e+21
4.343528257,-2.1284162623504314e+23,3.932932605820146e+22,1.044383336074298e+21
4.345528223,-2.1275300987861736e+23,3.9361060583142056e+22,1.0410446485303853e+21
4.347528189,-2.1265952941746168e+23,3.9391669536455595e+22,1.0376966490967664e+21
4.349528155,-2.125612071779854e+23,3.94211558972591e+22,1.0343394524830095e+21
4.351528121,-2.1245806548846106e+23,3.944952266739709e+22,1.030973173204369e+21
4.353528121,-2.1235012667763845e+23,3.947677287195025e+22,1.0275979255901449e+21
4.355528154,-2.122374130734022e+23,3.9502909559735014e+22,1.024213823791827e+21
4.357528187,-2.1211994700147334e+23,3.9527935803793496e+22,1.0208209817910127e+21
4.35952822,-2.11997750784156e+23,3.955185470187341e+22,1.017419513407092e+21
4.36152742,-2.118708467391308e+23,3.9574669376897686e+22,1.0140095323046905e+21
4.363527453,-2.117392571782978e+23,3.959638297742364e+22,1.0105911520008623e+21
4.365527486,-2.116030044066731e+23,3.961699867809137e+22,1.0071644858720316e+21
4.367527252,-2.1146211072134188e+23,3.963651968006141e+22,1.0037296471606873e+21
4.369527285,-2.1131659841047182e+23,3.965494921144131e+22,1.0002867489818332e+21
4.371527285,-2.1116648975238982e+23,3.967229052770093e+22,9.968359043291981e+20
4.373527285,-2.110118070147256e+23,3.9688546912075925e+22,9.933772260812102e+20
4.375527285,-2.108525724536282e+23,3.970372167595972e+22,9.89910827006747e+20
4.377527285,-2.106888083130626e+23,3.9717818159283766e+22,9.864368197706575e+20
4.379527285,-2.1052053682419345e+23,3.973083973088626e+22,9.829553169390612e+20
4.381527285,-2.1034778020486295e+23,3.974278978886896e+22,9.794664309844177e+20
4.383527285,-2.1017056065917182e+23,3.975367176094198e+22,9.759702742903565e+20
4.385527251,-2.0998890037717194e+23,3.976348910475646e+22,9.724669591562559e+20
4.387527217,-2.0980282153468034e+23,3.977224530822494e+22,9.689565978015606e+20
4.389527183,-2.096123462932217e+23,3.97799438898294e+22,9.654393023698221e+20
4.391528583,-2.094174968001047e+23,3.978658839891657e+22,9.619151849324481e+20
4.393528549,-2.092182951886369e+23,3.979218241597998e+22,9.583843574921434e+20
4.395528515,-2.0901476357848264e+23,3.979672955292787e+22,9.548469319860234e+20
4.397528148,-2.0880692407616743e+23,3.980023345333689e+22,9.51303020288374e+20
4.399528114,-2.0859479877573158e+23,3.980269779269148e+22,9.477527342130355e+20
4.401528114,-2.0837840975953522e+23,3.980412627860859e+22,9.441961855153949e+20
4.403528147,-2.081577790992153e+23,3.980452265104743e+22,9.406334858939639e+20
4.40552818,-2.0793292885679452e+23,3.980389068250387e+22,9.370647469915279e+20
4.407528213,-2.0770388108594045e+23,3.980223417818888e+22,9.334900803958494e+20
4.409528246,-2.0747065783337387e+23,3.9799556976190255e+22,9.299095976399161e+20
4.411528279,-2.072332811404219e+23,3.979586294761698e+22,9.263234102017298e+20
4.413528312,-2.0699177304471282e+23,3.97911559967256e+22,9.227316295036274e+20
4.415528312,-2.067461555820083e+23,3.9785440061027976e+22,9.191343669111318e+20
4.417528312,-2.0649645078816657e+23,3.977871911137981e+22,9.155317337313342e+20
4.419528278,-2.0624268070123098e+23,3.977099715204885e+22,9.119238412108153e+20
4.421527944,-2.0598486736363645e+23,3.9762278220761225e+22,9.083108005331159e+20
4.42352791,-2.0572303282452664e+23,3.975256638872509e+22,9.04692722815758e+20
4.425527876,-2.054571991421734e+23,3.974186576063076e+22,9.010697191068239e+20
4.427527842,-2.0518738838648973e+23,3.973018047462709e+22,8.974419003810911e+20
4.429527808,-2.049136226416271e+23,3.971751470227406e+22,8.938093775357257e+20
4.431527808,-2.0463592400864615e+23,3.970387264847184e+22,8.901722613855268e+20
4.433527841,-2.0435431460825147e+23,3.968925855136652e+22,8.865306626577232e+20
4.435527874,-2.0406881658358045e+23,3.967367668223266e+22,8.82884691986328e+20
4.437527907,-2.0377945210303833e+23,3.9657131345332624e+22,8.792344599060703e+20
4.43952794,-2.0348624336316993e+23,3.963962687775223e+22,8.755800768459236e+20
4.441527973,-2.0318921259155923e+23,3.96211676492128e+22,8.719216531222498e+20
4.443528006,-2.0288838204974785e+23,3.9601758061859745e+22,8.682592989315806e+20
4.445528039,-2.0258377403616364e+23,3.958140255002787e+22,8.645931243430625e+20
4.447528072,-2.022754108890491e+23,3.956010557998429e+22,8.60923239290587e+20
4.449528072,-2.019633149893808e+23,3.953787164964933e+22,8.572497535646292e+20
4.451526638,-2.016475087637697e+23,3.951470528829626e+22,8.535727768038057e+20
4.453526638,-2.0132801468732914e+23,3.949061105623042e+22,8.498924184861671e+20
4.455526638,-2.010048552865015e+23,3.946559354444873e+22,8.462087879202292e+20
4.457525738,-2.0067805314183383e+23,3.943965737428009e+22,8.42521994235757e+20
4.459525738,-2.003476308906943e+23,3.941280719700731e+22,8.388321463743105e+20
4.461525738,-2.0001361122991975e+23,3.938504769347085e+22,8.351393530795608e+20
4.463525704,-1.9967601691838536e+23,3.935638357365485e+22,8.314437228873814e+20
4.46552567,-1.9933487077948856e+23,3.932681957625632e+22,8.277453641157255e+20
4.467525636,-1.989901957035413e+23,3.9296360468237785e+22,8.240443848542923e+20
4.469525602,-1.986420146500646e+23,3.926501104436424e+22,8.20340892953992e+20
4.471525568,-1.9829035064998172e+23,3.9232776126725045e+22,8.166349960162186e+20
4.473525534,-1.9793522680770607e+23,3.919966056424185e+22,8.129268013819463e+20
4.4755255,-1.9757666630311922e+23,3.916566923216324e+22,8.092164161206695e+20
4.477525466,-1.9721469239343553e+23,3.913080703154672e+22,8.055039470192076e+20
4.479525466,-1.968493284149507e+23,3.909507888872837e+22,8.017895005703918e+20
4.481525999,-1.9648059778467145e+23,3.905848975478047e+22,7.980731829616514e+20
4.483526032,-1.961085240018239e+23,3.902104460495756e+22,7.943551000635213e+20
4.485526065,-1.957331306492397e+23,3.898274843813154e+22,7.906353574180909e+20
4.487526098,-1.953544413946172e+23,3.8943606276216544e+22,7.869140602274154e+20
4.489526131,-1.9497247999165553e+23,3.8903623163584155e+22,7.83191313341913e+20
4.491526164,-1.9458727028106023e+23,3.886280416646968e+22,7.794672212487753e+20
4.493526164,-1.9419883619142124e+23,3.882115437236999e+22,7.75741888060415e+20
4.495526164,-1.9380720173996537e+23,3.877867888943331e+22,7.720154175029704e+20
4.49752613,-1.9341239103318334e+23,3.87353828458414e+22,7.682879129048853e+20
4.499526096,-1.9301442826733175e+23,3.869127138918429e+22,7.645594771855874e+20
4.501526062,-1.9261333772881133e+23,3.864634968582741e+22,7.608302128442869e+20
4.503526028,-1.9220914379442112e+23,3.860062292027056e+22,7.571002219489133e+20
4.505525994,-1.918018709314876e+23,3.855409629449865e+22,7.533696061252074e+20
4.50752596,-1.913915436978677e+23,3.850677502732458e+22,7.49638466545979e+20
4.50952596,-1.9097818674182194e+23,3.845866435372439e+22,7.459069039205386e+20
4.511525593,-1.9056182480175584e+23,3.840976952416548e+22,7.421750184843212e+20
4.513525626,-1.9014248270582577e+23,3.836009580392832e+22,7.384429099887163e+20
4.515525659,-1.8972018537140634e+23,3.830964847242228e+22,7.347106776911142e+20
4.517526559,-1.8929495780441753e+23,3.8258432822496345e+22,7.309784203451831e+20
4.519526592,-1.8886682509851042e+23,3.82064541597457e+22,7.272462361913836e+20
4.521526625,-1.8843581243411217e+23,3.815371780181499e+22,7.235142229477305e+20
4.523526658,-1.8800194507732945e+23,3.8100229077698905e+22,7.197824778008076e+20
4.525526691,-1.8756524837870822e+23,3.804599332704082e+22,7.160510973970418e+20
4.527526691,-1.871257477718519e+23,3.799101589942986e+22,7.12320177834246e+20
4.529526691,-1.866834687718998e+23,3.793530215369712e+22,7.085898146534413e+20
4.531526691,-1.8623843697386798e+23,3.787885745721194e+22,7.048601028309717e+20
4.533526691,-1.8579067805085715e+23,3.782168718517897e+22,7.011311367709262e+20
4.535525791,-1.853402177521331e+23,3.7763796719936756e+22,6.974030102978846e+20
4.537525791,-1.848870819010852e+23,3.7705191450258272e+22,6.936758166499969e+20
4.539525791,-1.8443129639306826e+23,3.7645876770653744e+22,6.899496484724047e+20
4.541526891,-1.8397288719313287e+23,3.7585858080676197e+22,6.862245978110113e+20
4.543526857,-1.8351188033364864e+23,3.752514078422986e+22,6.825007561066079e+20
4.545526823,-1.8304830191182524e+23,3.746373028888173e+22,6.787782141893495e+20
4.547526789,-1.825821780871354e+23,3.7401632005176865e+22,6.750570622735824e+20
4.549526755,-1.8211353507864347e+23,3.7338851345958122e+22,6.713373899530237e+20
4.551526721,-1.8164239916224264e+23,3.7275393725691024e+22,6.676192861962958e+20
4.553526687,-1.8116879666780417e+23,3.7211264559794037e+22,6.639028393428124e+20
4.555526653,-1.8069275397624367e+23,3.714646926397433e+22,6.6018813709901e+20
4.557526653,-1.802142975165082e+23,3.7081013253569033e+22,6.564752665349246e+20
4.559526686,-1.7973345376249e+23,3.7014901942892437e+22,6.527643140811087e+20
4.561526719,-1.792502492298719e+23,3.69481407445898e+22,6.490553655258828e+20
4.563526752,-1.7876471047291012e+23,3.688073506899888e+22,6.453485060129166e+20
4.565526785,-1.7827686408115903e+23,3.681269032352001e+22,6.41643820039133e+20
4.567526818,-1.7778673667614233e+23,3.6744011911995542e+22,6.37941391452928e+20
4.569526851,-1.772943549079732e+23,3.6674705234099467e+22,6.342413034527035e+20
4.571526984,-1.767997454519263e+23,3.6604775684738057e+22,6.305436385857052e+20
4.573526984,-1.7630293500496567e+23,3.6534228653462365e+22,6.268484787471636e+20
4.57552695,-1.758039502822316e+23,3.64630695238932e+22,6.231559051797342e+20
4.577526916,-1.7530281801348953e+23,3.6391303673158962e+22,6.194659984732334e+20
4.579526882,-1.7479956493954438e+23,3.631893647134638e+22,6.157788385646666e+20
4.581526848,-1.7429421780862326e+23,3.624597328096452e+22,6.120945047385502e+20
4.583526814,-1.737868033727299e+23,3.6172419456422373e+22,6.084130756275313e+20
4.58552678,-1.7327734838397412e+23,3.6098280343520244e+22,6.047346292133085e+20
4.58752678,-1.7276587959087853e+23,3.6023561278954913e+22,6.010592428278562e+20
4.58952678,-1.7225242373466547e+23,3.594826758983891e+22,5.973869931549536e+20
4.591526813,-1.7173700754552532e+23,3.5872404593233873e+22,5.93717956232011e+20
4.593526846,-1.7121965773887005e+23,3.579597759569799e+22,5.900522074521951e+20
4.595527779,-1.707004010115735e+23,3.571899189284715e+22,5.863898215668415e+20
4.597527812,-1.701792640382019e+23,3.5641452768929442e+22,5.8273087268814586e+20
4.599527845,-1.696562734672385e+23,3.556336549641266e+22,5.790754342921191e+20
4.601527145,-1.6913145591730575e+23,3.5484735335584806e+22,5.754235792218008e+20
4.603527178,-1.6860483797338767e+23,3.5405567534167352e+22,5.717753796907227e+20
4.605527178,-1.6807644618305344e+23,3.5325867326940794e+22,5.681309072866101e+20
4.607527178,-1.67546307052683e+23,3.5245639935381935e+22,5.644902329753068e+20
4.609527178,-1.670144470436955e+23,3.5164890567312197e+22,5.6085342710491146e+20
4.611527178,-1.664808925687826e+23,3.5083624416556544e+22,5.572205594101112e+20
4.613527178,-1.6594566998814984e+23,3.5001846662612635e+22,5.5359169901669856e+20
4.615527178,-1.6540880560576983e+23,3.4919562470329873e+22,5.499669144462599e+20
4.617527211,-1.6487032566565154e+23,3.483677698959792e+22,5.463462736210234e+20
4.619527177,-1.6433025634812918e+23,3.4753495355044273e+22,5.42729843868857e+20
4.62152661,-1.6378862376617387e+23,3.466972268574026e+22,5.391176919284051e+20
4.623526576,-1.6324545396173247e+23,3.458546408491512e+22,5.355098839543516e+20
4.625526542,-1.6270077290209887e+23,3.4500724639677733e+22,5.3190648552280084e+20
4.627526508,-1.6215460647632447e+23,3.441550942074555e+22,5.283075616367643e+20
4.629526474,-1.6160698049167374e+23,3.4329823482180226e+22,5.2471317673174e+20
4.631526707,-1.6105792067013057e+23,3.424367186112961e+22,5.211233946813711e+20
4.633526673,-1.6050745264495985e+23,3.4157059577575905e+22,5.175382788031717e+20
4.635526673,-1.599556019573273e+23,3.4069991634090053e+22,5.1395789186430455e+20
4.637527339,-1.5940239405298148e+23,3.398247301559226e+22,5.103822960873953e+20
4.639527372,-1.588478542790012e+23,3.3894508689118816e+22,5.068115531563674e+20
4.641527405,-1.5829200788061368e+23,3.380610360359522e+22,5.032457242222794e+20
4.643527438,-1.577348799980868e+23,3.3717262689615437e+22,4.996848699091473e+20
4.645527471,-1.5717649566370008e+23,3.362799085922713e+22,4.9612905031973994e+20
4.647527504,-1.566168797987975e+23,3.353829300572254e+22,4.925783250413384e+20
4.649527537,-1.5605605721092518e+23,3.3448174003434623e+22,4.890327531514511e+20
4.651527537,-1.5549405259105585e+23,3.3357638707537917e+22,4.854923932234783e+20
4.653527503,-1.549308905109022e+23,3.3266691953853947e+22,4.819573033323211e+20
4.655527469,-1.543665954203215e+23,3.3175338558660857e+22,4.7842754105993016e+20
4.657527435,-1.5380119164481153e+23,3.308358331850699e+22,4.749031635007874e+20
4.659527068,-1.532347033830988e+23,3.2991431010028307e+22,4.713842272673134e+20
4.661526634,-1.526671547048185e+23,3.289888638976963e+22,4.6787078849519315e+20
4.663525934,-1.520985695482853e+23,3.280595419400946e+22,4.6436290284861155e+20
4.665525934,-1.5152897171835376e+23,3.27126391385883e+22,4.608606255253899e+20
4.667525467,-1.5095838488436753e+23,3.261894591874011e+22,4.5736401126201596e+20
4.669524833,-1.5038683257819783e+23,3.252487920892697e+22,4.538731143385585e+20
4.671524899,-1.4981433819237036e+23,3.2430443662677157e+22,4.5038798858345775e+20
4.673524965,-1.4924092497828125e+23,3.2335643912426905e+22,4.46908687378186e+20
4.675524098,-1.4866661604450237e+23,3.224048456936625e+22,4.434352636617713e+20
4.677524098,-1.4809143435517491e+23,3.214497022328947e+22,4.3996776993518204e+20
4.679524131,-1.4751540272849108e+23,3.2049105442450795e+22,4.365062582655679e+20
4.681524831,-1.4693854383526261e+23,3.1952894773425993e+22,4.330507802903582e+20
4.683524831,-1.463608801975759e+23,3.185634274098066e+22,4.296013872212193e+20
4.685523931,-1.4578243418753323e+23,3.175945384794603e+22,4.261581298478801e+20
4.687523931,-1.4520322802608136e+23,3.1662232575103237e+22,4.227210585418341e+20
4.689523931,-1.4462328378192876e+23,3.1564683381076925e+22,4.192902232599277e+20
4.691523931,-1.4404262337055207e+23,3.146681070223884e+22,4.1586567354784206e+20
4.693523931,-1.4346126855329241e+23,3.1368618952621996e+22,4.124474585434743e+20
4.695523931,-1.4287924093654166e+23,3.1270112523846093e+22,4.090356269802303e+20
4.697523264,-1.4229656197101803e+23,3.117129578505476e+22,4.0563022719023946e+20
4.69952323,-1.4171325295113086e+23,3.1072173082865025e+22,4.022313071075e+20
4.701523196,-1.4112933501443419e+23,3.09727487413293e+22,3.9883891427096396e+20
4.703523162,-1.4054482914116774e+23,3.0873027061910147e+22,3.954530958275699e+20
4.705523128,-1.3995975615388434e+23,3.0773012323467795e+22,3.9207389853523326e+20
4.707523094,-1.3937413671716293e+23,3.067270878226014e+22,3.887013687658026e+20
4.70952306,-1.38787991337405e+23,3.057212067195503e+22,3.8533555250798893e+20
4.711523026,-1.3820134036271255e+23,3.047125220365468e+22,3.819764953702696e+20
4.713523026,-1.3761420398284597e+23,3.0370107565932167e+22,3.786242425837705e+20
4.715523059,-1.3702660222926028e+23,3.0268690924879525e+22,3.752788390051279e+20
4.717523092,-1.3643855497521837e+23,3.0167006424167017e+22,3.7194032911933086e+20
4.719523458,-1.3585008193597922e+23,3.0065058185112988e+22,3.6860875704254595e+20
4.721523458,-1.3526120266905947e+23,2.9962850306763795e+22,3.652841665249238e+20
4.723524158,-1.3467193657456682e+23,2.9860386865983395e+22,3.6196660095338467e+20
4.725524191,-1.340823028956039e+23,2.9757671917552266e+22,3.5865610335438085e+20
4.727524691,-1.3349232071874161e+23,2.965470949427525e+22,3.55352716396633e+20
4.729525357,-1.3290200897456266e+23,2.9551503607097815e+22,3.520564823938396e+20
4.73152529,-1.3231138643827497e+23,2.944805824523005e+22,3.487674433073594e+20
4.733525223,-1.3172047173039559e+23,2.9344377376277575e+22,3.454856407488654e+20
4.735526089,-1.311292833175047e+23,2.9240464946378937e+22,3.422111159829707e+20
4.737526055,-1.3053783951306907e+23,2.9136324880348834e+22,3.389439099298214e+20
4.739526021,-1.2994615847833493e+23,2.9031961081826804e+22,3.356840631676552e+20
4.741525854,-1.293542582232908e+23,2.8927377433430803e+22,3.324316159353191e+20
4.743525854,-1.2876215660769961e+23,2.8822577796915277e+22,3.291866081347429e+20
4.745526754,-1.281698713421999e+23,2.87175660133333e+22,3.259490793333609e+20
4.747526787,-1.27577419989476e+23,2.8612345903202462e+22,3.227190687664822e+20
4.74952682,-1.269848199654956e+23,2.8506921266674162e+22,3.194966153396067e+20
4.751526853,-1.2639208854081382e+23,2.8401295883705965e+22,3.1628175763069e+20
4.753526886,-1.2579924284194175e+23,2.829547351423666e+22,3.1307453389236024e+20
4.755526919,-1.2520629985277712e+23,2.8189457898363433e+22,3.0987498205408815e+20
4.757526952,-1.2461327641609392e+23,2.80832527565206e+22,3.066831397243102e+20
4.759526985,-1.2402018923508678e+23,2.7976861789659437e+22,3.0349904419250346e+20
4.761526985,-1.234270548749661e+23,2.7870288679428325e+22,3.003227324312078e+20
4.763526985,-1.2283388976459823e+23,2.776353708835247e+22,2.971542410979925e+20
4.765526985,-1.2224071019818542e+23,2.765661066001252e+22,2.939936065373628e+20
4.767526985,-1.2164753233697985e+23,2.7549513019221185e+22,2.908408647826022e+20
4.769526985,-1.2105437221102649e+23,2.744224777219715e+22,2.876960515575471e+20
4.771526985,-1.2046124572092952e+23,2.733481850673575e+22,2.845592022782884e+20
4.773526985,-1.1986816863963838e+23,2.7227228792375944e+22,2.8143035205479642e+20
4.775526951,-1.1927515661424935e+23,2.711948218056351e+22,2.7830953569246826e+20
4.777526917,-1.1868222516781845e+23,2.7011582204809987e+22,2.75196787693598e+20
4.779526883,-1.1808938970118104e+23,2.690353238084719e+22,2.720921422587725e+20
4.781527016,-1.1749666549477338e+23,2.6795336206777135e+22,2.6899563328819665e+20
4.783526982,-1.1690406771045199e+23,2.668699716321726e+22,2.659072943829528e+20
4.785526948,-1.1631161139330611e+23,2.6578518713440647e+22,2.628271588461993e+20
4.787526914,-1.1571931147345933e+23,2.6469904303510954e+22,2.5975525968431415e+20
4.78952688,-1.1512718276785691e+23,2.636115736241189e+22,2.5669162960798876e+20
4.79152688,-1.1453523998203537e+23,2.625228130217134e+22,2.5363630103327618e+20
4.793526913,-1.1394349771186916e+23,2.614327951798038e+22,2.5058930608259832e+20
4.795526946,-1.1335197044529069e+23,2.6034155388307126e+22,2.4755067658571586e+20
4.797526979,-1.1276067256397954e+23,2.592491227500545e+22,2.4452044408066566e+20
4.799526779,-1.1216961834501838e+23,2.5815553523418676e+22,2.414986398146699e+20
4.801526812,-1.1157882196251291e+23,2.5706082462478136e+22,2.384852947450208e+20
4.803526845,-1.1098829748917408e+23,2.559650240479641e+22,2.354804395399465e+20
4.805526878,-1.1039805889786125e+23,2.548681664675493e+22,2.3248410457946377e+20
4.807526878,-1.0980812006308537e+23,2.5377028468585603e+22,2.2949631995622064e+20
4.809526844,-1.0921849476247004e+23,2.5267141134446263e+22,2.2651711547633094e+20
4.81152641,-1.0862919667816976e+23,2.5157157892489847e+22,2.2354652066020275e+20
4.813526376,-1.0804023939824506e+23,2.5047081974927515e+22,2.205845647433618e+20
4.815526342,-1.0745163641799415e+23,2.4936916598086194e+22,2.1763127667726955e+20
4.817526308,-1.0686340114124021e+23,2.482666496246126e+22,2.1468668513013727e+20
4.819526274,-1.0627554688157388e+23,2.471633025276479e+22,2.1175081848773463e+20
4.821525607,-1.0568808686355044e+23,2.4605915637969915e+22,2.0882370485419324e+20
4.823525607,-1.0510103422384127e+23,2.449542427135187e+22,2.059053720528067e+20
4.82552564,-1.0451440201233932e+23,2.4384859290526334e+22,2.029958476268283e+20
4.827525673,-1.0392820319321813e+23,2.4274223817485604e+22,2.0009515884026842e+20
4.829525706,-1.0334245064594525e+23,2.4163520958633095e+22,1.9720333267869447e+20
4.831525739,-1.0275715716624939e+23,2.405275380481662e+22,1.943203958500368e+20
4.833525772,-1.0217233546704235e+23,2.3941925431360843e+22,1.9144637478540594e+20
4.835525805,-1.0158799817929681e+23,2.3831038898099313e+22,1.8858129563992352e+20
4.837525838,-1.0100415785288064e+23,2.372009724940669e+22,1.8572518429357035e+20
4.839525871,-1.0042082695734876e+23,2.3609103514231886e+22,1.8287806635205303e+20
4.841526137,-9.983801788269533e+22,2.349806070613273e+22,1.8003996714769187e+20
4.843526137,-9.925574294006802e+22,2.338697182331248e+22,1.7721091174033025e+20
4.845526137,-9.867401436244596e+22,2.327583984865837e+22,1.74390924918266e+20
4.847526137,-9.8092844305284e+22,2.316466774978218e+22,1.7158003119920592e+20
4.849526137,-9.751224484712606e+22,2.3053458479062813e+22,1.6877825483124297e+20
4.851526137,-9.693222799019021e+22,2.2942214973691137e+22,1.6598561979385564e+20
4.853526103,-9.635280566092806e+22,2.2830940155716945e+22,1.6320214979892897e+20
4.855526069,-9.577398971056125e+22,2.2719636932097917e+22,1.60427868291795e+20
4.857526035,-9.51957919155975e+22,2.260830819475046e+22,1.5766279845229022e+20
4.859526235,-9.461822397832834e+22,2.249695682060211e+22,1.5490696319582837e+20
4.861526201,-9.404129752731058e+22,2.238558567164523e+22,1.5216038517448717e+20
4.863526167,-9.346502411783338e+22,2.227419759499156e+22,1.4942308677810717e+20
4.865526133,-9.28894152323722e+22,2.2162795422927318e+22,1.4669509013539848e+20
4.867526099,-9.231448228103112e+22,2.205138197296857e+22,1.4397641711505074e+20
4.869526099,-9.174023660197498e+22,2.1939960047916814e+22,1.4126708932684127e+20
4.871526532,-9.11666894618526e+22,2.1828532435914668e+22,1.3856712812273834e+20
4.873526565,-9.05938520562116e+22,2.171710191050125e+22,1.358765545979959e+20
4.875526598,-9.002173550990581e+22,2.1605671230666978e+22,1.3319538959223764e+20
4.877526631,-8.945035087749546e+22,2.1494243140907332e+22,1.3052365369052837e+20
4.879525997,-8.887970914364046e+22,2.138282037127499e+22,1.2786136722442997e+20
4.881526697,-8.830982122348776e+22,2.1271405637429887e+22,1.2520855027304012e+20
4.88352673,-8.774069796305384e+22,2.1160001640686774e+22,1.225652226640123e+20
4.88552673,-8.717235013960377e+22,2.1048611068059903e+22,1.1993140397455429e+20
4.887526696,-8.660478846202754e+22,2.0937236592304604e+22,1.1730711353240204e+20
4.889526662,-8.603802357121346e+22,2.0825880871955534e+22,1.146923704167659e+20
4.891526628,-8.547206604041889e+22,2.071454655136148e+22,1.120871934592461e+20
4.893526594,-8.490692637563807e+22,2.0603236260716493e+22,1.094916012447147e+20
4.89552656,-8.434261501596673e+22,2.0491952616087197e+22,1.069056121121614e+20
4.897526526,-8.377914233396241e+22,2.038069821943632e+22,1.0432924415550095e+20
4.899526492,-8.321651863599936e+22,2.0269475658642347e+22,1.0176251522433915e+20
4.901526492,-8.265475416261657e+22,2.01582875075153e+22,9.920544292469578e+19
4.903526525,-8.209385908885877e+22,2.0047136325808547e+22,9.665804461968222e+19
4.905526558,-8.15338435246103e+22,1.9936024659226576e+22,9.412033743013138e+19
4.907526591,-8.097471751492107e+22,1.9824955039428802e+22,9.159233823517822e+19
4.909526624,-8.041649104032429e+22,1.9713929984029525e+22,8.907406367278852e+19
4.911526657,-7.985917401714513e+22,1.9602951996594373e+22,8.656553014023317e+19
4.91352669,-7.930277629780033e+22,1.9492023566633594e+22,8.406675379450557e+19
4.915526723,-7.874730767108892e+22,1.9381147169592627e+22,8.157775055267994e+19
4.917526756,-7.819277786247429e+22,1.927032526684049e+22,7.909853609220886e+19
4.919526756,-7.763919653435754e+22,1.915956030565648e+22,7.662912585115848e+19
4.921526756,-7.708657328634181e+22,1.9048854719215463e+22,7.416953502838057e+19
4.923526756,-7.653491765548789e+22,1.8938210926571993e+22,7.171977858362075e+19
4.925526756,-7.598423911656114e+22,1.882763133264343e+22,6.927987123756289e+19
4.927526756,-7.543454708226962e+22,1.871711832819238e+22,6.684982747180925e+19
4.929526756,-7.488585090349237e+22,1.8606674289808697e+22,6.442966152879656e+19
4.931526322,-7.433815986949721e+22,1.849630157989116e+22,6.201938741164894e+19
4.933526288,-7.37914832081472e+22,1.8386002546628934e+22,5.961901888396755e+19
4.935526254,-7.3245830086095675e+22,1.8275779523982844e+22,5.722856946955747e+19
4.93752672,-7.2701209608969255e+22,1.816563483166659e+22,5.4848052452091625e+19
4.939527353,-7.215763082153789e+22,1.8055570775127819e+22,5.247748087471171e+19
4.941527319,-7.161510270787123e+22,1.794558964552888e+22,5.011686753956633e+19
4.943527285,-7.107363419148123e+22,1.7835693719727062e+22,4.7766225007285895e+19
4.945527251,-7.053323413545105e+22,1.772588526025413e+22,4.542556559639432e+19
4.947527251,-6.9993911342550445e+22,1.761616651529511e+22,4.3094901382658064e+19
4.949527284,-6.945567455533688e+22,1.7506539718666422e+22,4.077424419837241e+19
4.951527317,-6.891853245624143e+22,1.7397007089793503e+22,3.846360563158539e+19
4.95352735,-6.838249366763844e+22,1.7287570833688003e+22,3.6162997025259553e+19
4.955527383,-6.784756675189841e+22,1.717823314092459e+22,3.387242947637238e+19
4.957527416,-6.731376021142348e+22,1.7068996187617501e+22,3.1591913834955702e+19
4.959527449,-6.678108248866506e+22,1.6959862135396915e+22,2.932146070307478e+19
4.961527082,-6.624954196612328e+22,1.6850833131385215e+22,2.7061080433747788e+19
4.963527082,-6.571914696632795e+22,1.6741911308173134e+22,2.4810783129806635e+19
4.965527048,-6.518990575180038e+22,1.6633098783795775e+22,2.2570578642700075e+19
4.967527014,-6.466182652499597e+22,1.6524397661708691e+22,2.034047657123984e+19
4.96952698,-6.413491742822734e+22,1.6415810030764193e+22,1.81204862602907e+19
4.971526946,-6.36091865435684e+22,1.6307337965188082e+22,1.5910616799405556e+19
4.973526912,-6.3084641892739165e+22,1.619898352455693e+22,1.3710877021406822e+19
4.975526878,-6.256129143697154e+22,1.6090748753776036e+22,1.1521275500915065e+19
4.977526844,-6.2039143076856865e+22,1.5982635683058171e+22,9.341820552826225e+18
4.979526844,-6.151820465217618e+22,1.5874646327903276e+22,7.172520230738633e+18
4.981526844,-6.0998483941713995e+22,1.576678268907942e+22,5.013382325331026e+18
4.983526844,-6.047998866305652e+22,1.5659046752605434e+22,2.864414362692956e+18
4.985526844,-5.996272647237521e+22,1.5551440489735478e+22,7.2562360260915e+17
4.987526844,-5.944670496419645e+22,1.544396585694589e+22,-1.4029829632004915e+18
4.989526844,-5.893193167115832e+22,1.5336624795924625e+22,-3.5213986128835133e+18
4.99152691,-5.841841406375492e+22,1.5229419233563598e+22,-5.629616896298336e+18
4.99352691,-5.7906159550069e+22,1.5122351081954197e+22,-7.727631636896596e+18
4.99552691,-5.739517547549334e+22,1.5015422238386213e+22,-9.815436933642387e+18
4.997526443,-5.688546912244168e+22,1.4908634585350472e+22,-1.1893027162966376e+19
4.999526476,-5.6377047710050005e+22,1.4801989990545413e+22,-1.3960396980752679e+19
5.001526509,-5.586991839386953e+22,1.4695490306887876e+22,-1.6017541324356338e+19
5.003526542,-5.536408826555248e+22,1.4589137372528282e+22,-1.806445541464916e+19
5.005526575,-5.4859564352531794e+22,1.448293301087027e+22,-2.0101134758091653e+19
5.007526608,-5.435635361769591e+22,1.4376879030594743e+22,-2.2127575148828656e+19
5.009526608,-5.3854462959060074e+22,1.4270977225688422e+22,-2.4143772670805967e+19
5.011526574,-5.335389920943514e+22,1.4165229375476984e+22,-2.61497236999051e+19
5.01352654,-5.285466913609418e+22,1.40596372446629e+22,-2.81454249060932e+19
5.015526506,-5.235677944043709e+22,1.3954202583368087e+22,-3.0130873255585153e+19
5.017526472,-5.186023675765336e+22,1.3848927127181545e+22,-3.210606601301485e+19
5.019526438,-5.136504765638361e+22,1.3743812597212183e+22,-3.4071000743612416e+19
5.021525904,-5.087121863838096e+22,1.363886070014696e+22,-3.602567531538422e+19
5.02352587,-5.037875613817247e+22,1.353407312831439e+22,-3.797008790129253e+19
5.025525203,-4.988766652272066e+22,1.3429451559753367e+22,-3.990423698143183e+19
5.027525236,-4.939795609108505e+22,1.3324997658287242e+22,-4.182812134519905e+19
5.029524869,-4.8909631074083466e+22,1.3220713073603225e+22,-4.374174009345448e+19
5.031524902,-4.842269763395312e+22,1.3116599441337067e+22,-4.564509264067042e+19
5.033524935,-4.793716186401117e+22,1.3012658383162924e+22,-4.753817871706417e+19
5.035524968,-4.745302978831444e+22,1.2908891506888365e+22,-4.942099837071275e+19
5.037525001,-4.697030736131822e+22,1.2805300406554414e+22,-5.129355196964641e+19
5.039525034,-4.648900046753439e+22,1.2701886662540425e+22,-5.315584020391887e+19
5.041525067,-4.600911492118969e+22,1.259865184167352e+22,-5.500786408765181e+19
5.043525067,-4.553065646588497e+22,1.2495597497342453e+22,-5.684962496105139e+19
5.045525067,-4.5053630774255595e+22,1.2392725169615845e+22,-5.86811244923943e+19
5.047525067,-4.457804344763329e+22,1.2290036385364788e+22,-6.0502364679981105e+19
5.0495244,-4.410390001570981e+22,1.2187532658389813e+22,-6.231334785405505e+19
5.051524733,-4.363120593620235e+22,1.208521548955216e+22,-6.4114076678683886e+19
5.053524733,-4.315996659452117e+22,1.1983086366909266e+22,-6.590455415360297e+19
5.055524733,-4.269018730343946e+22,1.1881146765854321e+22,-6.768478361601737e+19
5.057524699,-4.22218733027664e+22,1.177939814925963e+22,-6.945476874236074e+19
5.059524665,-4.17550297590233e+22,1.1677841967623426e+22,-7.121451355000865e+19
5.061524631,-4.128966176512326e+22,1.1576479659219694e+22,-7.296402239894336e+19
5.063524197,-4.082577434005467e+22,1.147531265025061e+22,-7.470329999336774e+19
5.065524163,-4.036337242856928e+22,1.1374342355001257e+22,-7.643235138326535e+19
5.067524129,-3.990246090087554e+22,1.1273570175996293e+22,-7.81511819659051e+19
5.069524095,-3.944304455233738e+22,1.1172997504158157e+22,-7.985979748728806e+19
5.071524095,-3.8985128103178825e+22,1.1072625718966442e+22,-8.15582040435344e+19
5.073524095,-3.8528716198194534e+22,1.097245618861816e+22,-8.324640808220872e+19
5.075524128,-3.807381340646682e+22,1.0872490270188728e+22,-8.492441640358209e+19
5.077524161,-3.7620424221089883e+22,1.077272930979344e+22,-8.659223616183062e+19
5.079524194,-3.7168553058902196e+22,1.067317464274932e+22,-8.824987486617036e+19
5.081525027,-3.6718204260228056e+22,1.0573827593737263e+22,-8.989734038192914e+19
5.08352506,-3.626938208862929e+22,1.0474689476964345e+22,-9.153464093155512e+19
5.08552576,-3.5822090730667575e+22,1.0375761596326231e+22,-9.31617850955622e+19
5.08752576,-3.5376334295678103e+22,1.0277045245569548e+22,-9.477878181341207e+19
5.08952616,-3.4932116815555313e+22,1.0178541708454046e+22,-9.638564038433256e+19
5.091526126,-3.4489442244551713e+22,1.0080252258914404e+22,-9.798237046807213e+19
5.093526092,-3.4048314459090573e+22,9.982178161221492e+21,-9.95689820855898e+19
5.095526058,-3.3608737257593254e+22,9.884320670142907e+21,-1.0114548561967972e+20
5.097525124,-3.317071436032201e+22,9.78668103110253e+21,-1.0271189181552984e+20
5.09952509,-3.2734249409239084e+22,9.689260480338801e+21,-1.0426821178121362e+20
5.101525056,-3.2299345967882904e+22,9.592060245061466e+21,-1.058144569881133e+20
5.103525056,-3.1866007521261674e+22,9.495081543606565e+21,-1.0735063927127251e+20
5.105525089,-3.1434237475764757e+22,9.398325585589446e+21,-1.0887677082967658e+20
5.107525122,-3.100403915909191e+22,9.301793572055559e+21,-1.1039286422645939e+20
5.109525822,-3.057541582020074e+22,9.205486695628833e+21,-1.118989323890355e+20
5.111525855,-3.0148370629272445e+22,9.109406140657327e+21,-1.1339498860915668e+20
5.113525888,-2.9722906677695933e+22,9.013553083355945e+21,-1.148810465428907e+20
5.115525921,-2.9299026978070386e+22,8.917928691945978e+21,-1.163571202105213e+20
5.117526221,-2.887673446422639e+22,8.822534126791333e+21,-1.1782322399636659e+20
5.119526254,-2.845603199126601e+22,8.727370540531392e+21,-1.1927937264851301e+20
5.121526254,-2.8036922335621957e+22,8.632439078210394e+21,-1.2072558127846182e+20
5.123526654,-2.76194081951361e+22,8.537740877403232e+21,-1.2216186536068514e+20
5.125526654,-2.7203492189157596e+22,8.443277068337613e+21,-1.2358824073208909e+20
5.127526654,-2.6789176858661104e+22,8.349048774012531e+21,-1.2500472359138139e+20
5.129526654,-2.6376464666385636e+22,8.255057110312992e+21,-1.2641133049834059e+20
5.131526654,-2.596535799699431e+22,8.161303186121001e+21,-1.278080783729855e+20
5.133526654,-2.5555859157255102e+22,8.067788103422818e+21,-1.2919498449464407e+20
5.13552662,-2.514797037624242e+22,7.974512957412554e+21,-1.30572066500921e+20
5.137526586,-2.474169380555932e+22,7.88147883659214e+21,-1.3193934238656417e+20
5.139526552,-2.433703151958042e+22,7.788686822867749e+21,-1.3329683050222885e+20
5.141526418,-2.3933985515715252e+22,7.696137991642711e+21,-1.346445495531387e+20
5.143526384,-2.3532557714691818e+22,7.603833411907013e+21,-1.3598251859764275e+20
5.14552635,-2.313274996085987e+22,7.511774146323485e+21,-1.373107570456688e+20
5.147526316,-2.2734564022513517e+22,7.419961251310822e+21,-1.386292846570731e+20
5.149526282,-2.2338001592232394e+22,7.328395777123576e+21,-1.3993812153988625e+20
5.151526282,-2.1943064287240935e+22,7.237078767929232e+21,-1.4123728814845474e+20
5.153526315,-2.1549753649785494e+22,7.146011261882453e+21,-1.4252680528147775e+20
5.155526348,-2.1158071147529008e+22,7.055194291196622e+21,-1.438066940799404e+20
5.157527281,-2.0768018173963113e+22,6.964628882212778e+21,-1.4507697602494359e+20
5.159527314,-2.037959604883734e+22,6.874316055465993e+21,-1.4633767293543186e+20
5.161527347,-1.9992806018605054e+22,6.784256825749221e+21,-1.4758880696581856e+20
5.16352738,-1.9607649256885933e+22,6.694452202174608e+21,-1.488304006035074e+20
5.16552738,-1.9224126864944873e+22,6.604903188232279e+21,-1.5006247666630892e+20
5.16752738,-1.8842239872187171e+22,6.515610781846612e+21,-1.5128505829975078e+20
5.169527346,-1.8461989236669824e+22,6.426575975429972e+21,-1.5249816897428154e+20
5.171526879,-1.8083375845628587e+22,6.337799755933891e+21,-1.53701832482368e+20
5.173526845,-1.7706400516020397e+22,6.249283104897673e+21,-1.5489607293548626e+20
5.175526811,-1.7331063995080727e+22,6.161026998494336e+21,-1.5608091476100802e+20
5.177526711,-1.6957366960895507e+22,6.073032407573806e+21,-1.5725638269898274e+20
5.179526677,-1.6585310022987187e+22,5.985300297703343e+21,-1.584225017988181e+20
5.181526743,-1.6214893722914467e+22,5.897831629205178e+21,-1.595792974158606e+20
5.183526776,-1.5846118534885138e+22,5.810627357191363e+21,-1.607267952078797e+20
5.185526809,-1.547898486638154e+22,5.723688431595811e+21,-1.6186502113145756e+20
5.187526842,-1.5113493058798005e+22,5.637015797203533e+21,-1.6299400143828602e+20
5.189526875,-1.474964338808974e+22,5.550610393677055e+21,-1.64113762671372e+20
5.191526908,-1.4387436065432602e+22,5.464473155579937e+21,-1.6522433166115367e+20
5.193526941,-1.4026871237893301e+22,5.378605012397324e+21,-1.663257355215283e+20
5.195526974,-1.3667948989109649e+22,5.293006888553475e+21,-1.6741800164579292e+20
5.197527007,-1.3310669339980485e+22,5.207679703426204e+21,-1.6850115770249825e+20
5.199527007,-1.295503224936504e+22,5.122624371358196e+21,-1.6957523163122e+20
5.201527207,-1.260103761479145e+22,5.037841801665214e+21,-1.706402516382497e+20
5.203527207,-1.2248685273174105e+22,4.953332898641188e+21,-1.7169624619220782e+20
5.205527207,-1.189797500153949e+22,4.869098561560189e+21,-1.7274324401958132e+20
5.207527207,-1.1548906517760246e+22,4.785139684675217e+21,-1.73781274100187e+20
5.209527207,-1.1201479481297092e+22,4.701457157213743e+21,-1.748103656625647e+20
5.211527207,-1.0855693493948257e+22,4.618051863369927e+21,-1.7583054817930222e+20
5.21352734,-1.0511548100606006e+22,4.5349246822935125e+21,-1.768418513622941e+20
5.215527306,-1.0169042790019827e+22,4.4520764880754406e+21,-1.7784430515793612e+20
5.217527272,-9.82817699556591e+21,4.3695081497302223e+21,-1.7883793974225456e+20
5.219527238,-9.488950096022477e+21,4.2872205311751194e+21,-1.7982278551597115e+20
5.221526838,-9.15136141635048e+21,4.205214491206161e+21,-1.807988730995042e+20
5.223526138,-8.815410228479186e+21,4.123490883471019e+21,-1.8176623332790554e+20
5.225526104,-8.481095752096118e+21,4.042050556438776e+21,-1.8272489724573332e+20
5.22752607,-8.148417155440912e+21,3.9608943533666127e+21,-1.8367489610185887e+20
5.22952607,-7.817373556102656e+21,3.880023112263437e+21,-1.8461626134420573e+20
5.231526136,-7.48796402182037e+21,3.799437665850452e+21,-1.8554902461441822e+20
5.233526169,-7.160187571286252e+21,3.7191388415186887e+21,-1.864732177424565e+20
5.235526202,-6.834043174951242e+21,3.6391274612835316e+21,-1.8738887274111487e+20
5.237525135,-6.509529755832493e+21,3.559404341736237e+21,-1.8829602180046206e+20
5.239525168,-6.186646190322293e+21,3.4799702939924473e+21,-1.8919469728220237e+20
5.241525134,-5.865391308997988e+21,3.4008261236376826e+21,-1.900849317139558e+20
5.243525134,-5.54576389743245e+21,3.321972630669811e+21,-1.9096675778345356e+20
5.245525134,-5.227762697004638e+21,3.243410609438504e+21,-1.918402083326473e+20
5.2475251,-4.911386405709717e+21,3.165140848581647e+21,-1.9270531635173025e+20
5.249525066,-4.59663367896825e+21,3.0871641309586695e+21,-1.935621149730687e+20
5.251525032,-4.2835031304339613e+21,3.009481233580809e+21,-1.9441063746504412e+20
5.253524998,-3.9719933327995316e+21,2.932092927538295e+21,-1.952509172258093e+20
5.255524964,-3.6621028185998025e+21,2.8549999779244765e+21,-1.960829877769609e+20
5.257525864,-3.3538300810117807e+21,2.778203143756883e+21,-1.969068827571302e+20
5.259525864,-3.0471735746508347e+21,2.701703177895219e+21,-1.977226359154947e+20
5.261525897,-2.7421317163624914e+21,2.625500826956307e+21,-1.985302811052123e+20
5.26352553,-2.438702886009241e+21,2.549596831225974e+21,-1.993298522767816e+20
5.265525563,-2.1368854272517352e+21,2.473991924567872e+21,-2.0012138347133036e+20
5.267525596,-1.8366776483237467e+21,2.3986868343292675e+21,-2.0090490881383517e+20
5.269525629,-1.5380778228002335e+21,2.3236822812438582e+21,-2.016804625062751e+20
5.271525662,-1.2410841903578334e+21,2.2489789793316488e+21,-2.024480788207226e+20
5.273525528,-9.456949575271307e+20,2.1745776357959438e+21,-2.032077920923762e+20
5.275525561,-6.519082984360483e+20,2.1004789509175084e+21,-2.0395963671253798e+20
5.277525561,-3.597223555437205e+20,2.0266836179459401e+21,-2.0470364712154064e+20
5.279525561,-6.913524036421576e+19,1.9531923229883163e+21,-2.0543985780162796e+20
5.281525927,2.1985496582051332e+20,1.8800057448951993e+21,-2.0616830326979297e+20
5.283526593,5.0725021125907055e+20,1.8071245551440956e+21,-2.068890180705777e+20
5.285526593,7.930524730410601e+20,1.734549417720476e+21,-2.076020367688372e+20
5.287526593,1.07726375642014e+21,1.6622809889964577e+21,-2.083073939424729e+20
5.289526593,1.3598860941502846e+21,1.5903199176072605e+21,-2.0900512417514075e+20
5.291526959,1.6409215458358508e+21,1.5186668443255502e+21,-2.096952620489402e+20
5.293526925,1.9203721972960345e+21,1.4473224019338016e+21,-2.1037784213708892e+20
5.295526891,2.198240159944298e+21,1.3762872150948053e+21,-2.110528989965902e+20
5.297527357,2.4745275701833195e+21,1.3055619002204537e+21,-2.1172046716090057e+20
5.299527323,2.7492365888159943e+21,1.2351470653389605e+21,-2.1238058113260533e+20
5.301527289,3.022369400473e+21,1.1650433099606734e+21,-2.1303327537611303e+20
5.303527255,3.2939282130574456e+21,1.0952512249426388e+21,-2.136785843103801e+20
5.305527221,3.5639152572070856e+21,1.0257713923520903e+21,-2.143165423016765e+20
5.307527221,3.832332785774563e+21,9.566043853290409e+20,-2.149471836564006e+20
5.309527254,4.09918307332613e+21,8.877507679481517e+20,-2.155705426139535e+20
5.311527287,4.3644684156593127e+21,8.192110950800467e+20,-2.1618665333968287e+20
5.31352732,4.628191129339947e+21,7.5098591225224e+20,-2.167955499179036e+20
5.315527353,4.890353551258979e+21,6.830757555098354e+20,-2.1739726634500227e+20
5.317526453,5.150958038209412e+21,6.15481151276164e+20,-2.179918365226306e+20
5.319526486,5.4100069664838e+21,5.4820261621352e+20,-2.185792942509932e+20
5.321526086,5.667502731492659e+21,4.812406570841507e+20,-2.191596732222336e+20
5.323526486,5.923447747404123e+21,4.145957706116644e+20,-2.1973300701392273e+20
5.325526452,6.177844446805057e+21,3.4826844334301485e+20,-2.2029932908265236e+20
5.327526418,6.430695280383818e+21,2.822591515112301e+20,-2.208586727577383e+20
5.329526384,6.68200271663481e+21,2.1656836089904995e+20,-2.2141107123503917e+20
5.33152635,6.93176924158497e+21,1.5119652670363828e+20,-2.219565575708942e+20
5.333526316,7.179997358542312e+21,8.614409340254205e+19,-2.2249516467618395e+20
5.335526282,7.426689587866602e+21,2.141149462107331e+19,-2.2302692531051823e+20
5.337526282,7.671848466762189e+21,-4.300084699870816e+19,-2.235518720765581e+20
5.339526282,7.91547654909304e+21,-1.070925199272318e+20,-2.2407003741447756e+20
5.341526315,8.157576405219923e+21,-1.708631238746922e+20,-2.2458145359656832e+20
5.343526348,8.398150621859771e+21,-2.3431226991618294e+20,-2.2508615272199147e+20
5.345526381,8.637201801967296e+21,-2.9743958061450736e+20,-2.2558416671168057e+20
5.347526414,8.874732564638949e+21,-3.602446901404846e+20,-2.260755273034008e+20
5.349526447,9.110745545039298e+21,-4.2272724439056935e+20,-2.2656026604696922e+20
5.35152728,9.345243394349891e+21,-4.848869011016049e+20,-2.2703841429963984e+20
5.353527313,9.578228779740589e+21,-5.467233299625264e+20,-2.275100032216544e+20
5.355527313,9.809704384363342e+21,-6.082362127228307e+20,-2.27975063771959e+20
5.357527713,1.0039672907368405e+22,-6.694252432976322e+20,-2.2843362670408578e+20
5.359527713,1.02681370639429e+22,-7.302901278691253e+20,-2.2888572256220008e+20
5.361527713,1.0495099585371572e+22,-7.908305849842758e+20,-2.293313816773135e+20
5.363527713,1.07205632191195e+22,-8.510463456485667e+20,-2.297706341636642e+20
5.365527713,1.0944530728936448e+22,-9.109371534156256e+20,-2.3020350991526422e+20
5.367527713,1.116700489498253e+22,-9.705027644725605e+20,-2.306300386026143e+20
5.369527679,1.1387988513974808e+22,-1.0297429477208443e+21,-2.3105024966958776e+20
5.371527645,1.160748439935446e+22,-1.0886574848525866e+21,-2.3146417233048424e+20
5.373527611,1.182549538147413e+22,-1.1472461704220388e+21,-2.318718355672552e+20
5.375527577,1.2042024307804997e+22,-1.205508811912175e+21,-2.322732681269029e+20
5.377527543,1.2257074043163058e+22,-1.263445229796208e+21,-2.326684985190541e+20
5.379527509,1.2470647469954084e+22,-1.3210552575938989e+21,-2.330575550137075e+20
5.381527975,1.2682747488436513e+22,-1.3783387419225327e+21,-2.334404656391557e+20
5.383527941,1.2893377017001516e+22,-1.4352955425424262e+21,-2.338172581800803e+20
5.385527941,1.3102538992469448e+22,-1.4919255323968432e+21,-2.3418796017582054e+20
5.387527974,1.3310236370401885e+22,-1.548228597646199e+21,-2.3455259891881424e+20
5.389528007,1.3516472125428351e+22,-1.6042046376964564e+21,-2.3491120145321165e+20
5.39152804,1.3721249251586705e+22,-1.659853565221629e+21,-2.3526379457366144e+20
5.393528073,1.392457076267625e+22,-1.7151753061803166e+21,-2.3561040482426762e+20
5.395528106,1.4126439692622526e+22,-1.770169799826194e+21,-2.3595105849771662e+20
5.397528139,1.4326859095852695e+22,-1.824836998712397e+21,-2.3628578163457235e+20
5.399528172,1.4525832047680513e+22,-1.8791768686897492e+21,-2.3661460002273624e+20
5.401528172,1.4723361644699873e+22,-1.9331893888987903e+21,-2.369375391970702e+20
5.403528138,1.4919451005185897e+22,-1.9868745517555515e+21,-2.3725462443918282e+20
5.405528104,1.5114103269502474e+22,-2.0402323629310382e+21,-2.375658807773802e+20
5.40752807,1.530732160051511e+22,-2.0932628413243646e+21,-2.3787133298678458e+20
5.409528036,1.5499109184007945e+22,-2.1459660190295104e+21,-2.3817100558962446e+20
5.411527202,1.5689469229103736e+22,-2.1983419412956924e+21,-2.3846492285569938e+20
5.413527168,1.5878404968685656e+22,-2.2503906664813576e+21,-2.3875310880302144e+20
5.415527168,1.6065919659819787e+22,-2.3021122660018065e+21,-2.3903558719863416e+20
5.417527168,1.6252016584177278e+22,-2.353506824270486e+21,-2.393123815596087e+20
5.419527201,1.6436699048455094e+22,-2.404574438634002e+21,-2.395835151542177e+20
5.421526567,1.6619970384794292e+22,-2.455315219300934e+21,-2.3984901100328845e+20
5.4235266,1.6801833951194784e+22,-2.505729289264579e+21,-2.4010889188173886e+20
5.425526633,1.6982293131925746e+22,-2.5558167842197435e+21,-2.4036318032029994e+20
5.427526666,1.7161351337930834e+22,-2.6055778524737453e+21,-2.4061189860742896e+20
5.429526699,1.7339012007227317e+22,-2.655012654851782e+21,-2.4085506879141472e+20
5.431526732,1.7515278605298023e+22,-2.7041213645968323e+21,-2.4109271268267524e+20
5.433526732,1.769015462547487e+22,-2.752904167264281e+21,-2.4132485185624814e+20
5.435526732,1.7863643589312676e+22,-2.8013612606114465e+21,-2.4155150765447132e+20
5.437526732,1.8035749046951933e+22,-2.849492854482227e+21,-2.4177270118984922e+20
5.439526732,1.8206474577469287e+22,-2.897299170687076e+21,-2.419884533480995e+20
5.441526232,1.8375823789214554e+22,-2.9447804428785465e+21,-2.4219878479137604e+20
5.443526232,1.8543800320133178e+22,-2.9919369164226854e+21,-2.4240371596166352e+20
5.445526232,1.8710407838072973e+22,-3.038768848266527e+21,-2.426032670843378e+20
5.447525598,1.887565004107408e+22,-3.0852765068019536e+21,-2.4279745817188578e+20
5.449525564,1.9039530657641214e+22,-3.131460171726135e+21,-2.4298630902777958e+20
5.45152553,1.920205344699728e+22,-3.1773201338988117e+21,-2.4316983925050075e+20
5.453525496,1.936322219931754e+22,-3.222856695196701e+21,-2.4334806823770758e+20
5.455525329,1.952304073594355e+22,-3.268070168365317e+21,-2.4352101519053947e+20
5.457525295,1.9681512909576197e+22,-3.3129608768684944e+21,-2.436886991180514e+20
5.459525261,1.9838642604447004e+22,-3.357529154735919e+21,-2.4385113884177072e+20
5.461525227,1.9994433736467003e+22,-3.4017753464089524e+21,-2.4400835300036864e+20
5.463525227,2.014889025335253e+22,-3.44569980658504e+21,-2.441603600544377e+20
5.46552526,2.0302016134727506e+22,-3.489302900060975e+21,-2.4430717829136803e+20
5.467525293,2.0453815392201643e+22,-3.532585001575313e+21,-2.4444882583031487e+20
5.469525326,2.0604292069424173e+22,-3.5755464956502344e+21,-2.445853206272517e+20
5.471524959,2.075345024211253e+22,-3.6181877764331437e+21,-2.447166804801015e+20
5.473524992,2.0901294018055515e+22,-3.6605092475382656e+21,-2.4484292303393758e+20
5.475525025,2.1047827537090195e+22,-3.7025113218884997e+21,-2.4496406578624646e+20
5.477525558,2.1193054971051985e+22,-3.7441944215577816e+21,-2.4508012609224363e+20
5.479525558,2.1336980523697337e+22,-3.7855589776142033e+21,-2.4519112117023513e+20
5.481526191,2.1479608430598377e+22,-3.8266054299641446e+21,-2.4529706810701827e+20
5.483526157,2.1620942959009025e+22,-3.8673342271976374e+21,-2.453979838633164e+20
5.485526123,2.176098840770222e+22,-3.907745826435173e+21,-2.4549388527924334e+20
5.487526089,2.1899749106777886e+22,-3.947840693176149e+21,-2.455847890797923e+20
5.489526055,2.2037229417441213e+22,-3.987619301149125e+21,-2.4567071188034545e+20
5.491526021,2.217343373175106e+22,-4.027082132164031e+21,-2.457516701921997e+20
5.493526021,2.2308366472338427e+22,-4.066229675966463e+21,-2.4582768042810357e+20
5.495526021,2.244203209209515e+22,-4.105062430094165e+21,-2.4589875890780006e+20
5.497526021,2.2574435073833017e+22,-4.143580899735807e+21,-2.4596492186357098e+20
5.499526021,2.2705579929913585e+22,-4.1817855975921633e+21,-2.460261854457805e+20
5.501526421,2.2835471201849066e+22,-4.219677043739792e+21,-2.46082565728415e+20
5.503526421,2.29641134598747e+22,-4.257255765497325e+21,-2.4613407871461464e+20
5.505526421,2.309151130249315e+22,-4.2945222972944553e+21,-2.4618074034219096e+20
5.507527021,2.321766935599157e+22,-4.331477180543729e+21,-2.4622256648912555e+20
5.509527021,2.3342592273931924e+22,-4.3681209635152163e+21,-2.4625957297904393e+20
5.511527054,2.346628473661527e+22,-4.404454201214158e+21,-2.4629177558665763e+20
5.513527087,2.3588751450520655e+22,-4.440477455261685e+21,-2.4631919004316834e+20
5.515527253,2.3709997147719203e+22,-4.4761912937787026e+21,-2.463418320416274e+20
5.517527286,2.383002658526404e+22,-4.5115962912730346e+21,-2.4635971724224548e+20
5.519527319,2.3948844544556804e+22,-4.5466930285299557e+21,-2.4637286127764793e+20
5.521527352,2.4066455830691242e+22,-4.581482092506219e+21,-2.4638127975807058e+20
5.523527385,2.418286527177498e+22,-4.61596407622768e+21,-2.463849882764918e+20
5.525527385,2.4298077718230182e+22,-4.650139578690624e+21,-2.463840024136964e+20
5.527527351,2.441209804207377e+22,-4.6840092047668496e+21,-2.4637833774326874e+20
5.529527317,2.4524931136178253e+22,-4.717573565112593e+21,-2.463680098365124e+20
5.53152795,2.4636581913514144e+22,-4.750833276081372e+21,-2.463530342672905e+20
5.533527916,2.474705530637491e+22,-4.783788959640836e+21,-2.4633342661677993e+20
5.535527882,2.485635626558552e+22,-4.816441243293645e+21,-2.463092024781329e+20
5.537527348,2.4964489759695816e+22,-4.848790760002402e+21,-2.4628037746103865e+20
5.539527314,2.5071460774159952e+22,-4.880838148118641e+21,-2.462469671961795e+20
5.541527314,2.517727431050308e+22,-4.912584051315899e+21,-2.4620898733957553e+20
5.543527347,2.528193538547621e+22,-4.944029118526841e+21,-2.4616645357681168e+20
5.54552738,2.5385449030200446e+22,-4.975174003884433e+21,-2.4611938162714267e+20
5.547527413,2.5487820289301805e+22,-5.006019366667176e+21,-2.460677872474713e+20
5.549527813,2.558905422003828e+22,-5.036565871248431e+21,-2.460116862361967e+20
5.551527846,2.568915589142063e+22,-5.066814187049776e+21,-2.4595109443693e+20
5.553527879,2.578813038332831e+22,-5.096764988498425e+21,-2.458860277420741e+20
5.555527912,2.5885982785621664e+22,-5.126418954988663e+21,-2.4581650209626312e+20
5.557527945,2.5982718197251508e+22,-5.15577677084726e+21,-2.457425334996566e+20
5.559527945,2.6078341725366874e+22,-5.184839125302784e+21,-2.4566413801108328e+20
5.561527945,2.6172858484421833e+22,-5.213606712458743e+21,-2.455813317510305e+20
5.563527945,2.626627359528217e+22,-5.242080231270463e+21,-2.454941309044772e+20
5.565527945,2.6358592184332663e+22,-5.270260385525656e+21,-2.4540255172356735e+20
5.567527945,2.644981938258596e+22,-5.298147883828554e+21,-2.453066105301222e+20
5.569527945,2.653996032479408e+22,-5.325743439587484e+21,-2.4520632371798894e+20
5.571527911,2.6629020148563616e+22,-5.353047771005711e+21,-2.4510170775522483e+20
5.573527877,2.6717003993475837e+22,-5.380061601075382e+21,-2.4499277918611623e+20
5.575527843,2.6803917000213004e+22,-5.406785657574384e+21,-2.4487955463303253e+20
5.577527809,2.688976430969199e+22,-5.433220673065963e+21,-2.447620507981151e+20
5.579527775,2.6974551062206092e+22,-5.459367384900927e+21,-2.446402844648006e+20
5.581527741,2.7058282396575936e+22,-5.485226535222285e+21,-2.4451427249917893e+20
5.583527707,2.714096344931035e+22,-5.510798870972172e+21,-2.4438403185118465e+20
5.585527673,2.722259935377793e+22,-5.536085143900909e+21,-2.442495795556209e+20
5.587527673,2.7303195239390044e+22,-5.561086110578044e+21,-2.4411093273301615e+20
5.589527673,2.7382756230795733e+22,-5.585802532405153e+21,-2.439681085903143e+20
5.591527973,2.7461287447089075e+22,-5.610235175630237e+21,-2.4382112442139856e+20
5.593528006,2.7538794001029505e+22,-5.634384811363521e+21,-2.4366999760745005e+20
5.595528039,2.761528099827557e+22,-5.658252215594456e+21,-2.4351474561714356e+20
5.597528072,2.769075353663237e+22,-5.681838169209742e+21,-2.4335538600668273e+20
5.599528105,2.7765216705313017e+22,-5.705143458012219e+21,-2.4319193641967708e+20
5.601528138,2.7838675584214544e+22,-5.728168872740487e+21,-2.4302441458686204e+20
5.603528138,2.7911135243208623e+22,-5.750915209089157e+21,-2.4285283832566383e+20
5.605528104,2.7982600741447423e+22,-5.773383267729487e+21,-2.4267722553961297e+20
5.60752807,2.8053077126684944e+22,-5.795573854330291e+21,-2.424975942176093e+20
5.60952767,2.812256943461431e+22,-5.817487779578996e+21,-2.4231396243303983e+20
5.611527636,2.8191082688221454e+22,-5.839125859202708e+21,-2.421263483427514e+20
5.613527602,2.8258621897155556e+22,-5.860488913989241e+21,-2.419347701858802e+20
5.615527568,2.832519205711682e+22,-5.881577769807982e+21,-2.417392462825398e+20
5.617527534,2.8390798149261915e+22,-5.902393257630556e+21,-2.4153979503236796e+20
5.619527534,2.845544513962732e+22,-5.922936213551234e+21,-2.4133643491293423e+20
5.6215269,2.8519137978570726e+22,-5.943207478806998e+21,-2.4112918447801028e+20
5.623526933,2.8581881600230864e+22,-5.963207899797187e+21,-2.409180623557068e+20
5.625526966,2.8643680922005815e+22,-5.982938328102643e+21,-2.4070308724647998e+20
5.627526999,2.870454084405024e+22,-6.00239962050422e+21,-2.4048427792101016e+20
5.629526732,2.876446624879173e+22,-6.021592639000545e+21,-2.4026165321795712e+20
5.631526765,2.882346200046647e+22,-6.040518250824907e+21,-2.4003523204159714e+20
5.633526798,2.8881532944674246e+22,-6.059177328461138e+21,-2.3980503335934676e+20
5.635526831,2.8938683907952874e+22,-6.077570749658401e+21,-2.3957107619918014e+20
5.637526831,2.899491969737219e+22,-6.095699397444767e+21,-2.393333796469468e+20
5.639526831,2.905024510014757e+22,-6.113564160139471e+21,-2.3909196284359606e+20
5.641526831,2.9104664883272715e+22,-6.131165931363711e+21,-2.3884684498231676e+20
5.643526831,2.915818379317131e+22,-6.148505610049804e+21,-2.3859804530560152e+20
5.645526831,2.921080655536727e+22,-6.165584100448514e+21,-2.383455831022439e+20
5.647526831,2.926253787417327e+22,-6.182402312134323e+21,-2.380894777042752e+20
5.649526831,2.9313382432397316e+22,-6.198961160008457e+21,-2.378297484838484e+20
5.651525864,2.9363344891066972e+22,-6.215261564299444e+21,-2.375664148500767e+20
5.65352583,2.941242988917091e+22,-6.231304450561007e+21,-2.3729949624583533e+20
5.655525796,2.9460642043417697e+22,-6.247090749667063e+21,-2.3702901214453354e+20
5.657525762,2.9507985948011607e+22,-6.26262139780361e+21,-2.367549820468619e+20
5.659525728,2.9554466174445266e+22,-6.277897336457378e+21,-2.3647742547751967e+20
5.661525694,2.9600087271309125e+22,-6.292919512401109e+21,-2.361963619819258e+20
5.66352566,2.964485376411758e+22,-6.307688877675407e+21,-2.359118111229157e+20
5.66552566,2.9688770155151903e+22,-6.322206389567085e+21,-2.3562379247742904e+20
5.66752566,2.973184092332019e+22,-6.336473010584028e+21,-2.353323256331955e+20
5.669525693,2.977407052403462e+22,-6.350489708426558e+21,-2.3503743018542668e+20
5.671525726,2.9815463389106446e+22,-6.364257455955302e+21,-2.347391257335198e+20
5.673525759,2.9856023926659153e+22,-6.377777231155618e+21,-2.344374318777796e+20
5.675525792,2.9895756521059746e+22,-6.39105001709873e+21,-2.341323682161636e+20
5.677525825,2.993466553286826e+22,-6.404076801899603e+21,-2.3382395434105517e+20
5.679525858,2.997275529880555e+22,-6.416858578671605e+21,-2.3351220983607093e+20
5.681527624,3.00100301317394e+22,-6.429396345477961e+21,-2.3319715427290946e+20
5.68352759,3.004649432068897e+22,-6.441691105280045e+21,-2.3287880720824716e+20
5.685527556,3.008215213084781e+22,-6.453743865882623e+21,-2.325571881806885e+20
5.687527522,3.0117007803625444e+22,-6.465555639876144e+21,-2.3223231670777833e+20
5.689527788,3.015106555670777e+22,-6.477127444576141e+21,-2.3190421228308503e+20
5.691527754,3.018432958413663e+22,-6.48846030195978e+21,-2.3157289437336044e+20
5.69352772,3.0216804056408883e+22,-6.49955523859961e+21,-2.3123838241578025e+20
5.695527686,3.02484931205952e+22,-6.510413285594501e+21,-2.309006958152686e+20
5.697527686,3.0279400900478433e+22,-6.52103547849782e+21,-2.3055985394191276e+20
5.699527719,3.0309531496711455e+22,-6.531422857242842e+21,-2.302158761284736e+20
5.701527752,3.0338888986994133e+22,-6.541576466065529e+21,-2.298687816679972e+20
5.703527785,3.0367477426269045e+22,-6.551497353424758e+21,-2.2951858981153145e+20
5.705527818,3.0395300846935696e+22,-6.561186571920142e+21,-2.2916531976595177e+20
5.707527851,3.042236325908291e+22,-6.570645178207579e+21,-2.288089906918987e+20
5.709527884,3.0448668650739056e+22,-6.579874232912694e+21,-2.2844962170182933e+20
5.711527917,3.0474220988139594e+22,-6.588874800542274e+21,-2.2808723185818586e+20
5.71352795,3.0499024216011332e+22,-6.597647949393836e+21,-2.2772184017168446e+20
5.71552795,3.052308225787266e+22,-6.606194751463351e+21,-2.2735346559972698e+20
5.717528316,3.0546399016349038e+22,-6.61451628235118e+21,-2.2698212704493712e+20
5.719528316,3.0568978373502654e+22,-6.622613621166314e+21,-2.2660784335382223e+20
5.721528416,3.0590824191175233e+22,-6.630487850429035e+21,-2.262306333155619e+20
5.723528416,3.061194031134313e+22,-6.638140055972131e+21,-2.2585051566092268e+20
5.725528416,3.063233055648372e+22,-6.645571326840695e+21,-2.2546750906129685e+20
5.727528416,3.065199872995204e+22,-6.652782755190621e+21,-2.2508163212786296e+20
5.729528382,3.0670948616366704e+22,-6.659775436185812e+21,-2.2469290341086685e+20
5.731528348,3.068918398200416e+22,-6.66655046789426e+21,-2.2430134139902204e+20
5.733528314,3.070670857520018e+22,-6.673108951183047e+21,-2.2390696451902905e+20
5.73552828,3.072352612675737e+22,-6.679451989612278e+21,-2.235097911352083e+20
5.737528246,3.0739640350357617e+22,-6.685580689327964e+21,-2.2310983954924018e+20
5.739528212,3.0755054942978348e+22,-6.69149615895395e+21,-2.2270712800000632e+20
5.741527078,3.076977358531124e+22,-6.697199509482882e+21,-2.2230167466352758e+20
5.743527078,3.0783799942182393e+22,-6.70269185416618e+21,-2.21893497652992e+20
5.745527078,3.079713766297301e+22,-6.70797430840306e+21,-2.2148261501886818e+20
5.747526311,3.080979038203965e+22,-6.713047989628678e+21,-2.2106904474910012e+20
5.749526344,3.082176171913321e+22,-6.717914017201503e+21,-2.2065280476937978e+20
5.751526377,3.0833055279815546e+22,-6.722573512290058e+21,-2.2023391294349115e+20
5.75352641,3.084367465587282e+22,-6.727027597759117e+21,-2.198123870737211e+20
5.755526443,3.085362342572464e+22,-6.731277398055496e+21,-2.193882449013312e+20
5.757526476,3.0862905154828417e+22,-6.735324039093579e+21,-2.1896150410708543e+20
5.759526476,3.08715233960782e+22,-6.739168648140702e+21,-2.1853218231182714e+20
5.761526442,3.087948169019745e+22,-6.742812353702448e+21,-2.1810029707709855e+20
5.763526408,3.0886783566125277e+22,-6.746256285407973e+21,-2.176658659057963e+20
5.765526374,3.0893432541395567e+22,-6.749501573895379e+21,-2.172289062428583e+20
5.76752634,3.0899432122508475e+22,-6.752549350697171e+21,-2.1678943547597678e+20
5.769526306,3.090478580529364e+22,-6.755400748125768e+21,-2.163474709363331e+20
5.771526639,3.09094970752647e+22,-6.758056899159016e+21,-2.1590302989935077e+20
5.773526605,3.0913569407964824e+22,-6.760518937325647e+21,-2.154561295854642e+20
5.775526605,3.0917006269303298e+22,-6.762787996590611e+21,-2.150067871608996e+20
5.777526238,3.091981111588319e+22,-6.764865211240234e+21,-2.1455501973846544e+20
5.779526238,3.0921987395319916e+22,-6.766751715767108e+21,-2.1410084437835068e+20
5.781526138,3.092353854655067e+22,-6.768448644754616e+21,-2.1364427808892964e+20
5.783526138,3.0924468000134577e+22,-6.769957132760993e+21,-2.1318533782757337e+20
5.785526138,3.0924779178543708e+22,-6.771278314202905e+21,-2.127240405014665e+20
5.787526138,3.092447549644507e+22,-6.772413323238575e+21,-2.1226040296843012e+20
5.789526138,3.092356036097364e+22,-6.773363293650426e+21,-2.1179444203775354e+20
5.791526138,3.09220371719965e+22,-6.774129358727251e+21,-2.1132617447103712e+20
5.793526171,3.091990932236797e+22,-6.774712651145955e+21,-2.108556169830476e+20
5.795526271,3.0917180198175503e+22,-6.775114302852843e+21,-2.1038278624258503e+20
5.797526304,3.0913853178976223e+22,-6.775335444944406e+21,-2.099076988733586e+20
5.799526337,3.0909931638024024e+22,-6.775377207547528e+21,-2.0943037145486695e+20
5.80152637,3.0905418942486963e+22,-6.775240719699137e+21,-2.0895082052327886e+20
5.803526403,3.0900318453654564e+22,-6.774927109225349e+21,-2.0846906257231263e+20
5.805526436,3.0894633527134577e+22,-6.774437502620143e+21,-2.0798511405411205e+20
5.807527236,3.0888367513038806e+22,-6.773773024923652e+21,-2.0749899138011785e+20
5.809527202,3.088152375615749e+22,-6.772934799600176e+21,-2.0701071092193218e+20
5.811527168,3.0874105596121973e+22,-6.771923948416044e+21,-2.0652028901217665e+20
5.813527134,3.08661163675552e+22,-6.770741591317422e+21,-2.060277419453443e+20
5.8155271,3.0857559400209684e+22,-6.769388846308215e+21,-2.0553308597864497e+20
5.817527066,3.0848438019092914e+22,-6.767866829328198e+21,-2.0503633733284397e+20
5.819526466,3.0838755544580084e+22,-6.76617665413154e+21,-2.04537512193093e+20
5.821525799,3.082851529251416e+22,-6.764319432165841e+21,-2.0403662670975205e+20
5.823525799,3.081772057429338e+22,-6.762296272451864e+21,-2.0353369699920275e+20
5.825525832,3.0806374696946464e+22,-6.760108281464074e+21,-2.0302873914465478e+20
5.827525865,3.0794480963196025e+22,-6.757756563012152e+21,-2.025217691969475e+20
5.829525898,3.0782042671510674e+22,-6.755242218123591e+21,-2.0201280317534817e+20
5.831525864,3.0769063116146334e+22,-6.7525663449275e+21,-2.0150185706834677e+20
5.833525897,3.075554558717724e+22,-6.749730038539809e+21,-2.0098894683444688e+20
5.83552593,3.0741493370517207e+22,-6.746734390950039e+21,-2.0047408840295003e+20
5.837525063,3.0726909747931692e+22,-6.743580490909851e+21,-1.9995729767473113e+20
5.839525096,3.071179799704103e+22,-6.740269423823566e+21,-1.994385905230026e+20
5.841525096,3.0696161391315452e+22,-6.736802271640808e+21,-1.9891798279406538e+20
5.843525096,3.0680003200062216e+22,-6.733180112751387e+21,-1.983954903080475e+20
5.845525096,3.066332668840525e+22,-6.729404021882468e+21,-1.9787112885963063e+20
5.847525096,3.0646135117257544e+22,-6.725475069998064e+21,-1.973449142187663e+20
5.849525096,3.0628431743286533e+22,-6.721394324200818e+21,-1.9681686213138212e+20
5.851525096,3.0610219818872813e+22,-6.717162847636048e+21,-1.962869883200796e+20
5.853525062,3.0591502592062284e+22,-6.712781699398012e+21,-1.957553084848257e+20
5.855525762,3.0572283306512025e+22,-6.708251934438378e+21,-1.952218383036412e+20
5.857525728,3.0552565201430234e+22,-6.703574603476939e+21,-1.946865934332899e+20
5.859525694,3.053235151151046e+22,-6.698750752914638e+21,-1.9414958950997164e+20
5.86152566,3.0511645466860236e+22,-6.693781424749012e+21,-1.936108421500232e+20
5.863526026,3.04904502929241e+22,-6.688667656492165e+21,-1.9307036695062826e+20
5.865525992,3.0468769210400888e+22,-6.683410481091468e+21,-1.9252817949053944e+20
5.867525958,3.0446605435155348e+22,-6.678010926853198e+21,-1.9198429533081567e+20
5.869525958,3.0423962178124425e+22,-6.672470017369423e+21,-1.9143873001557852e+20
5.871525991,3.040084264521861e+22,-6.666788771448354e+21,-1.9089149907278968e+20
5.873526024,3.0377250037218662e+22,-6.660968203048402e+21,-1.9034261801505312e+20
5.875526057,3.035318754966789e+22,-6.65500932121619e+21,-1.8979210234044455e+20
5.87752609,3.0328658372760093e+22,-6.648913130028687e+21,-1.8923996753337044e+20
5.87952669,3.0303665691222948e+22,-6.642680628539627e+21,-1.886862290654585e+20
5.88152769,3.0278212684196818e+22,-6.636312810730398e+21,-1.8813090239648104e+20
5.883527723,3.025230252510882e+22,-6.629810665465538e+21,-1.8757400297531113e+20
5.885527723,3.022593838154186e+22,-6.623175176452988e+21,-1.8701554624091154e+20
5.887527689,3.0199123415098307e+22,-6.616407322209194e+21,-1.8645554762335283e+20
5.889527655,3.017186078125812e+22,-6.609508076029083e+21,-1.8589402254485697e+20
5.891527421,3.0144153629231304e+22,-6.602478405961021e+21,-1.853309864208622e+20
5.893527387,3.0116005101804617e+22,-6.595319274786773e+21,-1.8476645466110637e+20
5.895527353,3.0087418335182505e+22,-6.588031640006499e+21,-1.8420044267072677e+20
5.897528219,3.005839645882202e+22,-6.580616453828819e+21,-1.836329658513731e+20
5.899528185,3.002894259526146e+22,-6.573074663165919e+21,-1.8306403960233106e+20
5.901528185,2.9999059859942528e+22,-6.565407209633738e+21,-1.8249367932165397e+20
5.903528218,2.996875136102588e+22,-6.557615029557207e+21,-1.819219004073003e+20
5.905528251,2.993802019919951e+22,-6.549699053980505e+21,-1.8134871825827444e+20
5.907528284,2.9906869467479477e+22,-6.541660208682246e+21,-1.8077414827576918e+20
5.909528317,2.987530225100287e+22,-6.533499414195516e+21,-1.801982058643076e+20
5.91152835,2.984332162681254e+22,-6.52521758583259e+21,-1.7962090643288254e+20
5.913528383,2.981093066363349e+22,-6.516815633714191e+21,-1.790422653960934e+20
5.915527616,2.9778132421640658e+22,-6.508294462803158e+21,-1.784622981752779e+20
5.917527649,2.9744929952218055e+22,-6.499654972942309e+21,-1.7788102019963735e+20
5.919527649,2.9711326297709255e+22,-6.490898058896325e+21,-1.7729844690735412e+20
5.921527649,2.967732449115926e+22,-6.482024610397428e+21,-1.7671459374669968e+20
5.923527249,2.964292755604781e+22,-6.473035512194628e+21,-1.7612947617713226e+20
5.925527249,2.9608138506014044e+22,-6.463931644106355e+21,-1.7554310967038024e+20
5.927527249,2.957296034457241e+22,-6.454713881076303e+21,-1.7495550971150677e+20
5.929527249,2.9537396064819916e+22,-6.445383093232213e+21,-1.7436669179995252e+20
5.931527215,2.9501448649134676e+22,-6.435940145947375e+21,-1.737766714505539e+20
5.933527181,2.946512106886573e+22,-6.426385899904588e+21,-1.7318546419453264e+20
5.935527147,2.9428416284014244e+22,-6.416721211162339e+21,-1.725930855804523e+20
5.937527113,2.9391337242906285e+22,-6.406946931222916e+21,-1.719995511751382e+20
5.939527079,2.935388688185755e+22,-6.397063907102131e+21,-1.7140487656455773e+20
5.941526845,2.9316068124830535e+22,-6.387072981400291e+21,-1.7080907735465748e+20
5.943526811,2.9277883883084904e+22,-6.376974992374132e+21,-1.702121691721538e+20
5.945526777,2.923933705482177e+22,-6.366770774009381e+21,-1.696141676652719e+20
5.947526777,2.920043052482283e+22,-6.356461156093653e+21,-1.690150885044304e+20
5.94952681,2.916116716408524e+22,-6.346046964289447e+21,-1.684149473828683e+20
5.95152761,2.9121549829453277e+22,-6.335529020207053e+21,-1.6781376001721185e+20
5.953527643,2.9081581363247643e+22,-6.324908141477248e+21,-1.6721154214797797e+20
5.955527676,2.9041264592893394e+22,-6.314185141823706e+21,-1.6660830954001164e+20
5.957527709,2.900060233054728e+22,-6.303360831135005e+21,-1.6600407798285546e+20
5.959527742,2.8959597372725482e+22,-6.292436015536098e+21,-1.6539886329105036e+20
5.961527775,2.891825249993276e+22,-6.281411497459106e+21,-1.647926813043652e+20
5.963527775,2.8876570476293994e+22,-6.270288075713252e+21,-1.6418554788795462e+20
5.965527741,2.883455404918924e+22,-6.259066545553799e+21,-1.63577478932445e+20
5.967527707,2.8792205948893067e+22,-6.247747698749874e+21,-1.6296849035394836e+20
5.969527673,2.8749528888219126e+22,-6.236332323651096e+21,-1.6235859809400573e+20
5.971527639,2.8706525562170746e+22,-6.224821205252992e+21,-1.6174781811946108e+20
5.973527605,2.866319864759861e+22,-6.21321512526115e+21,-1.6113616642226572e+20
5.975527571,2.8619550802866143e+22,-6.201514862154047e+21,-1.6052365901921203e+20
5.977527537,2.857558466752338e+22,-6.189721191244531e+21,-1.599103119515952e+20
5.979527537,2.8531302861990238e+22,-6.177834884740051e+21,-1.592961412848023e+20
5.98152717,2.8486707987250082e+22,-6.165856711801701e+21,-1.5868116310782693e+20
5.983527203,2.844180262455457e+22,-6.153787438602266e+21,-1.5806539353271016e+20
5.985527236,2.839658933514058e+22,-6.141627828383345e+21,-1.5744884869390637e+20
5.987527269,2.835107065996018e+22,-6.129378641511696e+21,-1.5683154474757338e+20
5.989527302,2.8305249119424708e+22,-6.117040635534843e+21,-1.562134978707865e+20
5.991527335,2.825912721316372e+22,-6.104614565235992e+21,-1.5559472426067585e+20
5.993527368,2.8212707419799524e+22,-6.092101182688347e+21,-1.549752401334863e+20
5.995527401,2.8165992196737988e+22,-6.079501237308904e+21,-1.5435506172356067e+20
5.997527401,2.8118983979976484e+22,-6.066815475911812e+21,-1.5373420528224803e+20
5.999528634,2.807168518392977e+22,-6.054044642761335e+21,-1.5311268707673965e+20
6.001528534,2.8024098201274434e+22,-6.041189479624462e+21,-1.5249052338883317e+20
6.003528534,2.7976225402812558e+22,-6.028250725823183e+21,-1.518677305136264e+20
6.005528534,2.7928069137355288e+22,-6.01522911828645e+21,-1.51244324758141e+20
6.007528534,2.7879631731626833e+22,-6.002125391601856e+21,-1.506203224398779e+20
6.0095285,2.7830915490189406e+22,-5.988940278067039e+21,-1.499957398853069e+20
6.011528,2.77819226953895e+22,-5.97567450774084e+21,-1.4937059342829303e+20
6.013527966,2.773265560732578e+22,-5.962328808494228e+21,-1.4874489940846117e+20
6.015527932,2.7683116463838707e+22,-5.948903906060947e+21,-1.4811867416950184e+20
6.017527898,2.7633307480521995e+22,-5.935400524087873e+21,-1.4749193405742055e+20
6.019527864,2.7583230850756115e+22,-5.92181938418501e+21,-1.4686469541873595e+20
6.021527164,2.7532888745763974e+22,-5.90816120597507e+21,-1.4623697459863224e+20
6.02352713,2.7482283314688788e+22,-5.894426707142598e+21,-1.4560878793907084e+20
6.02552713,2.7431416684694345e+22,-5.880616603482591e+21,-1.4498015177686555e+20
6.027526263,2.7380290961087547e+22,-5.866731608948529e+21,-1.443510824417265e+20
6.029526296,2.7328908227462994e+22,-5.852772435699794e+21,-1.4372159625427825e+20
6.031526696,2.7277270545869247e+22,-5.838739794148446e+21,-1.4309170952405923e+20
6.033526729,2.7225379956996297e+22,-5.824634393005243e+21,-1.4246143854750768e+20
6.035526762,2.7173238480383536e+22,-5.810456939324798e+21,-1.4183079960593918e+20
6.037526795,2.712084811464742e+22,-5.796208138549725e+21,-1.4119980896351892e+20
6.039526828,2.7068210837727897e+22,-5.781888694553653e+21,-1.4056848286523326e+20
6.041527228,2.7015328607152414e+22,-5.767499309682986e+21,-1.3993683753486385e+20
6.043527194,2.696220336031619e+22,-5.753040684797315e+21,-1.393048891729686e+20
6.04552716,2.6908837014777474e+22,-5.738513519308351e+21,-1.3867265395487356e+20
6.047527126,2.685523146856653e+22,-5.723918511217293e+21,-1.3804014802867939e+20
6.049527092,2.6801388600507077e+22,-5.709256357150538e+21,-1.3740738751328498e+20
6.051526658,2.674731027054889e+22,-5.69452775239364e+21,-1.3677438849643066e+20
6.053526424,2.6692998320110482e+22,-5.679733390923448e+21,-1.3614116703276302e+20
6.05552639,2.6638454572430867e+22,-5.664873965438345e+21,-1.3550773914192223e+20
6.05752639,2.658368083292948e+22,-5.649950167386506e+21,-1.348741208066527e+20
6.05952519,2.652867888957332e+22,-5.634962686992028e+21,-1.3424032797093881e+20
6.061525223,2.6473450513250522e+22,-5.619912213278755e+21,-1.3360637653816574e+20
6.063525256,2.6417997458149544e+22,-5.604799434091714e+21,-1.3297228236930679e+20
6.065525289,2.6362321462143236e+22,-5.589625036116014e+21,-1.3233806128113713e+20
6.067525322,2.6306424247177238e+22,-5.574389704893095e+21,-1.3170372904447377e+20
6.069525355,2.6250307519662187e+22,-5.559094124834242e+21,-1.31069301382442e+20
6.071525788,2.6193972970869366e+22,-5.543738979231321e+21,-1.3043479396876943e+20
6.073525821,2.6137422277329327e+22,-5.528324950264734e+21,-1.2980022242610866e+20
6.075525821,2.6080657101233e+22,-5.512852719008609e+21,-1.2916560232438851e+20
6.077525887,2.602367909083472e+22,-5.497322965433286e+21,-1.2853094917919513e+20
6.079525887,2.596648988085655e+22,-5.481736368405128e+21,-1.2789627845018268e+20
6.081526553,2.5909091092893427e+22,-5.466093605683708e+21,-1.2726160553951429e+20
6.083526553,2.5851484335818723e+22,-5.450395353916417e+21,-1.2662694579033276e+20
6.085526553,2.5793671206189926e+22,-5.434642288630569e+21,-1.25992314485262e+20
6.087527419,2.573565328865388e+22,-5.418835084223028e+21,-1.2535772684494085e+20
6.089527385,2.5677432156351036e+22,-5.402974413947406e+21,-1.2472319802659085e+20
6.091526985,2.561900937131822e+22,-5.387060949898928e+21,-1.2408874312261842e+20
6.093526951,2.5560386484889465e+22,-5.371095362997001e+21,-1.2345437715925264e+20
6.095526917,2.550156503809461e+22,-5.355078322965581e+21,-1.2282011509521973e+20
6.097526883,2.544254656205496e+22,-5.33901049831137e+21,-1.2218597182045461e+20
6.099526849,2.538333257837547e+22,-5.322892556299909e+21,-1.2155196215484953e+20
6.101526815,2.5323924599532685e+22,-5.306725162929596e+21,-1.2091810084703987e+20
6.103526815,2.5264324129257712e+22,-5.290508982903672e+21,-1.2028440257322602e+20
6.105526848,2.5204532662913072e+22,-5.274244679600194e+21,-1.1965088193602978e+20
6.107526614,2.514455168786248e+22,-5.257932915040061e+21,-1.1901755346338395e+20
6.109526647,2.508438268383247e+22,-5.241574349853166e+21,-1.1838443160745345e+20
6.11152708,2.5024027123265126e+22,-5.225169643242806e+21,-1.1775153074358727e+20
6.113527313,2.496348647166128e+22,-5.208719452948495e+21,-1.1711886516930032e+20
6.115527346,2.490276218791324e+22,-5.192224435207236e+21,-1.1648644910328447e+20
6.117527379,2.4841855724626456e+22,-5.175685244713351e+21,-1.1585429668444819e+20
6.119527379,2.478076852842977e+22,-5.159102534576949e+21,-1.1522242197098542e+20
6.121527345,2.471950204027414e+22,-5.142476956281109e+21,-1.145908389394742e+20
6.123527311,2.465805769571977e+22,-5.125809159637857e+21,-1.1395956148400672e+20
6.125527244,2.4596436925211858e+22,-5.109099792742977e+21,-1.1332860341535205e+20
6.12752721,2.453464115434521e+22,-5.092349501929748e+21,-1.1269797846015253e+20
6.129527176,2.4472671804117943e+22,-5.075558931721741e+21,-1.1206770026015516e+20
6.131526709,2.441053029117452e+22,-5.058728724784854e+21,-1.1143778237147972e+20
6.133526675,2.4348218028038453e+22,-5.041859521878814e+21,-1.1080823826392613e+20
6.135526675,2.428573642333496e+22,-5.024951961808418e+21,-1.1017908132032361e+20
6.137526575,2.422308688200402e+22,-5.008006681374744e+21,-1.0955032483592379e+20
6.139526608,2.4160270805504123e+22,-4.99102431532658e+21,-1.0892198201783838e+20
6.141526641,2.409728959200712e+22,-4.974005496312314e+21,-1.0829406598452176e+20
6.143526674,2.403414463658445e+22,-4.956950854832482e+21,-1.0766658976529842e+20
6.145526707,2.3970837331385243e+22,-4.939861019193162e+21,-1.0703956629993436e+20
6.14752674,2.390736906580662e+22,-4.922736615460419e+21,-1.0641300843825018e+20
6.149526373,2.3843741226656443e+22,-4.905578267415985e+21,-1.0578692893977307e+20
6.151526406,2.377995519830857e+22,-4.888386596514289e+21,-1.0516134047342474e+20
6.153526406,2.3716012362850625e+22,-4.871162221840952e+21,-1.0453625561724263e+20
6.155526106,2.36519141002245e+22,-4.853905760072847e+21,-1.0391168685813203e+20
6.157526106,2.358766178835995e+22,-4.836617825439833e+21,-1.0328764659164617e+20
6.159526106,2.3523256803301488e+22,-4.81929902968821e+21,-1.0266414712179117e+20
6.161525706,2.3458700519328688e+22,-4.801949982045946e+21,-1.0204120066085369e+20
6.163525706,2.339399430907018e+22,-4.784571289189678e+21,-1.0141881932924872e+20
6.165525672,2.3329139543611567e+22,-4.767163555213501e+21,-1.0079701515538517e+20
6.167525905,2.326413759259775e+22,-4.749727381599522e+21,-1.0017580007554679e+20
6.169525871,2.3198989824330345e+22,-4.732263367190119e+21,-9.955518593378589e+19
6.171525837,2.313369760586064e+22,-4.7147721081618516e+21,-9.893518448182742e+19
6.173525803,2.306826230307856e+22,-4.697254198000975e+21,-9.831580737898139e+19
6.175525769,2.3002685280797944e+22,-4.679710227480514e+21,-9.769706619206094e+19
6.177525735,2.2936967902838445e+22,-4.6621407846388025e+21,-9.707897239530439e+19
6.179525701,2.287111153210479e+22,-4.6445464547593845e+21,-9.646153737030061e+19
6.181525701,2.2805117530663847e+22,-4.6269278203522035e+21,-9.584477240591699e+19
6.183525734,2.2738987259819964e+22,-4.609285461136011e+21,-9.52286886982286e+19
6.1855258,2.2672722080188783e+22,-4.59161995402195e+21,-9.461329735044838e+19
6.187525833,2.2606323351769852e+22,-4.5739318730982624e+21,-9.399860937285698e+19
6.189525866,2.2539792434018233e+22,-4.556221789616063e+21,-9.33846356827312e+19
6.191525932,2.247313068591493e+22,-4.538490271976143e+21,-9.27713871042697e+19
6.193525965,2.2406339466036077e+22,-4.5207378857167694e+21,-9.215887436851524e+19
6.195525998,2.2339420132620724e+22,-4.502965193502456e+21,-9.154710811327332e+19
6.197525664,2.227237404363707e+22,-4.4851727551137097e+21,-9.09360988830272e+19
6.19952563,2.220520255684725e+22,-4.46736112743776e+21,-9.032585712884842e+19
6.201525596,2.21379070298708e+22,-4.449530864460351e+21,-8.971639320830175e+19
6.203525562,2.207048882024689e+22,-4.4316825172586707e+21,-8.910771738534373e+19
6.205525528,2.200294928549526e+22,-4.41381663399541e+21,-8.84998398302151e+19
6.207525494,2.1935289783175652e+22,-4.395933759913941e+21,-8.789277061932764e+19
6.20952586,2.1867511670945715e+22,-4.3780344373345706e+21,-8.728651973514612e+19
6.211525826,2.1799616306617315e+22,-4.360119205651802e+21,-8.668109706606621e+19
6.213525826,2.173160504821113e+22,-4.34218860133256e+21,-8.607651240629043e+19
6.215526159,2.166347925400956e+22,-4.3242431579153404e+21,-8.547277545570304e+19
6.217526192,2.1595240282608133e+22,-4.3062834060102384e+21,-8.486989581974412e+19
6.219526225,2.1526889492965644e+22,-4.2883098732998343e+21,-8.42678830092832e+19
6.221525791,2.145842824445313e+22,-4.270323084540917e+21,-8.366674644049291e+19
6.223525157,2.1389857896901804e+22,-4.252323561567047e+21,-8.306649543472277e+19
6.22552519,2.132117981064994e+22,-4.234311823291937e+21,-8.246713921837335e+19
6.227525223,2.125239534658873e+22,-4.2162883857136453e+21,-8.186868692277146e+19
6.229525256,2.1183505866207105e+22,-4.198253761919581e+21,-8.127114758404728e+19
6.231525256,2.1114512731635488e+22,-4.180208462092279e+21,-8.067453014301435e+19
6.233525256,2.104541730568834e+22,-4.1621529935159346e+21,-8.007884344505414e+19
6.235525256,2.0976220951905407e+22,-4.1440878605836506e+21,-7.948409624000633e+19
6.237525256,2.090692503459174e+22,-4.1260135648053407e+21,-7.889029718206644e+19
6.239525256,2.083753091885652e+22,-4.107930604816176e+21,-7.829745482969317e+19
6.241525256,2.076803997065072e+22,-4.089839476385482e+21,-7.77055776455274e+19
6.243525222,2.0698453556803513e+22,-4.071740672425985e+21,-7.71146739963244e+19
6.245525188,2.0628773045057576e+22,-4.053634683003319e+21,-7.65247521529008e+19
6.247525154,2.055899980410319e+22,-4.0355219953457415e+21,-7.593582029009676e+19
6.24952512,2.0489135203611394e+22,-4.0174030938540343e+21,-7.53478864867543e+19
6.251525086,2.041918061426621e+22,-3.999278460111543e+21,-7.476095872571238e+19
6.253525052,2.034913740779617e+22,-3.981148572894332e+21,-7.417504489381973e+19
6.255525018,2.02790069570053e+22,-3.96301390818144e+21,-7.359015278196562e+19
6.257525384,2.0208790635803667e+22,-3.944874939165247e+21,-7.300629008512896e+19
6.259525384,2.013848981923767e+22,-3.9267321362619826e+21,-7.242346440244586e+19
6.261525417,2.0068105883520097e+22,-3.908585967122387e+21,-7.184168323729562e+19
6.26352545,1.999764020605994e+22,-3.890436896642558e+21,-7.126095399740552e+19
6.265525483,1.992709416549207e+22,-3.8722853869749723e+21,-7.0681283994974945e+19
6.267525516,1.9856469141706743e+22,-3.8541318975396826e+21,-7.0102680446819434e+19
6.269525549,1.9785766515878765e+22,-3.8359768850356565e+21,-6.952515047453432e+19
6.271525582,1.9714987670496134e+22,-3.8178208034522535e+21,-6.894870110467726e+19
6.273525615,1.964413398938765e+22,-3.7996641040808385e+21,-6.837333926896822e+19
6.275525615,1.9573206857749086e+22,-3.781507235526547e+21,-6.779907180450552e+19
6.277525581,1.9502207662167683e+22,-3.763350643720218e+21,-6.722590545399605e+19
6.279525547,1.943113779064477e+22,-3.7451947719304906e+21,-6.665384686599864e+19
6.28152638,1.935999863261622e+22,-3.727040060776075e+21,-6.6082902595179905e+19
6.283527013,1.9288791578970723e+22,-3.7088869482382083e+21,-6.551307910258151e+19
6.285526979,1.921751802206591e+22,-3.69073586967328e+21,-6.4944382755898065e+19
6.287526945,1.914617935574245e+22,-3.6725872578256364e+21,-6.437681982976498e+19
6.289526911,1.907477697533613e+22,-3.6544415428405216e+21,-6.3810396506055836e+19
6.291526911,1.9003312277687806e+22,-3.636299152277119e+21,-6.324511887418897e+19
6.293526944,1.893178666115092e+22,-3.6181605111216504e+21,-6.268099293144311e+19
6.295526977,1.886020152559637e+22,-3.600026041800515e+21,-6.211802458328144e+19
6.29752701,1.878855827241458e+22,-3.581896164193461e+21,-6.15562196436838e+19
6.299527043,1.8716858304514654e+22,-3.563771295646802e+21,-6.099558383548688e+19
6.301527076,1.8645103026320599e+22,-3.5456518509867083e+21,-6.043612279073263e+19
6.303527109,1.857329384376439e+22,-3.5275382425325813e+21,-5.987784205102514e+19
6.305527142,1.8501432164275689e+22,-3.5094308801105195e+21,-5.932074706789623e+19
6.307527175,1.8429519396767984e+22,-3.491330171066869e+21,-5.876484320318017e+19
6.309527175,1.8357556951620908e+22,-3.47323652028185e+21,-5.821013572939796e+19
6.311527175,1.8285546240658612e+22,-3.455150330183246e+21,-5.765662983015124e+19
6.313527175,1.8213488677123944e+22,-3.4370720007601437e+21,-5.710433060052566e+19
6.315527175,1.8141385675648405e+22,-3.419001929576741e+21,-5.655324304750412e+19
6.317526775,1.8069238652217833e+22,-3.400940511786223e+21,-5.600337209039074e+19
6.319526775,1.7997049024133907e+22,-3.3828881401447176e+21,-5.54547225612461e+19
6.321526741,1.7924818209971475e+22,-3.3648452050253345e+21,-5.490729920533424e+19
6.323526707,1.7852547629531986e+22,-3.3468120944323026e+21,-5.436110668158245e+19
6.325526673,1.7780238703793275e+22,-3.3287891940152065e+21,-5.3816149563054555e+19
6.327526639,1.7707892854856006e+22,-3.3107768870833016e+21,-5.327243233743805e+19
6.329526605,1.7635511505886986e+22,-3.292775554619879e+21,-5.272995940754594e+19
6.331526571,1.7563096081059522e+22,-3.2747855752966785e+21,-5.218873509183396e+19
6.333526537,1.7490648005490923e+22,-3.2568073254883736e+21,-5.164876362493369e+19
6.335526503,1.7418168705177306e+22,-3.2388411792871695e+21,-5.11100491582018e+19
6.337526503,1.7345659606925832e+22,-3.220887508517537e+21,-5.0572595760285745e+19
6.339526503,1.727312213828446e+22,-3.202946682751082e+21,-5.003640741770573e+19
6.341526536,1.7200557727469252e+22,-3.1850190693215167e+21,-4.950148803545314e+19
6.343526569,1.7127967803289343e+22,-3.167105033339725e+21,-4.896784143760504e+19
6.345526602,1.705535379506982e+22,-3.1492049377088976e+21,-4.8435471367954235e+19
6.347526635,1.6982717132572797e+22,-3.1313191431397064e+21,-4.7904381490655e+19
6.349526668,1.6910059245917123e+22,-3.1134480081654854e+21,-4.737457539088384e+19
6.351526701,1.6837381565497047e+22,-3.095591889157363e+21,-4.684605657551503e+19
6.353526701,1.6764685521900056e+22,-3.0777511403392934e+21,-4.631882847381075e+19
6.355526667,1.6691972545824147e+22,-3.059926113802957e+21,-4.579289443812527e+19
6.357526633,1.6619244067994835e+22,-3.042117159522509e+21,-4.526825774462304e+19
6.359526599,1.6546501519082118e+22,-3.024324625369158e+21,-4.474492159400975e+19
6.361526565,1.6473746329617564e+22,-3.006548857125553e+21,-4.4222889112275845e+19
6.363526531,1.6400979929911651e+22,-2.988790198499975e+21,-4.3702163351451075e+19
6.365526497,1.6328203749971594e+22,-2.971048991140304e+21,-4.318274729036867e+19
6.367526463,1.6255419219419838e+22,-2.9533255746477244e+21,-4.2664643835438236e+19
6.369526463,1.6182627767413394e+22,-2.935620286590149e+21,-4.214785582142679e+19
6.371526496,1.6109830822564114e+22,-2.917933462515341e+21,-4.163238601224769e+19
6.373526529,1.6037029812859992e+22,-2.90026543596375e+21,-4.11182371017573e+19
6.375526562,1.5964226165587562e+22,-2.882616538481073e+21,-4.060541171455905e+19
6.377526995,1.5891421307255487e+22,-2.864987099630561e+21,-4.009391240681462e+19
6.379527028,1.5818616663519355e+22,-2.8473774470050936e+21,-3.9583741667062055e+19
6.381527061,1.5745813659107665e+22,-2.8297879062390254e+21,-3.9074901917040574e+19
6.383527094,1.5673013717749041e+22,-2.812218801019794e+21,-3.856739551252218e+19
6.385527127,1.5600218262100685e+22,-2.7946704530993043e+21,-3.806122474414984e+19
6.387527127,1.552742871367802e+22,-2.7771431823050686e+21,-3.7556391838282056e+19
6.389527127,1.5454646492785495e+22,-2.759637306551103e+21,-3.7052898957843464e+19
6.391527127,1.5381873018448443e+22,-2.742153141848568e+21,-3.6550748203181507e+19
6.393527127,1.5309109708345995e+22,-2.724691002316164e+21,-3.604994161292863e+19
6.395527127,1.5236357978745043e+22,-2.7072512001902956e+21,-3.5550481164869403e+19
6.397527127,1.5163619244435212e+22,-2.689834045835026e+21,-3.505236877681197e+19
6.399527127,1.5090894918664636e+22,-2.672439847751837e+21,-3.45556063074633e+19
6.401527427,1.501818641307632e+22,-2.655068912589222e+21,-3.4060195557307646e+19
6.403527393,1.4945495137644832e+22,-2.637721545152127e+21,-3.356613826948825e+19
6.405527359,1.4872822500613138e+22,-2.62039804841126e+21,-3.307343613069243e+19
6.407527325,1.48001699084294e+22,-2.6030987235123056e+21,-3.2582090772040057e+19
6.409527291,1.4727538765683434e+22,-2.585823869785065e+21,-3.209210376997529e+19
6.411527257,1.4654930475042688e+22,-2.568573784752577e+21,-3.1603476647161463e+19
6.413527223,1.4582346437187617e+22,-2.551348764140242e+21,-3.1116210873378832e+19
6.415527223,1.4509788050746405e+22,-2.534149101884998e+21,-3.0630307866425197e+19
6.417527223,1.4437256712228908e+22,-2.516975090144593e+21,-3.0145768993019527e+19
6.419527256,1.4364753815959786e+22,-2.49982701930702e+21,-2.966259556970873e+19
6.421526622,1.429228075401087e+22,-2.482705178000177e+21,-2.9180788863777604e+19
6.423526655,1.4219838916132814e+22,-2.465609853101786e+21,-2.8700350094162133e+19
6.425526688,1.4147429689685969e+22,-2.448541329749642e+21,-2.8221280432365994e+19
6.427526721,1.4075054459570344e+22,-2.4314998913522163e+21,-2.7743581003379966e+19
6.429526754,1.4002714608154532e+22,-2.41448581959962e+21,-2.7267252886604055e+19
6.431526154,1.3930411515203539e+22,-2.397499394474912e+21,-2.6792297116772237e+19
6.43352612,1.3858146557805396e+22,-2.380540894265756e+21,-2.6318714684879995e+19
6.435526086,1.3785921110296406e+22,-2.363610595576441e+21,-2.584650653911466e+19
6.437526052,1.3713736544185068e+22,-2.3467087733402664e+21,-2.537567358578865e+19
6.439526018,1.3641594228074825e+22,-2.3298357008322873e+21,-2.4906216690275844e+19
6.441525984,1.3569495527585877e+22,-2.312991649682407e+21,-2.4438136677951308e+19
6.44352595,1.349744180527635e+22,-2.2961768898887953e+21,-2.397143433513458e+19
6.445525916,1.3425434420563086e+22,-2.279391689831625e+21,-2.350611041003684e+19
6.447525916,1.3353474729642323e+22,-2.2626363162871024e+21,-2.3042165613712114e+19
6.449525949,1.3281564085410521e+22,-2.2459110344417566e+21,-2.2579600621012648e+19
6.451525982,1.3209703837385515e+22,-2.229216107906944e+21,-2.2118416071548666e+19
6.453526015,1.3137895331628105e+22,-2.212551798733509e+21,-2.165861257065287e+19
6.455526048,1.306613991066422e+22,-2.1959183674265378e+21,-2.1200190690349842e+19
6.457526081,1.2994438913407635e+22,-2.1793160729601287e+21,-2.0743150970330448e+19
6.459526114,1.2922793675083286e+22,-2.1627451727921157e+21,-2.028749391893109e+19
6.461525814,1.2851205527151219e+22,-2.14620592287868e+21,-1.983322001411765e+19
6.463525847,1.2779675797231222e+22,-2.129698577688803e+21,-1.9380329704473887e+19
6.465525847,1.2708205809028276e+22,-2.113223390218523e+21,-1.8928823410194088e+19
6.467525847,1.2636796882258976e+22,-2.0967806120049634e+21,-1.847870152407969e+19
6.469525847,1.2565450332579046e+22,-2.080370493140104e+21,-1.8029964412539814e+19
6.471525847,1.2494167471512013e+22,-2.0639932822842853e+21,-1.7582612416595608e+19
6.473525847,1.2422949606379317e+22,-2.0476492266794113e+21,-1.7136645852888023e+19
6.475525847,1.2351798040231993e+22,-2.0313385721618435e+21,-1.6692065014688793e+19
6.477525847,1.228071407178396e+22,-2.0150615631749626e+21,-1.6248870172914287e+19
6.479525813,1.220969899534687e+22,-1.998818442781374e+21,-1.5807061577141895e+19
6.481526446,1.2138754100766307e+22,-1.9826094526747294e+21,-1.5366639456628556e+19
6.483526412,1.2067880673359302e+22,-1.9664348331911267e+21,-1.4927604021330887e+19
6.485526378,1.1997079993853107e+22,-1.9502948233200575e+21,-1.4489955462926402e+19
6.487526344,1.1926353338325189e+22,-1.9341896607148844e+21,-1.40536939558352e+19
6.48952631,1.1855701978144267e+22,-1.918119581702823e+21,-1.3618819658241556e+19
6.491526876,1.1785127179912305e+22,-1.9020848212944093e+21,-1.318533271311478e+19
6.493526876,1.1714630205407276e+22,-1.886085613192418e+21,-1.2753233249228603e+19
6.495526876,1.1644212311526597e+22,-1.8701221898002136e+21,-1.232252138217844e+19
6.497526576,1.1573874750231123e+22,-1.854194782229523e+21,-1.1893197215395758e+19
6.499526609,1.150361876848963e+22,-1.8383036203076074e+21,-1.1465260841158836e+19
6.501526642,1.1433445608223672e+22,-1.8224489325838383e+21,-1.103871234159924e+19
6.503526675,1.1363356506252665e+22,-1.8066309463356882e+21,-1.06135517897033e+19
6.505526708,1.1293352694239197e+22,-1.7908498875741404e+21,-1.0189779250307842e+19
6.507526741,1.1223435398634516e+22,-1.7751059810485147e+21,-9.767394781089513e+18
6.509526741,1.1153605840624157e+22,-1.759399450250706e+21,-9.34639843354705e+18
6.511526707,1.1083865236073716e+22,-1.7437305174188223e+21,-8.926790253975937e+18
6.513526673,1.1014214795474915e+22,-1.728099403540212e+21,-8.508570284434874e+18
6.515526639,1.0944655723892144e+22,-1.712506328353872e+21,-8.091738563703546e+18
6.517526605,1.087518922090972e+22,-1.6969515103522463e+21,-7.676295128231141e+18
6.519526571,1.080581648057994e+22,-1.681435166782425e+21,-7.262240013075169e+18
6.521527337,1.0736538691372027e+22,-1.6659575136467624e+21,-6.849573252830102e+18
6.523527303,1.0667357036122007e+22,-1.6505187657029266e+21,-6.438294882545459e+18
6.525527303,1.0598272691983526e+22,-1.6351191364633803e+21,-6.028404938632946e+18
6.527527303,1.0529286830379705e+22,-1.6197588381943097e+21,-5.619903459762242e+18
6.529527303,1.0460400616955944e+22,-1.6044380819140137e+21,-5.212790487745012e+18
6.531527303,1.0391615211533568e+22,-1.5891570773907797e+21,-4.807066068406694e+18
6.533527303,1.0322931768064171e+22,-1.573916033140262e+21,-4.4027302524455813e+18
6.535527303,1.0254351434584594e+22,-1.5587151564223797e+21,-3.9997830962787123e+18
6.537527303,1.0185875353172527e+22,-1.5435546532377526e+21,-3.5982246628741366e+18
6.539527303,1.0117504659902754e+22,-1.52843472832368e+21,-3.198055022569218e+18
6.541527303,1.0049240484803988e+22,-1.5133555851496763e+21,-2.7992742538746307e+18
6.543527336,9.98108395181629e+21,-1.4983174259125801e+21,-2.401882444263717e+18
6.545527369,9.913036178749137e+21,-1.4833204515312448e+21,-2.0058796909469102e+18
6.547527402,9.845098277240211e+21,-1.4683648616408107e+21,-1.6112661016309187e+18
6.549527435,9.777271352714957e+21,-1.45345085458655e+21,-1.2180417952623708e+18
6.551527068,9.709556504347093e+21,-1.4385786274172906e+21,-8.262069027556398e+17
6.553527101,9.641954825020172e+21,-1.4237483758784065e+21,-4.357615677045784e+17
6.555527134,9.57446740129028e+21,-1.4089602944043823e+21,-4.670594707792589e+16
6.5575273,9.50709531334987e+21,-1.3942145761109418e+21,3.4095978810185626e+17
6.559527266,9.439839634992725e+21,-1.3795114127867416e+21,7.272354520965499e+17
6.561527232,9.372701433579985e+21,-1.364850994884626e+21,1.1121208438071685e+18
6.563527198,9.305681770007159e+21,-1.3502335115124393e+21,1.4956157461461832e+18
6.565527164,9.2387816986721e+21,-1.3356591504233972e+21,1.8777199254271877e+18
6.56752713,9.172002267443975e+21,-1.321128098006026e+21,2.2584331307721974e+18
6.569527096,9.105344517633345e+21,-1.3066405392736814e+21,2.6377550935367557e+18
6.571527096,9.038809483963387e+21,-1.2921966578536746e+21,3.015685526753018e+18
6.573527096,8.972398194542267e+21,-1.277796635976015e+21,3.3922241245909606e+18
6.575527129,8.906111670836613e+21,-1.2634406544617956e+21,3.7673705618378424e+18
6.577527162,8.839950927646014e+21,-1.249128892711234e+21,4.141124493396017e+18
6.579527195,8.773916973078441e+21,-1.2348615286913856e+21,4.5134855537991844e+18
6.581526428,8.708010808526548e+21,-1.2206387389235567e+21,4.884453356747178e+18
6.583526461,8.642233428644842e+21,-1.2064606984704486e+21,5.254027494659383e+18
6.585526494,8.57658582132771e+21,-1.1923275809230632e+21,5.622207538246861e+18
6.587526527,8.511068967688305e+21,-1.1782395583873983e+21,5.988993036103213e+18
6.58952656,8.44568384203823e+21,-1.164196801470971e+21,6.35438351431422e+18
6.59152656,8.380431411867959e+21,-1.1501994792691968e+21,6.718378476086247e+18
6.59352656,8.315312637827902e+21,-1.1362477593516604e+21,7.080977401393357e+18
6.59552656,8.250328473710046e+21,-1.1223418077483096e+21,7.442179746642969e+18
6.59752656,8.185479866430033e+21,-1.1084817889356048e+21,7.801984944359973e+18
6.59952656,8.120767756009613e+21,-1.094667865822657e+21,8.160392402889146e+18
6.60152656,8.056193075559421e+21,-1.0809001997373717e+21,8.517401506115756e+18
6.603526526,7.991756751262095e+21,-1.067178950412615e+21,8.873011613204234e+18
6.605526492,7.927459702355786e+21,-1.0535042759724116e+21,9.227222058354786e+18
6.607526458,7.863302841118138e+21,-1.0398763329181775e+21,9.58003215057779e+18
6.609526791,7.799287072850799e+21,-1.0262952761149987e+21,9.93144117348583e+18
6.611527891,7.735413295864489e+21,-1.0127612587779566e+21,1.0281448385103086e+19
6.613527857,7.671682401464664e+21,-9.992744324584996e+20,1.0630053017691783e+19
6.615527823,7.608095273937736e+21,-9.858349470308662e+20,1.097725427759525e+19
6.617527556,7.544652790537872e+21,-9.724429506785669e+20,1.132305134509708e+19
6.619527556,7.481355821474378e+21,-9.590985898809392e+20,1.166744337429599e+19
6.621527056,7.418205229899707e+21,-9.458020093998022e+20,1.2010429492995998e+19
6.623527089,7.355201871898126e+21,-9.325533522662397e+20,1.235200880261156e+19
6.625527122,7.292346596475055e+21,-9.193527597675378e+20,1.2692180378087342e+19
6.627527155,7.229640245547104e+21,-9.06200371434299e+20,1.3030943267832087e+19
6.629527188,7.167083653932847e+21,-8.930963250277505e+20,1.3368296493666107e+19
6.631527221,7.104677649344304e+21,-8.800407565272623e+20,1.37042390507819e+19
6.633527254,7.042423052379085e+21,-8.670338001180924e+20,1.4038769907717423e+19
6.635527254,6.980320676513147e+21,-8.54075588179361e+20,1.4371888006341657e+19
6.63752722,6.918371328094129e+21,-8.411662512722616e+20,1.4703592261852086e+19
6.639527186,6.856575806335198e+21,-8.28305918128511e+20,1.5033881562783662e+19
6.641527086,6.794934903309374e+21,-8.154947156390372e+20,1.5362754771028836e+19
6.643527052,6.733449403944304e+21,-8.027327688429137e+20,1.5690210721868317e+19
6.645527018,6.672120086017436e+21,-7.900202009165447e+20,1.6016248224012206e+19
6.647526984,6.610947720151615e+21,-7.773571331631056e+20,1.6340866059651301e+19
6.64952695,6.549933069811076e+21,-7.647436850022465e+20,1.6664062984518287e+19
6.65152695,6.489076891297742e+21,-7.521799739600546e+20,1.6985837727958467e+19
6.653526983,6.42837993374772e+21,-7.396661156592746e+20,1.7306188993009713e+19
6.655527016,6.367842939127902e+21,-7.272022238097855e+20,1.7625115456491438e+19
6.657527049,6.307466642232583e+21,-7.147884101993318e+20,1.7942615769102303e+19
6.659527082,6.247251770680034e+21,-7.024247846845117e+20,1.8258688555526406e+19
6.661527115,6.18719904490899e+21,-6.901114551820259e+20,1.8573332414547624e+19
6.663527148,6.127309178175033e+21,-6.778485276601945e+20,1.888654591917205e+19
6.665527181,6.067582876546803e+21,-6.656361061307394e+20,1.9198327616758776e+19
6.667527214,6.008020838901973e+21,-6.53474292640837e+20,1.9508676029159473e+19
6.669526847,5.948623756922966e+21,-6.413631872654304e+20,1.9817589652867154e+19
6.671526147,5.889392315092385e+21,-6.293028880997962e+20,2.012506695917437e+19
6.673526147,5.830327190688136e+21,-6.172934912523633e+20,2.0431106394341114e+19
6.675526147,5.771429053778117e+21,-6.053350908377804e+20,2.0735706379772658e+19
6.677527213,5.712698567214412e+21,-5.934277789702349e+20,2.103886531220783e+19
6.679527213,5.654136386626966e+21,-5.8157164575701546e+20,2.134058156391845e+19
6.681527713,5.595743160416749e+21,-5.697667792923195e+20,2.1640853482920608e+19
6.683527279,5.537519529748416e+21,-5.580132656513024e+20,2.1939679393198408e+19
6.685527245,5.479466128542431e+21,-5.463111888843718e+20,2.223705759494062e+19
6.687527211,5.421583583466658e+21,-5.3466063101173694e+20,2.2532986364790833e+19
6.689527177,5.363872513927414e+21,-5.2306167201822304e+20,2.2827463956111753e+19
6.691527143,5.306333532059989e+21,-5.115143898483613e+20,2.3120488599264494e+19
6.693527109,5.248967242718663e+21,-5.000188604017667e+20,2.3412058501903647e+19
6.695527075,5.191774243466229e+21,-4.885751575288134e+20,2.3702171849288876e+19
6.697526408,5.134755124563096e+21,-4.771833530266173e+20,2.3990826804613448e+19
6.699525774,5.077910468956107e+21,-4.6584351663533326e+20,2.4278021509350162e+19
6.701525207,5.021240852267189e+21,-4.5455571603477286e+20,2.456375408361518e+19
6.70352524,4.964746842781937e+21,-4.433200168413503e+20,2.4848022626550153e+19
6.705525273,4.908429001438297e+21,-4.321364826053615e+20,2.5130825216722895e+19
6.707524639,4.852287881815517e+21,-4.21005174808597e+20,2.54121599125466e+19
6.709524672,4.796324030123547e+21,-4.099261528622865e+20,2.5692024752717824e+19
6.711524705,4.74053798519308e+21,-3.9889947410537434e+20,2.597041775667318e+19
6.713524705,4.6849302784664435e+21,-3.8792519380312575e+20,2.6247336925064823e+19
6.715524671,4.629501433989552e+21,-3.7700336514606563e+20,2.6522780240254927e+19
6.717524637,4.574251968405078e+21,-3.6613403924925094e+20,2.679674566682932e+19
6.719524603,4.51918239094701e+21,-3.5531726515187745e+20,2.706923115213049e+19
6.721524569,4.4642932034367306e+21,-3.4455308981722415e+20,2.7340234626810216e+19
6.723524535,4.409584900280739e+21,-3.3384155813293484e+20,2.760975400540209e+19
6.725524501,4.3550579684701016e+21,-3.2318271291163935e+20,2.787778718691397e+19
6.727524467,4.30071288758168e+21,-3.125765948919183e+20,2.8144332055440327e+19
6.729524467,4.2465501297811684e+21,-3.0202324273961396e+20,2.8409386480794665e+19
6.731524067,4.19257015982796e+21,-2.915226930494885e+20,2.867294831916178e+19
6.7335241,4.138773435081881e+21,-2.8107498034723134e+20,2.893501541376996e+19
6.735524133,4.0851604055118116e+21,-2.7068013709181426e+20,2.9195585595583136e+19
6.737523399,4.0317315137062086e+21,-2.6033819367819313e+20,2.9454656684012634e+19
6.739523432,3.978487194885512e+21,-2.5004917844035423e+20,2.971222648764829e+19
6.741523465,3.9254278769164115e+21,-2.3981311765470406e+20,2.9968292805008654e+19
6.743523898,3.8725539803279623e+21,-2.2963003554379858e+20,3.022285342531027e+19
6.745523931,3.819865918329548e+21,-2.194999542804088e+20,3.0475906129255694e+19
6.747523931,3.767364096830646e+21,-2.094228939919212e+20,3.072744868984029e+19
6.749523931,3.7150489144623765e+21,-1.993988727650703e+20,3.0977478873177424e+19
6.751523931,3.662920762600802e+21,-1.8942790665100198e+20,3.12259944393418e+19
6.753523931,3.610980025391951e+21,-1.7951000967066524e+20,3.1472993143230857e+19
6.755523931,3.5592270797784765e+21,-1.6964519382053054e+20,3.1718472735444337e+19
6.757524597,3.507662295527892e+21,-1.598334690786303e+20,3.1962430963182174e+19
6.75952523,3.456286035262306e+21,-1.5007484341091867e+20,3.2204865571160457e+19
6.761525463,3.4050986544895676e+21,-1.4036932277794872e+20,3.2445774302545117e+19
6.763525429,3.3541005016356933e+21,-1.3071691114186565e+20,3.268515489990312e+19
6.765525395,3.303291918078471e+21,-1.2111761047371448e+20,3.2923005106170954e+19
6.767526028,3.2526732381821275e+21,-1.1157142076106041e+20,3.31593226656402e+19
6.769525994,3.2022447893329824e+21,-1.0207834001592038e+20,3.3394105324959793e+19
6.77152596,3.152006891975991e+21,-9.263836428300386e+19,3.3627350834154635e+19
6.773525793,3.1019598596521255e+21,-8.325148764826055e+19,3.38590569476598e+19
6.775525793,3.052103999036521e+21,-7.391770224773254e+19,3.4089221425369973e+19
6.777525826,3.002439609977307e+21,-6.463699827670784e+19,3.4317842033703485e+19
6.779525859,2.9529669855350463e+21,-5.5409363999171805e+19,3.4544916546680422e+19
6.781525892,2.9036864120226987e+21,-4.623478575755202e+19,3.4770442747014185e+19
6.783525925,2.8545981690460284e+21,-3.711324798275214e+19,3.499441842721587e+19
6.785525958,2.805702529544402e+21,-2.804473320446945e+19,3.521684139071085e+19
6.787525991,2.756999759831931e+21,-1.9029222061790495e+19,3.543770945296669e+19
6.789526024,2.7084901196388893e+21,-1.0066693314059129e+19,3.5657020442631668e+19
6.79152649,2.6601738621533815e+21,-1.1571238520108237e+18,3.5874772202682876e+19
6.793526456,2.612051234063225e+21,7.699511290833191e+18,3.6090962591583437e+19
6.795526422,2.5641224755980167e+21,1.650323892651878e+19,3.630558948444825e+19
6.797526488,2.516387820571334e+21,2.5254087700766e+19,3.651865077421759e+19
6.799526454,2.468847496423031e+21,3.3952088080838033e+19,3.6730144372837974e+19
6.80152642,2.421501724261605e+21,4.259727234317989e+19,3.694006821245e+19
6.803525986,2.374350718906598e+21,5.118967456083503e+19,3.714842024658246e+19
6.805525952,2.3273946889310102e+21,5.972933059064863e+19,3.735519845135214e+19
6.807525952,2.280633836703708e+21,6.821627806026642e+19,3.756040082666868e+19
6.809525985,2.2340683584318147e+21,7.66505563549388e+19,3.776402539744349e+19
6.811526018,2.1876984442031083e+21,8.503220660414002e+19,3.796607021480208e+19
6.813526051,2.1415242780284457e+21,9.336127166801248e+19,3.816653335729871e+19
6.815526084,2.0955460378842167e+21,1.016377961236465e+20,3.836541293213293e+19
6.817526117,2.049763895754841e+21,1.0986182625120643e+20,3.856270707636725e+19
6.81952615,2.0041780176753242e+21,1.180334100199139e+20,3.87584139581459e+19
6.821525683,1.958788563773866e+21,1.2615259707389798e+20,3.895253177791427e+19
6.823525716,1.9135956883145333e+21,1.3421943871792257e+20,3.914505876963905e+19
6.825525716,1.8685995397400022e+21,1.4223398790300015e+20,3.933599320202877e+19
6.827525716,1.8238002607143959e+21,1.5019629921190124e+20,3.952533337975475e+19
6.829525716,1.7791979881662356e+21,1.581064288445677e+20,3.971307764467178e+19
6.831525716,1.7347928533315187e+21,1.6596443460343693e+20,3.989922437703808e+19
6.833525849,1.6905849817969428e+21,1.737703758786847e+20,4.008377199673344e+19
6.835525849,1.6465744935432812e+21,1.8152431363339243e+20,4.026671896447438e+19
6.837525815,1.602761502988903e+21,1.892263103886438e+20,4.044806378302505e+19
6.839525781,1.5591461190334258e+21,1.9687643020855502e+20,4.0627804998402376e+19
6.841525747,1.5157284451014924e+21,2.0447473868524356e+20,4.080594120107406e+19
6.843525713,1.4725085791866763e+21,2.1202130292374163e+20,4.098247102714793e+19
6.845525679,1.429486613895519e+21,2.1951619152686298e+20,4.115739315955119e+19
6.847525645,1.3866626364917017e+21,2.2695947458003206e+20,4.133070632919813e+19
6.849525611,1.344036728940343e+21,2.34351223636087e+20,4.1502409316144775e+19
6.851525511,1.3016089679523962e+21,2.416915117000664e+20,4.167250095072903e+19
6.853525511,1.2593794250291198e+21,2.4898041321398967e+20,4.184098011469513e+19
6.855525544,1.217348166506569e+21,2.5621800404163966e+20,4.200784574230115e+19
6.85752521,1.1755152536000581e+21,2.6340436145335514e+20,4.21730968214086e+19
6.859525243,1.1338807424485478e+21,2.7053956411084007e+20,4.233673239455249e+19
6.861525276,1.092444684158892e+21,2.7762369205199516e+20,4.249875155999064e+19
6.863525709,1.0512071248498792e+21,2.8465682667577908e+20,4.2659153472730956e+19
6.865525742,1.010168105696006e+21,2.9163905072710654e+20,4.281793734553567e+19
6.867525775,9.693276629709231e+20,2.9857044828179084e+20,4.297510244990085e+19
6.869525775,9.286858280904929e+20,3.054511047315381e+20,4.3130648117009514e+19
6.871525741,8.882426276553991e+20,3.122811067690013e+20,4.3284573738657055e+19
6.873525707,8.479980834932507e+20,3.190605423728976e+20,4.34368787681472e+19
6.875525907,8.07952212700122e+20,3.2578950079319323e+20,4.358756272115745e+19
6.877525873,7.681050276814704e+20,3.3246807253636035e+20,4.373662517657272e+19
6.879525839,7.284565361923761e+20,3.3909634935071336e+20,4.388406577728586e+19
6.881526705,6.8900674137705e+20,3.456744242118331e+20,4.402988423096363e+19
6.883526671,6.497556418075558e+20,3.522023913080881e+20,4.417408031077728e+19
6.885526671,6.107032315217004e+20,3.586803460262624e+20,4.4316653856096846e+19
6.887526704,5.718495000600432e+20,3.6510838493729784e+20,4.445760477314849e+19
6.889526737,5.331944325019866e+20,3.7148660578215946e+20,4.459693303563439e+19
6.89152677,4.94738009500914e+20,3.778151074578296e+20,4.473463868531455e+19
6.893526803,4.5648020731834034e+20,3.8409399000343616e+20,4.4870721832550466e+19
6.895526836,4.184209978570472e+20,3.903233545865192e+20,4.500518265681058e+19
6.897526869,3.8056034869317416e+20,3.9650330348943835e+20,4.513802140713727e+19
6.899526902,3.428982231072417e+20,4.0263394009592784e+20,4.5269238402575565e+19
6.901526935,3.0543458011408105e+20,4.087153688778008e+20,4.539883403256372e+19
6.903526935,2.681693744916453e+20,4.147476953818076e+20,4.552680875728562e+19
6.905526935,2.311025568086798e+20,4.207310262166524e+20,4.5653163107985195e+19
6.907526935,1.9423407345123302e+20,4.2666546904016984e+20,4.577789768724277e+19
6.909526935,1.575638666479892e+20,4.3255113254666555e+20,4.590101316921341e+19
6.911526935,1.2109187449440489e+20,4.383881264544193e+20,4.6022510299827536e+19
6.913526935,8.48180309756349e+19,4.441765614933487e+20,4.614238989695412e+19
6.915526901,4.874226598823366e+19,4.499165493928295e+20,4.6260652850526945e+19
6.917526834,1.2864505360621208e+19,4.556082028696699e+20,4.637730012263468e+19
6.9195268,-2.281532912769604e+19,4.612516356162375e+20,4.649233274757579e+19
6.921526766,-5.8297319728158605e+19,4.6684696228873896e+20,4.660575183187955e+19
6.923526732,-9.358155270644944e+19,4.723942984956531e+20,4.671755855429488e+19
6.925526698,-1.286681183270585e+20,4.778937607863219e+20,4.68277541657485e+19
6.927526664,-1.635571108391218e+20,4.833454666397049e+20,4.693633998927449e+19
6.92952663,-1.982486284635396e+20,4.887495344533023e+20,4.704331741991731e+19
6.93152663,-2.3274277338137625e+20,4.941060835322537e+20,4.714868792461027e+19
6.933526663,-2.670396517235441e+20,4.994152340786176e+20,4.725245304203143e+19
6.935526463,-3.0113937356177015e+20,5.0467710718083806e+20,4.735461438243845e+19
6.937526496,-3.350420529008445e+20,5.098918248034033e+20,4.745517362748378e+19
6.939526529,-3.687478076721484e+20,5.150595097767046e+20,4.755413253001157e+19
6.941526562,-4.0225675972846184e+20,5.2018028578710225e+20,4.765149291383757e+19
6.943526595,-4.355690348400455e+20,5.2525427736720284e+20,4.774725667351331e+19
6.945526628,-4.686847626919941e+20,5.3028160988635464e+20,4.7841425774075314e+19
6.947526628,-5.016040768828557e+20,5.3526240954136343e+20,4.793400225078025e+19
6.949526594,-5.3432711492451697e+20,5.401968033474297e+20,4.8024988208826745e+19
6.95152656,-5.668540182433513e+20,5.4508491912930656e+20,4.811438582306498e+19
6.953526526,-5.991849321826269e+20,5.499268855126777e+20,4.82021973376946e+19
6.955526492,-6.313200060061702e+20,5.5472283191575734e+20,4.828842506595212e+19
6.957526458,-6.632593929032801e+20,5.5947288854110876e+20,4.8373071389789585e+19
6.959526424,-6.95003249994886e+20,5.641771863676808e+20,4.845613875954601e+19
6.96152639,-7.265517383409394e+20,5.688358571430673e+20,4.853762969361285e+19
6.96352639,-7.579050229490275e+20,5.734490333759988e+20,4.8617546778095256e+19
6.965526423,-7.890632727841934e+20,5.7801684832907166e+20,4.8695892666470105e+19
6.967526456,-8.200266607799451e+20,5.8253943601172264e+20,4.877267007924181e+19
6.969526489,-8.507953638504378e+20,5.870169311734593e+20,4.884788180359715e+19
6.971526522,-8.813695629038159e+20,5.914494692973525e+20,4.892153069306e+19
6.973526555,-9.117494428567024e+20,5.958371865937911e+20,4.899361966714651e+19
