"Time (s)","Acceleration x (m/s^2)","Acceleration y (m/s^2)","Acceleration z (m/s^2)"
4.541048000E-3,4.331009090E-1,4.019941807E0,7.963313580E0
9.390735000E-3,5.623133183E-1,4.022335052E0,7.958528042E0
1.424042300E-2,1.112662554E0,3.780659676E0,7.987242222E0
1.909011000E-2,1.581655741E0,3.538984776E0,8.054241180E0
2.393969400E-2,1.631905079E0,3.538984776E0,8.434700012E0
2.878932900E-2,1.146162033E0,3.682554007E0,8.518448830E0
3.363891200E-2,8.494520187E-1,3.696911097E0,8.683553696E0
3.848849600E-2,1.033699393E0,3.677768469E0,8.894122124E0
4.333813100E-2,1.234696507E0,3.663411379E0,9.090332985E0
4.818771400E-2,1.514656782E0,3.558127165E0,9.329615593E0
5.303729800E-2,1.584048629E0,3.538984776E0,9.415757179E0
5.788693300E-2,1.770688772E0,3.510270834E0,9.480362892E0
6.273651700E-2,1.694118381E0,3.605983734E0,9.511469841E0
6.758610000E-2,1.792224169E0,3.625126362E0,9.537791252E0
7.243568300E-2,1.730010748E0,3.629911900E0,9.487542152E0
7.728531900E-2,1.694118381E0,3.670589924E0,9.355937004E0
8.213490200E-2,1.777867198E0,3.629911900E0,9.298508644E0
8.698448500E-2,1.763510346E0,3.629911900E0,9.181260109E0
9.183412100E-2,1.835294962E0,3.589233875E0,9.126225471E0
9.668370400E-2,1.727617979E0,3.529413462E0,8.958727837E0
1.015332870E-1,1.672582984E0,3.512663603E0,8.841479301E0
1.063829230E-1,1.543370605E0,3.522234917E0,8.827122688E0
1.112325060E-1,1.538584948E0,3.503092289E0,8.867800713E0
1.160820890E-1,1.524227977E0,3.510270834E0,8.975478172E0
1.209317250E-1,1.433300734E0,3.503092289E0,8.977870941E0
1.257813080E-1,1.261017561E0,3.515056372E0,8.949156761E0
1.306308920E-1,1.162911773E0,3.512663603E0,8.999405861E0
1.354804750E-1,1.198804140E0,3.515056372E0,8.994620323E0
1.403301100E-1,1.213161111E0,3.522234917E0,8.953942299E0
1.451796940E-1,1.335195065E0,3.560520172E0,8.949156761E0
1.500292770E-1,1.421336651E0,3.586841106E0,8.970691681E0
1.548789120E-1,1.421336651E0,3.582055569E0,9.025727272E0
1.597284960E-1,1.392622828E0,3.574877024E0,9.071190834E0
1.645780790E-1,1.459621787E0,3.531806231E0,9.032905579E0
1.694277140E-1,1.222732425E0,3.522234917E0,9.061619759E0
1.742772980E-1,1.129412293E0,3.529413462E0,9.078369141E0
1.791268810E-1,1.131805062E0,3.512663603E0,9.054440498E0
1.839765170E-1,1.158126116E0,3.474378586E0,9.047262192E0
1.888261000E-1,1.131805062E0,3.505485058E0,9.123832703E0
1.936756830E-1,1.067198873E0,3.536591768E0,9.202795982E0
1.985253190E-1,9.379864931E-1,3.562912941E0,9.274580956E0
2.033749020E-1,8.374879360E-1,3.613162279E0,9.320044518E0
2.082244850E-1,7.489534616E-1,3.651447296E0,9.315258980E0
2.130741210E-1,6.891329288E-1,3.620340586E0,9.250652313E0
2.179237040E-1,6.915257573E-1,3.589233875E0,9.233902931E0
2.227732870E-1,7.848458290E-1,3.529413462E0,9.272188187E0
2.276228710E-1,8.877372146E-1,3.524627686E0,9.353543282E0
2.324725060E-1,8.374879360E-1,3.696911097E0,9.470791817E0
2.373220890E-1,7.776673436E-1,3.795016766E0,9.439684868E0
2.421716730E-1,7.704889178E-1,3.780659676E0,9.449256897E0
2.470213080E-1,8.350951076E-1,3.749552965E0,9.477970123E0
2.517774020E-1,9.236295223E-1,3.646661758E0,9.530612946E0
2.565319330E-1,9.954141974E-1,3.615555048E0,9.573683739E0
2.612865170E-1,9.954141974E-1,3.625126362E0,9.650253296E0
2.660410480E-1,1.186840057E0,3.670589924E0,9.590433121E0
2.707955790E-1,9.332008362E-1,3.830909014E0,9.499505997E0
2.755501620E-1,8.997012973E-1,3.883551121E0,9.430113792E0
2.803046940E-1,1.107876897E0,3.931407690E0,9.406186104E0
2.850592250E-1,1.272981644E0,3.936193228E0,9.284152031E0
2.898138080E-1,1.344766378E0,4.034298897E0,9.178867340E0
2.945683390E-1,1.593619823E0,4.012763500E0,9.044869423E0
2.993228710E-1,1.416550994E0,4.113262177E0,8.932407379E0
3.040774020E-1,1.050449133E0,4.374079704E0,8.822337151E0
3.088319850E-1,1.148554921E0,4.331008911E0,8.733802795E0
3.135865170E-1,1.457229018E0,4.103690624E0,8.621339798E0
3.183410480E-1,8.446664214E-1,3.761517286E0,8.549555779E0
3.230956310E-1,3.421736360E-1,3.577269793E0,8.592626572E0
3.278501620E-1,2.991028428E-1,3.833301783E0,8.523234367E0
3.326046940E-1,4.977070987E-1,4.005585194E0,8.408378601E0
3.373592770E-1,7.058826685E-1,4.065405846E0,8.458627701E0
3.421138080E-1,8.087740541E-1,4.074976921E0,8.415556908E0
3.468683390E-1,8.494520187E-1,4.051048756E0,8.283951759E0
3.516229230E-1,9.571290612E-1,4.060619831E0,8.327022552E0
3.563774540E-1,8.135597110E-1,4.144368649E0,8.379665375E0
3.611319850E-1,9.571290612E-1,4.110869408E0,8.472985268E0
3.658865690E-1,8.829515576E-1,4.261617184E0,8.702695847E0
3.706411000E-1,8.685946465E-1,4.273581028E0,8.877371788E0
3.753956310E-1,9.930213690E-1,4.151547432E0,8.891729355E0
3.801502140E-1,1.138983607E0,3.986442566E0,8.834300995E0
3.849047460E-1,1.277767301E0,3.888336897E0,8.707481384E0
3.896592770E-1,1.464407444E0,3.608376503E0,8.463413239E0
3.944138080E-1,1.000199914E0,3.948157310E0,8.384450912E0
3.991683920E-1,1.000199914E0,3.957728624E0,8.233702660E0
4.039229230E-1,1.081555843E0,3.739981890E0,7.934599876E0
4.086775060E-1,9.427721500E-1,3.716053486E0,8.037490845E0
4.134320370E-1,1.959721804E0,3.029313564E0,7.860422611E0
4.181865690E-1,1.653440475E0,3.215953588E0,7.814958572E0
4.229411000E-1,1.361516118E0,3.364308596E0,7.884350777E0
4.276956830E-1,1.308874011E0,3.483949661E0,7.874779224E0
4.324502140E-1,1.275374413E0,3.572484255E0,7.872386456E0
4.372047460E-1,1.301695466E0,3.574877024E0,7.807780266E0
4.419593290E-1,1.399801254E0,3.517449379E0,7.800601959E0
4.467138600E-1,1.567298889E0,3.395415306E0,7.771887779E0
4.514683920E-1,1.703689694E0,3.249453068E0,7.750352383E0
4.562229750E-1,1.844866276E0,3.091526747E0,7.750352383E0
4.609775060E-1,2.026720762E0,2.916850805E0,7.719245911E0
4.657320370E-1,2.222932339E0,2.737389088E0,7.613961697E0
4.704866210E-1,2.366501570E0,2.593819857E0,7.460821152E0
4.752411520E-1,2.344966173E0,2.569891453E0,7.338787079E0
4.799956830E-1,2.153540373E0,2.646461725E0,7.341179848E0
4.847502670E-1,1.947757602E0,2.758924484E0,7.448856831E0
4.895047980E-1,1.859223247E0,2.794816732E0,7.475177765E0
4.942593290E-1,1.969292998E0,2.746960402E0,7.336394310E0
4.990139120E-1,2.038684845E0,2.723032236E0,7.197610378E0
5.037684440E-1,1.993221283E0,2.715853691E0,7.087540627E0
5.085229750E-1,1.911865234E0,2.768495798E0,6.896114826E0
5.132775580E-1,1.983649969E0,2.902493954E0,6.635297298E0
5.180320890E-1,2.096112728E0,3.007778168E0,6.300302029E0
5.227866210E-1,2.206182480E0,3.168097258E0,6.061019897E0
5.275412040E-1,2.304288149E0,3.297309637E0,5.886343479E0
5.322957350E-1,2.325823545E0,3.503092289E0,5.845665932E0
5.370502670E-1,2.222932339E0,3.802195072E0,5.960521221E0
5.418047980E-1,2.581855536E0,3.634697676E0,5.852844238E0
5.465593810E-1,3.201596737E0,3.225524902E0,5.761917114E0
5.513139120E-1,3.527020693E0,2.924029350E0,5.783452511E0
5.560684440E-1,3.469592810E0,2.861815929E0,5.915057659E0
5.608230270E-1,3.302095175E0,2.907279491E0,6.096911907E0
5.655775580E-1,3.223132133E0,2.883351326E0,6.250052929E0
5.703320890E-1,2.883351326E0,2.943171740E0,6.539584160E0
5.750866730E-1,3.058027267E0,2.512463808E0,6.728617191E0
5.798412040E-1,3.110669374E0,2.220539331E0,6.936792850E0
5.845957350E-1,3.311666489E0,1.825723648E0,7.008577347E0
5.893503190E-1,2.904886723E0,1.892722726E0,7.305287361E0
5.941048500E-1,2.589034081E0,2.053041935E0,7.420143127E0
5.988593810E-1,2.414358139E0,2.359323025E0,7.532605648E0
6.036139640E-1,2.287538528E0,2.833101988E0,7.575676441E0
6.083684960E-1,2.122433662E0,3.440878868E0,7.597211838E0
6.131230270E-1,1.931007862E0,4.220939159E0,7.544569969E0
6.178776100E-1,1.708475351E0,4.926821709E0,7.460821152E0
6.226321420E-1,2.167897224E0,4.895715237E0,6.881757736E0
6.273866730E-1,2.811566591E0,4.412364960E0,6.195017815E0
6.321412560E-1,3.299702406E0,3.933800459E0,5.917450428E0
6.368957870E-1,3.357130051E0,3.780659676E0,5.962913990E0
6.416503190E-1,3.242274761E0,3.919443607E0,6.276373863E0
6.464049020E-1,3.108276606E0,4.063013077E0,6.690331936E0
6.511594330E-1,3.038884640E0,4.053441525E0,7.168896675E0
6.559139640E-1,3.029313564E0,3.907479286E0,7.647460938E0
6.606685480E-1,3.058027267E0,3.742374659E0,8.164310455E0
6.654230790E-1,2.986242771E0,3.634697676E0,8.690732002E0
6.701776100E-1,2.842673302E0,3.567698479E0,9.159725189E0
6.749321940E-1,2.732603550E0,3.567698479E0,9.561718941E0
6.796867250E-1,3.263810158E0,3.242274761E0,9.745966911E0
6.844412560E-1,3.651447296E0,3.390629768E0,9.781859398E0
6.891958390E-1,3.488735437E0,3.921836376E0,9.602396965E0
6.939503710E-1,3.476771355E0,4.331008911E0,9.068798065E0
6.987049020E-1,3.615555048E0,4.460221291E0,8.355736732E0
7.034594330E-1,3.797409534E0,4.512863636E0,7.716853142E0
7.082140170E-1,3.811766386E0,4.661218643E0,7.176074982E0
7.129685480E-1,3.814159393E0,4.888536453E0,6.848258495E0
7.177230790E-1,3.751945972E0,5.099104881E0,6.580262184E0
7.224776620E-1,3.663411379E0,5.213960648E0,6.431907177E0
7.272321940E-1,3.629911900E0,5.156532764E0,6.338587284E0
7.319867770E-1,3.299702406E0,5.158925533E0,6.494120598E0
7.367413080E-1,3.012563705E0,5.044070244E0,6.582654953E0
7.414958390E-1,2.718246460E0,4.945964336E0,6.671189308E0
7.462503710E-1,2.634497643E0,4.687539577E0,6.908079147E0
7.510049540E-1,2.689532757E0,4.383651257E0,7.245467186E0
7.557594850E-1,2.799602509E0,4.177868366E0,7.546962738E0
7.605140690E-1,3.893122435E0,4.094119549E0,8.116454124E0
7.652686000E-1,4.259224415E0,4.800002098E0,9.348757744E0
7.700231310E-1,4.436293125E0,4.718646049E0,9.092725754E0
7.747776620E-1,4.125226021E0,4.393222332E0,8.267202377E0
7.795322460E-1,4.788038254E0,3.711267948E0,7.424928665E0
7.842867770E-1,4.816751957E0,4.034298897E0,6.814758778E0
7.890413080E-1,4.584648132E0,4.725824833E0,6.458228111E0
7.937958920E-1,4.697110653E0,5.261816978E0,6.324230194E0
7.985504230E-1,4.709074974E0,5.654240131E0,6.252445698E0
8.033049540E-1,4.754538536E0,5.790630817E0,6.235695839E0
8.080595370E-1,4.807180882E0,5.694917679E0,6.273981094E0
8.128140690E-1,4.957928658E0,5.536991596E0,6.391229153E0
8.175686000E-1,5.000999451E0,5.441278458E0,6.580262184E0
8.223231830E-1,5.036891460E0,5.474778175E0,6.831508636E0
8.270777140E-1,5.008177757E0,5.357530117E0,7.099504948E0
8.318322460E-1,4.950749874E0,5.216353416E0,7.377072334E0
8.365868290E-1,4.969892502E0,5.137390137E0,7.585247993E0
8.413413600E-1,4.924428940E0,5.118247509E0,7.767102242E0
8.460958920E-1,4.814359188E0,4.967499733E0,7.865208149E0
8.508504750E-1,4.788038254E0,4.701896667E0,7.810173035E0
8.556050060E-1,4.730610371E0,4.740181446E0,7.714460373E0
8.603595370E-1,4.646861553E0,4.646861553E0,7.525427341E0
8.651141210E-1,4.668396950E0,4.771288395E0,7.223931789E0
8.698686520E-1,4.780859470E0,4.931607246E0,6.955935478E0
8.746231830E-1,5.723631859E0,5.261816978E0,6.709474564E0
8.793777670E-1,5.766702652E0,5.371886730E0,6.644868374E0
8.841322980E-1,5.498706341E0,5.417350292E0,6.446264267E0
8.888868290E-1,5.391029358E0,5.235496044E0,5.886343479E0
8.936414120E-1,5.785845280E0,5.228317261E0,5.225924492E0
8.983959440E-1,6.013163090E0,5.314459324E0,4.919643402E0
9.031504750E-1,5.984449387E0,5.828916073E0,5.156532764E0
9.079050580E-1,5.529813290E0,5.651846886E0,5.429314613E0
9.126595890E-1,5.484349728E0,4.998606682E0,5.182853699E0
9.174141210E-1,5.589633465E0,4.694717884E0,5.146961689E0
9.221687040E-1,5.429314613E0,4.651647091E0,5.367101192E0
9.269232350E-1,5.137390137E0,4.627718925E0,5.776273727E0
9.316777670E-1,4.998606682E0,4.512863636E0,6.218945980E0
9.364323500E-1,5.067998409E0,4.292723656E0,6.695117950E0
9.411868810E-1,5.218746185E0,4.084548473E0,7.252645493E0
9.459414120E-1,5.338387489E0,3.969692707E0,7.695317745E0
9.506959960E-1,5.520241737E0,3.888336897E0,7.872386456E0
9.554505270E-1,5.596812248E0,3.871587038E0,7.688138962E0
9.602050580E-1,5.706882000E0,4.082155228E0,7.570890903E0
9.649596420E-1,6.020341873E0,4.237689018E0,7.381857872E0
9.697141730E-1,6.293123722E0,4.500899315E0,7.192824841E0
9.744687040E-1,6.592226505E0,4.721039295E0,6.975078106E0
9.792232870E-1,6.850651264E0,4.972285271E0,6.774080753E0
9.839778190E-1,7.058826923E0,5.096712112E0,6.455835342E0
9.887323500E-1,7.255038261E0,5.044070244E0,6.087340832E0
9.934869330E-1,7.391428947E0,5.008177757E0,5.800201893E0
9.982414640E-1,7.372286797E0,5.039284706E0,5.666203976E0
1.002995996E0,7.274180889E0,5.084748268E0,5.685346603E0
1.007750579E0,7.221538544E0,5.015356064E0,5.816951752E0
1.012505110E0,7.298109055E0,4.819144726E0,6.001199245E0
1.017259642E0,7.415357590E0,4.601397991E0,6.240481377E0
1.022014225E0,7.518248558E0,4.527220249E0,6.482156754E0
1.026768756E0,7.688138962E0,4.577469826E0,6.855436802E0
1.031523287E0,7.905886173E0,4.613361835E0,7.324429989E0
1.036277871E0,8.118846893E0,4.541577339E0,7.750352383E0
1.041032402E0,8.248059273E0,4.414757729E0,8.056633949E0
1.045786933E0,8.279166222E0,4.242474556E0,8.063812256E0
1.050541517E0,8.214560509E0,4.278367043E0,8.322237015E0
1.055296048E0,8.185846329E0,4.321437836E0,8.595019341E0
1.060050579E0,8.130811691E0,4.393222332E0,8.764909744E0
1.064805110E0,8.099704742E0,4.424329281E0,8.733802795E0
1.069559694E0,7.982456207E0,4.484149456E0,8.810373306E0
1.074314225E0,7.850851059E0,4.551148891E0,8.839086533E0
1.079068808E0,7.783852100E0,4.615755081E0,8.731410027E0
1.083823339E0,7.879564762E0,4.565505505E0,8.590232849E0
1.088577871E0,7.611568928E0,4.606183529E0,8.137989998E0
1.093332454E0,7.575676441E0,4.522434711E0,7.558926582E0
1.098086985E0,7.527820110E0,4.448257446E0,6.707081795E0
1.102841517E0,7.568498135E0,4.426722050E0,5.800201893E0
1.107596100E0,7.544569969E0,4.606183529E0,4.902893543E0
1.112350631E0,7.783852100E0,4.788038254E0,4.070191383E0
1.117105162E0,8.161917686E0,5.051248550E0,3.326023579E0
1.121859746E0,8.843872070E0,5.702096462E0,3.029313564E0
1.126614277E0,9.324830055E0,5.541777134E0,2.756531715E0
1.131368808E0,9.858428955E0,5.192425251E0,2.127219439E0
1.136123339E0,1.053559780E1,4.737788677E0,1.464407444E0
1.140877923E0,1.073659515E1,4.773681164E0,1.004985452E0
1.145632454E0,1.055474091E1,5.034498692E0,8.542376757E-1
1.150387037E0,1.041835022E1,5.213960648E0,8.877372146E-1
1.155141569E0,1.047817039E1,5.218746185E0,8.829515576E-1
1.159896100E0,1.172483063E1,5.137390137E0,-7.362715244E0
1.164650631E0,1.092084217E1,5.424529076E0,-2.797209740E0
1.169405214E0,9.796216011E0,5.032105923E0,2.455035925E0
1.174159746E0,1.026281643E1,4.407579422E0,3.464807272E0
1.178914277E0,1.078205872E1,3.996013880E0,3.426522017E0
1.183668860E0,1.078923702E1,3.833301783E0,3.151347399E0
1.188423392E0,1.040877819E1,3.895515203E0,3.081955671E0
1.193177923E0,9.750752449E0,4.051048756E0,3.215953588E0
1.197932506E0,9.047262192E0,4.156332970E0,3.517449379E0
1.202687037E0,8.700303078E0,3.986442566E0,3.869194269E0
1.207441621E0,8.693124771E0,3.732803345E0,4.120440483E0
1.212196152E0,8.736195564E0,3.543770313E0,4.280759811E0
1.216950683E0,8.805587769E0,3.519842148E0,4.445864677E0
1.221705214E0,8.855836868E0,3.558127165E0,4.646861553E0
1.226459798E0,8.930013657E0,3.579662561E0,4.800002098E0
1.231214329E0,9.052047729E0,3.500699520E0,4.922036171E0
1.235968912E0,9.296115875E0,3.345165968E0,4.993820667E0
1.240723444E0,9.576076508E0,3.244667530E0,5.046463013E0
1.245477975E0,9.772287369E0,3.249453068E0,5.099104881E0
1.250232506E0,9.860821724E0,3.273381472E0,5.125426292E0
1.254987089E0,9.846465111E0,3.244667530E0,5.079962254E0
1.259741621E0,9.798608780E0,3.168097258E0,4.900500774E0
1.264496204E0,9.693324089E0,3.029313564E0,4.675575256E0
1.269250735E0,9.600004196E0,2.938386202E0,4.433900356E0
1.274005267E0,9.449256897E0,2.928814888E0,4.185046673E0
1.278759850E0,9.284152031E0,2.931207657E0,3.933800459E0
1.283514381E0,9.190832138E0,2.952743053E0,3.639483213E0
1.288268912E0,9.171689034E0,2.959921598E0,3.385843992E0
1.293023496E0,9.253045082E0,2.945564747E0,3.134597778E0
1.297778027E0,9.379864693E0,2.890529871E0,2.957528830E0
1.302532558E0,9.578469276E0,2.878565550E0,2.914458036E0
1.307287089E0,9.848857880E0,2.873780012E0,3.010170937E0
1.312041673E0,1.011206818E1,2.950350285E0,3.227917671E0
1.316796204E0,1.024128056E1,3.077169895E0,3.436093330E0
1.321550787E0,1.033699417E1,3.144168854E0,3.565305710E0
1.326305319E0,1.037288570E1,3.139383316E0,3.601198196E0
1.331059850E0,1.038245773E1,3.105883837E0,3.601198196E0
1.335814381E0,1.034417248E1,3.084348440E0,3.589233875E0
1.340568964E0,1.025563812E1,3.081955671E0,3.632304668E0
1.345323496E0,1.011446095E1,3.105883837E0,3.716053486E0
1.350078079E0,1.002831936E1,3.053241730E0,3.871587038E0
1.354832610E0,9.997213364E0,2.971885681E0,4.113262177E0
1.359587142E0,1.000439167E1,2.919243574E0,4.340580463E0
1.364341725E0,9.987641335E0,2.892922640E0,4.615755081E0
1.369096256E0,1.001396275E1,2.871387243E0,4.862215519E0
1.373850787E0,1.007378292E1,2.902493954E0,5.134997368E0
1.378605319E0,1.006421185E1,2.971885681E0,5.391029358E0
1.383359902E0,9.946963310E0,2.993421078E0,5.620740414E0
1.388114433E0,9.899106979E0,2.976671457E0,5.831308842E0
1.392868964E0,9.791430473E0,2.943171740E0,5.946164131E0
1.397623548E0,9.621540070E0,2.924029350E0,5.888736725E0
1.402378079E0,9.506684303E0,2.890529871E0,5.800201893E0
1.407132610E0,9.403793335E0,2.847458839E0,5.694917679E0
1.411887194E0,9.375079155E0,2.778067112E0,5.534598827E0
1.416641725E0,9.427721024E0,2.696711063E0,5.405386448E0
1.421396256E0,9.454042435E0,2.617748022E0,5.216353416E0
1.426150839E0,9.399007797E0,2.579462767E0,4.984249592E0
1.430905371E0,9.286544800E0,2.538784742E0,4.687539577E0
1.435659954E0,9.164510727E0,2.455035925E0,4.354937077E0
1.440414485E0,9.052047729E0,2.392822742E0,4.046263218E0
1.445169017E0,8.968298912E0,2.352144718E0,3.790230989E0
1.449923600E0,8.908478737E0,2.299502611E0,3.589233875E0
1.454678131E0,8.968298912E0,2.218146563E0,3.428914785E0
1.459432662E0,9.147761345E0,2.163111687E0,3.335594654E0
1.464187246E0,9.293723106E0,2.184647083E0,3.321237803E0
1.468941777E0,9.384650230E0,2.285145521E0,3.342773199E0
1.473696308E0,9.332008362E0,2.352144718E0,3.347558975E0
1.478450892E0,9.229117393E0,2.400001049E0,3.347558975E0
1.483205423E0,9.138189316E0,2.419143677E0,3.299702406E0
1.487959954E0,8.997013092E0,2.428714991E0,3.275774240E0
1.492714537E0,8.874979019E0,2.435893536E0,3.189632654E0
1.497469069E0,8.736195564E0,2.373680115E0,3.089133978E0
1.502223600E0,8.556734085E0,2.318645239E0,3.000599623E0
1.506978131E0,8.429914474E0,2.208575249E0,2.859423161E0
1.511732714E0,8.295916557E0,2.208575249E0,2.744567633E0
1.516487246E0,7.759923935E0,2.610569477E0,2.878565550E0
1.521241777E0,8.054241180E0,2.376072884E0,2.761317253E0
1.525996360E0,8.283951759E0,1.976471543E0,2.596212626E0
1.530750892E0,8.441878319E0,1.615155339E0,2.395215511E0
1.535505475E0,8.733802795E0,1.287338614E0,2.048256159E0
1.540260006E0,9.262616158E0,9.116654396E-1,1.674975872E0
1.545014537E0,9.698110580E0,5.599204898E-1,1.289731383E0
1.549769069E0,9.698110580E0,2.488535494E-1,9.188438654E-1
1.554523652E0,9.257830620E0,1.914258152E-1,6.675975323E-1
1.559278183E0,8.733802795E0,2.967100143E-1,5.407779217E-1
1.564032767E0,8.360522270E0,4.331009090E-1,4.139583111E-1
1.568787298E0,8.183453560E0,4.929214716E-1,3.206382394E-1
1.573541829E0,8.145168304E0,3.924229145E-1,1.076770201E-1
1.578296412E0,8.303094864E0,1.483550072E-1,-2.081755698E-1
1.583050944E0,8.389236450E0,-1.148554832E-1,-5.120640397E-1
1.587805475E0,8.346165657E0,-1.483550072E-1,-6.915257573E-1
1.592560058E0,8.616554260E0,-2.201396823E-1,-6.340979934E-1
1.597314589E0,9.087940216E0,-4.570291340E-1,-3.661018610E-1
1.602069121E0,9.523433685E0,-7.130611539E-1,-1.794617027E-1
1.606823704E0,9.913464546E0,-9.882357717E-1,-9.092725813E-2
1.611578235E0,1.021017456E1,-1.217946768E0,-2.153540403E-1
1.616332767E0,1.041595650E1,-1.418943882E0,-2.751746178E-1
1.621087350E0,1.044945621E1,-1.543370605E0,-3.421736360E-1
1.625841881E0,1.032502937E1,-1.679761529E0,-3.661018610E-1
1.630596412E0,1.011446095E1,-1.739582062E0,-3.541377485E-1
1.635350996E0,9.870393753E0,-1.744367719E0,-3.062812984E-1
1.640105527E0,9.786644936E0,-1.739582062E0,-2.440679073E-1
1.644860058E0,9.643074989E0,-1.734796405E0,-7.417750359E-2
1.649614589E0,9.501898766E0,-1.691725612E0,1.866401732E-1
1.654369173E0,9.341579437E0,-1.703689694E0,5.096712112E-1
1.659123704E0,9.116654396E0,-1.804188251E0,8.231309652E-1
1.663878235E0,8.827122688E0,-1.911865234E0,1.148554921E0
1.668632819E0,8.659625053E0,-2.146361828E0,1.308874011E0
1.673387350E0,8.539983749E0,-2.438286304E0,1.495514154E0
1.678141881E0,8.250452042E0,-2.689532757E0,1.591227055E0
1.682896464E0,7.920242786E0,-2.935993433E0,1.689332843E0
1.687650996E0,7.925028801E0,-3.249453068E0,1.737189293E0
1.692405579E0,7.896314621E0,-3.469592810E0,1.840080619E0
1.697160110E0,7.704888821E0,-3.534198999E0,2.096112728E0
1.701914642E0,7.534998417E0,-3.541377544E0,2.431107759E0
1.706669173E0,7.539783955E0,-3.562912941E0,2.660818815E0
1.711423756E0,7.501499176E0,-3.598805189E0,2.790031195E0
1.716178287E0,7.826922894E0,-3.629911900E0,2.790031195E0
1.720932871E0,8.037490845E0,-3.684946775E0,2.433500528E0
1.725687402E0,7.843672752E0,-3.629911900E0,2.194218397E0
1.730441933E0,8.051848412E0,-3.749552965E0,1.598405480E0
1.735196464E0,8.312665939E0,-3.859622955E0,9.332008362E-1
1.739951048E0,8.348558426E0,-3.790230989E0,4.402793646E-1
1.744705579E0,9.107083321E0,-3.665804386E0,1.962114573E-1
1.749460110E0,9.525827408E0,-3.665804386E0,2.057827413E-1
1.754214694E0,9.473184586E0,-3.876372576E0,3.373879790E-1
1.758969225E0,9.521040916E0,-4.331008911E0,6.269195080E-1
1.763723808E0,9.693324089E0,-4.776073933E0,7.657032609E-1
1.768478339E0,9.927821159E0,-5.072783947E0,8.350951076E-1
1.773232871E0,1.010010433E1,-5.182853699E0,1.000199914E0
1.777987454E0,1.009771156E1,-5.194818020E0,1.134197950E0
1.782741985E0,1.002114105E1,-5.134997368E0,1.220339537E0
1.787496517E0,9.891928673E0,-5.005784988E0,1.232303619E0
1.792251100E0,9.578469276E0,-4.974678040E0,1.117448211E0
1.797005631E0,9.257830620E0,-5.089533806E0,9.714859724E-1
1.801760162E0,8.886942863E0,-5.259424210E0,7.968099117E-1
1.806514746E0,8.487341881E0,-5.391029358E0,5.479564071E-1
1.811269277E0,8.245666504E0,-5.536991596E0,5.359922647E-1
1.816023808E0,8.183453560E0,-5.737988472E0,7.010970116E-1
1.820778339E0,7.846065521E0,-5.833701611E0,7.920243144E-1
1.825532923E0,7.635497093E0,-5.953342915E0,1.002592683E0
1.830287454E0,7.422535896E0,-6.106483459E0,1.182054400E0
1.835042037E0,6.970292568E0,-6.123233318E0,1.261017561E0
1.839796569E0,6.802794933E0,-6.285944939E0,1.284945726E0
1.844551100E0,6.731009960E0,-6.427121639E0,1.399801254E0
1.849305683E0,6.687939167E0,-6.616154671E0,1.411765337E0
1.854060214E0,6.752545357E0,-6.726224422E0,1.452443361E0
1.858814746E0,6.814758778E0,-6.869793892E0,1.490728498E0
1.863569329E0,6.872186661E0,-6.884150982E0,1.509871125E0
1.868323860E0,6.948757172E0,-6.793223381E0,1.485942841E0
1.873078392E0,7.015756130E0,-6.649653912E0,1.490728498E0
1.877832975E0,7.034898758E0,-6.530013084E0,1.607976794E0
1.882587506E0,6.951149940E0,-6.386443615E0,1.545763373E0
1.887342037E0,6.836294174E0,-6.278766632E0,1.557727575E0
1.892096621E0,6.575476646E0,-6.240481377E0,1.514656782E0
1.896851152E0,6.427121639E0,-6.250052929E0,1.567298889E0
1.901605683E0,6.357729912E0,-6.123233318E0,1.596012712E0
1.906360267E0,6.183053493E0,-5.895915031E0,1.464407444E0
1.911114798E0,5.886343479E0,-5.649454117E0,1.304088354E0
1.915869329E0,5.369493961E0,-5.726024628E0,1.438086390E0
1.920623912E0,5.079962254E0,-5.857629776E0,1.646261930E0
1.925378444E0,4.790431023E0,-5.862415314E0,1.715653777E0
1.930132975E0,4.527220249E0,-5.924628735E0,1.703689694E0
1.934887558E0,4.268795490E0,-6.132804394E0,1.603191137E0
1.939642089E0,4.012763500E0,-6.281159401E0,1.529013634E0
1.944396621E0,3.873979807E0,-6.391229153E0,1.529013634E0
1.949151152E0,3.806980848E0,-6.611369133E0,1.897508383E0
1.953905735E0,3.835694790E0,-6.824330330E0,2.352144718E0
1.958660267E0,3.984049797E0,-7.118647575E0,2.684746981E0
1.963414798E0,4.163511276E0,-7.491927624E0,2.900100946E0
1.968169381E0,4.304687977E0,-7.965706348E0,3.062813044E0
1.972923912E0,4.644468784E0,-7.944170952E0,3.062813044E0
1.977678444E0,4.914857864E0,-7.834101200E0,2.916850805E0
1.982433027E0,4.883750916E0,-7.884350777E0,2.883351326E0
1.987187558E0,4.788038254E0,-7.822137356E0,2.694318295E0
1.991942142E0,4.548755646E0,-7.673782349E0,2.277967215E0
1.996696673E0,4.244867325E0,-7.472784996E0,1.852044702E0
2.001451204E0,3.840480328E0,-7.243073940E0,1.564906001E0
2.006205735E0,3.323630571E0,-6.999006271E0,1.261017561E0
2.010960319E0,2.778067112E0,-6.709474564E0,1.143769264E0
2.015714850E0,2.311466694E0,-6.405586243E0,1.143769264E0
2.020469381E0,2.053041935E0,-6.156732559E0,1.091127157E0
2.025223964E0,2.088934183E0,-6.199803352E0,1.244267747E-1
2.029978496E0,2.411965132E0,-6.637690067E0,-2.428714991E0
2.034733027E0,2.746960402E0,-7.159325123E0,-5.072783947E0
2.039487610E0,3.314059258E0,-7.599604607E0,-5.979663849E0
2.044242142E0,3.687339783E0,-7.872386456E0,-4.414757729E0
2.048996673E0,4.153940201E0,-8.271987915E0,-1.887937069E0
2.053751256E0,4.890929699E0,-9.102297783E0,-1.842473447E-1
2.058505787E0,5.443671703E0,-9.911071777E0,7.609176040E-1
2.063260371E0,5.749952793E0,-1.056670475E1,1.107876897E0
2.068014902E0,6.046662807E0,-1.123908806E1,1.287338614E0
2.072769433E0,6.324230194E0,-1.194497108E1,1.454836130E0
2.077523964E0,6.494120598E0,-1.261017513E1,1.548156261E0
2.082278548E0,6.443871498E0,-1.319641685E1,1.225125194E0
2.087033079E0,6.319444656E0,-1.363430309E1,1.127019525E0
2.091787610E0,6.159125328E0,-1.405543995E1,1.387837172E0
2.096542194E0,5.883950710E0,-1.431625748E1,1.663011789E0
2.101296725E0,5.501099110E0,-1.445025635E1,1.844866276E0
2.106051256E0,5.077569485E0,-1.433779335E1,2.048256159E0
2.110805839E0,4.072584152E0,-1.379222965E1,2.467000246E0
2.115560371E0,3.275774240E0,-1.321795273E1,2.986242771E0
2.120314902E0,2.536391973E0,-1.272981644E1,3.400201082E0
2.125069485E0,1.974078655E0,-1.230867958E1,3.730410576E0
2.129824017E0,1.584048629E0,-1.180857944E1,3.993621111E0
2.134578548E0,1.304088354E0,-1.135872936E1,4.228117466E0
2.139333131E0,1.021735311E0,-1.084666538E1,4.486542225E0
2.144087662E0,9.619147182E-1,-1.040399265E1,4.630111694E0
2.148842194E0,1.098305583E0,-9.985248566E0,4.675575256E0
2.153596777E0,1.246660590E0,-9.554540634E0,4.649254322E0
2.158351308E0,1.756331801E0,-8.870193481E0,4.491328239E0
2.163105839E0,1.835294962E0,-8.870193481E0,4.402793884E0
2.167860423E0,1.753939033E0,-8.867800713E0,4.340580463E0
2.172614954E0,1.775474429E0,-8.776873589E0,4.208974838E0
2.177369485E0,1.701296926E0,-8.709874153E0,4.007977962E0
2.182124069E0,1.607976794E0,-8.614161491E0,3.823730469E0
2.186878600E0,1.653440475E0,-8.650053978E0,3.658625841E0
2.191633131E0,1.603191137E0,-8.542376518E0,3.433700562E0
2.196387714E0,1.710868239E0,-8.185846329E0,3.117847919E0
2.201142246E0,1.844866276E0,-8.226524353E0,3.065205812E0
2.205896777E0,2.026720762E0,-8.209774017E0,3.048455954E0
2.210651360E0,2.096112728E0,-8.200202942E0,2.998206854E0
2.215405892E0,2.242074728E0,-8.209774017E0,2.845066071E0
2.220160423E0,2.428714991E0,-8.195417404E0,2.727817774E0
2.224915006E0,2.596212626E0,-8.169096947E0,2.667997360E0
2.229669537E0,2.701496840E0,-8.133204460E0,2.589034081E0
2.234424069E0,2.792423964E0,-8.013563156E0,2.443071842E0
2.239178652E0,2.983849764E0,-8.039883614E0,2.361716032E0
2.243933183E0,3.139383316E0,-8.032705307E0,2.313859463E0
2.248687714E0,3.297309637E0,-8.080561638E0,2.289931297E0
2.253442298E0,3.393022537E0,-8.185846329E0,2.275574446E0
2.258196829E0,3.553341627E0,-8.336593628E0,2.337787628E0
2.262951360E0,3.385843992E0,-8.401200294E0,2.289931297E0
2.267705944E0,3.256631613E0,-8.463413239E0,2.203789711E0
2.272460475E0,3.002992392E0,-8.410771370E0,2.155933142E0
2.277215006E0,2.775674343E0,-8.233702660E0,2.096112728E0
2.281969537E0,2.603390932E0,-8.078168869E0,2.065006018E0
2.286724121E0,2.493321180E0,-8.042277336E0,2.012363911E0
2.291478652E0,2.306680918E0,-7.941778183E0,1.935793519E0
2.296233183E0,2.206182480E0,-7.791030407E0,1.840080619E0
2.300987767E0,2.206182480E0,-7.558926582E0,1.725225091E0
2.305742298E0,2.416750908E0,-7.511070251E0,1.579262972E0
2.310496829E0,2.742174864E0,-7.944170952E0,1.395015597E0
2.315251412E0,2.988635540E0,-8.236095428E0,1.256231904E0
2.320005944E0,3.225524902E0,-8.377271652E0,1.138983607E0
2.324760475E0,3.428914785E0,-8.480163574E0,6.723831892E-1
2.329515058E0,4.335794449E0,-8.752944946E0,-1.942971945E0
2.334269589E0,5.474778175E0,-8.963513374E0,-3.988835335E0
2.339024173E0,6.135197163E0,-9.174081802E0,-4.039084435E0
2.343778704E0,6.544369698E0,-9.298508644E0,-2.603390932E0
2.348533235E0,6.824330330E0,-9.494720459E0,-4.881358147E-1
2.353287819E0,7.168896675E0,-9.982855797E0,1.428515077E0
2.358042350E0,7.609176159E0,-1.055234814E1,2.718246460E0
2.362796881E0,8.059026718E0,-1.117208862E1,3.488735437E0
2.367551412E0,8.681160927E0,-1.185165024E1,3.835694790E0
2.372305996E0,9.396614075E0,-1.242832088E1,3.885943890E0
2.377060527E0,1.003071213E1,-1.289970684E1,3.306880951E0
2.381815110E0,1.097109222E1,-1.329930782E1,2.024327993E0
2.386569642E0,1.203350544E1,-1.368455315E1,6.508477330E-1
2.391324173E0,1.274656582E1,-1.385204983E1,-3.134597540E-1
2.396078704E0,1.280160141E1,-1.357448292E1,-4.402793646E-1
2.400833287E0,1.176790142E1,-1.251924801E1,2.057827413E-1
2.405587819E0,9.458827972E0,-1.096391296E1,1.129412293E0
2.410342350E0,7.369893551E0,-9.609575272E0,1.988435626E0
2.415096933E0,5.917450428E0,-8.590232849E0,2.713460922E0
2.419851464E0,4.843072891E0,-7.862815380E0,3.031706333E0
2.424605996E0,4.046263218E0,-7.322037220E0,2.928814888E0
2.429360579E0,3.414557934E0,-6.967899323E0,2.392822742E0
2.434115110E0,2.979064226E0,-6.817151546E0,1.438086390E0
2.438869642E0,2.739781857E0,-6.786045074E0,4.307080805E-1
2.443624225E0,2.651247501E0,-6.881757736E0,-4.713860750E-1
2.448378756E0,2.656033039E0,-7.046862602E0,-9.906286001E-1
2.453133339E0,2.675175667E0,-7.207181931E0,-1.098305583E0
2.457887871E0,2.723032236E0,-7.350750923E0,-8.063812256E-1
2.462642402E0,2.718246460E0,-7.489534855E0,-1.818545163E-1
2.467396933E0,2.615355253E0,-7.618747234E0,6.723831892E-1
2.472151517E0,2.330609322E0,-7.764709473E0,1.383051515E0
2.476906048E0,2.021935225E0,-8.008777618E0,1.773081541E0
2.481660579E0,1.694118381E0,-8.338987350E0,1.830509305E0
2.486415162E0,1.557727575E0,-8.769695282E0,1.598405480E0
2.491169694E0,1.749153376E0,-9.224330902E0,1.261017561E0
2.495924225E0,2.043470621E0,-9.626325607E0,1.050449133E0
2.500678808E0,2.239681959E0,-9.913464546E0,1.234696507E0
2.505433339E0,2.275574446E0,-1.003310490E1,1.773081541E0
2.510187871E0,2.153540373E0,-9.970891953E0,2.438286304E0
2.514942454E0,2.012363911E0,-9.863214493E0,2.974278450E0
2.519696985E0,1.892722726E0,-9.705288887E0,3.275774240E0
2.524451517E0,1.777867198E0,-9.547362328E0,3.215953588E0
2.529206100E0,1.703689694E0,-9.489934921E0,2.859423161E0
2.533960631E0,1.593619823E0,-9.468399048E0,2.277967215E0
2.538715162E0,1.481157184E0,-9.571290970E0,1.653440475E0
2.543469746E0,1.368694544E0,-9.748359680E0,1.167697430E0
2.548224277E0,1.282552958E0,-1.003549862E1,1.052842021E0
2.552978808E0,1.205982566E0,-1.033699417E1,1.227517962E0
2.557733392E0,1.143769264E0,-1.070548820E1,1.552941918E0
2.562487923E0,1.174875975E0,-1.108355427E1,1.816152334E0
2.567242454E0,1.141376376E0,-1.142094231E1,2.019542217E0
2.571997037E0,1.028913736E0,-1.180857944E1,2.237289190E0
2.576751569E0,1.021735311E0,-1.215314579E1,2.414358139E0
2.581506100E0,9.403793216E-1,-1.248096275E1,2.579462767E0
2.586260683E0,9.068797827E-1,-1.276810169E1,2.670390129E0
2.591015214E0,8.925228715E-1,-1.295474148E1,2.679961443E0
2.595769746E0,8.159525394E-1,-1.322513103E1,2.519642353E0
2.600524329E0,6.675975323E-1,-1.354337597E1,2.488535643E0
2.605278860E0,6.221339107E-1,-1.379462242E1,2.481357098E0
2.610033392E0,5.910272002E-1,-1.405543995E1,2.447857618E0
2.614787975E0,7.106683254E-1,-1.426361561E1,2.510071039E0
2.619542506E0,9.379864931E-1,-1.442154217E1,2.620140791E0
2.624297037E0,1.213161111E0,-1.455793285E1,2.766103029E0
2.629051621E0,1.648654819E0,-1.458664703E1,2.778067112E0
2.633806152E0,2.191825628E0,-1.458664703E1,2.665604353E0
2.638560683E0,2.763710260E0,-1.449811268E1,2.380858421E0
2.643315267E0,3.381058455E0,-1.432582951E1,2.072184324E0
2.648069798E0,3.998406649E0,-1.409372520E1,1.773081541E0
2.652824329E0,4.539184570E0,-1.392622757E1,1.531406522E0
2.657578912E0,5.123033047E0,-1.383051491E1,1.316052437E0
2.662333444E0,5.651846886E0,-1.375155163E1,1.105484009E0
2.667087975E0,5.991627693E0,-1.360558987E1,8.111668825E-1
2.671842558E0,6.637690067E0,-1.357448292E1,7.465606928E-1
2.676597089E0,7.424928665E0,-1.366541004E1,7.274180651E-1
2.681351621E0,8.176275253E0,-1.367498112E1,6.340979934E-1
2.686106204E0,8.872586250E0,-1.373719501E1,6.364908218E-1
2.690860735E0,9.595218658E0,-1.373958778E1,6.771687865E-1
2.695615267E0,1.019581699E1,-1.371087360E1,6.843472719E-1
2.700369850E0,1.075813103E1,-1.365105343E1,6.293123364E-1
2.705124381E0,1.117208862E1,-1.351226902E1,4.259224236E-1
2.709878912E0,1.134197903E1,-1.329691505E1,1.124626622E-1
2.714633496E0,1.116012478E1,-1.284467220E1,-2.321037948E-1
2.719388027E0,1.071745300E1,-1.221057415E1,-4.809573591E-1
2.724142558E0,9.978070259E0,-1.144487095E1,-5.216353536E-1
2.728897142E0,9.174081802E0,-1.070309544E1,-3.804588020E-1
2.733651673E0,8.463413239E0,-1.002114105E1,-9.332008660E-2
2.738406204E0,7.889136314E0,-9.446864128E0,2.344966233E-1
2.743160787E0,7.472784996E0,-8.898907661E0,4.546363056E-1
2.747915319E0,7.168896675E0,-8.408378601E0,5.694918036E-1
2.752669902E0,6.970292568E0,-8.018348694E0,5.862415433E-1
2.757424433E0,6.876972198E0,-7.676175117E0,5.886343718E-1
2.762178964E0,6.819544315E0,-7.446464062E0,6.939185858E-1
2.766933548E0,6.745367050E0,-7.336394310E0,9.355936646E-1
2.771688079E0,6.647261143E0,-7.365108013E0,1.447657704E0
2.776442610E0,6.376872540E0,-7.570890903E0,2.143969059E0
2.781197194E0,6.094519138E0,-7.910671711E0,2.763710260E0
2.785951725E0,5.754738331E0,-8.384450912E0,3.196810961E0
2.790706256E0,5.407779217E0,-8.963513374E0,3.452843189E0
2.795460839E0,5.154139996E0,-9.554540634E0,3.546163082E0
2.800215371E0,5.008177757E0,-1.009771156E1,3.428914785E0
2.804969902E0,4.986642361E0,-1.062413216E1,3.153740168E0
2.809724485E0,5.048855782E0,-1.104287624E1,2.474178553E0
2.814479017E0,5.022534847E0,-1.141854954E1,1.473978758E0
2.819233548E0,4.864608288E0,-1.174875927E1,5.072783828E-1
2.823988131E0,4.613361835E0,-1.195214939E1,-1.674975902E-1
2.828742662E0,4.273581028E0,-1.220100307E1,-4.929214716E-1
2.833497194E0,3.957728624E0,-1.245464230E1,-4.474578202E-1
2.838251777E0,3.675375462E0,-1.279920864E1,-3.110669553E-1
2.843006308E0,3.541377544E0,-1.314377499E1,-3.493520916E-1
2.847760839E0,3.414557934E0,-1.350509071E1,-5.982056856E-1
2.852515423E0,3.443271875E0,-1.381855106E1,-9.571290612E-1
2.857269954E0,3.491128206E0,-1.402911949E1,-1.368694544E0
2.862024485E0,3.424129248E0,-1.446222019E1,-1.560120344E0
2.866779069E0,3.381058455E0,-1.460100365E1,-1.366301775E0
2.871533600E0,3.259024382E0,-1.451964760E1,-9.762716293E-1
2.876288183E0,2.840280533E0,-1.439761353E1,-4.618147612E-1
2.881042714E0,2.782852650E0,-1.439522076E1,9.332008660E-2
2.885797246E0,2.565105915E0,-1.445264912E1,3.565305769E-1
2.890551829E0,2.230110645E0,-1.448375511E1,6.340979934E-1
2.895306360E0,1.974078655E0,-1.448614788E1,7.082754970E-1
2.900060892E0,1.576870084E0,-1.458186150E1,7.872386575E-1
2.904815475E0,1.194018483E0,-1.458186150E1,9.332008362E-1
2.909570006E0,9.212366939E-1,-1.454836178E1,9.355936646E-1
2.914324537E0,7.178468108E-1,-1.439282799E1,7.226324677E-1
2.919079121E0,4.211367965E-1,-1.408415413E1,5.551348329E-1
2.923833652E0,2.632104978E-2,-1.379462242E1,6.269195080E-1
2.928588183E0,-2.608176768E-1,-1.322991657E1,7.034898400E-1
2.933342767E0,-6.580262184E-1,-1.252403355E1,7.609176040E-1
2.938097298E0,-9.786644578E-1,-1.170090294E1,9.332008362E-1
2.942851829E0,-9.690931439E-1,-1.085145092E1,1.143769264E0
2.947606412E0,-7.274180651E-1,-1.010249710E1,1.256231904E0
2.952360944E0,-2.560320199E-1,-9.224330902E0,1.296909928E0
2.957115475E0,3.780659735E-1,-8.389236450E0,1.337587833E0
2.961870058E0,1.146162033E0,-7.688138962E0,1.438086390E0
2.966624589E0,2.031506538E0,-6.958328247E0,1.387837172E0
2.971379173E0,2.902493954E0,-6.269195557E0,1.232303619E0
2.976133704E0,3.503092289E0,-5.670989513E0,9.332008362E-1
2.980888235E0,3.933800459E0,-5.257031441E0,6.843472719E-1
2.985642819E0,4.134797573E0,-5.161318302E0,6.747759581E-1
2.990397350E0,4.201796532E0,-5.257031441E0,9.475577474E-1
2.995151881E0,4.144368649E0,-5.496313572E0,1.366301775E0
2.999906464E0,3.924229145E0,-5.850451469E0,1.797009826E0
3.004660996E0,3.725624800E0,-6.221338749E0,2.100898266E0
3.009415527E0,3.598805189E0,-6.518048763E0,2.136790514E0
3.014170110E0,3.436093330E0,-6.884150982E0,1.883151412E0
3.018924642E0,3.424129248E0,-7.144968510E0,1.567298889E0
3.023679225E0,3.373879910E0,-7.401000500E0,1.282552958E0
3.028433756E0,3.361915827E0,-7.635497093E0,1.062413216E0
3.033188287E0,3.383451223E0,-7.841279984E0,1.012163997E0
3.037942871E0,3.388236761E0,-8.020741463E0,1.076770186E0
3.042697402E0,3.464807272E0,-8.149953842E0,1.095912814E0
3.047451933E0,3.622733593E0,-8.255238533E0,1.052842021E0
3.052206517E0,3.821337700E0,-8.303094864E0,1.071984529E0
3.056961048E0,4.084548473E0,-8.350951195E0,1.055234790E0
3.061715631E0,4.390829563E0,-8.405985832E0,9.882357717E-1
3.066470162E0,4.658825874E0,-8.456234932E0,1.060020447E0
3.071224694E0,4.953142643E0,-8.389236450E0,1.083948612E0
3.075979277E0,5.257031441E0,-8.262416840E0,1.172483087E0
3.080733808E0,5.541777134E0,-8.070990562E0,1.294517040E0
3.085488339E0,5.759523869E0,-7.800601959E0,1.438086390E0
3.090242923E0,5.895915031E0,-7.482356548E0,1.600798368E0
3.094997454E0,5.943771362E0,-7.087540627E0,1.677368641E0
3.099751985E0,5.871986866E0,-6.673582554E0,1.715653777E0
3.104506569E0,5.613562107E0,-6.302694798E0,1.758724689E0
3.109261100E0,5.204389095E0,-5.924628735E0,1.648654819E0
3.114015631E0,4.651647091E0,-5.666203976E0,1.524227977E0
3.118770214E0,4.027120590E0,-5.489135265E0,1.380658627E0
3.123524746E0,3.342773199E0,-5.259424210E0,1.277767301E0
3.128279329E0,2.670390129E0,-5.096712112E0,1.280160069E0
3.133033860E0,2.041077614E0,-5.070391178E0,1.373480201E0
3.137788392E0,1.457229018E0,-5.091926575E0,1.399801254E0
3.142542975E0,9.834501147E-1,-5.108676434E0,1.351944804E0
3.147297506E0,6.675975323E-1,-5.163711071E0,1.222732425E0
3.152052089E0,4.713860750E-1,-5.268995285E0,1.014556766E0
3.156806621E0,3.469592929E-1,-5.417350292E0,8.398807645E-1
3.161561152E0,2.297109663E-1,-5.603990555E0,6.652047038E-1
3.166315735E0,9.810572863E-2,-5.764309883E0,4.881358147E-1
3.171070267E0,2.153540403E-2,-5.876772404E0,3.349951804E-1
3.175824798E0,-1.770688742E-1,-6.013163090E0,3.349951804E-1
3.180579381E0,-3.086741269E-1,-6.051448345E0,3.517449200E-1
3.185333912E0,-3.589234054E-1,-5.984449387E0,4.570291340E-1
3.190088496E0,-3.924229145E-1,-5.845665932E0,6.843472719E-1
3.194843027E0,-3.756731451E-1,-5.618347645E0,8.685946465E-1
3.199597558E0,-3.852444589E-1,-5.292923450E0,1.021735311E0
3.204352142E0,-4.019941986E-1,-5.012963295E0,1.318445325E0
3.209106673E0,-4.905286431E-1,-4.811966419E0,1.890329838E0
3.213861204E0,-5.934200287E-1,-4.704289436E0,2.711068153E0
3.218615787E0,-6.699903607E-1,-4.756931305E0,3.627519131E0
3.223370319E0,-8.614161611E-1,-4.737788677E0,4.328616142E0
3.228124902E0,-9.762716293E-1,-4.788038254E0,4.991427898E0
3.232879433E0,-1.095912814E0,-4.800002098E0,5.374279499E0
3.237633964E0,-1.064806104E0,-4.890929699E0,5.881557941E0
3.242388548E0,-9.714859724E-1,-4.929214478E0,6.364908218E0
3.247143079E0,-8.135597110E-1,-4.986642361E0,6.967899323E0
3.251897610E0,-5.862415433E-1,-5.053641319E0,7.314858913E0
3.256652194E0,-5.096712112E-1,-5.072783947E0,6.989434719E0
3.261406725E0,-4.761717021E-1,-4.936393261E0,5.962913990E0
3.266161308E0,-5.000999570E-1,-4.627718925E0,4.012763500E0
3.270915839E0,-6.843472719E-1,-3.940979004E0,5.312066078E-1
3.275670371E0,5.240281820E-1,-3.364308596E0,-1.825723648E0
3.280424954E0,3.694518089E0,-3.254238844E0,2.895315289E-1
3.285179485E0,6.620940208E0,-3.625126362E0,5.740381718E0
3.289934069E0,7.982456207E0,-4.474578381E0,9.549755096E0
3.294688600E0,8.683553696E0,-5.644668579E0,1.015753174E1
3.299443131E0,9.267401695E0,-6.960721016E0,8.580661774E0
3.304197714E0,1.046142101E1,-8.396414757E0,4.307080746E0
3.308952246E0,1.162672520E1,-1.004985523E1,-7.896314561E-2
3.313706777E0,1.244267750E1,-1.201914787E1,-2.124826431E0
3.318461360E0,1.261974621E1,-1.440239906E1,-6.747759581E-1
3.323215892E0,1.207657623E1,-1.671147346E1,2.445464849E0
3.327970475E0,1.267238903E1,-1.917608070E1,4.426722050E0
3.332725006E0,1.364866066E1,-2.163590240E1,4.077369690E0
3.337479589E0,1.517049599E1,-2.408375931E1,1.629512191E0
3.342234121E0,1.674736595E1,-2.628515625E1,-1.052842021E0
3.346988652E0,1.811845398E1,-2.681397057E1,-2.612962246E0
3.351743235E0,1.916890144E1,-2.533042145E1,-3.148954630E0
3.356497767E0,1.920957947E1,-2.202832603E1,-3.314059258E0
3.361252350E0,1.790309906E1,-1.796052742E1,-3.802195072E0
3.366006881E0,1.470389557E1,-1.382333660E1,-4.718646049E0
3.370761412E0,1.077727318E1,-1.032502937E1,-5.477170944E0
3.375515996E0,7.030112743E0,-7.764709473E0,-5.558526993E0
3.380270527E0,3.986442566E0,-6.020341873E0,-4.541577339E0
3.385025110E0,1.904686809E0,-5.020142078E0,-2.421536446E0
3.389779642E0,6.053841114E-1,-4.577469826E0,-8.614161611E-2
3.394534173E0,1.674975827E-2,-4.563112736E0,1.567298889E0
3.399288756E0,-2.105683982E-1,-4.821537495E0,2.517249346E0
3.404043287E0,-2.201396823E-1,-5.010570526E0,2.545963287E0
3.408797871E0,8.614161611E-2,-5.192425251E0,2.007578135E0
3.413552402E0,3.876372576E-1,-5.383851051E0,1.244267821E0
3.418306933E0,6.412764788E-1,-5.737988472E0,6.747759581E-1
3.423061517E0,7.489534616E-1,-6.187839508E0,3.230310678E-1
3.427816048E0,8.566305041E-1,-6.850651264E0,2.033899277E-1
3.432570631E0,9.379864931E-1,-7.625925541E0,8.853443712E-2
3.437325162E0,1.057627559E0,-8.224131584E0,1.196411345E-2
3.442079694E0,1.246660590E0,-8.920442581E0,-1.435693540E-2
3.446834277E0,1.258624673E0,-9.566504478E0,0.000000000E0
3.451588808E0,1.265803218E0,-1.021017456E1,6.460621208E-2
3.456343392E0,1.201196909E0,-1.082991505E1,1.818545163E-1
3.461097923E0,9.906286001E-1,-1.145922756E1,3.972085714E-1
3.465852506E0,8.111668825E-1,-1.207418346E1,7.010970116E-1
3.470607037E0,7.322037220E-1,-1.264128208E1,1.253839016E0
3.475361569E0,7.345965505E-1,-1.314138222E1,1.899901152E0
3.480116152E0,7.274180651E-1,-1.365823174E1,2.151147604E0
3.484870683E0,9.643075466E-1,-1.398604870E1,2.486142635E0
3.489625267E0,1.210768223E0,-1.410329628E1,2.840280533E0
3.494379798E0,1.529013634E0,-1.402194023E1,3.259024382E0
3.499134329E0,2.026720762E0,-1.371087360E1,3.651447296E0
3.503888912E0,2.641676188E0,-1.321316624E1,3.967299938E0
3.508643444E0,3.244667530E0,-1.262931824E1,4.132404804E0
3.513398027E0,3.730410576E0,-1.198325539E1,4.086941242E0
3.518152558E0,4.067798615E0,-1.123190975E1,3.940979004E0
3.522907142E0,4.259224415E0,-1.049731255E1,3.842873096E0
3.527661673E0,4.230510235E0,-9.829715729E0,3.637090445E0
3.532416204E0,4.151547432E0,-9.159725189E0,3.366701365E0
3.537170787E0,4.027120590E0,-8.516056061E0,3.115455151E0
3.541925319E0,3.895515203E0,-7.960920811E0,2.830709219E0
3.546679902E0,3.771088600E0,-7.398607731E0,2.536391973E0
3.551434433E0,3.696911097E0,-6.910471916E0,2.333002090E0
3.556189017E0,3.589233875E0,-6.465406895E0,2.189432621E0
3.560943548E0,3.546163082E0,-6.099305153E0,2.110469580E0
3.565698079E0,3.476771355E0,-5.718846321E0,2.048256159E0
3.570452662E0,3.393022537E0,-5.381458282E0,1.993221283E0
3.575207194E0,3.373879910E0,-5.091926575E0,1.940579176E0
3.579961777E0,3.328416348E0,-4.838287354E0,1.902294040E0
3.584716308E0,3.270988464E0,-4.656432629E0,1.840080619E0
3.589470892E0,3.218346357E0,-4.496113777E0,1.787438512E0
3.594225423E0,3.182454109E0,-4.354937077E0,1.756331801E0
3.598979954E0,3.201596737E0,-4.244867325E0,1.828116536E0
3.603734537E0,3.270988464E0,-4.223331928E0,2.002792597E0
3.608489069E0,3.323630571E0,-4.242474556E0,2.333002090E0
3.613243652E0,3.428914785E0,-4.304687977E0,2.766103029E0
3.617998183E0,3.637090445E0,-4.450650215E0,3.170490026E0
3.622752767E0,3.981656790E0,-4.601397991E0,3.361915827E0
3.627507298E0,4.398007870E0,-4.828716278E0,3.261417150E0
3.632261829E0,4.713860512E0,-5.084748268E0,3.031706333E0
3.637016412E0,4.929214478E0,-5.369493961E0,2.801995277E0
3.641770944E0,5.173282623E0,-5.668596745E0,2.737389088E0
3.646525527E0,5.237888813E0,-5.986842155E0,2.907279491E0
3.651280058E0,5.161318302E0,-6.257231236E0,2.928814888E0
3.656034642E0,5.175675392E0,-6.510870457E0,2.907279491E0
3.660789173E0,4.962714195E0,-6.790830612E0,2.880958557E0
3.665543704E0,4.677968502E0,-7.034898758E0,2.825923443E0
3.670298287E0,4.527220249E0,-7.259823799E0,2.828316450E0
3.675052819E0,4.484149456E0,-7.542177200E0,2.818745136E0
3.679807402E0,4.512863636E0,-7.817351341E0,2.830709219E0
3.684561933E0,4.505684853E0,-8.090133667E0,2.758924484E0
3.689316517E0,4.599005222E0,-8.408378601E0,2.636890650E0
3.694071048E0,4.759324074E0,-8.798408508E0,2.478964329E0
3.698825631E0,4.893322468E0,-9.193224907E0,2.292324066E0
3.703580162E0,4.898108006E0,-9.655039787E0,2.038684845E0
3.708334694E0,4.852644444E0,-1.016949654E1,1.627119422E0
3.713089277E0,4.548755646E0,-1.080120182E1,2.057827413E-1
3.717843808E0,3.022135019E0,-1.162911797E1,-5.352744102E0
3.722598392E0,1.864008784E0,-1.229432297E1,-9.485149384E0
3.727352923E0,2.179861546E0,-1.255274773E1,-8.841479301E0
3.732107506E0,3.086741209E0,-1.262692547E1,-5.970092297E0
3.736862037E0,3.840480328E0,-1.269870949E1,-3.026920557E0
3.741616621E0,4.079762459E0,-1.269392395E1,-7.513462901E-1
3.746371152E0,4.161118507E0,-1.265563869E1,9.978070259E-1
3.751125735E0,4.084548473E0,-1.275374508E1,2.232503414E0
3.755880267E0,3.981656790E0,-1.311506081E1,3.419343472E0
3.760634850E0,3.735196114E0,-1.362473202E1,3.503092289E0
3.765389381E0,3.433700562E0,-1.411765385E1,2.596212626E0
3.770143912E0,3.225524902E0,-1.442872047E1,1.275374413E0
3.774898496E0,3.488735437E0,-1.468714523E1,4.307080805E-2
3.779653027E0,4.259224415E0,-1.475414467E1,-7.752745152E-1
3.784407610E0,5.206781864E0,-1.459382534E1,-1.170090318E0
3.789162142E0,6.061019897E0,-1.427079391E1,-9.978070259E-1
3.793916725E0,6.644868374E0,-1.386640739E1,-4.594219327E-1
3.798671256E0,6.972685337E0,-1.348594856E1,1.770688742E-1
3.803425839E0,7.185646534E0,-1.315095329E1,7.680960894E-1
3.808180371E0,7.322037220E0,-1.283749390E1,1.289731383E0
3.812934954E0,7.499105930E0,-1.260538960E1,1.706082582E0
3.817689485E0,7.637889862E0,-1.234935760E1,1.966900229E0
3.822444069E0,7.850851059E0,-1.208614731E1,2.067398787E0
3.827198600E0,8.212167740E0,-1.182772255E1,2.055434704E0
3.831953183E0,8.638090134E0,-1.148554897E1,1.873580098E0
3.836707714E0,9.236295700E0,-1.114816093E1,1.519442320E0
3.841462246E0,9.769894600E0,-1.075334454E1,1.021735311E0
3.846216829E0,1.010488987E1,-1.034177971E1,4.833501875E-1
3.850971360E0,1.043509960E1,-1.001396275E1,-1.196411327E-1
3.855725944E0,1.056191921E1,-9.710074425E0,-6.436693072E-1
3.860480475E0,1.049252701E1,-9.511469841E0,-1.095912814E0
3.865235058E0,1.035613632E1,-9.367900848E0,-1.505085468E0
3.869989589E0,1.014796066E1,-9.298508644E0,-1.813759565E0
3.874744173E0,9.856036186E0,-9.260223389E0,-2.036292076E0
3.879498704E0,9.415757179E0,-9.255437851E0,-2.148754835E0
3.884253287E0,8.865407944E0,-9.377471924E0,-2.170290232E0
3.889007819E0,8.250452042E0,-9.585647583E0,-2.067398787E0
3.893762402E0,7.645068169E0,-9.889535904E0,-1.820937991E0
3.898516933E0,7.087540627E0,-1.031545830E1,-1.320838094E0
3.903271517E0,6.541976929E0,-1.088734341E1,-5.168496966E-1
3.908026048E0,5.977271080E0,-1.146162033E1,4.953143001E-1
3.912780631E0,5.477170944E0,-1.203350544E1,1.634297848E0
3.917535162E0,4.979464054E0,-1.260538960E1,2.579462767E0
3.922289694E0,4.548755646E0,-1.319163132E1,3.101098061E0
3.927044277E0,4.213760853E0,-1.375394440E1,3.158525944E0
3.931798860E0,4.015156269E0,-1.432822227E1,2.897708178E0
3.936553392E0,3.802195072E0,-1.482832146E1,2.483749866E0
3.941307975E0,3.689732552E0,-1.528774357E1,1.959721804E0
3.946062506E0,3.605983734E0,-1.566341686E1,1.421336651E0
3.950817037E0,3.457628727E0,-1.598644829E1,9.140582681E-1
3.955571621E0,3.235096216E0,-1.616830254E1,5.335994363E-1
3.960326152E0,3.038884640E0,-1.625205231E1,3.613162339E-1
3.965080735E0,2.845066071E0,-1.633340645E1,4.570291340E-1
3.969835267E0,2.677568436E0,-1.629751587E1,7.274180651E-1
3.974589850E0,2.443071842E0,-1.622333717E1,1.093519926E0
3.979344381E0,2.108076811E0,-1.594337749E1,1.619940877E0
3.984098964E0,1.751546144E0,-1.543609905E1,2.187039852E0
3.988853496E0,1.483550072E0,-1.474696636E1,2.641676188E0
3.993608079E0,1.373480201E0,-1.393340588E1,3.120240688E0
3.998362610E0,1.373480201E0,-1.319402409E1,3.426522017E0
4.003117194E0,1.387837172E0,-1.242114258E1,3.515056372E0
4.007871725E0,1.502692580E0,-1.164108181E1,3.172882795E0
4.012626308E0,1.706082582E0,-1.092562866E1,1.414158225E0
4.017380839E0,2.665604353E0,-9.724431038E0,-5.596812248E0
4.022135423E0,3.627519131E0,-8.389236450E0,-8.886942863E0
4.026889954E0,3.531806231E0,-7.798209190E0,-6.565905571E0
4.031644537E0,3.254238844E0,-7.566105366E0,-3.952943087E0
4.036399069E0,3.062813044E0,-7.463213921E0,-1.947757602E0
4.041153652E0,2.921636343E0,-7.444071293E0,-7.154539824E-1
4.045908183E0,2.816352367E0,-7.532605648E0,-2.153540403E-2
4.050662767E0,2.656033039E0,-7.621140003E0,5.024927482E-2
4.055417298E0,2.464607239E0,-7.671389580E0,-4.043870270E-1
4.060171881E0,2.397608280E0,-7.752745152E0,-1.081555843E0
4.064926412E0,2.498106956E0,-7.769495010E0,-1.636690736E0
4.069680996E0,2.639283419E0,-7.841279984E0,-1.698904037E0
4.074435527E0,2.756531715E0,-7.915457249E0,-1.332802176E0
4.079190110E0,2.845066071E0,-8.037490845E0,-6.508477330E-1
4.083944642E0,2.859423161E0,-8.200202942E0,8.853443712E-2
4.088699225E0,2.902493954E0,-8.334200859E0,7.489534616E-1
4.093453756E0,2.976671457E0,-8.389236450E0,1.196411371E0
4.098208339E0,3.093919754E0,-8.422736168E0,1.651047587E0
4.102962923E0,3.256631613E0,-8.405985832E0,2.167897224E0
4.107717454E0,3.474378586E0,-8.465806961E0,2.694318295E0
4.112472037E0,3.555734396E0,-8.592626572E0,3.113062143E0
4.117226569E0,3.725624800E0,-8.657232285E0,3.342773199E0
4.121981100E0,3.809373617E0,-8.697910309E0,3.311666489E0
4.126735683E0,3.739981890E0,-8.642875671E0,2.945564747E0
4.131490267E0,3.572484255E0,-8.549555779E0,2.282752752E0
4.136244798E0,3.251846075E0,-8.508877754E0,1.497906923E0
4.140999381E0,2.794816732E0,-8.415556908E0,8.183453679E-1
4.145753912E0,2.280359983E0,-8.322237015E0,4.953143001E-1
4.150508496E0,1.797009826E0,-8.197810173E0,5.790630579E-1
4.155263027E0,1.328016520E0,-8.066205025E0,8.781659007E-1
4.160017610E0,1.033699393E0,-7.872386456E0,1.143769264E0
4.164772142E0,8.781659007E-1,-7.657032490E0,1.182054400E0
4.169526725E0,8.231309652E-1,-7.374679565E0,9.906286001E-1
4.174281256E0,9.284151793E-1,-7.125825882E0,7.728816867E-1
4.179035839E0,1.115055323E0,-6.865008354E0,5.455635786E-1
4.183790371E0,1.337587833E0,-6.630511761E0,4.426721931E-1
4.188544954E0,1.524227977E0,-6.384050846E0,3.708875179E-1
4.193299485E0,1.588834286E0,-6.171089649E0,2.799602449E-1
4.198054069E0,1.521835208E0,-5.982056618E0,2.344966233E-1
4.202808600E0,1.320838094E0,-5.812166214E0,2.464607358E-1
4.207563183E0,1.129412293E0,-5.630311489E0,2.608176768E-1
4.212317714E0,8.518448472E-1,-5.565705299E0,3.254238665E-1
4.217072298E0,5.742774606E-1,-5.503491879E0,4.283152521E-1
4.221826829E0,3.900300860E-1,-5.477170944E0,5.383850932E-1
4.226581412E0,3.517449200E-1,-5.501099110E0,7.226324677E-1
4.231335996E0,4.689932466E-1,-5.544169903E0,9.044869542E-1
4.236090527E0,6.795616150E-1,-5.625525951E0,1.002592683E0
4.240845110E0,9.092726111E-1,-5.714060307E0,1.115055323E0
4.245599642E0,1.095912814E0,-5.850451469E0,1.227517962E0
4.250354225E0,1.158126116E0,-5.974878311E0,1.387837172E0
4.255108756E0,1.110269666E0,-6.082555294E0,1.703689694E0
4.259863339E0,9.738788009E-1,-6.161518097E0,2.057827473E0
4.264617871E0,8.111668825E-1,-6.221338749E0,2.493321180E0
4.269372454E0,6.771687865E-1,-6.307480335E0,2.866601467E0
4.274126985E0,5.240281820E-1,-6.293123722E0,3.275774240E0
4.278881569E0,3.182454109E-1,-6.252445698E0,3.720839262E0
4.283636152E0,2.177468538E-1,-6.252445698E0,4.206582069E0
4.288390683E0,9.571290761E-2,-6.168696880E0,4.656432629E0
4.293145214E0,-7.417750359E-2,-6.027520180E0,4.960321426E0
4.297899798E0,-1.196411327E-1,-5.821737289E0,5.221138954E0
4.302654381E0,-2.057827413E-1,-5.592026711E0,5.448457241E0
4.307408912E0,-1.435693651E-1,-5.412564754E0,5.551348686E0
4.312163496E0,-2.297109663E-1,-5.201996326E0,5.379065514E0
4.316918027E0,-3.445664644E-1,-4.960321426E0,5.111069202E0
4.321672610E0,-4.977070987E-1,-4.725824833E0,4.634897232E0
4.326427142E0,-5.982056856E-1,-4.450650215E0,4.101297855E0
4.331181725E0,-7.465606928E-1,-4.065405846E0,3.436093330E0
4.335936256E0,-8.709874153E-1,-3.570091486E0,2.330609322E0
4.340690839E0,-5.431707501E-1,-2.912065268E0,9.978070259E-1
4.345445423E0,7.226324677E-1,-2.419143677E0,8.015955687E-1
4.350199954E0,2.656033039E0,-2.361716032E0,2.529213428E0
4.354954537E0,4.347758770E0,-2.675175667E0,4.821537495E0
4.359709069E0,5.678168297E0,-3.168097258E0,6.202196121E0
4.364463652E0,6.728617191E0,-3.823730469E0,6.592226505E0
4.369218183E0,7.568498135E0,-4.656432629E0,5.974878311E0
4.373972767E0,8.398807526E0,-5.644668579E0,4.570291042E0
4.378727298E0,9.025727272E0,-6.920042992E0,3.737588882E0
4.383481881E0,9.662218094E0,-8.544769287E0,3.388236761E0
4.388236412E0,1.036810017E1,-1.057149029E1,3.718446493E0
4.392990996E0,1.082991505E1,-1.293559933E1,4.170690060E0
4.397745579E0,1.125583744E1,-1.565145302E1,4.055834293E0
4.402500110E0,1.152144146E1,-1.858983994E1,3.347558975E0
4.407254694E0,1.171047401E1,-2.130569267E1,1.808973908E0
4.412009225E0,1.268913841E1,-2.363151550E1,-3.134597540E-1
4.416763808E0,1.388076401E1,-2.564388084E1,-2.624926329E0
4.421518392E0,1.492164230E1,-2.607937431E1,-4.125226021E0
4.426272923E0,1.598405552E1,-2.523231506E1,-4.197010994E0
4.431027506E0,1.601037598E1,-2.290888405E1,-2.943171740E0
4.435782037E0,1.473978710E1,-1.922872353E1,-1.342373490E0
4.440536621E0,1.236132145E1,-1.525185108E1,2.177468538E-1
4.445291152E0,9.702896118E0,-1.181336498E1,1.356730461E0
4.450045735E0,7.372286797E0,-9.095118523E0,1.813759565E0
4.454800267E0,5.498706341E0,-7.097112179E0,1.744367719E0
4.459554850E0,4.031906128E0,-5.618347645E0,1.395015597E0
4.464309433E0,2.835494757E0,-4.682754040E0,7.609176040E-1
4.469063964E0,1.832902193E0,-4.074976921E0,8.374879509E-2
4.473818548E0,9.475577474E-1,-3.840480328E0,-5.072783828E-1
4.478573079E0,4.713860750E-1,-3.914657831E0,-7.944171429E-1
4.483327662E0,3.972085714E-1,-4.213760853E0,-8.135597110E-1
4.488082194E0,7.537391186E-1,-4.634897232E0,-4.689932466E-1
4.492836777E0,1.253839016E0,-5.053641319E0,-1.196411327E-1
4.497591360E0,1.756331801E0,-5.541777134E0,9.571290761E-2
4.502345892E0,2.175075769E0,-6.228517532E0,1.962114573E-1
4.507100475E0,2.452643156E0,-6.939185619E0,2.177468538E-1
4.511855006E0,2.524427891E0,-7.647460938E0,1.244267747E-1
4.516609589E0,2.464607239E0,-8.417949677E0,1.076770201E-1
4.521364121E0,2.409572363E0,-9.181260109E0,1.435693651E-1
4.526118704E0,2.359323025E0,-9.836894035E0,2.321037948E-1
4.530873287E0,2.352144718E0,-1.046620655E1,3.828516304E-1
4.535627819E0,2.352144718E0,-1.098544884E1,5.694918036E-1
4.540382402E0,2.268395901E0,-1.147358418E1,7.800601721E-1
4.545136933E0,2.210968018E0,-1.192104244E1,1.026520967E0
4.549891517E0,2.172683001E0,-1.208854008E1,1.167697430E0
4.554646100E0,2.103291035E0,-1.252164078E1,1.354337573E0
4.559400631E0,1.928615093E0,-1.258146191E1,1.483550072E0
4.564155214E0,1.785045743E0,-1.253121185E1,1.617548108E0
4.568909746E0,1.627119422E0,-1.228235817E1,1.741974831E0
4.573664329E0,1.552941918E0,-1.175593758E1,1.820937991E0
4.578418912E0,1.622333765E0,-1.101655579E1,1.849651933E0
4.583173444E0,1.780260086E0,-1.022931671E1,1.849651933E0
4.587928027E0,1.897508383E0,-9.475577354E0,1.794616938E0
4.592682558E0,2.029113531E0,-8.798408508E0,1.734796405E0
4.597437142E0,2.132004976E0,-8.226524353E0,1.672582984E0
4.602191673E0,2.218146563E0,-7.716853142E0,1.579262972E0
4.606946256E0,2.254039049E0,-7.274180889E0,1.500299811E0
4.611700839E0,2.256431818E0,-6.888936520E0,1.418943882E0
4.616455371E0,2.244467735E0,-6.558726788E0,1.359123230E0
4.621209954E0,2.213361025E0,-6.252445698E0,1.325623751E0
4.625964485E0,2.170290232E0,-5.948556900E0,1.308874011E0
4.630719069E0,2.184647083E0,-5.714060307E0,1.395015597E0
4.635473652E0,2.227717876E0,-5.460421085E0,1.497906923E0
4.640228183E0,2.280359983E0,-5.271388054E0,1.617548108E0
4.644982767E0,2.335394859E0,-5.142175674E0,1.789831281E0
4.649737298E0,2.457428932E0,-5.046463013E0,1.959721804E0
4.654491881E0,2.572284460E0,-5.010570526E0,2.163111687E0
4.659246464E0,2.699103832E0,-5.020142078E0,2.457428932E0
4.664000996E0,2.801995277E0,-5.053641319E0,2.835494757E0
4.668755579E0,2.926422119E0,-5.197210789E0,3.340380430E0
4.673510110E0,2.986242771E0,-5.410171986E0,3.869194269E0
4.678264694E0,3.146561861E0,-5.795416355E0,4.232903481E0
4.683019277E0,3.486342669E0,-6.159125328E0,4.352544308E0
4.687773808E0,4.005585194E0,-6.518048763E0,4.460221291E0
4.692528392E0,4.486542225E0,-6.860222340E0,4.565505505E0
4.697282975E0,4.733003139E0,-7.209574699E0,4.618147850E0
4.702037506E0,4.821537495E0,-7.594819069E0,4.658825874E0
4.706792089E0,4.922036171E0,-8.059026718E0,4.776073933E0
4.711546621E0,5.060820103E0,-8.403593063E0,4.773681164E0
4.716301204E0,5.156532764E0,-8.743373871E0,4.689932346E0
4.721055787E0,5.221138954E0,-9.035298347E0,4.677968502E0
4.725810319E0,5.259424210E0,-9.245866776E0,4.685146809E0
4.730564902E0,5.280959606E0,-9.458827972E0,4.627718925E0
4.735319433E0,5.158925533E0,-9.650253296E0,4.510470867E0
4.740074017E0,5.029713154E0,-9.745966911E0,4.307080746E0
4.744828600E0,4.811966419E0,-9.801001549E0,3.972085476E0
4.749583131E0,4.682754040E0,-9.801001549E0,3.634697676E0
4.754337714E0,4.512863636E0,-9.762716293E0,3.235096216E0
4.759092298E0,4.304687977E0,-9.810572624E0,2.715853691E0
4.763846829E0,4.180261135E0,-9.848857880E0,2.177468538E0
4.768601412E0,3.940979004E0,-9.963713646E0,1.555334687E0
4.773355944E0,3.505485058E0,-1.020538902E1,6.005984545E-1
4.778110527E0,2.218146563E0,-1.070788097E1,-3.165704250E0
4.782865110E0,9.236295223E-1,-1.137547874E1,-7.527820110E0
4.787619642E0,9.762716293E-1,-1.190190029E1,-8.209774017E0
4.792374225E0,1.873580098E0,-1.226800156E1,-6.479763508E0
4.797128808E0,2.909672260E0,-1.258385468E1,-4.268795490E0
4.801883339E0,3.536591768E0,-1.290449238E1,-2.474178553E0
4.806637923E0,3.840480328E0,-1.325862980E1,-1.117448211E0
4.811392506E0,3.838087559E0,-1.363669586E1,-4.785645287E-3
4.816147037E0,3.653840065E0,-1.413201046E1,1.734796405E0
4.820901621E0,3.364308596E0,-1.475893021E1,2.349751949E0
4.825656152E0,2.959921598E0,-1.531885052E1,1.643869162E0
4.830410735E0,2.639283419E0,-1.564906025E1,4.785645306E-1
4.835165319E0,2.691925526E0,-1.571366596E1,-7.800601721E-1
4.839919850E0,3.230310678E0,-1.555813313E1,-1.761117458E0
4.844674433E0,4.127619267E0,-1.519681644E1,-1.806581140E0
4.849429017E0,4.790431023E0,-1.463928890E1,-1.201196909E0
4.854183548E0,5.101497650E0,-1.401476192E1,-4.785645306E-1
4.858938131E0,5.245067120E0,-1.346680546E1,6.221338734E-2
4.863692662E0,5.479563713E0,-1.299781227E1,3.541377485E-1
4.868447246E0,5.783452511E0,-1.263171101E1,5.288137794E-1
4.873201829E0,6.137589931E0,-1.229432297E1,6.628118753E-1
4.877956360E0,6.546762943E0,-1.199761295E1,8.638089895E-1
4.882710944E0,6.920042992E0,-1.171765232E1,1.069591761E0
4.887465527E0,7.326822758E0,-1.142572784E1,1.268195987E0
4.892220058E0,7.702496052E0,-1.112901783E1,1.399801254E0
4.896974642E0,8.137989998E0,-1.090409279E1,1.347159147E0
4.901729225E0,8.592626572E0,-1.066002464E1,1.179661512E0
4.906483756E0,9.049654961E0,-1.044945621E1,9.260223508E-1
4.911238339E0,9.420542717E0,-1.031306553E1,6.053841114E-1
4.915992923E0,9.609575272E0,-1.009292603E1,3.804588020E-1
4.920747454E0,9.530612946E0,-9.841679573E0,1.794617027E-1
4.925502037E0,9.262616158E0,-9.554540634E0,-4.785645381E-2
4.930256621E0,8.827122688E0,-9.272188187E0,-3.086741269E-1
4.935011152E0,8.240880966E0,-9.040083885E0,-5.838487148E-1
4.939765735E0,7.647460938E0,-8.939585686E0,-7.968099117E-1
4.944520319E0,7.190432072E0,-8.906085968E0,-8.997012973E-1
4.949274850E0,6.843472958E0,-8.977870941E0,-8.063812256E-1
4.954029433E0,6.625725746E0,-9.198010445E0,-4.713860750E-1
4.958783964E0,6.367300987E0,-9.535398483E0,1.387837082E-1
4.963538548E0,6.058627129E0,-9.980463028E0,9.810572863E-1
4.968293131E0,5.781059742E0,-1.055474091E1,1.785045743E0
4.973047714E0,5.467599869E0,-1.124148083E1,2.364108801E0
4.977802246E0,5.039284706E0,-1.200479126E1,2.691925526E0
4.982556829E0,4.603790760E0,-1.267717457E1,2.770888567E0
4.987311360E0,4.268795490E0,-1.327538013E1,2.679961443E0
4.992065944E0,4.053441525E0,-1.376351547E1,2.378465652E0
4.996820527E0,3.969692707E0,-1.417986679E1,1.938186288E0
5.001575058E0,3.998406649E0,-1.454118347E1,1.581655741E0
5.006329642E0,3.960121393E0,-1.480678654E1,1.418943882E0
5.011084225E0,3.929014683E0,-1.506760406E1,1.421336651E0
5.015838756E0,3.857230186E0,-1.518963814E1,1.586441398E0
5.020593339E0,3.699303865E0,-1.516092396E1,1.866401672E0
5.025347923E0,3.498306751E0,-1.497189140E1,2.222932339E0
5.030102454E0,3.321237803E0,-1.466561031E1,2.596212626E0
5.034857037E0,2.974278450E0,-1.423250866E1,2.883351326E0
5.039611621E0,2.620140791E0,-1.376112270E1,3.036491871E0
5.044366152E0,2.285145521E0,-1.326102352E1,3.127419233E0
5.049120735E0,1.919043779E0,-1.269392395E1,3.125026464E0
5.053875319E0,1.593619823E0,-1.211246777E1,3.079562664E0
5.058629902E0,1.385444283E0,-1.150469112E1,2.935993433E0
5.063384433E0,1.277767301E0,-1.092323494E1,2.610569477E0
5.068139017E0,1.323230863E0,-1.015992451E1,-3.397808075E-1
5.072893548E0,1.887937069E0,-9.171689034E0,-6.240481377E0
5.077648131E0,2.143969059E0,-8.673981667E0,-7.022934437E0
5.082402714E0,2.179861546E0,-8.518448830E0,-5.670989513E0
5.087157298E0,2.304288149E0,-8.496912956E0,-3.656233072E0
5.091911829E0,2.474178553E0,-8.575876236E0,-1.864008784E0
5.096666412E0,2.512463808E0,-8.752944946E0,-5.024927258E-1
5.101420996E0,2.500499725E0,-8.865407944E0,3.756731451E-1
5.106175527E0,2.359323025E0,-8.977870941E0,8.159525394E-1
5.110930110E0,2.313859463E0,-9.119047165E0,6.269195080E-1
5.115684694E0,2.397608280E0,-9.221938133E0,-8.614161611E-2
5.120439225E0,2.591426849E0,-9.262616158E0,-1.095912814E0
5.125193808E0,2.794816732E0,-9.339186668E0,-2.009970903E0
5.129948392E0,2.931207657E0,-9.396614075E0,-2.352144718E0
5.134702923E0,2.974278450E0,-9.425328255E0,-2.098505497E0
5.139457506E0,2.828316450E0,-9.482755661E0,-1.287338614E0
5.144212089E0,2.816352367E0,-9.540184021E0,-2.105683982E-1
5.148966621E0,2.876172781E0,-9.516255379E0,6.699903607E-1
5.153721204E0,3.096312523E0,-9.418149948E0,1.241874933E0
5.158475787E0,3.428914785E0,-9.334401131E0,1.564906001E0
5.163230319E0,3.787838221E0,-9.186046600E0,1.761117458E0
5.167984902E0,4.015156269E0,-9.023334503E0,1.751546144E0
5.172739485E0,4.319045067E0,-8.817551613E0,1.785045743E0
5.177494069E0,4.460221291E0,-8.606983185E0,1.993221283E0
5.182248600E0,4.354937077E0,-8.408378601E0,2.088934183E0
5.187003183E0,4.132404804E0,-8.178668022E0,2.091326952E0
5.191757767E0,3.761517286E0,-7.886743546E0,1.931007862E0
5.196512298E0,3.127419233E0,-7.594819069E0,1.557727575E0
5.201266881E0,2.435893536E0,-7.355536938E0,1.162911773E0
5.206021464E0,1.655833244E0,-7.097112179E0,8.518448472E-1
5.210775996E0,1.050449133E0,-6.857829571E0,7.728816867E-1
5.215530579E0,6.987041831E-1,-6.599404812E0,9.523434043E-1
5.220285162E0,5.335994363E-1,-6.285944939E0,1.186840057E0
5.225039746E0,4.737788737E-1,-5.996413708E0,1.378265858E0
5.229794277E0,5.335994363E-1,-5.754738331E0,1.452443361E0
5.234548860E0,6.556333899E-1,-5.558526993E0,1.363908887E0
5.239303444E0,7.298108935E-1,-5.254638672E0,1.162911773E0
5.244057975E0,7.992027402E-1,-4.936393261E0,9.858429432E-1
5.248812558E0,8.303094506E-1,-4.725824833E0,7.585247755E-1
5.253567142E0,7.800601721E-1,-4.551148891E0,4.642075896E-1
5.258321725E0,6.364908218E-1,-4.462614059E0,2.297109663E-1
5.263076256E0,3.732803464E-1,-4.481756687E0,6.221338734E-2
5.267830839E0,-3.828516230E-2,-4.570291042E0,-1.196411345E-2
5.272585423E0,-4.187439680E-1,-4.625326157E0,-1.435693540E-2
5.277339954E0,-7.058826685E-1,-4.742574692E0,1.076770201E-1
5.282094537E0,-7.704889178E-1,-4.905286312E0,3.158525825E-1
5.286849121E0,-5.886343718E-1,-5.130211830E0,5.694918036E-1
5.291603652E0,-2.608176768E-1,-5.374279499E0,7.776673436E-1
5.296358235E0,1.483550072E-1,-5.682953835E0,9.834501147E-1
5.301112819E0,6.053841114E-1,-5.950950146E0,1.184447169E0
5.305867402E0,1.071984529E0,-6.178267956E0,1.342373490E0
5.310621933E0,1.514656782E0,-6.314659119E0,1.627119422E0
5.315376517E0,1.873580098E0,-6.465406895E0,1.916650891E0
5.320131100E0,2.208575249E0,-6.534798622E0,2.213361025E0
5.324885631E0,2.517249346E0,-6.489335060E0,2.388036966E0
5.329640214E0,2.715853691E0,-6.391229153E0,2.354537487E0
5.334394798E0,2.775674343E0,-6.214160442E0,2.139183521E0
5.339149381E0,2.761317253E0,-5.970092297E0,2.067398787E0
5.343903912E0,2.610569477E0,-5.754738331E0,2.158325911E0
5.348658496E0,2.342573404E0,-5.527420521E0,2.438286304E0
5.353413079E0,2.043470621E0,-5.383851051E0,2.830709219E0
5.358167610E0,1.720439434E0,-5.254638672E0,3.239881754E0
5.362922194E0,1.445264935E0,-5.168497086E0,3.483949661E0
5.367676777E0,1.064806104E0,-5.017749310E0,3.570091486E0
5.372431360E0,6.652047038E-1,-4.910071850E0,3.562912941E0
5.377185892E0,3.278166950E-1,-4.795216560E0,3.500699520E0
5.381940475E0,-1.148554832E-1,-4.584648132E0,3.287738323E0
5.386695058E0,-4.809573591E-1,-4.491328239E0,3.187239647E0
5.391449642E0,-6.628118753E-1,-4.453042984E0,3.282952785E0
5.396204173E0,-7.800601721E-1,-4.347758770E0,3.483949661E0
5.400958756E0,-7.992027402E-1,-4.218546391E0,3.491128206E0
5.405713339E0,-7.944171429E-1,-4.108476639E0,3.448057413E0
5.410467923E0,-6.891329288E-1,-3.976871252E0,3.440878868E0
5.415222454E0,-3.349951804E-1,-3.864408493E0,3.498306751E0
5.419977037E0,4.331009090E-1,-3.888336897E0,4.153940201E0
5.424731621E0,1.725225091E0,-4.086941242E0,5.261816978E0
5.429486152E0,3.376272678E0,-4.620540619E0,6.130411625E0
5.434240735E0,5.233103275E0,-5.563312531E0,6.630511761E0
5.438995319E0,6.903293133E0,-7.022934437E0,6.661618233E0
5.443749902E0,8.245666504E0,-8.831908226E0,6.005984783E0
5.448504433E0,9.425328255E0,-1.101177025E1,4.840680122E0
5.453259017E0,1.051167011E1,-1.373719501E1,3.419343472E0
5.458013600E0,1.180618668E1,-1.677607918E1,2.928814888E0
5.462768183E0,1.252881908E1,-1.951825523E1,3.541377544E0
5.467522714E0,1.306959724E1,-2.197568321E1,4.287938118E0
5.472277298E0,1.372283745E1,-2.462932396E1,4.498506546E0
5.477031881E0,1.449571991E1,-2.721357155E1,3.893122435E0
5.481786464E0,1.511306763E1,-2.910390091E1,2.490928411E0
5.486540996E0,1.650808334E1,-2.970210838E1,8.398807645E-1
5.491295579E0,1.782892227E1,-2.839562607E1,-1.100698471E0
5.496050162E0,1.807298851E1,-2.504328156E1,-2.502892494E0
5.500804746E0,1.628794289E1,-2.026002884E1,-2.349751949E0
5.505559277E0,1.363669586E1,-1.584527111E1,-1.445264935E0
5.510313860E0,1.119601727E1,-1.222253799E1,-6.436693072E-1
5.515068444E0,9.154939651E0,-9.355937004E0,-3.206382394E-1
5.519823027E0,7.334001541E0,-7.087540627E0,-3.852444589E-1
5.524577558E0,5.869594097E0,-5.335994720E0,-8.542376757E-1
5.529332142E0,4.445864677E0,-4.074976921E0,-1.624726534E0
5.534086725E0,3.199203968E0,-3.065205812E0,-2.280359983E0
5.538841308E0,2.170290232E0,-2.507678032E0,-2.452643156E0
5.543595839E0,1.411765337E0,-2.299502611E0,-2.254039049E0
5.548350423E0,9.332008362E-1,-2.474178553E0,-1.775474429E0
5.553105006E0,9.738788009E-1,-2.868994236E0,-1.105484009E0
5.557859589E0,1.201196909E0,-3.359523058E0,-3.876372576E-1
5.562614121E0,1.639083505E0,-3.826123476E0,2.009970993E-1
5.567368704E0,2.117648125E0,-4.319045067E0,4.737788737E-1
5.572123287E0,2.567498684E0,-4.742574692E0,5.982056856E-1
5.576877871E0,2.919243574E0,-5.278566837E0,5.838487148E-1
5.581632454E0,2.940778971E0,-5.977271080E0,4.259224236E-1
5.586386985E0,2.943171740E0,-6.747759819E0,2.560320199E-1
5.591141569E0,2.967100143E0,-7.642675400E0,2.105683982E-1
5.595896152E0,2.847458839E0,-8.616554260E0,1.722832322E-1
5.600650683E0,2.806781054E0,-9.518648148E0,1.316052526E-1
5.605405267E0,2.727817774E0,-1.041835022E1,5.503492057E-2
5.610159850E0,2.524427891E0,-1.120080280E1,7.417750359E-2
5.614914433E0,2.268395901E0,-1.201675510E1,2.057827413E-1
5.619669017E0,2.053041935E0,-1.257428265E1,3.038884699E-1
5.624423600E0,1.758724689E0,-1.325145149E1,5.072783828E-1
5.629178131E0,1.536192179E0,-1.371805191E1,7.322037220E-1
5.633932714E0,1.270588875E0,-1.425883007E1,1.179661512E0
5.638687298E0,7.848458290E-1,-1.443111324E1,1.519442320E0
5.643441829E0,4.115654826E-1,-1.445025635E1,1.986042738E0
5.648196412E0,1.339980662E-1,-1.427318668E1,2.488535643E0
5.652950996E0,6.221338734E-2,-1.389272785E1,2.931207657E0
5.657705579E0,3.732803464E-1,-1.315573883E1,3.144168854E0
5.662460162E0,1.007378340E0,-1.221296692E1,3.077169895E0
5.667214694E0,1.722832322E0,-1.123430252E1,2.813959360E0
5.671969277E0,2.251646042E0,-1.028674412E1,2.500499725E0
5.676723860E0,2.550748825E0,-9.415757179E0,2.213361025E0
5.681478444E0,2.737389088E0,-8.647661209E0,1.966900229E0
5.686232975E0,2.754138947E0,-8.013563156E0,1.741974831E0
5.690987558E0,2.667997360E0,-7.456035137E0,1.543370605E0
5.695742142E0,2.524427891E0,-6.994220734E0,1.406979680E0
5.700496725E0,2.373680115E0,-6.537191391E0,1.275374413E0
5.705251308E0,2.256431818E0,-6.195017815E0,1.196411371E0
5.710005839E0,2.160718918E0,-5.838487148E0,1.127019525E0
5.714760423E0,2.017149448E0,-5.553741455E0,1.048056364E0
5.719515006E0,1.938186288E0,-5.307280540E0,1.009771109E0
5.724269589E0,1.861616015E0,-5.048855782E0,9.882357717E-1
5.729024121E0,1.806581140E0,-4.847858906E0,1.014556766E0
5.733778704E0,1.780260086E0,-4.699503899E0,1.124626637E0
5.738533287E0,1.770688772E0,-4.608576298E0,1.249053478E0
5.743287871E0,1.730010748E0,-4.543970108E0,1.418943882E0
5.748042402E0,1.758724689E0,-4.496113777E0,1.653440475E0
5.752796985E0,1.818545222E0,-4.481756687E0,2.029113531E0
5.757551569E0,1.895115495E0,-4.546362877E0,2.538784742E0
5.762306152E0,1.907079697E0,-4.601397991E0,3.132204771E0
5.767060735E0,1.988435626E0,-4.701896667E0,3.620340586E0
5.771815267E0,2.191825628E0,-4.867001057E0,3.897907972E0
5.776569850E0,2.584248543E0,-5.120640278E0,4.084548473E0
5.781324433E0,3.024527788E0,-5.438885689E0,4.165904045E0
5.786079017E0,3.455235958E0,-5.824130535E0,4.376472473E0
5.790833600E0,3.711267948E0,-6.183053493E0,4.622933388E0
5.795588131E0,3.866801500E0,-6.453442574E0,4.974678040E0
5.800342714E0,4.005585194E0,-6.671189308E0,5.328815937E0
5.805097298E0,4.091726780E0,-6.958328247E0,5.596812248E0
5.809851881E0,4.185046673E0,-7.233502865E0,5.766702652E0
5.814606464E0,4.252045631E0,-7.422535896E0,5.881557941E0
5.819360996E0,4.393222332E0,-7.618747234E0,5.857629776E0
5.824115579E0,4.460221291E0,-7.834101200E0,5.654240131E0
5.828870162E0,4.505684853E0,-8.049455643E0,5.379065514E0
5.833624746E0,4.505684853E0,-8.281558990E0,4.967499733E0
5.838379329E0,4.462614059E0,-8.523234367E0,4.488935471E0
5.843133860E0,4.388436794E0,-8.776873589E0,4.003192425E0
5.847888444E0,4.402793884E0,-9.078369141E0,3.548556089E0
5.852643027E0,4.393222332E0,-9.394221306E0,3.127419233E0
5.857397610E0,4.328616142E0,-9.757930756E0,2.665604353E0
5.862152194E0,4.302295208E0,-1.013838959E1,2.285145521E0
5.866906725E0,4.187439442E0,-1.054516983E1,1.933400750E0
5.871661308E0,3.998406649E0,-1.097587776E1,1.631905079E0
5.876415892E0,3.696911097E0,-1.146640587E1,1.313659668E0
5.881170475E0,3.469592810E0,-1.204307652E1,8.685946465E-1
5.885925058E0,3.242274761E0,-1.266042423E1,2.608176768E-1
5.890679589E0,2.847458839E0,-1.358405399E1,-2.550748825E0
5.895434173E0,2.622533560E0,-1.463211060E1,-5.752345562E0
5.900188756E0,2.778067112E0,-1.490728474E1,-5.764309883E0
5.904943339E0,3.110669374E0,-1.486421394E1,-4.158725739E0
5.909697923E0,3.438486099E0,-1.470628834E1,-2.340180635E0
5.914452506E0,3.809373617E0,-1.456271839E1,-8.973084688E-1
5.919207037E0,4.228117466E0,-1.454836178E1,1.411765367E-1
5.923961621E0,4.601397991E0,-1.463450336E1,1.004985452E0
5.928716204E0,4.910071850E0,-1.485703564E1,1.485942841E0
5.933470787E0,5.271388054E0,-1.511067486E1,1.148554921E0
5.938225319E0,5.759523869E0,-1.525663757E1,1.244267747E-1
5.942979902E0,6.300302029E0,-1.520878029E1,-1.074377418E0
5.947734485E0,6.881757736E0,-1.487857151E1,-2.088934183E0
5.952489069E0,7.456035137E0,-1.447896957E1,-2.711068153E0
5.957243652E0,7.927421570E0,-1.395494175E1,-2.746960402E0
5.961998235E0,8.293522835E0,-1.350030518E1,-2.364108801E0
5.966752819E0,8.456234932E0,-1.308873940E1,-1.976471543E0
5.971507350E0,8.355736732E0,-1.270110226E1,-1.777867198E0
5.976261933E0,8.169096947E0,-1.232064342E1,-1.648654819E0
5.981016517E0,8.051848412E0,-1.196172047E1,-1.485942841E0
5.985771100E0,7.999206066E0,-1.165543938E1,-1.215553880E0
5.990525683E0,7.903493404E0,-1.135633659E1,-7.752745152E-1
5.995280214E0,7.838887215E0,-1.110748291E1,-3.110669553E-1
6.000034798E0,7.877171993E0,-1.093041420E1,1.028913707E-1
6.004789381E0,7.958528042E0,-1.074138069E1,3.708875179E-1
6.009543964E0,8.195417404E0,-1.065763187E1,4.307080805E-1
6.014298548E0,8.331808090E0,-1.058584690E1,3.326023519E-1
6.019053079E0,8.523234367E0,-1.052124119E1,1.627119333E-1
6.023807662E0,8.752944946E0,-1.039920712E1,-2.871387079E-2
6.028562246E0,8.944371223E0,-1.026042366E1,-3.086741269E-1
6.033316829E0,9.011369705E0,-9.990034103E0,-4.737788737E-1
6.038071412E0,9.061619759E0,-9.674181938E0,-6.053841114E-1
6.042825996E0,9.018548965E0,-9.315258980E0,-6.699903607E-1
6.047580527E0,8.987442017E0,-9.013762474E0,-5.910272002E-1
6.052335110E0,8.961120605E0,-8.882157326E0,-3.182454109E-1
6.057089694E0,8.757730484E0,-8.903693199E0,2.249253243E-1
6.061844277E0,8.303094864E0,-9.145368576E0,9.858429432E-1
6.066598860E0,7.534998417E0,-9.566504478E0,1.746760488E0
6.071353444E0,6.587440968E0,-1.009053326E1,2.344966173E0
6.076107975E0,5.558526993E0,-1.079162979E1,2.622533560E0
6.080862558E0,4.658825874E0,-1.156451225E1,2.656033039E0
6.085617142E0,3.979264021E0,-1.234696484E1,2.517249346E0
6.090371725E0,3.601198196E0,-1.304566860E1,2.277967215E0
6.095126308E0,3.359523058E0,-1.367498112E1,2.196611166E0
6.099880892E0,3.160918713E0,-1.415833187E1,2.227717876E0
6.104635423E0,3.062813044E0,-1.457707596E1,2.263610125E0
6.109390006E0,2.933600664E0,-1.486899948E1,2.210968018E0
6.114144589E0,2.842673302E0,-1.504367638E1,2.232503414E0
6.118899173E0,2.749353170E0,-1.513938904E1,2.289931297E0
6.123653756E0,2.703889608E0,-1.515853119E1,2.452643156E0
6.128408339E0,2.620140791E0,-1.516092396E1,2.646461725E0
6.133162871E0,2.445464849E0,-1.504367638E1,2.904886723E0
6.137917454E0,2.112862349E0,-1.487139320E1,3.194418192E0
6.142672037E0,1.710868239E0,-1.458664703E1,3.464807272E0
6.147426621E0,1.289731383E0,-1.419422436E1,3.785445452E0
6.152181204E0,9.643075466E-1,-1.368694592E1,4.232903481E0
6.156935787E0,7.633104324E-1,-1.309352589E1,4.673182487E0
6.161690319E0,6.556333899E-1,-1.239242840E1,5.015356064E0
6.166444902E0,6.628118753E-1,-1.169372463E1,5.307280540E0
6.171199485E0,7.872386575E-1,-1.101416302E1,5.529813290E0
6.175954069E0,1.050449133E0,-1.047577763E1,5.587240696E0
6.180708652E0,1.512263894E0,-1.000917721E1,5.539384365E0
6.185463235E0,2.088934183E0,-9.635896683E0,5.460421085E0
6.190217767E0,2.629712105E0,-9.305686951E0,4.943571568E0
6.194972350E0,3.519842148E0,-8.922835350E0,-6.221338734E-2
6.199726933E0,6.738188744E0,-8.252845764E0,-1.717089462E1
6.204481517E0,7.494320393E0,-7.898707390E0,-1.555334759E1
6.209236100E0,7.168896675E0,-7.735995770E0,-1.244985580E1
6.213990683E0,7.159325123E0,-7.819744587E0,-9.535398483E0
6.218745214E0,7.111468792E0,-7.898707390E0,-6.685546398E0
6.223499798E0,6.443871498E0,-8.013563156E0,-4.299902439E0
6.228254381E0,5.426921844E0,-8.185846329E0,-2.349751949E0
6.233008964E0,4.225724697E0,-8.472985268E0,-6.221339107E-1
6.237763548E0,3.235096216E0,-8.877371788E0,5.407779217E-1
6.242518131E0,2.644068956E0,-9.281759262E0,1.043270707E0
6.247272714E0,2.416750908E0,-9.602396965E0,1.232303619E0
6.252027298E0,2.325823545E0,-9.961320877E0,1.229910851E0
6.256781829E0,2.285145521E0,-1.009771156E1,1.349551916E0
6.261536412E0,2.172683001E0,-1.018385315E1,1.756331801E0
6.266290996E0,2.081755638E0,-1.024606609E1,2.385644197E0
6.271045579E0,1.885544300E0,-1.028435135E1,3.136990547E0
6.275800162E0,1.624726534E0,-1.035135078E1,3.859622955E0
6.280554746E0,1.301695466E0,-1.033699417E1,4.357329845E0
6.285309329E0,8.781659007E-1,-1.012403297E1,4.161118507E0
6.290063860E0,5.216353536E-1,-9.879964828E0,3.421736479E0
6.294818444E0,1.674975827E-2,-9.542576790E0,2.541177750E0
6.299573027E0,-5.742774606E-1,-9.221938133E0,1.840080619E0
6.304327610E0,-1.100698471E0,-8.810373306E0,1.588834286E0
6.309082194E0,-1.373480201E0,-8.405985832E0,1.880758643E0
6.313836777E0,-1.275374413E0,-7.977670670E0,2.423929453E0
6.318591360E0,-1.119840980E0,-7.401000500E0,2.888136864E0
6.323345892E0,-8.542376757E-1,-6.731009960E0,3.048455954E0
6.328100475E0,-3.708875179E-1,-6.151947021E0,2.845066071E0
6.332855058E0,2.033899277E-1,-5.620740414E0,2.127219439E0
6.337609642E0,8.183453679E-1,-5.273781300E0,1.067198873E0
6.342364225E0,1.538584948E0,-5.123033047E0,-3.110669367E-2
6.347118808E0,2.177468538E0,-5.161318302E0,-9.978070259E-1
6.351873339E0,2.548356056E0,-5.249852657E0,-1.600798368E0
6.356627923E0,2.562713146E0,-5.400600910E0,-1.794616938E0
6.361382506E0,2.294716835E0,-5.501099110E0,-1.686939955E0
6.366137089E0,1.926222205E0,-5.522634506E0,-1.313659668E0
6.370891673E0,1.502692580E0,-5.501099110E0,-7.561319470E-1
6.375646256E0,1.158126116E0,-5.472385406E0,-1.148554832E-1
6.380400839E0,9.092726111E-1,-5.453242779E0,4.953143001E-1
6.385155423E0,8.853443861E-1,-5.417350292E0,1.045663476E0
6.389909954E0,1.000199914E0,-5.388636589E0,1.500299811E0
6.394664537E0,1.272981644E0,-5.352744102E0,1.672582984E0
6.399419121E0,1.598405480E0,-5.345565796E0,1.770688772E0
6.404173704E0,1.919043779E0,-5.350351334E0,1.823330879E0
6.408928287E0,2.143969059E0,-5.371886730E0,1.899901152E0
6.413682871E0,2.165504456E0,-5.446064472E0,2.067398787E0
6.418437454E0,1.976471543E0,-5.596812248E0,2.297109842E0
6.423192037E0,1.749153376E0,-5.673382282E0,2.493321180E0
6.427946569E0,1.658226132E0,-5.776273727E0,2.730210543E0
6.432701152E0,1.751546144E0,-5.721239090E0,2.957528830E0
6.437455735E0,1.998006940E0,-5.666203976E0,3.134597778E0
6.442210319E0,2.325823545E0,-5.637490273E0,3.373879910E0
6.446964902E0,2.553141832E0,-5.489135265E0,3.457628727E0
6.451719485E0,2.627319336E0,-5.292923450E0,3.428914785E0
6.456474017E0,2.646461725E0,-5.070391178E0,3.323630571E0
6.461228652E0,2.663211584E0,-4.931607246E0,3.270988464E0
6.465983183E0,2.682354212E0,-4.711467743E0,3.314059258E0
6.470737767E0,2.550748825E0,-4.433900356E0,3.318845034E0
6.475492350E0,2.438286304E0,-4.264009953E0,3.381058455E0
6.480246933E0,2.404786825E0,-4.168296814E0,3.359523058E0
6.485001517E0,2.294716835E0,-4.010370731E0,3.084348440E0
6.489756100E0,2.065006018E0,-3.885943890E0,2.682354212E0
6.494510683E0,1.686939955E0,-3.773481369E0,2.203789711E0
6.499265267E0,1.251446247E0,-3.689732552E0,1.885544300E0
6.504019798E0,8.015955687E-1,-3.680161238E0,2.239681959E0
6.508774381E0,5.168496966E-1,-3.785445452E0,3.194418192E0
6.513528964E0,4.953143001E-1,-3.864408493E0,4.213760853E0
6.518283548E0,6.723831892E-1,-3.869194269E0,4.740181446E0
6.523038131E0,9.427721500E-1,-3.871587038E0,4.610969067E0
6.527792714E0,1.416550994E0,-3.998406649E0,3.905086517E0
6.532547298E0,2.627319336E0,-4.417150497E0,3.706482172E0
6.537301829E0,4.208974838E0,-5.082355499E0,4.491328239E0
6.542056412E0,5.548955917E0,-6.003592014E0,5.201996326E0
6.546810996E0,6.551548481E0,-7.137789726E0,5.271388054E0
6.551565579E0,7.290930748E0,-8.578269005E0,4.797609329E0
6.556320162E0,7.769495010E0,-1.029631615E1,4.072584152E0
6.561074746E0,8.257631302E0,-1.228714466E1,3.440878868E0
6.565829329E0,8.712266922E0,-1.442872047E1,3.373879910E0
6.570583912E0,9.300901413E0,-1.664925957E1,3.682554007E0
6.575338496E0,1.002592659E1,-1.882433510E1,4.158725739E0
6.580093079E0,1.078445148E1,-2.085584259E1,4.560719967E0
6.584847610E0,1.146162033E1,-2.275335121E1,4.677968502E0
6.589602194E0,1.216271782E1,-2.429193497E1,4.338187218E0
6.594356777E0,1.301456261E1,-2.525863647E1,3.572484255E0
6.599111360E0,1.432582951E1,-2.512224579E1,2.258824587E0
6.603865944E0,1.527099419E1,-2.388994217E1,3.708875179E-1
6.608620527E0,1.535235023E1,-2.118605232E1,-1.672582984E0
6.613375110E0,1.419422436E1,-1.761356735E1,-3.046063185E0
6.618129694E0,1.251206970E1,-1.418225956E1,-3.333201885E0
6.622884277E0,1.068156052E1,-1.128455162E1,-2.880958557E0
6.627638808E0,8.965906143E0,-8.992227554E0,-2.103291035E0
6.632393392E0,7.448856831E0,-7.161718369E0,-1.363908887E0
6.637147975E0,6.130411625E0,-5.737988472E0,-7.154539824E-1
6.641902558E0,4.972285271E0,-4.603790760E0,-1.938186288E-1
6.646657142E0,3.986442566E0,-3.742374659E0,2.536391914E-1
6.651411725E0,3.067598581E0,-3.091526747E0,5.838487148E-1
6.656166308E0,2.294716835E0,-2.646461725E0,8.494520187E-1
6.660920892E0,1.684547186E0,-2.464607239E0,8.925228715E-1
6.665675475E0,1.320838094E0,-2.560320139E0,8.518448472E-1
6.670430006E0,1.253839016E0,-2.830709219E0,8.685946465E-1
6.675184589E0,1.301695466E0,-3.223132133E0,7.657032609E-1
6.679939173E0,1.596012712E0,-3.768695593E0,6.388836503E-1
6.684693756E0,1.909472466E0,-4.352544308E0,5.431707501E-1
6.689448339E0,2.194218397E0,-5.027320385E0,3.637090325E-1
6.694202923E0,2.411965132E0,-5.809773445E0,1.363908947E-1
6.698957506E0,2.565105915E0,-6.625725746E0,-8.374879509E-2
6.703712089E0,2.632104874E0,-7.420143127E0,-2.081755698E-1
6.708466673E0,2.699103832E0,-8.216953278E0,-2.584248483E-1
6.713221256E0,2.782852650E0,-9.013762474E0,-2.679961324E-1
6.717975787E0,2.821137905E0,-9.817750931E0,-2.249253243E-1
6.722730371E0,2.758924484E0,-1.055713367E1,-1.435693651E-1
6.727484954E0,2.823530674E0,-1.128455162E1,-5.982056633E-2
6.732239537E0,2.845066071E0,-1.196411324E1,7.896314561E-2
6.736994121E0,2.864208698E0,-1.266042423E1,2.201396823E-1
6.741748704E0,2.758924484E0,-1.324905872E1,4.307080805E-1
6.746503287E0,2.629712105E0,-1.377308750E1,7.417750359E-1
6.751257871E0,2.335394859E0,-1.409372520E1,1.083948612E0
6.756012454E0,1.907079697E0,-1.414158154E1,1.447657704E0
6.760767037E0,1.471585870E0,-1.393101311E1,1.830509305E0
6.765521621E0,1.095912814E0,-1.341655636E1,2.141576290E0
6.770276152E0,1.071984529E0,-1.255992603E1,2.244467735E0
6.775030735E0,1.473978758E0,-1.155733299E1,2.160718918E0
6.779785319E0,1.952543259E0,-1.054995537E1,2.036292076E0
6.784539902E0,2.222932339E0,-9.657432556E0,1.806581140E0
6.789294485E0,2.292324066E0,-8.843872070E0,1.619940877E0
6.794049069E0,2.249253273E0,-8.152346611E0,1.426122308E0
6.798803652E0,2.155933142E0,-7.580461979E0,1.227517962E0
6.803558235E0,1.993221283E0,-7.106683254E0,1.064806104E0
6.808312819E0,1.854437590E0,-6.709474564E0,9.188438654E-1
6.813067402E0,1.706082582E0,-6.405586243E0,7.848458290E-1
6.817821985E0,1.581655741E0,-6.123233318E0,7.058826685E-1
6.822576517E0,1.452443361E0,-5.917450428E0,6.532405615E-1
6.827331100E0,1.325623751E0,-5.771488190E0,6.604190469E-1
6.832085683E0,1.222732425E0,-5.639883041E0,6.843472719E-1
6.836840267E0,1.136590719E0,-5.632704735E0,7.345965505E-1
6.841594850E0,1.148554921E0,-5.666203976E0,8.111668825E-1
6.846349433E0,1.160519004E0,-5.735595703E0,9.140582681E-1
6.851104017E0,1.191625714E0,-5.850451469E0,1.091127157E0
6.855858600E0,1.270588875E0,-6.020341873E0,1.253839016E0
6.860613183E0,1.397408366E0,-6.264409542E0,1.440479279E0
6.865367767E0,1.596012712E0,-6.601797581E0,1.667797327E0
6.870122298E0,1.828116536E0,-6.922435760E0,1.907079697E0
6.874876881E0,2.069791555E0,-7.180860519E0,2.148754835E0
6.879631464E0,2.318645239E0,-7.467999458E0,2.299502611E0
6.884386048E0,2.529213428E0,-7.757531166E0,2.416750908E0
6.889140631E0,2.670390129E0,-8.011170387E0,2.574677229E0
6.893895214E0,2.787638426E0,-8.252845764E0,2.773281336E0
6.898649798E0,2.955136061E0,-8.417949677E0,3.048455954E0
6.903404381E0,3.230310678E0,-8.530412674E0,3.596412420E0
6.908158964E0,3.424129248E0,-8.566305161E0,4.558327198E0
6.912913548E0,3.469592810E0,-8.595019341E0,5.331208706E0
6.917668079E0,3.412165165E0,-8.731410027E0,5.826523304E0
6.922422714E0,3.436093330E0,-8.807980537E0,6.216553211E0
6.927177246E0,3.701696634E0,-8.731410027E0,6.226124287E0
6.931931829E0,3.885943890E0,-8.685946465E0,6.056233883E0
6.936686412E0,3.940979004E0,-8.681160927E0,5.814558983E0
6.941440996E0,3.835694790E0,-8.788837433E0,5.441278458E0
6.946195579E0,3.605983734E0,-8.961120605E0,5.012963295E0
6.950950162E0,3.424129248E0,-9.085547447E0,4.498506546E0
6.955704746E0,3.309273720E0,-9.195617676E0,3.926621914E0
6.960459329E0,3.292523861E0,-9.353543282E0,3.342773199E0
6.965213912E0,3.330809116E0,-9.595218658E0,2.813959360E0
6.969968496E0,3.345165968E0,-9.884750366E0,2.340180635E0
6.974723079E0,3.414557934E0,-1.018863869E1,1.892722726E0
6.979477662E0,3.397808075E0,-1.052363396E1,1.538584948E0
6.984232194E0,3.373879910E0,-1.091844940E1,1.275374413E0
6.988986777E0,3.333201885E0,-1.130130100E1,1.079162955E0
6.993741360E0,3.180061340E0,-1.175593758E1,6.843472719E-1
6.998495944E0,3.048455954E0,-1.232782269E1,-1.770688742E-1
7.003250527E0,2.634497643E0,-1.303131199E1,-3.259024382E0
7.008005110E0,2.416750908E0,-1.372283745E1,-6.039484501E0
7.012759694E0,2.641676188E0,-1.388076401E1,-5.702096462E0
7.017514277E0,3.074777126E0,-1.372044468E1,-3.967299938E0
7.022268860E0,3.471985579E0,-1.350269794E1,-2.074577332E0
7.027023444E0,3.871587038E0,-1.326580906E1,-5.120640397E-1
7.031778027E0,4.235296249E0,-1.311745358E1,7.896314859E-1
7.036532610E0,4.682754040E0,-1.308156109E1,1.880758643E0
7.041287194E0,5.051248550E0,-1.316052437E1,2.486142635E0
7.046041725E0,5.551348686E0,-1.326820183E1,2.440679073E0
7.050796308E0,6.168696880E0,-1.326580906E1,1.792224169E0
7.055550892E0,6.941578388E0,-1.310548973E1,6.675975323E-1
7.060305475E0,7.798209190E0,-1.282313633E1,-5.575276613E-1
7.065060058E0,8.621339798E0,-1.251924801E1,-1.639083505E0
7.069814642E0,9.238688469E0,-1.219382381E1,-2.457428932E0
7.074569225E0,9.686145782E0,-1.182532978E1,-2.837887764E0
7.079323808E0,9.973284721E0,-1.141137123E1,-2.778067112E0
7.084078392E0,1.007378292E1,-1.102851963E1,-2.388036966E0
7.088832975E0,1.004267693E1,-1.068873882E1,-1.887937069E0
7.093587558E0,9.994820595E0,-1.044945621E1,-1.452443361E0
7.098342142E0,9.777072906E0,-1.030110168E1,-1.122233868E0
7.103096725E0,9.439684868E0,-1.019342422E1,-8.542376757E-1
7.107851308E0,9.198010445E0,-1.010728264E1,-7.561319470E-1
7.112605839E0,8.937192917E0,-1.007617569E1,-7.752745152E-1
7.117360423E0,8.681160927E0,-1.004506969E1,-8.494520187E-1
7.122115006E0,8.501698494E0,-9.999606133E0,-9.643075466E-1
7.126869589E0,8.298309326E0,-9.937392235E0,-1.071984529E0
7.131624173E0,8.228917122E0,-9.911071777E0,-1.136590719E0
7.136378756E0,8.161917686E0,-9.884750366E0,-1.014556766E0
7.141133339E0,8.188239098E0,-9.958928108E0,-7.896314859E-1
7.145887923E0,8.240880966E0,-1.016231823E1,-3.517449200E-1
7.150642506E0,8.331808090E0,-1.055713367E1,2.321037948E-1
7.155397089E0,8.231309891E0,-1.105244732E1,8.925228715E-1
7.160151673E0,7.771887779E0,-1.155972576E1,1.545763373E0
7.164906256E0,6.836294174E0,-1.195454216E1,2.112862349E0
7.169660839E0,5.690132141E0,-1.233739376E1,2.474178553E0
7.174415371E0,4.658825874E0,-1.264367485E1,2.691925526E0
7.179169954E0,3.852444410E0,-1.293799210E1,2.756531715E0
7.183924537E0,3.333201885E0,-1.328973675E1,2.622533560E0
7.188679121E0,3.005385160E0,-1.365344620E1,2.364108801E0
7.193433704E0,2.723032236E0,-1.396929836E1,2.227717876E0
7.198188287E0,2.431107759E0,-1.427557945E1,2.024327993E0
7.202942871E0,2.194218397E0,-1.451725483E1,1.830509305E0
7.207697454E0,1.897508383E0,-1.464885998E1,1.631905079E0
7.212452037E0,1.641476393E0,-1.466561031E1,1.454836130E0
7.217206621E0,1.359123230E0,-1.460339642E1,1.445264935E0
7.221961204E0,1.112662554E0,-1.447418404E1,1.576870084E0
7.226715787E0,8.781659007E-1,-1.429232979E1,1.801795483E0
7.231470371E0,8.231309652E-1,-1.408654690E1,2.143969059E0
7.236224954E0,7.896314859E-1,-1.381615829E1,2.605783939E0
7.240979537E0,7.226324677E-1,-1.340219975E1,3.136990547E0
7.245734121E0,6.723831892E-1,-1.289492130E1,3.617947817E0
7.250488652E0,6.125625968E-1,-1.239003563E1,4.194618225E0
7.255243235E0,5.694918036E-1,-1.175593758E1,4.855037212E0
7.259997819E0,6.388836503E-1,-1.108355427E1,5.438885689E0
7.264752402E0,9.188438654E-1,-1.038485050E1,5.891129494E0
7.269506985E0,1.294517040E0,-9.762716293E0,6.297909260E0
7.274261569E0,1.875972986E0,-9.241081238E0,6.642475605E0
7.279016152E0,2.440679073E0,-8.769695282E0,6.960721016E0
7.283770735E0,3.055634499E0,-8.415556908E0,7.243073940E0
7.288525319E0,3.615555048E0,-8.147561073E0,7.355536938E0
7.293279902E0,3.986442566E0,-8.054241180E0,7.073183537E0
7.298034485E0,4.168296814E0,-8.097311974E0,6.417550564E0
7.302789069E0,4.421936035E0,-8.173882484E0,5.139782906E0
7.307543652E0,5.194818020E0,-8.322237015E0,-4.474578202E-1
7.312298235E0,9.719645500E0,-8.561519623E0,-1.876212311E1
7.317052819E0,1.130369377E1,-8.681160927E0,-1.678804398E1
7.321807402E0,1.055474091E1,-8.566305161E0,-1.224168110E1
7.326561933E0,9.894321442E0,-8.537590981E0,-7.178467751E0
7.331316517E0,8.846264839E0,-8.523234367E0,-2.957528830E0
7.336071100E0,7.477570534E0,-8.568697929E0,-2.153540403E-1
7.340825683E0,6.082555294E0,-8.702695847E0,1.409372568E0
7.345580267E0,4.680361271E0,-8.963513374E0,2.170290232E0
7.350334850E0,3.443271875E0,-9.401400566E0,2.483749866E0
7.355089433E0,2.624926329E0,-9.882357597E0,2.608176708E0
7.359844017E0,2.177468538E0,-1.022692394E1,2.591426849E0
7.364598600E0,1.935793519E0,-1.066002464E1,2.524427891E0
7.369353183E0,1.777867198E0,-1.100459099E1,2.457428932E0
7.374107767E0,1.402194023E0,-1.131565857E1,2.579462767E0
7.378862350E0,9.906286001E-1,-1.161476135E1,2.742174864E0
7.383616933E0,5.407779217E-1,-1.189232826E1,2.854637384E0
7.388371517E0,1.196411345E-2,-1.205504036E1,2.806781054E0
7.393126100E0,-5.312066078E-1,-1.206221867E1,2.677568436E0
7.397880683E0,-9.427721500E-1,-1.186361504E1,2.529213428E0
7.402635214E0,-1.284945726E0,-1.137069321E1,2.349751949E0
7.407389798E0,-1.502692580E0,-1.072702408E1,2.206182480E0
7.412144381E0,-1.473978758E0,-9.997213364E0,2.175075769E0
7.416898964E0,-1.261017561E0,-9.135796547E0,2.187039852E0
7.421653548E0,-7.824530005E-1,-8.305487633E0,2.234896421E0
7.426408131E0,-3.134597540E-1,-7.467999458E0,2.266003132E0
7.431162714E0,2.081755698E-1,-6.652047157E0,2.177468538E0
7.435917298E0,7.752745152E-1,-5.929414749E0,1.907079697E0
7.440671881E0,1.517049551E0,-5.312066078E0,1.643869162E0
7.445426464E0,2.380858421E0,-4.852644444E0,1.342373490E0
7.450181048E0,3.177668571E0,-4.503292084E0,9.499505758E-1
7.454935631E0,3.816552162E0,-4.309473515E0,4.857429862E-1
7.459690214E0,4.244867325E0,-4.252045631E0,2.632104978E-2
7.464444798E0,4.268795490E0,-4.347758770E0,-2.536391914E-1
7.469199381E0,4.089334011E0,-4.541577339E0,-4.043870270E-1
7.473953964E0,3.826123476E0,-4.733003139E0,-4.761717021E-1
7.478708548E0,3.450450182E0,-4.922036171E0,-5.527420044E-1
7.483463079E0,3.158525944E0,-5.094319344E0,-5.647061467E-1
7.488217662E0,2.950350285E0,-5.223531723E0,-4.474578202E-1
7.492972246E0,2.739781857E0,-5.331208706E0,-2.656033039E-1
7.497726829E0,2.665604353E0,-5.431707382E0,-7.178467698E-3
7.502481412E0,2.660818815E0,-5.551348686E0,3.134597540E-1
7.507235996E0,2.694318295E0,-5.639883041E0,6.652047038E-1
7.511990579E0,2.694318295E0,-5.699703693E0,9.762716293E-1
7.516745162E0,2.734996319E0,-5.749952793E0,1.306481123E0
7.521499746E0,2.644068956E0,-5.776273727E0,1.622333765E0
7.526254329E0,2.440679073E0,-5.759523869E0,1.950150490E0
7.531008912E0,2.258824587E0,-5.723631859E0,2.208575249E0
7.535763496E0,2.017149448E0,-5.726024628E0,2.543570518E0
7.540518079E0,1.868794441E0,-5.692524910E0,2.861815929E0
7.545272662E0,1.770688772E0,-5.618347645E0,3.141776085E0
7.550027246E0,1.751546144E0,-5.572884083E0,3.369094372E0
7.554781829E0,1.816152334E0,-5.438885689E0,3.584448338E0
7.559536412E0,1.890329838E0,-5.297709465E0,3.768695593E0
7.564290944E0,1.866401672E0,-5.091926575E0,3.790230989E0
7.569045579E0,1.883151412E0,-4.878965378E0,3.840480328E0
7.573800110E0,1.950150490E0,-4.682754040E0,3.737588882E0
7.578554694E0,1.990828395E0,-4.481756687E0,3.421736479E0
7.583309277E0,2.021935225E0,-4.278367043E0,3.017349243E0
7.588063860E0,2.141576290E0,-4.101297855E0,2.352144718E0
7.592818444E0,2.385644197E0,-3.835694790E0,1.596012712E0
7.597573027E0,2.751745939E0,-3.522234917E0,9.834501147E-1
7.602327610E0,3.249453068E0,-3.318845034E0,5.886343718E-1
7.607082194E0,3.725624800E0,-3.259024382E0,4.331009090E-1
7.611836777E0,4.213760853E0,-3.232703447E0,5.814558864E-1
7.616591360E0,4.697110653E0,-3.189632654E0,1.004985452E0
7.621345944E0,5.032105923E0,-3.136990547E0,1.555334687E0
7.626100527E0,5.347958565E0,-3.038884640E0,2.151147604E0
7.630855110E0,5.589633465E0,-2.962314367E0,2.823530674E0
7.635609694E0,5.788238049E0,-2.907279491E0,3.493520975E0
7.640364277E0,5.936593056E0,-2.847458839E0,4.039084435E0
7.645118860E0,6.094519138E0,-2.792423964E0,4.457828522E0
7.649873444E0,6.168696880E0,-2.739781857E0,4.694717884E0
7.654627975E0,6.168696880E0,-2.787638426E0,4.735395908E0
7.659382558E0,6.166304111E0,-2.845066071E0,4.656432629E0
7.664137142E0,6.101697922E0,-2.962314367E0,4.431507587E0
7.668891725E0,6.120840549E0,-3.168097258E0,4.113262177E0
7.673646308E0,6.099305153E0,-3.445664644E0,3.766302824E0
7.678400892E0,6.072983742E0,-3.821337700E0,3.321237803E0
7.683155475E0,5.922235966E0,-4.223331928E0,2.766103029E0
7.687910058E0,5.642275810E0,-4.601397991E0,2.208575249E0
7.692664642E0,5.333601475E0,-5.017749310E0,1.804188251E0
7.697419225E0,5.187639713E0,-5.455635548E0,1.476371527E0
7.702173808E0,5.400600910E0,-5.917450428E0,1.093519926E0
7.706928392E0,6.092126369E0,-6.384050846E0,6.364908218E-1
7.711682975E0,6.908079147E0,-6.867401123E0,4.474578202E-1
7.716437558E0,7.731209755E0,-7.403393269E0,9.930213690E-1
7.721192142E0,9.054440498E0,-7.939385414E0,3.158525944E0
7.725946725E0,1.055474091E1,-8.468199730E0,6.896114826E0
7.730701308E0,1.194497108E1,-9.382257462E0,1.062652493E1
7.735455892E0,1.332084370E1,-1.090887833E1,1.259821129E1
7.740210423E0,1.445025635E1,-1.297867012E1,1.188993549E1
7.744965006E0,1.531406498E1,-1.534756470E1,8.003992081E0
7.749719589E0,1.651765442E1,-1.813998795E1,2.124826431E0
7.754474173E0,1.761596107E1,-2.110948181E1,-2.873780012E0
7.759228756E0,1.790549278E1,-2.323191452E1,-3.696911097E0
7.763983339E0,1.719243050E1,-2.350230408E1,-9.475577474E-1
7.768737923E0,1.589312840E1,-2.223889351E1,2.237289190E0
7.773492506E0,1.438086414E1,-2.014038849E1,4.185046673E0
7.778247089E0,1.232303619E1,-1.693161392E1,4.807180882E0
7.783001673E0,1.001396275E1,-1.342852020E1,4.560719967E0
7.787756256E0,7.901100159E0,-1.030110168E1,3.938585997E0
7.792510839E0,6.070590973E0,-7.712067604E0,2.952743053E0
7.797265423E0,4.414757729E0,-5.666203976E0,1.533799291E0
7.802020006E0,2.912065268E0,-4.115654945E0,1.004985496E-1
7.806774589E0,1.586441398E0,-2.947957516E0,-1.002592683E0
7.811529173E0,7.226324677E-1,-2.275574446E0,-1.801795483E0
7.816283756E0,2.536391914E-1,-1.947757602E0,-2.421536446E0
7.821038339E0,2.033899277E-1,-1.902294040E0,-2.667997360E0
7.825792923E0,5.240281820E-1,-2.132004976E0,-2.234896421E0
7.830547454E0,1.272981644E0,-2.620140791E0,-1.359123230E0
7.835302037E0,2.136790514E0,-3.275774240E0,-7.178468108E-1
7.840056621E0,2.787638426E0,-3.972085476E0,-4.498506486E-1
7.844811204E0,3.127419233E0,-4.649254322E0,-3.254238665E-1
7.849565787E0,3.223132133E0,-5.326423168E0,-1.316052526E-1
7.854320371E0,3.022135019E0,-6.049055576E0,1.339980662E-1
7.859074954E0,2.665604353E0,-6.845865726E0,4.354937077E-1
7.863829537E0,2.299502611E0,-7.666603565E0,7.680960894E-1
7.868584121E0,2.076970100E0,-8.480163574E0,1.107876897E0
7.873338704E0,1.840080619E0,-9.315258980E0,1.435693622E0
7.878093287E0,1.732403636E0,-1.017428207E1,1.562513232E0
7.882847871E0,1.596012712E0,-1.100219822E1,1.536192179E0
7.887602454E0,1.548156261E0,-1.172483063E1,1.481157184E0
7.892357037E0,1.521835208E0,-1.234217930E1,1.454836130E0
7.897111621E0,1.529013634E0,-1.286142159E1,1.557727575E0
7.901866204E0,1.476371527E0,-1.320120239E1,1.715653777E0
7.906620787E0,1.426122308E0,-1.333998585E1,1.868794441E0
7.911375371E0,1.284945726E0,-1.320598793E1,1.969292998E0
7.916129954E0,1.076770186E0,-1.286381435E1,2.045863390E0
7.920884485E0,9.667003751E-1,-1.237089348E1,2.091326952E0
7.925639069E0,1.103091240E0,-1.180618668E1,2.108076811E0
7.930393652E0,1.476371527E0,-1.111944675E1,2.155933142E0
7.935148235E0,1.897508383E0,-1.032981491E1,2.225325108E0
7.939902819E0,2.251646042E0,-9.542576790E0,2.277967215E0
7.944657402E0,2.464607239E0,-8.865407944E0,2.266003132E0
7.949411985E0,2.512463808E0,-8.212167740E0,2.182254314E0
7.954166569E0,2.507678032E0,-7.652246952E0,2.031506538E0
7.958921152E0,2.483749866E0,-7.190432072E0,1.878365755E0
7.963675735E0,2.502892494E0,-6.848258495E0,1.768295884E0
7.968430319E0,2.486142635E0,-6.527620316E0,1.624726534E0
7.973184902E0,2.462214470E0,-6.305087566E0,1.512263894E0
7.977939485E0,2.462214470E0,-6.142375946E0,1.399801254E0
7.982694069E0,2.512463808E0,-6.037091732E0,1.325623751E0
7.987448652E0,2.569891453E0,-5.977271080E0,1.263410330E0
7.992203235E0,2.677568436E0,-5.950950146E0,1.234696507E0
7.996957819E0,2.763710260E0,-6.025127411E0,1.210768223E0
8.001712402E0,2.866601467E0,-6.199803352E0,1.191625714E0
8.006466985E0,3.062813044E0,-6.436692715E0,1.150947690E0
8.011221569E0,3.280559778E0,-6.742974281E0,1.117448211E0
8.015976152E0,3.584448338E0,-7.075576782E0,1.057627559E0
8.020730683E0,3.828516245E0,-7.496713161E0,9.786644578E-1
8.025485267E0,3.981656790E0,-7.879564762E0,8.662018180E-1
8.030239850E0,4.051048756E0,-8.224131584E0,7.058826685E-1
8.034994433E0,4.065405846E0,-8.573483467E0,5.814558864E-1
8.039749017E0,4.039084435E0,-8.898907661E0,4.666004181E-1
8.044503600E0,3.945764542E0,-9.212367058E0,3.661018610E-1
8.049258183E0,3.926621914E0,-9.530612946E0,2.656033039E-1
8.054012767E0,3.914657831E0,-9.796216011E0,1.722832322E-1
8.058767350E0,3.890729666E0,-1.005464077E1,9.810572863E-2
8.063521933E0,3.905086517E0,-1.025563812E1,2.871387079E-2
8.068276517E0,3.936193228E0,-1.040399265E1,-1.674975827E-2
8.073031100E0,4.077369690E0,-1.056191921E1,0.000000000E0
8.077785683E0,4.299902439E0,-1.059063339E1,9.571290575E-3
8.082540267E0,4.543970108E0,-1.054995537E1,5.742774159E-2
8.087294850E0,4.797609329E0,-1.043749237E1,1.172483116E-1
8.092049433E0,4.950749874E0,-1.026042366E1,1.579262912E-1
8.096804017E0,5.108676434E0,-1.005942631E1,1.363908947E-1
8.101558600E0,5.144568920E0,-9.839286804E0,6.939185411E-2
8.106313131E0,4.998606682E0,-9.544969559E0,-1.914258115E-2
8.111067767E0,4.807180882E0,-9.317651749E0,-1.220339537E-1
8.115822298E0,4.596612453E0,-9.035298347E0,-2.153540403E-1
8.120576881E0,4.390829563E0,-8.738588333E0,-2.560320199E-1
8.125331464E0,4.177868366E0,-8.398807526E0,-2.775674164E-1
8.130086048E0,4.003192425E0,-8.123632431E0,-2.703889608E-1
8.134840631E0,3.912265062E0,-7.891529083E0,-1.698904037E-1
8.139595214E0,3.857230186E0,-7.714460373E0,-7.178467698E-3
8.144349798E0,3.912265062E0,-7.578069210E0,2.297109663E-1
8.149104381E0,4.031906128E0,-7.527820110E0,5.718846321E-1
8.153858964E0,4.101297855E0,-7.511070251E0,1.076770186E0
8.158613548E0,4.022335052E0,-7.451249599E0,1.466800332E0
8.163368131E0,3.940979004E0,-7.451249599E0,1.777867198E0
8.168122714E0,3.816552162E0,-7.496713161E0,2.055434704E0
8.172877298E0,3.677768469E0,-7.616354465E0,2.275574446E0
8.177631881E0,3.550948858E0,-7.788637638E0,2.443071842E0
8.182386464E0,3.550948858E0,-7.963313580E0,2.517249346E0
8.187141048E0,3.567698479E0,-8.075776100E0,2.605783939E0
8.191895579E0,3.562912941E0,-8.193024635E0,2.684746981E0
8.196650214E0,3.500699520E0,-8.307880402E0,2.778067112E0
8.201404746E0,3.357130051E0,-8.446663857E0,2.794816732E0
8.206159329E0,3.270988464E0,-8.561519623E0,2.658426046E0
8.210913912E0,3.242274761E0,-8.733802795E0,2.560320139E0
8.215668496E0,3.211168051E0,-8.824729919E0,2.445464849E0
8.220423079E0,3.074777126E0,-8.886942863E0,2.340180635E0
8.225177662E0,3.031706333E0,-8.879764557E0,2.230110645E0
8.229932246E0,2.993421078E0,-8.860622406E0,2.105684042E0
8.234686829E0,2.914458036E0,-8.812766075E0,1.813759565E0
8.239441412E0,2.785245657E0,-8.774480820E0,1.593619823E0
8.244195996E0,2.677568436E0,-8.731410027E0,1.445264935E0
8.248950579E0,2.538784742E0,-8.690732002E0,1.325623751E0
8.253705162E0,2.304288149E0,-8.618947029E0,1.344766378E0
8.258459746E0,1.947757602E0,-8.547162056E0,1.538584948E0
8.263214329E0,1.605584025E0,-8.489734650E0,1.818545222E0
8.267968912E0,1.287338614E0,-8.477770805E0,2.033899307E0
8.272723496E0,1.033699393E0,-8.554341316E0,2.206182480E0
8.277478079E0,8.901300430E-1,-8.693124771E0,2.352144718E0
8.282232662E0,7.944171429E-1,-8.915657043E0,2.411965132E0
8.286987246E0,7.872386575E-1,-9.099904060E0,2.395215511E0
8.291741777E0,7.800601721E-1,-9.329615593E0,2.421536446E0
8.296496360E0,7.704889178E-1,-9.537791252E0,2.443071842E0
8.301250944E0,8.925228715E-1,-9.748359680E0,2.416750908E0
8.306005527E0,1.004985452E0,-9.927821159E0,2.294716835E0
8.310760110E0,9.116654396E-1,-1.010967541E1,2.237289190E0
8.315514694E0,8.039883971E-1,-1.025803089E1,2.160718918E0
8.320269277E0,7.489534616E-1,-1.038245773E1,2.065006018E0
8.325023860E0,7.274180651E-1,-1.051406288E1,1.950150490E0
8.329778444E0,6.269195080E-1,-1.056431198E1,1.832902193E0
8.334533027E0,6.221339107E-1,-1.060499001E1,1.703689694E0
8.339287610E0,6.293123364E-1,-1.063848972E1,1.514656782E0
8.344042194E0,6.843472719E-1,-1.056670475E1,1.289731383E0
8.348796777E0,6.029912829E-1,-1.053559780E1,1.081555843E0
8.353551360E0,5.527420044E-1,-1.050927734E1,9.260223508E-1
8.358305944E0,5.000999570E-1,-1.040638542E1,8.327022791E-1
8.363060527E0,4.402793646E-1,-1.029392338E1,6.747759581E-1
8.367815110E0,3.517449200E-1,-1.018624592E1,5.407779217E-1
8.372569694E0,1.746760458E-1,-1.011924744E1,3.541377485E-1
8.377324277E0,2.632105052E-1,-1.002114105E1,2.057827413E-1
8.382078808E0,2.919243574E-1,-9.951749802E0,5.982056633E-2
8.386833392E0,2.967100143E-1,-9.856036186E0,-3.589234129E-2
8.391587975E0,2.871387303E-1,-9.743574142E0,-1.674975902E-1
8.396342558E0,2.895315289E-1,-9.621540070E0,-2.847459018E-1
8.401097142E0,3.206382394E-1,-9.530612946E0,-3.230310678E-1
8.405851725E0,3.684946895E-1,-9.475577354E0,-3.254238665E-1
8.410606308E0,4.809573591E-1,-9.437292099E0,-3.876372576E-1
8.415360892E0,6.604190469E-1,-9.437292099E0,-5.024927258E-1
8.420115475E0,1.062413216E0,-9.444471359E0,-9.020941257E-1
8.424870058E0,1.775474429E0,-9.501898766E0,-1.813759565E0
8.429624642E0,2.533999205E0,-9.523433685E0,-2.787638426E0
8.434379225E0,2.892922640E0,-9.494720459E0,-2.864208698E0
8.439133808E0,2.775674343E0,-9.470791817E0,-1.995614052E0
8.443888392E0,2.483749866E0,-9.501898766E0,-8.327022791E-1
8.448642975E0,2.292324066E0,-9.580862045E0,-1.914258115E-2
8.453397558E0,2.306680918E0,-9.731609344E0,4.283152521E-1
8.458152142E0,2.481357098E0,-9.942177773E0,6.939185858E-1
8.462906673E0,2.763710260E0,-1.023649502E1,8.877372146E-1
8.467661308E0,3.163311481E0,-1.056431198E1,9.978070259E-1
8.472415839E0,3.680161238E0,-1.093998528E1,1.146162033E0
8.477170423E0,4.359723091E0,-1.138983536E1,1.325623751E0
8.481925006E0,5.094319344E0,-1.184686470E1,1.483550072E0
8.486679589E0,5.804987907E0,-1.228953743E1,1.612762451E0
8.491434173E0,6.522834301E0,-1.265324593E1,1.708475351E0
8.496188756E0,7.233502865E0,-1.289492130E1,1.758724689E0
8.500943339E0,7.920242786E0,-1.298106289E1,1.588834286E0
8.505697923E0,8.827122688E0,-1.306720448E1,5.096712112E-1
8.510452506E0,1.001396275E1,-1.304806232E1,-2.507678032E0
8.515207089E0,1.128455162E1,-1.285185051E1,-6.474977970E0
8.519961673E0,1.174875927E1,-1.245942783E1,-7.762316704E0
8.524716256E0,1.141137123E1,-1.195932770E1,-5.551348686E0
8.529470839E0,1.075813103E1,-1.146162033E1,-2.577069998E0
8.534225423E0,1.043749237E1,-1.101416302E1,-5.168496966E-1
8.538980006E0,1.025803089E1,-1.058824062E1,7.585247755E-1
8.543734589E0,1.022213840E1,-1.013599682E1,1.471585870E0
8.548489173E0,1.013121128E1,-9.566504478E0,1.722832322E0
8.553243704E0,1.011446095E1,-8.941978455E0,1.593619823E0
8.557998287E0,1.016471100E1,-8.377271652E0,1.141376376E0
8.562752871E0,1.021017456E1,-7.915457249E0,6.508477330E-1
8.567507454E0,1.013838959E1,-7.575676441E0,3.924229145E-1
8.572262037E0,1.009292603E1,-7.446464062E0,4.163511395E-1
8.577016621E0,9.841679573E0,-7.570890903E0,6.484549642E-1
8.581771204E0,9.533005714E0,-7.869993687E0,9.738788009E-1
8.586525787E0,9.078369141E0,-8.300702095E0,1.134197950E0
8.591280371E0,8.640482903E0,-8.853444099E0,1.146162033E0
8.596034954E0,8.087740898E0,-9.427721024E0,1.122233868E0
8.600789537E0,7.467999458E0,-1.013121128E1,1.033699393E0
8.605544121E0,6.841079712E0,-1.085623646E1,1.002592683E0
8.610298704E0,6.175875187E0,-1.166740322E1,8.973084688E-1
8.615053287E0,5.414957523E0,-1.251685524E1,8.901300430E-1
8.619807871E0,4.570291042E0,-1.333998585E1,9.260223508E-1
8.624562454E0,3.663411379E0,-1.409372520E1,9.738788009E-1
8.629317037E0,2.950350285E0,-1.463928890E1,1.100698471E0
8.634071569E0,2.258824587E0,-1.508196068E1,1.091127157E0
8.638826152E0,1.883151412E0,-1.535474300E1,1.186840057E0
8.643580735E0,1.593619823E0,-1.556052589E1,1.406979680E0
8.648335319E0,1.263410330E0,-1.558445358E1,1.770688772E0
8.653089902E0,7.944171429E-1,-1.550309753E1,2.196611166E0
8.657844485E0,2.799602449E-1,-1.531406498E1,2.663211584E0
8.662599069E0,-3.182454109E-1,-1.504606915E1,3.101098061E0
8.667353652E0,-7.776673436E-1,-1.473739433E1,3.507878065E0
8.672108235E0,-1.083948612E0,-1.441436386E1,3.897907972E0
8.676862819E0,-1.457229018E0,-1.420618820E1,4.326223373E0
8.681617402E0,-1.737189293E0,-1.403869057E1,4.802394867E0
8.686371985E0,-1.864008784E0,-1.389990711E1,5.154139996E0
8.691126569E0,-1.935793519E0,-1.372762394E1,5.434100151E0
8.695881152E0,-1.923829436E0,-1.356491184E1,5.706882000E0
8.700635735E0,-1.674975872E0,-1.329930782E1,6.063412666E0
8.705390267E0,-1.351944804E0,-1.294277763E1,6.472585201E0
8.710144850E0,-8.853443861E-1,-1.260060406E1,6.965506554E0
8.714899433E0,-3.804588020E-1,-1.227278709E1,7.410571575E0
8.719654017E0,-7.896314561E-2,-1.200957680E1,7.484749317E0
8.724408600E0,-2.105683982E-1,-1.173440266E1,7.429714203E0
8.729163183E0,-6.771687865E-1,-1.144487095E1,7.039684296E0
8.733917767E0,-1.112662554E0,-1.111466122E1,6.398407936E0
8.738672350E0,-1.471585870E0,-1.087537861E1,5.599205017E0
8.743426933E0,-1.741974831E0,-1.059063339E1,4.823930264E0
8.748181517E0,-1.940579176E0,-1.033460140E1,4.041477680E0
8.752936100E0,-1.883151412E0,-1.002831936E1,3.404986620E0
8.757690683E0,-1.933400750E0,-9.769894600E0,2.828316450E0
8.762445267E0,-1.899901152E0,-9.530612946E0,2.313859463E0
8.767199850E0,-1.794616938E0,-9.255437851E0,1.926222205E0
8.771954433E0,-1.703689694E0,-8.968298912E0,1.529013634E0
8.776709017E0,-1.670190215E0,-8.662017822E0,1.186840057E0
8.781463600E0,-1.600798368E0,-8.413164139E0,8.949156404E-1
8.786218131E0,-1.536192179E0,-8.197810173E0,5.838487148E-1
8.790972714E0,-1.450050473E0,-7.994420528E0,2.823530734E-1
8.795727298E0,-1.217946768E0,-7.791030407E0,-2.225325108E-1
8.800481881E0,-9.930213690E-1,-7.680960655E0,-1.141376376E0
8.805236464E0,-4.115654826E-1,-7.683353424E0,-4.421936035E0
8.809991048E0,1.088734269E0,-7.523034573E0,-1.237567902E1
8.814745631E0,2.225325108E0,-7.381857872E0,-1.086820030E1
8.819500214E0,2.639283419E0,-7.424928665E0,-6.759724140E0
8.824254798E0,2.787638426E0,-7.630711555E0,-3.376272678E0
8.829009381E0,2.976671457E0,-7.886743546E0,-1.184447169E0
8.833763964E0,3.146561861E0,-8.106883049E0,2.153540403E-2
8.838518548E0,3.203989506E0,-8.236095428E0,5.862415433E-1
8.843273131E0,2.981456995E0,-8.322237015E0,6.293123364E-1
8.848027714E0,2.447857618E0,-8.362915039E0,3.254238665E-1
8.852782246E0,1.763510346E0,-8.312665939E0,-1.531406492E-1
8.857536829E0,1.083948612E0,-8.260024071E0,-5.312066078E-1
8.862291412E0,5.192425251E-1,-8.231309891E0,-7.441678643E-1
8.867045996E0,1.651047617E-1,-8.204988480E0,-8.087740541E-1
8.871800579E0,-3.349951655E-2,-8.147561073E0,-7.680960894E-1
8.876555162E0,-1.507478207E-1,-8.056633949E0,-6.460621357E-1
8.881309746E0,-2.129612118E-1,-7.905886173E0,-5.240281820E-1
8.886064329E0,-2.679961324E-1,-7.743174076E0,-4.115654826E-1
8.890818912E0,-3.445664644E-1,-7.546962738E0,-2.488535494E-1
8.895573496E0,-4.067798555E-1,-7.391428947E0,-1.579262912E-1
8.900328079E0,-4.642075896E-1,-7.262216568E0,-1.196411327E-1
8.905082662E0,-5.264210105E-1,-7.149754047E0,-7.417750359E-2
8.909837246E0,-5.359922647E-1,-7.099504948E0,-6.221338734E-2
8.914591777E0,-4.857429862E-1,-7.063612461E0,-8.853443712E-2
8.919346360E0,-4.019941986E-1,-7.089933395E0,-1.627119333E-1
8.924100944E0,-2.536391914E-1,-7.159325123E0,-2.751746178E-1
8.928855527E0,-5.264209956E-2,-7.238288403E0,-4.115654826E-1
8.933610110E0,1.435693651E-1,-7.365108013E0,-4.139583111E-1
8.938364694E0,4.115654826E-1,-7.467999458E0,-3.134597540E-1
8.943119277E0,7.393822074E-1,-7.582854748E0,-9.332008660E-2
8.947873860E0,1.100698471E0,-7.678567886E0,2.727817893E-1
8.952628444E0,1.502692580E0,-7.733603001E0,6.029912829E-1
8.957383027E0,1.935793519E0,-7.810173035E0,8.255237937E-1
8.962137610E0,2.342573404E0,-7.846065521E0,9.308080077E-1
8.966892194E0,2.742174864E0,-7.886743546E0,8.231309652E-1
8.971646777E0,3.156133175E0,-7.913064480E0,7.154539824E-1
8.976401360E0,3.460021496E0,-7.913064480E0,7.034898400E-1
8.981155892E0,3.735196114E0,-7.898707390E0,8.207381964E-1
8.985910475E0,4.106083870E0,-7.936992645E0,1.043270707E0
8.990665058E0,4.520041943E0,-8.090133667E0,1.265803218E0
8.995419642E0,5.228317261E0,-8.310273170E0,1.354337573E0
9.000174225E0,6.192625046E0,-8.745766640E0,1.272981644E0
9.004928808E0,7.556533813E0,-9.241081238E0,1.119840980E0
9.009683392E0,9.119047165E0,-9.760323524E0,1.280160069E0
9.014437975E0,1.062652493E1,-1.023410225E1,1.895115495E0
9.019192558E0,1.198325539E1,-1.069591713E1,2.799602509E0
9.023947142E0,1.335195065E1,-1.104287624E1,3.804588079E0
9.028701725E0,1.454836178E1,-1.140658569E1,4.436293125E0
9.033456308E0,1.530210114E1,-1.168654537E1,4.749752998E0
9.038210892E0,1.591466331E1,-1.190907860E1,4.835894585E0
9.042965475E0,1.630230141E1,-1.201436234E1,4.541577339E0
9.047720006E0,1.620658684E1,-1.191386414E1,4.115654945E0
9.052474589E0,1.583570004E1,-1.157647610E1,3.617947817E0
9.057229173E0,1.523031616E1,-1.105484104E1,3.041277647E0
9.061983756E0,1.436650753E1,-1.036810017E1,2.433500528E0
9.066738339E0,1.332802200E1,-9.473184586E0,1.873580098E0
9.071492923E0,1.208375454E1,-8.506484032E0,1.411765337E0
9.076247506E0,1.073420238E1,-7.635497093E0,1.012163997E0
9.081002089E0,9.329615593E0,-6.872186661E0,6.771687865E-1
9.085756673E0,7.846065521E0,-6.271588326E0,3.445664644E-1
9.090511256E0,6.393621922E0,-5.871986866E0,5.742774159E-2
9.095265839E0,5.137390137E0,-5.687739372E0,-1.890329868E-1
9.100020423E0,4.067798615E0,-5.778666496E0,-4.187439680E-1
9.104775006E0,3.464807272E0,-6.451049805E0,-6.173482537E-1
9.109529537E0,3.495913982E0,-7.810173035E0,-9.164510965E-1
9.114284121E0,3.641875982E0,-9.355937004E0,-1.411765337E0
9.119038704E0,3.656233072E0,-1.091844940E1,-2.237289190E0
9.123793287E0,3.471985579E0,-1.238285732E1,-3.091526747E0
9.128547871E0,3.732803345E0,-1.345244884E1,-2.804388046E0
9.133302454E0,4.089334011E0,-1.414636707E1,-1.737189293E0
9.138057037E0,4.163511276E0,-1.462732506E1,-6.915257573E-1
9.142811621E0,4.063013077E0,-1.517767429E1,-4.785645287E-3
9.147566204E0,3.917050600E0,-1.577827263E1,3.397808075E-1
9.152320787E0,3.768695593E0,-1.629033661E1,6.556333899E-1
9.157075371E0,3.641875982E0,-1.652961922E1,1.009771109E0
9.161829902E0,3.328416348E0,-1.629990768E1,1.349551916E0
9.166584485E0,2.974278450E0,-1.570409489E1,1.593619823E0
9.171339069E0,2.622533560E0,-1.474457359E1,1.744367719E0
9.176093652E0,2.199003935E0,-1.360798264E1,1.818545222E0
9.180848235E0,1.837687731E0,-1.244985580E1,1.792224169E0
9.185602819E0,1.521835208E0,-1.142094231E1,1.651047587E0
9.190357402E0,1.208375454E0,-1.054756260E1,1.464407444E0
9.195111985E0,9.403793216E-1,-9.882357597E0,1.232303619E0
9.199866569E0,5.790630579E-1,-9.339186668E0,9.619147182E-1
9.204621152E0,1.986042857E-1,-8.913264275E0,7.034898400E-1
9.209375735E0,-2.751746178E-1,-8.535198212E0,4.953143001E-1
9.214130319E0,-9.188438654E-1,-8.178668022E0,3.900300860E-1
9.218884850E0,-1.560120344E0,-7.867600918E0,2.799602449E-1
9.223639433E0,-1.990828395E0,-7.616354465E0,1.603191197E-1
9.228394017E0,-2.057827473E0,-7.417750359E0,8.135596663E-2
9.233148600E0,-2.098505497E0,-7.259823799E0,4.546362907E-2
9.237903183E0,-2.036292076E0,-7.164111137E0,3.828516230E-2
9.242657767E0,-1.978864312E0,-7.137789726E0,6.939185411E-2
9.247412350E0,-1.892722726E0,-7.137789726E0,6.460621208E-2
9.252166933E0,-1.715653777E0,-7.283751965E0,1.914258115E-2
9.256921517E0,-1.543370605E0,-7.506284714E0,1.674975827E-2
9.261676100E0,-1.318445325E0,-7.841279984E0,1.435693540E-2
9.266430631E0,-1.174875975E0,-8.181060791E0,-1.914258115E-2
9.271185214E0,-1.256231904E0,-8.532805443E0,5.982056633E-2
9.275939798E0,-1.383051515E0,-8.879764557E0,1.962114573E-1
9.280694381E0,-1.313659668E0,-9.564111710E0,4.713860750E-1
9.285448964E0,-1.131805062E0,-1.021496010E1,6.508477330E-1
9.290203548E0,-9.571290612E-1,-1.083470058E1,8.949156404E-1
9.294958131E0,-8.111668825E-1,-1.121037388E1,1.320838094E0
9.299712714E0,-6.149554253E-1,-1.135872936E1,2.261217356E0
9.304467298E0,-5.503492355E-1,-1.125344467E1,3.129812002E0
9.309221881E0,-3.086741269E-1,-1.106919765E1,3.634697676E0
9.313976464E0,-1.459621787E-1,-1.074616623E1,4.139583111E0
9.318730996E0,3.110669367E-2,-1.038245773E1,4.661218643E0
9.323485579E0,5.024927482E-2,-9.987641335E0,5.266602516E0
9.328240162E0,-2.632104978E-2,-9.688538551E0,5.580062389E0
9.332994746E0,-1.794617027E-1,-9.458827972E0,5.608776093E0
9.337749329E0,-2.943171859E-1,-9.245866776E0,5.788238049E0
9.342503912E0,-4.426721931E-1,-9.040083885E0,6.130411625E0
9.347258496E0,-6.149554253E-1,-8.870193481E0,6.398407936E0
9.352013079E0,-7.441678643E-1,-8.729017258E0,6.474977970E0
9.356767662E0,-6.723831892E-1,-8.736195564E0,6.393621922E0
9.361522246E0,-4.666004181E-1,-8.724231720E0,6.171089649E0
9.366276829E0,-1.962114573E-1,-8.733802795E0,5.735595703E0
9.371031412E0,6.460621208E-2,-8.807980537E0,5.127819061E0
9.375785944E0,3.517449200E-1,-8.941978455E0,4.474578381E0
9.380540527E0,5.838487148E-1,-9.085547447E0,3.787838221E0
9.385295110E0,8.135597110E-1,-9.245866776E0,3.151347399E0
9.390049694E0,1.055234790E0,-9.473184586E0,2.629712105E0
9.394804277E0,1.182054400E0,-9.676574707E0,2.136790514E0
9.399558860E0,1.383051515E0,-9.875179291E0,1.706082582E0
9.404313444E0,1.538584948E0,-1.006421185E1,1.316052437E0
9.409068027E0,1.727617979E0,-1.024367332E1,1.064806104E0
9.413822610E0,1.981257200E0,-1.039442158E1,8.997012973E-1
9.418577194E0,2.301895380E0,-1.050688457E1,9.140582681E-1
9.423331725E0,2.641676188E0,-1.063131142E1,9.332008362E-1
9.428086308E0,3.041277647E0,-1.063609695E1,9.284151793E-1
9.432840892E0,3.347558975E0,-1.064088249E1,8.877372146E-1
9.437595475E0,3.584448338E0,-1.063609695E1,8.470591903E-1
9.442350058E0,3.778266907E0,-1.062413216E1,7.752745152E-1
9.447104642E0,3.931407690E0,-1.061934662E1,7.441678643E-1
9.451859225E0,4.060619831E0,-1.060499001E1,7.585247755E-1
9.456613808E0,4.141975880E0,-1.052841949E1,7.824530005E-1
9.461368392E0,4.170690060E0,-1.047817039E1,7.752745152E-1
9.466122923E0,4.108476639E0,-1.048295593E1,8.087740541E-1
9.470877506E0,4.082155228E0,-1.048056316E1,1.131805062E0
9.475632089E0,4.000799656E0,-1.052841949E1,1.249053478E0
9.480386673E0,3.912265062E0,-1.066481018E1,7.633104324E-1
9.485141256E0,3.893122435E0,-1.105005455E1,-3.955335855E0
9.489895839E0,4.163511276E0,-1.130848026E1,-1.132762241E1
9.494650423E0,4.390829563E0,-1.094955635E1,-1.211964703E1
9.499405006E0,4.386044025E0,-1.035135078E1,-8.602197647E0
9.504159589E0,4.211368084E0,-9.937392235E0,-5.386243820E0
9.508914173E0,4.197010994E0,-9.714859962E0,-3.184846878E0
9.513668704E0,4.228117466E0,-9.592825890E0,-1.988435626E0
9.518423287E0,4.280759811E0,-9.537791252E0,-1.524227977E0
9.523177871E0,4.390829563E0,-9.470791817E0,-1.359123230E0
9.527932454E0,4.546362877E0,-9.425328255E0,-1.205982566E0
9.532687037E0,4.601397991E0,-9.367900848E0,-9.690931439E-1
9.537441621E0,4.539184570E0,-9.241081238E0,-6.460621357E-1
9.542196204E0,4.424329281E0,-9.092725754E0,-3.110669553E-1
9.546950787E0,4.259224415E0,-8.985049248E0,4.785645381E-2
9.551705371E0,3.931407690E0,-8.980263710E0,1.021735311E0
9.556459954E0,3.586841106E0,-9.068798065E0,1.859223247E0
9.561214537E0,3.192025423E0,-9.147761345E0,2.108076811E0
9.565969069E0,2.859423161E0,-9.267401695E0,1.823330879E0
9.570723652E0,2.572284460E0,-9.348757744E0,1.043270707E0
9.575478235E0,2.421536446E0,-9.403793335E0,-4.785645381E-2
9.580232819E0,2.287538528E0,-9.466006279E0,-1.275374413E0
9.584987402E0,2.325823545E0,-9.547362328E0,-2.268395901E0
9.589741985E0,2.660818815E0,-9.640682220E0,-2.629712105E0
9.594496569E0,3.117847919E0,-9.724431038E0,-2.313859463E0
9.599251152E0,3.476771355E0,-9.726823807E0,-1.591227055E0
9.604005683E0,3.629911900E0,-9.669396400E0,-8.398807645E-1
9.608760267E0,3.641875982E0,-9.600004196E0,-2.392822653E-1
9.613514850E0,3.651447296E0,-9.549755096E0,2.153540403E-1
9.618269433E0,3.730410576E0,-9.518648148E0,5.407779217E-1
9.623024017E0,3.809373617E0,-9.499505997E0,8.518448472E-1
9.627778600E0,3.919443607E0,-9.535398483E0,1.177268744E0
9.632533183E0,4.127619267E0,-9.571290970E0,1.540977836E0
9.637287767E0,4.352544308E0,-9.619147301E0,1.859223247E0
9.642042298E0,4.527220249E0,-9.623932838E0,2.033899307E0
9.646796881E0,4.699503899E0,-9.614361763E0,2.153540373E0
9.651551464E0,4.934000492E0,-9.635896683E0,2.244467735E0
9.656306048E0,5.201996326E0,-9.693324089E0,2.239681959E0
9.661060631E0,5.474778175E0,-9.872786522E0,2.194218397E0
9.665815214E0,5.742774487E0,-1.013599682E1,2.158325911E0
9.670569798E0,6.034698486E0,-1.045424175E1,2.143969059E0
9.675324381E0,6.290730953E0,-1.081555843E1,2.179861546E0
9.680078964E0,6.537191391E0,-1.115533924E1,2.213361025E0
9.684833496E0,6.731009960E0,-1.146401310E1,2.246860504E0
9.689588079E0,6.891329288E0,-1.167218876E1,2.203789711E0
9.694342662E0,7.001399040E0,-1.181097221E1,1.995614052E0
9.699097246E0,7.142575741E0,-1.186122227E1,1.213161111E0
9.703851829E0,7.391428947E0,-1.185165024E1,-3.876372576E-1
9.708606412E0,7.802994728E0,-1.180379391E1,-2.892922640E0
9.713360996E0,8.054241180E0,-1.165783215E1,-4.749752998E0
9.718115579E0,8.025527000E0,-1.142333508E1,-4.912465096E0
9.722870162E0,7.721638680E0,-1.108833981E1,-3.842873096E0
9.727624694E0,7.458428383E0,-1.080120182E1,-2.663211584E0
9.732379277E0,7.341179848E0,-1.048534870E1,-1.749153376E0
9.737133860E0,7.441678524E0,-1.026281643E1,-1.088734269E0
9.741888444E0,7.472784996E0,-1.000678444E1,-6.173482537E-1
9.746643027E0,7.542177200E0,-9.748359680E0,-2.105683982E-1
9.751397610E0,7.479963779E0,-9.592825890E0,3.278166950E-1
9.756152194E0,7.326822758E0,-9.413364410E0,9.762716293E-1
9.760906777E0,7.058826923E0,-9.269794464E0,1.490728498E0
9.765661308E0,6.733402729E0,-9.142974854E0,1.758724689E0
9.770415892E0,6.230910301E0,-9.114261627E0,1.820937991E0
9.775170475E0,5.647061348E0,-9.190832138E0,1.768295884E0
9.779925058E0,5.108676434E0,-9.389435768E0,1.696511269E0
9.784679642E0,4.608576298E0,-9.827322960E0,1.514656782E0
9.789434225E0,4.199403763E0,-1.027478027E1,1.378265858E0
9.794188808E0,3.840480328E0,-1.075334454E1,1.234696507E0
9.798943392E0,3.464807272E0,-1.127258778E1,1.095912814E0
9.803697975E0,2.981456995E0,-1.191147137E1,9.260223508E-1
9.808452506E0,2.519642353E0,-1.245942783E1,8.279166222E-1
9.813207089E0,2.203789711E0,-1.289492130E1,7.800601721E-1
9.817961673E0,1.866401672E0,-1.322513103E1,7.776673436E-1
9.822716256E0,1.560120344E0,-1.352901936E1,8.542376757E-1
9.827470839E0,1.316052437E0,-1.375633717E1,9.475577474E-1
9.832225423E0,1.124626637E0,-1.395494175E1,1.021735311E0
9.836980006E0,9.020941257E-1,-1.411286831E1,1.117448211E0
9.841734589E0,6.508477330E-1,-1.414397430E1,1.244267821E0
9.846489121E0,2.967100143E-1,-1.408893967E1,1.509871125E0
9.851243704E0,-4.785645381E-2,-1.399322701E1,1.995614052E0
9.855998287E0,-2.009970993E-1,-1.394297791E1,2.605783939E0
9.860752871E0,-1.866401732E-1,-1.389512062E1,3.254238844E0
9.865507454E0,-1.674975902E-1,-1.387358570E1,3.811766386E0
9.870262037E0,-4.307080805E-2,-1.384965706E1,4.321437836E0
9.875016621E0,1.674975827E-2,-1.380180073E1,4.835894585E0
9.879771152E0,6.699903309E-2,-1.381855106E1,5.295316696E0
9.884525735E0,7.657032460E-2,-1.384008598E1,5.663811207E0
9.889280319E0,3.828516230E-2,-1.376112270E1,5.903093338E0
9.894034902E0,-7.178468257E-2,-1.369651699E1,5.881557941E0
9.898789485E0,-1.316052526E-1,-1.359123230E1,5.776273727E0
