"Time (s)","Acceleration x (m/s^2)","Acceleration y (m/s^2)","Acceleration z (m/s^2)"
1.377100000E-4,-5.752345562E0,2.383251429E0,7.259823799E0
4.987345000E-3,-5.642275810E0,2.270788670E0,6.996613503E0
9.836981000E-3,-5.568098068E0,2.246860504E0,6.841079712E0
1.468682500E-2,-5.577669621E0,2.414358139E0,6.671189308E0
1.953656400E-2,-5.651846886E0,2.550748825E0,6.735795975E0
2.438630400E-2,-5.678168297E0,2.739781857E0,6.881757736E0
2.923604300E-2,-5.666203976E0,2.888136864E0,7.121040344E0
3.408578300E-2,-5.582455158E0,3.036491871E0,7.427321434E0
3.893547000E-2,-5.424529076E0,3.096312523E0,7.731209755E0
4.378521000E-2,-5.173282623E0,3.055634499E0,8.037490845E0
4.863495000E-2,-4.689932346E0,3.007778168E0,8.336593628E0
5.348468900E-2,-4.187439442E0,2.873780012E0,8.571090698E0
5.833442900E-2,-3.687339783E0,2.746960402E0,8.645268440E0
6.318416800E-2,-3.256631613E0,2.591426849E0,8.595019341E0
6.803390800E-2,-2.962314367E0,2.462214470E0,8.542376518E0
7.288364700E-2,-2.758924484E0,2.376072884E0,8.583054543E0
7.773333500E-2,-2.548356056E0,2.249253273E0,8.738588333E0
8.258307500E-2,-2.459821701E0,2.127219439E0,8.915657043E0
8.743281400E-2,-2.533999205E0,1.926222205E0,9.037691116E0
9.228255400E-2,-2.684746981E0,1.686939955E0,9.171689034E0
9.713229300E-2,-2.861815929E0,1.406979680E0,9.348757744E0
1.019820330E-1,-2.962314367E0,1.191625714E0,9.525827408E0
1.068317720E-1,-3.110669374E0,1.055234790E0,9.930213928E0
1.116814600E-1,-3.330809116E0,8.590233326E-1,1.010728264E1
1.165312000E-1,-3.404986620E0,6.412764788E-1,1.013360405E1
1.213809390E-1,-3.483949661E0,4.737788737E-1,1.017188931E1
1.262306790E-1,-3.419343472E0,3.589234054E-1,1.019342422E1
1.310804180E-1,-3.215953588E0,3.373879790E-1,1.016471100E1
1.359301580E-1,-3.053241730E0,3.780659735E-1,1.021974564E1
1.407798970E-1,-2.890529871E0,4.546363056E-1,1.019581699E1
1.456296370E-1,-2.586641312E0,5.647061467E-1,1.027717304E1
1.504793770E-1,-2.232503414E0,6.723831892E-1,1.010488987E1
1.553290640E-1,-1.875972986E0,8.518448472E-1,9.987641335E0
1.601788040E-1,-1.605584025E0,1.016949654E0,9.851250648E0
1.650285430E-1,-1.457229018E0,1.119840980E0,9.669396400E0
1.698782830E-1,-1.366301775E0,1.198804140E0,9.544969559E0
1.747280220E-1,-1.459621787E0,1.201196909E0,9.432506561E0
1.795777620E-1,-1.684547186E0,1.227517962E0,9.327222824E0
1.844275020E-1,-1.931007862E0,1.256231904E0,9.121439934E0
1.892772410E-1,-1.998006940E0,1.270588875E0,8.958727837E0
1.941269810E-1,-1.830509305E0,1.282552958E0,8.958727837E0
1.989767200E-1,-1.887937069E0,1.301695466E0,9.119047165E0
2.038264600E-1,-1.904686809E0,1.323230863E0,9.075976372E0
2.086761470E-1,-1.780260086E0,1.416550994E0,9.061619759E0
2.135258870E-1,-1.615155339E0,1.454836130E0,9.028120041E0
2.183756270E-1,-1.517049551E0,1.464407444E0,8.977870941E0
2.232253660E-1,-1.330409408E0,1.524227977E0,9.052047729E0
2.280751060E-1,-1.074377418E0,1.610369682E0,9.387042999E0
2.329248450E-1,-9.571290612E-1,1.605584025E0,9.717252731E0
2.377745850E-1,-9.116654396E-1,1.550549030E0,9.743574142E0
2.426243250E-1,-8.757730722E-1,1.473978758E0,9.604789734E0
2.473813040E-1,-8.853443861E-1,1.351944804E0,9.564111710E0
2.521359910E-1,-5.288137794E-1,8.733802438E-1,9.413364410E0
2.568906790E-1,-3.996013701E-1,3.948157430E-1,9.336793900E0
2.616453660E-1,-1.033699393E0,1.507478207E-1,9.580862045E0
2.664000020E-1,-1.490728498E0,6.699903309E-2,9.600004196E0
2.711546890E-1,-1.533799291E0,1.100698411E-1,9.104690552E0
2.759093770E-1,-1.457229018E0,1.220339537E-1,8.719446182E0
2.806640640E-1,-1.545763373E0,1.220339537E-1,8.779266357E0
2.854187520E-1,-1.670190215E0,1.172483116E-1,8.989834785E0
2.901734390E-1,-1.648654819E0,1.076770201E-1,9.040083885E0
2.949281270E-1,-1.588834286E0,-2.632104978E-2,8.970691681E0
2.996828140E-1,-1.495514154E0,-2.249253243E-1,8.867800713E0
3.044375020E-1,-1.471585870E0,-2.584248483E-1,8.841479301E0
3.091921890E-1,-1.447657704E0,-1.674975902E-1,8.910871506E0
3.139468770E-1,-1.387837172E0,-3.110669367E-2,9.092725754E0
3.187015640E-1,-1.342373490E0,1.339980662E-1,9.260223389E0
3.234562520E-1,-1.299302697E0,2.177468538E-1,9.372686386E0
3.282109390E-1,-1.225125194E0,3.110669553E-1,9.446864128E0
3.329656270E-1,-1.131805062E0,3.876372576E-1,9.499505997E0
3.377203140E-1,-9.619147182E-1,4.594219327E-1,9.504291534E0
3.424750020E-1,-7.585247755E-1,5.288137794E-1,9.444471359E0
3.472296890E-1,-5.527420044E-1,5.910272002E-1,9.372686386E0
3.519843250E-1,-2.895315289E-1,5.862415433E-1,9.348757744E0
3.567390120E-1,-8.614161611E-2,5.647061467E-1,9.351150513E0
3.614937000E-1,1.220339537E-1,5.168496966E-1,9.432506561E0
3.662483870E-1,2.584248483E-1,4.570291340E-1,9.556933403E0
3.710030750E-1,3.086741269E-1,3.445664644E-1,9.688538551E0
3.757577620E-1,2.775674164E-1,2.273181528E-1,9.887143135E0
3.805124500E-1,1.579262912E-1,1.698904037E-1,1.015274620E1
3.852671370E-1,7.896314561E-2,1.770688742E-1,1.046620655E1
3.900218250E-1,-2.632104978E-2,2.297109663E-1,1.073180962E1
3.947765120E-1,-4.067798331E-2,2.799602449E-1,1.079641533E1
3.995312000E-1,-5.503492057E-2,3.589234054E-1,1.069830990E1
4.042858870E-1,-7.417750359E-2,5.240281820E-1,1.061216831E1
4.090405750E-1,-1.579262912E-1,6.460621357E-1,1.058345413E1
4.137952620E-1,-3.086741269E-1,7.178468108E-1,1.054277611E1
4.185499500E-1,-7.226324677E-1,6.317051649E-1,1.033220863E1
4.233046370E-1,-8.374879360E-1,5.312066078E-1,1.038485050E1
4.280593250E-1,-8.422735929E-1,4.737788737E-1,1.047338486E1
4.328140120E-1,-6.867401004E-1,6.245267391E-1,1.070788097E1
4.375687000E-1,-6.269195080E-1,6.891329288E-1,1.090887833E1
4.423233870E-1,-5.694918036E-1,5.599204898E-1,1.105484104E1
4.470780750E-1,-4.977070987E-1,3.852444589E-1,1.120798111E1
4.518327620E-1,-2.679961324E-1,6.699903309E-2,1.117448139E1
4.565874500E-1,1.746760458E-1,-3.589234054E-1,1.105962658E1
4.613421370E-1,7.465606928E-1,-7.393822074E-1,1.090170002E1
4.660968250E-1,1.263410330E0,-9.475577474E-1,1.074855900E1
4.708515120E-1,1.677368641E0,-1.062413216E0,1.057866859E1
4.756062000E-1,2.033899307E0,-1.117448211E0,1.046142101E1
4.803608870E-1,2.287538528E0,-9.020941257E-1,1.051645565E1
4.851155750E-1,2.172683001E0,-3.445664644E-1,1.041117096E1
4.898702620E-1,1.811366796E0,3.182454109E-1,1.006899738E1
4.946249500E-1,1.572084427E0,9.643075466E-1,9.683753014E0
4.993796370E-1,1.418943882E0,1.383051515E0,9.343972206E0
5.041343250E-1,1.239482164E0,1.500299811E0,9.023334503E0
5.088890120E-1,1.038485050E0,1.330409408E0,8.743373871E0
5.136437000E-1,8.925228715E-1,1.038485050E0,8.640482903E0
5.183983870E-1,6.412764788E-1,6.436693072E-1,8.707481384E0
5.231530750E-1,3.876372576E-1,1.914258152E-1,8.750552177E0
5.279077620E-1,3.708875179E-1,-2.536391914E-1,8.817551613E0
5.326624500E-1,3.421736360E-1,-4.378865361E-1,8.939585686E0
5.374171370E-1,1.363908947E-1,-3.541377485E-1,8.752944946E0
5.421718250E-1,-1.196411345E-2,-2.823530734E-1,8.453842163E0
5.469265120E-1,7.178467698E-3,-2.392822690E-2,8.233702660E0
5.516812000E-1,2.225325108E-1,5.742774159E-2,7.877171993E0
5.564358870E-1,2.632105052E-1,3.972085714E-1,7.661818027E0
5.611905750E-1,4.115654826E-1,5.862415433E-1,7.470392227E0
5.659452620E-1,5.910272002E-1,6.699903607E-1,7.271788120E0
5.706999500E-1,9.092726111E-1,6.293123364E-1,7.267002583E0
5.754546370E-1,1.272981644E0,6.484549642E-1,7.527820110E0
5.802093250E-1,1.404586911E0,7.824530005E-1,7.925028801E0
5.849640120E-1,1.040877819E0,4.019941986E-1,8.327022552E0
5.897187000E-1,1.150947690E0,5.024927258E-1,8.621339798E0
5.944733870E-1,1.418943882E0,7.441678643E-1,8.805587769E0
5.992280750E-1,1.751546144E0,1.045663476E0,9.090332985E0
6.039827620E-1,2.136790514E0,8.733802438E-1,8.836693764E0
6.087374500E-1,1.806581140E0,1.318445325E0,8.748159409E0
6.134921370E-1,1.706082582E0,1.567298889E0,8.456234932E0
6.182468250E-1,1.670190215E0,1.631905079E0,8.087740898E0
6.230015120E-1,2.062613010E0,1.440479279E0,7.807780266E0
6.277562000E-1,2.242074728E0,1.325623751E0,7.664210796E0
6.325108870E-1,2.067398787E0,1.361516118E0,7.637889862E0
6.372655750E-1,1.756331801E0,1.342373490E0,7.740781307E0
6.420202620E-1,1.567298889E0,1.198804140E0,7.893921852E0
6.467749500E-1,1.607976794E0,9.714859724E-1,8.032705307E0
6.515296370E-1,1.622333765E0,7.633104324E-1,8.233702660E0
6.562843250E-1,1.634297848E0,6.269195080E-1,8.650053978E0
6.610390640E-1,1.691725612E0,6.388836503E-1,9.154939651E0
6.657937520E-1,1.797009826E0,5.958128572E-1,9.719645500E0
6.705484390E-1,1.950150490E0,5.144568682E-1,1.022213840E1
6.753031270E-1,1.579262972E0,9.308080077E-1,1.046381378E1
6.800578140E-1,1.907079697E0,9.834501147E-1,1.039681435E1
6.848125020E-1,2.340180635E0,9.667003751E-1,1.013838959E1
6.895671890E-1,2.720639229E0,1.110269666E0,9.786644936E0
6.943218770E-1,3.022135019E0,1.351944804E0,9.200403214E0
6.990765640E-1,3.192025423E0,1.584048629E0,8.468199730E0
7.038312520E-1,3.500699520E0,1.708475351E0,7.647460938E0
7.085859390E-1,3.967299938E0,1.674975872E0,6.965506554E0
7.133406270E-1,4.103690624E0,1.873580098E0,6.692724705E0
7.180953140E-1,4.285545349E0,2.110469580E0,6.750152588E0
7.228500020E-1,3.998406649E0,2.610569477E0,6.884150982E0
7.276046890E-1,3.292523861E0,3.242274761E0,6.941578388E0
7.323593770E-1,3.699303865E0,2.873780012E0,7.202396393E0
7.371141160E-1,3.900300980E0,2.292324066E0,7.451249599E0
7.418688040E-1,4.034298897E0,1.550549030E0,7.384250641E0
7.466234910E-1,3.426522017E0,1.521835208E0,7.800601959E0
7.513781790E-1,3.543770313E0,1.055234790E0,7.613961697E0
7.561328660E-1,2.912065268E0,1.320838094E0,8.121239662E0
7.608875540E-1,2.825923443E0,1.289731383E0,8.264809608E0
7.656422410E-1,3.136990547E0,1.103091240E0,8.506484032E0
7.703969290E-1,3.452843189E0,1.043270707E0,8.673981667E0
7.751516160E-1,3.684946775E0,1.165304661E0,8.630910873E0
7.799063040E-1,4.007977962E0,1.426122308E0,8.353343964E0
7.846609910E-1,4.479363918E0,1.753939033E0,7.903493404E0
7.894156790E-1,4.749752998E0,2.184647083E0,7.470392227E0
7.941704180E-1,4.943571568E0,2.476571321E0,7.238288403E0
7.989251060E-1,5.120640278E0,2.651247501E0,7.092326164E0
8.036797930E-1,5.225924492E0,2.660818815E0,7.044469833E0
8.084344810E-1,5.359922886E0,2.569891453E0,6.958328247E0
8.131891680E-1,5.649454117E0,2.421536446E0,7.202396393E0
8.179438560E-1,5.941378593E0,2.390429735E0,7.537391186E0
8.226985430E-1,6.032305717E0,2.423929453E0,7.798209190E0
8.274532310E-1,6.084948063E0,2.385644197E0,8.094919205E0
8.322079180E-1,5.938985825E0,2.356930256E0,8.255238533E0
8.369626580E-1,5.721239090E0,2.258824587E0,8.283951759E0
8.417173450E-1,5.472385406E0,2.244467735E0,8.274380684E0
8.464720330E-1,5.254638672E0,2.342573404E0,8.121239662E0
8.512267200E-1,5.247459888E0,2.493321180E0,7.848458290E0
8.559814080E-1,5.489135265E0,2.627319336E0,7.393822193E0
8.607360950E-1,5.776273727E0,2.749353170E0,7.044469833E0
8.654907830E-1,5.943771362E0,2.890529871E0,6.958328247E0
8.702454700E-1,6.113661766E0,2.945564747E0,7.106683254E0
8.750001580E-1,6.357729912E0,2.897708178E0,7.563712597E0
8.797548970E-1,6.484549522E0,2.902493954E0,8.145168304E0
8.845095850E-1,6.506084919E0,2.813959360E0,8.611768723E0
8.892642720E-1,6.486942291E0,2.708675146E0,8.918049812E0
8.940189600E-1,6.458228111E0,2.593819857E0,9.092725754E0
8.987736470E-1,6.424728870E0,2.545963287E0,9.207581520E0
9.035283350E-1,6.424728870E0,2.584248543E0,9.288937569E0
9.082830750E-1,6.448657036E0,2.600998163E0,9.291330338E0
9.130377620E-1,6.467799664E0,2.612962246E0,9.119047165E0
9.177924500E-1,6.570691109E0,2.577069998E0,8.870193481E0
9.225471370E-1,6.709474564E0,2.560320139E0,8.525627136E0
9.273018250E-1,6.920042992E0,2.577069998E0,8.123632431E0
9.320565120E-1,7.056434155E0,2.713460922E0,7.724031448E0
9.368112000E-1,7.188039303E0,2.921636343E0,7.341179848E0
9.415659390E-1,7.377072334E0,3.081955671E0,7.152146816E0
9.463206270E-1,7.544569969E0,3.175275564E0,7.171289444E0
9.510753140E-1,7.633104324E0,3.254238844E0,7.276573658E0
9.558300020E-1,7.668996811E0,3.256631613E0,7.432106972E0
9.605846890E-1,7.680960655E0,3.220739365E0,7.625925541E0
9.653393770E-1,7.578069210E0,3.232703447E0,7.793423176E0
9.700940640E-1,7.432106972E0,3.187239647E0,7.905886173E0
9.748488040E-1,7.389036179E0,3.058027267E0,8.061419487E0
9.796034910E-1,7.326822758E0,2.912065268E0,8.087740898E0
9.843581790E-1,7.183253765E0,2.890529871E0,7.975277901E0
9.891128660E-1,7.109076023E0,2.861815929E0,7.733603001E0
9.938675540E-1,7.094718933E0,2.842673302E0,7.506284714E0
9.986222410E-1,7.195217609E0,2.847458839E0,7.365108013E0
1.003376929E0,7.374679565E0,2.871387243E0,7.405786037E0
1.008131668E0,7.489534855E0,2.933600664E0,7.448856831E0
1.012886356E0,7.692924976E0,2.974278450E0,7.566105366E0
1.017641043E0,7.929814339E0,2.971885681E0,7.781459332E0
1.022395731E0,8.068597794E0,2.959921598E0,8.023134232E0
1.027150418E0,8.082955360E0,2.914458036E0,8.152346611E0
1.031905158E0,8.111668587E0,2.883351326E0,8.283951759E0
1.036659845E0,8.032705307E0,2.763710260E0,8.384450912E0
1.041414533E0,7.934599876E0,2.622533560E0,8.398807526E0
1.046169220E0,7.807780266E0,2.471785784E0,8.310273170E0
1.050923908E0,7.685746193E0,2.316252232E0,8.226524353E0
1.055678595E0,7.671389580E0,2.196611166E0,8.255238533E0
1.060433335E0,7.712067604E0,2.139183521E0,8.319844246E0
1.065188022E0,7.630711555E0,2.079362869E0,8.338987350E0
1.069942710E0,7.403393269E0,2.048256159E0,8.286344528E0
1.074697397E0,7.255038261E0,1.971685886E0,8.195417404E0
1.079452085E0,7.156932354E0,1.832902193E0,8.059026718E0
1.084206825E0,7.030112743E0,1.725225091E0,7.798209190E0
1.088961512E0,6.888936520E0,1.670190215E0,7.460821152E0
1.093716200E0,6.841079712E0,1.648654819E0,7.109076023E0
1.098470887E0,6.874579430E0,1.607976794E0,6.793223381E0
1.103225575E0,7.006184578E0,1.581655741E0,6.556334019E0
1.107980314E0,7.367500782E0,1.509871125E0,6.556334019E0
1.112735002E0,7.735995770E0,1.502692580E0,6.802794933E0
1.117489689E0,7.886743546E0,1.631905079E0,7.104290485E0
1.122244377E0,7.915457249E0,1.744367719E0,7.338787079E0
1.126999064E0,7.881958008E0,1.763510346E0,7.499105930E0
1.131753804E0,7.819744587E0,1.639083505E0,7.542177200E0
1.136508491E0,7.767102242E0,1.495514154E0,7.546962738E0
1.141263179E0,7.635497093E0,1.411765337E0,7.582854748E0
1.146017866E0,7.439285755E0,1.351944804E0,7.640282631E0
1.150772554E0,7.259823799E0,1.294517040E0,7.702496052E0
1.155527293E0,6.927221775E0,1.270588875E0,7.628318787E0
1.160281981E0,6.817151546E0,1.067198873E0,7.467999458E0
1.165036668E0,6.613761902E0,8.973084688E-1,7.295716286E0
1.169791356E0,6.726224422E0,6.245267391E-1,7.171289444E0
1.174546095E0,6.896114826E0,4.881358147E-1,7.166503906E0
1.179300783E0,6.982256413E0,6.077769399E-1,7.171289444E0
1.184055470E0,6.539584160E0,8.111668825E-1,7.133004189E0
1.188810158E0,6.723831654E0,8.949156404E-1,7.250252724E0
1.193564845E0,6.740581512E0,9.882357717E-1,7.511070251E0
1.198319585E0,6.821937561E0,9.164510965E-1,7.738388538E0
1.203074272E0,7.123433113E0,7.752745152E-1,7.865208149E0
1.207828960E0,7.300501823E0,7.752745152E-1,7.936992645E0
1.212583647E0,7.405786037E0,8.829515576E-1,7.903493404E0
1.217338387E0,7.362715244E0,1.012163997E0,7.795815945E0
1.222093075E0,7.235895634E0,1.045663476E0,7.695317745E0
1.226847762E0,7.109076023E0,1.052842021E0,7.491927624E0
1.231602450E0,6.891329288E0,1.093519926E0,7.180860519E0
1.236357189E0,6.630511761E0,1.107876897E0,6.798008919E0
1.241111877E0,6.173482418E0,1.208375454E0,6.403193474E0
1.245866564E0,6.058627129E0,1.234696507E0,5.946164131E0
1.250621252E0,6.051448345E0,1.318445325E0,5.529813290E0
1.255375991E0,6.271588326E0,1.538584948E0,5.027320385E0
1.260130679E0,6.508477688E0,1.887937069E0,4.644468784E0
1.264885366E0,6.666403770E0,2.098505497E0,4.225724697E0
1.269640054E0,6.936792850E0,2.400001049E0,4.208974838E0
1.274394793E0,8.276773453E0,2.096112728E0,3.835694790E0
1.279149481E0,8.968298912E0,2.057827473E0,4.048655987E0
1.283904168E0,9.399007797E0,2.182254314E0,4.649254322E0
1.288658856E0,1.005464077E1,2.306680918E0,5.173282623E0
1.293413595E0,1.066481018E1,2.397608280E0,5.422136307E0
1.298168283E0,1.097827053E1,2.486142635E0,5.446064472E0
1.302922970E0,1.127737331E1,2.543570518E0,5.328815937E0
1.307677658E0,1.157886887E1,2.562713146E0,5.053641319E0
1.312432397E0,1.179900837E1,2.608176708E0,4.596612453E0
1.317187085E0,1.177986622E1,2.744567633E0,3.972085476E0
1.321941772E0,1.158604717E1,2.859423161E0,3.235096216E0
1.326696460E0,1.140658569E1,2.880958557E0,2.510071039E0
1.331451200E0,1.127498055E1,2.785245657E0,1.890329838E0
1.336205887E0,1.118166065E1,2.677568436E0,1.387837172E0
1.340960575E0,1.099262714E1,2.581855536E0,1.036092162E0
1.345715314E0,1.078205872E1,2.423929453E0,7.202396393E-1
1.350470002E0,1.055474091E1,2.232503414E0,3.038884699E-1
1.355224689E0,1.013599682E1,1.969292998E0,2.297109663E-1
1.359979377E0,9.736394882E0,1.631905079E0,7.657032460E-2
1.364734116E0,9.477970123E0,1.318445325E0,-1.220339537E-1
1.369488804E0,9.738788605E0,5.527420044E-1,-2.256431818E0
1.374243491E0,9.638289452E0,5.742774159E-2,-4.979464054E0
1.378998231E0,9.511469841E0,-4.307080805E-2,-5.522634506E0
1.383752918E0,8.437092781E0,2.488535494E-1,-5.027320385E0
1.388507606E0,7.805387497E0,9.571290761E-2,-4.457828522E0
1.393262293E0,7.472784996E0,-4.187439680E-1,-3.885943890E0
1.398017033E0,6.632904530E0,-9.858429432E-1,-3.237488985E0
1.402771720E0,6.159125328E0,-1.098305583E0,-1.976471543E0
1.407526408E0,6.032305717E0,-9.571290612E-1,9.092725813E-2
1.412281095E0,6.635297298E0,-1.311266780E0,2.146361828E0
1.417035835E0,8.551948547E0,-1.543370605E0,5.118247509E0
1.421790522E0,1.030588722E1,-2.242074728E0,5.860022545E0
1.426545210E0,1.084905815E1,-2.663211584E0,5.393422127E0
1.431299950E0,1.050688457E1,-2.065006018E0,4.819144726E0
1.436054637E0,9.714859962E0,-1.294517040E0,4.704289436E0
1.440809325E0,9.064012527E0,-9.882357717E-1,4.146761417E0
1.445564064E0,8.654839516E0,-1.318445325E0,3.266202927E0
1.450318752E0,8.520841599E0,-1.892722726E0,2.586641312E0
1.455073439E0,8.571090698E0,-2.330609322E0,2.318645239E0
1.459828179E0,8.767302513E0,-2.526820660E0,2.151147604E0
1.464582866E0,9.198010445E0,-2.660818815E0,1.964507341E0
1.469337554E0,9.683753014E0,-2.703889608E0,1.581655741E0
1.474092293E0,1.033220863E1,-2.617748022E0,1.251446247E0
1.478846981E0,1.104287624E1,-2.268395901E0,8.997012973E-1
1.483601668E0,1.144726372E1,-1.816152334E0,6.628118753E-1
1.488356408E0,1.158843994E1,-1.397408366E0,3.541377485E-1
1.493111095E0,1.142572784E1,-1.107876897E0,-3.349951655E-2
1.497865783E0,1.112662506E1,-1.038485050E0,-3.589234054E-1
1.502620470E0,1.063609695E1,-9.523434043E-1,-7.537391186E-1
1.507375210E0,1.013360405E1,-9.643075466E-1,-1.150947690E0
1.512129897E0,9.700503349E0,-1.043270707E0,-1.342373490E0
1.516884637E0,9.090332985E0,-1.052842021E0,-1.368694544E0
1.521639325E0,8.472985268E0,-1.098305583E0,-1.299302697E0
1.526394012E0,8.078168869E0,-1.155733347E0,-1.050449133E0
1.531148700E0,7.458428383E0,-1.158126116E0,-1.088734269E0
1.535903439E0,7.109076023E0,-1.246660590E0,-1.258624673E0
1.540658127E0,6.953542709E0,-1.478764415E0,-1.246660590E0
1.545412814E0,7.051648140E0,-1.672582984E0,-8.279166222E-1
1.550167554E0,7.271788120E0,-1.859223247E0,-5.838487148E-1
1.554922241E0,7.343572617E0,-2.041077614E0,-3.110669367E-2
1.559676981E0,7.039684296E0,-2.289931297E0,8.207381964E-1
1.564431668E0,6.467799664E0,-2.328216314E0,2.098505497E0
1.569186356E0,6.269195557E0,-2.581855536E0,3.450450182E0
1.573941095E0,7.216753006E0,-3.326023579E0,4.460221291E0
1.578695783E0,7.506284714E0,-3.711267948E0,5.151747227E0
1.583450470E0,7.872386456E0,-4.340580463E0,6.166304111E0
1.588205210E0,8.267202377E0,-5.158925533E0,7.128218651E0
1.592959897E0,8.417949677E0,-5.828916073E0,7.735995770E0
1.597714585E0,9.008976936E0,-6.719046116E0,8.061419487E0
1.602469325E0,1.014796066E1,-7.860422611E0,7.958528042E0
1.607224012E0,9.523433685E0,-8.030312538E0,7.432106972E0
1.611978700E0,8.807980537E0,-8.061419487E0,6.807580471E0
1.616733439E0,7.848458290E0,-7.951349735E0,6.235695839E0
1.621488127E0,6.513263226E0,-7.975277901E0,5.316852093E0
1.626242814E0,6.953542709E0,-8.286344528E0,4.725824833E0
1.630997554E0,7.494320393E0,-8.554341316E0,3.795016766E0
1.635752241E0,8.075776100E0,-8.937192917E0,2.244467735E0
1.640506981E0,8.621339798E0,-9.365508080E0,3.230310678E-1
1.645261668E0,8.965906143E0,-9.858428955E0,-1.031306505E0
1.650016356E0,8.934800148E0,-1.016471100E1,-1.749153376E0
1.654771095E0,8.788837433E0,-1.027956581E1,-1.974078655E0
1.659525783E0,8.468199730E0,-1.031785107E1,-1.962114573E0
1.664280470E0,8.307880402E0,-1.041356373E1,-1.962114573E0
1.669035210E0,8.169096947E0,-1.049970531E1,-1.873580098E0
1.673789897E0,7.934599876E0,-1.040399265E1,-1.627119422E0
1.678544637E0,7.953742504E0,-9.755537987E0,-1.172483087E0
1.683299325E0,8.334200859E0,-9.171689034E0,-7.154539824E-1
1.688054012E0,8.944371223E0,-8.793622971E0,-4.737788737E-1
1.692808752E0,8.779266357E0,-8.602197647E0,2.560320199E-1
1.697563439E0,7.731209755E0,-8.226524353E0,9.499505758E-1
1.702318127E0,7.345965385E0,-8.145168304E0,1.170090318E0
1.707072866E0,6.867401123E0,-8.032705307E0,1.536192179E0
1.711827554E0,6.506084919E0,-7.929814339E0,1.770688772E0
1.716582293E0,6.293123722E0,-7.618747234E0,2.122433662E0
1.721336981E0,5.934200287E0,-7.432106972E0,1.909472466E0
1.726091668E0,5.647061348E0,-7.317251682E0,1.418943882E0
1.730846408E0,5.558526993E0,-7.118647575E0,1.021735311E0
1.735601095E0,5.515456200E0,-6.652047157E0,7.968099117E-1
1.740355835E0,5.592026711E0,-6.317051888E0,6.891329288E-1
1.745110522E0,5.565705299E0,-5.819344521E0,3.708875179E-1
1.749865262E0,5.800201893E0,-5.347958565E0,5.742774159E-2
1.754619950E0,6.180660725E0,-5.197210789E0,-4.235295951E-1
1.759374637E0,6.781259537E0,-5.233103275E0,-7.657032609E-1
1.764129377E0,7.379465103E0,-5.312066078E0,-1.119840980E0
1.768884064E0,7.759923935E0,-5.481956482E0,-1.378265858E0
1.773638752E0,8.161917686E0,-5.682953835E0,-1.392622828E0
1.778393491E0,8.475378036E0,-5.788238049E0,-1.249053478E0
1.783148179E0,8.654839516E0,-5.721239090E0,-1.246660590E0
1.787902918E0,8.360522270E0,-5.699703693E0,-1.469193101E0
1.792657606E0,8.035098076E0,-5.740381718E0,-1.933400750E0
1.797412345E0,7.841279984E0,-5.776273727E0,-2.237289190E0
1.802167033E0,7.554141045E0,-5.697310925E0,-2.108076811E0
1.806921720E0,8.310273170E0,-5.692524910E0,-1.493121386E0
1.811676460E0,9.135796547E0,-5.594419479E0,-5.288137794E-1
1.816431147E0,9.267401695E0,-5.769095421E0,1.698904037E-1
1.821185887E0,8.262416840E0,-6.192625046E0,4.809573591E-1
1.825940575E0,6.154339790E0,-6.996613503E0,4.139583111E-1
1.830695314E0,4.809573650E0,-7.657032490E0,4.426721931E-1
1.835450002E0,5.123033047E0,-7.853243828E0,7.058826685E-1
1.840204741E0,5.534598827E0,-7.826922894E0,5.000999570E-1
1.844959429E0,5.402993679E0,-7.551748276E0,7.417750359E-2
1.849714116E0,6.118447304E0,-7.219145775E0,-1.962114573E-1
1.854468856E0,6.501298904E0,-6.946363926E0,-2.057827413E-1
1.859223543E0,6.747759819E0,-6.742974281E0,5.264209956E-2
1.863978283E0,6.932007313E0,-6.379265308E0,3.158525825E-1
1.868732970E0,7.149754047E0,-6.020341873E0,4.929214716E-1
1.873487710E0,7.444071293E0,-5.558526993E0,7.082754970E-1
1.878242397E0,7.834101200E0,-5.137390137E0,9.355936646E-1
1.882997137E0,8.159524918E0,-4.850251675E0,1.026520967E0
1.887751825E0,8.587840080E0,-4.692325115E0,1.103091240E0
1.892506564E0,9.257830620E0,-4.768895626E0,1.227517962E0
1.897261252E0,9.205188751E0,-4.857429981E0,1.198804140E0
1.902015939E0,8.669196129E0,-5.032105923E0,9.068797827E-1
1.906770679E0,8.544769287E0,-5.659025669E0,6.197410822E-1
1.911525366E0,8.133204460E0,-6.029912949E0,7.106683254E-1
1.916280106E0,7.544569969E0,-6.058627129E0,9.308080077E-1
1.921034793E0,7.027719975E0,-6.206982136E0,1.150947690E0
1.925789533E0,6.384050846E0,-6.357729912E0,1.576870084E0
1.930544220E0,5.790630817E0,-6.652047157E0,1.837687731E0
1.935298960E0,5.235496044E0,-6.946363926E0,1.978864312E0
1.940053647E0,4.838287354E0,-7.379465103E0,2.160718918E0
1.944808387E0,4.646861553E0,-7.757531166E0,2.292324066E0
1.949563075E0,4.534399033E0,-8.214560509E0,2.333002090E0
1.954317814E0,4.613361835E0,-8.650053978E0,2.055434704E0
1.959072502E0,4.709074974E0,-9.238688469E0,1.725225091E0
1.963827241E0,4.749752998E0,-9.657432556E0,1.368694544E0
1.968581929E0,4.560719967E0,-9.868000984E0,1.143769264E0
1.973336668E0,4.256831646E0,-1.013121128E1,7.226324677E-1
1.978091356E0,4.039084435E0,-1.019103146E1,8.853443712E-2
1.982846095E0,3.792623997E0,-1.018385315E1,-6.867401004E-1
1.987600783E0,3.517449379E0,-1.007856941E1,-1.438086390E0
1.992355522E0,3.043670416E0,-1.011206818E1,-2.177468538E0
1.997110210E0,2.711068153E0,-1.014796066E1,-2.730210543E0
2.001864950E0,2.593819857E0,-9.994820595E0,-3.043670416E0
2.006619637E0,2.830709219E0,-9.726823807E0,-2.928814888E0
2.011374377E0,3.242274761E0,-9.379864693E0,-2.493321180E0
2.016129064E0,3.833301783E0,-9.207581520E0,-2.081755638E0
2.020883804E0,4.364508629E0,-8.736195564E0,-1.636690736E0
2.025638491E0,5.096712112E0,-8.343772888E0,-1.225125194E0
2.030393231E0,5.922235966E0,-8.099704742E0,-7.896314859E-1
2.035147970E0,6.407979012E0,-7.671389580E0,-3.661018610E-1
2.039902658E0,6.936792850E0,-7.384250641E0,1.674975827E-2
2.044657345E0,7.185646534E0,-7.037291527E0,2.679961324E-1
2.049412085E0,7.269395351E0,-6.790830612E0,4.307080805E-1
2.054166825E0,7.233502865E0,-6.759724140E0,5.216353536E-1
2.058921512E0,7.039684296E0,-6.826723099E0,4.905286431E-1
2.063676252E0,6.831508636E0,-6.910471916E0,2.847459018E-1
2.068430939E0,6.716653347E0,-6.958328247E0,-3.349951655E-2
2.073185679E0,6.637690067E0,-7.003791809E0,-4.283152521E-1
2.077940366E0,6.573083878E0,-6.955935478E0,-7.178468108E-1
2.082695106E0,6.520441532E0,-6.853044033E0,-9.140582681E-1
2.087449793E0,6.439085960E0,-6.620940208E0,-9.810572863E-1
2.092204533E0,6.278766632E0,-6.396014690E0,-1.007378340E0
2.096959272E0,5.582455158E0,-5.867201328E0,-1.167697430E0
2.101713960E0,5.295316696E0,-5.458028316E0,-1.081555843E0
2.106468700E0,5.367101192E0,-5.295316696E0,-6.508477330E-1
2.111223387E0,5.675775528E0,-5.120640278E0,-2.392822653E-1
2.115978127E0,5.788238049E0,-5.060820103E0,1.627119333E-1
2.120732866E0,5.833701611E0,-5.120640278E0,4.043870270E-1
2.125487554E0,5.843272686E0,-5.020142078E0,5.694918036E-1
2.130242293E0,5.761917114E0,-5.015356064E0,5.359922647E-1
2.134996981E0,5.639883041E0,-5.158925533E0,6.747759581E-1
2.139751720E0,5.335994720E0,-5.340780258E0,7.585247755E-1
2.144506408E0,4.060619831E0,-5.364708424E0,5.886343718E-1
2.149261147E0,1.813759565E0,-4.680361271E0,-9.571290761E-2
2.154015887E0,2.103291035E0,-5.927021503E0,-1.622333765E0
2.158770575E0,2.816352367E0,-7.003791809E0,-3.108276606E0
2.163525314E0,3.778266907E0,-8.142775536E0,-3.519842148E0
2.168280002E0,5.197210789E0,-9.145368576E0,-3.704089403E0
2.173034741E0,6.678368092E0,-9.963713646E0,-3.294916868E0
2.177789429E0,6.309873104E0,-9.547362328E0,-2.974278450E0
2.182544168E0,4.543970108E0,-7.688138962E0,-2.622533560E0
2.187298908E0,4.335794449E0,-7.984848976E0,-1.952543259E0
2.192053595E0,4.565505505E0,-9.372686386E0,-5.910272002E-1
2.196808335E0,4.505684853E0,-9.908679008E0,2.249253243E-1
2.201563075E0,4.046263218E0,-9.355937004E0,1.603191197E-1
2.206317762E0,3.797409534E0,-8.638090134E0,-3.182454109E-1
2.211072502E0,4.022335052E0,-8.676374435E0,-6.173482537E-1
2.215827189E0,3.670589924E0,-8.279166222E0,-7.417750359E-1
2.220581929E0,3.151347399E0,-7.642675400E0,-6.245267391E-1
2.225336616E0,2.711068153E0,-7.436892986E0,-4.019941986E-1
2.230091356E0,2.213361025E0,-7.556533813E0,-2.297109663E-1
2.234846095E0,1.892722726E0,-7.927421570E0,-1.603191197E-1
2.239600783E0,1.954936147E0,-8.530412674E0,5.264209956E-2
2.244355522E0,1.974078655E0,-9.329615593E0,-9.332008660E-2
2.249110262E0,2.170290232E0,-1.019581699E1,-4.785645287E-3
2.253864950E0,2.624926329E0,-1.100937653E1,3.038884699E-1
2.258619689E0,3.199203968E0,-1.184207916E1,1.292124242E-1
2.263374429E0,3.940979004E0,-1.264128208E1,-4.426721931E-1
2.268129116E0,4.211368084E0,-1.304327583E1,-8.662018180E-1
2.272883856E0,4.479363918E0,-1.329212952E1,-1.016949654E0
2.277638595E0,4.625326157E0,-1.307916832E1,-1.217946768E0
2.282393283E0,4.965106964E0,-1.268674564E1,-1.552941918E0
2.287148022E0,5.158925533E0,-1.164826107E1,-1.751546144E0
2.291902762E0,4.788038254E0,-1.063609695E1,-1.584048629E0
2.296657450E0,4.986642361E0,-1.029153061E1,-1.380658627E0
2.301412189E0,4.811966419E0,-9.655039787E0,-9.690931439E-1
2.306166929E0,4.704289436E0,-9.202795982E0,-5.072783828E-1
2.310921616E0,4.661218643E0,-9.198010445E0,-1.292124242E-1
2.315676356E0,4.902893543E0,-9.454042435E0,-5.742774159E-2
2.320431043E0,4.280759811E0,-9.353543282E0,-2.871387079E-2
2.325185783E0,4.570291042E0,-1.011206818E1,3.996013701E-1
2.329940522E0,3.804588079E0,-1.012403297E1,6.293123364E-1
2.334695210E0,2.845066071E0,-1.050927734E1,1.043270707E0
2.339449950E0,1.866401672E0,-1.083470058E1,1.497906923E0
2.344204689E0,-2.665604353E0,-9.207581520E0,1.258624673E0
2.348959429E0,-1.852044702E0,-1.051167011E1,6.987041831E-1
2.353714116E0,-2.139183521E0,-1.052124119E1,-4.785645287E-3
2.358468856E0,-2.770888567E0,-1.039681435E1,-3.254238665E-1
2.363223595E0,-2.947957516E0,-9.863214493E0,-5.527420044E-1
2.367978283E0,-2.165504456E0,-9.480362892E0,-1.409372568E0
2.372733022E0,-1.911865234E0,-8.611768723E0,-1.586441398E0
2.377487762E0,-1.584048629E0,-8.030312538E0,-1.660618901E0
2.382242450E0,-1.227517962E0,-7.587640762E0,-1.450050473E0
2.386997189E0,-1.088734269E0,-7.015756130E0,-1.038485050E0
2.391751929E0,-5.838487148E-1,-6.836294174E0,-5.503492355E-1
2.396506668E0,-4.235295951E-1,-7.056434155E0,-7.178467698E-3
2.401261356E0,5.024927482E-2,-8.114061356E0,4.953143001E-1
2.406016095E0,4.642075896E-1,-9.513862610E0,9.571290612E-1
2.410770835E0,9.379864931E-1,-1.099262714E1,1.445264935E0
2.415525522E0,1.057627559E0,-1.227039433E1,1.875972986E0
2.420280262E0,1.548156261E0,-1.331127262E1,1.933400750E0
2.425035002E0,2.536391973E0,-1.438086414E1,2.127219439E0
2.429789741E0,3.517449379E0,-1.500299835E1,2.036292076E0
2.434544429E0,4.125226021E0,-1.539063549E1,1.751546144E0
2.439299168E0,4.857429981E0,-1.596491241E1,1.174875975E0
2.444053908E0,5.716453075E0,-1.679282951E1,7.896314859E-1
2.448808595E0,6.211767673E0,-1.730249977E1,5.335994363E-1
2.453563335E0,4.027120590E0,-1.581177235E1,2.799602449E-1
2.458318075E0,2.624926329E0,-1.444546986E1,-2.967100143E-1
2.463072814E0,1.572084427E0,-1.321316624E1,-5.718846321E-1
2.467827502E0,6.436693072E-1,-1.210289669E1,-3.661018610E-1
2.472582241E0,3.661018610E-1,-1.109551907E1,1.674975827E-2
2.477336981E0,4.426721931E-1,-1.029392338E1,2.943171859E-1
2.482091720E0,3.230310678E-1,-9.868000984E0,5.455635786E-1
2.486846408E0,4.666004181E-1,-9.695717812E0,7.034898400E-1
2.491601147E0,6.364908218E-1,-9.736394882E0,7.992027402E-1
2.496355887E0,6.125625968E-1,-9.805787086E0,9.284151793E-1
2.501110627E0,2.919243574E-1,-1.002592659E1,1.167697430E0
2.505865314E0,-9.092725813E-2,-1.028674412E1,1.670190215E0
2.510620054E0,-6.101697683E-1,-1.025803089E1,2.294716835E0
2.515374793E0,-1.332802176E0,-9.592825890E0,3.014956474E0
2.520129533E0,-2.289931297E0,-9.667003632E0,3.223132133E0
2.524884220E0,-3.278167009E0,-1.023888779E1,2.438286304E0
2.529638960E0,-4.079762459E0,-1.100219822E1,1.325623751E0
2.534393700E0,-4.431507587E0,-1.181815147E1,-1.938186288E-1
2.539148439E0,-4.476971149E0,-1.223928738E1,-1.538584948E0
2.543903179E0,-4.170690060E0,-1.204786205E1,-2.376072884E0
2.548657866E0,-3.799802303E0,-1.135633659E1,-2.586641312E0
2.553412606E0,-3.421736479E0,-1.054277611E1,-2.368894339E0
2.558167345E0,-2.749353170E0,-9.528220177E0,-1.765903115E0
2.562922085E0,-1.880758643E0,-8.484949112E0,-1.081555843E0
2.567676825E0,-1.091127157E0,-7.649854183E0,-1.674975902E-1
2.572431512E0,-5.192425251E-1,-7.147361279E0,6.484549642E-1
2.577186252E0,-2.943171859E-1,-7.077969551E0,1.533799291E0
2.581940991E0,-4.307080805E-2,-7.101897717E0,2.189432621E0
2.586695731E0,3.852444589E-1,-7.111468792E0,2.634497643E0
2.591450470E0,8.518448472E-1,-7.123433113E0,2.806781054E0
2.596205158E0,1.167697430E0,-7.219145775E0,2.787638426E0
2.600959897E0,1.201196909E0,-7.278966427E0,2.629712105E0
2.605714637E0,1.182054400E0,-7.377072334E0,2.294716835E0
2.610469377E0,1.385444283E0,-7.477570534E0,1.651047587E0
2.615224116E0,1.746760488E0,-7.721638680E0,1.021735311E0
2.619978804E0,2.349751949E0,-7.905886173E0,5.766702294E-1
2.624733543E0,2.562713146E0,-8.149953842E0,5.455635786E-1
2.629488283E0,2.349751949E0,-8.563912392E0,7.034898400E-1
2.634243022E0,2.227717876E0,-8.513663292E0,9.451649189E-1
2.638997762E0,2.019542217E0,-7.963313580E0,9.930213690E-1
2.643752502E0,1.789831281E0,-7.936992645E0,1.083948612E0
2.648507189E0,2.256431818E0,-8.590232849E0,6.843472719E-1
2.653261929E0,3.005385160E0,-9.293723106E0,2.225325108E-1
2.658016668E0,3.326023579E0,-9.556933403E0,1.555334777E-1
2.662771408E0,2.706282377E0,-9.415757179E0,7.489534616E-1
2.667526147E0,1.883151412E0,-9.052047729E0,1.517049551E0
2.672280887E0,1.215553880E0,-8.829515457E0,2.007578135E0
2.677035575E0,9.140582681E-1,-8.760123253E0,2.132004976E0
2.681790314E0,6.723831892E-1,-8.293522835E0,2.091326952E0
2.686545054E0,-4.331009090E-1,-8.398807526E0,2.079362869E0
2.691299793E0,-9.930213690E-1,-9.291330338E0,1.770688772E0
2.696054533E0,-4.881358147E-1,-9.966106415E0,1.363908887E0
2.700809272E0,-3.062812984E-1,-1.050209904E1,9.068797827E-1
2.705564012E0,-2.249253243E-1,-1.115773201E1,3.732803464E-1
2.710318700E0,-3.206382394E-1,-1.187797165E1,-3.924229145E-1
2.715073439E0,-7.154539824E-1,-1.214357471E1,-1.330409408E0
2.719828179E0,-8.949156404E-1,-1.224646664E1,-1.402194023E0
2.724582918E0,1.603191197E-1,-1.306241894E1,-1.217946768E0
2.729337658E0,1.148554921E0,-1.311745358E1,5.216353536E-1
2.734092397E0,1.416550994E0,-1.195454216E1,2.045863390E0
2.738847137E0,9.810572863E-1,-1.086102200E1,2.742174864E0
2.743601825E0,1.986042857E-1,-1.007856941E1,2.579462767E0
2.748356564E0,-3.876372576E-1,-9.449256897E0,1.823330879E0
2.753111304E0,-2.967100143E-1,-8.961120605E0,9.714859724E-1
2.757866043E0,1.698904037E-1,-8.453842163E0,3.469592929E-1
2.762620783E0,2.009970993E-1,-7.960920811E0,-1.196411327E-1
2.767375522E0,1.670190215E0,-8.001599312E0,-4.522434771E-1
2.772130262E0,2.995813847E0,-8.255238533E0,-2.464607358E-1
2.776885002E0,3.780659676E0,-8.501698494E0,7.657032460E-2
2.781639689E0,3.381058455E0,-8.539983749E0,1.674975827E-2
2.786394429E0,4.340580463E0,-9.262616158E0,-3.589234129E-2
2.791149168E0,4.220939159E0,-9.734002113E0,2.632104978E-2
2.795903908E0,3.728017569E0,-9.887143135E0,3.589234129E-2
2.800658647E0,3.060420275E0,-9.705288887E0,-9.810572863E-2
2.805413387E0,2.321038008E0,-9.492327690E0,-8.853443712E-2
2.810168127E0,1.636690736E0,-9.437292099E0,1.603191197E-1
2.814922866E0,1.832902193E0,-1.006181908E1,1.962114573E-1
2.819677606E0,1.993221283E0,-1.083470058E1,2.632105052E-1
2.824432293E0,1.631905079E0,-1.089212894E1,4.187439680E-1
2.829187033E0,1.203589797E0,-1.023649502E1,4.737788737E-1
2.833941772E0,8.422735929E-1,-9.198010445E0,7.441678643E-1
2.838696512E0,1.043270707E0,-8.580661774E0,8.877372146E-1
2.843451252E0,2.045863390E0,-8.183453560E0,9.475577474E-1
2.848205991E0,2.455035925E0,-8.523234367E0,8.518448472E-1
2.852960731E0,2.340180635E0,-8.906085968E0,8.398807645E-1
2.857715470E0,2.376072884E0,-8.882157326E0,9.643075466E-1
2.862470210E0,2.194218397E0,-8.961120605E0,1.136590719E0
2.867224950E0,2.311466694E0,-8.573483467E0,1.210768223E0
2.871979689E0,2.239681959E0,-8.252845764E0,1.292124271E0
2.876734429E0,1.237089276E0,-8.683553696E0,1.363908887E0
2.881489168E0,6.628118753E-1,-8.985049248E0,1.146162033E0
2.886243908E0,1.507478207E-1,-9.652647018E0,9.954141974E-1
2.890998647E0,-2.703889608E-1,-1.045184898E1,9.260223508E-1
2.895753335E0,-5.670989752E-1,-1.126540947E1,9.690931439E-1
2.900508075E0,-5.120640397E-1,-1.156929779E1,1.021735311E0
2.905262814E0,-4.546362907E-2,-1.151665497E1,1.122233868E0
2.910017554E0,4.809573591E-1,-1.139222908E1,1.184447169E0
2.914772293E0,-1.418943882E0,-1.303849030E1,1.095912814E0
2.919527033E0,-1.744367719E0,-1.339262867E1,9.308080077E-1
2.924281772E0,-1.586441398E0,-1.329930782E1,8.398807645E-1
2.929036512E0,-1.789831281E0,-1.312941742E1,6.771687865E-1
2.933791252E0,-1.636690736E0,-1.264367485E1,1.914258152E-1
2.938545991E0,-2.416750938E-1,-1.180140114E1,-6.269195080E-1
2.943300731E0,3.830909014E0,-1.028195858E1,-1.610369682E0
2.948055470E0,4.467400074E0,-9.585647583E0,-1.730010748E0
2.952810210E0,4.055834293E0,-9.221938133E0,-1.478764415E0
2.957564950E0,3.194418192E0,-8.829515457E0,-1.069591761E0
2.962319689E0,2.160718918E0,-8.542376518E0,-7.465606928E-1
2.967074429E0,1.007378340E0,-8.618947029E0,-7.322037220E-1
2.971829168E0,8.135596663E-2,-8.843872070E0,-8.350951076E-1
2.976583908E0,-9.690931439E-1,-9.023334503E0,-8.087740541E-1
2.981338647E0,-2.218146563E0,-9.243474007E0,-7.848458290E-1
2.986093387E0,-3.110669374E0,-9.506684303E0,-6.915257573E-1
2.990848127E0,-3.816552162E0,-9.683753014E0,-5.934200287E-1
2.995602866E0,-3.830909014E0,-9.686145782E0,-3.469592929E-1
3.000357606E0,-3.926621914E0,-9.616754532E0,2.105683982E-1
3.005112345E0,-3.677768469E0,-9.363115311E0,8.829515576E-1
3.009867085E0,-3.773481369E0,-9.200403214E0,1.339980721E0
3.014621825E0,-3.572484255E0,-9.456435204E0,1.406979680E0
3.019376512E0,-3.199203968E0,-1.018863869E1,1.148554921E0
3.024131304E0,-1.897508383E0,-1.103330517E1,7.345965505E-1
3.028885991E0,2.213361025E0,-1.128455162E1,6.077769399E-1
3.033640783E0,3.378665686E0,-1.099501991E1,7.058826685E-1
3.038395470E0,3.369094372E0,-1.036570740E1,-1.100698411E-1
3.043150262E0,4.211368084E0,-9.312865257E0,-2.392822653E-1
3.047905002E0,4.943571568E0,-8.078168869E0,-8.374879360E-1
3.052659741E0,5.824130535E0,-6.845865726E0,-8.949156404E-1
3.057414481E0,4.754538536E0,-7.082755089E0,-2.297109663E-1
3.062169220E0,1.351944804E0,-1.057388306E1,-3.541377485E-1
3.066923960E0,-2.991028428E-1,-1.138983536E1,-6.340979934E-1
3.071678700E0,-1.462014675E0,-9.951749802E0,-6.652047038E-1
3.076433439E0,-1.727617979E0,-8.740981102E0,-8.255237937E-1
3.081188179E0,-1.773081541E0,-8.446663857E0,-8.518448472E-1
3.085942918E0,-1.746760488E0,-8.530412674E0,-7.058826685E-1
3.090697658E0,-1.672582984E0,-8.650053978E0,-4.977070987E-1
3.095452397E0,-1.488335729E0,-8.575876236E0,-2.775674164E-1
3.100207137E0,-1.277767301E0,-8.590232849E0,-1.387837082E-1
3.104961877E0,-7.058826685E-1,-8.764909744E0,1.172483116E-1
3.109716616E0,-9.068797827E-1,-8.671588898E0,2.991028428E-1
3.114471356E0,-6.699903607E-1,-8.906085968E0,1.459621787E-1
3.119226095E0,-6.532405615E-1,-8.685946465E0,6.939185411E-2
3.123980835E0,-7.441678643E-1,-8.451449394E0,3.589234129E-2
3.128735575E0,-5.527420044E-1,-8.475378036E0,-4.785645381E-2
3.133490314E0,-9.379864931E-1,-8.126026154E0,9.571290575E-3
3.138245054E0,-7.776673436E-1,-8.382058144E0,-2.225325108E-1
3.142999793E0,-6.867401004E-1,-8.408378601E0,-2.775674164E-1
3.147754533E0,-3.517449200E-1,-8.650053978E0,-5.216353536E-1
3.152509272E0,1.962114573E-1,-9.023334503E0,-7.752745152E-1
3.157264012E0,6.771687865E-1,-9.451649666E0,-9.451649189E-1
3.162018752E0,1.048056364E0,-9.812965393E0,-1.060020447E0
3.166773491E0,1.344766378E0,-9.937392235E0,-1.088734269E0
3.171528231E0,1.701296926E0,-9.798608780E0,-1.052842021E0
3.176283022E0,1.895115495E0,-9.506684303E0,-9.355936646E-1
3.181037710E0,2.026720762E0,-9.166903496E0,-8.111668825E-1
3.185792502E0,1.909472466E0,-8.930013657E0,-7.010970116E-1
3.190547241E0,1.641476393E0,-8.425128937E0,-4.785645306E-1
3.195301981E0,1.064806104E0,-7.709674358E0,-3.182454109E-1
3.200056720E0,3.780659735E-1,-6.941578388E0,-7.178468257E-2
3.204811460E0,-4.642075896E-1,-6.228517532E0,1.866401732E-1
3.209566200E0,-1.316052437E0,-5.876772404E0,2.584248483E-1
3.214320939E0,-2.038684845E0,-5.778666496E0,3.972085714E-1
3.219075679E0,-2.878565550E0,-5.414957523E0,5.503492355E-1
3.223830418E0,-3.201596737E0,-5.391029358E0,9.116654396E-1
3.228585158E0,-3.450450182E0,-5.472385406E0,1.048056364E0
3.233339897E0,-3.792623997E0,-5.740381718E0,1.349551916E0
3.238094689E0,-4.039084435E0,-6.089733601E0,1.651047587E0
3.242849429E0,-4.101297855E0,-6.305087566E0,1.698904037E0
3.247604168E0,-3.795016766E0,-6.510870457E0,1.746760488E0
3.252358908E0,-3.067598581E0,-6.285944939E0,1.466800332E0
3.257113647E0,-2.787638426E0,-6.458228111E0,1.263410330E0
3.261868387E0,-2.620140791E0,-7.032505512E0,7.944171429E-1
3.266623127E0,-2.261217356E0,-7.889136314E0,1.459621787E-1
3.271377866E0,-2.005185366E0,-8.999405861E0,-3.732803464E-1
3.276132606E0,-1.878365755E0,-9.906285286E0,-8.614161611E-1
3.280887345E0,-1.402194023E0,-1.094716358E1,-8.709874153E-1
3.285642085E0,-9.619147182E-1,-1.189711380E1,-6.412764788E-1
3.290396877E0,-6.580262184E-1,-1.160758305E1,-2.225325108E-1
3.295151616E0,1.040877819E0,-1.362233925E1,-6.221338734E-2
3.299906356E0,1.375872970E0,-1.472543049E1,6.221338734E-2
3.304661095E0,1.560120344E0,-1.549831200E1,3.326023519E-1
3.309415835E0,1.866401672E0,-1.662772369E1,2.392822653E-1
3.314170575E0,1.773081541E0,-1.661576080E1,1.674975827E-2
3.318925314E0,1.935793519E0,-1.697707748E1,-1.555334777E-1
3.323680054E0,1.651047587E0,-1.716850281E1,-3.302095234E-1
3.328434845E0,1.555334687E0,-1.760399628E1,-5.383850932E-1
3.333189585E0,1.328016520E0,-1.806820297E1,-6.029912829E-1
3.337944325E0,1.720439434E0,-1.923111534E1,-2.057827413E-1
3.342699064E0,9.164510965E-1,-1.969053841E1,2.105683982E-1
3.347453804E0,-5.168496966E-1,-1.795095634E1,6.340979934E-1
3.352208543E0,-1.069591761E0,-1.658943939E1,6.628118753E-1
3.356963283E0,-1.804188251E0,-1.518963814E1,4.642075896E-1
3.361718075E0,-2.574677229E0,-1.386880016E1,1.938186288E-1
3.366472814E0,-3.256631613E0,-1.298345566E1,-1.339980662E-1
3.371227554E0,-3.067598581E0,-1.186600780E1,-4.713860750E-1
3.375982293E0,-3.318845034E0,-1.103569794E1,-4.666004181E-1
3.380737033E0,-3.682554007E0,-1.033938694E1,-3.613162339E-1
3.385491772E0,-3.859622955E0,-9.755537987E0,-1.818545163E-1
3.390246564E0,-3.574877024E0,-9.253045082E0,4.785645287E-3
3.395001304E0,-3.390629768E0,-8.889336586E0,2.560320199E-1
3.399756043E0,-3.627519131E0,-8.360522270E0,3.254238665E-1
3.404510783E0,-3.701696634E0,-7.972885132E0,2.392822653E-1
3.409265522E0,-3.438486099E0,-7.671389580E0,2.105683982E-1
3.414020262E0,-3.038884640E0,-7.403393269E0,3.230310678E-1
3.418775054E0,-2.629712105E0,-7.192824841E0,4.307080805E-1
3.423529793E0,-2.146361828E0,-7.125825882E0,7.322037220E-1
3.428284533E0,-1.564906001E0,-7.092326164E0,9.978070259E-1
3.433039272E0,-1.002592683E0,-7.008577347E0,1.064806104E0
3.437794012E0,-4.833501875E-1,-6.936792850E0,9.930213690E-1
3.442548752E0,2.632104978E-2,-6.783652306E0,9.164510965E-1
3.447303491E0,6.005984545E-1,-6.498906136E0,8.303094506E-1
3.452058283E0,1.378265858E0,-6.360122681E0,7.202396393E-1
3.456813022E0,2.230110645E0,-6.503692150E0,5.623133183E-1
3.461567762E0,3.134597778E0,-6.518048763E0,6.077769399E-1
3.466322502E0,3.984049797E0,-6.587440968E0,5.335994363E-1
3.471077241E0,4.472185612E0,-6.805187702E0,4.354937077E-1
3.475831981E0,4.601397991E0,-7.128218651E0,3.852444589E-1
3.480586772E0,4.359723091E0,-7.625925541E0,2.967100143E-1
3.485341512E0,3.816552162E0,-8.319844246E0,1.770688742E-1
3.490096252E0,3.261417150E0,-9.073583603E0,2.153540403E-2
3.494850991E0,2.739781857E0,-9.801001549E0,-1.363908947E-1
3.499605731E0,2.220539331E0,-1.049013424E1,-2.416750938E-1
3.504360522E0,1.828116536E0,-1.086102200E1,-2.560320199E-1
3.509115262E0,1.648654819E0,-1.100219822E1,-1.363908947E-1
3.513870002E0,1.414158225E0,-1.101655579E1,5.024927482E-2
3.518624741E0,1.093519926E0,-1.105005455E1,1.986042857E-1
3.523379481E0,4.474578202E-1,-1.122473145E1,3.230310678E-1
3.528134272E0,-4.354937077E-1,-1.141854954E1,5.407779217E-1
3.532889012E0,-1.998006940E0,-1.172961617E1,9.020941257E-1
3.537643752E0,-2.567498684E0,-1.200000572E1,1.378265858E0
3.542398491E0,-1.694118381E0,-1.221296692E1,8.255237937E-1
3.547153231E0,-1.368694544E0,-1.227278709E1,9.571290761E-2
3.551908022E0,-1.028913736E0,-1.171286678E1,-3.565305769E-1
3.556662762E0,-3.421736360E-1,-1.050209904E1,-6.029912829E-1
3.561417502E0,-2.943171859E-1,-1.029392338E1,-5.718846321E-1
3.566172241E0,-6.747759581E-1,-1.082512951E1,-6.556333899E-1
3.570926981E0,-1.938186288E-1,-1.057627583E1,-8.087740541E-1
3.575681772E0,8.374879360E-1,-9.858428955E0,-6.125625968E-1
3.580436512E0,1.399801254E0,-9.492327690E0,-3.062812984E-1
3.585191252E0,1.390229940E0,-9.174081802E0,-9.571290761E-2
3.589945991E0,1.514656782E0,-8.997013092E0,5.982056633E-2
3.594700783E0,9.882357717E-1,-9.504291534E0,3.182454109E-1
3.599455522E0,7.848458290E-1,-9.623932838E0,4.187439680E-1
3.604210262E0,4.211367965E-1,-9.839286804E0,5.288137794E-1
3.608965002E0,3.158525825E-1,-9.985248566E0,5.072783828E-1
3.613719741E0,3.110669553E-1,-9.994820595E0,4.785645306E-1
3.618474533E0,3.373879790E-1,-1.002592659E1,4.522434771E-1
3.623229272E0,3.469592929E-1,-1.007617569E1,3.517449200E-1
3.627984012E0,3.110669553E-1,-1.014078236E1,2.392822653E-1
3.632738752E0,2.153540403E-1,-1.024128056E1,1.220339537E-1
3.637493543E0,6.460621208E-2,-1.024845982E1,5.982056633E-2
3.642248283E0,2.249253243E-1,-1.039681435E1,-2.632104978E-2
3.647003022E0,3.780659735E-1,-1.044227791E1,-5.264209956E-2
3.651757762E0,5.790630579E-1,-1.046381378E1,-1.220339537E-1
3.656512554E0,7.561319470E-1,-1.053559780E1,-2.153540403E-1
3.661267293E0,8.949156404E-1,-1.053320503E1,-2.584248483E-1
3.666022033E0,1.040877819E0,-1.051884842E1,-3.134597540E-1
3.670776772E0,1.150947690E0,-1.047338486E1,-3.756731451E-1
3.675531564E0,1.280160069E0,-1.041356373E1,-4.354937077E-1
3.680286304E0,1.383051515E0,-1.030827999E1,-5.096712112E-1
3.685041043E0,1.452443361E0,-1.018385315E1,-5.575276613E-1
3.689795835E0,1.526620865E0,-1.009531879E1,-5.790630579E-1
3.694550575E0,1.603191137E0,-1.001396275E1,-6.125625968E-1
3.699305314E0,1.655833244E0,-9.913464546E0,-6.245267391E-1
3.704060054E0,1.710868239E0,-9.827322960E0,-6.053841114E-1
3.708814845E0,1.787438512E0,-9.765109062E0,-5.766702294E-1
3.713569585E0,1.808973908E0,-9.698110580E0,-5.527420044E-1
3.718324325E0,1.806581140E0,-9.674181938E0,-5.024927258E-1
3.723079116E0,1.825723648E0,-9.628718376E0,-4.689932466E-1
3.727833856E0,1.794616938E0,-9.602396965E0,-4.331009090E-1
3.732588595E0,1.751546144E0,-9.571290970E0,-3.996013701E-1
3.737343335E0,1.746760488E0,-9.535398483E0,-3.804588020E-1
3.742098127E0,1.739582062E0,-9.509077072E0,-3.852444589E-1
3.746852866E0,1.768295884E0,-9.499505997E0,-3.732803464E-1
3.751607606E0,1.785045743E0,-9.480362892E0,-3.637090325E-1
3.756362345E0,1.835294962E0,-9.487542152E0,-3.828516304E-1
3.761117137E0,1.880758643E0,-9.494720459E0,-4.043870270E-1
3.765871877E0,1.942971945E0,-9.518648148E0,-4.283152521E-1
3.770626616E0,1.988435626E0,-9.542576790E0,-4.402793646E-1
3.775381408E0,2.038684845E0,-9.559326172E0,-4.642075896E-1
3.780136147E0,2.086541414E0,-9.600004196E0,-4.689932466E-1
3.784890887E0,2.129612207E0,-9.659825325E0,-4.881358147E-1
3.789645679E0,2.143969059E0,-9.702896118E0,-4.929214716E-1
3.794400418E0,2.096112728E0,-9.712467194E0,-4.618147612E-1
3.799155158E0,2.041077614E0,-9.755537987E0,-4.618147612E-1
3.803909950E0,1.954936147E0,-9.755537987E0,-4.546363056E-1
3.808664689E0,1.849651933E0,-9.726823807E0,-4.354937077E-1
3.813419429E0,1.749153376E0,-9.712467194E0,-3.541377485E-1
3.818174168E0,1.579262972E0,-9.626325607E0,-2.679961324E-1
3.822928960E0,1.591227055E0,-9.621540070E0,6.221338734E-2
3.827683700E0,1.502692580E0,-9.702896118E0,2.536391914E-1
3.832438439E0,1.378265858E0,-9.753145218E0,2.560320199E-1
3.837193231E0,1.227517962E0,-9.793823242E0,2.081755698E-1
3.841947970E0,1.014556766E0,-9.810572624E0,1.411765367E-1
3.846702710E0,8.255237937E-1,-9.753145218E0,2.153540403E-2
3.851457502E0,7.106683254E-1,-9.738788605E0,-7.178468257E-2
3.856212241E0,6.460621357E-1,-9.669396400E0,-1.794617027E-1
3.860966981E0,6.317051649E-1,-9.631111145E0,-2.512463629E-1
3.865721772E0,6.675975323E-1,-9.611968994E0,-2.512463629E-1
3.870476512E0,7.992027402E-1,-9.595218658E0,-3.110669553E-1
3.875231252E0,9.690931439E-1,-9.645467758E0,-3.158525825E-1
3.879986043E0,1.069591761E0,-9.578469276E0,-2.967100143E-1
3.884740783E0,1.136590719E0,-9.487542152E0,-2.679961324E-1
3.889495522E0,1.196411371E0,-9.477970123E0,-2.703889608E-1
3.894250314E0,1.234696507E0,-9.513862610E0,-3.110669553E-1
3.899005054E0,1.308874011E0,-9.595218658E0,-3.876372576E-1
3.903759845E0,1.397408366E0,-9.724431038E0,-5.359922647E-1
3.908514585E0,1.488335729E0,-9.827322960E0,-6.987041831E-1
3.913269325E0,1.548156261E0,-9.968499184E0,-9.092726111E-1
3.918024064E0,1.655833244E0,-1.010249710E1,-1.112662554E0
3.922778856E0,1.727617979E0,-1.023888779E1,-1.339980721E0
3.927533595E0,1.794616938E0,-1.038485050E1,-1.588834286E0
3.932288387E0,1.859223247E0,-1.051645565E1,-1.878365755E0
3.937043127E0,1.916650891E0,-1.060499001E1,-2.175075769E0
3.941797866E0,1.950150490E0,-1.071745300E1,-2.428714991E0
3.946552658E0,2.012363911E0,-1.069352436E1,-2.600998163E0
3.951307397E0,2.122433662E0,-1.088016415E1,-2.732603550E0
3.956062137E0,2.194218397E0,-1.102373409E1,-2.878565550E0
3.960816929E0,2.261217356E0,-1.111944675E1,-3.000599623E0
3.965571668E0,2.301895380E0,-1.118166065E1,-3.043670416E0
3.970326460E0,2.225325108E0,-1.121037388E1,-3.048455954E0
3.975081200E0,2.251646042E0,-1.115294647E1,-2.950350285E0
3.979835939E0,2.316252232E0,-1.128455162E1,-2.914458036E0
3.984590731E0,2.335394859E0,-1.133719349E1,-2.861815929E0
3.989345470E0,2.297109842E0,-1.128694439E1,-2.801995277E0
3.994100210E0,2.165504456E0,-1.122951698E1,-2.687139750E0
3.998855002E0,2.009970903E0,-1.116491032E1,-2.610569477E0
4.003609741E0,1.794616938E0,-1.108355427E1,-2.579462767E0
4.008364533E0,1.605584025E0,-1.103091240E1,-2.569891453E0
4.013119272E0,1.452443361E0,-1.094237804E1,-2.615355253E0
4.017874012E0,1.318445325E0,-1.086341476E1,-2.730210543E0
4.022628804E0,1.217946768E0,-1.074616623E1,-2.895315409E0
4.027383543E0,1.170090318E0,-1.062652493E1,-3.067598581E0
4.032138335E0,1.170090318E0,-1.047577763E1,-3.259024382E0
4.036893075E0,1.174875975E0,-1.026042366E1,-3.448057413E0
4.041647814E0,1.234696507E0,-1.003549862E1,-3.656233072E0
4.046402606E0,1.356730461E0,-9.820143700E0,-3.826123476E0
4.051157345E0,1.471585870E0,-9.580862045E0,-3.974478483E0
4.055912137E0,1.679761529E0,-9.372686386E0,-4.187439442E0
4.060666877E0,1.931007862E0,-9.186046600E0,-4.417150497E0
4.065421616E0,2.179861546E0,-9.035298347E0,-4.697110653E0
4.070176408E0,2.467000246E0,-8.913264275E0,-5.017749310E0
4.074931147E0,2.687139750E0,-8.805587769E0,-5.424529076E0
4.079685939E0,3.153740168E0,-8.743373871E0,-5.769095421E0
4.084440679E0,3.515056372E0,-8.695517540E0,-6.108876228E0
4.089195470E0,3.895515203E0,-8.640482903E0,-6.436692715E0
4.093950210E0,4.208974838E0,-8.580661774E0,-6.587440968E0
4.098704950E0,4.713860512E0,-8.525627136E0,-6.541976929E0
4.103459741E0,5.082355499E0,-8.484949112E0,-6.319444656E0
4.108214481E0,5.335994720E0,-8.451449394E0,-6.051448345E0
4.112969272E0,5.716453075E0,-8.444271088E0,-5.510670662E0
4.117724012E0,5.950950146E0,-8.451449394E0,-4.919643402E0
4.122478804E0,6.137589931E0,-8.434700012E0,-4.108476639E0
4.127233543E0,6.400800705E0,-8.403593063E0,-3.213560820E0
4.131988283E0,6.635297298E0,-8.295916557E0,-2.323430777E0
4.136743075E0,6.908079147E0,-8.142775536E0,-1.478764415E0
4.141497814E0,7.178467751E0,-7.963313580E0,-8.207381964E-1
4.146252606E0,7.372286797E0,-7.788637638E0,-2.919243574E-1
4.151007345E0,7.501499176E0,-7.647460938E0,1.004985496E-1
4.155762137E0,7.491927624E0,-7.570890903E0,3.493520916E-1
4.160516877E0,7.429714203E0,-7.590033531E0,3.637090325E-1
4.165271668E0,7.238288403E0,-7.590033531E0,9.332008660E-2
4.170026408E0,7.010970116E0,-7.774280548E0,-5.718846321E-1
4.174781147E0,6.599404812E0,-8.066205025E0,-1.653440475E0
4.179535939E0,5.888736725E0,-8.511270523E0,-2.916850805E0
4.184290679E0,4.938786030E0,-9.011369705E0,-4.359723091E0
4.189045470E0,3.778266907E0,-9.600004196E0,-5.802595139E0
4.193800210E0,2.615355253E0,-1.024367332E1,-6.941578388E0
4.198555002E0,1.426122308E0,-1.089691448E1,-7.695317745E0
4.203309741E0,3.948157430E-1,-1.154297638E1,-8.111668587E0
4.208064533E0,-3.780659735E-1,-1.207179070E1,-8.271987915E0
4.212819272E0,-9.978070259E-1,-1.255035496E1,-8.185846329E0
4.217574064E0,-1.639083505E0,-1.293799210E1,-7.846065521E0
4.222328804E0,-2.084148407E0,-1.318923855E1,-7.463213921E0
4.227083595E0,-2.325823545E0,-1.315813160E1,-7.056434155E0
4.231838335E0,-2.404786825E0,-1.290927792E1,-6.814758778E0
4.236593127E0,-2.598605394E0,-1.242832088E1,-6.553941250E0
4.241347866E0,-2.734996319E0,-1.196172047E1,-6.537191391E0
4.246102658E0,-2.790031195E0,-1.143769264E1,-6.805187702E0
4.250857397E0,-2.581855536E0,-1.099023438E1,-6.941578388E0
4.255612137E0,-2.301895380E0,-1.055952644E1,-6.814758778E0
4.260366929E0,-2.048256159E0,-1.018146038E1,-6.439085960E0
4.265121668E0,-1.986042738E0,-9.901499748E0,-5.984449387E0
4.269876460E0,-2.050648928E0,-9.590433121E0,-5.565705299E0
4.274631252E0,-2.151147604E0,-9.396614075E0,-5.242674351E0
4.279385991E0,-2.215753794E0,-9.255437851E0,-5.065605640E0
4.284140731E0,-2.237289190E0,-9.178867340E0,-4.821537495E0
4.288895522E0,-2.215753794E0,-9.092725754E0,-4.632504463E0
4.293650262E0,-2.053041935E0,-8.937192917E0,-4.527220249E0
4.298405054E0,-1.849651933E0,-8.791230202E0,-4.520041943E0
4.303159845E0,-1.531406522E0,-8.583054543E0,-4.565505505E0
4.307914585E0,-1.215553880E0,-8.338987350E0,-4.601397991E0
4.312669325E0,-9.044869542E-1,-8.092526436E0,-4.670789719E0
4.317424116E0,-4.809573591E-1,-7.850851059E0,-4.811966419E0
4.322178908E0,2.392822690E-2,-7.570890903E0,-5.065605640E0
4.326933647E0,7.178468108E-1,-7.250252724E0,-5.498706341E0
4.331688387E0,1.301695466E0,-6.958328247E0,-5.967699528E0
4.336443179E0,1.765903115E0,-6.709474564E0,-6.319444656E0
4.341197970E0,2.112862349E0,-6.460621357E0,-6.520441532E0
4.345952710E0,2.388036966E0,-6.187839508E0,-6.644868374E0
4.350707502E0,2.589034081E0,-5.979663849E0,-6.707081795E0
4.355462241E0,2.691925526E0,-5.802595139E0,-6.671189308E0
4.360217033E0,2.737389088E0,-5.642275810E0,-6.594619274E0
4.364971772E0,2.792423964E0,-5.532206059E0,-6.484549522E0
4.369726564E0,2.837887764E0,-5.438885689E0,-6.305087566E0
4.374481304E0,2.916850805E0,-5.335994720E0,-6.202196121E0
4.379236095E0,2.967100143E0,-5.283352375E0,-6.192625046E0
4.383990835E0,2.935993433E0,-5.192425251E0,-6.130411625E0
4.388745627E0,2.933600664E0,-5.079962254E0,-5.879165173E0
4.393500366E0,2.857030153E0,-4.929214478E0,-5.618347645E0
4.398255158E0,2.873780012E0,-4.766502857E0,-5.307280540E0
4.403009897E0,2.988635540E0,-4.622933388E0,-5.094319344E0
4.407764689E0,3.046063185E0,-4.421936035E0,-5.058426857E0
4.412519481E0,3.089133978E0,-4.240081787E0,-5.142175674E0
4.417274220E0,3.129812002E0,-4.086941242E0,-5.290530682E0
4.422029012E0,3.211168051E0,-4.010370731E0,-5.515456200E0
4.426783752E0,3.182454109E0,-3.931407690E0,-5.733202934E0
4.431538543E0,3.055634499E0,-3.885943890E0,-5.797809124E0
4.436293283E0,2.806781054E0,-3.869194269E0,-5.778666496E0
4.441048075E0,2.478964329E0,-3.883551121E0,-5.627918720E0
4.445802866E0,2.081755638E0,-3.883551121E0,-5.467599869E0
4.450557606E0,1.667797327E0,-3.871587038E0,-5.328815937E0
4.455312397E0,1.318445325E0,-3.838087559E0,-5.259424210E0
4.460067137E0,9.882357717E-1,-3.847658873E0,-5.300102234E0
4.464821929E0,7.489534616E-1,-3.830909014E0,-5.369493961E0
4.469576668E0,5.168496966E-1,-3.780659676E0,-5.472385406E0
4.474331460E0,3.086741269E-1,-3.696911097E0,-5.589633465E0
4.479086252E0,1.794617027E-1,-3.586841106E0,-5.687739372E0
4.483840991E0,9.571290761E-2,-3.443271875E0,-5.735595703E0
4.488595783E0,8.614161611E-2,-3.302095175E0,-5.769095421E0
4.493350522E0,1.722832322E-1,-3.122633457E0,-5.781059742E0
4.498105314E0,3.206382394E-1,-2.919243574E0,-5.776273727E0
4.502860054E0,4.809573591E-1,-2.766103029E0,-5.764309883E0
4.507614845E0,6.053841114E-1,-2.581855536E0,-5.778666496E0
4.512369637E0,7.417750359E-1,-2.447857618E0,-5.793023586E0
4.517124377E0,8.087740541E-1,-2.337787628E0,-5.850451469E0
4.521879168E0,8.470591903E-1,-2.270788670E0,-5.941378593E0
4.526633908E0,9.906286001E-1,-2.182254314E0,-5.982056618E0
4.531388700E0,1.148554921E0,-2.143969059E0,-5.931807518E0
4.536143491E0,1.272981644E0,-2.120040894E0,-5.702096462E0
4.540898231E0,1.268195987E0,-2.084148407E0,-5.395814896E0
4.545653022E0,1.220339537E0,-2.076970100E0,-5.017749310E0
4.550407762E0,1.064806104E0,-2.098505497E0,-4.728217602E0
4.555162554E0,8.374879360E-1,-2.110469580E0,-4.510470867E0
4.559917345E0,5.168496966E-1,-2.096112728E0,-4.350151539E0
4.564672085E0,2.464607358E-1,-2.100898266E0,-4.390829563E0
4.569426877E0,8.374879509E-2,-2.132004976E0,-4.596612453E0
4.574181668E0,-4.785645287E-3,-2.239681959E0,-4.905286312E0
4.578936408E0,5.742774159E-2,-2.344966173E0,-5.290530682E0
4.583691200E0,2.225325108E-1,-2.581855536E0,-5.788238049E0
4.588445939E0,3.661018610E-1,-2.868994236E0,-6.293123722E0
4.593200731E0,4.163511395E-1,-3.237488985E0,-6.642475605E0
4.597955522E0,3.158525825E-1,-3.649054527E0,-6.675975323E0
4.602710262E0,1.268195957E-1,-4.048655987E0,-6.735795975E0
4.607465054E0,-5.982056633E-2,-4.393222332E0,-7.137789726E0
4.612219793E0,-1.746760458E-1,-4.689932346E0,-7.829315662E0
4.616974585E0,-2.105683982E-1,-4.986642361E0,-8.628518105E0
4.621729377E0,-1.722832322E-1,-5.266602516E0,-9.422935486E0
4.626484116E0,-1.890329868E-1,-5.596812248E0,-9.942177773E0
4.631238908E0,-2.967100143E-1,-5.943771362E0,-1.012164021E1
4.635993700E0,-4.211367965E-1,-6.252445698E0,-9.899106979E0
4.640748439E0,-3.589234054E-1,-6.501298904E0,-9.296115875E0
4.645503231E0,-4.546362907E-2,-6.594619274E0,-8.640482903E0
4.650257970E0,5.335994363E-1,-6.637690067E0,-7.956135273E0
4.655012762E0,1.378265858E0,-6.513263226E0,-7.180860519E0
4.659767554E0,2.321038008E0,-6.467799664E0,-6.482156754E0
4.664522293E0,3.280559778E0,-6.501298904E0,-6.424728870E0
4.669277085E0,4.409972191E0,-6.608976364E0,-7.472784996E0
4.674031877E0,5.503491879E0,-6.829115868E0,-9.334401131E0
4.678786616E0,6.434299946E0,-7.192824841E0,-1.124148083E1
4.683541408E0,6.900900364E0,-7.659425259E0,-1.222493076E1
4.688296200E0,6.805187702E0,-8.228917122E0,-1.214118195E1
4.693050939E0,6.364908218E0,-8.769695282E0,-1.134437180E1
4.697805731E0,5.850451469E0,-9.276973724E0,-1.045902824E1
4.702560522E0,5.376672268E0,-9.789037704E0,-9.870393753E0
4.707315262E0,4.929214478E0,-1.021735287E1,-9.815358162E0
4.712070054E0,4.498506546E0,-1.060499001E1,-1.015753174E1
4.716824845E0,4.077369690E0,-1.088495064E1,-1.048056316E1
4.721579585E0,3.481556892E0,-1.092323494E1,-1.052124119E1
4.726334377E0,2.857030153E0,-1.064327526E1,-1.012642574E1
4.731089168E0,2.254039049E0,-1.002831936E1,-9.544969559E0
4.735843908E0,1.684547186E0,-9.195617676E0,-8.915657043E0
4.740598700E0,1.179661512E0,-8.274380684E0,-8.365307808E0
4.745353491E0,8.542376757E-1,-7.362715244E0,-7.893921852E0
4.750108231E0,6.101697683E-1,-6.510870457E0,-7.573283672E0
4.754863022E0,4.761717021E-1,-5.718846321E0,-7.499105930E0
4.759617814E0,3.469592929E-1,-5.024927616E0,-7.580461979E0
4.764372606E0,2.871387303E-1,-4.414757729E0,-7.683353424E0
4.769127345E0,3.445664644E-1,-3.912265062E0,-7.678567886E0
4.773882137E0,5.240281820E-1,-3.467200041E0,-7.551748276E0
4.778636929E0,7.106683254E-1,-3.081955671E0,-7.326822758E0
4.783391668E0,8.925228715E-1,-2.842673302E0,-7.032505512E0
4.788146460E0,1.071984529E0,-2.667997360E0,-6.683153629E0
4.792901252E0,1.280160069E0,-2.526820660E0,-6.372086525E0
4.797655991E0,1.521835208E0,-2.474178553E0,-6.281159401E0
4.802410783E0,1.708475351E0,-2.502892494E0,-6.518048763E0
4.807165575E0,1.861616015E0,-2.615355253E0,-6.838686943E0
4.811920366E0,1.962114573E0,-2.825923443E0,-7.087540627E0
4.816675106E0,2.084148407E0,-3.187239647E0,-7.180860519E0
4.821429897E0,2.167897224E0,-3.617947817E0,-7.180860519E0
4.826184689E0,2.170290232E0,-4.118047714E0,-7.137789726E0
4.830939429E0,2.146361828E0,-4.639683247E0,-6.943971157E0
4.835694220E0,2.057827473E0,-5.099104881E0,-6.647261143E0
4.840449012E0,1.995614052E0,-5.484349728E0,-6.211767673E0
4.845203804E0,1.981257200E0,-5.819344521E0,-5.816951752E0
4.849958543E0,2.009970903E0,-6.065805435E0,-5.572884083E0
4.854713335E0,2.134397745E0,-6.273981094E0,-5.477170944E0
4.859468127E0,2.261217356E0,-6.362515450E0,-5.551348686E0
4.864222866E0,2.335394859E0,-6.407979012E0,-5.759523869E0
4.868977658E0,2.299502611E0,-6.388836384E0,-6.070590973E0
4.873732450E0,2.100898266E0,-6.281159401E0,-6.498906136E0
4.878487241E0,1.818545222E0,-6.118447304E0,-6.953542709E0
4.883241981E0,1.478764415E0,-5.915057659E0,-7.451249599E0
4.887996772E0,1.150947690E0,-5.704489231E0,-7.939385414E0
4.892751564E0,8.973084688E-1,-5.515456200E0,-8.437092781E0
4.897506356E0,7.130611539E-1,-5.369493961E0,-8.894122124E0
4.902261095E0,6.556333899E-1,-5.223531723E0,-9.334401131E0
4.907015887E0,7.680960894E-1,-5.120640278E0,-9.700503349E0
4.911770679E0,1.038485050E0,-4.991427898E0,-9.894321442E0
4.916525418E0,1.373480201E0,-4.857429981E0,-9.934999466E0
4.921280210E0,1.806581140E0,-4.728217602E0,-9.801001549E0
4.926035002E0,2.311466694E0,-4.670789719E0,-9.640682220E0
4.930789793E0,2.849851847E0,-4.606183529E0,-9.540184021E0
4.935544533E0,3.345165968E0,-4.553541660E0,-9.626325607E0
4.940299325E0,3.818944931E0,-4.558327198E0,-9.834501266E0
4.945054116E0,4.113262177E0,-4.570291042E0,-9.889535904E0
4.949808908E0,4.287938118E0,-4.582255363E0,-9.544969559E0
4.954563700E0,4.438685894E0,-4.615755081E0,-8.697910309E0
4.959318439E0,4.644468784E0,-4.685146809E0,-7.427321434E0
4.964073231E0,4.493721008E0,-4.704289436E0,-6.238088608E0
4.968828022E0,4.359723091E0,-4.761716843E0,-5.886343479E0
4.973582814E0,3.950550079E0,-4.797609329E0,-6.386443615E0
4.978337554E0,3.364308596E0,-4.907679081E0,-7.398607731E0
4.983092345E0,2.873780012E0,-5.075176716E0,-8.324629784E0
4.987847137E0,2.713460922E0,-5.338387489E0,-8.793622971E0
4.992601929E0,2.880958557E0,-5.649454117E0,-8.784051895E0
4.997356668E0,3.251846075E0,-5.979663849E0,-8.377271652E0
5.002111460E0,3.716053486E0,-6.252445698E0,-7.771887779E0
5.006866252E0,4.122833252E0,-6.534798622E0,-7.197610378E0
5.011621043E0,4.268795490E0,-6.750152588E0,-6.666403770E0
5.016375835E0,4.297509670E0,-6.860222340E0,-6.130411625E0
5.021130575E0,4.110869408E0,-6.939185619E0,-5.848058701E0
5.025885366E0,3.615555048E0,-7.137789726E0,-5.977271080E0
5.030640158E0,3.014956474E0,-7.281359196E0,-6.314659119E0
5.035394950E0,2.840280533E0,-7.534998417E0,-6.865008354E0
5.040149741E0,2.622533560E0,-7.791030407E0,-7.063612461E0
5.044904481E0,2.469393015E0,-8.039883614E0,-7.152146816E0
5.049659272E0,2.414358139E0,-8.214560509E0,-7.121040344E0
5.054414064E0,2.447857618E0,-8.353343964E0,-7.061219692E0
5.059168856E0,2.524427891E0,-8.475378036E0,-6.865008354E0
5.063923647E0,2.617748022E0,-8.516056061E0,-6.573083878E0
5.068678387E0,2.603390932E0,-8.535198212E0,-6.139982700E0
5.073433179E0,2.488535643E0,-8.571090698E0,-5.754738331E0
5.078187970E0,2.411965132E0,-8.542376518E0,-5.544169903E0
5.082942762E0,2.340180635E0,-8.516056061E0,-5.668596745E0
5.087697554E0,2.263610125E0,-8.482556343E0,-5.967699528E0
5.092452293E0,2.373680115E0,-8.477770805E0,-6.369693756E0
5.097207085E0,2.471785784E0,-8.420342445E0,-6.604190350E0
5.101961877E0,2.584248543E0,-8.360522270E0,-6.537191391E0
5.106716668E0,2.667997360E0,-8.250452042E0,-6.187839508E0
5.111471460E0,2.727817774E0,-8.140382767E0,-5.608776093E0
5.116226200E0,2.792423964E0,-8.027919769E0,-4.993820667E0
5.120980991E0,2.818745136E0,-7.901100159E0,-4.503292084E0
5.125735783E0,2.847458839E0,-7.831708431E0,-4.170690060E0
5.130490575E0,2.847458839E0,-7.795815945E0,-4.046263218E0
5.135245366E0,2.888136864E0,-7.786244869E0,-4.046263218E0
5.140000158E0,2.892922640E0,-7.795815945E0,-4.125226021E0
5.144754950E0,2.909672260E0,-7.779066563E0,-4.208974838E0
5.149509689E0,2.816352367E0,-7.776673794E0,-4.170690060E0
5.154264481E0,2.672782898E0,-7.764709473E0,-3.964907169E0
5.159019272E0,2.526820660E0,-7.743174076E0,-3.644268990E0
5.163774064E0,2.395215511E0,-7.731209755E0,-3.285345554E0
5.168528856E0,2.275574446E0,-7.721638680E0,-2.962314367E0
5.173283595E0,2.153540373E0,-7.733603001E0,-2.754138947E0
5.178038387E0,2.132004976E0,-7.798209190E0,-2.921636343E0
5.182793179E0,2.002792597E0,-7.843672752E0,-3.172882795E0
5.187547970E0,1.971685886E0,-7.903493404E0,-3.507878065E0
5.192302762E0,1.907079697E0,-7.939385414E0,-3.783052683E0
5.197057554E0,1.756331801E0,-7.941778183E0,-3.902693748E0
5.201812345E0,1.813759565E0,-8.023134232E0,-3.986442566E0
5.206567085E0,1.694118381E0,-8.080561638E0,-3.929014683E0
5.211321877E0,1.703689694E0,-8.197810173E0,-3.610769272E0
5.216076668E0,1.631905079E0,-8.283951759E0,-3.354737282E0
5.220831460E0,1.730010748E0,-8.472985268E0,-3.170490026E0
5.225586252E0,1.844866276E0,-8.685946465E0,-3.098705292E0
5.230341043E0,1.782652855E0,-8.891729355E0,-3.081955671E0
5.235095835E0,2.079362869E0,-9.200403214E0,-3.029313564E0
5.239850575E0,2.249253273E0,-9.544969559E0,-3.055634499E0
5.244605366E0,2.313859463E0,-9.777072906E0,-2.998206854E0
5.249360158E0,2.392822742E0,-1.001635551E1,-2.945564747E0
5.254114950E0,2.318645239E0,-1.023410225E1,-2.924029350E0
5.258869741E0,2.201396942E0,-1.047577763E1,-3.019742250E0
5.263624533E0,2.280359983E0,-1.079880905E1,-3.187239647E0
5.268379325E0,2.136790514E0,-1.109791183E1,-3.464807272E0
5.273134116E0,1.978864312E0,-1.120080280E1,-3.665804386E0
5.277888856E0,2.084148407E0,-1.152383423E1,-3.689732552E0
5.282643647E0,2.112862349E0,-1.162433243E1,-3.661018610E0
5.287398439E0,2.177468538E0,-1.177508068E1,-3.354737282E0
5.292153231E0,2.055434704E0,-1.207896900E1,-3.067598581E0
5.296908022E0,1.856830359E0,-1.209332561E1,-2.873780012E0
5.301662814E0,1.622333765E0,-1.198325539E1,-2.723032236E0
5.306417606E0,1.373480201E0,-1.181575775E1,-2.646461725E0
5.311172397E0,1.127019525E0,-1.146640587E1,-2.665604353E0
5.315927137E0,8.614161611E-1,-1.096152020E1,-2.677568436E0
5.320681929E0,6.699903607E-1,-1.037767220E1,-2.701496840E0
5.325436720E0,5.096712112E-1,-9.750752449E0,-2.727817774E0
5.330191512E0,4.689932466E-1,-9.174081802E0,-2.782852650E0
5.334946304E0,5.072783828E-1,-8.595019341E0,-2.782852650E0
5.339701095E0,6.149554253E-1,-8.104490280E0,-2.713460922E0
5.344455887E0,7.513462901E-1,-7.702496052E0,-2.553141832E0
5.349210679E0,8.685946465E-1,-7.319644451E0,-2.514856577E0
5.353965470E0,1.229910851E0,-7.077969551E0,-2.225325108E0
5.358720262E0,1.552941918E0,-6.922435760E0,-1.964507341E0
5.363475054E0,1.768295884E0,-6.821937561E0,-1.639083505E0
5.368229845E0,2.215753794E0,-6.841079712E0,-1.213161111E0
5.372984585E0,2.703889608E0,-6.884150982E0,-8.255237937E-1
5.377739377E0,3.136990547E0,-7.001399040E0,-4.929214716E-1
5.382494168E0,3.460021496E0,-7.087540627E0,-3.373879790E-1
5.387248960E0,3.893122435E0,-7.233502865E0,-6.221338734E-2
5.392003752E0,4.386044025E0,-7.367500782E0,1.004985496E-1
5.396758543E0,4.838287354E0,-7.604390144E0,1.962114573E-1
5.401513335E0,5.082355499E0,-7.767102242E0,2.057827413E-1
5.406268127E0,5.541777134E0,-8.015955925E0,8.135596663E-2
5.411022918E0,5.852844238E0,-8.224131584E0,-6.460621208E-2
5.415777710E0,6.108876228E0,-8.396414757E0,-2.321037948E-1
5.420532502E0,6.312266350E0,-8.592626572E0,-3.852444589E-1
5.425287293E0,6.453442574E0,-8.729017258E0,-5.383850932E-1
5.430042033E0,6.534798622E0,-8.898907661E0,-6.795616150E-1
5.434796825E0,6.541976929E0,-9.032905579E0,-7.680960894E-1
5.439551616E0,6.498906136E0,-9.147761345E0,-8.518448472E-1
5.444306408E0,6.343372822E0,-9.243474007E0,-9.308080077E-1
5.449061200E0,6.151947021E0,-9.382257462E0,-9.834501147E-1
5.453815991E0,5.955735683E0,-9.492327690E0,-1.026520967E0
5.458570783E0,5.721239090E0,-9.595218658E0,-1.141376376E0
5.463325575E0,5.343173027E0,-9.676574707E0,-1.332802176E0
5.468080366E0,4.969892502E0,-9.772287369E0,-1.423729420E0
5.472835158E0,4.563112736E0,-9.930213928E0,-1.543370605E0
5.477589950E0,4.098905087E0,-1.005224800E1,-1.576870084E0
5.482344741E0,3.622733593E0,-1.022692394E1,-1.629512191E0
5.487099533E0,3.235096216E0,-1.028195858E1,-1.619940877E0
5.491854325E0,2.952743053E0,-1.044467068E1,-1.371087432E0
5.496609116E0,2.754138947E0,-1.051406288E1,-9.403793216E-1
5.501363908E0,2.510071039E0,-1.047817039E1,-4.689932466E-1
5.506118700E0,2.263610125E0,-1.035613632E1,-1.028913707E-1
5.510873491E0,1.976471543E0,-1.014317513E1,1.244267747E-1
5.515628283E0,1.634297848E0,-9.942177773E0,2.632105052E-1
5.520383075E0,1.354337573E0,-9.803394318E0,3.062812984E-1
5.525137866E0,1.067198873E0,-9.678967476E0,2.751746178E-1
5.529892606E0,8.542376757E-1,-9.592825890E0,1.100698411E-1
5.534647397E0,6.652047038E-1,-9.614361763E0,-1.387837082E-1
5.539402241E0,5.647061467E-1,-9.719645500E0,-4.857429862E-1
5.544156981E0,4.067798555E-1,-9.858428955E0,-8.829515576E-1
5.548911772E0,2.129612118E-1,-1.000439167E1,-1.244267821E0
5.553666564E0,8.853443712E-2,-1.016471100E1,-1.533799291E0
5.558421356E0,-5.264209956E-2,-1.030349445E1,-1.761117458E0
5.563176147E0,-1.435693651E-1,-1.037767220E1,-1.931007862E0
5.567930939E0,-1.914258152E-1,-1.038724327E1,-2.012363911E0
5.572685731E0,-7.657032460E-2,-1.032024384E1,-1.986042738E0
5.577440522E0,2.081755698E-1,-1.018146038E1,-1.878365755E0
5.582195314E0,5.814558864E-1,-1.000439167E1,-1.694118381E0
5.586950106E0,1.036092162E0,-9.791430473E0,-1.490728498E0
5.591704897E0,1.524227977E0,-9.588040352E0,-1.304088354E0
5.596459689E0,1.904686809E0,-9.339186668E0,-1.258624673E0
5.601214481E0,2.538784742E0,-9.181260109E0,-9.643075466E-1
5.605969272E0,2.957528830E0,-9.162117958E0,-7.489534616E-1
5.610724064E0,3.275774240E0,-9.176474571E0,-6.269195080E-1
5.615478856E0,3.522234917E0,-9.205188751E0,-5.383850932E-1
5.620233647E0,3.653840065E0,-9.272188187E0,-4.905286431E-1
5.624988439E0,3.723232031E0,-9.341579437E0,-4.642075896E-1
5.629743231E0,3.711267948E0,-9.391828537E0,-4.570291340E-1
5.634498022E0,3.661018610E0,-9.403793335E0,-5.000999570E-1
5.639252814E0,3.517449379E0,-9.351150513E0,-5.766702294E-1
5.644007606E0,3.321237803E0,-9.236295700E0,-6.125625968E-1
5.648762397E0,3.120240688E0,-9.073583603E0,-6.029912829E-1
5.653517189E0,2.840280533E0,-8.932407379E0,-5.934200287E-1
5.658271981E0,2.562713146E0,-8.855836868E0,-5.886343718E-1
5.663026772E0,2.258824587E0,-8.810373306E0,-5.599204898E-1
5.667781564E0,1.993221283E0,-8.848658562E0,-4.953143001E-1
5.672536356E0,1.701296926E0,-8.910871506E0,-3.948157430E-1
5.677291147E0,1.464407444E0,-8.973084450E0,-2.656033039E-1
5.682045939E0,1.280160069E0,-9.054440498E0,-1.531406492E-1
5.686800731E0,1.134197950E0,-9.159725189E0,-2.632104978E-2
5.691555522E0,1.028913736E0,-9.298508644E0,1.316052526E-1
5.696310314E0,9.667003751E-1,-9.442078590E0,2.608176768E-1
5.701065106E0,8.805587292E-1,-9.535398483E0,3.948157430E-1
5.705819897E0,8.327022791E-1,-9.619147301E0,4.833501875E-1
5.710574689E0,8.446664214E-1,-9.678967476E0,5.072783828E-1
5.715329481E0,8.685946465E-1,-9.678967476E0,4.402793646E-1
5.720084272E0,9.667003751E-1,-9.600004196E0,3.780659735E-1
5.724839064E0,1.141376376E0,-9.466006279E0,3.110669553E-1
5.729593856E0,1.433300734E0,-9.308079720E0,2.584248483E-1
5.734348647E0,1.847259045E0,-9.183652878E0,2.297109663E-1
5.739103491E0,2.311466694E0,-9.169296265E0,2.321037948E-1
5.743858283E0,2.766103029E0,-9.276973724E0,2.297109663E-1
5.748613075E0,3.079562664E0,-9.420542717E0,2.679961324E-1
5.753367866E0,3.326023579E0,-9.568898201E0,2.656033039E-1
5.758122658E0,3.486342669E0,-9.712467194E0,2.656033039E-1
5.762877450E0,3.527020693E0,-9.805787086E0,2.368894368E-1
5.767632241E0,3.474378586E0,-9.891928673E0,1.746760458E-1
5.772387033E0,3.376272678E0,-9.939785004E0,9.571290761E-2
5.777141825E0,3.211168051E0,-9.944570541E0,7.178467698E-3
5.781896616E0,3.024527788E0,-9.899106979E0,-7.896314561E-2
5.786651408E0,2.835494757E0,-9.824930191E0,-1.651047617E-1
5.791406200E0,2.670390129E0,-9.729216576E0,-2.033899277E-1
5.796160991E0,2.500499725E0,-9.595218658E0,-2.201396823E-1
5.800915783E0,2.325823545E0,-9.499505997E0,-2.392822653E-1
5.805670575E0,2.093719721E0,-9.377471924E0,-2.679961324E-1
5.810425366E0,1.856830359E0,-9.284152031E0,-3.134597540E-1
5.815180158E0,1.627119422E0,-9.248259544E0,-3.589234054E-1
5.819934950E0,1.397408366E0,-9.209974289E0,-3.876372576E-1
5.824689741E0,1.165304661E0,-9.188439369E0,-3.780659735E-1
5.829444585E0,9.355936646E-1,-9.193224907E0,-3.158525825E-1
5.834199377E0,7.537391186E-1,-9.221938133E0,-2.081755698E-1
5.838954168E0,5.288137794E-1,-9.255437851E0,4.785645287E-3
5.843708960E0,3.541377485E-1,-9.291330338E0,2.943171859E-1
5.848463752E0,1.722832322E-1,-9.324830055E0,6.819544435E-1
5.853218543E0,-2.632104978E-2,-9.379864693E0,1.122233868E0
5.857973335E0,-1.914258152E-1,-9.439684868E0,1.550549030E0
5.862728127E0,-3.254238665E-1,-9.561718941E0,1.978864312E0
5.867482918E0,-4.043870270E-1,-9.631111145E0,2.383251429E0
5.872237710E0,-3.900300860E-1,-9.781859398E0,2.720639229E0
5.876992502E0,-3.278166950E-1,-9.944570541E0,2.943171740E0
5.881747293E0,-1.842473447E-1,-1.018624592E1,3.036491871E0
5.886502085E0,-4.067798331E-2,-1.049970531E1,2.969492912E0
5.891256929E0,6.460621208E-2,-1.085145092E1,2.660818815E0
5.896011720E0,2.727817893E-1,-1.115055370E1,2.246860504E0
5.900766512E0,5.120640397E-1,-1.145922756E1,1.718046665E0
5.905521304E0,8.494520187E-1,-1.180857944E1,1.196411371E0
5.910276095E0,1.263410330E0,-1.210528946E1,5.096712112E-1
5.915030887E0,1.840080619E0,-1.227757263E1,-1.698904037E-1
5.919785679E0,2.483749866E0,-1.227996540E1,-8.901300430E-1
5.924540470E0,3.101098061E0,-1.200239849E1,-1.710868239E0
5.929295262E0,3.871587038E0,-1.160519028E1,-2.280359983E0
5.934050054E0,4.488935471E0,-1.104766178E1,-2.648854733E0
5.938804845E0,5.063212872E0,-1.045663452E1,-2.782852650E0
5.943559689E0,5.417350292E0,-9.882357597E0,-2.711068153E0
5.948314481E0,5.668596745E0,-9.355937004E0,-2.447857618E0
5.953069272E0,5.850451469E0,-8.901300430E0,-2.024327993E0
5.957824064E0,5.984449387E0,-8.532805443E0,-1.533799291E0
5.962578856E0,6.020341873E0,-8.310273170E0,-1.069591761E0
5.967333647E0,5.900700569E0,-8.147561073E0,-6.460621357E-1
5.972088439E0,5.670989513E0,-8.097311974E0,-4.043870270E-1
5.976843231E0,5.276174068E0,-8.066205025E0,-2.847459018E-1
5.981598022E0,4.756931305E0,-7.999206066E0,-2.033899277E-1
5.986352866E0,4.149154663E0,-7.905886173E0,-2.297109663E-1
5.991107658E0,3.524627686E0,-7.855636597E0,-4.953143001E-1
5.995862450E0,2.955136061E0,-7.848458290E0,-9.188438654E-1
6.000617241E0,2.414358139E0,-7.831708431E0,-1.373480201E0
6.005372033E0,1.990828395E0,-7.779066563E0,-1.746760488E0
6.010126825E0,1.677368641E0,-7.678567886E0,-2.009970903E0
6.014881616E0,1.483550072E0,-7.534998417E0,-2.132004976E0
6.019636408E0,1.450050473E0,-7.360322475E0,-2.230110645E0
6.024391252E0,1.473978758E0,-7.171289444E0,-2.222932339E0
6.029146043E0,1.476371527E0,-6.929614544E0,-2.105684042E0
6.033900835E0,1.435693622E0,-6.608976364E0,-1.885544300E0
6.038655627E0,1.418943882E0,-6.199803352E0,-1.859223247E0
6.043410418E0,1.433300734E0,-5.812166214E0,-1.875972986E0
6.048165210E0,1.538584948E0,-5.544169903E0,-1.933400750E0
6.052920002E0,1.890329838E0,-5.388636589E0,-2.055434704E0
6.057674793E0,2.366501570E0,-5.324030399E0,-2.129612207E0
6.062429637E0,2.809173822E0,-5.307280540E0,-2.435893536E0
6.067184429E0,3.400201082E0,-5.412564754E0,-2.900100946E0
6.071939220E0,4.151547432E0,-5.647061348E0,-3.290131092E0
6.076694012E0,4.943571568E0,-6.053841114E0,-3.694518089E0
6.081448804E0,5.733202934E0,-6.628118515E0,-4.290330887E0
6.086203595E0,6.537191391E0,-7.204789162E0,-4.706682205E0
6.090958387E0,7.223931789E0,-7.836493969E0,-4.965106964E0
6.095713231E0,7.953742504E0,-8.561519623E0,-5.020142078E0
6.100468022E0,8.666803360E0,-9.346364975E0,-4.876572609E0
6.105222814E0,9.284152031E0,-1.014556789E1,-4.457828522E0
6.109977606E0,9.891928673E0,-1.095673466E1,-3.921836376E0
6.114732397E0,1.031545830E1,-1.173679543E1,-3.256631613E0
6.119487189E0,1.032502937E1,-1.236132145E1,-2.584248543E0
6.124242033E0,1.051884842E1,-1.301216984E1,-1.713261008E0
6.128996825E0,1.025324535E1,-1.348116302E1,-9.475577474E-1
6.133751616E0,9.504291534E0,-1.370848083E1,-3.804588020E-1
6.138506408E0,8.456234932E0,-1.373958778E1,-7.178467698E-3
6.143261200E0,7.066005230E0,-1.354816151E1,2.560320199E-1
6.148015991E0,5.503491879E0,-1.317488194E1,3.445664644E-1
6.152770835E0,3.830909014E0,-1.266760349E1,2.703889608E-1
6.157525627E0,2.203789711E0,-1.215793228E1,9.092725813E-2
6.162280418E0,9.188438654E-1,-1.162433243E1,-1.938186288E-1
6.167035210E0,-5.264209956E-2,-1.101416302E1,-3.900300860E-1
6.171790002E0,-8.374879360E-1,-1.056191921E1,-6.125625968E-1
6.176544845E0,-1.330409408E0,-1.014556789E1,-8.422735929E-1
6.181299637E0,-1.488335729E0,-9.810572624E0,-9.714859724E-1
6.186054429E0,-1.452443361E0,-9.547362328E0,-1.071984529E0
6.190809220E0,-1.272981644E0,-9.446864128E0,-1.205982566E0
6.195564012E0,-8.973084688E-1,-9.401400566E0,-1.490728498E0
6.200318804E0,-3.876372576E-1,-9.370293617E0,-1.887937069E0
6.205073647E0,2.225325108E-1,-9.310472488E0,-2.313859463E0
6.209828439E0,9.164510965E-1,-9.128618240E0,-2.553141832E0
6.214583231E0,1.299302697E0,-9.023334503E0,-2.751745939E0
6.219338022E0,1.665404558E0,-8.915657043E0,-2.840280533E0
6.224092814E0,2.132004976E0,-8.709874153E0,-2.751745939E0
6.228847606E0,2.545963287E0,-8.518448830E0,-2.694318295E0
6.233602450E0,2.806781054E0,-8.358129501E0,-2.526820660E0
6.238357241E0,3.156133175E0,-8.188239098E0,-2.299502611E0
6.243112033E0,3.670589924E0,-8.023134232E0,-1.969292998E0
6.247866825E0,4.180261135E0,-7.798209190E0,-1.514656782E0
6.252621616E0,4.682754040E0,-7.609176159E0,-1.138983607E0
6.257376460E0,5.127819061E0,-7.420143127E0,-7.728816867E-1
6.262131252E0,5.431707382E0,-7.252645493E0,-3.804588020E-1
6.266886043E0,5.606383324E0,-7.092326164E0,-9.571290761E-2
6.271640835E0,5.659025669E0,-6.943971157E0,9.571290761E-2
6.276395627E0,5.759523869E0,-6.769295216E0,3.637090325E-1
6.281150470E0,5.867201328E0,-6.589833736E0,6.101697683E-1
6.285905262E0,5.850451469E0,-6.391229153E0,6.580262184E-1
6.290660054E0,5.759523869E0,-6.283552170E0,5.647061467E-1
6.295414897E0,5.785845280E0,-6.273981094E0,3.924229145E-1
6.300169689E0,5.941378593E0,-6.405586243E0,2.679961324E-1
6.304924481E0,6.144768715E0,-6.611369133E0,1.004985496E-1
6.309679272E0,6.293123722E0,-6.766902447E0,-1.316052526E-1
6.314434064E0,6.367300987E0,-6.936792850E0,-4.019941986E-1
6.319188908E0,6.455835342E0,-7.156932354E0,-7.345965505E-1
6.323943700E0,6.460621357E0,-7.326822758E0,-1.105484009E0
6.328698491E0,6.412764549E0,-7.508677483E0,-1.426122308E0
6.333453283E0,6.367300987E0,-7.724031448E0,-1.732403636E0
6.338208075E0,6.319444656E0,-7.953742504E0,-1.935793519E0
6.342962918E0,6.376872540E0,-8.183453560E0,-2.117648125E0
6.347717710E0,6.484549522E0,-8.346165657E0,-2.184647083E0
6.352472502E0,6.561119556E0,-8.441878319E0,-2.244467735E0
6.357227293E0,6.630511761E0,-8.542376518E0,-2.232503414E0
6.361982137E0,6.707081795E0,-8.626125336E0,-2.203789711E0
6.366736929E0,6.716653347E0,-8.707481384E0,-2.175075769E0
6.371491720E0,6.661618233E0,-8.769695282E0,-2.196611166E0
6.376246512E0,6.530013084E0,-8.827122688E0,-2.189432621E0
6.381001356E0,6.386443615E0,-8.886942863E0,-2.141576290E0
6.385756147E0,6.161518097E0,-8.975478172E0,-2.031506538E0
6.390510939E0,5.857629776E0,-9.040083885E0,-1.916650891E0
6.395265731E0,5.587240696E0,-9.097511292E0,-1.825723648E0
6.400020575E0,5.254638672E0,-9.111868858E0,-1.753939033E0
6.404775366E0,4.878965378E0,-9.078369141E0,-1.799402595E0
6.409530158E0,4.484149456E0,-8.980263710E0,-1.785045743E0
6.414284950E0,4.055834293E0,-8.865407944E0,-1.694118381E0
6.419039793E0,3.672982693E0,-8.688339233E0,-1.588834286E0
6.423794585E0,3.261417150E0,-8.470592499E0,-1.519442320E0
6.428549377E0,2.952743053E0,-8.216953278E0,-1.502692580E0
6.433304168E0,2.648854733E0,-7.977670670E0,-1.524227977E0
6.438059012E0,2.471785784E0,-7.779066563E0,-1.627119422E0
6.442813804E0,2.344966173E0,-7.580461979E0,-1.785045743E0
6.447568595E0,2.270788670E0,-7.441678524E0,-2.012363911E0
6.452323387E0,2.234896421E0,-7.417750359E0,-2.251646042E0
6.457078231E0,2.282752752E0,-7.496713161E0,-2.476571321E0
6.461833022E0,2.395215511E0,-7.599604607E0,-2.667997360E0
6.466587814E0,2.560320139E0,-7.721638680E0,-2.773281336E0
6.471342658E0,2.670390129E0,-7.858029366E0,-2.658426046E0
6.476097450E0,2.773281336E0,-7.968099594E0,-2.397608280E0
6.480852241E0,2.873780012E0,-8.015955925E0,-2.132004976E0
6.485607033E0,2.974278450E0,-8.068597794E0,-1.928615093E0
6.490361877E0,3.067598581E0,-8.085348129E0,-1.732403636E0
6.495116668E0,3.170490026E0,-8.090133667E0,-1.586441398E0
6.499871460E0,3.256631613E0,-8.099704742E0,-1.512263894E0
6.504626304E0,3.357130051E0,-8.080561638E0,-1.473978758E0
6.509381095E0,3.469592810E0,-8.015955925E0,-1.416550994E0
6.514135887E0,3.625126362E0,-7.936992645E0,-1.387837172E0
6.518890679E0,3.826123476E0,-7.776673794E0,-1.301695466E0
6.523645522E0,4.063013077E0,-7.585247993E0,-1.239482164E0
6.528400314E0,4.247260094E0,-7.357929707E0,-1.174875975E0
6.533155106E0,4.419543266E0,-7.066005230E0,-1.191625714E0
6.537909950E0,4.512863636E0,-6.766902447E0,-1.160519004E0
6.542664741E0,4.594219685E0,-6.518048763E0,-1.217946768E0
6.547419533E0,4.699503899E0,-6.324230194E0,-1.287338614E0
6.552174377E0,4.780859470E0,-6.178267956E0,-1.464407444E0
6.556929168E0,4.900500774E0,-6.101697922E0,-1.674975872E0
6.561683960E0,5.008177757E0,-6.120840549E0,-1.873580098E0
6.566438752E0,5.192425251E0,-6.257231236E0,-2.019542217E0
6.571193595E0,5.388636589E0,-6.479763508E0,-2.088934183E0
6.575948387E0,5.515456200E0,-6.807580471E0,-2.112862349E0
6.580703179E0,5.668596745E0,-7.219145775E0,-2.103291035E0
6.585458022E0,5.726024628E0,-7.685746193E0,-2.081755638E0
6.590212814E0,5.678168297E0,-8.231309891E0,-2.074577332E0
6.594967606E0,5.618347645E0,-8.793622971E0,-1.969292998E0
6.599722450E0,5.474778175E0,-9.279366493E0,-1.677368641E0
6.604477241E0,5.280959606E0,-9.777072906E0,-1.215553880E0
6.609232033E0,4.943571568E0,-1.019103146E1,-6.699903607E-1
6.613986877E0,4.603790760E0,-1.051645565E1,-1.268195957E-1
6.618741668E0,4.185046673E0,-1.097587776E1,2.943171859E-1
6.623496460E0,3.869194269E0,-1.129412270E1,4.163511395E-1
6.628251304E0,3.500699520E0,-1.145922756E1,3.397808075E-1
6.633006095E0,3.225524902E0,-1.145444202E1,-1.339980662E-1
6.637760887E0,3.022135019E0,-1.125344467E1,-8.614161611E-1
6.642515679E0,2.895315409E0,-1.082991505E1,-1.763510346E0
6.647270522E0,2.924029350E0,-1.026999474E1,-2.775674343E0
6.652025314E0,3.132204771E0,-9.757930756E0,-3.694518089E0
6.656780106E0,3.395415306E0,-9.437292099E0,-4.295116425E0
6.661534950E0,3.708875179E0,-9.310472488E0,-4.450650215E0
6.666289741E0,3.991228104E0,-9.353543282E0,-4.242474556E0
6.671044533E0,4.311866283E0,-9.576076508E0,-3.919443607E0
6.675799377E0,4.630111694E0,-9.824930191E0,-3.550948858E0
6.680554168E0,4.957928658E0,-1.011206818E1,-3.120240688E0
6.685308960E0,5.319244862E0,-1.024367332E1,-2.672782898E0
6.690063804E0,5.745167255E0,-1.023649502E1,-2.194218397E0
6.694818595E0,6.015556335E0,-1.021256733E1,-1.741974831E0
6.699573439E0,6.262016773E0,-1.021974564E1,-1.433300734E0
6.704328231E0,6.388836384E0,-1.012164021E1,-1.141376376E0
6.709083022E0,6.398407936E0,-1.000199890E1,-8.566305041E-1
6.713837866E0,6.376872540E0,-9.832108498E0,-6.388836503E-1
6.718592658E0,6.312266350E0,-9.571290970E0,-4.522434771E-1
6.723347450E0,6.319444656E0,-9.372686386E0,-2.632105052E-1
6.728102293E0,6.317051888E0,-9.154939651E0,-1.866401732E-1
6.732857085E0,6.295516491E0,-8.913264275E0,-2.177468538E-1
6.737611877E0,6.180660725E0,-8.726624489E0,-4.091726840E-1
6.742366720E0,5.960521221E0,-8.604590416E0,-6.628118753E-1
6.747121512E0,5.637490273E0,-8.508877754E0,-9.140582681E-1
6.751876304E0,5.257031441E0,-8.489734650E0,-1.184447169E0
6.756631147E0,4.752145767E0,-8.475378036E0,-1.366301775E0
6.761385939E0,4.237689018E0,-8.494520187E0,-1.481157184E0
6.766140731E0,3.775874138E0,-8.506484032E0,-1.466800332E0
6.770895575E0,3.354737282E0,-8.508877754E0,-1.313659668E0
6.775650366E0,2.955136061E0,-8.463413239E0,-1.052842021E0
6.780405210E0,2.507678032E0,-8.377271652E0,-7.944171429E-1
6.785160002E0,2.074577332E0,-8.274380684E0,-6.053841114E-1
6.789914793E0,1.653440475E0,-8.111668587E0,-4.977070987E-1
6.794669637E0,1.189232826E0,-7.951349735E0,-4.809573591E-1
6.799424429E0,8.159525394E-1,-7.836493969E0,-6.317051649E-1
6.804179220E0,5.240281820E-1,-7.702496052E0,-9.451649189E-1
6.808934064E0,3.948157430E-1,-7.590033531E0,-1.328016520E0
6.813688856E0,3.804588020E-1,-7.527820110E0,-1.763510346E0
6.818443700E0,5.359922647E-1,-7.537391186E0,-2.129612207E0
6.823198491E0,7.489534616E-1,-7.556533813E0,-2.390429735E0
6.827953283E0,9.954141974E-1,-7.683353424E0,-2.455035925E0
6.832708127E0,1.174875975E0,-7.858029366E0,-2.400001049E0
6.837462918E0,1.385444283E0,-8.056633949E0,-2.294716835E0
6.842217762E0,1.624726534E0,-8.269595146E0,-2.187039852E0
6.846972554E0,1.966900229E0,-8.504091263E0,-2.122433662E0
6.851727345E0,2.335394859E0,-8.760123253E0,-2.062613010E0
6.856482189E0,2.739781857E0,-8.992227554E0,-1.986042738E0
6.861236981E0,3.098705292E0,-9.119047165E0,-1.947757602E0
6.865991772E0,3.483949661E0,-9.188439369E0,-1.947757602E0
6.870746616E0,3.814159393E0,-9.255437851E0,-1.990828395E0
6.875501408E0,4.043870449E0,-9.355937004E0,-2.033899307E0
6.880256252E0,4.192225456E0,-9.458827972E0,-1.993221283E0
6.885011043E0,4.189832687E0,-9.477970123E0,-1.844866276E0
6.889765835E0,4.084548473E0,-9.434899330E0,-1.576870084E0
6.894520679E0,3.862015724E0,-9.348757744E0,-1.256231904E0
6.899275470E0,3.711267948E0,-9.219545364E0,-1.045663476E0
6.904030314E0,3.641875982E0,-9.133403778E0,-9.475577474E-1
6.908785106E0,3.632304668E0,-9.090332985E0,-9.906286001E-1
6.913539897E0,3.646661758E0,-9.004191399E0,-1.184447169E0
6.918294741E0,3.653840065E0,-8.953942299E0,-1.481157184E0
6.923049533E0,3.713660717E0,-8.858229637E0,-1.823330879E0
6.927804377E0,3.754338741E0,-8.695517540E0,-2.065006018E0
6.932559168E0,3.804588079E0,-8.561519623E0,-2.208575249E0
6.937314012E0,3.900300980E0,-8.365307808E0,-2.201396942E0
6.942068804E0,3.974478483E0,-8.200202942E0,-2.100898266E0
6.946823595E0,4.103690624E0,-8.008777618E0,-1.897508383E0
6.951578439E0,4.228117466E0,-7.838887215E0,-1.658226132E0
6.956333231E0,4.354937077E0,-7.625925541E0,-1.387837172E0
6.961088022E0,4.510470867E0,-7.424928665E0,-1.172483087E0
6.965842866E0,4.670789719E0,-7.267002583E0,-1.064806104E0
6.970597658E0,4.838287354E0,-7.135396957E0,-1.019342422E0
6.975352502E0,5.036891460E0,-7.020541668E0,-1.057627559E0
6.980107293E0,5.280959606E0,-6.915257454E0,-1.186840057E0
6.984862137E0,5.558526993E0,-6.850651264E0,-1.342373490E0
6.989616929E0,5.831308842E0,-6.826723099E0,-1.569691658E0
6.994371720E0,6.108876228E0,-6.884150982E0,-1.808973908E0
6.999126564E0,6.336194515E0,-7.061219692E0,-2.017149448E0
7.003881356E0,6.585047722E0,-7.319644451E0,-2.110469580E0
7.008636200E0,6.678368092E0,-7.678567886E0,-2.160718918E0
7.013390991E0,6.754938126E0,-8.128418922E0,-2.093719721E0
7.018145835E0,6.845865726E0,-8.604590416E0,-1.938186288E0
7.022900627E0,6.819544315E0,-9.016156197E0,-1.646261930E0
7.027655418E0,6.774080753E0,-9.269794464E0,-1.404586911E0
7.032410262E0,6.551548481E0,-9.449256897E0,-1.150947690E0
7.037165054E0,6.338587284E0,-9.530612946E0,-9.451649189E-1
7.041919897E0,6.082555294E0,-9.454042435E0,-7.848458290E-1
7.046674689E0,5.852844238E0,-9.274580956E0,-6.149554253E-1
7.051429533E0,5.670989513E0,-8.985049248E0,-5.503492355E-1
7.056184325E0,5.467599869E0,-8.642875671E0,-5.312066078E-1
7.060939168E0,5.206781864E0,-8.322237015E0,-5.575276613E-1
7.065693960E0,4.852644444E0,-8.054241180E0,-6.436693072E-1
7.070448752E0,4.479363918E0,-7.881958008E0,-7.130611539E-1
7.075203595E0,4.027120590E0,-7.735995770E0,-7.585247755E-1
7.079958387E0,3.562912941E0,-7.664210796E0,-8.111668825E-1
7.084713231E0,3.175275564E0,-7.613961697E0,-8.231309652E-1
7.089468022E0,2.840280533E0,-7.578069210E0,-8.111668825E-1
7.094222866E0,2.545963287E0,-7.587640762E0,-7.944171429E-1
7.098977658E0,2.342573404E0,-7.618747234E0,-7.824530005E-1
7.103732502E0,2.213361025E0,-7.695317745E0,-8.039883971E-1
7.108487293E0,2.242074728E0,-7.834101200E0,-9.355936646E-1
7.113242085E0,2.373680115E0,-8.027919769E0,-1.093519926E0
7.117996929E0,2.553141832E0,-8.303094864E0,-1.261017561E0
7.122751720E0,2.744567633E0,-8.618947029E0,-1.433300734E0
7.127506564E0,2.897708178E0,-8.946763992E0,-1.579262972E0
7.132261356E0,3.043670416E0,-9.305686951E0,-1.682154298E0
7.137016200E0,3.211168051E0,-9.719645500E0,-1.706082582E0
7.141770991E0,3.424129248E0,-1.006421185E1,-1.653440475E0
7.146525835E0,3.694518089E0,-1.035374355E1,-1.579262972E0
7.151280627E0,3.957728624E0,-1.060499001E1,-1.526620865E0
7.156035470E0,4.220939159E0,-1.081555843E1,-1.526620865E0
7.160790262E0,4.469792843E0,-1.091844940E1,-1.581655741E0
7.165545054E0,4.663611412E0,-1.097587776E1,-1.703689694E0
7.170299897E0,4.821537495E0,-1.102373409E1,-1.844866276E0
7.175054689E0,4.907679081E0,-1.106201935E1,-1.957328916E0
7.179809533E0,4.898108006E0,-1.106919765E1,-2.093719721E0
7.184564325E0,4.890929699E0,-1.097109222E1,-2.153540373E0
7.189319168E0,4.761716843E0,-1.071745300E1,-2.112862349E0
7.194073960E0,4.534399033E0,-1.037527943E1,-2.048256159E0
7.198828804E0,4.268795490E0,-9.908679008E0,-1.966900229E0
7.203583595E0,4.096512318E0,-9.396614075E0,-1.782652855E0
7.208338439E0,3.998406649E0,-8.915657043E0,-1.392622828E0
7.213093231E0,3.881158352E0,-8.427521706E0,-1.012163997E0
7.217848075E0,3.682554007E0,-7.996813297E0,-6.460621357E-1
7.222602866E0,3.452843189E0,-7.578069210E0,-3.493520916E-1
7.227357710E0,3.263810158E0,-7.238288403E0,-1.603191197E-1
7.232112502E0,3.194418192E0,-7.003791809E0,-6.460621208E-2
7.236867345E0,3.127419233E0,-6.841079712E0,-1.004985496E-1
7.241622137E0,3.026920557E0,-6.774080753E0,-2.153540403E-1
7.246376981E0,2.919243574E0,-6.764509678E0,-4.498506486E-1
7.251131772E0,2.959921598E0,-6.786045074E0,-7.537391186E-1
7.255886616E0,3.093919754E0,-6.927221775E0,-1.100698471E0
7.260641408E0,3.285345554E0,-7.197610378E0,-1.330409408E0
7.265396200E0,3.481556892E0,-7.645068169E0,-1.368694544E0
7.270151043E0,3.531806231E0,-8.137989998E0,-1.213161111E0
7.274905887E0,3.491128206E0,-8.626125336E0,-9.643075466E-1
7.279660679E0,3.357130051E0,-8.968298912E0,-5.934200287E-1
7.284415470E0,3.218346357E0,-9.248259544E0,-1.746760458E-1
7.289170314E0,3.122633457E0,-9.475577354E0,1.914258152E-1
7.293925106E0,3.105883837E0,-9.731609344E0,3.948157430E-1
7.298679950E0,3.156133175E0,-9.903892517E0,3.206382394E-1
7.303434741E0,3.180061340E0,-9.966106415E0,-2.632104978E-2
7.308189585E0,3.182454109E0,-9.982855797E0,-6.269195080E-1
7.312944377E0,3.170490026E0,-9.961320877E0,-1.359123230E0
7.317699220E0,3.203989506E0,-9.994820595E0,-2.050648928E0
7.322454012E0,3.314059258E0,-1.000439167E1,-2.505285263E0
7.327208856E0,3.500699520E0,-9.987641335E0,-2.543570518E0
7.331963647E0,3.701696634E0,-9.913464546E0,-2.251646042E0
7.336718491E0,3.864408493E0,-9.808179855E0,-1.749153376E0
7.341473283E0,4.000799656E0,-9.662218094E0,-1.203589797E0
7.346228127E0,4.060619831E0,-9.525827408E0,-7.345965505E-1
7.350982918E0,4.012763500E0,-9.413364410E0,-4.618147612E-1
7.355737762E0,3.914657831E0,-9.291330338E0,-5.168496966E-1
7.360492554E0,3.854837179E0,-9.212367058E0,-8.901300430E-1
7.365247397E0,3.761517286E0,-9.107083321E0,-1.442872047E0
7.370002189E0,3.687339783E0,-8.980263710E0,-2.098505497E0
7.374757033E0,3.658625841E0,-8.884550095E0,-2.751745939E0
7.379511825E0,3.744767427E0,-8.709874153E0,-3.244667530E0
7.384266668E0,4.022335052E0,-8.384450912E0,-3.594019651E0
7.389021460E0,4.280759811E0,-8.329415321E0,-3.735196114E0
7.393776304E0,4.534399033E0,-8.128418922E0,-3.687339783E0
7.398531147E0,4.862215519E0,-7.922635555E0,-3.515056372E0
7.403285939E0,5.249852657E0,-7.728816986E0,-3.342773199E0
7.408040783E0,5.749952793E0,-7.534998417E0,-3.096312523E0
7.412795575E0,6.099305153E0,-7.417750359E0,-2.780459881E0
7.417550418E0,6.474977970E0,-7.334001541E0,-2.402393818E0
7.422305210E0,6.726224422E0,-7.336394310E0,-2.141576290E0
7.427060054E0,6.884150982E0,-7.367500782E0,-1.942971945E0
7.431814845E0,6.963113785E0,-7.379465103E0,-1.775474429E0
7.436569689E0,7.037291527E0,-7.554141045E0,-1.658226132E0
7.441324481E0,6.984649181E0,-7.712067604E0,-1.481157184E0
7.446079325E0,6.807580471E0,-7.953742504E0,-1.277767301E0
7.450834116E0,6.683153629E0,-8.202595711E0,-9.930213690E-1
7.455588960E0,6.565905571E0,-8.451449394E0,-6.675975323E-1
7.460343752E0,6.460621357E0,-8.688339233E0,-3.732803464E-1
7.465098595E0,6.345765591E0,-8.879764557E0,-1.555334777E-1
7.469853387E0,6.147161484E0,-9.037691116E0,-1.052841991E-1
7.474608231E0,5.795416355E0,-9.087940216E0,-1.651047617E-1
7.479363075E0,5.374279499E0,-9.097511292E0,-3.613162339E-1
7.484117866E0,5.020142078E0,-9.047262192E0,-6.580262184E-1
7.488872710E0,4.790431023E0,-8.985049248E0,-9.595218897E-1
7.493627502E0,4.733003139E0,-8.822337151E0,-1.196411371E0
7.498382345E0,4.783252239E0,-8.595019341E0,-1.263410330E0
7.503137137E0,4.821537495E0,-8.391629219E0,-1.177268744E0
7.507891981E0,4.833501816E0,-8.185846329E0,-1.093519926E0
7.512646772E0,4.874179840E0,-8.027919769E0,-1.028913736E0
7.517401616E0,4.890929699E0,-7.925028801E0,-1.036092162E0
7.522156408E0,4.912465096E0,-7.800601959E0,-1.136590719E0
7.526911252E0,4.862215519E0,-7.714460373E0,-1.299302697E0
7.531666043E0,4.773681164E0,-7.642675400E0,-1.543370605E0
7.536420887E0,4.704289436E0,-7.563712597E0,-1.797009826E0
7.541175731E0,4.622933388E0,-7.513463020E0,-2.060220242E0
7.545930522E0,4.587040901E0,-7.503891945E0,-2.225325108E0
7.550685366E0,4.560719967E0,-7.542177200E0,-2.311466694E0
7.555440158E0,4.527220249E0,-7.601997375E0,-2.337787628E0
7.560195002E0,4.522434711E0,-7.640282631E0,-2.306680918E0
7.564949793E0,4.417150497E0,-7.769495010E0,-2.335394859E0
7.569704637E0,4.319045067E0,-7.913064480E0,-2.354537487E0
7.574459429E0,4.146761417E0,-8.133204460E0,-2.388036966E0
7.579214272E0,3.890729666E0,-8.434700012E0,-2.407179594E0
7.583969064E0,3.646661758E0,-8.786444664E0,-2.428714991E0
7.588723908E0,3.467200041E0,-9.119047165E0,-2.505285263E0
7.593478752E0,3.280559778E0,-9.489934921E0,-2.581855536E0
7.598233543E0,3.194418192E0,-9.853643417E0,-2.670390129E0
7.602988387E0,3.110669374E0,-1.023170948E1,-2.672782898E0
7.607743179E0,3.120240688E0,-1.060977554E1,-2.667997360E0
7.612498022E0,3.189632654E0,-1.100698376E1,-2.639283419E0
7.617252814E0,3.304488182E0,-1.142572784E1,-2.584248543E0
7.622007658E0,3.431307554E0,-1.181097221E1,-2.644068956E0
7.626762450E0,3.615555048E0,-1.220100307E1,-2.744567633E0
7.631517293E0,3.869194269E0,-1.253839111E1,-2.892922640E0
7.636272137E0,4.074976921E0,-1.292124271E1,-2.998206854E0
7.641026929E0,4.247260094E0,-1.316530991E1,-3.117847919E0
7.645781772E0,4.371686935E0,-1.338305664E1,-3.196810961E0
7.650536564E0,4.567898273E0,-1.348834133E1,-3.125026464E0
7.655291408E0,4.802394867E0,-1.346441269E1,-2.981456995E0
7.660046200E0,4.955535889E0,-1.326820183E1,-2.866601467E0
7.664801043E0,5.029713154E0,-1.286620712E1,-2.833101988E0
7.669555887E0,5.024927616E0,-1.243549919E1,-2.859423161E0
7.674310679E0,5.034498692E0,-1.196172047E1,-2.924029350E0
7.679065522E0,5.008177757E0,-1.153579807E1,-3.014956474E0
7.683820314E0,4.981856823E0,-1.107398319E1,-3.091526747E0
7.688575158E0,5.015356064E0,-1.069352436E1,-3.160918713E0
7.693329950E0,5.132604599E0,-1.032981491E1,-3.172882795E0
7.698084793E0,5.278566837E0,-1.003310490E1,-3.110669374E0
7.702839585E0,5.453242779E0,-9.717252731E0,-2.962314367E0
7.707594429E0,5.592026711E0,-9.516255379E0,-2.849851847E0
7.712349272E0,5.769095421E0,-9.358329773E0,-2.670390129E0
7.717104064E0,5.984449387E0,-9.198010445E0,-2.500499725E0
7.721858908E0,6.139982700E0,-9.075976372E0,-2.309073925E0
7.726613700E0,6.242874146E0,-8.951549530E0,-2.067398787E0
7.731368543E0,6.242874146E0,-8.784051895E0,-1.787438512E0
7.736123335E0,6.202196121E0,-8.563912392E0,-1.466800332E0
7.740878179E0,6.034698486E0,-8.384450912E0,-1.184447169E0
7.745633022E0,5.730810165E0,-8.133204460E0,-9.260223508E-1
7.750387814E0,5.429314613E0,-7.982456207E0,-6.963114142E-1
7.755142658E0,5.163711071E0,-7.817351341E0,-4.450650215E-1
7.759897450E0,4.950749874E0,-7.659425259E0,-1.818545163E-1
7.764652293E0,4.761716843E0,-7.472784996E0,3.828516230E-2
7.769407137E0,4.637290478E0,-7.317251682E0,1.292124242E-1
7.774161929E0,4.515256405E0,-7.290930748E0,7.657032460E-2
7.778916772E0,4.359723091E0,-7.343572617E0,-1.507478207E-1
7.783671564E0,4.153940201E0,-7.525427341E0,-4.713860750E-1
7.788426408E0,4.144368649E0,-7.822137356E0,-8.207381964E-1
7.793181200E0,4.266402721E0,-8.161917686E0,-1.060020447E0
7.797936043E0,4.445864677E0,-8.583054543E0,-1.296909928E0
7.802690887E0,4.610969067E0,-8.987442017E0,-1.438086390E0
7.807445679E0,4.768895626E0,-9.276973724E0,-1.488335729E0
7.812200522E0,4.986642361E0,-9.511469841E0,-1.490728498E0
7.816955314E0,5.142175674E0,-9.650253296E0,-1.457229018E0
7.821710158E0,5.216353416E0,-9.722038269E0,-1.418943882E0
7.826465002E0,5.154139996E0,-9.657432556E0,-1.433300734E0
7.831219793E0,5.051248550E0,-9.578469276E0,-1.428515077E0
7.835974637E0,4.960321426E0,-9.444471359E0,-1.442872047E0
7.840729429E0,4.816751957E0,-9.296115875E0,-1.524227977E0
7.845484272E0,4.689932346E0,-9.135796547E0,-1.665404558E0
7.850239116E0,4.589433670E0,-9.023334503E0,-1.878365755E0
7.854993908E0,4.414757729E0,-8.951549530E0,-2.194218397E0
7.859748752E0,4.242474556E0,-8.925228119E0,-2.548356056E0
7.864503543E0,4.058227062E0,-8.949156761E0,-2.895315409E0
7.869258387E0,3.921836376E0,-9.016156197E0,-3.213560820E0
7.874013231E0,3.766302824E0,-9.030512810E0,-3.373879910E0
7.878768022E0,3.637090445E0,-9.037691116E0,-3.369094372E0
7.883522866E0,3.522234917E0,-9.049654961E0,-3.163311481E0
7.888277658E0,3.450450182E0,-9.078369141E0,-2.794816732E0
7.893032502E0,3.369094372E0,-9.049654961E0,-2.311466694E0
7.897787345E0,3.306880951E0,-8.992227554E0,-1.880758643E0
7.902542137E0,3.261417150E0,-8.937192917E0,-1.509871125E0
7.907296981E0,3.211168051E0,-8.853444099E0,-1.275374413E0
7.912051772E0,3.184846878E0,-8.760123253E0,-1.201196909E0
7.916806616E0,3.182454109E0,-8.697910309E0,-1.241874933E0
7.921561408E0,3.177668571E0,-8.626125336E0,-1.335195065E0
7.926316252E0,3.165704250E0,-8.559126854E0,-1.423729420E0
7.931071095E0,3.177668571E0,-8.504091263E0,-1.469193101E0
7.935825887E0,3.223132133E0,-8.441878319E0,-1.536192179E0
7.940580731E0,3.318845034E0,-8.346165657E0,-1.543370605E0
7.945335522E0,3.402593851E0,-8.252845764E0,-1.505085468E0
7.950090366E0,3.519842148E0,-8.128418922E0,-1.409372568E0
7.954845210E0,3.665804386E0,-7.963313580E0,-1.332802176E0
7.959600002E0,3.785445452E0,-7.841279984E0,-1.373480201E0
7.964354845E0,3.964907169E0,-7.712067604E0,-1.440479279E0
7.969109637E0,4.118047714E0,-7.642675400E0,-1.591227055E0
7.973864481E0,4.278367043E0,-7.597211838E0,-1.770688772E0
7.978619325E0,4.374079704E0,-7.568498135E0,-1.966900229E0
7.983374116E0,4.467400074E0,-7.597211838E0,-2.177468538E0
7.988128960E0,4.577469826E0,-7.618747234E0,-2.316252232E0
7.992883804E0,4.682754040E0,-7.635497093E0,-2.385644197E0
7.997638595E0,4.804787636E0,-7.652246952E0,-2.364108801E0
8.002393439E0,4.931607246E0,-7.692924976E0,-2.261217356E0
8.007148231E0,5.012963295E0,-7.692924976E0,-2.172683001E0
8.011903075E0,5.113461971E0,-7.735995770E0,-2.043470621E0
8.016657918E0,5.154139996E0,-7.798209190E0,-1.952543259E0
8.021412710E0,5.154139996E0,-7.903493404E0,-1.969292998E0
8.026167554E0,5.180460930E0,-8.001599312E0,-2.000399828E0
8.030922397E0,5.225924492E0,-8.078168869E0,-2.062613010E0
8.035677189E0,5.302495003E0,-8.181060791E0,-2.110469580E0
8.040432033E0,5.367101192E0,-8.269595146E0,-2.177468538E0
8.045186825E0,5.429314613E0,-8.386843681E0,-2.234896421E0
8.049941668E0,5.469992638E0,-8.465806961E0,-2.321038008E0
8.054696512E0,5.469992638E0,-8.587840080E0,-2.400001049E0
8.059451304E0,5.527420521E0,-8.752944946E0,-2.438286304E0
8.064206147E0,5.613562107E0,-8.913264275E0,-2.505285263E0
8.068960939E0,5.692524910E0,-9.095118523E0,-2.629712105E0
8.073715783E0,5.828916073E0,-9.286544800E0,-2.816352367E0
8.078470627E0,5.967699528E0,-9.468399048E0,-3.038884640E0
8.083225418E0,6.108876228E0,-9.626325607E0,-3.285345554E0
8.087980262E0,6.278766632E0,-9.731609344E0,-3.493520975E0
8.092735106E0,6.446264267E0,-9.798608780E0,-3.737588882E0
8.097489897E0,6.587440968E0,-9.868000984E0,-3.933800459E0
8.102244741E0,6.656832695E0,-9.899106979E0,-4.108476639E0
8.106999585E0,6.695117950E0,-9.860821724E0,-4.185046673E0
8.111754377E0,6.659225464E0,-9.817750931E0,-4.230510235E0
8.116509220E0,6.616154671E0,-9.714859962E0,-4.261617184E0
8.121264012E0,6.570691109E0,-9.580862045E0,-4.345366001E0
8.126018856E0,6.573083878E0,-9.432506561E0,-4.421936035E0
8.130773700E0,6.620940208E0,-9.255437851E0,-4.476971149E0
8.135528491E0,6.711867332E0,-9.047262192E0,-4.469792843E0
8.140283335E0,6.754938126E0,-8.870193481E0,-4.457828522E0
8.145038179E0,6.790830612E0,-8.690732002E0,-4.417150497E0
8.149792970E0,6.778866768E0,-8.523234367E0,-4.338187218E0
8.154547814E0,6.731009960E0,-8.377271652E0,-4.297509670E0
8.159302606E0,6.630511761E0,-8.236095428E0,-4.292723656E0
8.164057450E0,6.494120598E0,-8.145168304E0,-4.264009953E0
8.168812293E0,6.355337143E0,-8.080561638E0,-4.259224415E0
8.173567085E0,6.204588890E0,-8.032705307E0,-4.261617184E0
8.178321929E0,6.053841114E0,-8.006384850E0,-4.268795490E0
8.183076772E0,5.867201328E0,-7.951349735E0,-4.268795490E0
8.187831564E0,5.589633465E0,-7.946564198E0,-4.225724697E0
8.192586408E0,5.290530682E0,-7.936992645E0,-4.170690060E0
8.197341252E0,4.991427898E0,-7.908278942E0,-4.127619267E0
8.202096043E0,4.685146809E0,-7.922635555E0,-4.103690624E0
8.206850887E0,4.316651821E0,-7.898707390E0,-4.168296814E0
8.211605731E0,3.955335855E0,-7.922635555E0,-4.244867325E0
8.216360522E0,3.694518089E0,-7.898707390E0,-4.264009953E0
8.221115366E0,3.500699520E0,-7.901100159E0,-4.292723656E0
8.225870210E0,3.369094372E0,-7.910671711E0,-4.378865242E0
8.230625002E0,3.232703447E0,-7.927421570E0,-4.467400074E0
8.235379845E0,3.081955671E0,-7.905886173E0,-4.637290478E0
8.240134637E0,2.947957516E0,-7.932207108E0,-4.792823792E0
8.244889481E0,2.892922640E0,-7.939385414E0,-4.833501816E0
8.249644325E0,2.845066071E0,-7.992027760E0,-4.804787636E0
8.254399116E0,2.816352367E0,-7.992027760E0,-4.733003139E0
8.259153960E0,2.888136864E0,-7.977670670E0,-4.606183529E0
8.263908752E0,2.866601467E0,-8.039883614E0,-4.582255363E0
8.268663595E0,2.991028309E0,-8.049455643E0,-4.725824833E0
8.273418439E0,3.251846075E0,-8.020741463E0,-5.015356064E0
8.278173231E0,3.515056372E0,-8.047062874E0,-5.410171986E0
8.282928075E0,3.948157310E0,-8.082955360E0,-5.807380676E0
8.287682918E0,4.335794449E0,-8.114061356E0,-6.013163090E0
8.292437710E0,4.756931305E0,-8.135597229E0,-5.852844238E0
8.297192554E0,5.134997368E0,-8.274380684E0,-5.426921844E0
8.301947397E0,5.496313572E0,-8.382058144E0,-4.840680122E0
8.306702189E0,5.769095421E0,-8.405985832E0,-4.213760853E0
8.311457033E0,6.240481377E0,-8.489734650E0,-3.548556089E0
8.316211877E0,6.563512325E0,-8.547162056E0,-3.199203968E0
8.320966668E0,6.668796539E0,-8.494520187E0,-3.098705292E0
8.325721512E0,6.924828529E0,-8.547162056E0,-2.967100143E0
8.330476356E0,6.915257454E0,-8.508877754E0,-2.902493954E0
8.335231147E0,6.771687984E0,-8.410771370E0,-2.723032236E0
8.339985991E0,6.482156754E0,-8.298309326E0,-2.589034081E0
8.344740835E0,6.195017815E0,-8.152346611E0,-2.548356056E0
8.349495627E0,6.005984783E0,-7.925028801E0,-2.543570518E0
8.354250470E0,5.883950710E0,-7.707281590E0,-2.608176708E0
8.359005314E0,5.809773445E0,-7.563712597E0,-2.775674343E0
8.363760106E0,5.912664890E0,-7.432106972E0,-3.067598581E0
8.368514950E0,6.027520180E0,-7.417750359E0,-3.517449379E0
8.373269793E0,6.269195557E0,-7.412964344E0,-4.017549038E0
8.378024585E0,6.575476646E0,-7.348358154E0,-4.520041943E0
8.382779429E0,6.317051888E0,-7.293323517E0,-5.111069202E0
8.387534272E0,7.180860519E0,-7.458428383E0,-5.283352375E0
8.392289064E0,7.925028801E0,-7.377072334E0,-5.477170944E0
8.397043908E0,8.537590981E0,-7.695317745E0,-5.513063431E0
8.401798700E0,8.891729355E0,-8.011170387E0,-5.436492920E0
8.406553543E0,9.442078590E0,-8.329415321E0,-5.039284706E0
8.411308387E0,9.808179855E0,-8.535198212E0,-4.453042984E0
8.416063179E0,9.523433685E0,-8.755337715E0,-3.881158352E0
8.420818022E0,9.276973724E0,-8.903693199E0,-3.359523058E0
8.425572866E0,8.571090698E0,-9.114261627E0,-2.830709219E0
8.430327658E0,7.592426300E0,-9.030512810E0,-2.656033039E0
8.435082502E0,6.513263226E0,-8.810373306E0,-2.787638426E0
8.439837345E0,5.534598827E0,-8.439485550E0,-3.101098061E0
8.444592137E0,4.845465660E0,-7.951349735E0,-3.481556892E0
8.449346981E0,4.496113777E0,-7.307680130E0,-3.897907972E0
8.454101825E0,4.409972191E0,-6.608976364E0,-4.400400639E0
8.458856616E0,4.340580463E0,-5.991627693E0,-4.955535889E0
8.463611460E0,4.359723091E0,-5.407779217E0,-5.551348686E0
8.468366304E0,4.474578381E0,-4.969892502E0,-6.099305153E0
8.473121095E0,4.677968502E0,-4.567898273E0,-6.388836384E0
8.477875939E0,4.955535889E0,-4.197010994E0,-6.455835342E0
8.482630783E0,5.170889854E0,-3.907479286E0,-6.283552170E0
8.487385575E0,5.307280540E0,-3.711267948E0,-5.936593056E0
8.492140418E0,5.388636589E0,-3.479164124E0,-5.551348686E0
8.496895262E0,5.357530117E0,-3.314059258E0,-5.280959606E0
8.501650106E0,5.326423168E0,-3.175275564E0,-5.072783947E0
8.506404897E0,5.278566837E0,-3.050848961E0,-4.938786030E0
8.511159741E0,5.266602516E0,-2.935993433E0,-4.898108006E0
8.515914533E0,5.245067120E0,-2.854637384E0,-4.890929699E0
8.520669377E0,5.271388054E0,-2.790031195E0,-4.838287354E0
8.525424220E0,5.422136307E0,-2.835494757E0,-4.888536453E0
8.530179012E0,5.661418438E0,-2.971885681E0,-5.120640278E0
8.534933856E0,5.864808083E0,-3.227917671E0,-5.544169903E0
8.539688700E0,5.977271080E0,-3.601198196E0,-6.295516491E0
8.544443491E0,6.063412666E0,-4.015156269E0,-7.223931789E0
8.549198335E0,6.235695839E0,-4.457828522E0,-8.176275253E0
8.553953179E0,6.613761902E0,-4.776073933E0,-8.894122124E0
8.558707970E0,7.171289444E0,-5.077569485E0,-9.152546883E0
8.563462814E0,7.779066563E0,-5.304887772E0,-8.925228119E0
8.568217658E0,8.279166222E0,-5.417350292E0,-8.346165657E0
8.572972502E0,8.549555779E0,-5.362315655E0,-7.645068169E0
8.577727293E0,9.030512810E0,-5.546562672E0,-6.625725746E0
8.582482137E0,9.281759262E0,-5.486742496E0,-5.749952793E0
8.587236981E0,9.310472488E0,-5.345565796E0,-5.388636589E0
8.591991772E0,9.360722542E0,-5.209175110E0,-5.280959606E0
8.596746616E0,9.293723106E0,-5.067998409E0,-5.261816978E0
8.601501460E0,9.054440498E0,-4.823930264E0,-5.290530682E0
8.606256252E0,8.841479301E0,-4.603790760E0,-5.472385406E0
8.611011095E0,8.530412674E0,-4.421936035E0,-5.709274769E0
8.615765939E0,8.212167740E0,-4.278367043E0,-5.960521221E0
8.620520731E0,8.008777618E0,-4.058227062E0,-6.384050846E0
8.625275575E0,7.690532207E0,-4.017549038E0,-6.817151546E0
8.630030418E0,7.621140003E0,-3.957728624E0,-7.188039303E0
8.634785210E0,7.393822193E0,-3.950550079E0,-7.336394310E0
8.639540054E0,7.460821152E0,-3.802195072E0,-7.319644451E0
8.644294897E0,7.446464062E0,-3.689732552E0,-7.022934437E0
8.649049689E0,7.341179848E0,-3.594019651E0,-6.553941250E0
8.653804533E0,7.111468792E0,-3.517449379E0,-6.218945980E0
8.658559377E0,6.798008919E0,-3.560520172E0,-6.025127411E0
8.663314168E0,6.635297298E0,-3.567698479E0,-6.008377552E0
8.668069012E0,6.446264267E0,-3.653840065E0,-6.238088608E0
8.672823856E0,5.960521221E0,-3.735196114E0,-6.592226505E0
8.677578700E0,6.238088608E0,-3.847658873E0,-6.474977970E0
8.682333491E0,6.486942291E0,-3.818944931E0,-6.455835342E0
8.687088335E0,6.309873104E0,-3.792623997E0,-6.448657036E0
8.691843179E0,6.269195557E0,-3.806980848E0,-6.410371780E0
8.696597970E0,6.001199245E0,-3.787838221E0,-6.424728870E0
8.701352814E0,5.592026711E0,-3.826123476E0,-6.412764549E0
8.706107658E0,5.185246468E0,-3.890729666E0,-6.348158360E0
8.710862450E0,4.740181446E0,-3.873979807E0,-6.336194515E0
8.715617293E0,4.280759811E0,-3.974478483E0,-6.331408501E0
8.720372137E0,3.909872293E0,-3.996013880E0,-6.467799664E0
8.725126929E0,3.507878065E0,-3.972085476E0,-6.558726788E0
8.729881772E0,3.192025423E0,-3.979264021E0,-6.616154671E0
8.734636616E0,3.019742250E0,-3.974478483E0,-6.513263226E0
8.739391460E0,2.876172781E0,-3.929014683E0,-6.376872540E0
8.744146252E0,2.816352367E0,-3.818944931E0,-6.273981094E0
8.748901095E0,2.725425005E0,-3.656233072E0,-6.245266914E0
8.753655939E0,2.739781857E0,-3.495913982E0,-5.895915031E0
8.758410731E0,2.727817774E0,-3.266202927E0,-5.486742496E0
8.763165575E0,2.694318295E0,-3.010170937E0,-5.190032482E0
8.767920418E0,2.656033039E0,-2.763710260E0,-4.804787636E0
8.772675210E0,2.591426849E0,-2.524427891E0,-4.744967461E0
8.777430054E0,2.562713146E0,-2.263610125E0,-4.823930264E0
8.782184897E0,2.486142635E0,-1.945364833E0,-4.974678040E0
8.786939689E0,2.474178553E0,-1.567298889E0,-5.194818020E0
8.791694533E0,2.438286304E0,-1.316052437E0,-5.168497086E0
8.796449377E0,2.411965132E0,-1.076770186E0,-5.249852657E0
8.801204220E0,2.423929453E0,-7.489534616E-1,-5.510670662E0
8.805959012E0,2.447857618E0,-3.613162339E-1,-5.761917114E0
8.810713856E0,2.536391973E0,1.674975827E-2,-5.948556900E0
8.815468700E0,2.589034081E0,2.368894368E-1,-5.960521221E0
8.820223491E0,2.684746981E0,3.876372576E-1,-5.730810165E0
8.824978335E0,2.658426046E0,4.139583111E-1,-5.529813290E0
8.829733179E0,2.464607239E0,3.972085714E-1,-5.491528034E0
8.834487970E0,2.514856577E0,3.397808075E-1,-5.587240696E0
8.839242814E0,2.672782898E0,3.565305769E-1,-6.032305717E0
8.843997658E0,3.062813044E0,3.732803464E-1,-6.594619274E0
8.848752502E0,3.687339783E0,3.996013701E-1,-7.015756130E0
8.853507293E0,4.469792843E0,3.780659735E-1,-7.235895634E0
8.858262137E0,5.252245903E0,2.584248483E-1,-7.341179848E0
8.863016981E0,5.907878876E0,7.657032460E-2,-7.365108013E0
8.867771772E0,6.479763508E0,-2.368894368E-1,-7.384250641E0
8.872526616E0,6.967899323E0,-5.240281820E-1,-7.429714203E0
8.877281460E0,7.015756130E0,-7.704889178E-1,-7.601997375E0
8.882036252E0,7.446464062E0,-1.083948612E0,-7.465606689E0
8.886791095E0,7.688138962E0,-1.366301775E0,-7.312466145E0
8.891545939E0,7.869993687E0,-1.567298889E0,-7.178467751E0
8.896300783E0,7.984848976E0,-1.708475351E0,-7.082755089E0
8.901055575E0,8.006384850E0,-1.785045743E0,-6.831508636E0
8.905810418E0,7.925028801E0,-1.878365755E0,-6.491727829E0
8.910565262E0,7.654639721E0,-1.988435626E0,-6.235695839E0
8.915320054E0,7.207181931E0,-2.103291035E0,-6.130411625E0
8.920074897E0,6.740581512E0,-2.170290232E0,-6.094519138E0
8.924829741E0,6.159125328E0,-2.232503414E0,-6.130411625E0
8.929584533E0,5.458028316E0,-2.239681959E0,-6.216553211E0
8.934339377E0,4.797609329E0,-2.213361025E0,-6.329015732E0
8.939094220E0,4.271188259E0,-2.110469580E0,-6.319444656E0
8.943849064E0,3.890729666E0,-2.045863390E0,-6.352943897E0
8.948603856E0,3.658625841E0,-1.964507341E0,-6.065805435E0
8.953358700E0,3.474378586E0,-1.861616015E0,-5.623133183E0
8.958113543E0,3.259024382E0,-1.756331801E0,-5.163711071E0
8.962868335E0,2.962314367E0,-1.639083505E0,-4.871787071E0
8.967623179E0,2.557927370E0,-1.572084427E0,-4.704289436E0
8.972378022E0,2.112862349E0,-1.445264935E0,-4.560719967E0
8.977132866E0,1.725225091E0,-1.299302697E0,-4.369294167E0
8.981887658E0,1.294517040E0,-1.127019525E0,-3.943371773E0
8.986642502E0,1.158126116E0,-1.088734269E0,-3.852444410E0
8.991397345E0,7.537391186E-1,-1.026520967E0,-3.622733593E0
8.996152137E0,2.895315289E-1,-1.026520967E0,-3.594019651E0
9.000906981E0,-1.986042857E-1,-9.020941257E-1,-3.938585997E0
9.005661825E0,-6.173482537E-1,-7.465606928E-1,-4.539184570E0
9.010416616E0,-9.499505758E-1,-5.335994363E-1,-5.115854740E0
9.015171460E0,-1.040877819E0,-2.129612118E-1,-5.982056618E0
9.019926304E0,-1.103091240E0,2.153540403E-1,-6.546762943E0
9.024681095E0,-9.619147182E-1,5.503492355E-1,-6.951149940E0
9.029435939E0,-6.628118753E-1,7.944171429E-1,-7.192824841E0
9.034190783E0,-2.656033039E-1,9.690931439E-1,-7.334001541E0
9.038945627E0,2.871387303E-1,1.095912814E0,-7.353144169E0
9.043700418E0,9.571290612E-1,1.201196909E0,-7.154539585E0
9.048455262E0,1.794616938E0,1.215553880E0,-6.719046116E0
9.053210106E0,2.730210543E0,1.119840980E0,-6.290730953E0
9.057964897E0,3.603590965E0,9.188438654E-1,-5.998806477E0
9.062719741E0,4.402793884E0,7.058826685E-1,-5.893522263E0
9.067474585E0,5.096712112E0,4.881358147E-1,-5.970092297E0
9.072229429E0,5.714060307E0,2.033899277E-1,-6.271588326E0
9.076984220E0,6.381658077E0,-6.221338734E-2,-6.774080753E0
9.081739064E0,6.915257454E0,-3.828516304E-1,-7.276573658E0
9.086493908E0,7.391428947E0,-8.231309652E-1,-7.719245911E0
9.091248700E0,7.795815945E0,-1.406979680E0,-8.025527000E0
9.096003543E0,8.209774017E0,-2.105684042E0,-8.283951759E0
9.100758387E0,8.669196129E0,-2.837887764E0,-8.520841599E0
9.105513179E0,9.150154114E0,-3.567698479E0,-8.535198212E0
9.110268022E0,9.521040916E0,-4.311866283E0,-8.283951759E0
9.115022866E0,9.777072906E0,-4.984249592E0,-7.855636597E0
9.119777710E0,9.891928673E0,-5.620740414E0,-7.436892986E0
9.124532502E0,9.834501266E0,-6.202196121E0,-7.190432072E0
9.129287345E0,9.659825325E0,-6.664011002E0,-7.042077065E0
9.134042189E0,9.391828537E0,-7.073183537E0,-6.865008354E0
9.138796981E0,9.107083321E0,-7.432106972E0,-6.570691109E0
9.143551825E0,8.786444664E0,-7.712067604E0,-6.199803352E0
9.148306668E0,8.415556908E0,-7.814958572E0,-6.025127411E0
9.153061512E0,8.140382767E0,-7.826922894E0,-6.015556335E0
9.157816304E0,7.972885132E0,-7.714460373E0,-5.986842155E0
9.162571147E0,7.793423176E0,-7.484749317E0,-5.860022545E0
9.167325991E0,7.554141045E0,-7.154539585E0,-5.678168297E0
9.172080783E0,7.245467186E0,-6.738188744E0,-5.484349728E0
9.176835627E0,6.903293133E0,-6.259624004E0,-5.285745144E0
9.181590470E0,6.522834301E0,-5.752345562E0,-5.144568920E0
9.186345314E0,6.113661766E0,-5.225924492E0,-5.012963295E0
9.191100106E0,5.714060307E0,-4.682754040E0,-4.974678040E0
9.195854950E0,5.400600910E0,-4.101297855E0,-4.996213913E0
9.200609793E0,5.106283665E0,-3.498306751E0,-5.084748268E0
9.205364585E0,4.883750916E0,-2.938386202E0,-5.185246468E0
9.210119429E0,4.599005222E0,-2.407179594E0,-5.173282623E0
9.214874272E0,4.297509670E0,-1.902294040E0,-5.146961689E0
9.219629116E0,4.000799656E0,-1.447657704E0,-5.132604599E0
9.224383908E0,3.694518089E0,-1.074377418E0,-5.199603558E0
9.229138752E0,3.471985579E0,-7.657032609E-1,-5.268995285E0
9.233893595E0,3.249453068E0,-5.718846321E-1,-5.288137913E0
9.238648387E0,3.129812002E0,-4.043870270E-1,-5.230710506E0
9.243403231E0,3.067598581E0,-3.110669553E-1,-5.094319344E0
9.248158075E0,3.038884640E0,-2.871387303E-1,-4.977071285E0
9.252912918E0,3.110669374E0,-2.751746178E-1,-4.871787071E0
9.257667710E0,3.254238844E0,-3.684946895E-1,-4.766502857E0
9.262422554E0,3.426522017E0,-5.455635786E-1,-4.697110653E0
9.267177397E0,3.629911900E0,-7.968099117E-1,-4.723432064E0
9.271932189E0,3.876372576E0,-1.124626637E0,-4.936393261E0
9.276687033E0,4.208974838E0,-1.478764415E0,-5.228317261E0
9.281441877E0,4.522434711E0,-1.902294040E0,-5.596812248E0
9.286196720E0,4.893322468E0,-2.356930256E0,-5.807380676E0
9.290951512E0,5.201996326E0,-2.821137905E0,-5.757131100E0
9.295706356E0,5.568098068E0,-3.314059258E0,-5.465207100E0
9.300461200E0,5.955735683E0,-3.787838221E0,-5.058426857E0
9.305215991E0,6.348158360E0,-4.283152580E0,-4.610969067E0
9.309970835E0,6.637690067E0,-4.809573650E0,-4.242474556E0
9.314725679E0,6.881757736E0,-5.352744102E0,-4.086941242E0
9.319480522E0,7.173682213E0,-5.895915031E0,-4.211368084E0
9.324235314E0,7.484749317E0,-6.553941250E0,-4.484149456E0
9.328990158E0,7.802994728E0,-7.255038261E0,-4.850251675E0
9.333745002E0,8.214560509E0,-7.946564198E0,-5.099104881E0
9.338499793E0,8.614161491E0,-8.602197647E0,-5.235496044E0
9.343254637E0,9.099904060E0,-9.310472488E0,-5.319244862E0
9.348009481E0,9.523433685E0,-9.994820595E0,-5.400600910E0
9.352764325E0,9.899106979E0,-1.065763187E1,-5.536991596E0
9.357519116E0,1.014796066E1,-1.133480072E1,-5.838487148E0
9.362273960E0,1.025563812E1,-1.196172047E1,-6.214160442E0
9.367028804E0,1.029870892E1,-1.248574829E1,-6.647261143E0
9.371783595E0,1.045902824E1,-1.290209961E1,-7.039684296E0
9.376538439E0,1.042792130E1,-1.327298737E1,-7.223931789E0
9.381293283E0,1.061695385E1,-1.339741421E1,-7.066005230E0
9.386048127E0,1.081795120E1,-1.338544941E1,-6.831508636E0
9.390802918E0,1.092084217E1,-1.328495121E1,-6.613761902E0
9.395557762E0,1.071984577E1,-1.300020504E1,-6.455835342E0
9.400312606E0,1.020778179E1,-1.244746304E1,-6.467799664E0
9.405067397E0,9.963713646E0,-1.178225899E1,-6.235695839E0
9.409822241E0,9.961320877E0,-1.107398319E1,-5.848058701E0
9.414577085E0,9.882357597E0,-1.039681435E1,-5.515456200E0
9.419331929E0,9.540184021E0,-9.736394882E0,-5.359922886E0
9.424086720E0,8.997013092E0,-9.147761345E0,-5.290530682E0
9.428841564E0,8.317451477E0,-8.647661209E0,-5.376672268E0
9.433596408E0,7.769495010E0,-8.252845764E0,-5.367101192E0
9.438351200E0,7.369893551E0,-7.920242786E0,-5.347958565E0
9.443106043E0,7.020541668E0,-7.683353424E0,-5.314459324E0
9.447860887E0,6.635297298E0,-7.444071293E0,-5.297709465E0
9.452615731E0,6.250052929E0,-7.197610378E0,-5.326423168E0
9.457370522E0,5.931807518E0,-6.991827965E0,-5.271388054E0
9.462125366E0,5.632704735E0,-6.788437843E0,-5.221138954E0
9.466880210E0,5.307280540E0,-6.604190350E0,-5.197210789E0
9.471635002E0,5.070391178E0,-6.458228111E0,-5.242674351E0
9.476389845E0,4.804787636E0,-6.302694798E0,-5.209175110E0
9.481144689E0,4.658825874E0,-6.132804394E0,-5.173282623E0
9.485899533E0,4.555934429E0,-5.970092297E0,-5.091926575E0
9.490654325E0,4.543970108E0,-5.804987907E0,-4.996213913E0
9.495409168E0,4.567898273E0,-5.659025669E0,-4.878965378E0
9.500164012E0,4.575077057E0,-5.553741455E0,-4.807180882E0
9.504918856E0,4.721039295E0,-5.469992638E0,-4.766502857E0
9.509673647E0,4.910071850E0,-5.472385406E0,-4.735395908E0
9.514428491E0,5.022534847E0,-5.517848969E0,-4.814359188E0
9.519183335E0,5.089533806E0,-5.637490273E0,-4.969892502E0
9.523938127E0,5.125426292E0,-5.771488190E0,-5.120640278E0
9.528692970E0,5.235496044E0,-5.989234924E0,-5.221138954E0
9.533447814E0,5.426921844E0,-6.149554253E0,-5.280959606E0
9.538202658E0,5.625525951E0,-6.367300987E0,-5.273781300E0
9.542957450E0,5.881557941E0,-6.599404812E0,-5.209175110E0
9.547712293E0,6.154339790E0,-6.838686943E0,-5.115854740E0
9.552467137E0,6.350551128E0,-7.085147858E0,-5.008177757E0
9.557221929E0,6.530013084E0,-7.314858913E0,-4.922036171E0
9.561976772E0,6.661618233E0,-7.530212879E0,-4.833501816E0
9.566731616E0,6.735795975E0,-7.692924976E0,-4.704289436E0
9.571486460E0,6.728617191E0,-7.841279984E0,-4.529613495E0
9.576241252E0,6.640082836E0,-7.975277901E0,-4.271188259E0
9.580996095E0,6.513263226E0,-8.051848412E0,-4.039084435E0
9.585750939E0,6.338587284E0,-8.128418922E0,-3.914657831E0
9.590505731E0,6.197410583E0,-8.166703224E0,-3.873979807E0
9.595260575E0,6.089733601E0,-8.171489716E0,-3.976871252E0
9.600015418E0,6.041877270E0,-8.188239098E0,-4.146761417E0
9.604770262E0,6.010770321E0,-8.173882484E0,-4.316651821E0
9.609525054E0,5.979663849E0,-8.111668587E0,-4.448257446E0
9.614279897E0,5.950950146E0,-8.049455643E0,-4.563112736E0
9.619034741E0,5.936593056E0,-7.989634991E0,-4.599005222E0
9.623789533E0,5.881557941E0,-7.944170952E0,-4.649254322E0
9.628544377E0,5.795416355E0,-7.881958008E0,-4.756931305E0
9.633299220E0,5.718846321E0,-7.819744587E0,-4.912465096E0
9.638054064E0,5.649454117E0,-7.769495010E0,-5.058426857E0
9.642808908E0,5.699703693E0,-7.731209755E0,-5.123033047E0
9.647563700E0,5.888736725E0,-7.740781307E0,-5.056034088E0
9.652318543E0,6.116054535E0,-7.735995770E0,-4.967499733E0
9.657073387E0,6.283552170E0,-7.764709473E0,-4.914857864E0
9.661828179E0,6.360122681E0,-7.791030407E0,-4.945964336E0
9.666583022E0,6.362515450E0,-7.793423176E0,-4.965106964E0
9.671337866E0,6.388836384E0,-7.829315662E0,-4.965106964E0
9.676092658E0,6.379265308E0,-7.848458290E0,-4.883750916E0
9.680847502E0,6.352943897E0,-7.884350777E0,-4.716253281E0
9.685602345E0,6.269195557E0,-7.896314621E0,-4.606183529E0
9.690357189E0,6.104090691E0,-7.908278942E0,-4.508078098E0
9.695111981E0,5.893522263E0,-7.927421570E0,-4.539184570E0
9.699866825E0,5.726024628E0,-7.891529083E0,-4.668396950E0
9.704621668E0,5.582455158E0,-7.889136314E0,-4.826323509E0
9.709376460E0,5.568098068E0,-7.877171993E0,-4.984249592E0
9.714131304E0,5.680561066E0,-7.812565804E0,-5.158925533E0
9.718886147E0,5.888736725E0,-7.750352383E0,-5.283352375E0
9.723640991E0,6.084948063E0,-7.654639721E0,-5.410171986E0
9.728395783E0,6.302694798E0,-7.542177200E0,-5.517848969E0
9.733150627E0,6.518048763E0,-7.422535896E0,-5.580062389E0
9.737905470E0,6.680760860E0,-7.233502865E0,-5.577669621E0
9.742660314E0,6.838686943E0,-6.999006271E0,-5.479563713E0
9.747415106E0,6.932007313E0,-6.764509678E0,-5.295316696E0
9.752169950E0,7.020541668E0,-6.513263226E0,-5.056034088E0
9.756924793E0,7.039684296E0,-6.259624004E0,-4.835894585E0
9.761679585E0,7.034898758E0,-6.029912949E0,-4.697110653E0
9.766434429E0,6.999006271E0,-5.812166214E0,-4.706682205E0
9.771189272E0,6.929614544E0,-5.620740414E0,-4.788038254E0
9.775944116E0,6.908079147E0,-5.486742496E0,-4.902893543E0
9.780698908E0,6.891329288E0,-5.391029358E0,-5.017749310E0
9.785453752E0,6.915257454E0,-5.300102234E0,-5.079962254E0
