"Time (s)","Gyroscope x (rad/s)","Gyroscope y (rad/s)","Gyroscope z (rad/s)"
1.356682500E-2,-1.315650046E-1,-1.059315920E0,2.550360560E-1
1.841656400E-2,-2.160934210E-1,-1.152930856E0,2.738201320E-1
2.326630400E-2,-3.003927469E-1,-1.227456450E0,2.872591615E-1
2.811604300E-2,-3.779725730E-1,-1.289764643E0,2.976438701E-1
3.296578300E-2,-4.408916533E-1,-1.345353365E0,3.006981909E-1
3.781547000E-2,-4.909825623E-1,-1.401552916E0,2.933678031E-1
4.266521000E-2,-5.276344419E-1,-1.464471936E0,2.732092738E-1
4.751495000E-2,-5.514581800E-1,-1.546327829E0,2.426660359E-1
5.236468900E-2,-5.636754632E-1,-1.670944214E0,1.992946416E-1
5.721442900E-2,-5.734493136E-1,-1.803501844E0,1.333212405E-1
6.206416800E-2,-5.881100893E-1,-1.914068460E0,3.313941509E-2
6.691390800E-2,-6.101012230E-1,-2.003865480E0,-9.147699922E-2
7.176364700E-2,-6.473639607E-1,-2.079612732E0,-2.264781147E-1
7.661333500E-2,-6.895136237E-1,-2.149251461E0,-3.535379767E-1
8.146307500E-2,-7.334958911E-1,-2.215835571E0,-4.659371078E-1
8.631281400E-2,-7.744238377E-1,-2.264093876E0,-5.600103140E-1
9.116255400E-2,-8.116865754E-1,-2.257985353E0,-6.308705807E-1
9.601229300E-2,-8.520036340E-1,-2.198731422E0,-6.742420197E-1
1.008620330E-1,-8.929315805E-1,-2.109545231E0,-6.895136237E-1
1.057117720E-1,-9.363030195E-1,-2.034408808E0,-6.779071689E-1
1.105614600E-1,-9.729548693E-1,-1.999589443E0,-6.388118267E-1
1.154112000E-1,-9.955568910E-1,-1.972100616E0,-5.752819180E-1
1.202609390E-1,-1.003498077E0,-1.916511893E0,-4.970912039E-1
1.251106790E-1,-9.931133986E-1,-1.829769135E0,-4.085158110E-1
1.299604180E-1,-9.692896605E-1,-1.732030749E0,-3.162752390E-1
1.348101580E-1,-9.369138479E-1,-1.634903193E0,-2.283107042E-1
1.396598970E-1,-8.984293938E-1,-1.530445337E0,-1.482874304E-1
1.445096370E-1,-8.629992008E-1,-1.418046236E0,-8.231402934E-2
1.493593770E-1,-8.300125003E-1,-1.326416492E0,-2.977965772E-2
1.542090640E-1,-7.994692922E-1,-1.232954144E0,5.039634649E-3
1.590588040E-1,-7.707586288E-1,-1.124831080E0,2.397644334E-2
1.639085430E-1,-7.451022863E-1,-1.008766770E0,2.703076601E-2
1.687582830E-1,-7.347176075E-1,-8.975894451E-1,9.315688163E-3
1.736080220E-1,-7.310523987E-1,-8.193987608E-1,-1.939495653E-2
1.784577620E-1,-7.194460034E-1,-7.906880975E-1,-4.993819445E-2
1.833075020E-1,-7.047852278E-1,-8.016836643E-1,-7.864884287E-2
1.881572410E-1,-6.950113773E-1,-8.145118356E-1,-1.049160287E-1
1.930069810E-1,-6.864593029E-1,-8.426116109E-1,-1.281288862E-1
1.978567200E-1,-6.669116020E-1,-9.018654823E-1,-1.495091617E-1
2.027064600E-1,-6.314814687E-1,-9.672279954E-1,-1.653916389E-1
2.075561470E-1,-5.917752385E-1,-1.008155942E0,-1.806632578E-1
2.124058870E-1,-5.526798964E-1,-1.014875531E0,-1.989891976E-1
2.172556270E-1,-5.203040838E-1,-9.531781077E-1,-2.246455252E-1
2.221053660E-1,-5.068650246E-1,-7.570905089E-1,-2.637408674E-1
2.269551060E-1,-5.062541962E-1,-5.084685683E-1,-3.107774556E-1
2.318048450E-1,-4.897608459E-1,-3.716348708E-1,-3.462076187E-1
2.366545850E-1,-4.537198246E-1,-3.478111327E-1,-3.614792228E-1
2.415043250E-1,-4.182896614E-1,-3.374264240E-1,-3.785834610E-1
2.462613040E-1,-3.987419903E-1,-3.117701113E-1,-4.042397738E-1
2.510159910E-1,-3.926333487E-1,-3.166570365E-1,-4.347830117E-1
2.557706790E-1,-4.005745649E-1,-4.107302129E-1,-4.659371078E-1
2.605253660E-1,-4.127918780E-1,-5.884918571E-1,-4.970912039E-1
2.652800020E-1,-4.146244824E-1,-7.839685678E-1,-5.172497630E-1
2.700346890E-1,-4.060723484E-1,-9.073632956E-1,-5.233584046E-1
2.747893770E-1,-3.999637067E-1,-9.287435412E-1,-5.129737258E-1
2.795440640E-1,-3.969093859E-1,-9.104176164E-1,-4.867065251E-1
2.842987520E-1,-3.926333487E-1,-9.183588624E-1,-4.482220411E-1
2.890534390E-1,-3.871355653E-1,-9.519563913E-1,-3.975202441E-1
2.938081270E-1,-3.895790279E-1,-9.629519582E-1,-3.437641561E-1
2.985628140E-1,-4.017963111E-1,-9.605085254E-1,-2.863428593E-1
3.033175020E-1,-4.225656986E-1,-9.696714878E-1,-2.246455252E-1
3.080721890E-1,-4.512763619E-1,-9.739475250E-1,-1.782197952E-1
3.128268770E-1,-4.842630625E-1,-9.776127338E-1,-1.488982886E-1
3.175815640E-1,-5.166388750E-1,-1.010599375E0,-1.250745654E-1
3.223362520E-1,-5.490147471E-1,-1.092455268E0,-1.055268943E-1
3.270909390E-1,-5.801688433E-1,-1.214017391E0,-8.659008145E-2
3.318456270E-1,-6.064360142E-1,-1.352072835E0,-7.009673119E-2
3.366003140E-1,-6.265945435E-1,-1.487073898E0,-4.932733253E-2
3.413550020E-1,-6.400335431E-1,-1.590920925E0,-2.000582218E-2
3.461096890E-1,-6.498073936E-1,-1.639790177E0,1.481347065E-2
3.508643250E-1,-6.553052068E-1,-1.619631648E0,5.329795182E-2
3.556190120E-1,-6.589703560E-1,-1.535332322E0,9.544762224E-2
3.603737000E-1,-6.601921320E-1,-1.401552916E0,1.424842030E-1
3.651283870E-1,-6.608029604E-1,-1.245782375E0,1.944077164E-1
3.698830750E-1,-6.644681692E-1,-1.079627156E0,2.481638193E-1
3.746377620E-1,-6.711876988E-1,-9.208022952E-1,3.043633699E-1
3.793924500E-1,-6.772963405E-1,-7.986293435E-1,3.599520624E-1
3.841471370E-1,-6.809614897E-1,-7.393754721E-1,4.130973220E-1
3.889018250E-1,-6.742420197E-1,-7.497601509E-1,4.613556266E-1
3.936565120E-1,-6.553052068E-1,-8.175661564E-1,5.010618567E-1
3.984112000E-1,-6.296488643E-1,-9.275218248E-1,5.334376693E-1
4.031658870E-1,-5.917752385E-1,-1.068020701E0,5.597048402E-1
4.079205750E-1,-5.410735011E-1,-1.223791242E0,5.871937871E-1
4.126752620E-1,-4.775435328E-1,-1.383837819E0,6.104066372E-1
4.174299500E-1,-4.072940946E-1,-1.517617226E0,6.385064125E-1
4.221846370E-1,-3.291034102E-1,-1.622075081E0,6.751583219E-1
4.269393250E-1,-2.393062711E-1,-1.695989728E0,7.148644924E-1
4.316940120E-1,-1.372918636E-1,-1.716759086E0,7.582359314E-1
4.364487000E-1,-9.621120058E-3,-1.651396632E0,8.022181988E-1
4.412033870E-1,1.351538301E-1,-1.447367787E0,8.516982198E-1
4.459580750E-1,2.970330119E-1,-1.187750220E0,9.030108452E-1
4.507127620E-1,4.747946560E-1,-8.975894451E-1,9.543235302E-1
4.554674500E-1,6.531671882E-1,-6.031526327E-1,9.983057380E-1
4.602221370E-1,8.235984445E-1,-3.740783334E-1,1.025794625E0
4.649768250E-1,9.805907011E-1,-2.005927265E-1,1.027627230E0
4.697315120E-1,1.118646145E0,-4.176788032E-2,9.970840216E-1
4.744862000E-1,1.237153888E0,1.213330179E-1,9.359975457E-1
4.792408870E-1,1.338557482E0,2.783252597E-1,8.413135409E-1
4.839955750E-1,1.424078465E0,4.047742784E-1,7.179188132E-1
4.887502620E-1,1.485775828E0,4.725802541E-1,5.816959739E-1
4.935049500E-1,1.508988738E0,4.469239414E-1,4.473057389E-1
4.982596370E-1,1.488830209E0,3.119228184E-1,3.123046160E-1
5.030143250E-1,1.433852315E0,9.567669779E-2,1.803578287E-1
5.077690120E-1,1.358716011E0,-1.584430486E-1,6.307178736E-2
5.125237000E-1,1.279914379E0,-3.948477209E-1,-3.283398226E-2
5.172783870E-1,1.216384530E0,-5.707767606E-1,-9.514218569E-2
5.220330750E-1,1.180954337E0,-6.807324290E-1,-1.177441850E-1
5.267877620E-1,1.170569658E0,-7.473167181E-1,-1.043051630E-1
5.315424500E-1,1.177899957E0,-8.035162687E-1,-7.559451461E-2
5.362971370E-1,1.193171620E0,-8.566614985E-1,-4.199695215E-2
5.410518250E-1,1.201723695E0,-8.963677287E-1,-7.177661173E-3
5.458065120E-1,1.191949844E0,-9.586759210E-1,1.786779426E-2
5.505612000E-1,1.165682673E0,-1.042975307E0,1.786779426E-2
5.553158870E-1,1.117424369E0,-1.126052856E0,-8.399390616E-3
5.600705750E-1,1.053894520E0,-1.190193653E0,-5.910116807E-2
5.648252620E-1,9.854776263E-1,-1.210352182E0,-1.397353113E-1
5.695799500E-1,9.109520912E-1,-1.199356675E0,-2.356410921E-1
5.743346370E-1,8.339831233E-1,-1.181030750E0,-3.358229101E-1
5.790893250E-1,7.661771774E-1,-1.146822214E0,-4.298960865E-1
5.838440120E-1,7.148644924E-1,-1.101618290E0,-4.928151667E-1
5.885987000E-1,6.910407543E-1,-1.092455268E0,-4.952586293E-1
5.933533870E-1,6.904299259E-1,-1.107726932E0,-4.641045034E-1
5.981080750E-1,7.063124180E-1,-1.151098371E0,-4.274526238E-1
6.028627620E-1,7.417425513E-1,-1.262275696E0,-3.993528485E-1
6.076174500E-1,7.771727443E-1,-1.446146011E0,-3.883572817E-1
6.123721370E-1,8.181006312E-1,-1.655061722E0,-3.840812445E-1
6.171268250E-1,8.529199362E-1,-1.865810156E0,-3.785834610E-1
6.218815120E-1,8.712459207E-1,-2.080834627E0,-3.785834610E-1
6.266362000E-1,8.730784655E-1,-2.292193651E0,-3.987419903E-1
6.313908870E-1,8.596394658E-1,-2.489503145E0,-4.286743701E-1
6.361455750E-1,8.376483321E-1,-2.652603865E0,-4.445568323E-1
6.409002620E-1,8.132137656E-1,-2.764392138E0,-4.390590489E-1
6.456549500E-1,7.948877811E-1,-2.807152748E0,-4.134027362E-1
6.504096370E-1,7.783944607E-1,-2.783329010E0,-3.743073940E-1
6.551643250E-1,7.722858191E-1,-2.714301348E0,-3.260490894E-1
6.599190640E-1,7.796161771E-1,-2.625725985E0,-2.692386508E-1
6.646737520E-1,7.967203856E-1,-2.504163742E0,-2.002109289E-1
6.694284390E-1,8.419243693E-1,-2.409479856E0,-1.379027218E-1
6.741831270E-1,9.384410381E-1,-2.394819021E0,-9.025526792E-2
6.789378140E-1,1.070998669E0,-2.490724802E0,1.053741761E-2
6.836925020E-1,1.212108493E0,-2.648327827E0,1.223256737E-1
6.884471890E-1,1.350163937E0,-2.798600674E0,2.017380893E-1
6.932018770E-1,1.463173866E0,-2.914054155E0,2.365573794E-1
6.979565640E-1,1.526703835E0,-2.993466377E0,2.396117151E-1
7.027112520E-1,1.529758096E0,-3.038059711E0,2.292270064E-1
7.074659390E-1,1.464395642E0,-3.060050726E0,2.157879770E-1
7.122206270E-1,1.339168310E0,-3.065548420E0,1.913533956E-1
7.169753140E-1,1.180343509E0,-3.066770315E0,1.675296724E-1
7.217300020E-1,1.008690476E0,-3.077765942E0,1.492037177E-1
7.264846890E-1,8.400917649E-1,-3.110752583E0,1.974620372E-1
7.312393770E-1,6.794343591E-1,-3.159621716E0,3.306305707E-1
7.359941160E-1,5.480984449E-1,-3.171838999E0,4.338667095E-1
7.407488040E-1,4.485274553E-1,-3.146182775E0,4.955640435E-1
7.455034910E-1,3.611738086E-1,-3.108309031E0,5.206094980E-1
7.502581790E-1,3.043633699E-1,-3.055774689E0,5.383245945E-1
7.550128660E-1,2.683223486E-1,-3.013625145E0,5.493201613E-1
7.597675540E-1,2.713766694E-1,-2.951316833E0,5.700895786E-1
7.645222410E-1,3.031416535E-1,-2.894506454E0,5.914698243E-1
7.692769290E-1,3.568977416E-1,-2.856632710E0,5.969675779E-1
7.740316160E-1,4.210385382E-1,-2.829143763E0,5.920807123E-1
7.787863040E-1,4.821250141E-1,-2.807763577E0,5.804742575E-1
7.835409910E-1,5.193877816E-1,-2.769279003E0,5.572614074E-1
7.882956790E-1,5.212203860E-1,-2.688034058E0,5.053378940E-1
7.930504180E-1,4.766272306E-1,-2.585408926E0,4.491383433E-1
7.978051060E-1,3.843866587E-1,-2.485837936E0,4.094321132E-1
8.025597930E-1,2.591593862E-1,-2.381380081E0,3.947713673E-1
8.073144810E-1,1.266017258E-1,-2.246989727E0,4.027126133E-1
8.120691680E-1,6.872228812E-3,-2.069228172E0,4.222602844E-1
8.168238560E-1,-9.086613357E-2,-1.889633894E0,4.369210303E-1
8.215785430E-1,-1.568395346E-1,-1.698433161E0,4.363101721E-1
8.263332310E-1,-1.916588247E-1,-1.512730241E0,4.265363216E-1
8.310879180E-1,-2.057087123E-1,-1.386281252E0,4.173733592E-1
8.358426580E-1,-1.983783394E-1,-1.308701396E0,4.100429714E-1
8.405973450E-1,-1.721111536E-1,-1.282434225E0,4.118755758E-1
8.453520330E-1,-1.409570426E-1,-1.314199209E0,4.253146052E-1
8.501067200E-1,-1.177441850E-1,-1.399109364E0,4.491383433E-1
8.548614080E-1,-1.201876476E-1,-1.521893263E0,4.735729098E-1
8.596160950E-1,-1.537852138E-1,-1.630016327E0,4.857902229E-1
8.643707830E-1,-2.167042792E-1,-1.715537429E0,4.851793647E-1
8.691254700E-1,-2.973384261E-1,-1.766849995E0,4.796815813E-1
8.738801580E-1,-3.688096106E-1,-1.766239166E0,4.699077308E-1
8.786348970E-1,-4.176788032E-1,-1.727754712E0,4.552469850E-1
8.833895850E-1,-4.384481907E-1,-1.663613915E0,4.473057389E-1
8.881442720E-1,-4.323395491E-1,-1.590920925E0,4.515817761E-1
8.928989600E-1,-4.085158110E-1,-1.522504091E0,4.674642682E-1
8.976536470E-1,-3.767508566E-1,-1.474245787E0,4.882336855E-1
9.024083350E-1,-3.339903057E-1,-1.425987482E0,5.059487820E-1
9.071630750E-1,-2.814559340E-1,-1.374674797E0,5.193877816E-1
9.119177620E-1,-2.258672565E-1,-1.328249097E0,5.322159529E-1
9.166724500E-1,-1.831067204E-1,-1.296484113E0,5.450441241E-1
9.214271370E-1,-1.641699076E-1,-1.289153814E0,5.603157282E-1
9.261818250E-1,-1.635590494E-1,-1.272049546E0,5.737547278E-1
9.309365120E-1,-1.794415265E-1,-1.235397696E0,5.804742575E-1
9.356912000E-1,-2.099847645E-1,-1.169424295E0,5.804742575E-1
9.404459390E-1,-2.557996213E-1,-1.075351119E0,5.743656158E-1
9.452006270E-1,-3.126100600E-1,-9.745584130E-1,5.597048402E-1
9.499553140E-1,-3.736965358E-1,-8.755983114E-1,5.407680273E-1
9.547100020E-1,-4.305069447E-1,-7.845794559E-1,5.212203860E-1
9.594646890E-1,-4.787652791E-1,-7.051670551E-1,5.047270060E-1
9.642193770E-1,-5.123628378E-1,-6.306415200E-1,4.894554019E-1
9.689740640E-1,-5.312996507E-1,-5.530617237E-1,4.821250141E-1
9.737288040E-1,-5.361865759E-1,-4.809796512E-1,4.802924395E-1
9.784834910E-1,-5.306887627E-1,-4.217257798E-1,4.802924395E-1
9.832381790E-1,-5.166388750E-1,-3.759109080E-1,4.821250141E-1
9.879928660E-1,-5.031998754E-1,-3.429242074E-1,4.882336855E-1
9.927475540E-1,-4.934260249E-1,-3.209330738E-1,4.967857897E-1
9.975022410E-1,-4.940368831E-1,-3.099375069E-1,5.022835732E-1
1.002256929E0,-5.025889874E-1,-3.184896111E-1,5.004509687E-1
1.007011668E0,-5.135845542E-1,-3.441459537E-1,4.888445437E-1
1.011766356E0,-5.209149122E-1,-3.716348708E-1,4.711294472E-1
1.016521043E0,-5.209149122E-1,-3.979020417E-1,4.454731345E-1
1.021275731E0,-5.111411214E-1,-4.198931754E-1,4.149298966E-1
1.026030418E0,-4.897608459E-1,-4.369973838E-1,3.819431961E-1
1.030785158E0,-4.573850036E-1,-4.443277717E-1,3.544542789E-1
1.035539845E0,-4.189005196E-1,-4.504364133E-1,3.361283541E-1
1.040294533E0,-3.773617148E-1,-4.534907341E-1,3.257436454E-1
1.045049220E0,-3.358229101E-1,-4.461603761E-1,3.239110410E-1
1.049803908E0,-2.979492843E-1,-4.247801006E-1,3.275762498E-1
1.054558595E0,-2.612974048E-1,-3.948477209E-1,3.349066079E-1
1.059313335E0,-2.215912044E-1,-3.685805500E-1,3.391826749E-1
1.064068022E0,-1.745546162E-1,-3.514763117E-1,3.446804583E-1
1.068822710E0,-1.189659163E-1,-3.496437371E-1,3.544542789E-1
1.073577397E0,-5.971203372E-2,-3.472002745E-1,3.727802336E-1
1.078332085E0,2.596175298E-3,-3.526980579E-1,3.984365463E-1
1.083086825E0,6.246092543E-2,-3.649153411E-1,4.265363216E-1
1.087841512E0,1.186604798E-1,-3.801869750E-1,4.576904476E-1
1.092596200E0,1.644753367E-1,-3.985128999E-1,4.943423271E-1
1.097350887E0,1.956294477E-1,-4.278344214E-1,5.346593857E-1
1.102105575E0,2.133445293E-1,-4.663189054E-1,5.707004070E-1
1.106860314E0,2.225074917E-1,-5.109120011E-1,5.945241451E-1
1.111615002E0,2.310595959E-1,-5.665007234E-1,5.988001823E-1
1.116369689E0,2.469420880E-1,-6.300306916E-1,5.865828991E-1
1.121124377E0,2.738201320E-1,-6.923388839E-1,5.725330114E-1
1.125879064E0,3.055851161E-1,-7.509818673E-1,5.694786906E-1
1.130633804E0,3.410152495E-1,-7.912989855E-1,5.792525411E-1
1.135388491E0,3.782780170E-1,-8.022945523E-1,5.963567495E-1
1.140143179E0,4.124864340E-1,-7.833577394E-1,6.183478832E-1
1.144897866E0,4.485274553E-1,-7.424297929E-1,6.488910913E-1
1.149652554E0,4.857902229E-1,-6.978366375E-1,6.922625303E-1
1.154407293E0,5.267181396E-1,-6.697368622E-1,7.649554014E-1
1.159161981E0,5.590940118E-1,-6.624065042E-1,8.736893535E-1
1.163916668E0,5.939132571E-1,-6.275871992E-1,9.665408134E-1
1.168671356E0,6.354520917E-1,-5.646681190E-1,1.047174931E0
1.173426095E0,6.837103963E-1,-5.072468519E-1,1.117424369E0
1.178180783E0,7.429642677E-1,-4.492146969E-1,1.180954337E0
1.182935470E0,8.071050644E-1,-4.131736755E-1,1.261588454E0
1.187690158E0,8.510873318E-1,-4.620428383E-1,1.416748166E0
1.192444845E0,9.060651660E-1,-5.292379856E-1,1.553581834E0
1.197199585E0,9.940297008E-1,-5.939896107E-1,1.663537502E0
1.201954272E0,1.108872294E0,-6.734020710E-1,1.749058604E0
1.206708960E0,1.241429925E0,-7.595340014E-1,1.800982118E0
1.211463647E0,1.385594010E0,-8.420007229E-1,1.821751475E0
1.216218387E0,1.535255909E0,-9.214131832E-1,1.821751475E0
1.220973075E0,1.680641770E0,-1.022205830E0,1.819308043E0
1.225727762E0,1.817475438E0,-1.140102744E0,1.817475438E0
1.230482450E0,1.943313599E0,-1.251891017E0,1.813199401E0
1.235237189E0,2.055712700E0,-1.354516268E0,1.816864610E0
1.239991877E0,2.141233683E0,-1.470580578E0,1.849240422E0
1.244746564E0,2.205374479E0,-1.590920925E0,1.918268085E0
1.249501252E0,2.249967813E0,-1.716148257E0,2.009286880E0
1.254255991E0,2.285397768E0,-1.848095059E0,2.111301422E0
1.259010679E0,2.311054230E0,-1.966602802E0,2.207207203E0
1.263765366E0,2.326936722E0,-2.098549604E0,2.300058603E0
1.268520054E0,2.306167364E0,-2.282419920E0,2.419177294E0
1.273274793E0,2.279900074E0,-2.438190460E0,2.514472246E0
1.278029481E0,2.251800299E0,-2.557309151E0,2.544404507E0
1.282784168E0,2.243859053E0,-2.607399940E0,2.535241604E0
1.287538856E0,2.275013208E0,-2.595182657E0,2.500422239E0
1.292293595E0,2.333656073E0,-2.520046234E0,2.433837891E0
1.297048283E0,2.410014153E0,-2.376492977E0,2.338543177E0
1.301802970E0,2.491870165E0,-2.181016445E0,2.224311352E0
1.306557658E0,2.565784693E0,-1.968435407E0,2.092975378E0
1.311312397E0,2.609766960E0,-1.786397696E0,1.952476501E0
1.316067085E0,2.604880095E0,-1.645898819E0,1.824194908E0
1.320821772E0,2.553567410E0,-1.538386583E0,1.720958829E0
1.325576460E0,2.469878912E0,-1.435150385E0,1.644600749E0
1.330331200E0,2.369086266E0,-1.314199209E0,1.581681609E0
1.335085887E0,2.253632784E0,-1.166980863E0,1.520595193E0
1.339840575E0,2.124740362E0,-1.010599375E0,1.452789187E0
1.344595314E0,1.988517523E0,-8.731548190E-1,1.387426615E0
1.349350002E0,1.843742609E0,-7.815251350E-1,1.326340199E0
1.354104689E0,1.692859054E0,-7.405971885E-1,1.278692722E0
1.358859377E0,1.556025267E0,-7.161626220E-1,1.255479813E0
1.363614116E0,1.432019711E0,-7.002801299E-1,1.257312417E0
1.368368804E0,1.306792498E0,-6.813433170E-1,1.279914379E0
1.373123491E0,1.081994295E0,-5.390118361E-1,1.281136155E0
1.377878231E0,7.392991185E-1,-2.543488145E-1,1.262810230E0
1.382632918E0,3.880518377E-1,7.918334752E-2,1.251814604E0
1.387387606E0,7.651081681E-2,3.632354736E-1,1.305570722E0
1.392142293E0,-1.977674663E-1,5.654317141E-1,1.408196092E0
1.396897033E0,-4.476111531E-1,6.821069121E-1,1.538310289E0
1.401651720E0,-6.827940941E-1,6.845503449E-1,1.732565284E0
1.406406408E0,-8.538362384E-1,5.959749222E-1,1.931707144E0
1.411161095E0,-9.051488638E-1,3.864483237E-1,2.108857870E0
1.415915835E0,-8.251255751E-1,8.895718306E-2,2.237139463E0
1.420670522E0,-5.923861265E-1,-2.861137986E-1,2.246913433E0
1.425425210E0,-2.924515009E-1,-6.642391086E-1,2.131459951E0
1.430179950E0,5.650499370E-3,-9.537889957E-1,1.970191598E0
1.434934637E0,2.933678031E-1,-1.179808974E0,1.829692721E0
1.439689325E0,5.621483326E-1,-1.344131589E0,1.730121732E0
1.444444064E0,7.673988938E-1,-1.580536246E0,1.686139464E0
1.449198752E0,8.822414875E-1,-1.871918797E0,1.697135091E0
1.453953439E0,9.329432249E-1,-2.146807909E0,1.744171619E0
1.458708179E0,9.640973210E-1,-2.347171545E0,1.813810229E0
1.463462866E0,9.915862679E-1,-2.448575020E0,1.887724876E0
1.468217554E0,1.015409946E0,-2.432692528E0,1.947589636E0
1.472972293E0,1.023962140E0,-2.315406561E0,1.976300240E0
1.477726981E0,1.016631722E0,-2.137645006E0,1.964693904E0
1.482481668E0,9.842558503E-1,-1.938503027E0,1.907883406E0
1.487236408E0,9.225585461E-1,-1.739361048E0,1.827860117E0
1.491991095E0,8.327614069E-1,-1.537775755E0,1.742949963E0
1.496745783E0,7.185297012E-1,-1.339244723E0,1.675143957E0
1.501500470E0,5.829176903E-1,-1.141324520E0,1.630550861E0
1.506255210E0,4.259254634E-1,-9.269109368E-1,1.612224817E0
1.511009897E0,2.457203567E-1,-6.972258091E-1,1.621387839E0
1.515764637E0,4.291325063E-2,-4.650971591E-1,1.658650637E0
1.520519325E0,-1.818849891E-1,-2.555705607E-1,1.767995358E0
1.525274012E0,-4.189005196E-1,-6.803506613E-2,1.941480994E0
1.530028700E0,-6.155989766E-1,1.494327933E-1,2.095418930E0
1.534783439E0,-7.848085165E-1,3.797288239E-1,2.228587389E0
1.539538127E0,-9.418007731E-1,6.081922650E-1,2.321438789E0
1.544292814E0,-1.098182201E0,8.671988845E-1,2.351982117E0
1.549047554E0,-1.258228779E0,1.108490467E0,2.328158379E0
1.553802241E0,-1.426827431E0,1.250821948E0,2.272569656E0
1.558556981E0,-1.580154419E0,1.311297655E0,2.243248224E0
1.563311668E0,-1.696829677E0,1.316184521E0,2.279900074E0
1.568066356E0,-1.749364018E0,1.299080253E0,2.378860235E0
1.572821095E0,-1.746309638E0,1.263039231E0,2.501033068E0
1.577575783E0,-1.707825184E0,1.162857413E0,2.588997602E0
1.582330470E0,-1.632688880E0,9.710459113E-1,2.648251534E0
1.587085210E0,-1.501963735E0,7.120392323E-1,2.675740480E0
1.591839897E0,-1.319926023E0,4.127155244E-1,2.673296928E0
1.596594585E0,-1.109788537E0,1.048396677E-1,2.654360294E0
1.601349325E0,-8.868229389E-1,-1.944840699E-1,2.582889080E0
1.606104012E0,-6.663007736E-1,-4.846448302E-1,2.460716009E0
1.610858700E0,-4.732674956E-1,-7.467058301E-1,2.373362303E0
1.615613439E0,-3.003927469E-1,-9.989929795E-1,2.329991102E0
1.620368127E0,-1.531743407E-1,-1.257999659E0,2.356868982E0
1.625122814E0,-5.910116807E-2,-1.548771262E0,2.504087448E0
1.629877554E0,3.802633286E-2,-1.734474182E0,2.588386774E0
1.634632241E0,1.302669197E-1,-1.824271321E0,2.571893454E0
1.639386981E0,1.815795600E-1,-1.846262455E0,2.487594128E0
1.644141668E0,1.632536054E-1,-1.832212567E0,2.370918989E0
1.648896356E0,1.058323234E-1,-1.809610605E0,2.246913433E0
1.653651095E0,2.825249545E-2,-1.814497471E0,2.135125160E0
1.658405783E0,-4.688387364E-2,-1.814497471E0,2.032499790E0
1.663160470E0,-1.305723488E-1,-1.798614979E0,1.936594009E0
1.667915210E0,-2.350302190E-1,-1.704541802E0,1.827860117E0
1.672669897E0,-3.633118272E-1,-1.553658247E0,1.717293620E0
1.677424637E0,-5.135845542E-1,-1.402774572E0,1.620166063E0
1.682179325E0,-6.852375865E-1,-1.122387648E0,1.518762589E0
1.686934012E0,-8.654426932E-1,-7.680860758E-1,1.408196092E0
1.691688752E0,-1.043204308E0,-5.219075680E-1,1.291520834E0
1.696443439E0,-1.175151110E0,-4.931969643E-1,1.187062979E0
1.701198127E0,-1.253341794E0,-6.562978625E-1,1.147967696E0
1.705952866E0,-1.307097912E0,-9.440151453E-1,1.173013091E0
1.710707554E0,-1.327867270E0,-1.286710262E0,1.259145021E0
1.715462293E0,-1.323591232E0,-1.570762396E0,1.386815786E0
1.720216981E0,-1.278387308E0,-1.877416492E0,1.524260283E0
1.724971668E0,-1.224631190E0,-2.141921043E0,1.670867920E0
1.729726408E0,-1.173318505E0,-2.436357737E0,1.803425550E0
1.734481095E0,-1.122616768E0,-2.741790295E0,1.902996540E0
1.739235835E0,-1.063362837E0,-3.023398876E0,1.956752658E0
1.743990522E0,-9.699005485E-1,-3.196884394E0,1.947589636E0
1.748745262E0,-7.512109876E-1,-2.946429968E0,1.865733743E0
1.753499950E0,-4.231765866E-1,-2.301356792E0,1.705687165E0
1.758254637E0,-4.199695215E-2,-1.425376654E0,1.454621792E0
1.763009377E0,3.300196826E-1,-5.426769853E-1,1.120478749E0
1.767764064E0,6.275108457E-1,1.292742640E-1,7.386882305E-1
1.772518752E0,8.535308242E-1,5.776489973E-1,3.697259128E-1
1.777273491E0,1.031903386E0,8.384882808E-1,5.207622424E-2
1.782028179E0,1.181565166E0,9.667698741E-1,-1.947131455E-1
1.786782918E0,1.292131782E0,9.686024785E-1,-3.584249020E-1
1.791537606E0,1.344666123E0,8.745293021E-1,-4.164570570E-1
1.796292345E0,1.319009781E0,7.040980458E-1,-3.871355653E-1
1.801047033E0,1.226158381E0,4.988474548E-1,-3.034470677E-1
1.805801720E0,1.100931048E0,2.935968935E-1,-2.154825479E-1
1.810556460E0,9.781472087E-1,1.262199283E-1,-1.989891976E-1
1.815311147E0,8.962913752E-1,1.259908639E-2,-3.089448512E-1
1.820065887E0,8.492547870E-1,-6.559160352E-2,-5.068650246E-1
1.824820575E0,8.181006312E-1,-1.242346242E-1,-6.510291100E-1
1.829575314E0,7.777835727E-1,-1.040760875E-1,-5.306887627E-1
1.834330002E0,7.386882305E-1,-3.260490671E-2,-1.617264450E-1
1.839084741E0,7.307469845E-1,-1.855501719E-2,2.622137070E-1
1.843839429E0,7.197514176E-1,-1.977674663E-2,7.301361561E-1
1.848594116E0,6.843212843E-1,-4.970912263E-2,1.205388904E0
1.853348856E0,6.360629797E-1,-1.230128929E-1,1.575572968E0
1.858103543E0,5.945241451E-1,-2.439641207E-1,1.838855743E0
1.862858283E0,5.780308247E-1,-4.076758921E-1,2.018450022E0
1.867612970E0,5.878046155E-1,-5.695550442E-1,2.138790369E0
1.872367710E0,6.146826744E-1,-6.850084662E-1,2.227365732E0
1.877122397E0,6.611084342E-1,-7.809142470E-1,2.295171738E0
1.881877137E0,7.356339097E-1,-8.749874234E-1,2.348927736E0
1.886631825E0,8.235984445E-1,-9.415717125E-1,2.386801481E0
1.891386564E0,9.329432249E-1,-9.501237869E-1,2.373362303E0
1.896141252E0,1.073442101E0,-8.456659317E-1,2.260352373E0
1.900895939E0,1.224325776E0,-6.630173326E-1,2.110079765E0
1.905650679E0,1.328172803E0,-5.390118361E-1,1.944535255E0
1.910405366E0,1.304959893E0,-6.562978625E-1,1.697135091E0
1.915160106E0,1.213940978E0,-8.957568407E-1,1.414304733E0
1.919914793E0,1.125976562E0,-1.135215878E0,1.151021957E0
1.924669533E0,1.033735871E0,-1.436982989E0,8.993456960E-1
1.929424220E0,9.592103958E-1,-1.783954263E0,6.794343591E-1
1.934178960E0,9.011782408E-1,-2.169409990E0,4.912880063E-1
1.938933647E0,8.681915402E-1,-2.548756838E0,3.379609287E-1
1.943688387E0,8.663589954E-1,-2.910999775E0,2.054032832E-1
1.948443075E0,8.846849203E-1,-3.251251459E0,8.994983882E-2
1.953197814E0,9.036217332E-1,-3.556072950E0,-1.389717404E-2
1.957952502E0,9.072869420E-1,-3.812636137E0,-1.171333194E-1
1.962707241E0,8.822414875E-1,-3.998338938E0,-2.270889878E-1
1.967461929E0,8.437569737E-1,-4.072253704E0,-3.437641561E-1
1.972216668E0,8.553634286E-1,-3.926867962E0,-4.549415410E-1
1.976971356E0,9.078977704E-1,-3.590892315E0,-5.416843295E-1
1.981726095E0,9.543235302E-1,-3.173671722E0,-6.107120514E-1
1.986480783E0,9.818124175E-1,-2.714301348E0,-6.553052068E-1
1.991235522E0,9.665408134E-1,-2.243935347E0,-6.663007736E-1
1.995990210E0,9.109520912E-1,-1.799836755E0,-6.284271479E-1
2.000744950E0,8.242093325E-1,-1.430263519E0,-5.496255755E-1
2.005499637E0,7.081450224E-1,-1.151098371E0,-4.531089365E-1
2.010254377E0,5.829176903E-1,-9.476803541E-1,-3.504836559E-1
2.015009064E0,4.717403352E-1,-8.077923059E-1,-2.515235841E-1
2.019763804E0,3.703367710E-1,-7.485384345E-1,-1.580612659E-1
2.024518491E0,2.835939825E-1,-7.241038084E-1,-7.315105945E-2
2.029273231E0,2.109010667E-1,-7.350993752E-1,-1.389717404E-2
2.034027970E0,1.467602700E-1,-7.912989855E-1,1.603520103E-2
2.038782658E0,9.911280870E-2,-8.511636853E-1,2.580903657E-2
2.043537345E0,7.101303339E-2,-8.707113862E-1,1.053741761E-2
2.048292085E0,5.696314201E-2,-8.450550437E-1,-1.878409274E-2
2.053046825E0,5.757400393E-2,-7.937424183E-1,-4.993819445E-2
2.057801512E0,7.712167501E-2,-7.302125096E-1,-7.620538026E-2
2.062556252E0,1.198822111E-1,-6.471349001E-1,-9.758564830E-2
2.067310939E0,1.638644785E-1,-5.438987017E-1,-1.079703495E-1
2.072065679E0,1.889099330E-1,-4.192823172E-1,-1.140789986E-1
2.076820366E0,1.907425225E-1,-3.068831861E-1,-1.195767820E-1
2.081575106E0,1.846338809E-1,-2.219729871E-1,-1.262962967E-1
2.086329793E0,1.858556122E-1,-1.847102344E-1,-1.397353113E-1
2.091084533E0,2.011272311E-1,-2.335794270E-1,-1.647807807E-1
2.095839272E0,2.127336562E-1,-3.685805500E-1,-1.794415265E-1
2.100593960E0,1.882990748E-1,-5.738310814E-1,-1.354592592E-1
2.105348700E0,1.351538301E-1,-7.974076271E-1,-5.849030241E-2
2.110103387E0,9.300415963E-2,-9.806670547E-1,6.261364091E-3
2.114858127E0,7.040216774E-2,-1.112613797E0,4.535670951E-2
2.119612866E0,6.429351866E-2,-1.231732488E0,6.734783947E-2
2.124367554E0,5.574141070E-2,-1.362457514E0,8.567378670E-2
2.129122293E0,2.764163166E-2,-1.513341188E0,1.082757786E-1
2.133876981E0,-1.634063199E-2,-1.701487541E0,1.473711282E-1
2.138631720E0,-7.192932814E-2,-1.935448647E0,2.047924101E-1
2.143386408E0,-1.440113783E-1,-2.201785803E0,2.976438701E-1
2.148141147E0,-2.539670467E-1,-2.523711443E0,5.505418777E-1
2.152895887E0,-3.755291104E-1,-2.724685907E0,1.010523081E0
2.157650575E0,-4.463894367E-1,-2.550589561E0,1.425911069E0
2.162405314E0,-4.518872201E-1,-2.019137144E0,1.706908941E0
2.167160002E0,-3.706422150E-1,-1.289153814E0,1.826638460E0
2.171914741E0,-2.258672565E-1,-5.591703653E-1,1.770438790E0
2.176669429E0,-4.260781780E-2,2.664897591E-2,1.555414438E0
2.181424168E0,1.088866442E-1,3.846157491E-1,1.449123979E0
2.186178908E0,1.815795600E-1,5.245037675E-1,1.607948780E0
2.190933595E0,2.420551628E-1,5.868119597E-1,1.798538685E0
2.195688335E0,3.648389876E-1,6.674461365E-1,1.910326838E0
2.200443075E0,5.010618567E-1,7.474694252E-1,1.967748165E0
2.205197762E0,5.914698243E-1,7.511346340E-1,2.029445410E0
2.209952502E0,6.006327868E-1,6.356811523E-1,2.107025385E0
2.214707189E0,5.572614074E-1,3.895026445E-1,2.141844749E0
2.219461929E0,4.998401105E-1,5.291616172E-2,2.160781384E0
2.224216616E0,4.460839927E-1,-3.117701113E-1,2.201709270E0
2.228971356E0,4.277580678E-1,-6.453022957E-1,2.257297993E0
2.233726095E0,4.503600597E-1,-8.804852366E-1,2.320827961E0
2.238480783E0,5.096139312E-1,-9.660062790E-1,2.390466690E0
2.243235522E0,5.945241451E-1,-9.415717125E-1,2.466824770E0
2.247990262E0,6.910407543E-1,-8.371137977E-1,2.560897827E0
2.252744950E0,8.126028776E-1,-6.477457285E-1,2.656803608E0
2.257499689E0,9.524909258E-1,-3.783543706E-1,2.729496479E0
2.262254429E0,1.066722631E0,-1.303432733E-1,2.788750410E0
2.267009116E0,1.134528637E0,2.359465137E-2,2.844949961E0
2.271763856E0,1.174845695E0,1.091157198E-1,2.921918869E0
2.276518595E0,1.201723695E0,1.488219351E-1,3.004385710E0
2.281273283E0,1.213940978E0,1.298851222E-1,3.070358992E0
2.286028022E0,1.193782449E0,7.124210149E-2,3.086241484E0
2.290782762E0,1.144302487E0,-4.176788032E-2,3.079522133E0
2.295537450E0,1.105207086E0,-1.816559136E-1,3.049589634E0
2.300292189E0,1.094211578E0,-3.081049323E-1,2.961014271E0
2.305046929E0,1.130252600E0,-3.930151165E-1,2.852280378E0
2.309801616E0,1.203556299E0,-4.595993757E-1,2.720333576E0
2.314556356E0,1.304959893E0,-5.500074029E-1,2.567617416E0
2.319311043E0,1.391091824E0,-7.577013969E-1,2.416733742E0
2.324065783E0,1.452789187E0,-1.079627156E0,2.285397768E0
2.328820522E0,1.507156134E0,-1.464471936E0,2.143677235E0
2.333575210E0,1.573129535E0,-1.843819022E0,2.047771454E0
2.338329950E0,1.674533129E0,-2.183459759E0,1.997069716E0
2.343084689E0,1.814421058E0,-2.440633774E0,1.976911187E0
2.347839429E0,1.950033069E0,-2.433303595E0,2.087477684E0
2.352594116E0,1.992793679E0,-2.280587196E0,2.098473310E0
2.357348856E0,1.973856807E0,-1.988593936E0,2.094808102E0
2.362103595E0,1.961028695E0,-1.568929791E0,2.162003279E0
2.366858283E0,1.922544122E0,-1.171867728E0,2.254854679E0
2.371613022E0,1.814421058E0,-8.310051560E-1,2.295782566E0
2.376367762E0,1.670867920E0,-5.371792316E-1,2.317162752E0
2.381122450E0,1.512042999E0,-2.647335231E-1,2.330601931E0
2.385877189E0,1.350774765E0,-1.427896414E-2,2.337321281E0
2.390631929E0,1.193171620E0,2.184605151E-1,2.331212759E0
2.395386668E0,1.050840139E0,4.151589870E-1,2.290284872E0
2.400141356E0,9.127846956E-1,5.538252592E-1,2.230420113E0
2.404896095E0,7.735075355E-1,5.910880566E-1,2.155894518E0
2.409650835E0,6.262891293E-1,5.452731848E-1,2.074649572E0
2.414405522E0,4.723511934E-1,4.371501207E-1,1.999513149E0
2.419160262E0,3.257436454E-1,3.015381396E-1,1.948200464E0
2.423915002E0,2.072358727E-1,1.714239269E-1,1.879172802E0
2.428669741E0,1.394298822E-1,1.748600416E-2,1.766162753E0
2.433424429E0,9.239330143E-2,-1.731038094E-1,1.585346818E0
2.438179168E0,5.574141070E-2,-3.777435124E-1,1.349552989E0
2.442933908E0,1.374445739E-3,-5.677224398E-1,1.054505348E0
2.447688595E0,-5.482511222E-2,-7.375428677E-1,7.032580972E-1
2.452443335E0,-1.061377525E-1,-8.670461774E-1,3.477347791E-1
2.457198075E0,-1.592829973E-1,-8.432224989E-1,1.290451884E-1
2.461952814E0,-2.735147178E-1,-7.222712636E-1,-3.100138716E-2
2.466707502E0,-4.360047281E-1,-5.500074029E-1,-1.769980639E-1
2.471462241E0,-5.844448805E-1,-3.722457290E-1,-2.961167097E-1
2.476216981E0,-6.809614897E-1,-3.032180071E-1,-4.085158110E-1
2.480971720E0,-7.469348907E-1,-2.653443813E-1,-5.477929711E-1
2.485726408E0,-7.872520089E-1,-2.555705607E-1,-6.876810193E-1
2.490481147E0,-8.098539710E-1,-3.349829614E-1,-8.361211419E-1
2.495235887E0,-8.220712543E-1,-4.559341967E-1,-9.900590777E-1
2.499990627E0,-8.171843290E-1,-5.958222151E-1,-1.129336238E0
2.504745314E0,-7.738129497E-1,-8.316160440E-1,-1.219744205E0
2.509500054E0,-6.754637361E-1,-1.179198146E0,-1.238070250E0
2.514254793E0,-4.744892120E-1,-1.562821150E0,-1.128114581E0
2.519009533E0,-1.250745654E-1,-1.920787930E0,-8.862120509E-1
2.523764220E0,2.994764447E-1,-2.234772444E0,-5.850557685E-1
2.528518960E0,6.916516423E-1,-2.531652689E0,-3.022253513E-1
2.533273700E0,9.921970963E-1,-2.785161495E0,-9.758564830E-2
2.538028439E0,1.145524144E0,-2.918941021E0,-7.788525894E-3
2.542783179E0,1.141858935E0,-2.863963127E0,-2.672533318E-2
2.547537866E0,1.005025268E0,-2.599458694E0,-1.287397593E-1
2.552292606E0,7.796161771E-1,-2.176740170E0,-2.741255760E-1
2.557047345E0,5.126682520E-1,-1.639790177E0,-4.219548404E-1
2.561802085E0,2.469420880E-1,-1.080848813E0,-5.569559336E-1
2.566556825E0,6.872228812E-3,-5.732202530E-1,-6.736311316E-1
2.571311512E0,-1.855501831E-1,-1.602756530E-1,-7.689260244E-1
2.576066252E0,-3.284925222E-1,1.304959953E-1,-8.336777091E-1
2.580820991E0,-4.134027362E-1,2.502254844E-1,-8.501710296E-1
2.585575731E0,-4.470002949E-1,1.848629564E-1,-8.208495378E-1
2.590330470E0,-4.378373325E-1,-5.459604040E-2,-7.609847784E-1
2.595085158E0,-4.036289155E-1,-3.862956166E-1,-6.889027357E-1
2.599839897E0,-3.651444316E-1,-6.776781082E-1,-6.162098646E-1
2.604594637E0,-3.303251266E-1,-8.316160440E-1,-5.416843295E-1
2.609349377E0,-3.083339930E-1,-8.401681185E-1,-4.634936452E-1
2.614104116E0,-3.083339930E-1,-7.412080765E-1,-3.871355653E-1
2.618858804E0,-3.199404180E-1,-6.037634611E-1,-3.205513060E-1
2.623613543E0,-3.303251266E-1,-5.054142475E-1,-2.722929716E-1
2.628368283E0,-3.242164850E-1,-4.162279963E-1,-2.264781147E-1
2.633123022E0,-2.985601723E-1,-2.928332984E-1,-1.605047137E-1
2.637877762E0,-2.289215773E-1,-1.413388401E-1,-7.681624591E-2
2.642632502E0,-1.177441850E-1,3.031416424E-2,4.535670951E-2
2.647387189E0,4.413498193E-2,2.325104028E-1,2.109010667E-1
2.652141929E0,1.785252392E-1,4.188241661E-1,3.135263622E-1
2.656896668E0,2.267835438E-1,5.666534305E-1,3.000873327E-1
2.661651408E0,2.194531709E-1,7.364738584E-1,2.060141414E-1
2.666406147E0,2.255618125E-1,1.011363029E0,1.198822111E-1
2.671160887E0,2.762635946E-1,1.391320944E0,7.223475724E-2
2.675915575E0,3.507890999E-1,1.775554895E0,6.001746282E-2
2.680670314E0,4.222602844E-1,2.085874081E0,6.062832847E-2
2.685425054E0,4.925097227E-1,2.284405231E0,5.024362728E-2
2.690179793E0,5.700895786E-1,2.409632444E0,7.651081681E-2
2.694934533E0,6.446150541E-1,2.405356407E0,1.595884264E-1
2.699689272E0,7.148644924E-1,2.086484909E0,2.426660359E-1
2.704444012E0,7.851139307E-1,1.511661291E0,3.300196826E-1
2.709198700E0,8.223767281E-1,9.508873820E-1,4.356993139E-1
2.713953439E0,7.661771774E-1,6.723330617E-1,5.731438994E-1
2.718708179E0,5.652026534E-1,1.013195634E0,7.362447977E-1
2.723462918E0,2.793179154E-1,1.749287605E0,8.510873318E-1
2.728217658E0,-8.414662629E-2,2.228205681E0,7.295252681E-1
2.732972397E0,-3.211621642E-1,2.312505007E0,4.864010811E-1
2.737727137E0,-3.743073940E-1,2.126191139E0,2.671006322E-1
2.742481825E0,-3.150535226E-1,1.828089237E0,1.229365394E-1
2.747236564E0,-2.234237939E-1,1.515937328E0,5.940660089E-2
2.751991304E0,-1.501200199E-1,1.219667912E0,5.696314201E-2
2.756746043E0,-1.122464016E-1,9.331722856E-1,7.895427197E-2
2.761500783E0,-1.036942974E-1,6.857720613E-1,1.259908676E-1
2.766255522E0,-1.342375278E-1,5.000692010E-1,1.901316643E-1
2.771010262E0,-2.020435184E-1,2.856556475E-1,1.821904182E-1
2.775765002E0,-2.594648004E-1,6.635518372E-2,1.027780026E-1
2.780519689E0,-2.796233594E-1,-9.491311759E-2,-1.939495653E-2
2.785274429E0,-2.924515009E-1,-1.724929363E-1,-1.403461844E-1
2.790029168E0,-3.119991720E-1,-2.164752036E-1,-2.991710305E-1
2.794783908E0,-3.315468729E-1,-2.427423894E-1,-4.732674956E-1
2.799538647E0,-3.498727977E-1,-2.378554791E-1,-6.241511106E-1
2.804293387E0,-3.681987524E-1,-2.152534723E-1,-7.322741747E-1
2.809048127E0,-3.718639314E-1,-1.895971596E-1,-7.695369124E-1
2.813802866E0,-3.425424397E-1,-1.553887278E-1,-7.316632867E-1
2.818557606E0,-3.156643808E-1,-1.908188909E-1,-7.121156454E-1
2.823312293E0,-3.071122766E-1,-3.068831861E-1,-7.377719283E-1
2.828067033E0,-2.930623889E-1,-4.388299882E-1,-7.182242870E-1
2.832821772E0,-2.802342176E-1,-5.591703653E-1,-5.997164845E-1
2.837576512E0,-2.460257858E-1,-6.049851775E-1,-4.127918780E-1
2.842331252E0,-2.075413018E-1,-5.744419694E-1,-2.448040545E-1
2.847085991E0,-1.867718995E-1,-4.742601514E-1,-1.476765573E-1
2.851840731E0,-2.044869810E-1,-2.445749789E-1,-1.122464016E-1
2.856595470E0,-2.564104795E-1,5.047270283E-2,-1.207985133E-1
2.861350210E0,-3.260490894E-1,3.473529816E-1,-1.660024971E-1
2.866104950E0,-3.981311321E-1,6.326268315E-1,-2.234237939E-1
2.870859689E0,-4.689914286E-1,8.366556764E-1,-3.119991720E-1
2.875614429E0,-5.233584046E-1,9.130137563E-1,-4.195113778E-1
2.880369168E0,-5.557342172E-1,8.867465854E-1,-4.928151667E-1
2.885123908E0,-5.777253509E-1,7.932842970E-1,-5.300779343E-1
2.889878647E0,-5.807796717E-1,6.020836234E-1,-5.203040838E-1
2.894633335E0,-5.563451052E-1,2.954294682E-1,-4.476111531E-1
2.899388075E0,-4.964803457E-1,-6.925679743E-2,-3.229947388E-1
2.904142814E0,-4.072940946E-1,-4.296670258E-1,-1.928805560E-1
2.908897554E0,-2.991710305E-1,-7.613666058E-1,-8.659008145E-2
2.913652293E0,-1.898262352E-1,-1.035644889E0,7.635809598E-4
2.918407033E0,-1.195767820E-1,-1.031368852E0,1.510363221E-1
2.923161772E0,-8.781181276E-2,-8.487202525E-1,3.269653618E-1
2.927916512E0,-8.536835015E-2,-5.738310814E-1,4.882336855E-1
2.932671252E0,-1.116355360E-1,-1.975383908E-1,6.287325621E-1
2.937425991E0,-1.873827726E-1,2.392299175E-1,7.179188132E-1
2.942180731E0,-3.284925222E-1,5.788707137E-1,7.130318880E-1
2.946935470E0,-5.227475166E-1,7.199804783E-1,5.511527658E-1
2.951690210E0,-7.157807946E-1,8.152754307E-1,3.104720116E-1
2.956444950E0,-8.605557680E-1,9.142354727E-1,6.246092543E-2
2.961199689E0,-9.448550940E-1,1.074892879E0,-1.403461844E-1
2.965954429E0,-9.802852273E-1,1.303356409E0,-2.649625838E-1
2.970709168E0,-1.001665473E0,1.563584805E0,-3.101665974E-1
2.975463908E0,-1.025489211E0,1.855578184E0,-2.942841053E-1
2.980218647E0,-1.054810762E0,2.187888622E0,-2.228129357E-1
2.984973387E0,-1.089630008E0,2.549520493E0,-1.079703495E-1
2.989728127E0,-1.125671029E0,2.896491766E0,1.298087649E-2
2.994482866E0,-1.151938200E0,3.160385370E0,1.143844277E-1
2.999237606E0,-1.143386126E0,3.284390926E0,1.815795600E-1
3.003992345E0,-1.068860650E0,3.270340919E0,2.280052751E-1
3.008747085E0,-9.179770350E-1,3.093801022E0,2.719875574E-1
3.013501825E0,-7.359393239E-1,2.787757874E0,3.483456373E-1
3.018256512E0,-5.746710300E-1,2.401080370E0,4.271472096E-1
3.023011304E0,-4.671588540E-1,1.919718981E0,4.546361268E-1
3.027765991E0,-4.213439822E-1,1.320460558E0,3.709476292E-1
3.032520783E0,-4.298960865E-1,6.863829494E-1,1.766926348E-1
3.037275470E0,-4.763218164E-1,2.282343507E-1,-5.955931731E-3
3.042030262E0,-5.484038591E-1,-2.079230994E-1,-1.171333194E-1
3.046785002E0,-5.954404473E-1,-5.029708147E-1,-1.250745654E-1
3.051539741E0,-6.272054315E-1,-6.709585786E-1,-1.817322709E-2
3.056294481E0,-5.783362389E-1,-8.187878728E-1,1.119409725E-1
3.061049220E0,-4.329504073E-1,-8.615484238E-1,2.115119249E-1
3.065803960E0,-2.777907550E-1,-7.100539207E-1,2.133445293E-1
3.070558700E0,-1.537852138E-1,-4.137845337E-1,1.247691289E-1
3.075313439E0,-5.238165334E-2,-8.269581944E-2,7.773254067E-2
3.080068179E0,9.926552884E-3,1.231656075E-1,7.956513762E-2
3.084822918E0,3.863719851E-2,1.524871141E-1,1.070540547E-1
3.089577658E0,4.657844082E-2,4.436405376E-2,1.418733448E-1
3.094332397E0,4.841103405E-2,-1.205694377E-1,1.828012913E-1
3.099087137E0,5.451968312E-2,-3.026071489E-1,2.316704690E-1
3.103841877E0,6.918043643E-2,-4.968621433E-1,2.915352285E-1
3.108596616E0,9.728021920E-2,-6.831759214E-1,3.538434207E-1
3.113351356E0,1.345429718E-1,-8.114575148E-1,4.210385382E-1
3.118106095E0,1.632536054E-1,-8.639918566E-1,4.430296719E-1
3.122860835E0,1.846338809E-1,-8.646027446E-1,4.674642682E-1
3.127615575E0,2.047924101E-1,-8.487202525E-1,5.071704984E-1
3.132370314E0,2.206749022E-1,-8.310051560E-1,5.529853702E-1
3.137125054E0,2.322813272E-1,-8.090140224E-1,6.214022040E-1
3.141879793E0,2.371682525E-1,-7.638100386E-1,6.525563002E-1
3.146634533E0,2.414443046E-1,-6.905062795E-1,6.806560755E-1
3.151389272E0,2.267835438E-1,-6.092612743E-1,6.971494555E-1
3.156144012E0,1.876882017E-1,-5.365683436E-1,6.940951347E-1
3.160898752E0,1.320995092E-1,-4.675406218E-1,6.788234711E-1
3.165653491E0,7.223475724E-2,-3.954585791E-1,6.641627550E-1
3.170408231E0,2.458730713E-2,-3.239873946E-1,6.525563002E-1
3.175163022E0,7.635809598E-4,-2.555705607E-1,6.244565248E-1
3.179917710E0,9.315688163E-3,-1.883754283E-1,5.768090487E-1
3.184672502E0,4.535670951E-2,-1.327867359E-1,5.138899684E-1
3.189427241E0,9.666935354E-2,-9.857830405E-2,4.564687014E-1
3.194181981E0,1.644753367E-1,-9.246965498E-2,4.308123887E-1
3.198936720E0,2.371682525E-1,-1.132390574E-1,4.436405599E-1
3.203691460E0,3.074176908E-1,-1.645517051E-1,4.857902229E-1
3.208446200E0,3.666715920E-1,-2.409097999E-1,5.426006317E-1
3.213200939E0,4.008800089E-1,-3.191004992E-1,6.171261668E-1
3.217955679E0,4.149298966E-1,-3.746891916E-1,7.221949100E-1
3.222710418E0,4.137081802E-1,-4.021781087E-1,8.791871071E-1
3.227465158E0,4.082103968E-1,-4.064541459E-1,1.044731498E0
3.232219897E0,4.045451880E-1,-3.875173330E-1,1.205388904E0
3.236974689E0,4.234820008E-1,-3.612501621E-1,1.374598503E0
3.241729429E0,4.699077308E-1,-3.453676701E-1,1.538310289E0
3.246484168E0,5.358811021E-1,-3.410916328E-1,1.686750412E0
3.251238908E0,6.165152788E-1,-3.789652288E-1,1.807090759E0
3.255993647E0,6.983711720E-1,-4.577668011E-1,1.885892272E0
3.260748387E0,7.606793642E-1,-5.866592526E-1,1.950033069E0
3.265503127E0,7.967203856E-1,-7.485384345E-1,1.979354620E0
3.270257866E0,8.162680864E-1,-9.085850120E-1,1.981798053E0
3.275012606E0,8.235984445E-1,-1.022205830E0,1.966526389E0
3.279767345E0,8.144354820E-1,-1.061912060E0,1.950033069E0
3.284522085E0,8.089376688E-1,-9.812778831E-1,1.907883406E0
3.289276877E0,8.284853697E-1,-7.717512846E-1,1.838244796E0
3.294031616E0,8.596394658E-1,-5.237401724E-1,1.736230373E0
3.298786356E0,8.944587708E-1,-3.215439618E-1,1.526703835E0
3.303541095E0,9.268345833E-1,-1.749363989E-1,1.326951027E0
3.308295835E0,9.506583214E-1,-5.703949928E-2,1.149800181E0
3.313050575E0,9.476040006E-1,8.529199660E-2,9.567669630E-1
3.317805314E0,8.975130916E-1,2.508363426E-1,7.625119686E-1
3.322560054E0,8.022181988E-1,3.950004280E-1,5.535961986E-1
3.327314845E0,6.708822250E-1,4.805215001E-1,3.605629504E-1
3.332069585E0,4.937314689E-1,5.037343502E-1,1.724165827E-1
3.336824325E0,2.958112657E-1,4.652498960E-1,-8.399390616E-3
3.341579064E0,1.070540547E-1,3.632354736E-1,-1.818849891E-1
3.346333804E0,-3.894263133E-2,2.471711636E-1,-2.661843300E-1
3.351088543E0,-1.287397593E-1,2.648862302E-1,-2.765690386E-1
3.355843283E0,-1.983783394E-1,4.298197329E-1,-3.529271185E-1
3.360598075E0,-2.521344423E-1,6.430115104E-1,-4.573850036E-1
3.365352814E0,-2.961167097E-1,8.201622963E-1,-5.386300087E-1
3.370107554E0,-3.419315517E-1,9.136246443E-1,-6.052142978E-1
3.374862293E0,-3.889681399E-1,8.849139810E-1,-6.937896609E-1
3.379617033E0,-4.213439822E-1,8.171079755E-1,-7.774781585E-1
3.384371772E0,-4.390590489E-1,7.395281792E-1,-8.403972387E-1
3.389126564E0,-4.347830117E-1,6.533962488E-1,-8.990402222E-1
3.393881304E0,-4.140135944E-1,5.428296924E-1,-9.741765857E-1
3.398636043E0,-3.669770062E-1,4.328740537E-1,-1.049923897E0
3.403390783E0,-3.150535226E-1,3.583485484E-1,-1.081688762E0
3.408145522E0,-2.820668221E-1,3.033707142E-1,-1.078634501E0
3.412900262E0,-2.649625838E-1,2.520580888E-1,-1.056032538E0
3.417655054E0,-2.551887631E-1,1.952476501E-1,-1.018769741E0
3.422409793E0,-2.423606068E-1,1.317177117E-1,-9.692896605E-1
3.427164533E0,-2.136499584E-1,6.757691503E-2,-9.143118858E-1
3.431919272E0,-1.684459597E-1,5.879573524E-3,-8.672752976E-1
3.436674012E0,-1.122464016E-1,-5.276344717E-2,-8.355103135E-1
3.441428752E0,-4.993819445E-2,-1.028543562E-1,-8.245147467E-1
3.446183491E0,1.542433538E-2,-1.376736462E-1,-8.403972387E-1
3.450938283E0,7.834340632E-2,-1.199585721E-1,-8.856012225E-1
3.455693022E0,1.113301069E-1,1.060613990E-1,-9.497420192E-1
3.460447762E0,9.422589093E-2,5.733729601E-1,-1.010828495E0
3.465202502E0,6.734783947E-2,9.771545529E-1,-1.093906045E0
3.469957241E0,4.108065739E-2,1.253876328E0,-1.203861713E0
3.474711981E0,5.650499370E-3,1.459737778E0,-1.319315195E0
3.479466772E0,-3.283398226E-2,1.592295408E0,-1.427438259E0
3.484221512E0,-7.681624591E-2,1.657047033E0,-1.507461548E0
3.488976252E0,-1.324049383E-1,1.680870771E0,-1.541059136E0
3.493730991E0,-1.947131455E-1,1.658879638E0,-1.537393928E0
3.498485731E0,-2.588539422E-1,1.605734468E0,-1.501352906E0
3.503240522E0,-3.187187016E-1,1.517158985E0,-1.435990334E0
3.507995262E0,-3.584249020E-1,1.372994900E0,-1.356577992E0
3.512750002E0,-3.572031856E-1,1.156748772E0,-1.287550211E0
3.517504741E0,-3.132209182E-1,8.531489968E-1,-1.233183265E0
3.522259481E0,-2.252563834E-1,4.817432463E-1,-1.194087982E0
3.527014272E0,-9.819651395E-2,1.023962051E-1,-1.156214356E0
3.531769012E0,6.795870513E-2,-2.311359644E-1,-1.088408351E0
3.536523752E0,2.921460867E-1,-5.536725521E-1,-8.672752976E-1
3.541278491E0,5.633700490E-1,-8.652135730E-1,-5.716167092E-1
3.546033231E0,7.631227970E-1,-1.016708016E0,-4.109592736E-1
3.550788022E0,8.608611822E-1,-9.727258086E-1,-3.254382014E-1
3.555542762E0,8.889609575E-1,-8.426116109E-1,-2.710712552E-1
3.560297502E0,8.755219579E-1,-7.155517340E-1,-2.729038298E-1
3.565052241E0,8.150463104E-1,-5.597811937E-1,-2.722929716E-1
3.569806981E0,7.105884552E-1,-4.137845337E-1,-2.179260105E-1
3.574561772E0,5.713112950E-1,-2.867246568E-1,-1.806632578E-1
3.579316512E0,4.204276800E-1,-1.798233241E-1,-2.160934210E-1
3.584071252E0,2.780961990E-1,-1.224020272E-1,-3.058905303E-1
3.588825991E0,1.430950761E-1,-1.120173261E-1,-4.146244824E-1
3.593580783E0,8.093958721E-3,-9.674570709E-2,-5.294670463E-1
3.598335522E0,-1.177441850E-1,-4.543306679E-2,-6.131555438E-1
3.603090262E0,-2.197586000E-1,8.933897130E-3,-6.742420197E-1
3.607845002E0,-3.016144931E-1,6.574432552E-2,-6.895136237E-1
3.612599741E0,-3.724747896E-1,1.072831303E-1,-6.809614897E-1
3.617354533E0,-4.317286909E-1,1.414915472E-1,-6.748528481E-1
3.622109272E0,-4.744892120E-1,1.750891209E-1,-6.736311316E-1
3.626864012E0,-5.074759126E-1,1.946367919E-1,-6.632464528E-1
3.631618752E0,-5.422952175E-1,1.915824711E-1,-6.375901103E-1
3.636373543E0,-5.807796717E-1,1.726456583E-1,-5.923861265E-1
3.641128283E0,-6.131555438E-1,1.512653977E-1,-5.306887627E-1
3.645883022E0,-6.284271479E-1,1.378263682E-1,-4.714348912E-1
3.650637762E0,-6.290380359E-1,1.286633909E-1,-4.213439822E-1
3.655392554E0,-6.155989766E-1,1.164461002E-1,-3.804160357E-1
3.660147293E0,-5.923861265E-1,1.017853469E-1,-3.443750143E-1
3.664902033E0,-5.648971796E-1,8.223766834E-2,-3.138317764E-1
3.669656772E0,-5.337430835E-1,5.597048625E-2,-2.869537175E-1
3.674411564E0,-5.038107038E-1,2.787070535E-2,-2.649625838E-1
3.679166304E0,-4.799869955E-1,-1.450803829E-3,-2.441931963E-1
3.683921043E0,-4.592176080E-1,-3.077231348E-2,-2.215912044E-1
3.688675835E0,-4.463894367E-1,-5.520690605E-2,-2.020435184E-1
3.693430575E0,-4.427242577E-1,-7.108938694E-2,-1.843284518E-1
3.698185314E0,-4.439459741E-1,-7.475458086E-2,-1.696676910E-1
3.702940054E0,-4.537198246E-1,-6.925679743E-2,-1.629481763E-1
3.707694845E0,-4.677697122E-1,-6.009382382E-2,-1.598938555E-1
3.712449585E0,-4.867065251E-1,-5.215258151E-2,-1.684459597E-1
3.717204325E0,-5.074759126E-1,-4.543306679E-2,-1.800523996E-1
3.721959116E0,-5.276344419E-1,-4.543306679E-2,-1.965457499E-1
3.726713856E0,-5.496255755E-1,-4.909825698E-2,-2.160934210E-1
3.731468595E0,-5.685623884E-1,-5.765036494E-2,-2.356410921E-1
3.736223335E0,-5.850557685E-1,-6.986765563E-2,-2.557996213E-1
3.740978127E0,-5.972730517E-1,-8.330668509E-2,-2.735147178E-1
3.745732866E0,-6.070469022E-1,-9.735657275E-2,-2.906189263E-1
3.750487606E0,-6.168206930E-1,-1.138499230E-1,-3.046688139E-1
3.755242345E0,-6.247619390E-1,-1.346193254E-1,-3.168860972E-1
3.759997137E0,-6.314814687E-1,-1.572213173E-1,-3.272708058E-1
3.764751877E0,-6.375901103E-1,-1.798233241E-1,-3.400989771E-1
3.769506616E0,-6.424770355E-1,-2.012035847E-1,-3.504836559E-1
3.774261408E0,-6.467530727E-1,-2.225838602E-1,-3.608683646E-1
3.779016147E0,-6.510291100E-1,-2.384663373E-1,-3.688096106E-1
3.783770887E0,-6.559160352E-1,-2.500727773E-1,-3.755291104E-1
3.788525679E0,-6.583595276E-1,-2.549596727E-1,-3.828594983E-1
3.793280418E0,-6.601921320E-1,-2.531270981E-1,-3.883572817E-1
3.798035158E0,-6.583595276E-1,-2.445749789E-1,-3.895790279E-1
3.802789950E0,-6.540834904E-1,-2.293033600E-1,-3.810268939E-1
3.807544689E0,-6.473639607E-1,-2.048687786E-1,-3.688096106E-1
3.812299429E0,-6.363683939E-1,-1.743255407E-1,-3.504836559E-1
3.817054168E0,-6.223185062E-1,-1.352301836E-1,-3.223838806E-1
3.821808960E0,-6.027708054E-1,-8.513928205E-2,-2.887863219E-1
3.826563700E0,-5.746710300E-1,-4.787652567E-2,-2.570213675E-1
3.831318439E0,-5.429060459E-1,-2.466366626E-2,-2.228129357E-1
3.836073231E0,-5.135845542E-1,-1.427896414E-2,-1.873827726E-1
3.840827970E0,-4.909825623E-1,-1.488982886E-2,-1.513417512E-1
3.845582710E0,-4.738783538E-1,-2.160934173E-2,-1.104138121E-1
3.850337502E0,-4.647153914E-1,-3.382663801E-2,-6.643154472E-2
3.855092241E0,-4.610501826E-1,-4.909825698E-2,-2.000582218E-2
3.859846981E0,-4.641045034E-1,-7.108938694E-2,2.764163166E-2
3.864601772E0,-4.683805704E-1,-9.980003536E-2,7.223475724E-2
3.869356512E0,-4.738783538E-1,-1.346193254E-1,1.113301069E-1
3.874111252E0,-4.787652791E-1,-1.743255407E-1,1.400407553E-1
3.878866043E0,-4.799869955E-1,-2.164752036E-1,1.504254490E-1
3.883620783E0,-4.769326746E-1,-2.622900605E-1,1.510363221E-1
3.888375522E0,-4.677697122E-1,-3.148244321E-1,1.534797698E-1
3.893130314E0,-4.555523992E-1,-3.698022664E-1,1.540906429E-1
3.897885054E0,-4.396699369E-1,-4.192823172E-1,1.559232324E-1
3.902639845E0,-4.237874448E-1,-4.583776593E-1,1.565341055E-1
3.907394585E0,-4.134027362E-1,-4.883100390E-1,1.553123742E-1
3.912149325E0,-4.091266990E-1,-5.121337771E-1,1.534797698E-1
3.916904064E0,-4.115701318E-1,-5.402335525E-1,1.498145908E-1
3.921658856E0,-4.219548404E-1,-5.756636858E-1,1.455385387E-1
3.926413595E0,-4.415025115E-1,-6.239219904E-1,1.406516135E-1
3.931168387E0,-4.720457494E-1,-6.776781082E-1,1.296560466E-1
3.935923127E0,-5.105302334E-1,-7.302125096E-1,1.156061590E-1
3.940677866E0,-5.593994260E-1,-7.803034186E-1,1.003345400E-1
3.945432658E0,-6.174315810E-1,-8.132901192E-1,8.445205539E-2
3.950187397E0,-6.772963405E-1,-8.297834396E-1,6.123919412E-2
3.954942137E0,-7.334958911E-1,-8.462768197E-1,2.886336111E-2
3.959696929E0,-7.909171581E-1,-8.621592522E-1,-1.084284950E-2
3.964451668E0,-8.458949924E-1,-8.646027446E-1,-5.482511222E-2
3.969206460E0,-8.990402222E-1,-8.548288941E-1,-9.941824526E-2
3.973961200E0,-9.472985864E-1,-8.267291188E-1,-1.397353113E-1
3.978715939E0,-9.900590777E-1,-7.833577394E-1,-1.782197952E-1
3.983470731E0,-1.032208800E0,-7.363211513E-1,-2.167042792E-1
3.988225470E0,-1.073136687E0,-6.862302423E-1,-2.490801066E-1
3.992980210E0,-1.114675522E0,-6.288089156E-1,-2.722929716E-1
3.997735002E0,-1.156214356E0,-5.640572906E-1,-2.826776803E-1
4.002489741E0,-1.199585676E0,-4.962512851E-1,-2.790125012E-1
4.007244533E0,-1.246622324E0,-4.345539212E-1,-2.594648004E-1
4.011999272E0,-1.299156666E0,-3.856847584E-1,-2.301433086E-1
4.016754012E0,-1.355356216E0,-3.520871997E-1,-1.941022873E-1
4.021508804E0,-1.416442752E0,-3.410916328E-1,-1.513417512E-1
4.026263543E0,-1.484248757E0,-3.502545953E-1,-1.067486182E-1
4.031018335E0,-1.556941628E0,-3.789652288E-1,-6.215549260E-2
4.035773075E0,-1.630245328E0,-4.168388546E-1,-2.061668597E-2
4.040527814E0,-1.701105714E0,-4.541015923E-1,1.725693047E-2
4.045282606E0,-1.768300772E0,-4.779253304E-1,4.780016840E-2
4.050037345E0,-1.824500322E0,-4.864774346E-1,6.856957078E-2
4.054792137E0,-1.866039157E0,-4.748710096E-1,7.895427197E-2
4.059546877E0,-1.892306328E0,-4.424951673E-1,7.895427197E-2
4.064301616E0,-1.902080178E0,-3.905716538E-1,6.734783947E-2
4.069056408E0,-1.890473723E0,-3.184896111E-1,4.657844082E-2
4.073811147E0,-1.861152291E0,-2.280816436E-1,1.481347065E-2
4.078565939E0,-1.812893987E0,-1.187368408E-1,-2.428187430E-2
4.083320679E0,-1.742033601E0,-6.948587019E-3,-7.559451461E-2
4.088075470E0,-1.654069066E0,9.628756344E-2,-1.354592592E-1
4.092830210E0,-1.548389554E0,1.897498667E-1,-2.014326602E-1
4.097584950E0,-1.426827431E0,2.758817971E-1,-2.710712552E-1
4.102339741E0,-1.285717607E0,3.485747278E-1,-3.498727977E-1
4.107094481E0,-1.127503633E0,4.157698452E-1,-4.323395491E-1
4.111849272E0,-9.644027948E-1,4.738020003E-1,-5.117519498E-1
4.116604012E0,-8.037453294E-1,4.909062088E-1,-5.960513353E-1
4.121358804E0,-6.577486396E-1,4.438696206E-1,-6.717985272E-1
4.126113543E0,-5.416843295E-1,3.125337064E-1,-7.444914579E-1
4.130868283E0,-4.671588540E-1,7.551816106E-2,-8.159626126E-1
4.135623075E0,-4.500546157E-1,-2.622900605E-1,-8.880446553E-1
4.140377814E0,-4.946477413E-1,-6.746237874E-1,-9.680679440E-1
4.145132606E0,-5.929969549E-1,-1.102839947E0,-1.065806270E0
4.149887345E0,-7.286089659E-1,-1.486463070E0,-1.189811826E0
4.154642137E0,-8.831577301E-1,-1.791284561E0,-1.336419463E0
4.159396877E0,-1.038928270E0,-2.000200272E0,-1.504407287E0
4.164151668E0,-1.187368393E0,-2.112599373E0,-1.688277483E0
4.168906408E0,-1.322369576E0,-2.150473118E0,-1.881921649E0
4.173661147E0,-1.450651169E0,-2.128481865E0,-2.077398300E0
4.178415939E0,-1.577710986E0,-2.051512957E0,-2.256992579E0
4.183170679E0,-1.704159975E0,-1.884136081E0,-2.399935007E0
4.187925470E0,-1.834274173E0,-1.645898819E0,-2.490953922E0
4.192680210E0,-1.964999318E0,-1.404607177E0,-2.519664526E0
4.197435002E0,-2.075565815E0,-1.217682600E0,-2.485455990E0
4.202189741E0,-2.152534723E0,-1.101618290E0,-2.391993761E0
4.206944533E0,-2.181856394E0,-1.068631530E0,-2.251494884E0
4.211699272E0,-2.153145552E0,-1.123609424E0,-2.079841852E0
4.216454064E0,-2.071289778E0,-1.274492979E0,-1.885586858E0
4.221208804E0,-1.935677767E0,-1.509065032E0,-1.676671147E0
4.225963595E0,-1.760359526E0,-1.792506337E0,-1.469587922E0
4.230718335E0,-1.570380688E0,-2.065562963E0,-1.285717607E0
4.235473127E0,-1.395062447E0,-2.249433279E0,-1.136666656E0
4.240227866E0,-1.253341794E0,-2.270813465E0,-1.021824002E0
4.244982658E0,-1.175761938E0,-2.089997530E0,-9.375247359E-1
4.249737397E0,-1.183703184E0,-1.706985235E0,-8.819360137E-1
4.254492137E0,-1.268613458E0,-1.195691466E0,-8.599448800E-1
4.259246929E0,-1.408501506E0,-6.617956161E-1,-8.678861260E-1
4.264001668E0,-1.578321815E0,-1.957058012E-1,-8.904881477E-1
4.268756460E0,-1.756083488E0,1.451567411E-1,-9.106466770E-1
4.273511252E0,-1.926514745E0,3.510181606E-1,-9.216422439E-1
4.278265991E0,-2.075565815E0,4.383718371E-1,-9.191987514E-1
4.283020731E0,-2.198349714E0,4.432587624E-1,-9.069814682E-1
4.287775522E0,-2.280205488E0,3.919461071E-1,-8.837686181E-1
4.292530262E0,-2.320522547E0,3.088684976E-1,-8.544471264E-1
4.297285054E0,-2.327242136E0,2.001345754E-1,-8.220712543E-1
4.302039845E0,-2.310748816E0,7.429642975E-2,-7.896954417E-1
4.306794585E0,-2.280205488E0,-6.681333482E-2,-7.573196292E-1
4.311549325E0,-2.241720915E0,-2.231947184E-1,-7.249437571E-1
4.316304116E0,-2.200182199E0,-3.807978332E-1,-6.895136237E-1
4.321058908E0,-2.163530350E0,-5.286270976E-1,-6.571378112E-1
4.325813647E0,-2.132376194E0,-6.495783329E-1,-6.290380359E-1
4.330568387E0,-2.110996008E0,-7.509818673E-1,-6.107120514E-1
4.335323179E0,-2.101222038E0,-8.145118356E-1,-5.966621637E-1
4.340077970E0,-2.094502687E0,-8.377246857E-1,-5.789470673E-1
4.344832710E0,-2.086561441E0,-8.322269320E-1,-5.575668216E-1
4.349587502E0,-2.073733091E0,-8.157335520E-1,-5.331322551E-1
4.354342241E0,-2.055407286E0,-8.047379851E-1,-5.038107038E-1
4.359097033E0,-2.028529167E0,-8.047379851E-1,-4.708240330E-1
4.363851772E0,-1.995542526E0,-7.986293435E-1,-4.372264743E-1
4.368606564E0,-1.957058072E0,-7.839685678E-1,-4.030180275E-1
4.373361304E0,-1.915519238E0,-7.625883222E-1,-3.681987524E-1
4.378116095E0,-1.873980403E0,-7.338776588E-1,-3.400989771E-1
4.382870835E0,-1.836717725E0,-6.923388839E-1,-3.181078434E-1
4.387625627E0,-1.798844099E0,-6.355284452E-1,-2.991710305E-1
4.392380366E0,-1.752418280E0,-5.768854022E-1,-2.851211429E-1
4.397135158E0,-1.696829677E0,-5.219075680E-1,-2.722929716E-1
4.401889897E0,-1.627801895E0,-4.858665764E-1,-2.631300092E-1
4.406644689E0,-1.550832987E0,-4.650971591E-1,-2.600756884E-1
4.411399481E0,-1.474474907E0,-4.443277717E-1,-2.600756884E-1
4.416154220E0,-1.403003693E0,-4.137845337E-1,-2.649625838E-1
4.420909012E0,-1.334586859E0,-3.765217662E-1,-2.741255760E-1
4.425663752E0,-1.274111271E0,-3.398698866E-1,-2.900080681E-1
4.430418543E0,-1.217911601E0,-3.093266487E-1,-3.089448512E-1
4.435173283E0,-1.162322998E0,-2.879463732E-1,-3.254382014E-1
4.439928075E0,-1.101236463E0,-2.855029404E-1,-3.333794475E-1
4.444682866E0,-1.034041405E0,-3.001636863E-1,-3.346011937E-1
4.449437606E0,-9.589049816E-1,-3.215439618E-1,-3.217730224E-1
4.454192397E0,-8.770490885E-1,-3.435350657E-1,-2.985601723E-1
4.458947137E0,-7.915280461E-1,-3.600284159E-1,-2.692386508E-1
4.463701929E0,-7.066178322E-1,-3.636936247E-1,-2.338084877E-1
4.468456668E0,-6.217076182E-1,-3.520871997E-1,-1.996000707E-1
4.473211460E0,-5.422952175E-1,-3.258199990E-1,-1.653916389E-1
4.477966252E0,-4.659371078E-1,-2.946659029E-1,-1.336266696E-1
4.482720991E0,-3.877464235E-1,-2.622900605E-1,-1.055268943E-1
4.487475783E0,-3.071122766E-1,-2.317468226E-1,-8.231402934E-2
4.492230522E0,-2.203694731E-1,-2.018144578E-1,-6.704241037E-2
4.496985314E0,-1.324049383E-1,-1.712712198E-1,-6.154462695E-2
4.501740054E0,-4.138609022E-2,-1.395062506E-1,-6.276635826E-2
4.506494845E0,4.841103405E-2,-1.028543562E-1,-6.826414168E-2
4.511249637E0,1.388190240E-1,-5.581776798E-2,-7.192932814E-2
4.516004377E0,2.286161482E-1,5.879573524E-3,-7.437278330E-2
4.520759168E0,3.178023994E-1,8.773545176E-2,-6.643154472E-2
4.525513908E0,4.082103968E-1,1.885281354E-1,-4.749473557E-2
4.530268700E0,5.016726851E-1,2.966512144E-1,-2.244928107E-2
4.535023491E0,5.994110703E-1,4.047742784E-1,5.039634649E-3
4.539778231E0,7.014254928E-1,5.128973126E-1,3.680460155E-2
4.544533022E0,8.046616316E-1,6.026944518E-1,7.589995116E-2
4.549287762E0,9.042325616E-1,6.723330617E-1,1.211039424E-1
4.554042554E0,9.915862679E-1,7.144827247E-1,1.693622619E-1
4.558797345E0,1.066722631E0,7.297543287E-1,2.176205814E-1
4.563552085E0,1.126587391E0,7.309760451E-1,2.664897740E-1
4.568306877E0,1.165071845E0,7.193696499E-1,3.086394370E-1
4.573061668E0,1.177899957E0,6.998219490E-1,3.404043913E-1
4.577816408E0,1.160184979E0,6.784417033E-1,3.587303460E-1
4.582571200E0,1.116813540E0,6.625592113E-1,3.593412042E-1
4.587325939E0,1.048396707E0,6.643918157E-1,3.428478539E-1
4.592080731E0,9.708168507E-1,6.863829494E-1,3.110828996E-1
4.596835522E0,9.024000168E-1,7.309760451E-1,2.689332068E-1
4.601590262E0,8.639155030E-1,7.957277298E-1,2.286161482E-1
4.606345054E0,8.596394658E-1,8.671988845E-1,2.017380893E-1
4.611099793E0,8.706350327E-1,9.319505692E-1,1.889099330E-1
4.615854585E0,8.736893535E-1,9.655481577E-1,1.919642538E-1
4.620609377E0,8.596394658E-1,9.576069117E-1,2.060141414E-1
4.625364116E0,8.260418773E-1,9.130137563E-1,2.286161482E-1
4.630118908E0,7.808378935E-1,8.390991092E-1,2.573267817E-1
4.634873700E0,7.386882305E-1,7.602975965E-1,2.921460867E-1
4.639628439E0,7.148644924E-1,7.034871578E-1,3.330740333E-1
4.644383231E0,7.136427760E-1,6.735547781E-1,3.746128380E-1
4.649137970E0,7.289143801E-1,6.705004573E-1,4.118755758E-1
4.653892762E0,7.600684762E-1,6.833286285E-1,4.387536347E-1
4.658647554E0,8.058833480E-1,6.937133074E-1,4.503600597E-1
4.663402293E0,8.590285778E-1,6.943241954E-1,4.503600597E-1
4.668157085E0,8.852958083E-1,6.973785162E-1,4.308123887E-1
4.672911877E0,8.443678617E-1,7.095957994E-1,3.856084049E-1
4.677666616E0,7.154753804E-1,7.163153291E-1,3.135263622E-1
4.682421408E0,5.236638188E-1,7.175370455E-1,2.194531709E-1
4.687176200E0,3.281871080E-1,7.230347991E-1,1.217148080E-1
4.691930939E0,1.907425225E-1,7.120392323E-1,5.024362728E-2
4.696685731E0,1.375972927E-1,6.601157784E-1,1.664606482E-2
4.701440522E0,1.547015011E-1,5.672643185E-1,2.092211880E-2
4.706195262E0,2.047924101E-1,4.261545539E-1,5.574141070E-2
4.710950054E0,2.438877672E-1,2.526689470E-1,1.156061590E-1
4.715704845E0,2.481638193E-1,7.307469845E-2,1.889099330E-1
4.720459585E0,2.133445293E-1,-8.330668509E-2,2.732092738E-1
4.725214377E0,1.492037177E-1,-2.079230994E-1,3.575085998E-1
4.729969168E0,6.856957078E-2,-3.148244321E-1,4.332558513E-1
4.734723908E0,-1.328630932E-2,-4.101193547E-1,4.967857897E-1
4.739478700E0,-8.842267841E-2,-4.901426136E-1,5.474875569E-1
4.744233491E0,-1.495091617E-1,-5.481747985E-1,5.896372199E-1
4.748988231E0,-1.934914142E-1,-5.787180066E-1,6.226239204E-1
4.753743022E0,-2.203694731E-1,-5.781071782E-1,6.501128674E-1
4.758497814E0,-2.344193608E-1,-5.432878733E-1,6.745474339E-1
4.763252606E0,-2.380845547E-1,-4.797579348E-1,6.983711720E-1
4.768007345E0,-2.325867712E-1,-3.917934000E-1,7.221949100E-1
4.772762137E0,-2.209803313E-1,-2.922224402E-1,7.423534393E-1
4.777516929E0,-2.050978541E-1,-1.859319657E-1,7.557924390E-1
4.782271668E0,-1.849393100E-1,-8.819360286E-2,7.667880058E-1
4.787026460E0,-1.574503928E-1,-8.781181648E-3,7.710640430E-1
4.791781252E0,-1.189659163E-1,4.497491941E-2,7.704532146E-1
4.796535991E0,-7.131846249E-2,7.612902671E-2,7.612902522E-1
4.801290783E0,-1.756236330E-2,9.750928730E-2,7.435751557E-1
4.806045575E0,3.008509055E-2,1.262199283E-1,7.185297012E-1
4.810800366E0,6.612611562E-2,1.628718227E-1,6.855430007E-1
4.815555106E0,8.872810751E-2,2.050214857E-1,6.476693749E-1
4.820309897E0,1.003345400E-1,2.532798052E-1,6.012436748E-1
4.825064689E0,1.064431891E-1,3.119228184E-1,5.499309897E-1
4.829819429E0,1.119409725E-1,3.736201823E-1,4.955640435E-1
4.834574220E0,1.235474050E-1,4.298197329E-1,4.454731345E-1
4.839329012E0,1.553123742E-1,4.701367915E-1,3.972148299E-1
4.844083804E0,2.096793354E-1,4.792997837E-1,3.562868834E-1
4.848838543E0,2.829830945E-1,4.505891204E-1,3.233001828E-1
4.853593335E0,3.617846668E-1,3.870591819E-1,2.945895493E-1
4.858348127E0,4.338667095E-1,3.039815724E-1,2.701549530E-1
4.863102866E0,4.912880063E-1,2.190713882E-1,2.499964088E-1
4.867857658E0,5.242747068E-1,1.402698308E-1,2.335030586E-1
4.872612450E0,5.285507441E-1,6.513345987E-2,2.292270064E-1
4.877367241E0,5.083922148E-1,-4.505127668E-3,2.396117151E-1
4.882121981E0,4.692968726E-1,-6.375901401E-2,2.640463114E-1
4.886876772E0,4.234820008E-1,-1.144607887E-1,3.006981909E-1
4.891631564E0,3.752236962E-1,-1.639408320E-1,3.422369957E-1
4.896386356E0,3.287979662E-1,-2.183077931E-1,3.849975169E-1
4.901141095E0,2.854265571E-1,-2.690095901E-1,4.210385382E-1
4.905895887E0,2.457203567E-1,-3.001636863E-1,4.454731345E-1
4.910650679E0,2.115119249E-1,-2.891681194E-1,4.546361268E-1
4.915405418E0,1.864664704E-1,-2.329685539E-1,4.466948807E-1
4.920160210E0,1.718057245E-1,-1.285106838E-1,4.253146052E-1
4.924915002E0,1.705839932E-1,2.542724647E-2,3.935496211E-1
4.929669793E0,1.852447391E-1,2.404516488E-1,3.471239209E-1
4.934424533E0,2.133445293E-1,5.110647678E-1,2.933678031E-1
4.939179325E0,2.481638193E-1,8.293253183E-1,2.377791107E-1
4.943934116E0,2.842048407E-1,1.168355227E0,1.815795600E-1
4.948688908E0,3.214675784E-1,1.492113590E0,1.339320987E-1
4.953443700E0,3.642281294E-1,1.760894060E0,1.033888608E-1
4.958198439E0,4.185950756E-1,1.952705622E0,8.628465235E-2
4.962953231E0,4.961749315E-1,2.019289970E0,7.956513762E-2
4.967708022E0,5.859720111E-1,1.947818756E0,9.422589093E-2
4.972462814E0,6.580541134E-1,1.722409606E0,1.314886510E-1
4.977217554E0,6.971494555E-1,1.372994900E0,1.968511790E-1
4.981972345E0,7.032580972E-1,9.808197618E-1,2.903134823E-1
4.986727137E0,6.959276795E-1,6.277399063E-1,4.039343297E-1
4.991481929E0,6.989820004E-1,3.717875779E-1,5.138899684E-1
4.996236668E0,7.264709473E-1,2.331212759E-1,6.012436748E-1
5.000991460E0,7.900008559E-1,1.970802546E-1,6.531671882E-1
5.005746252E0,8.840740323E-1,2.398407906E-1,6.751583219E-1
5.010501043E0,9.970840216E-1,3.314704895E-1,6.751583219E-1
5.015255835E0,1.119867802E0,4.420370162E-1,6.635518670E-1
5.020010575E0,1.241429925E0,5.128973126E-1,6.568323374E-1
5.024765366E0,1.342833519E0,5.226711631E-1,6.611084342E-1
5.029520158E0,1.413082957E0,4.902953506E-1,6.879864335E-1
5.034274950E0,1.450956583E0,4.237110913E-1,7.405208349E-1
5.039029741E0,1.454621792E0,3.259727061E-1,7.985529900E-1
5.043784481E0,1.447902203E0,2.147953212E-1,8.571959734E-1
5.048539272E0,1.447902203E0,1.359937787E-1,9.054543376E-1
5.053294064E0,1.468060732E0,1.274416596E-1,9.341649413E-1
5.058048856E0,1.510210395E0,1.928042024E-1,9.408844709E-1
5.062803647E0,1.574962139E0,3.094793558E-1,9.286671877E-1
5.067558387E0,1.660483241E0,4.579195082E-1,8.956804872E-1
5.072313179E0,1.761275887E0,6.191878319E-1,8.541416526E-1
5.077067970E0,1.874896765E0,7.712931633E-1,8.138245940E-1
5.081822762E0,1.979354620E0,8.952987194E-1,7.735075355E-1
5.086577554E0,2.056934357E0,9.679915905E-1,7.283035517E-1
5.091332293E0,2.104581833E0,1.002200007E0,6.794343591E-1
5.096087085E0,2.120464325E0,1.002810836E0,6.195695996E-1
5.100841877E0,2.114966631E0,9.826523662E-1,5.456549525E-1
5.105596668E0,2.102749348E0,9.557743073E-1,4.631882310E-1
5.110351460E0,2.096029758E0,9.301179647E-1,3.740019500E-1
5.115106200E0,2.100305796E0,9.062942863E-1,2.829830945E-1
5.119860991E0,2.115577459E0,8.916335106E-1,1.919642538E-1
5.124615783E0,2.140012026E0,8.910226226E-1,1.070540547E-1
5.129370575E0,2.167500973E0,9.062942863E-1,2.703076601E-2
5.134125366E0,2.190713882E0,9.307288527E-1,-4.627300799E-2
5.138880158E0,2.203541994E0,9.527199864E-1,-1.122464016E-1
5.143634950E0,2.208428860E0,9.716567993E-1,-1.684459597E-1
5.148389689E0,2.204152822E0,9.850957990E-1,-2.142608166E-1
5.153144481E0,2.196211576E0,9.967022538E-1,-2.448040545E-1
5.157899272E0,2.187659502E0,1.003421783E0,-2.582430840E-1
5.162654064E0,2.183994293E0,1.002810836E0,-2.521344423E-1
5.167408856E0,2.185215950E0,9.973130822E-1,-2.325867712E-1
5.172163595E0,2.188270330E0,9.948696494E-1,-1.971566081E-1
5.176918387E0,2.190713882E0,9.930370450E-1,-1.464548260E-1
5.181673179E0,2.177885771E0,9.838740826E-1,-8.170316368E-2
5.186427970E0,2.151618481E0,9.747111201E-1,-2.290742937E-3
5.191182762E0,2.107025385E0,9.637155533E-1,8.750637621E-2
5.195937554E0,2.047771454E0,9.514982700E-1,1.876882017E-1
5.200692345E0,1.982408881E0,9.472221732E-1,2.952004075E-1
5.205447085E0,1.915213823E0,9.521090984E-1,3.978256881E-1
5.210201877E0,1.851683855E0,9.722676277E-1,5.022835732E-1
5.214956668E0,1.801592946E0,9.881501198E-1,6.085740328E-1
5.219711460E0,1.761886716E0,9.973130822E-1,7.105884552E-1
5.224466252E0,1.730732679E0,1.001589179E0,7.997747064E-1
5.229221043E0,1.697135091E0,1.000978351E0,8.755219579E-1
5.233975835E0,1.656818032E0,9.924262166E-1,9.378301501E-1
5.238730575E0,1.609781384E0,9.820414782E-1,9.732602835E-1
5.243485366E0,1.553581834E0,9.679915905E-1,9.860884547E-1
5.248240158E0,1.492495418E0,9.545525908E-1,9.805907011E-1
5.252994950E0,1.428354621E0,9.484439492E-1,9.616538882E-1
5.257749741E0,1.360548615E0,9.484439492E-1,9.341649413E-1
5.262504533E0,1.288466573E0,9.521090984E-1,8.987348080E-1
5.267259325E0,1.212719321E0,9.582177401E-1,8.535308242E-1
5.272014116E0,1.127809048E0,9.600503445E-1,8.083268404E-1
5.276768856E0,1.039844513E0,9.484439492E-1,7.643445730E-1
5.281523647E0,9.555452466E-1,9.252310395E-1,7.069232464E-1
5.286278439E0,8.767436743E-1,8.818596601E-1,6.446150541E-1
5.291033231E0,8.144354820E-1,8.415426016E-1,5.743656158E-1
5.295788022E0,7.643445730E-1,7.926734090E-1,5.163334608E-1
5.300542814E0,7.160862088E-1,7.187587619E-1,4.784598351E-1
5.305297606E0,6.702713966E-1,6.369028687E-1,4.644099474E-1
5.310052397E0,6.232348084E-1,5.605447888E-1,4.741837978E-1
5.314807137E0,5.786416531E-1,5.043452382E-1,5.047270060E-1
5.319561929E0,5.426006317E-1,4.860192835E-1,5.505418777E-1
5.324316720E0,5.157225728E-1,5.043452382E-1,6.036871076E-1
5.329071512E0,4.949531853E-1,5.526035428E-1,6.623301506E-1
5.333826304E0,4.747946560E-1,6.161335111E-1,7.166970968E-1
5.338581095E0,4.564687014E-1,6.808851361E-1,7.680097222E-1
5.343335887E0,4.405862093E-1,7.419716120E-1,8.101593852E-1
5.348090679E0,4.326449931E-1,8.024472594E-1,8.449786901E-1
5.352845470E0,4.277580678E-1,8.653663397E-1,8.724676371E-1
5.357600262E0,4.338667095E-1,9.203441739E-1,8.859066367E-1
5.362355054E0,4.485274553E-1,9.643264413E-1,8.865175247E-1
5.367109845E0,4.692968726E-1,1.010752082E0,8.797979951E-1
5.371864585E0,4.937314689E-1,1.061453938E0,8.596394658E-1
5.376619377E0,5.169443488E-1,1.109101415E0,8.211549520E-1
5.381374168E0,5.358811021E-1,1.154916167E0,7.728966475E-1
5.386128960E0,5.444332361E-1,1.210504889E0,7.203623056E-1
5.390883752E0,5.450441241E-1,1.266093612E0,6.666061878E-1
5.395638543E0,5.419898033E-1,1.312519312E0,5.994110703E-1
5.400393335E0,5.383245945E-1,1.348560333E0,5.199986696E-1
5.405148127E0,5.322159529E-1,1.390099168E0,4.369210303E-1
5.409902918E0,5.236638188E-1,1.442633510E0,3.391826749E-1
5.414657710E0,5.114465356E-1,1.507996082E0,2.322813272E-1
5.419412502E0,4.980075061E-1,1.576412916E0,1.192713454E-1
5.424167293E0,4.864010811E-1,1.642997146E0,7.635809598E-4
5.428922033E0,4.802924395E-1,1.698585868E0,-1.195767820E-1
5.433676825E0,4.839576185E-1,1.726074815E0,-2.380845547E-1
5.438431616E0,4.918988645E-1,1.718133569E0,-3.517054021E-1
5.443186408E0,5.028944016E-1,1.668042660E0,-4.561632872E-1
5.447941200E0,5.102248192E-1,1.564806461E0,-5.490147471E-1
5.452695991E0,5.181660652E-1,1.411479473E0,-6.265945435E-1
5.457450783E0,5.236638188E-1,1.210504889E0,-6.901245117E-1
5.462205575E0,5.218312144E-1,9.753220081E-1,-7.316632867E-1
5.466960366E0,5.114465356E-1,7.138718367E-1,-7.469348907E-1
5.471715158E0,4.986183643E-1,4.505891204E-1,-7.334958911E-1
5.476469950E0,4.821250141E-1,2.037997693E-1,-6.901245117E-1
5.481224741E0,4.674642682E-1,-2.038761228E-2,-6.131555438E-1
5.485979533E0,4.564687014E-1,-2.103665620E-1,-5.086976290E-1
5.490734325E0,4.509709179E-1,-3.343721032E-1,-3.975202441E-1
5.495489116E0,4.644099474E-1,-3.948477209E-1,-2.979492843E-1
5.500243908E0,4.980075061E-1,-4.143953919E-1,-2.136499584E-1
5.504998700E0,5.444332361E-1,-4.107302129E-1,-1.482874304E-1
5.509753491E0,5.926915407E-1,-3.997346461E-1,-1.006399691E-1
5.514508283E0,6.409498453E-1,-3.826304376E-1,-6.520981342E-2
5.519263075E0,6.830995679E-1,-3.563632369E-1,-3.833176568E-2
5.524017866E0,7.160862088E-1,-3.203222156E-1,-1.634063199E-2
5.528772606E0,7.411317229E-1,-2.738964856E-1,-4.581485991E-4
5.533527397E0,7.564033270E-1,-2.195295244E-1,9.926552884E-3
5.538282241E0,7.619010806E-1,-1.602756530E-1,1.420260593E-2
5.543036981E0,7.545707226E-1,-9.491311759E-2,1.175914705E-2
5.547791772E0,7.338013053E-1,-2.283107117E-2,7.483093534E-3
5.552546564E0,7.032580972E-1,4.925097153E-2,4.428769462E-3
5.557301356E0,6.598866582E-1,1.176678315E-1,3.207040019E-3
5.562056147E0,6.042979956E-1,1.763108522E-1,8.704823442E-3
5.566810939E0,5.371028781E-1,2.239582986E-1,2.336557768E-2
5.571565731E0,4.607447684E-1,2.630536556E-1,4.718930274E-2
5.576320522E0,3.801106215E-1,3.009272516E-1,6.918043643E-2
5.581075314E0,2.994764447E-1,3.430769444E-1,8.567378670E-2
5.585830106E0,2.249509543E-1,3.882809281E-1,9.239330143E-2
5.590584897E0,1.589775532E-1,4.334849119E-1,9.056070447E-2
5.595339689E0,1.009454057E-1,4.738020003E-1,8.139773458E-2
5.600094481E0,5.207622424E-2,5.049561262E-1,6.856957078E-2
5.604849272E0,1.725693047E-2,5.159516931E-1,5.146535859E-2
5.609604064E0,-4.581485991E-4,5.135082006E-1,3.130681813E-2
5.614358856E0,-6.566796452E-3,4.970148504E-1,1.237001177E-2
5.619113647E0,-4.734201822E-3,4.676933587E-1,-5.345067009E-3
5.623868439E0,3.817904973E-3,4.298197329E-1,-1.695149764E-2
5.628623231E0,1.359174121E-2,3.852266073E-1,-2.367101051E-2
5.633378022E0,2.397644334E-2,3.436878026E-1,-2.489273995E-2
5.638132814E0,2.580903657E-2,3.113119602E-1,-2.428187430E-2
5.642887606E0,2.092211880E-2,2.923751473E-1,-2.061668597E-2
5.647642397E0,5.650499370E-3,2.856556475E-1,-1.695149764E-2
5.652397189E0,-1.511890348E-2,2.905425727E-1,-1.328630932E-2
5.657151981E0,-3.711003438E-2,3.045924604E-1,-1.084284950E-2
5.661906772E0,-5.910116807E-2,3.235292733E-1,-9.010255337E-3
5.666661564E0,-7.681624591E-2,3.400225937E-1,-7.177661173E-3
5.671416356E0,-9.147699922E-2,3.485747278E-1,-6.566796452E-3
5.676171147E0,-1.030834317E-1,3.522399068E-1,-2.901607659E-3
5.680925939E0,-1.104138121E-1,3.559050858E-1,3.817904973E-3
5.685680731E0,-1.140789986E-1,3.656789362E-1,1.298087649E-2
5.690435522E0,-1.153007299E-1,3.833940029E-1,2.336557768E-2
5.695190314E0,-1.128572673E-1,4.108829200E-1,3.558287397E-2
5.699945106E0,-1.043051630E-1,4.469239414E-1,4.780016840E-2
5.704699897E0,-8.964440972E-2,4.854084253E-1,6.246092543E-2
5.709454689E0,-6.948586553E-2,5.226711631E-1,7.834340632E-2
5.714209481E0,-4.810560122E-2,5.599339008E-1,9.605848789E-2
5.718964272E0,-3.100138716E-2,5.959749222E-1,1.137735620E-1
5.723719064E0,-1.939495653E-2,6.283507943E-1,1.290451884E-1
5.728473856E0,-1.634063199E-2,6.515636444E-1,1.412624866E-1
5.733228647E0,-2.244928107E-2,6.582831740E-1,1.485928595E-1
5.737983491E0,-3.833176568E-2,6.454550028E-1,1.455385387E-1
5.742738283E0,-6.032289565E-2,6.161335111E-1,1.314886510E-1
5.747493075E0,-8.475748450E-2,5.794816017E-1,1.021671370E-1
5.752247866E0,-1.049160287E-1,5.416079760E-1,6.429351866E-2
5.757002658E0,-1.244636998E-1,5.086212754E-1,1.970038936E-2
5.761757450E0,-1.403461844E-1,4.823541045E-1,-2.672533318E-2
5.766512241E0,-1.543960720E-1,4.652498960E-1,-7.131846249E-2
5.771267033E0,-1.678351015E-1,4.560869038E-1,-1.116355360E-1
5.776021825E0,-1.824958473E-1,4.524217248E-1,-1.434005052E-1
5.780776616E0,-1.989891976E-1,4.524217248E-1,-1.666133702E-1
5.785531408E0,-2.154825479E-1,4.524217248E-1,-1.806632578E-1
5.790286200E0,-2.338084877E-1,4.493674040E-1,-1.886045039E-1
5.795040991E0,-2.515235841E-1,4.450913370E-1,-1.910479665E-1
5.799795783E0,-2.674060464E-1,4.414261580E-1,-1.928805560E-1
5.804550575E0,-2.796233594E-1,4.359283745E-1,-1.965457499E-1
5.809305366E0,-2.918406427E-1,4.298197329E-1,-1.996000707E-1
5.814060158E0,-3.040579557E-1,4.188241661E-1,-2.044869810E-1
5.818814950E0,-3.156643808E-1,3.956113160E-1,-2.099847645E-1
5.823569741E0,-3.297142684E-1,3.601811528E-1,-2.148716897E-1
5.828324585E0,-3.474293351E-1,3.149771392E-1,-2.203694731E-1
5.833079377E0,-3.681987524E-1,2.673296928E-1,-2.240346521E-1
5.837834168E0,-3.901898861E-1,2.276234925E-1,-2.264781147E-1
5.842588960E0,-4.115701318E-1,2.062432170E-1,-2.234237939E-1
5.847343752E0,-4.292852283E-1,2.123518735E-1,-2.167042792E-1
5.852098543E0,-4.415025115E-1,2.471711636E-1,-2.050978541E-1
5.856853335E0,-4.439459741E-1,2.997055352E-1,-1.855501831E-1
5.861608127E0,-4.366155863E-1,3.559050858E-1,-1.592829973E-1
5.866362918E0,-4.189005196E-1,4.029416740E-1,-1.287397593E-1
5.871117710E0,-3.914116025E-1,4.328740537E-1,-9.575305134E-2
5.875872502E0,-3.565923274E-1,4.420370162E-1,-6.337722391E-2
5.880627293E0,-3.174969554E-1,4.310414493E-1,-3.344484791E-2
5.885382085E0,-2.790125012E-1,3.980547488E-1,-8.399390616E-3
5.890136929E0,-2.441931963E-1,3.534616232E-1,1.359174121E-2
5.894891720E0,-2.185368687E-1,3.100902438E-1,3.558287397E-2
5.899646512E0,-2.038761228E-1,2.642753720E-1,5.879573524E-2
5.904401304E0,-2.002109289E-1,2.233474404E-1,7.895427197E-2
5.909156095E0,-2.050978541E-1,1.958585232E-1,9.300415963E-2
5.913910887E0,-2.228129357E-1,1.781434417E-1,1.009454057E-1
5.918665679E0,-2.515235841E-1,1.628718227E-1,9.728021920E-2
5.923420470E0,-2.973384261E-1,1.524871141E-1,8.139773458E-2
5.928175262E0,-3.669770062E-1,1.537088454E-1,5.757400393E-2
5.932930054E0,-4.537198246E-1,1.836412251E-1,1.664606482E-2
5.937684845E0,-5.520690680E-1,2.471711636E-1,-3.466657549E-2
5.942439689E0,-6.534726024E-1,3.485747278E-1,-9.514218569E-2
5.947194481E0,-7.481566668E-1,4.933496714E-1,-1.629481763E-1
5.951949272E0,-8.269581795E-1,6.692787409E-1,-2.350302190E-1
5.956704064E0,-8.868229389E-1,8.403208852E-1,-3.071122766E-1
5.961458856E0,-9.222530723E-1,9.850957990E-1,-3.810268939E-1
5.966213647E0,-9.344704151E-1,1.091997147E0,-4.537198246E-1
5.970968439E0,-9.253074527E-1,1.161635756E0,-5.227475166E-1
5.975723231E0,-9.094249606E-1,1.211115837E0,-5.844448805E-1
5.980478022E0,-8.935424685E-1,1.260595798E0,-6.320923567E-1
5.985232866E0,-8.782708645E-1,1.321071386E0,-6.638572812E-1
5.989987658E0,-8.654426932E-1,1.393764377E0,-6.760746241E-1
5.994742450E0,-8.617774844E-1,1.470733285E0,-6.699659228E-1
5.999497241E0,-8.746056557E-1,1.537928462E0,-6.491965652E-1
6.004252033E0,-8.996511102E-1,1.592906237E0,-6.180424690E-1
6.009006825E0,-9.314160943E-1,1.629558206E0,-5.826122761E-1
6.013761616E0,-9.631810188E-1,1.659490585E0,-5.471821427E-1
6.018516408E0,-9.937242866E-1,1.708359718E0,-5.184714794E-1
6.023271252E0,-1.021824002E0,1.786550403E0,-5.013672709E-1
6.028026043E0,-1.048091292E0,1.893451691E0,-4.989238083E-1
6.032780835E0,-1.068249822E0,2.009516001E0,-5.007563829E-1
6.037535627E0,-1.081077933E0,2.098091364E0,-4.995346665E-1
6.042290418E0,-1.088408351E0,2.144517183E0,-4.867065251E-1
6.047045210E0,-1.092073560E0,2.154901981E0,-4.622719288E-1
6.051800002E0,-1.090240955E0,2.134132385E0,-4.317286909E-1
6.056554793E0,-1.078023672E0,2.077322006E0,-4.091266990E-1
6.061309637E0,-1.048091292E0,1.974085927E0,-3.975202441E-1
6.066064429E0,-1.007774115E0,1.835419536E0,-3.969093859E-1
6.070819220E0,-9.631810188E-1,1.661934018E0,-4.085158110E-1
6.075574012E0,-9.082031846E-1,1.437135696E0,-4.384481907E-1
6.080328804E0,-8.501710296E-1,1.185459495E0,-4.836521745E-1
6.085083595E0,-8.019127250E-1,9.557743073E-1,-5.447386503E-1
6.089838387E0,-7.628173828E-1,7.706822753E-1,-6.174315810E-1
6.094593231E0,-7.328850031E-1,6.387354732E-1,-6.950113773E-1
6.099348022E0,-7.133373618E-1,5.593230724E-1,-7.768672705E-1
6.104102814E0,-7.035635114E-1,5.312232971E-1,-8.642209172E-1
6.108857606E0,-6.992874742E-1,5.422188640E-1,-9.564615488E-1
6.113612397E0,-6.968439817E-1,5.947532058E-1,-1.051756382E0
6.118367189E0,-6.919570565E-1,6.973785162E-1,-1.150716543E0
6.123122033E0,-6.785180569E-1,8.452077508E-1,-1.239291906E0
6.127876825E0,-6.467530727E-1,1.009530425E0,-1.326645613E0
6.132631616E0,-5.905535221E-1,1.169577003E0,-1.394451618E0
6.137386408E0,-5.172497630E-1,1.302134633E0,-1.424994826E0
6.142141200E0,-4.311178327E-1,1.374827504E0,-1.417053580E0
6.146895991E0,-3.382663727E-1,1.371773243E0,-1.369406104E0
6.151650835E0,-2.472475171E-1,1.294193387E0,-1.288161159E0
6.156405627E0,-1.733328849E-1,1.153083682E0,-1.170875072E0
6.161160418E0,-1.232419685E-1,9.777654409E-1,-1.024878383E0
6.165915210E0,-1.030834317E-1,7.975603342E-1,-8.648318052E-1
6.170670002E0,-1.073594838E-1,6.204095483E-1,-7.035635114E-1
6.175424845E0,-1.366809905E-1,4.701367915E-1,-5.496255755E-1
6.180179637E0,-1.861610413E-1,3.589594066E-1,-4.176788032E-1
6.184934429E0,-2.503018379E-1,2.856556475E-1,-3.126100600E-1
6.189689220E0,-3.223838806E-1,2.526689470E-1,-2.429714650E-1
6.194444012E0,-4.048506320E-1,2.551124096E-1,-2.081521749E-1
6.199198804E0,-4.952586293E-1,2.868773639E-1,-2.136499584E-1
6.203953647E0,-5.917752385E-1,3.351356983E-1,-2.600756884E-1
6.208708439E0,-6.870701313E-1,3.827831447E-1,-3.400989771E-1
6.213463231E0,-7.640390992E-1,3.809505403E-1,-4.317286909E-1
6.218218022E0,-8.220712543E-1,3.595702946E-1,-5.050324798E-1
6.222972814E0,-8.599448800E-1,3.284161687E-1,-5.526798964E-1
6.227727606E0,-8.642209172E-1,2.746600807E-1,-5.703949928E-1
6.232482450E0,-8.391754627E-1,2.435059696E-1,-5.551233888E-1
6.237237241E0,-7.890845537E-1,2.801578641E-1,-5.068650246E-1
6.241992033E0,-7.218894362E-1,3.656789362E-1,-4.402807951E-1
6.246746825E0,-6.430879235E-1,4.609738290E-1,-3.669770062E-1
6.251501616E0,-5.569559336E-1,5.361102223E-1,-2.912297845E-1
6.256256460E0,-4.683805704E-1,5.782598853E-1,-2.179260105E-1
6.261011252E0,-3.810268939E-1,5.855902433E-1,-1.501200199E-1
6.265766043E0,-2.985601723E-1,5.648208261E-1,-8.964440972E-2
6.270520835E0,-2.215912044E-1,5.312232971E-1,-3.466657549E-2
6.275275627E0,-1.501200199E-1,5.019017458E-1,1.542433538E-2
6.280030470E0,-7.925970852E-2,4.524217248E-1,5.268708616E-2
6.284785262E0,-2.290742937E-3,3.711767197E-1,7.773254067E-2
6.289540054E0,7.223475724E-2,2.813795805E-1,9.972367436E-2
6.294294897E0,1.382081509E-1,2.086866796E-1,1.174387559E-1
6.299049689E0,1.913533956E-1,1.573740393E-1,1.229365394E-1
6.303804481E0,2.359465212E-1,1.262199283E-1,1.064431891E-1
6.308559272E0,2.707658112E-1,1.170569658E-1,6.673697382E-2
6.313314064E0,2.933678031E-1,1.274416596E-1,8.704823442E-3
6.318068908E0,2.994764447E-1,1.445458829E-1,-6.093376130E-2
6.322823700E0,2.927569449E-1,1.592066288E-1,-1.391244531E-1
6.327578491E0,2.725984156E-1,1.549305767E-1,-2.118173689E-1
6.332333283E0,2.414443046E-1,1.127809063E-1,-2.674060464E-1
6.337088075E0,2.066250145E-1,5.658135191E-2,-3.071122766E-1
6.341842918E0,1.736383140E-1,1.382081583E-2,-3.352120519E-1
6.346597710E0,1.406516135E-1,-1.733328775E-2,-3.523162603E-1
6.351352502E0,1.125518382E-1,-4.421133921E-2,-3.608683646E-1
6.356107293E0,8.567378670E-2,-8.147408813E-2,-3.596466482E-1
6.360862137E0,7.040216774E-2,-1.278998107E-1,-3.535379767E-1
6.365616929E0,6.734783947E-2,-1.865428388E-1,-3.486510813E-1
6.370371720E0,7.284562290E-2,-2.543488145E-1,-3.394880891E-1
6.375126512E0,8.323032409E-2,-3.313177824E-1,-3.291034102E-1
6.379881356E0,9.605848789E-2,-4.088976085E-1,-3.150535226E-1
6.384636147E0,1.113301069E-1,-4.785361886E-1,-3.028362095E-1
6.389390939E0,1.296560466E-1,-5.316814184E-1,-2.881754637E-1
6.394145731E0,1.485928595E-1,-5.585594773E-1,-2.753472924E-1
6.398900575E0,1.669187993E-1,-5.603920817E-1,-2.667951882E-1
6.403655366E0,1.797469556E-1,-5.451204777E-1,-2.619082630E-1
6.408410158E0,1.864664704E-1,-5.194641352E-1,-2.576322258E-1
6.413164950E0,1.907425225E-1,-4.913643599E-1,-2.557996213E-1
6.417919793E0,1.956294477E-1,-4.644863009E-1,-2.533561587E-1
6.422674585E0,2.017380893E-1,-4.388299882E-1,-2.490801066E-1
6.427429377E0,2.078467458E-1,-4.211149216E-1,-2.380845547E-1
6.432184168E0,2.145662606E-1,-4.119519293E-1,-2.240346521E-1
6.436939012E0,2.225074917E-1,-4.137845337E-1,-2.032652497E-1
6.441693804E0,2.316704690E-1,-4.180605710E-1,-1.782197952E-1
6.446448595E0,2.402225733E-1,-4.162279963E-1,-1.482874304E-1
6.451203387E0,2.420551628E-1,-3.917934000E-1,-1.177441850E-1
6.455958231E0,2.328922004E-1,-3.319286406E-1,-8.781181276E-2
6.460713022E0,2.121227980E-1,-2.299142331E-1,-6.276635826E-2
6.465467814E0,1.791360974E-1,-1.114064679E-1,-4.688387364E-2
6.470222658E0,1.406516135E-1,8.933897130E-3,-3.711003438E-2
6.474977450E0,1.039997265E-1,1.182786897E-1,-3.222311661E-2
6.479732241E0,7.589995116E-2,2.056323588E-1,-2.977965772E-2
6.484487033E0,6.001746282E-2,2.642753720E-1,-2.977965772E-2
6.489241877E0,5.207622424E-2,2.911534309E-1,-2.794706449E-2
6.493996668E0,5.329795182E-2,2.935968935E-1,-2.428187430E-2
6.498751460E0,6.062832847E-2,2.819904685E-1,-1.450803876E-2
6.503506304E0,7.101303339E-2,2.703840137E-1,-1.069013379E-3
6.508261095E0,8.261945844E-2,2.728274763E-1,1.603520103E-2
6.513015887E0,9.056070447E-2,2.868773639E-1,3.252854943E-2
6.517770679E0,9.361502528E-2,3.064250350E-1,4.718930274E-2
6.522525522E0,9.544762224E-2,3.223075271E-1,5.818486959E-2
6.527280314E0,9.605848789E-2,3.278053105E-1,6.612611562E-2
6.532035106E0,9.728021920E-2,3.155880272E-1,7.223475724E-2
6.536789950E0,1.003345400E-1,2.868773639E-1,7.834340632E-2
6.541544741E0,1.070540547E-1,2.422842383E-1,8.689551800E-2
6.546299533E0,1.180496216E-1,1.891390085E-1,9.850194305E-2
6.551054377E0,1.284343153E-1,1.329394430E-1,1.082757786E-1
6.555809168E0,1.351538301E-1,7.002037764E-2,1.174387559E-1
6.560563960E0,1.320995092E-1,1.259908639E-2,1.204930767E-1
6.565318752E0,1.217148080E-1,-2.588539571E-2,1.162170246E-1
6.570073595E0,9.972367436E-2,-3.627009690E-2,9.728021920E-2
6.574828387E0,6.673697382E-2,-1.366809942E-2,6.429351866E-2
6.579583179E0,2.703076601E-2,4.069886729E-2,1.847865991E-2
6.584338022E0,-1.756236330E-2,1.036179364E-1,-3.283398226E-2
6.589092814E0,-6.093376130E-2,1.622609496E-1,-8.231402934E-2
6.593847606E0,-9.758564830E-2,2.196822464E-1,-1.269071549E-1
6.598602450E0,-1.293506175E-1,2.575558722E-1,-1.550069451E-1
6.603357241E0,-1.434005052E-1,2.795470059E-1,-1.678351015E-1
6.608112033E0,-1.342375278E-1,2.948186100E-1,-1.678351015E-1
6.612866877E0,-9.514218569E-2,3.210858107E-1,-1.574503928E-1
6.617621668E0,-2.977965772E-2,3.705658615E-1,-1.421787739E-1
6.622376460E0,5.268708616E-2,4.151589870E-1,-1.122464016E-1
6.627131304E0,1.339320987E-1,4.438696206E-1,-7.498364896E-2
6.631886095E0,2.023489624E-1,4.719693959E-1,-4.016435891E-2
6.636640887E0,2.475529462E-1,4.951822758E-1,-1.023198478E-2
6.641395679E0,2.585485280E-1,5.147299170E-1,6.872228812E-3
6.646150522E0,2.273944169E-1,5.238928795E-1,8.093958721E-3
6.650905314E0,1.510363221E-1,5.238928795E-1,-5.955931731E-3
6.655660106E0,3.741546720E-2,5.202277303E-1,-3.405570984E-2
6.660414950E0,-9.636391699E-2,5.238928795E-1,-7.070759684E-2
6.665169741E0,-2.222020626E-1,5.422188640E-1,-1.049160287E-1
6.669924533E0,-3.242164850E-1,5.727620721E-1,-1.256854236E-1
6.674679377E0,-3.981311321E-1,6.081922650E-1,-1.281288862E-1
6.679434168E0,-4.445568323E-1,6.375137568E-1,-1.140789986E-1
6.684188960E0,-4.671588540E-1,6.588940024E-1,-8.964440972E-2
6.688943804E0,-4.696022868E-1,6.863829494E-1,-6.520981342E-2
6.693698595E0,-4.518872201E-1,7.499128580E-1,-5.665770918E-2
6.698453439E0,-4.176788032E-1,7.987820506E-1,-4.444041103E-2
6.703208231E0,-3.865246773E-1,8.042798638E-1,-2.000582218E-2
6.707963022E0,-3.608683646E-1,7.682388425E-1,2.153298259E-2
6.712717866E0,-3.388772309E-1,7.010436654E-1,7.773254067E-2
6.717472658E0,-3.193295598E-1,6.161335111E-1,1.430950761E-1
6.722227450E0,-2.942841053E-1,5.452731848E-1,1.999054998E-1
6.726982293E0,-2.588539422E-1,4.951822758E-1,2.310595959E-1
6.731737085E0,-2.160934210E-1,4.524217248E-1,2.322813272E-1
6.736491877E0,-1.721111536E-1,4.004982114E-1,2.078467458E-1
6.741246720E0,-1.330158114E-1,3.314704895E-1,1.663079411E-1
6.746001512E0,-1.024725661E-1,2.477820218E-1,1.192713454E-1
6.750756304E0,-8.048143238E-2,1.610392332E-1,7.528908551E-2
6.755511147E0,-6.459894776E-2,8.895718306E-2,3.924806044E-2
6.760265939E0,-5.482511222E-2,5.535962060E-2,1.725693047E-2
6.765020731E0,-4.810560122E-2,7.735075057E-2,8.093958721E-3
6.769775575E0,-3.894263133E-2,1.561523080E-1,9.315688163E-3
6.774530366E0,-2.489273995E-2,2.777144015E-1,1.420260593E-2
6.779285210E0,-1.069013379E-3,4.163807034E-1,1.908952370E-2
6.784040002E0,3.558287397E-2,5.452731848E-1,2.458730713E-2
6.788794793E0,7.956513762E-2,6.503419280E-1,3.375028074E-2
6.793549637E0,1.302669197E-1,7.205913663E-1,4.718930274E-2
6.798304429E0,1.852447391E-1,7.517454624E-1,6.673697382E-2
6.803059220E0,2.341139317E-1,7.493020296E-1,9.117157012E-2
6.807814064E0,2.689332068E-1,7.199804783E-1,1.192713454E-1
6.812568856E0,2.835939825E-1,6.637809277E-1,1.479819864E-1
6.817323700E0,2.744309902E-1,5.862011313E-1,1.711948514E-1
6.822078491E0,2.438877672E-1,5.037343502E-1,1.901316643E-1
6.826833283E0,2.017380893E-1,4.444804788E-1,2.054032832E-1
6.831588127E0,1.559232324E-1,4.243219495E-1,2.231183648E-1
6.836342918E0,1.137735620E-1,4.493674040E-1,2.493855506E-1
6.841097762E0,8.017600328E-2,5.086212754E-1,2.823722363E-1
6.845852554E0,5.207622424E-2,5.843685269E-1,3.178023994E-1
6.850607345E0,3.130681813E-2,6.588940024E-1,3.526217043E-1
6.855362189E0,1.542433538E-2,7.187587619E-1,3.801106215E-1
6.860116981E0,1.985310577E-3,7.584649920E-1,3.978256881E-1
6.864871772E0,-7.177661173E-3,7.755692005E-1,4.069886506E-1
6.869626616E0,-1.511890348E-2,7.719039917E-1,4.075995386E-1
6.874381408E0,-2.611446939E-2,7.584649920E-1,3.984365463E-1
6.879136252E0,-4.016435891E-2,7.505237460E-1,3.825540543E-1
6.883891043E0,-5.726857483E-2,7.572432756E-1,3.630063832E-1
6.888645835E0,-7.070759684E-2,7.804561257E-1,3.465130329E-1
6.893400679E0,-7.742711157E-2,8.061124086E-1,3.391826749E-1
6.898155470E0,-7.620538026E-2,8.403208852E-1,3.416261375E-1
6.902910314E0,-6.765327603E-2,8.745293021E-1,3.483456373E-1
6.907665106E0,-5.360338464E-2,9.014073610E-1,3.477347791E-1
6.912419897E0,-4.444041103E-2,9.130137563E-1,3.349066079E-1
6.917174741E0,-4.382954910E-2,9.081268311E-1,3.110828996E-1
6.921929533E0,-5.604684353E-2,8.922443390E-1,2.787070572E-1
6.926684377E0,-8.109229803E-2,8.745293021E-1,2.438877672E-1
6.931439168E0,-1.183550507E-1,8.647554517E-1,2.115119249E-1
6.936194012E0,-1.641699076E-1,8.739184141E-1,1.858556122E-1
6.940948804E0,-2.099847645E-1,9.081268311E-1,1.675296724E-1
6.945703595E0,-2.521344423E-1,9.551634192E-1,1.589775532E-1
6.950458439E0,-2.838993967E-1,9.985348582E-1,1.577558219E-1
6.955213231E0,-2.997818887E-1,1.031521559E0,1.589775532E-1
6.959968022E0,-2.973384261E-1,1.061453938E0,1.632536054E-1
6.964722866E0,-2.808450758E-1,1.087721109E0,1.675296724E-1
6.969477658E0,-2.539670467E-1,1.102381825E0,1.675296724E-1
6.974232502E0,-2.258672565E-1,1.102992773E0,1.626427472E-1
6.978987293E0,-1.977674663E-1,1.090775371E0,1.492037177E-1
6.983742137E0,-1.708894223E-1,1.074282050E0,1.223256737E-1
6.988496929E0,-1.452330947E-1,1.041295409E0,8.689551800E-2
6.993251720E0,-1.262962967E-1,9.826523662E-1,4.780016840E-2
6.998006564E0,-1.159115955E-1,9.099594355E-1,5.650499370E-3
7.002761356E0,-1.116355360E-1,8.378773928E-1,-3.894263133E-2
7.007516200E0,-1.122464016E-1,7.737365961E-1,-8.170316368E-2
7.012270991E0,-1.165224537E-1,7.218130827E-1,-1.177441850E-1
7.017025835E0,-1.214093715E-1,6.894372702E-1,-1.464548260E-1
7.021780627E0,-1.262962967E-1,6.863829494E-1,-1.745546162E-1
7.026535418E0,-1.287397593E-1,6.845503449E-1,-1.904370934E-1
7.031290262E0,-1.269071549E-1,6.888263822E-1,-1.953240186E-1
7.036045054E0,-1.207985133E-1,6.937133074E-1,-1.843284518E-1
7.040799897E0,-1.128572673E-1,6.937133074E-1,-1.550069451E-1
7.045554689E0,-1.030834317E-1,7.102066875E-1,-1.201876476E-1
7.050309533E0,-8.903354406E-2,7.358629704E-1,-8.842267841E-2
7.055064325E0,-7.192932814E-2,7.566323876E-1,-7.254019380E-2
7.059819168E0,-5.787943676E-2,7.633519173E-1,-7.498364896E-2
7.064573960E0,-4.688387364E-2,7.566323876E-1,-8.903354406E-2
7.069328752E0,-4.138609022E-2,7.438042164E-1,-1.116355360E-1
7.074083595E0,-4.138609022E-2,7.260891199E-1,-1.354592592E-1
7.078838387E0,-4.749473557E-2,7.047088742E-1,-1.556178033E-1
7.083593231E0,-5.787943676E-2,6.882155538E-1,-1.678351015E-1
7.088348022E0,-7.192932814E-2,6.796634197E-1,-1.721111536E-1
7.093102866E0,-8.536835015E-2,6.784417033E-1,-1.690568328E-1
7.097857658E0,-9.819651395E-2,6.876046658E-1,-1.598938555E-1
7.102612502E0,-1.061377525E-1,7.010436654E-1,-1.464548260E-1
7.107367293E0,-1.128572673E-1,7.108175159E-1,-1.317940801E-1
7.112122085E0,-1.195767820E-1,7.095957994E-1,-1.183550507E-1
7.116876929E0,-1.262962967E-1,6.839394569E-1,-1.073594838E-1
7.121631720E0,-1.336266696E-1,6.301833987E-1,-9.269873053E-2
7.126386564E0,-1.379027218E-1,5.538252592E-1,-7.254019380E-2
7.131141356E0,-1.391244531E-1,4.799106419E-1,-4.627300799E-2
7.135896200E0,-1.385135949E-1,4.322631955E-1,-1.817322709E-2
7.140650991E0,-1.360701323E-1,4.237110913E-1,9.315688163E-3
7.145405835E0,-1.311832070E-1,4.438696206E-1,3.008509055E-2
7.150160627E0,-1.232419685E-1,4.768563211E-1,4.413498193E-2
7.154915470E0,-1.134681329E-1,5.067886710E-1,5.329795182E-2
7.159670262E0,-1.012508348E-1,5.287798047E-1,5.757400393E-2
7.164425054E0,-8.720094711E-2,5.379427671E-1,5.940660089E-2
7.169179897E0,-7.131846249E-2,5.379427671E-1,5.757400393E-2
7.173934689E0,-5.787943676E-2,5.409971476E-1,5.513054505E-2
7.178689533E0,-4.688387364E-2,5.593230724E-1,4.963276163E-2
7.183444325E0,-4.444041103E-2,6.026944518E-1,4.108065739E-2
7.188199168E0,-5.177079141E-2,6.650026441E-1,3.069595434E-2
7.192953960E0,-6.398808211E-2,7.303652167E-1,2.031125315E-2
7.197708804E0,-8.475748450E-2,7.932842970E-1,1.603520103E-2
7.202463595E0,-1.128572673E-1,8.464295268E-1,1.420260593E-2
7.207218439E0,-1.446222365E-1,8.733075857E-1,1.114828233E-2
7.211973231E0,-1.653916389E-1,8.592576981E-1,5.650499370E-3
7.216728075E0,-1.763872057E-1,8.128319383E-1,-2.901607659E-3
7.221482866E0,-1.794415265E-1,7.590758204E-1,-1.084284950E-2
7.226237710E0,-1.763872057E-1,7.150935531E-1,-1.817322709E-2
7.230992502E0,-1.763872057E-1,6.833286285E-1,-2.550360374E-2
7.235747345E0,-1.837175786E-1,6.607266068E-1,-3.955349326E-2
7.240502137E0,-1.983783394E-1,6.369028687E-1,-5.971203372E-2
7.245256981E0,-2.246455252E-1,6.118574142E-1,-8.292489499E-2
7.250011772E0,-2.655734718E-1,5.947532058E-1,-1.061377525E-1
7.254766616E0,-3.205513060E-1,5.837576389E-1,-1.342375278E-1
7.259521408E0,-3.828594983E-1,5.666534305E-1,-1.666133702E-1
7.264276200E0,-4.470002949E-1,5.385536551E-1,-2.002109289E-1
7.269031043E0,-5.044215918E-1,5.275580883E-1,-2.374736816E-1
7.273785887E0,-5.484038591E-1,5.513818264E-1,-2.729038298E-1
7.278540679E0,-5.752819180E-1,6.039161682E-1,-3.040579557E-1
7.283295470E0,-5.801688433E-1,6.607266068E-1,-3.229947388E-1
7.288050314E0,-5.630646348E-1,7.114284039E-1,-3.278816640E-1
7.292805106E0,-5.300779343E-1,7.529671788E-1,-3.217730224E-1
7.297559950E0,-4.934260249E-1,7.804561257E-1,-3.119991720E-1
7.302314741E0,-4.653262496E-1,7.865647674E-1,-3.022253513E-1
7.307069585E0,-4.561632872E-1,7.572432756E-1,-2.900080681E-1
7.311824377E0,-4.708240330E-1,7.040980458E-1,-2.765690386E-1
7.316579220E0,-5.117519498E-1,6.552288532E-1,-2.686277926E-1
7.321334012E0,-5.777253509E-1,6.344594359E-1,-2.722929716E-1
7.326088856E0,-6.583595276E-1,6.503419280E-1,-2.881754637E-1
7.330843647E0,-7.383828163E-1,7.077631950E-1,-3.193295598E-1
7.335598491E0,-8.055779338E-1,8.091667295E-1,-3.620901108E-1
7.340353283E0,-8.507819176E-1,9.460004568E-1,-4.121810198E-1
7.345108127E0,-8.727730513E-1,1.097494960E0,-4.579958618E-1
7.349862918E0,-8.697187304E-1,1.239826441E0,-4.958694875E-1
7.354617762E0,-8.489493132E-1,1.357723355E0,-5.196931958E-1
7.359372554E0,-8.202387094E-1,1.440800905E0,-5.276344419E-1
7.364127397E0,-7.933606505E-1,1.486004949E0,-5.203040838E-1
7.368882189E0,-7.744238377E-1,1.498222232E0,-4.989238083E-1
7.373637033E0,-7.664825916E-1,1.480507135E0,-4.659371078E-1
7.378391825E0,-7.677043080E-1,1.444466114E0,-4.225656986E-1
7.383146668E0,-7.774781585E-1,1.407814264E0,-3.791943192E-1
7.387901460E0,-7.933606505E-1,1.410868526E0,-3.510945439E-1
7.392656304E0,-8.086322546E-1,1.375438452E0,-3.077231348E-1
7.397411147E0,-8.196278214E-1,1.305799842E0,-2.545779049E-1
7.402165939E0,-8.251255751E-1,1.244102478E0,-2.081521749E-1
7.406920783E0,-8.226821423E-1,1.203785419E0,-1.751654744E-1
7.411675575E0,-8.141300082E-1,1.195233345E0,-1.653916389E-1
7.416430418E0,-7.958040833E-1,1.195233345E0,-1.751654744E-1
7.421185210E0,-7.701478004E-1,1.164690018E0,-1.928805560E-1
7.425940054E0,-7.420479655E-1,1.098105788E0,-2.087630332E-1
7.430694845E0,-7.188351154E-1,9.985348582E-1,-2.197586000E-1
7.435449689E0,-6.986765862E-1,8.775836229E-1,-2.191477418E-1
7.440204481E0,-6.834049821E-1,7.438042164E-1,-2.081521749E-1
7.444959325E0,-6.705768108E-1,6.118574142E-1,-1.818849891E-1
7.449714116E0,-6.540834904E-1,5.110647678E-1,-1.482874304E-1
7.454468960E0,-6.265945435E-1,4.463130832E-1,-1.189659163E-1
7.459223752E0,-5.856665969E-1,4.151589870E-1,-1.036942974E-1
7.463978595E0,-5.288561583E-1,4.066068828E-1,-1.036942974E-1
7.468733387E0,-4.628827870E-1,4.078285992E-1,-1.183550507E-1
7.473488231E0,-3.981311321E-1,4.139372408E-1,-1.385135949E-1
7.478243075E0,-3.407098353E-1,4.206567705E-1,-1.543960720E-1
7.482997866E0,-2.991710305E-1,4.267654121E-1,-1.586721241E-1
7.487752710E0,-2.777907550E-1,4.322631955E-1,-1.543960720E-1
7.492507502E0,-2.777907550E-1,4.414261580E-1,-1.519526094E-1
7.497262345E0,-2.918406427E-1,4.536434710E-1,-1.592829973E-1
7.502017137E0,-3.119991720E-1,4.731911421E-1,-1.757763475E-1
7.506771981E0,-3.284925222E-1,5.080104470E-1,-2.008218020E-1
7.511526772E0,-3.437641561E-1,5.519927144E-1,-2.264781147E-1
7.516281616E0,-3.529271185E-1,5.910880566E-1,-2.515235841E-1
7.521036408E0,-3.614792228E-1,6.185769439E-1,-2.729038298E-1
7.525791252E0,-3.681987524E-1,6.301833987E-1,-2.900080681E-1
7.530546043E0,-3.779725730E-1,6.271290779E-1,-2.997818887E-1
7.535300887E0,-3.908007443E-1,6.143009067E-1,-3.003927469E-1
7.540055731E0,-4.109592736E-1,6.002510190E-1,-2.967275679E-1
7.544810522E0,-4.323395491E-1,5.843685269E-1,-2.881754637E-1
7.549565366E0,-4.555523992E-1,5.666534305E-1,-2.790125012E-1
7.554320158E0,-4.787652791E-1,5.452731848E-1,-2.735147178E-1
7.559075002E0,-4.970912039E-1,5.116755962E-1,-2.698495090E-1
7.563829793E0,-5.123628378E-1,4.670824707E-1,-2.686277926E-1
7.568584637E0,-5.251910090E-1,4.212676287E-1,-2.704603672E-1
7.573339429E0,-5.361865759E-1,3.791179657E-1,-2.729038298E-1
7.578094272E0,-5.465712547E-1,3.406334817E-1,-2.735147178E-1
7.582849064E0,-5.539016128E-1,3.155880272E-1,-2.704603672E-1
7.587603908E0,-5.624537468E-1,3.064250350E-1,-2.655734718E-1
7.592358752E0,-5.758927464E-1,3.082576394E-1,-2.625191510E-1
7.597113543E0,-5.954404473E-1,3.168097436E-1,-2.582430840E-1
7.601868387E0,-6.217076182E-1,3.271944523E-1,-2.539670467E-1
7.606623179E0,-6.510291100E-1,3.363574147E-1,-2.509126961E-1
7.611378022E0,-6.791289449E-1,3.485747278E-1,-2.478583902E-1
7.616132814E0,-7.035635114E-1,3.669006526E-1,-2.466366589E-1
7.620887658E0,-7.243329287E-1,4.023308158E-1,-2.460257858E-1
7.625642450E0,-7.451022863E-1,4.658607543E-1,-2.441931963E-1
7.630397293E0,-7.701478004E-1,5.538252592E-1,-2.399171442E-1
7.635152137E0,-8.013018966E-1,6.570614576E-1,-2.399171442E-1
7.639906929E0,-8.410080671E-1,7.743474841E-1,-2.368628234E-1
7.644661772E0,-8.825469017E-1,9.026290774E-1,-2.270889878E-1
7.649416564E0,-9.222530723E-1,1.034575820E0,-2.093739063E-1
7.654171408E0,-9.534072280E-1,1.150640130E0,-1.922696829E-1
7.658926200E0,-9.650136232E-1,1.239826441E0,-1.800523996E-1
7.663681043E0,-9.613484740E-1,1.303967237E0,-1.721111536E-1
7.668435887E0,-9.460768104E-1,1.349171281E0,-1.672242284E-1
7.673190679E0,-9.210313559E-1,1.374827504E0,-1.586721241E-1
7.677945522E0,-8.929315805E-1,1.381547093E0,-1.434005052E-1
7.682700314E0,-8.599448800E-1,1.369329810E0,-1.171333194E-1
7.687455158E0,-8.318451047E-1,1.346727729E0,-8.170316368E-2
7.692209950E0,-8.110756874E-1,1.317406297E0,-3.772090003E-2
7.696964793E0,-7.994692922E-1,1.286862969E0,4.428769462E-3
7.701719585E0,-7.927497625E-1,1.263039231E0,3.680460155E-2
7.706474429E0,-7.945823669E-1,1.229441762E0,6.918043643E-2
7.711229272E0,-8.049670458E-1,1.180572510E0,9.728021920E-2
7.715984064E0,-8.202387094E-1,1.107268810E0,1.223256737E-1
7.720738908E0,-8.410080671E-1,1.016249895E0,1.388190240E-1
7.725493700E0,-8.605557680E-1,9.166789651E-1,1.504254490E-1
7.730248543E0,-8.752164841E-1,8.219949007E-1,1.553123742E-1
7.735003335E0,-8.831577301E-1,7.431933880E-1,1.559232324E-1
7.739758179E0,-8.856012225E-1,6.857720613E-1,1.485928595E-1
7.744513022E0,-8.874338269E-1,6.595048904E-1,1.400407553E-1
7.749267814E0,-8.923207521E-1,6.741656661E-1,1.308777779E-1
7.754022658E0,-8.978185058E-1,7.254782915E-1,1.204930767E-1
7.758777450E0,-9.014837146E-1,7.951168418E-1,1.046105921E-1
7.763532293E0,-8.978185058E-1,8.525381684E-1,8.323032409E-2
7.768287137E0,-8.794925809E-1,8.739184141E-1,5.818486959E-2
7.773041929E0,-8.501710296E-1,8.470403552E-1,3.069595434E-2
7.777796772E0,-8.110756874E-1,7.847321630E-1,8.093958721E-3
7.782551564E0,-7.756455541E-1,7.230347991E-1,-9.010255337E-3
7.787306408E0,-7.493783832E-1,6.845503449E-1,-1.450803876E-2
7.792061200E0,-7.353284955E-1,6.643918157E-1,-1.695149764E-2
7.796816043E0,-7.286089659E-1,6.515636444E-1,-2.122755162E-2
7.801570887E0,-7.310523987E-1,6.466767192E-1,-2.855792828E-2
7.806325679E0,-7.365502119E-1,6.448441148E-1,-3.649916872E-2
7.811080522E0,-7.383828163E-1,6.375137568E-1,-4.077522457E-2
7.815835314E0,-7.286089659E-1,6.234638691E-1,-4.321868345E-2
7.820590158E0,-7.066178322E-1,6.100248694E-1,-4.321868345E-2
7.825345002E0,-6.730202436E-1,6.051379442E-1,-3.772090003E-2
7.830099793E0,-6.345357895E-1,6.191878319E-1,-2.428187430E-2
7.834854637E0,-5.972730517E-1,6.582831740E-1,-4.734201822E-3
7.839609429E0,-5.648971796E-1,7.150935531E-1,1.420260593E-2
7.844364272E0,-5.404626131E-1,7.804561257E-1,2.886336111E-2
7.849119116E0,-5.245801210E-1,8.397099972E-1,3.680460155E-2
7.853873908E0,-5.190823674E-1,8.836922646E-1,3.985892609E-2
7.858628752E0,-5.227475166E-1,9.062942863E-1,4.413498193E-2
7.863383543E0,-5.367974043E-1,9.081268311E-1,5.268708616E-2
7.868138387E0,-5.630646348E-1,8.995747566E-1,6.979130208E-2
7.872893231E0,-6.003273726E-1,8.904117942E-1,9.117157012E-2
7.877648022E0,-6.430879235E-1,8.763619065E-1,1.174387559E-1
7.882402866E0,-6.889027357E-1,8.537598848E-1,1.492037177E-1
7.887157658E0,-7.298306823E-1,8.268818259E-1,1.815795600E-1
7.891912502E0,-7.609847784E-1,7.969494462E-1,2.084576041E-1
7.896667345E0,-7.793107629E-1,7.657953501E-1,2.328922004E-1
7.901422137E0,-7.854194045E-1,7.352521420E-1,2.530507445E-1
7.906176981E0,-7.811433077E-1,7.022654414E-1,2.695440948E-1
7.910931772E0,-7.738129497E-1,6.692787409E-1,2.799287736E-1
7.915686616E0,-7.707586288E-1,6.399571896E-1,2.848156989E-1
7.920441408E0,-7.725912333E-1,6.112465858E-1,2.854265571E-1
7.925196252E0,-7.823650837E-1,5.837576389E-1,2.848156989E-1
7.929951095E0,-7.964149714E-1,5.574904680E-1,2.842048407E-1
7.934705887E0,-8.147408962E-1,5.391645432E-1,2.848156989E-1
7.939460731E0,-8.330668211E-1,5.324450135E-1,2.878700197E-1
7.944215522E0,-8.477275968E-1,5.440514684E-1,2.909243405E-1
7.948970366E0,-8.550579548E-1,5.684860349E-1,2.939786613E-1
7.953725210E0,-8.507819176E-1,5.996401310E-1,2.970330119E-1
7.958480002E0,-8.355103135E-1,6.234638691E-1,2.970330119E-1
7.963234845E0,-8.190169334E-1,6.362920403E-1,2.958112657E-1
7.967989637E0,-8.006910086E-1,6.375137568E-1,2.927569449E-1
7.972744481E0,-7.878628373E-1,6.271290779E-1,2.897026241E-1
7.977499325E0,-7.823650837E-1,6.106356978E-1,2.872591615E-1
7.982254116E0,-7.872520089E-1,5.984184146E-1,2.860374451E-1
7.987008960E0,-8.000801206E-1,5.959749222E-1,2.848156989E-1
7.991763804E0,-8.184061050E-1,6.069704890E-1,2.835939825E-1
7.996518595E0,-8.391754627E-1,6.320159435E-1,2.805396616E-1
8.001273439E0,-8.562797308E-1,6.637809277E-1,2.732092738E-1
8.006028231E0,-8.678861260E-1,6.998219490E-1,2.603811026E-1
8.010783075E0,-8.733839393E-1,7.315869331E-1,2.463312149E-1
8.015537918E0,-8.715513349E-1,7.547997832E-1,2.328922004E-1
8.020292710E0,-8.642209172E-1,7.700713873E-1,2.188423127E-1
8.025047554E0,-8.544471264E-1,7.828995585E-1,2.084576041E-1
8.029802397E0,-8.428406715E-1,7.932842970E-1,1.974620372E-1
8.034557189E0,-8.324559927E-1,7.963386178E-1,1.876882017E-1
8.039312033E0,-8.196278214E-1,7.902299762E-1,1.760817766E-1
8.044066825E0,-8.080213666E-1,7.755692005E-1,1.663079411E-1
8.048821668E0,-7.964149714E-1,7.572432756E-1,1.583666950E-1
8.053576512E0,-7.872520089E-1,7.383064628E-1,1.510363221E-1
8.058331304E0,-7.780889869E-1,7.138718367E-1,1.504254490E-1
8.063086147E0,-7.664825916E-1,6.796634197E-1,1.504254490E-1
8.067840939E0,-7.548761368E-1,6.356811523E-1,1.528689116E-1
8.072595783E0,-7.432697415E-1,5.849793553E-1,1.547015011E-1
8.077350627E0,-7.359393239E-1,5.281689763E-1,1.559232324E-1
8.082105418E0,-7.341067195E-1,4.676933587E-1,1.534797698E-1
8.086860262E0,-7.371610999E-1,4.078285992E-1,1.473711282E-1
8.091615106E0,-7.444914579E-1,3.522399068E-1,1.345429718E-1
8.096369897E0,-7.560978532E-1,3.015381396E-1,1.162170246E-1
8.101124741E0,-7.713695168E-1,2.606101930E-1,9.300415963E-2
8.105879585E0,-7.878628373E-1,2.343430072E-1,6.734783947E-2
8.110634377E0,-8.006910086E-1,2.154061943E-1,4.474584386E-2
8.115389220E0,-8.067996502E-1,1.928042024E-1,2.825249545E-2
8.120144012E0,-8.067996502E-1,1.647044122E-1,1.908952370E-2
8.124898856E0,-8.061888218E-1,1.359937787E-1,1.908952370E-2
8.129653700E0,-8.098539710E-1,1.152243689E-1,2.031125315E-2
8.134408491E0,-8.184061050E-1,1.066722646E-1,1.970038936E-2
8.139163335E0,-8.287907839E-1,1.103374511E-1,1.359174121E-2
8.143918179E0,-8.471167088E-1,1.225547493E-1,7.635809598E-4
8.148672970E0,-8.672752976E-1,1.341611743E-1,-1.817322709E-2
8.153427814E0,-8.904881477E-1,1.359937787E-1,-3.955349326E-2
8.158182606E0,-9.118683934E-1,1.249982044E-1,-6.276635826E-2
8.162937450E0,-9.344704151E-1,1.042288020E-1,-8.475748450E-2
8.167692293E0,-9.570723772E-1,7.185296714E-2,-1.079703495E-1
8.172447085E0,-9.784526825E-1,2.848157100E-2,-1.311832070E-1
8.177201929E0,-1.000443816E0,-1.916588284E-2,-1.543960720E-1
8.181956772E0,-1.026100159E0,-6.925679743E-2,-1.788306683E-1
8.186711564E0,-1.051756382E0,-1.175151095E-1,-2.020435184E-1
8.191466408E0,-1.081688762E0,-1.614973694E-1,-2.234237939E-1
8.196221252E0,-1.114675522E0,-2.030361742E-1,-2.399171442E-1
8.200976043E0,-1.152549148E0,-2.445749789E-1,-2.509126961E-1
8.205730887E0,-1.195920467E0,-2.812268734E-1,-2.576322258E-1
8.210485731E0,-1.249676585E0,-3.056614697E-1,-2.570213675E-1
8.215240522E0,-1.310763121E0,-3.197113574E-1,-2.503018379E-1
8.219995366E0,-1.375514746E0,-3.380373120E-1,-2.441931963E-1
8.224750210E0,-1.439044714E0,-3.649153411E-1,-2.417497337E-1
8.229505002E0,-1.502574682E0,-3.991237879E-1,-2.393062711E-1
8.234259845E0,-1.566104531E0,-4.339430630E-1,-2.423606068E-1
8.239014637E0,-1.629634500E0,-4.583776593E-1,-2.460257858E-1
8.243769481E0,-1.694386125E0,-4.730384052E-1,-2.490801066E-1
8.248524325E0,-1.753640056E0,-4.828122556E-1,-2.539670467E-1
8.253279116E0,-1.801898360E0,-4.742601514E-1,-2.582430840E-1
8.258033960E0,-1.839161158E0,-4.516581595E-1,-2.625191510E-1
8.262788752E0,-1.866650105E0,-4.284452796E-1,-2.698495090E-1
8.267543595E0,-1.885586858E0,-3.954585791E-1,-2.802342176E-1
8.272298439E0,-1.902080178E0,-3.557523787E-1,-2.930623889E-1
8.277053231E0,-1.919795275E0,-3.111592531E-1,-3.113883138E-1
8.281808075E0,-1.939342976E0,-2.567922771E-1,-3.364337683E-1
8.286562918E0,-1.960112333E0,-1.871536970E-1,-3.669770062E-1
8.291317710E0,-1.968664527E0,-9.918916970E-2,-4.017963111E-1
8.296072554E0,-1.950949430E0,1.076649129E-2,-4.402807951E-1
8.300827397E0,-1.901469350E0,1.549305767E-1,-4.757109582E-1
8.305582189E0,-1.820835233E0,3.216966689E-1,-5.056433082E-1
8.310337033E0,-1.716988206E0,4.762454629E-1,-5.288561583E-1
8.315091877E0,-1.607643366E0,5.819250345E-1,-5.471821427E-1
8.319846668E0,-1.511737585E0,6.252964735E-1,-5.593994260E-1
8.324601512E0,-1.443931580E0,6.112465858E-1,-5.606211424E-1
8.329356356E0,-1.407279730E0,5.373319387E-1,-5.593994260E-1
8.334111147E0,-1.395062447E0,4.438696206E-1,-5.484038591E-1
8.338865991E0,-1.395062447E0,3.485747278E-1,-5.312996507E-1
8.343620835E0,-1.398727655E0,2.789361179E-1,-5.056433082E-1
8.348375627E0,-1.403614521E0,2.392299175E-1,-4.787652791E-1
8.353130470E0,-1.400560260E0,2.044106275E-1,-4.555523992E-1
8.357885314E0,-1.394451618E0,1.793651730E-1,-4.433351159E-1
8.362640106E0,-1.388953805E0,1.708130687E-1,-4.433351159E-1
8.367394950E0,-1.387732029E0,1.537088454E-1,-4.586067200E-1
8.372149793E0,-1.401171088E0,1.524871141E-1,-4.915934205E-1
8.376904585E0,-1.431103468E0,1.518762559E-1,-5.404626131E-1
8.381659429E0,-1.475696564E0,1.439350098E-1,-5.978838801E-1
8.386414272E0,-1.535561323E0,1.860846877E-1,-6.473639607E-1
8.391169064E0,-1.594204307E0,1.946367919E-1,-7.273872495E-1
8.395923908E0,-1.639408350E0,1.414915472E-1,-8.379537463E-1
8.400678700E0,-1.670562506E0,5.535962060E-2,-9.631810188E-1
8.405433543E0,-1.680336237E0,-2.344193682E-2,-1.082910538E0
8.410188387E0,-1.655901670E0,-1.217911690E-1,-1.205694318E0
8.414943179E0,-1.595426083E0,-2.219729871E-1,-1.322980404E0
8.419698022E0,-1.506239772E0,-2.861137986E-1,-1.407890558E0
8.424452866E0,-1.394451618E0,-3.343721032E-1,-1.457370639E0
8.429207658E0,-1.263726473E0,-3.844630122E-1,-1.450040221E0
8.433962502E0,-1.136055827E0,-4.125627875E-1,-1.379179955E0
8.438717345E0,-1.031597853E0,-4.076758921E-1,-1.250287533E0
8.443472137E0,-9.595158696E-1,-3.954585791E-1,-1.084743142E0
8.448226981E0,-9.198096395E-1,-4.107302129E-1,-9.027054310E-1
8.452981825E0,-9.124792814E-1,-4.595993757E-1,-7.298306823E-1
8.457736616E0,-9.411898851E-1,-5.200750232E-1,-5.862774849E-1
8.462491460E0,-1.006552458E0,-5.597811937E-1,-4.781544209E-1
8.467246304E0,-1.105512500E0,-5.793288946E-1,-4.042397738E-1
8.472001095E0,-1.226463795E0,-5.903244615E-1,-3.657552898E-1
8.476755939E0,-1.348025799E0,-6.123155951E-1,-3.645335436E-1
8.481510783E0,-1.455538034E0,-6.532435417E-1,-3.944659233E-1
8.486265575E0,-1.530063510E0,-7.039452791E-1,-4.488328993E-1
8.491020418E0,-1.558163285E0,-7.467058301E-1,-5.154171586E-1
8.495775262E0,-1.541059136E0,-7.625883222E-1,-5.911644101E-1
8.500530106E0,-1.485470414E0,-7.424297929E-1,-6.675224900E-1
8.505284897E0,-1.399338484E0,-6.874519587E-1,-7.396045327E-1
8.510039741E0,-1.294269800E0,-6.104829907E-1,-8.055779338E-1
8.514794533E0,-1.180038095E0,-5.255727768E-1,-8.642209172E-1
8.519549377E0,-1.069471478E0,-4.455494881E-1,-9.143118858E-1
8.524304220E0,-9.674571157E-1,-3.728565872E-1,-9.534072280E-1
8.529059012E0,-8.886555433E-1,-3.099375069E-1,-9.839504361E-1
8.533813856E0,-8.422298431E-1,-2.647335231E-1,-1.012661099E0
8.538568700E0,-8.391754627E-1,-2.268599123E-1,-1.036484838E0
8.543323491E0,-8.904881477E-1,-1.761581302E-1,-1.052367330E0
8.548078335E0,-9.955568910E-1,-1.156825200E-1,-1.062752008E0
8.552833179E0,-1.144607902E0,-4.543306679E-2,-1.071915030E0
8.557587970E0,-1.313206553E0,1.870773360E-2,-1.090240955E0
8.562342814E0,-1.466533661E0,5.352702737E-2,-1.121394992E0
8.567097658E0,-1.574656725E0,4.558578506E-2,-1.163544655E0
8.571852502E0,-1.619860649E0,-1.061377581E-2,-1.203250885E0
8.576607293E0,-1.601534724E0,-9.124792367E-2,-1.233794093E0
8.581362137E0,-1.506850719E0,-2.280816436E-1,-1.258228779E0
8.586116981E0,-1.353523612E0,-3.911825418E-1,-1.263726473E0
8.590871772E0,-1.176372886E0,-5.304597020E-1,-1.249676585E0
8.595626616E0,-9.943351150E-1,-6.379718781E-1,-1.219744205E0
8.600381460E0,-8.257364631E-1,-7.375428677E-1,-1.172707677E0
8.605136252E0,-6.840158105E-1,-8.548288941E-1,-1.108566880E0
8.609891095E0,-5.856665969E-1,-9.953277707E-1,-1.030376196E0
8.614645939E0,-5.380191803E-1,-1.148654819E0,-9.411898851E-1
8.619400731E0,-5.386300087E-1,-1.298927546E0,-8.434515595E-1
8.624155575E0,-5.807796717E-1,-1.428430915E0,-7.512109876E-1
8.628910418E0,-6.491965652E-1,-1.504178166E0,-6.669116020E-1
8.633665210E0,-7.261655331E-1,-1.546327829E0,-6.058251262E-1
8.638420054E0,-7.909171581E-1,-1.565875530E0,-5.624537468E-1
8.643174897E0,-8.287907839E-1,-1.624518514E0,-5.416843295E-1
8.647929689E0,-8.294016719E-1,-1.721035123E0,-5.416843295E-1
8.652684533E0,-7.958040833E-1,-1.815719247E0,-5.502364635E-1
8.657439377E0,-7.414371371E-1,-1.884746909E0,-5.575668216E-1
8.662194168E0,-6.852375865E-1,-1.910403252E0,-5.618428588E-1
8.666949012E0,-6.424770355E-1,-1.896964192E0,-5.642863512E-1
8.671703856E0,-6.290380359E-1,-1.844429851E0,-5.648971796E-1
8.676458700E0,-6.522508860E-1,-1.745469809E0,-5.593994260E-1
8.681213491E0,-6.925679445E-1,-1.669111609E0,-5.746710300E-1
8.685968335E0,-7.383828163E-1,-1.630627155E0,-6.168206930E-1
8.690723179E0,-7.903063297E-1,-1.589699268E0,-6.656898856E-1
8.695477970E0,-8.428406715E-1,-1.557323456E0,-7.200568318E-1
8.700232814E0,-8.910989761E-1,-1.522504091E0,-7.701478004E-1
8.704987658E0,-9.350812435E-1,-1.490739107E0,-8.116865754E-1
8.709742450E0,-9.729548693E-1,-1.469969749E0,-8.410080671E-1
8.714497293E0,-1.004109025E0,-1.445535183E0,-8.575014472E-1
8.719252137E0,-1.034041405E0,-1.408883214E0,-8.636100888E-1
8.724006929E0,-1.065195441E0,-1.368566155E0,-8.617774844E-1
8.728761772E0,-1.096349597E0,-1.320918679E0,-8.513928056E-1
8.733516616E0,-1.128725410E0,-1.261664867E0,-8.373429179E-1
8.738271460E0,-1.153770804E0,-1.216460824E0,-8.294016719E-1
8.743026252E0,-1.168431640E0,-1.176754594E0,-8.251255751E-1
8.747781095E0,-1.178205490E0,-1.120555043E0,-8.245147467E-1
8.752535939E0,-1.182481527E0,-1.032590508E0,-8.239038587E-1
8.757290731E0,-1.170875072E0,-9.366847873E-1,-8.294016719E-1
8.762045575E0,-1.140331864E0,-8.395572901E-1,-8.403972387E-1
8.766800418E0,-1.096349597E0,-7.424297929E-1,-8.489493132E-1
8.771555210E0,-1.041371703E0,-6.440805793E-1,-8.556688428E-1
8.776310054E0,-9.894482493E-1,-5.292379856E-1,-8.581122756E-1
8.781064897E0,-9.497420192E-1,-3.966803253E-1,-8.568905592E-1
8.785819689E0,-9.265291691E-1,-2.616792023E-1,-8.495602012E-1
8.790574533E0,-9.118683934E-1,-1.395062506E-1,-8.434515595E-1
8.795329377E0,-8.947641850E-1,-1.855501719E-2,-8.342885971E-1
8.800084220E0,-8.739947677E-1,1.213330179E-1,-8.208495378E-1
8.804839012E0,-8.495602012E-1,2.764926851E-1,-8.049670458E-1
8.809593856E0,-8.208495378E-1,4.273762703E-1,-7.854194045E-1
8.814348700E0,-7.835868001E-1,5.581013560E-1,-7.640390992E-1
8.819103491E0,-7.353284955E-1,6.747764945E-1,-7.408262491E-1
8.823858335E0,-6.754637361E-1,7.645736337E-1,-7.170025110E-1
8.828613179E0,-6.088794470E-1,8.409317136E-1,-6.895136237E-1
8.833367970E0,-5.484038591E-1,9.124029279E-1,-6.479747891E-1
8.838122814E0,-4.983129501E-1,9.576069117E-1,-6.058251262E-1
8.842877658E0,-4.628827870E-1,9.991456866E-1,-5.697841048E-1
8.847632502E0,-4.372264743E-1,1.043128014E0,-5.386300087E-1
8.852387293E0,-4.030180275E-1,1.082223296E0,-5.221366882E-1
8.857142137E0,-3.492619395E-1,1.117653489E0,-5.203040838E-1
8.861896981E0,-2.722929716E-1,1.151861906E0,-5.282453299E-1
8.866651772E0,-1.782197952E-1,1.179961681E0,-5.386300087E-1
8.871406616E0,-7.864884287E-2,1.202563643E0,-5.477929711E-1
8.876161460E0,1.359174121E-2,1.208672285E0,-5.514581800E-1
8.880916252E0,9.300415963E-2,1.203785419E0,-5.355756879E-1
8.885671095E0,1.644753367E-1,1.156137943E0,-5.135845542E-1
8.890425939E0,2.273944169E-1,1.042517066E0,-4.836521745E-1
8.895180783E0,2.780961990E-1,8.733075857E-1,-4.451677203E-1
8.899935575E0,3.196350038E-1,6.759982109E-1,-3.975202441E-1
8.904690418E0,3.642281294E-1,4.841867089E-1,-3.474293351E-1
8.909445262E0,4.192059636E-1,3.094793558E-1,-2.955058515E-1
8.914200054E0,4.723511934E-1,1.634826809E-1,-2.386954129E-1
8.918954897E0,5.145008564E-1,4.436405376E-2,-1.733328849E-1
8.923709741E0,5.444332361E-1,-6.681333482E-2,-9.880737960E-2
8.928464533E0,5.597048402E-1,-1.700494885E-1,-1.267544460E-2
8.933219377E0,5.627591610E-1,-2.647335231E-1,8.689551800E-2
8.937974220E0,5.560396910E-1,-3.472002745E-1,1.937968582E-1
8.942729064E0,5.474875569E-1,-4.107302129E-1,2.994764447E-1
8.947483856E0,5.364919901E-1,-4.858665764E-1,3.966039717E-1
8.952238700E0,5.364919901E-1,-5.646681190E-1,4.778489769E-1
8.956993543E0,5.511527658E-1,-6.391936541E-1,5.438223481E-1
8.961748335E0,5.749764442E-1,-6.917279959E-1,5.963567495E-1
8.966503179E0,6.000219584E-1,-7.015018463E-1,6.372846961E-1
8.971258022E0,6.201804876E-1,-6.654608250E-1,6.776017547E-1
8.976012866E0,6.323977709E-1,-6.000983119E-1,7.166970968E-1
8.980767658E0,6.452259421E-1,-5.280162692E-1,7.521272302E-1
8.985522502E0,6.623301506E-1,-4.516581595E-1,7.863357067E-1
8.990277345E0,6.745474339E-1,-3.936260045E-1,8.144354820E-1
8.995032137E0,6.849321127E-1,-3.160461783E-1,8.400917649E-1
8.999786981E0,6.855430007E-1,-1.828776449E-1,8.669698238E-1
9.004541825E0,6.653844714E-1,9.544761851E-3,8.962913752E-1
9.009296616E0,6.232348084E-1,2.459494323E-1,9.231693745E-1
9.014051460E0,5.682569742E-1,5.116755962E-1,9.463822842E-1
9.018806304E0,5.047270060E-1,7.725148797E-1,9.604321718E-1
9.023561095E0,4.485274553E-1,1.006476045E0,9.628756046E-1
9.028315939E0,4.185950756E-1,1.217224479E0,9.463822842E-1
9.033070783E0,4.198168218E-1,1.397429585E0,9.127846956E-1
9.037825627E0,4.448622763E-1,1.545869708E0,8.669698238E-1
9.042580418E0,4.809032977E-1,1.657657981E0,8.235984445E-1
9.047335262E0,5.254964232E-1,1.751120210E0,8.009964228E-1
9.052090106E0,5.737547278E-1,1.847636938E0,8.028290272E-1
9.056844897E0,6.238456368E-1,1.946596980E0,8.193224072E-1
9.061599741E0,6.678279042E-1,2.046167850E0,8.364266157E-1
9.066354585E0,7.032580972E-1,2.138408422E0,8.455895782E-1
9.071109429E0,7.295252681E-1,2.216599226E0,8.468112946E-1
9.075864220E0,7.466294765E-1,2.254472733E0,8.413135409E-1
9.080619064E0,7.502946854E-1,2.219653606E0,8.309288025E-1
9.085373908E0,7.454077601E-1,2.115195751E0,8.181006312E-1
9.090128700E0,7.423534393E-1,1.966755509E0,8.071050644E-1
9.094883543E0,7.411317229E-1,1.801211119E0,8.022181988E-1
9.099638387E0,7.441860437E-1,1.627114654E0,8.028290272E-1
9.104393179E0,7.521272302E-1,1.443855286E0,8.052725196E-1
9.109148022E0,7.673988938E-1,1.245324254E0,8.071050644E-1
9.113902866E0,7.991638184E-1,1.038241029E0,8.113811612E-1
9.118657710E0,8.498656154E-1,8.348230720E-1,8.229875565E-1
9.123412502E0,9.103412628E-1,6.430115104E-1,8.486438990E-1
9.128167345E0,9.677625299E-1,4.707476795E-1,8.926261663E-1
9.132922189E0,1.014188290E0,3.271944523E-1,9.518800378E-1
9.137676981E0,1.047174931E0,2.099084109E-1,1.030681610E0
9.142431825E0,1.070998669E0,9.384410083E-2,1.129030824E0
9.147186668E0,1.090546370E0,-4.237874225E-2,1.253647208E0
9.151941512E0,1.097265840E0,-1.651625633E-1,1.392924428E0
9.156696304E0,1.088102937E0,-2.421315312E-1,1.524260283E0
9.161451147E0,1.071609497E0,-2.891681194E-1,1.636659503E0
9.166205991E0,1.050229311E0,-3.123809695E-1,1.722791433E0
9.170960783E0,1.031903386E0,-3.191004992E-1,1.784488678E0
9.175715627E0,1.021518588E0,-3.215439618E-1,1.821140647E0
9.180470470E0,1.015409946E0,-3.197113574E-1,1.840077400E0
9.185225314E0,1.019685984E0,-3.099375069E-1,1.846186042E0
9.189980106E0,1.027627230E0,-2.922224402E-1,1.840688348E0
9.194734950E0,1.036790252E0,-2.708421648E-1,1.825416684E0
9.199489793E0,1.041677117E0,-2.482401729E-1,1.799149513E0
9.204244585E0,1.044731498E0,-2.207512558E-1,1.761275887E0
9.208999429E0,1.045953274E0,-1.932623386E-1,1.714239240E0
9.213754272E0,1.052061915E0,-1.602756530E-1,1.660483241E0
9.218509116E0,1.066111803E0,-1.236237586E-1,1.603061914E0
9.223263908E0,1.087491989E0,-8.147408813E-2,1.543197155E0
9.228018752E0,1.107039690E0,-3.565923125E-2,1.485165000E0
9.232773595E0,1.124754786E0,1.809686981E-2,1.427132845E0
9.237528387E0,1.141858935E0,7.979421318E-2,1.372155070E0
9.242283231E0,1.158963203E0,1.445458829E-1,1.320231557E0
9.247038075E0,1.179732561E0,2.129627317E-1,1.278692722E0
9.251792918E0,1.200502038E0,2.887099683E-1,1.246927738E0
9.256547710E0,1.218217134E0,3.650680780E-1,1.229212642E0
9.261302554E0,1.234710455E0,4.371501207E-1,1.220049739E0
9.266057397E0,1.248760343E0,5.031235218E-1,1.218217134E0
9.270812189E0,1.260977626E0,5.666534305E-1,1.219438791E0
9.275567033E0,1.267086267E0,6.369028687E-1,1.221271396E0
9.280321877E0,1.268308043E0,7.114284039E-1,1.221271396E0
9.285076720E0,1.267086267E0,7.877864838E-1,1.218217134E0
9.289831512E0,1.268918872E0,8.543707728E-1,1.209664941E0
9.294586356E0,1.282357931E0,8.959095478E-1,1.194393396E0
9.299341200E0,1.309846759E0,9.111811519E-1,1.175456524E0
9.304095991E0,1.354439974E0,9.020181894E-1,1.151632786E0
9.308850835E0,1.412472129E0,8.763619065E-1,1.126587391E0
9.313605679E0,1.477834582E0,8.500946760E-1,1.099098444E0
9.318360522E0,1.536477685E0,8.244383931E-1,1.073442101E0
9.323115314E0,1.573740363E0,8.000037670E-1,1.046564102E0
9.327870158E0,1.585957646E0,7.798452377E-1,1.019685984E0
9.332625002E0,1.574962139E0,7.639627457E-1,9.897536635E-1
9.337379793E0,1.551138401E0,7.425825000E-1,9.512691498E-1
9.342134637E0,1.523649454E0,7.150935531E-1,9.085086584E-1
9.346889481E0,1.493106246E0,6.857720613E-1,8.541416526E-1
9.351644325E0,1.461341262E0,6.613374949E-1,7.918334603E-1
9.356399116E0,1.426522017E0,6.326268315E-1,7.246383429E-1
9.361153960E0,1.382539749E0,5.965858102E-1,6.580541134E-1
9.365908804E0,1.326951027E0,5.568795800E-1,6.036871076E-1
9.370663595E0,1.259755850E0,5.086212754E-1,5.597048402E-1
9.375418439E0,1.187673807E0,4.505891204E-1,5.175551772E-1
9.380173283E0,1.114980936E0,3.656789362E-1,4.937314689E-1
9.384928127E0,1.058170557E0,2.257908881E-1,4.778489769E-1
9.389682918E0,1.015409946E0,6.879864633E-2,4.637990892E-1
9.394437762E0,9.848667383E-1,-7.047852129E-2,4.564687014E-1
9.399192606E0,9.567669630E-1,-1.627191007E-1,4.717403352E-1
9.403947397E0,9.237802625E-1,-1.865428388E-1,5.132791400E-1
9.408702241E0,8.938478827E-1,-1.761581302E-1,5.566505194E-1
9.413457085E0,8.736893535E-1,-1.651625633E-1,5.798633695E-1
9.418211929E0,8.639155030E-1,-1.566104591E-1,5.761982203E-1
9.422966720E0,8.553634286E-1,-1.474474818E-1,5.548179150E-1
9.427721564E0,8.431460857E-1,-1.303432733E-1,5.261073112E-1
9.432476408E0,8.242093325E-1,-1.052978188E-1,4.986183643E-1
9.437231200E0,7.991638184E-1,-9.002619982E-2,4.686860144E-1
9.441986043E0,7.722858191E-1,-8.880446851E-2,4.308123887E-1
9.446740887E0,7.447968721E-1,-9.308052063E-2,3.880518377E-1
9.451495731E0,7.179188132E-1,-9.552398324E-2,3.404043913E-1
9.456250522E0,6.861538887E-1,-8.330668509E-2,2.927569449E-1
9.461005366E0,6.525563002E-1,-6.436987966E-2,2.451094985E-1
9.465760210E0,6.171261668E-1,-4.970912263E-2,2.017380893E-1
9.470515002E0,5.749764442E-1,-4.421133921E-2,1.638644785E-1
9.475269845E0,5.261073112E-1,-4.726566374E-2,1.345429718E-1
9.480024689E0,4.705185890E-1,-4.115701467E-2,1.131627038E-1
9.484779533E0,4.112647176E-1,-2.893971838E-2,9.911280870E-2
9.489534325E0,3.526217043E-1,-1.488982886E-2,9.056070447E-2
9.494289168E0,2.970330119E-1,-9.392046370E-3,8.445205539E-2
9.499044012E0,2.469420880E-1,-1.794415340E-2,8.139773458E-2
9.503798856E0,1.986837685E-1,-3.321577236E-2,7.895427197E-2
9.508553647E0,1.522580534E-1,-6.620246917E-2,6.979130208E-2
9.513308491E0,1.064431891E-1,-1.187368408E-1,5.451968312E-2
9.518063335E0,5.940660089E-2,-1.627191007E-1,3.375028074E-2
