Time (s),Acceleration x (m/s^2),Acceleration y (m/s^2),Acceleration z (m/s^2)
9.004398017,-1.567149914607057,0.19484260792374067,0.17286605878901234
9.009153381,-1.9964336046872901,0.4598122546358583,0.3036508162399076
9.013908746,-2.4300072706718523,0.713490277026336,0.4337516146222749
9.01866411,-2.8652715179248935,0.9518840563707962,0.5610761286174931
9.023419423,-3.2995037250203816,1.1712934154951404,0.6835754197148362
9.028174787,-3.729877737212562,1.368394256636769,0.7992871901044056
9.032930152,-4.153484725761676,1.5403140864332183,0.9063760045595112
9.037685517,-4.567354997706143,1.6846973731383155,1.0031693956894085
9.042440881,-4.968480579648991,1.7997589642644518,1.0881889455952236
9.047196246,-5.353838450373975,1.8843241322364084,1.1601756383973967
9.05195161,-5.720414356200726,1.9378541973634196,1.2181089972855574
9.056706975,-6.065227202679752,1.9604570849496687,1.2612197520409691
9.061462339,-6.385354067496564,1.9528825888940584,1.2889960227131396
9.066217704,-6.677955912784045,1.9165025205486366,1.3011832431967716
9.070973069,-6.940304081801142,1.8532763044939677,1.2977782715935782
9.075728433,-7.169807638942237,1.765702932047709,1.2790183266531394
9.080483798,-7.364041550984108,1.6567604929444855,1.2453655362260956
9.085239162,-7.5207756138675395,1.5298347732298283,1.1974879736023236
9.089994527,-7.638003910689978,1.3886386323697413,1.1362380861932284
9.094749892,-7.713974454381339,1.2371240549672684,1.0626293908086102
9.099505256,-7.747218535609936,1.0793889125511256,0.9778122304245659
9.104260621,-7.736579174721391,0.9195805692672439,0.883049273863902
9.109015985,-7.681237975832691,0.7617985234407111,0.7796913093611896
9.11377135,-7.580739609677863,0.6099982971578553,0.6691537516271503
9.118526714,-7.4350131160459405,0.4678987701504104,0.5528941627951707
9.123282079,-7.244389221181578,0.3388951023801377,0.432390989500108
9.128037444,-7.009612911771581,0.22597929953679294,0.3091236455974499
9.132792808,-6.731850593430547,0.1316703437331132,0.18455402207442076
9.137548173,-6.41269128384728,0.057955635297762535,0.06010947745103417
9.142303537,-6.054141443172187,0.006245269778664606,-0.06283265472921397
9.147058902,-5.658613220167105,-0.022659592669510165,-0.1829590187034288
9.151814267,-5.228906085475031,-0.028583319863194637,-0.29903264520104483
9.156569631,-4.7681820261202805,-0.011976771053573627,-0.409903837198297
9.161324996,-4.279934679302785,0.026097566801543133,-0.5145195848886436
9.16608036,-3.767952977655201,0.08399604584408553,-0.6119315928298695
9.170835725,-3.236280049572416,0.15953926541388033,-0.7013030256176754
9.175591089,-2.6891682536739356,0.2500713233103127,-0.781914088931795
9.180346454,-2.1310313147469215,0.3525313953537525,-0.8531665581699872
9.185101819,-1.5663945642635322,0.46353574964747307,-0.9145873476092172
9.189857183,-0.999844273730507,0.5794679785654719,-0.9658311807359026
9.194612548,-0.43597701060451893,0.6965749783695553,-1.0066823789795205
9.199367912,0.12065014779006451,0.8110660343637077,-1.037055734171006
9.204123277,0.6655678294555394,0.9192122845601552,-1.0569963739752921
9.208878642,1.1944404407737512,1.0174438380544033,-1.0666784761914776
9.213634006,1.7031096736119316,1.1024419128231842,-1.0664026457819584
9.218389371,2.187635159503518,1.1712235257659185,-1.0565917453457239
9.223144735,2.6443320951882336,1.2212165077295583,-1.0377849697251946
9.2279001,3.0698057412875457,1.2503229183626614,-1.0106299800035987
9.232655464,3.4609827400116875,1.256969288527969,-0.9758729619270313
9.237410829,3.815139214561612,1.24014250892182,-0.9343465492270153
9.242166194,4.129925608985419,1.199410599364987,-0.886955653083484
9.246921558,4.403388207369727,1.1349280213389232,-0.8346613623067584
9.251676923,4.633987238687076,1.047425625091762,-0.778463216779703
9.256432287,4.820611431917159,0.9381857412665975,-0.7193802939054188
9.261187652,4.962588839948956,0.8090033254568406,-0.6584316631203391
9.265943017,5.059693706268919,0.6621344328840661,-0.5966168363430303
9.270698381,5.11214911238441,0.500233630487091,-0.5348968597322707
9.275453746,5.120625123258245,0.3262822365499344,-0.47417665332663256
9.28020911,5.0862321491305025,0.14350950574644583,-0.41528912008942537
9.284964475,5.0105092704592,-0.04469095668570004,-0.35898143163233037
9.289719839,4.89540733245625,-0.23484716958043253,-0.30590377328360496
9.294475204,4.743266708704059,-0.4234947302957099,-0.2566007122189394
9.299230569,4.556789758101659,-0.6072603862066996,-0.21150524918462144
9.303985933,4.339008150092294,-0.7829409789089102,-0.17093553000097111
9.308741246,4.093245399227471,-0.9475757037770658,-0.1350941246321317
9.313496662,3.823075117079916,-1.0985098765968202,-0.10406972314105667
9.318251975,3.532275641040789,-1.2334487010887953,-0.07784104401012702
9.323007392,3.22478182071387,-1.350499874855822,-0.05628269942432229
9.327762756,2.9046348227431507,-1.448204243253713,-0.039172716698477356
9.332518069,2.575930849336343,-1.5255540962965097,-0.02620137999254867
9.337273433,2.242769656414866,-1.5819990881576371,-0.01698103646596935
9.342028798,1.9092037116018625,-1.6174401283780033,-0.01105650865913938
9.346784162,1.5791887605196058,-1.6322119366385157,-0.007915770364481293
9.351539527,1.2565364829975785,-1.6270552589197012,-0.007000575358286211
9.356294892,0.9448698285961633,-1.6030800037503028,-0.00771677572216366
9.361050308,0.6475815311810124,-1.561720766270778,-0.009444127821097192
9.365805621,0.3677962206114864,-1.5046863599333968,-0.011545457162803368
9.370560985,0.10833647894380792,-1.4339050678122465,-0.01337513392243908
9.37531635,-0.1283068703995916,-1.351467357103178,-0.014286891828807182
9.380071714,-0.34000000049842377,-1.259567773465837,-0.01364109575989999
9.384827079,-0.5249866462386468,-1.1604476509480495,-0.010811619563695564
9.389582444,-0.6819038326680903,-1.0563401450229113,-0.00519252940837436
9.394337808,-0.8097926349771655,-0.949418928915435,0.0037952229964714965
9.399093173,-0.9081038720913626,-0.8417516958878228,0.016696907362202057
9.403848537,-0.9766986719207207,-0.7352593919630837,0.034016765591013166
9.408603902,-1.0158438864556711,-0.6316818743874694,0.05621029684764985
9.413359267,-1.0262023798776423,-0.5325504603136825,0.08367602171818257
9.418114631,-1.0088182628379552,-0.43916760600559884,0.1167467275062226
9.422869996,-0.9650972007576158,-0.3525937460834719,0.15568025461583174
9.42762536,-0.8967819829591837,-0.2736411301078142,0.20064994193731656
9.432380725,-0.805923602231395,-0.2028743237239096,0.2517349075477876
9.437136089,-0.6948481603251231,-0.1406168957694105,0.30891040040444995
9.441891454,-0.566119982557692,-0.08696369209226713,0.3720385192709806
9.446646819,-0.4225013926959088,-0.04179800132917526,0.44085965632811835
9.451402183,-0.26690966688666984,-0.004812846792237414,0.5149850828518174
9.456157548,-0.10237175282876336,0.024464409492177406,0.5938911489422914
9.460912912,0.06802259220097802,0.046644991460869846,0.676915611753077
9.465668277,0.24116852470431288,0.06245001104917223,0.7632566275204761
9.470423642,0.4139939184904935,0.07268098709506735,0.8519749311565913
9.475179006,0.5835064157612633,0.07819039684666383,0.9419996739554966
9.479934371,0.7468388580714385,0.07985303945481909,1.0321382903053051
9.484689735,0.9012922169320801,0.07853894364142466,1.1210906193972874
9.4894451,1.0443751592411958,0.07508849470398797,1.2074673242843967
9.494200464,1.1738394308690283,0.0702903886645822,1.2898124388869934
9.498955829,1.2877103262930785,0.06486294145080448,1.3666296479828923
9.503711194,1.3843116343750481,0.05943918530846994,1.4364116835037943
9.508466558,1.4622846069914939,0.054556070543178715,1.4976720222050568
9.513221923,1.520600679592885,0.05064795758781009,1.5489779144959954
9.517977287,1.5585678673860777,0.0480444348499784,1.5889836792354675
9.522732652,1.575830951767275,0.04697233776055882,1.616463176590475
9.527488017,1.5723657433728584,0.04756168252334423,1.6303404220356352
9.532243381,1.5484678479464284,0.049855074082995644,1.629717415671058
9.536998746,1.504736461236062,0.053820011384068736,1.613898406011528
9.54175411,1.4420537783328669,0.059363402338034145,1.5824099581749387
9.546509475,1.3615606278065187,0.06634752216689585,1.5350163357476732
9.551264839,1.2646289432601705,0.07460660565351547,1.471729832245451
9.556020204,1.152831676396344,0.08396325790550555,1.3928158117302616
9.560775569,1.0279107448953773,0.09424389950927524,1.2987923499860832
9.565530933,0.8917435993686406,0.1052925289170513,1.1904245123544606
9.570286298,0.746308985790187,0.11698218468343129,1.068713456150415
9.575041662,0.5936524682509815,0.12922361869337204,0.9348806899169688
9.579797027,0.4358522543438569,0.1419708435373404,0.790347941676641
9.584552392,0.2749858263024794,0.15522338581348563,0.6367131722030235
9.589307756,0.11309782487325658,0.1690252537068637,0.4757233150341336
9.594063121,-0.04783043367085834,0.18346080153060967,0.3092443392212561
9.598818485,-0.20590949139107578,0.19864783460984517,0.13922922643134336
9.60357385,-0.3593680641662336,0.21472843287519655,-0.03231555354626631
9.608329214,-0.5065768856090453,0.23185806984205046,-0.20336448188592565
9.613084579,-0.646069807985333,0.25019365833624596,-0.37190773740819855
9.617839944,-0.776561846435484,0.2698811647520746,-0.535985611235518
9.622595308,-0.8969638087610204,0.29104340535467366,-0.6937219183369145
9.627350673,-1.0063931321348711,0.313768580329341,-0.8433557207689766
9.632106037,-1.1041805667846252,0.3381000233297563,-0.9832706913825089
9.636861402,-1.1898724085157326,0.3640275537464497,-1.1120214907164372
9.641616767,-1.2632280814087977,0.3914807215748518,-1.2283565991153498
9.646372131,-1.3242130010410587,0.4203241357413234,-1.3312371339988471
9.651127496,-1.372986799427146,0.4503549712453437,-1.419851282505494
9.65588286,-1.4098871577393657,0.481302663380635,-1.4936240873321098
9.660638225,-1.4354096629166435,0.5128307222634214,-1.5522224340966027
9.665393589,-1.4501842696315073,0.5445405398197881,-1.5955551982059615
9.670148954,-1.4549490991264196,0.575977014594202,-1.623768615163652
9.674904319,-1.4505224300177213,0.6066357865071055,-1.6372370387077546
9.679659683,-1.4377738225803194,0.6359718526323467,-1.6365493450273694
9.684415048,-1.4175953587669163,0.6634093245411157,-1.6224913277960105
9.689170412,-1.3908739708507474,0.6883520863553052,-1.5960245073449182
9.693925777,-1.3584657729374061,0.710195119450197,-1.5582618470743428
9.698681142,-1.3211732077450826,0.72833627390548,-1.5104409295499994
9.703436506,-1.2797256857336876,0.7421882868057577,-1.4538951924876082
9.708191871,-1.2347642357652522,0.7511908708858136,-1.390023861342959
9.712947235,-1.186830516056083,0.7548227208819789,-1.3202612412512011
9.7177026,-1.1363603596229885,0.7526133064360097,-1.2460460459669989
9.722457964,-1.0836818566392323,0.7441543369176372,-1.1687914432192934
9.727213329,-1.029017813145486,0.7291107929157833,-1.0898564823652646
9.731968694,-0.9724922768680444,0.707231419952688,-1.0105195399877622
9.736724058,-0.9141406910309958,0.6783585717504564,-0.9319543717366628
9.741479423,-0.8539231291244181,0.6424372737508228,-0.8552092953034529
9.746234787,-0.7917399790597837,0.599523354247552,-0.7811899523592604
9.750990152,-0.7274493841676547,0.5497904630573024,-0.7106460093724645
9.755745517,-0.6608857108598603,0.4935357693460377,-0.6441620607433335
9.760500881,-0.5918782987603187,0.4311841045222497,-0.5821528945813452
9.765256246,-0.5202697595678568,0.36329029653748857,-0.5248631735081483
9.77001161,-0.44593312673113766,0.29053943184395387,-0.4723714714916009
9.774766975,-0.3687872193970399,0.21374478341501305,-0.42459849433450075
9.779522339,-0.28880967007184816,0.13384315947635017,-0.3813191990558682
9.784277704,-0.20604717362225758,0.051887458830464014,-0.3421784211155331
9.789033069,-0.1206226418698643,-0.03096373483170137,-0.3067095236381068
9.793788433,-0.03273908816434465,-0.11345962566832288,-0.27435550299143635
9.798543798,0.05731978589407893,-0.19427377587450181,-0.2444919217781873
9.803299162,0.14919218058765588,-0.27202371599955183,-0.21645099459661904
9.808054527,0.24244370155694503,-0.3452934410502279,-0.18954612564958997
9.812809892,0.3365753847699534,-0.4126585350085441,-0.16309619283463586
9.817565256,0.43103374455907995,-0.4727135609704502,-0.1364488922820512
9.822320621,0.5252222675823134,-0.5241012500855567,-0.10900250076915292
9.827075985,0.6185137287595402,-0.5655429237248638,-0.08022547906318689
9.83183135,0.7102626927539114,-0.5958694936657135,-0.04967342282985291
9.836586714,0.79981758747836,-0.6140523082184448,-0.017002963663848923
9.841342079,0.8865317934785693,-0.619233051554607,0.018017674954651123
9.846097444,0.9697732810844423,-0.6107518622618675,0.05550165901749212
9.850852808,1.048932439328418,-0.588172818365978,0.09544015577671552
9.855608173,1.123427868447685,-0.5513059425118343,0.13770257634915842
9.860363537,1.192710042683432,-0.5002249151278961,0.18204036339673563
9.865118902,1.2562628843514283,-0.4352797469470486,0.22809415757981494
9.869874267,1.3136034174477587,-0.35710375579125275,0.2754041008535823
9.874629631,1.3642797841492795,-0.266614315203952,0.3234229641633765
9.879384996,1.4078680059105968,-0.16500699202936572,0.3715317219427535
9.88414036,1.4439679483335817,-0.05374286258223444,0.4190571362363757
9.888895725,1.4721990020024434,0.06547101271674405,0.4652908603571443
9.893651089,1.4921960171656026,0.1907077751135135,0.5095095284127495
9.898406454,1.5036060264597233,0.3198532277673632,0.5509952666602919
9.903161819,1.5060862557301968,0.4506439838191249,0.5890560493319603
9.907917183,1.4993038587192498,0.5807105264492188,0.6230453279353259
9.912672548,1.4829377192694633,0.7076242345642988,0.6523803899989306
9.917427912,1.4566825493106208,0.828947282454041,0.6765589504940166
9.922183277,1.4202553788537435,0.9422842073891102,0.695173545279518
9.926938642,1.373404393410196,1.0453338601020932,0.7079233774590445
9.931694006,1.315919933127922,1.1359404122882006,0.7146233584475588
9.936449371,1.2476473348911887,1.2121420939955656,0.7152101781310289
9.941204735,1.168501181539479,1.2722163719992063,0.7097453256251384
9.9459601,1.0784804279038833,1.3147203568601826,0.6984150591144674
9.950715464,0.9776838062283653,1.3385253393109517,0.6815273885604565
9.955470829,0.866324876006591,1.342844502777835,0.659506189714296
9.960226194,0.7447460752774594,1.32725303393389,0.6328826139184626
9.964981558,0.6134311501149396,1.2917000516218122,0.6022839974701112
9.969736923,0.4730153834824645,1.2365119898288648,0.5684205081555178
9.974492287,0.32429311051971227,1.162387295758124,0.5320697960522058
9.979247652,0.16822209119180262,1.0703825325178231,0.4940599420975844
9.984002964,0.0059244089357840665,0.9618902008312273,0.455251022804742
9.988758329,-0.16131632931536388,0.8386088091895533,0.41651563468532704
9.993513746,-0.3320616054056971,0.7025059214970905,0.37871874915464276
9.998269058,-0.5047284172767039,0.5557750908621609,0.34269729881553407
10.00302442,-0.6776034167633349,0.4007877440098749,0.3092399279277248
10.00777984,-0.8488605529161073,0.240041209659571,0.2790673696551208
10.01253515,-1.0165819257323325,0.0761041831841338,0.25281393392463086
10.01729057,-1.178781478058301,-0.08843901384623307,0.2310105951484787
10.02204588,-1.333431091229792,-0.2510439894732223,0.21407015300718457
10.0268013,-1.478488603444251,-0.40926026851308867,0.20227490010014307
10.03155666,-1.6119272386574766,-0.5607823706769158,0.1957671700795224
10.03631203,-1.7317659173978486,-0.7034967203792286,0.19454306457559206
10.04106734,-1.836099918960707,-0.8355232456640946,0.19844957364395
10.0458227,-1.9231313768839926,-0.9552506722540447,0.20718521915402582
10.05057807,-1.991199115859863,-1.061364694056893,0.22030426862552804
10.05533343,-2.0388073764009085,-1.152868397651116,0.2372244908749526
10.0600888,-2.0646530200043944,-1.2290945293540476,0.2572383532802758
10.06484416,-2.0676508577043355,-1.2897094136094118,0.2795274901200369
10.06959953,-2.0469567953427994,-1.3347085544524837,0.3031801997044257
10.07435489,-2.001988538733479,-1.3644041712028279,0.32721165523044965
10.07911026,-1.9324436518676327,-1.37940512911902,0.35058644331828237
10.08386562,-1.8383148113092296,-1.380589920211731,0.3722429784150103
10.08862098,-1.7199021473839087,-1.3690735240229017,0.39111928298453885
10.09337635,-1.5778226031868077,-1.3461691283476336,0.40617957336092075
10.09813171,-1.4130162709945993,-1.3133458112004437,0.4164410489848582
10.10288708,-1.226749678420606,-1.2721833742588657,0.421000248321381
10.10764244,-1.020615990922541,-1.22432557301018,0.4190583094807538
10.11239781,-0.7965320722099621,-1.1714330110883888,0.409944460859098
10.11715317,-0.5567323019628668,-1.1151369586846545,0.3931370716716841
10.12190854,-0.30375899703154674,-1.0569953196617572,0.36828161872383636
10.1266639,-0.04044922622114741,-0.9984519096862274,0.3352049775589349
10.13141927,0.23008224161771904,-0.9408001182342881,0.2939255245689827
10.13617463,0.504464153422606,-0.8851519111968092,0.24465864067794948
10.14093,0.7790944656938064,-0.8324129894535864,0.18781733353044994
10.14568536,1.050170821642179,-0.7832647546757416,0.12400783864339121
10.15044073,1.3137260801942243,-0.7381535502638685,0.05402021384746749
10.15519609,1.5656690994685838,-0.6972874473289462,-0.02118590327781596
10.15995145,1.8018308841268151,-0.6606406384199296,-0.10050005856977597
10.16470682,2.0180160887424674,-0.6279652909908238,-0.1826838198861794
10.16946218,2.2100597324783133,-0.5988105035805606,-0.2663971406491615
10.17421755,2.373888828484991,-0.5725478046786108,-0.35022761631657756
10.17897291,2.5055884679259206,-0.5484024409474832,-0.432721940878936
10.18372828,2.601471724811007,-0.5254895215566726,-0.5124188260880818
10.18848364,2.6581525636807517,-0.5028539232054626,-0.5878826143145784
10.19323901,2.6726207373698005,-0.4795127211568881,-0.6577367925653895
10.19799437,2.6423174583980478,-0.4544988008275248,-0.7206965963934331
10.20274974,2.5652104202321793,-0.42690422754223917,-0.7755998772289332
10.2075051,2.4398665422392005,-0.39592191393341875,-0.8214354000301262
10.21226046,2.265520625036511,-0.36088412972908773,-0.8573677516728121
10.21701583,2.042137942227403,-0.32129645142282515,-0.8827580892024938
10.22177119,1.7704686718998732,-0.27686585264758146,-0.89718005284226
10.22652656,1.4520920001624646,-0.22752179148962529,-0.9004303131239868
10.23128192,1.0894477254637012,-0.17342935812190877,-0.8925334032356845
10.23603729,0.6858532737049969,-0.11499380236781839,-0.873740686397824
10.24079265,0.24550421352147184,-0.05285605976707887,-0.8445235035079509
10.24554802,-0.2265433573161915,0.012120775153096584,-0.8055607250559592
10.25030338,-0.7244098057083844,0.07887373472317158,-0.7577210883328028
10.25505875,-1.2414491278873958,0.1461703883608489,-0.7020408366682901
10.25981411,-1.7703265489128481,0.21264642389327978,-0.6396972943412943
10.26456948,-2.3031162476145157,0.2768491669142588,-0.571979111244493
10.26932484,-2.831418298597659,0.3372855767302634,-0.5002539962915398
10.2740802,-3.3464933205606737,0.39247308865605074,-0.42593482665159393
10.27883557,-3.839412736353631,0.44099156731243744,-0.35044506776468276
10.28359093,-4.301222004090445,0.4815345949692116,-0.2751844626284475
10.2883463,-4.723113685077072,0.512958341379396,-0.20149594509954838
10.29310166,-5.096606784701613,0.5343263438281429,-0.13063469980003703
10.29785703,-5.413728446843898,0.5449486636690603,-0.06374023088376854
10.30261239,-5.667193811024704,0.5444140723770647,-0.0018122143568595221
10.30736776,-5.850579664714634,0.5326141486125318,0.05430920471859785
10.31212312,-5.958487450788393,0.5097584291401362,0.10395814614822756
10.31687848,-5.986691230850436,0.4763800407765312,0.14665239453500103
10.32163385,-5.932266365653873,0.43333153736212665,0.1820972768443551
10.32638921,-5.793694956738346,0.3817709646041354,0.21018401847488904
10.33114458,-5.570944496464241,0.3231384667224721,0.23098277331105738
10.33589994,-5.265516690142888,0.2591240235096208,0.24473071502045093
10.34065531,-4.880464034375076,0.19162715744901102,0.25181575754821367
10.34541067,-4.420372448773635,0.12270967207784851,0.25275663469189075
10.35016604,-3.891309050902386,0.05454267033811519,0.24818020462342819
10.3549214,-3.300735020512834,-0.010650747881451197,0.238796947805449
10.35967677,-2.657384399640596,-0.07065559824496442,0.2253756880688646
10.36443213,-1.9711105978082075,-0.12332635174215338,0.20871857939176355
10.3691875,-1.2527032922724137,-0.1666478861653543,0.1896373594382185
10.37394286,-0.5136793053322625,-0.19879443876580122,0.16893177156560477
10.37869822,0.23394812497452688,-0.21818499051943624,0.14737089958520072
10.38345359,0.9779165186348072,-0.22353358754857786,0.12567795000476714
10.38820895,1.7059719825030977,-0.2138932134222053,0.10451876895169077
10.39296432,2.406131423252473,-0.18869196663164112,0.08449411686514996
10.39771968,3.0669425600151565,-0.14776046967080375,0.06613546812953296
10.40247505,3.677735024812514,-0.09134963827808462,0.0499038783531353
10.40723041,4.228855910783304,-0.020138168936299997,0.03619128654447453
10.41198578,4.711883408163267,0.06477064406172982,0.025323502977611354
10.41674114,5.1198126574272775,0.16186287893342405,0.017564079270215974
10.42149651,5.4472086383945495,0.2692385778795951,0.013118264264143828
10.42625187,5.6903217817692555,0.3846465080388798,0.012136316193638953
10.43100724,5.847163006659616,0.5055283627921255,0.014715567740130298
10.4357626,5.9175360230724605,0.6290714147190211,0.02090082266652558
10.44051796,5.9030259578928455,0.7522683991858945,0.030682888624669207
10.44527333,5.806944624819916,0.8719832115256844,0.043995297646465106
10.45002869,5.634234014774442,0.9850208492633213,0.06070950589304986
10.45478406,5.391330783324302,1.088199929668803,0.08062907190852478
10.45953942,5.085995608166162,1.178426063935487,0.10348346889895418
10.46429479,4.727112239413213,1.2527643700056557,0.1289222803303863
10.46905015,4.324461832132755,1.3085094512189006,0.15651055679752354
10.47380552,3.888478710906831,1.3432512514925996,0.18572608101277052
10.47856088,3.42999406439811,1.3549353137991726,0.21595920757429019
10.48331625,2.9599742142558956,1.3419161117069796,0.2465158272947851
10.48807161,2.489260066720693,1.303002288488378,0.27662386412424705
10.49282698,2.028314158662669,1.2374928200611681,0.3054435564510491
10.49758234,1.5869813719489771,1.1452033125773549,0.33208161202088027
10.5023377,1.1742689267755595,1.0264818488864331,0.3556091620324711
10.50709307,0.7981506889761264,0.8822140067830274,0.37508327727889884
10.51184843,0.46540015069938906,0.7138168828873049,0.38957164792774623
10.5166038,0.18145568187776984,0.5232221670541256,0.39817986918378356
10.52135916,-0.04967918247142262,0.31284852193396595,0.4000806196113948
10.52611453,-0.22549853887280844,0.08556372927162088,0.3945438716320783
10.53086989,-0.34501903375928705,-0.15536273354265243,0.38096714189740133
10.5356252,-0.4087668729786025,-0.4063158295983666,0.35890468270096293
10.54038057,-0.41872781664116265,-0.6633987729949414,0.3280944452519564
10.54513593,-0.3782619503812455,-0.9225033107188038,0.2884816215574258
10.54989135,-0.29198587150913563,-1.1793851284051131,0.240237601629624
10.55464666,-0.16562570534294396,-1.4297429125584604,0.18377327132917565
10.55940203,-0.005845053163381853,-1.669299510345822,0.11974572385876507
10.56415739,0.17994744943984833,-1.8938835686089943,0.04905766028273798
10.56891276,0.38380583146682,-2.0995100085940597,-0.027150997890650466
10.57366812,0.5974642907604371,-2.2824577029683284,-0.10751948093058089
10.57842348,0.812558871840575,-2.4393427665737204,-0.19049042657111556
10.58317885,1.0208476471730519,-2.567185950491752,-0.27434161572748494
10.58793421,1.2144238343455966,-2.663472737769817,-0.35722449206798135
10.59268958,1.3859165228703045,-2.7262048751419123,-0.43720849762451763
10.59744494,1.5286740595807846,-2.7539422345518694,-0.5123300156171158
10.60220031,1.6369256433527517,-2.745834077901894,-0.5806445083008006
10.60695567,1.7059172975956025,-2.7016389954075657,-0.640280276933144
10.61171104,1.732019108830346,-2.621732999728185,-0.6894921573054076
10.6164664,1.7128014242705811,-2.5071054821066627,-0.7267134027723752
10.62122177,1.6470785698371233,-2.359342970351788,-0.7506040035154469
10.62597713,1.5349195586429074,-2.1806008687667995,-0.7600937521223011
10.6307325,1.3776261812388368,-1.973563604409645,-0.7544184955671263
10.63548786,1.1776797710697926,-1.741393849941781,-0.7331482120022802
10.64024322,0.9386587869576319,-1.4876717378630016,-0.6962058119586293
10.64499859,0.6651301143711894,-1.216325219849701,-0.6438758778715322
10.64975395,0.3625176277088998,-0.9315529525444239,-0.5768029101022458
10.65450932,0.0369520537517231,-0.6377413009259367,-0.49597902527795085
10.65926468,-0.3048934787252045,-0.33937723487855653,-0.40272143497131624
10.66402005,-0.6559776234650027,-0.0409590450977856,-0.2986404009060362
10.66877541,-1.0090700984919316,0.25309308862016566,-0.18559870120087996
10.67353078,-1.3569314927279197,0.5385245896253884,-0.06566393827643743
10.67828614,-1.692489195866519,0.8113299562016939,0.05894473655788422
10.68304151,-2.009005313126665,1.067830202177972,0.1859137212121661
10.68779687,-2.3002327685145922,1.3047423905318416,0.3128940013805771
10.69255224,-2.5605562065714307,1.5192395801062915,0.43756019457651646
10.6973076,-2.7851147583959093,1.7089997552336291,0.5576676866722771
10.70206296,-2.9699042293901954,1.872242601234486,0.6711060504033399
10.70681833,-3.111856782925732,2.0077533137605634,0.775947119205932
10.71157369,-3.20889672868843,2.114892974830935,0.87048634723016
10.71632906,-3.2599715726802563,2.193595381613427,0.9532763993792387
10.72108442,-3.265058045148202,2.2443505648037663,1.0231522587417003
10.72583979,-3.2251433894197947,2.268175572402571,1.0792474863858208
10.73059515,-3.142182761343217,2.2665734138283513,1.121001597791078
10.73535052,-3.019034143591423,2.241481352057025,1.148158816236532
10.74010588,-2.8593727061264547,2.1952099922639383,1.160758719453478
10.74486125,-2.667587028280806,2.1303748391474855,1.1591195116776716
10.74961656,-2.448660026130189,2.049822176582496,1.1438148326104878
10.75437192,-2.20803779020635,1.9565512571419235,1.1156451616129073
10.75912734,-1.9514898232054585,1.8536348701045138,1.0756049900652156
10.76388265,-1.6849643657769866,1.744140380277246,1.02484701167031
10.76863802,-1.414442601979149,1.631053293083595,0.9646446094583576
10.77339338,-1.1457955361327379,1.517205302685578,0.8963538905965345
10.77814875,-0.8846472214608196,1.4052086208069714,0.8213764354221822
10.78290411,-0.6362477929559761,1.297398169038221,0.7411237961390561
10.78765948,-0.4053594155257427,1.195782955162226,0.6569846212938906
10.79241484,-0.19615781842993738,1.1020076564345034,0.570295111956815
10.7971702,-0.012151572743065314,1.0173251138614878,0.48231334566236733
10.80192557,0.14387929219912854,0.9425801155439402,0.3941978393707186
10.80668093,0.2699243199187393,0.8782045270700217,0.306990565327441
10.8114363,0.3647628776207854,0.8242235240861111,0.2216044870077442
10.81619166,0.42796377434713867,0.7802724059473086,0.13881555018442052
10.82094703,0.45986494899636493,0.7456232265635777,0.0592589489509432
10.82570239,0.46153445457956427,0.7192202727433785,-0.016570611455664522
10.83045776,0.4347144457150294,0.6997232517435744,-0.08831501482276154
10.83521312,0.38175030001587107,0.6855569162949922,-0.1557456230587502
10.83996848,0.3055073562785681,0.6749657543246471,-0.21875343078672962
10.84472385,0.2092780200143429,0.6660722999142222,-0.2773369957899178
10.84947921,0.0966821603084567,0.6569375809025496,-0.33158867085145993
10.85423458,-0.02843620257676424,0.6456222067818529,-0.3816796588069019
10.85898994,-0.16211293978163105,0.6302466176553547,-0.4278443922303017
10.86374531,-0.3003657170604217,0.6090490596878663,-0.47036470631477223
10.86850067,-0.4392910792368124,0.5804399228118732,-0.5095542328927128
10.87325604,-0.575154298400915,0.5430511705844853,-0.5457433989473566
10.8780114,-0.7044698927889624,0.4957797084119216,-0.5792653661765678
10.88276677,-0.8240711000018983,0.4378236734008142,-0.6104431986666932
10.88752213,-0.931167004752351,0.36871078533607005,-0.6395784916039816
10.8922775,-1.023386462615337,0.28831807195250375,-0.6669416336441869
10.89703281,-1.0988084101878701,0.19688247061069622,-0.6927638095644232
10.90178817,-1.1559785910772784,0.09500201012415486,-0.7172307813555541
10.90654359,-1.19391314021785,-0.0163725121728058,-0.7404784201764827
10.91129895,-1.2120898429710836,-0.13595522529201423,-0.7625899039330387
10.91605427,-1.2104282100435755,-0.26215189804001277,-0.7835944496236897
10.92080963,-1.189259776650257,-0.3930950983585937,-0.8034674182962934
10.925565,-1.1492902387995858,-0.5266870122891107,-0.8221316145729717
10.93032036,-1.0915551772372147,-0.6606489336911705,-0.839459602403567
10.93507572,-1.01737118865476,-0.7925762499029606,-0.8552768731825203
10.93983109,-0.9282842448521383,-0.919997585063203,-0.8693657296374354
10.94458645,-0.8260170369723892,-1.0404366275121952,-0.8814697857454173
10.94934182,-0.7124169397776319,-1.1514750658276287,-0.8912990248272066
10.95409718,-0.5894060587474653,-1.2508149941490787,-0.8985353992356804
10.95885255,-0.45893461129277313,-1.336339125093328,-0.9028389896132437
10.96360791,-0.32293865488376594,-1.4061671704998144,-0.9038547644966222
10.96836328,-0.1833029219624869,-1.4587068183074179,-0.9012199891529893
10.97311864,-0.04182926595550185,-1.4926978485658813,-0.894572324489508
10.97787401,0.09978902449578984,-1.50724809177988,-0.8835586315941535
10.98262937,0.23998701470290082,-1.5018601358266492,-0.867844454656686
10.98738474,0.377342190053312,-1.4764479297493036,-0.8471240966443271
10.9921401,0.5105831422824194,-1.4313427086473272,-0.8211311326910947
10.99689546,0.6385933538493871,-1.367287966687278,-0.7896491318473232
11.00165083,0.7604106578035834,-1.2854235260249958,-0.7525222852144049
11.00640619,0.8752230152041498,-1.1872590778940624,-0.7096655737990134
11.01116156,0.9823612833201255,-1.0746378974181943,-0.6610740585194936
11.01591692,1.0812896481655339,-0.9496917446231343,-0.6068308437306723
11.02067229,1.1715943694338702,-0.8147882489110055,-0.5471132607689202
11.0254276,1.2529714416871935,-0.6724723210117375,-0.48219684486021047
11.03018296,1.325213720274699,-0.5254033339707114,-0.4124567397412161
11.03493833,1.3881979999112337,-0.37628995327060766,-0.33836625712350055
11.03969369,1.4418724714698432,-0.2278245677477933,-0.26049243543113426
11.04444906,1.4862449194952465,-0.08261927244080591,-0.17948857400231139
11.04920442,1.5213719598001034,0.05685471896913706,-0.09608385502291585
11.05395979,1.5473495542172802,0.1883224969673563,-0.011070297483818147
11.05871515,1.564304979102711,0.3097541826913302,0.0747125905694025
11.06347052,1.5723903657956382,0.4194056807370594,0.16039498736167176
11.06822588,1.5717778745861921,0.5158504739479861,0.2450951958131335
11.07298125,1.5626565081946864,0.5980017947964809,0.32793871185000606
11.07773661,1.54523051564475,0.6651248391672033,0.4080772474251725
11.08249198,1.5197192823266477,0.716839018136431,0.48470702325302883
11.08724734,1.4863585477849173,0.7531105592597849,0.5570856722862858
11.0920027,1.4454027418844553,0.774236060576314,0.624547156950921
11.09675807,1.3971281862410965,0.7808178600019131,0.6865141970878729
11.10151343,1.3418368747255613,0.77373230404508,0.7425078244346983
11.1062688,1.2798605271890524,0.7540921782253074,0.7921538148914021
11.11102416,1.2115646064709142,0.7232046933408721,0.8351858924021638
11.11577953,1.1373520022112262,0.6825265034752591,0.8714457377944548
11.12053489,1.0576661174978639,0.6336172608231037,0.9008799621118436
11.12529026,0.972993145960783,0.5780931879839747,0.9235343085405218
11.13004557,0.8838633950661184,0.5175820714028901,0.9395454252247617
11.13480093,0.7908515904641615,0.45368095384948043,0.9491306023639863
11.1395563,0.6945761782054546,0.38791763556689646,0.9525758935253178
11.14431166,0.5956977174770066,0.3217168915019994,0.9502230477079625
11.14906703,0.4949165181898199,0.2563720859855856,0.9424556709762565
11.15382239,0.3929697190423019,0.19302262764063038,0.9296850201662
11.15857776,0.29062801795537996,0.13263746792643233,0.9123358114083079
11.16333312,0.18869225489166594,0.0760046179978729,0.890832407245948
11.16808848,0.0879900063085113,0.023726450860739132,0.8655857312650891
11.17284385,-0.010627716474081703,-0.023779621960118447,0.8369812502630393
11.17759921,-0.10628966005345479,-0.06627565090258059,0.8053683603005091
11.18235458,-0.1981075077556026,-0.10369347719136653,0.7710515098927551
11.18710994,-0.28517924230286545,-0.13612159793065487,0.7342833826924361
11.19186531,-0.3665929854148035,-0.16378929133796702,0.6952604329414996
11.19662067,-0.4414316832075415,-0.18704870646983382,0.6541210106535817
11.20137604,-0.5087790513782636,-0.20635557430779855,0.6109462258403754
11.2061314,-0.5677271999822345,-0.2222491297721271,0.565763585808433
11.21088677,-0.6173863196948244,-0.2353317548151979,0.5185533082605855
11.21564213,-0.6568967302469615,-0.24624876803487558,0.46925708180367737
11.2203975,-0.6854434721210915,-0.25566870187011376,0.41778892974742676
11.22515281,-0.7022734728201144,-0.26426432868341376,0.3640477427660045
11.22990822,-0.7067151494594861,-0.27269462516890225,0.30793098459467555
11.23466354,-0.6982001314496991,-0.28158780344851936,0.24934904109680903
11.2394189,-0.6762866117241136,-0.29152548976913684,0.18823967313897064
11.24417427,-0.640683672336798,-0.30302810024232646,0.1245820437128624
11.24892963,-0.5912757891255277,-0.3165414486065071,0.0584098158466049
11.253685,-0.5281466080516097,-0.3324246227806352,-0.010177143381900232
11.25844036,-0.451601008819048,-0.3509391826573601,-0.08100286895045486
11.26319573,-0.36218443417013557,-0.3722397575932925,-0.15380757465203404
11.26795109,-0.260698469552344,-0.3963661541059725,-0.2282424001818977
11.27270645,-0.1482117093499855,-0.4232371182171385,-0.30386686374357613
11.27746182,-0.02606504070987392,-0.45264592954509086,-0.38014918823271393
11.28221718,0.10412939097077305,-0.4842580333109629,-0.4564695996762823
11.28697255,0.24049610561855472,-0.517610939123256,-0.5321266246671739
11.29172791,0.38091147967569444,-0.5521166279501125,-0.6063463374707031
11.29648328,0.523026369198013,-0.5870667069590315,-0.6782944239450354
11.30123864,0.664296098594713,-0.6216405323922828,-0.7470908341836804
11.30599401,0.8020175089973869,-0.6549164809438888,-0.8118266871645445
11.31074932,0.9333725191233099,-0.685886489225188,-0.8715829742143649
11.31550468,1.0554774174369141,-0.7134738995889309,-0.9254504987056493
11.32026005,1.16543688736225,-0.736554551345667,-0.9725504082820207
11.32501541,1.2604015793235992,-0.7539809432740225,-1.0120546430981343
11.32977078,1.3376278969322666,-0.7646091711476062,-1.0432056499077247
11.33452614,1.3945385683422038,-0.7673282174613973,-1.065334793827769
11.33928151,1.4287825287717197,-0.7610910434739077,-1.0778790195646903
11.34403687,1.4382926400096978,-0.7449468092386176,-1.080395445869764
11.34879224,1.4213398076861765,-0.7180734287268704,-1.072573695813682
11.3535476,1.3765821197556352,-0.6798095585748241,-1.0542458543441202
11.35830296,1.3031077180737096,-0.6296850259549734,-1.02539399806155
11.36305833,1.2004702322557936,-0.5674486309521581,-0.9861552642570914
11.36781369,1.0687157566467878,-0.49309222125890906,-0.9368244264050309
11.37256906,0.908400541470461,-0.40686994344527544,-0.877853932592311
11.37732442,0.7205987971562046,-0.30931163622646146,-0.8098513522335646
11.38207979,0.5069002678333896,-0.2012294533584015,-0.7335741727033087
11.38683515,0.26939750130545526,-0.08371698664190384,-0.6499218948532591
11.39159046,0.010663012183016303,0.04185960404418156,-0.5599253943415227
11.39634583,-0.2662832121406627,0.17387866908915098,-0.46473354222266916
11.40110119,-0.5580151878087768,0.31048826823906706,-0.3655971126656488
11.40585656,-0.8607505290591166,0.44963909167784116,-0.26385004997917205
11.41061192,-1.1704071481690212,0.5891244019714763,-0.1608882248521146
11.41536729,-1.482665940044923,0.7266260170371349,-0.05814588361441542
11.42012265,-1.7930382608530329,0.8597651116976402,0.04292991548607579
11.42487802,-2.0969369731077623,0.9861564186790356,0.14090648203103068
11.42963338,-2.3897498194410605,1.1034642663484981,0.23439378389576287
11.43438875,-2.666913897850973,1.2094588048712334,0.32207323962225876
11.43914411,-2.9239900372858556,1.3020707470373003,0.402726315712699
11.44389948,-3.1567359098015166,1.3794429844206213,0.4752621668331008
11.44865484,-3.361176761166082,1.4399775311828256,0.5387435190407415
11.4534102,-3.5336726933421625,1.4823763924157132,0.5924099863616155
11.45816552,-3.6709814879748985,1.5056751457069144,0.6356980289080414
11.46292088,-3.7703160188695026,1.5092682564977875,0.6682568058825626
11.46767625,-3.8293953634367517,1.4929254112308032,0.6899592497978877
11.47243161,-3.8464887890359885,1.4567984373460707,0.700907790401573
11.47718698,-3.8204518612928924,1.401418674845074,0.7014342892856251
11.48194234,-3.750753999006508,1.3276849586030244,0.6920939085269625
11.4866977,-3.637496885075914,1.2368426519484539,0.6736528257271961
11.49145307,-3.4814232356234225,1.1304544290643659,0.6470699170659817
11.49620843,-3.283915530752784,1.0103637269792638,0.6134727500620599
11.5009638,-3.046984420851011,0.878651969990415,0.5741284470741903
11.50571916,-2.7732466433547405,0.7375908053526162,0.5304101864962267
11.51047453,-2.4658924193670058,0.5895906764592478,0.483760288837124
11.51522989,-2.128642452246304,0.4371470985705095,0.43565097953746507
11.51998526,-1.7656948265259527,0.2827859951097938,0.387544023680361
11.52474062,-1.3816623079033692,0.12900940492875637,0.3408504881860902
11.52949598,-0.9815007711754252,-0.021757209921088972,0.2968919053964278
11.5342513,-0.5704297252547356,-0.16721493186513608,0.25686408848351894
11.53900666,-0.15384615172540086,-0.3052376280341225,0.22180478253356414
11.54376203,0.2627668863181525,-0.4339135886804868,0.19256622347957927
11.54851739,0.6739351865987867,-0.5515818189258441,0.16979351957493008
11.55327276,1.0742900294115074,-0.6568623657082505,0.15390956860255203
11.55802812,1.4586644514957516,-0.7486801847243494,0.14510698320445078
11.56278348,1.8221870350558793,-0.8262821724140944,0.1433472246613051
11.56753885,2.1603710190414662,-0.8892471078630375,0.14836685430129182
11.57229421,2.4691965447458517,-0.9374883712104841,0.15969051762844313
11.57704958,2.7451839194183854,-0.971249430319539,0.1766499978703462
11.58180494,2.985455923969511,-0.9910922164206125,0.19840843163186125
11.58656031,3.18778740595299,-0.9978786411062532,0.22398858610148198
11.59131567,3.3506406858326216,-0.9927456390753335,0.2523039675932042
11.59607098,3.473185657561687,-0.9770742500924832,0.28219147412979106
11.60082635,3.5553038729972934,-0.9524533759765466,0.31244432499097563
11.60558171,3.5975763489758745,-0.9206389604685473,0.3418440962434756
11.61033708,3.601255309366006,-0.8835094387254181,0.36919085409484625
11.61509244,3.568220554246991,-0.8430183872717437,0.3933305912181235
11.61984781,3.50092161514551,-0.8011453742202067,0.4131794141541361
11.62460317,3.402307288319804,-0.7598460641366404,0.4277441801007478
11.62935854,3.275744516885143,-0.7210026725565104,0.43613951750499136
11.6341139,3.124928898781197,-0.6863758908838453,0.43760136876961764
11.63886927,2.9537893172654828,-0.6575594104271314,0.4314973518069151
11.64362463,2.7663893163310718,-0.6359381604999119,0.4173343428778671
11.64837994,2.5668278752854934,-0.622651335194078,0.3947637353344458
11.65313531,2.3591421819441845,-0.6185612123428624,0.36358483235575084
11.65789067,2.147214875239137,-0.6242286630194536,0.3237467951362215
11.66264604,1.9346880409305711,-0.6398961088780158,0.27534950148032916
11.6674014,1.7248860129998467,-0.6654785082274737,0.21864358328598996
11.67215677,1.5207487689106218,-0.7005627434184685,0.15402981302359103
11.67691213,1.3247774157736898,-0.7444155486276941,0.08205790483465696
11.6816675,1.1389929505892986,-0.7959998679549105,0.0034246897899799836
11.68642286,0.9649091450082392,-0.8539992802971986,-0.08102847823068327
11.69117823,0.8035200583464734,-0.9168498818369615,-0.17031932453136372
11.69593359,0.6553023276573297,-0.9827787907681675,-0.26332958369067855
11.70068895,0.5202320261445297,-1.0498482419813076,-0.3588116416029412
11.70544427,0.39781552606845505,-1.1160040791923334,-0.4553973136209842
11.71019963,0.2871334543070095,-1.1791273331872465,-0.55160919403132
11.714955,0.1868964933436253,-1.237087500142659,-0.6458749884088305
11.71971036,0.09551146446898394,-1.2877961044672337,-0.7365451788160432
11.72446572,0.011155841347924357,-1.3292591458974892,-0.8219142732086087
11.72922109,-0.06814141080543264,-1.3596270888413127,-0.9002457595376796
11.73397645,-0.1444149840762762,-1.3772411500827035,-0.9698007286110879
11.73873182,-0.2196768349136163,-1.3806747745935717,-1.0288699542400541
11.74348718,-0.2958308154555307,-1.3687693527354934,-1.0758090301830492
11.74824255,-0.37459092220871887,-1.3406634188681694,-1.1090759671070942
11.75299791,-0.45740570667750463,-1.2958147737039407,-1.1272704576170005
11.75775322,-0.545391264213303,-1.2340151822784338,-1.1291738340391029
11.76250859,-0.639275008078453,-1.1553975073041682,-1.1137885837368753
11.76726395,-0.7393521480754043,-1.0604353352416844,-1.0803761614128795
11.77201932,-0.8454564340390048,-0.9499353317467906,-1.028491756763134
11.77677468,-0.9569463054228639,-0.8250227175926037,-0.9580146464994748
11.78153005,-1.0727071239769765,-0.6871203809536023,-0.8691727869052275
11.78628541,-1.1911696738756838,-0.5379222350115253,-0.7625603883829285
11.79104078,-1.310344609856127,-0.3793614924241803,-0.6391473554731311
11.79579614,-1.4278720355836076,-0.2135745645550745,-0.5002796705543718
11.80055151,-1.5410849170329173,-0.04286130971320416,-0.34767004091446196
11.80530682,-1.6470845936492464,0.1303576422244477,-0.18337840996058827
11.81006218,-1.7428262573946798,0.30358576528075254,-0.009782246527063816
11.81481755,-1.8252119400535116,0.47429699505229306,0.17046313568130528
11.81957291,-1.8911882948397158,0.6399828543493288,0.3544736209416133
11.82432828,-1.9378462892933124,0.7981996319171135,0.5391937254297259
11.82908364,-1.962519848275731,0.9466148935673232,0.721461092044003
11.83383901,-1.9628804992774933,1.083052594535216,0.8980763785223548
11.83859437,-1.9370251736166015,1.2055360481565487,1.0658765749486285
11.84334974,-1.883554499628088,1.3123279915540467,1.2218095529687254
11.8481051,-1.801639178826537,1.4019669775023063,1.3630074988514487
11.85286041,-1.6910723535492385,1.4732993177130076,1.4868568337084074
11.85761578,-1.5523062449123526,1.5255058123171552,1.5910622881679328
11.86237114,-1.386471753677404,1.5581225300956703,1.673702978869768
11.86712651,-1.1953801654983565,1.5710549609725601,1.733278624026572
11.87188187,-0.9815065785841113,1.564584952194015,1.7687444174357039
11.87663724,-0.7479551682003904,1.5393699654653799,1.7795335265958685
11.8813926,-0.49840690808245036,1.49643435331728,1.7655666582268847
11.88614796,-0.23705086860350466,1.437152544331375,1.7272486147848178
11.89090333,0.03149931426159452,1.363224240073571,1.6654522284346198
11.89565869,0.3023017779774299,1.2766419506028588,1.5814904901248716
11.90041406,0.5701931973566495,1.1796514191648964,1.4770780764395484
11.90516937,0.829903303759151,1.0747057015907822,1.3542837984828493
11.90992474,1.076174280073023,0.9644138663075433,1.2154757373710894
11.9146801,1.3038820136566232,0.8514854617242675,1.0632609762709162
11.91943546,1.5081561191661899,0.7386720519928912,0.9004218848952168
11.92419083,1.684495645892334,0.6287072392589925,0.7298508677711795
11.92894619,1.8288774737231879,0.5242466582790665,0.5544853733486891
11.93370156,1.9378545914529124,0.4278094381420946,0.37724480139672023
11.93845692,2.0086417405273855,0.34172257318858174,0.20097075797191022
11.94321224,2.0391862771063067,0.2680695363547228,0.02837189685247175
11.9479676,2.0282225239581955,0.2086443141402944,-0.1380256429970759
11.95272296,1.975308320626475,0.16491185713972006,-0.2959214329125888
11.95747833,1.880842916713807,0.13797573793582002,-0.4432770429921657
11.96223369,1.7460657848723502,0.12855360205435173,-0.5783450919750155
11.96698906,1.5730363621593901,0.13696079810688655,-0.6996909069781013
11.97174442,1.3645951654271384,0.16310238794909998,-0.8062067960236304
11.97649979,1.1243071653800956,0.20647357135427252,-0.8971190710921415
11.98125515,0.8563887331475994,0.2661684137305581,-0.9719880788616917
11.98601046,0.5656198759458856,0.34089663814934834,-1.030701601783594
11.99076583,0.25724383780899085,0.42900813072745925,-1.07346208251602
11.99552119,-0.06314355576857306,0.5285247066754447,-1.1007681978361263
12.00027656,-0.3897121920388268,0.6371785885671905,-1.113391363603682
12.00503192,-0.7165208160669443,0.7524569548339398,-1.112347793288408
12.00978729,-1.037642136157503,0.8716518228658819,-1.0988667646760564
12.01454265,-1.3472869649979538,0.9919144371624184,-1.0743557781846143
12.01929802,-1.6399245064377144,1.1103132403729024,-1.04036331907647
12.02405338,-1.9103960010920562,1.2238944167128438,-0.9985399652946969
12.02880869,-2.1540191147554215,1.3297439165434441,-0.9505986109342424
12.03356406,-2.366680688880992,1.4250498013964514,-0.898274599119513
12.03831942,-2.544915766948432,1.507163693868322,-0.8432865728385839
12.04307479,-2.6859711572331233,1.5736600799357077,-0.7872988531126331
12.04783015,-2.7878521825912985,1.622392195678226,-0.7318861361284318
12.05258552,-2.8493516916768544,1.6515432394600627,-0.678501261034814
12.05734088,-2.870060853213322,1.6596716874673332,-0.628446735767392
12.06209625,-2.8503617145707385,1.645749557859073,-0.5828506190907453
12.06685161,-2.7914019657036246,1.6091925687403534,-0.5426472449623385
12.07160692,-2.6950527956502977,1.5498812686991545,-0.5085631444071176
12.07636229,-2.5638511463382185,1.4681723851794195,-0.48110837546048285
12.08111765,-2.400928042873637,1.3648998330984268,-0.4605733187673188
12.08587302,-2.2099249988168275,1.2413650498226343,-0.44703084114085784
12.09062838,-1.9949007514739674,1.099316567563696,-0.4403435789651253
12.09538375,-1.7602307732695732,0.9409189941444611,-0.44017595526687725
12.10013911,-1.5105021321785652,0.7687118409669825,-0.44601042458194334
12.10489448,-1.2504063403131034,0.5855589056572014,-0.4571673420145255
12.10964979,-0.9846328379043862,0.39458917892357354,-0.4728277793348694
12.11440515,-0.7177657108497598,0.19913049312969494,-0.49205856370233475
12.11916052,-0.45418613239133265,0.002637356280080934,-0.5138387957434666
12.12391588,-0.19798285147377281,-0.19138538786955184,-0.5370871141186598
12.12867125,0.047127178496684075,-0.37946127181813155,-0.5606890114958542
12.13342661,0.2778662239236613,-0.5582213676578499,-0.5835235668599483
12.13818198,0.4914497813985746,-0.7244819094067148,-0.6044890341963735
12.14293734,0.685626090322255,-0.8753183626522054,-0.6225268113098033
12.14769265,0.8587004790459071,-1.008133966377146,-0.636643400972263
12.15244802,1.0095443108790674,-1.1207208664788342,-0.6459300678977253
12.15720338,1.137588738681067,-1.2113121135308116,-0.6495799866095205
12.16195875,1.2428039122305075,-1.27862300701179,-0.6469027612673679
12.16671411,1.3256646952727702,-1.3218805308844792,-0.6373362706940402
12.17146948,1.3871043235881158,-1.3408399359068732,-0.6204558435653571
12.17622484,1.4284577590452532,-1.335787875713348,-0.5959807989837851
12.18098015,1.4513967584574954,-1.3075318876269522,-0.5637784012408937
12.18573552,1.457858873603147,-1.257376413866461,-0.5238652812812337
12.19049088,1.449972724659319,-1.1870859706088113,-0.47640637591747925
12.19524625,1.4299819393849815,-1.0988364761744909,-0.42171143107396153
12.20000161,1.4001701226675067,-0.9951561295032927,-0.36022910853896434
12.20475698,1.3627891164402626,-0.8788575698172234,-0.29253873012946824
12.20951234,1.3199926324580729,-0.7529633322485737,-0.21933969476798423
12.21426765,1.2737770968555862,-0.6206268285904342,-0.14143862008026914
12.21902302,1.2259312456059501,-0.4850512170023953,-0.05973429680726867
12.22377838,1.1779956664822127,-0.34940857365258593,0.024799396545674385
12.22853375,1.1312331104318993,-0.2167617417862853,0.11113239373016566
12.23328911,1.0866100088918085,-0.08999111298003111,0.1981988426195493
12.23804448,1.0447892489337254,0.028271601482654406,0.2849186078970233
12.24279984,1.0061338896382341,0.13570081431361533,0.37021939269952964
12.2475552,0.9707211631737855,0.23032424419245623,0.4530589293292392
12.25231057,0.9383658026149483,0.310558719472019,0.5324466381998496
12.25706588,0.9086514828387249,0.37523387633852756,0.6074641242254445
12.26182125,0.8809689556775078,0.42360342881249263,0.677283874592398
12.26657661,0.8545593084521955,0.45534409451062735,0.7411855446353623
12.27133198,0.8285606769206099,0.4705426551265325,0.7985692720578962
12.27608734,0.8020566994289015,0.46967200098703477,0.8489655451084811
12.2808427,0.7741250081036364,0.4535573422654356,0.8920412656018308
12.28559807,0.7438841144039887,0.42333405429471144,0.927601786970257
12.29035338,0.7105371586679478,0.3803988516469743,0.9555888617845616
12.29510875,0.6734111533247938,0.3263561479762056,0.97607459232081
12.29986411,0.6319905518412117,0.26296155084618683,0.9892516327098282
12.30461948,0.5859442124288563,0.19206445996652957,0.9954200347031225
12.30937484,0.5351450874487116,0.11555168318258288,0.9949712549722729
12.3141302,0.47968224585913244,0.035293859806474405,0.9883699441903833
12.31888557,0.41986511648946606,-0.04690370908907474,0.976134211474974
12.32364088,0.3562201139473163,-0.1293444703973981,0.9588150989097232
12.32839625,0.28948006582686336,-0.21047720699069622,0.9369760105437707
12.33315161,0.22056708849388937,-0.28892506322627814,0.9111728228176054
12.33790698,0.15056974842755086,-0.3635066008893612,0.8819353642507198
12.34266234,0.08071548791515823,-0.43324880784688974,0.849750895453107
12.3474177,0.012339381808856149,-0.49739229053142847,0.8150501478401275
12.35217302,-0.05314967599980709,-0.5553891561636433,0.7781963913654755
12.35692838,-0.11430427945874623,-0.606894321271286,0.7394778988613271
12.36168375,-0.1696743027472022,-0.6517511631040578,0.6991040587918833
12.36643911,-0.21784227742842174,-0.6899725567844205,0.6572052617441804
12.37119448,-0.2574575873861039,-0.721718413293092,0.6138365516369603
12.37594984,-0.28726886253503514,-0.7472708541972902,0.5689848940293659
12.3807052,-0.3061541014318017,-0.7670081330473316,0.5225797760169426
12.38546052,-0.3131481906648231,-0.7813783467853501,0.47450672125428617
12.39021588,-0.3074676046900363,-0.790873880688392,0.42462318621756046
12.39497125,-0.28853215665968507,-0.7960074052587963,0.37277620583045423
12.39972661,-0.25598372671025865,-0.7972901006004428,0.31882108271378273
12.40448198,-0.20970192166326712,-0.795212629677786,0.2626403676863375
12.40923734,-0.14981662369651372,-0.7902292227756759,0.2041623611731887
12.4139927,-0.07671736886535045,-0.7827450790176338,0.14337837595808883
12.41874802,0.008940537866632771,-0.7731071453212054,0.0803580402501727
12.42350338,0.10623331145300403,-0.7615982055221671,0.015261984304047235
12.42825875,0.21396957124615734,-0.7484341062761619,-0.051648658650575135
12.43301411,0.3306950579344423,-0.7337638624673047,-0.1200063978004478
12.43776948,0.4547014475945639,-0.7176723220389774,-0.18933550917324107
12.44252484,0.5840395305684651,-0.7001850268450118,-0.2590543270218963
12.44728015,0.7165369984696577,-0.6812748817230024,-0.3284817331391741
12.45203552,0.8498210323343653,-0.6608702385456315,-0.39684771430896426
12.45679088,0.9813458116592672,-0.6388640142339702,-0.4633077052522074
12.46154625,1.1084249705287752,-0.6151234881429096,-0.526960301332918
12.46630161,1.2282689165365723,-0.5895004602347431,-0.5868678192274055
12.47105698,1.3380268052207183,-0.5618414926833463,-0.6420791048994238
12.47581229,1.4348328317552208,-0.5319980003196907,-0.6916539312961345
12.48056765,1.5158563655792083,-0.49983599620720015,-0.7346882866318257
12.48532302,1.5783553135160555,-0.4652453339391738,-0.7703398234694497
12.49007838,1.6197319531440943,-0.42814831415768323,-0.7978527176952531
12.49483375,1.637590332183051,-0.3885075361910546,-0.8165811764873566
12.49958911,1.629794184689428,-0.3463328753282926,-0.8260108397970336
12.50434448,1.5945241755425437,-0.3016874533887032,-0.8257773475756808
12.50909979,1.5303331567255614,-0.25469244869529223,-0.8156814036487492
12.51385515,1.4361980094681663,-0.20553056710060236,-0.7956997646721832
12.51861052,1.3115665648691202,-0.15444797552178988,-0.765991721747515
12.52336588,1.1563980536969483,-0.10175449115420108,-0.7269008163189424
12.52812125,0.9711955458479551,-0.04782182973378015,-0.6789517241558726
12.53287661,0.7570289118295975,0.006920250977873988,-0.6228424290715028
12.53763192,0.5155469789725131,0.06199001972991625,-0.5594319705802066
12.54238729,0.24897776479124842,0.11686208060896104,-0.48972417386704387
12.54714265,-0.039884055895414244,0.1709778526261783,-0.4148478538206013
12.55189802,-0.34770296513375626,0.22375803955355578,-0.3360340340775564
12.55665338,-0.670641843910559,0.2746167926534765,-0.2545907479409781
12.56140875,-1.004414395782866,0.3229771543639542,-0.1718760009223374
12.56616406,-1.3443501039754135,0.36828726679362245,-0.08926948140372126
12.57091942,-1.685470679044308,0.4100367427382231,-0.008143609863109285
12.57567479,-2.022576581483382,0.4477725358872382,0.07016548078806156
12.58043015,-2.3503418667299374,0.48111361687227683,0.14438644125613315
12.58518552,-2.6634153103687215,0.5097637670170115,0.21334008904302307
12.58994088,-2.9565255381001063,0.5335218440438477,0.27596509736956837
12.59469619,-3.2245877155216918,0.5522889530887388,0.33134142261579125
12.59945156,-3.4628092525824905,0.5660720693603041,0.37871092504397696
12.60420692,-3.66679195032729,0.5749838008771162,0.4174946688590723
12.60896229,-3.832628064426275,0.5792381445689014,0.4473064296866658
12.61371765,-3.9569878794454487,0.579142268871502,0.46796199179427456
12.61847296,-4.037196575520454,0.5750845416493368,0.47948388520327684
12.62322833,-4.071298417885192,0.567519203599996,0.48210129522882705
12.62798369,-4.058106599903524,0.5569482536248396,0.47624497423558554
12.63273906,-3.9972374106767385,0.5439012540666426,0.46253709656180386
12.63749442,-3.8891277677186604,0.5289138720211781,0.4417761202394835
12.64224979,-3.735035543377746,0.5125060423723745,0.41491685017985475
12.64700515,-3.5370225113647895,0.49516066563537936,0.38304603420088196
12.65176046,-3.2979201377495224,0.47730373820225264,0.3473539638295969
12.65651583,-3.021278829595804,0.4592867550831482,0.30910269439358923
12.66127119,-2.7113016247922888,0.44137212854706204,0.2695916400149476
12.66602656,-2.3727636511408434,0.4237222353502469,0.23012143216113626
12.67078192,-2.0109189969378662,0.40639254807249414,0.19195704574070158
12.67553724,-1.6313969177945467,0.38932913178440465,0.15629128358789765
12.6802926,-1.240089555645991,0.37237060578686265,0.12420975965869213
12.68504796,-0.8430335653679388,0.35525449095292894,0.0966585280452378
12.68980333,-0.4462882288054023,0.33762769426558226,0.07441546670286435
12.69455869,-0.05581277824446896,0.3190607293918643,0.05806644103936162
12.69931401,0.3226542590005182,0.29906513947150737,0.0479871440850597
12.70406937,0.6837108584615357,0.27711347837982153,0.04433133894323485
12.70882474,1.0223996537872089,0.2526611216613697,0.047026018666782174
12.7135801,1.3343057985705398,0.22516911982891863,0.0557737533079701
12.71833546,1.615642101826312,0.1941272757333104,0.07006222186215391
12.72309078,1.8633193013930935,0.15907662410193402,0.08918064099393787
12.72784614,2.0749997072283763,0.11963051407144643,0.11224251912261053
12.73260151,2.249132872610117,0.07549354329369083,0.13821390144782084
12.73735687,2.3849724215639636,0.026477663944289256,0.16594604643527514
12.74211224,2.482573660736881,-0.027485124118107208,0.1942113028626199
12.74686755,2.542772118105506,-0.08633396084867022,0.22174085027132762
12.75162291,2.567143662735769,-0.14987452476212287,0.24726293022063897
12.75637828,2.5579473521824827,-0.2177788186143383,0.2695402306846822
12.76113364,2.518052611383296,-0.28958934920658536,0.28740518574224555
12.76588901,2.4508527562404105,-0.3647275329335672,0.29979210796745004
12.77064437,2.360167226363794,-0.4425059852253293,0.305765269453875
12.77539968,2.250135176329436,-0.5221441915843908,0.30454227483416785
12.78015505,2.1251032860291694,-0.6027869215107453,0.29551230975213655
12.78491041,1.989510781734101,-0.6835246434300859,0.2782490839295036
12.78966578,1.847774704695965,-0.7634151348361451,0.25251850362964356
12.79442114,1.7041784197729735,-0.8415054598003401,0.21828129234689378
12.79917645,1.5627662229206984,-0.9168535052061813,0.1756909246439573
12.80393182,1.4272466891183586,-0.9885483242357704,0.12508734476168065
12.80868718,1.3009071124511953,-1.055728625281758,0.0669870108388241
12.81344255,1.186541042237093,-1.1175988595256376,0.002069841342653942
12.81819791,1.0863905287763698,-1.1734424929450975,-0.06883635177756249
12.82295323,1.0021042738239876,-1.222632190313686,-0.14477337217236402
12.82770859,0.9347124466585262,-1.2646367822491624,-0.22467154829207323
12.83246395,0.8846184875086855,-1.2990250251827677,-0.3073695409469062
12.83721932,0.8516077856760237,-1.3254662932844423,-0.39163459714864784
12.84197468,0.8348726983334597,-1.343728457119376,-0.4761828556680459
12.84673,0.8330529751004576,-1.3536733031967692,-0.5596993731389932
12.85148536,0.8442902800638158,-1.3552499290878843,-0.6408576063626529
12.85624073,0.8662951638802598,-1.3484866081235065,-0.7183381541828786
12.86099609,0.8964245410410798,-1.3334816538624026,-0.7908466284681813
12.8657514,0.9317674783578278,-1.310393826288633,-0.8571305857540326
12.87050677,0.9692369070656934,-1.2794328088272682,-0.9159955060170337
12.87526213,1.0056647390008133,-1.2408502487458453,-0.9663198495142248
12.8800175,1.037897802471051,-1.1949317954297773,-1.0070692530090901
12.88477286,1.0628920192213662,-1.1419904944401347,-1.0373099396620178
12.88952823,1.0778023212699812,-1.0823618041372671,-1.0562214104405039
12.89428354,1.0800659538262676,-1.016400400707195,-1.0631084599170604
12.8990389,1.0674770242526477,-0.9444788316911968,-1.0574125198893718
12.90379427,1.0382504310290614,-0.8669879722859547,-1.0387222868902286
12.90854963,0.9910736320542843,-0.7843391367017685,-1.0067835410644967
12.91330494,0.9251450763811464,-0.6969676019176755,-0.961508018377559
12.91806031,0.8401985126862781,-0.6053372157654314,-0.902981155944041
12.92281567,0.7365127847688668,-0.5099456874301007,-0.831468488370629
12.92757104,0.6149071133109567,-0.4113300981471839,-0.7474204282064018
12.9323264,0.47672223154853494,-0.31007212558130515,-0.6514751163696966
12.93708171,0.32378808238387335,-0.20680245024771787,-0.5444589848300635
12.94183708,0.15837909162454417,-0.10220380982067384,-0.42738464440369034
12.94659244,-0.01684169524850291,0.0029878098211236865,-0.30144570695642475
12.95134781,-0.19888808763585022,0.107984307807561,-0.16800818250735747
12.95610317,-0.3845241083146069,0.21194930950576427,-0.028598160682468607
12.96085849,-0.5703433434368514,0.3140049969128447,0.1151144116289464
12.96561385,-0.7528522672710188,0.4132420844306918,0.26133591927785726
12.97036921,-0.9285554466031667,0.5087329531228526,0.40817316244381563
12.97512458,-1.0940405032131786,0.599547800694628,0.5536611291677158
12.97987994,-1.2460607427736297,0.6847735031075525,0.695794124130587
12.98463526,-1.3816134465757033,0.7635347259811184,0.8325597991663459
12.98939062,-1.498011966346979,0.8350166794263485,0.9619755094980323
12.99414599,-1.5929499557297877,0.8984887873212405,1.0821262940019374
12.99890135,-1.6645563051938366,0.9533284477311256,1.1912036471004406
13.00365666,-1.7114396087089854,0.9990439994124418,1.2875441185155636
13.00841203,-1.7327212681005832,1.0352959824709922,1.3696666550408108
13.01316739,-1.7280566231228254,1.0619157900548568,1.4363075011614552
13.01792276,-1.6976437727443967,1.0789208519694409,1.4864514223962826
13.02267807,-1.6422200200861348,1.0865255689177284,1.5193580270952143
13.02743343,-1.5630461273091212,1.0851473254026065,1.534582055475728
13.0321888,-1.4618788074883073,1.0754070467499548,1.5319866859471862
13.03694416,-1.3409321094271407,1.0581239267634897,1.511749171512894
13.04169953,-1.2028285697321244,1.034304132366368,1.4743584408855823
13.04645484,-1.0505412144894437,1.0051234855304876,1.4206046450912115
13.0512102,-0.8873276893582932,0.9719043260632155,1.351560962746941
13.05596557,-0.7166579788866914,0.9360869657113905,1.2685582665679564
13.06072093,-0.5421373383908324,0.8991963472421256,1.17315348691065
13.06547625,-0.3674261980952549,0.8628047128311181,1.0670926870868962
13.07023161,-0.1961589019383496,0.8284912548319128,0.952269998810775
13.07498698,-0.03186320536534107,0.7977998602024166,0.8306836627790898
13.07974234,0.12211752823595062,0.7721961608001223,0.7043904815965331
13.0844977,0.2626975277236059,0.7530251610955918,0.5754600153995255
13.08925302,0.3871153936939936,0.7414707304324945,0.44592982544219933
13.09400838,0.4929927829946273,0.7385182179519548,0.317762989647338
13.09876375,0.5783835276574196,0.7449213746450583,0.19280897562729998
13.10351911,0.6418119852139365,0.7611746500060173,0.07276876935644049
13.10827442,0.6822997431458512,0.7874917744050549,-0.04083506153215264
13.11302979,0.6993801651049257,0.8237913498205465,-0.14668291966446403
13.11778515,0.69310064085697,0.8696899604656514,-0.24367710977499984
13.12254052,0.6640127554283061,0.9245030909856791,-0.33095509626689107
13.12729583,0.6131509055561359,0.9872539120969553,-0.40789716866048936
13.13205119,0.5420001580036911,1.0566897691616648,-0.47412868997038177
13.13680656,0.45245437078694045,1.1313059945656427,-0.5295171629391925
13.14156192,0.3467657948118242,1.2093764657307993,-0.5741643897447031
13.14631724,0.22748754695986198,1.2889901528278358,-0.6083940345562987
13.1510726,0.09741049742850816,1.3680927490562456,-0.6327349347503671
13.15582796,-0.0405037611733019,1.4445323560230687,-0.6479005523748975
13.16058333,-0.18319210795617072,1.5161081099003644,-0.6547650149131611
13.16533869,-0.32755945688193766,1.5806205812745,-0.6543362605178482
13.17009401,-0.4705469116014444,1.6359227616225724,-0.6477268706873396
13.17484937,-0.6091968100329097,1.6799704594126852,-0.6361232348211215
13.17960474,-0.7407130876797641,1.7108709652989793,-0.6207537394653029
13.1843601,-0.8625155692522696,1.7269289048998984,-0.6028567057866464
13.18911541,-0.9722870203900279,1.726688275646489,-0.5836488098353022
13.19387078,-1.0680120459164395,1.7089697581559224,-0.5642947118671318
13.19862614,-1.1480071975355317,1.6729024999557602,-0.5458785954916138
13.20338151,-1.2109419405624673,1.6179496878224842,-0.5293782770315996
13.20813682,-1.2558504143381626,1.543927352382661,-0.5156424914331911
13.21289218,-1.2821341936677404,1.451015983186753,-0.5053718928978647
13.21764755,-1.2895565099816466,1.339764672852209,-0.4991042245566153
13.22240291,-1.2782286137382832,1.2110876540527822,-0.4972040106546529
13.22715822,-1.2485891481528508,1.0662532421248054,-0.49985700744645223
13.23191359,-1.2013775542090444,0.9068653475212107,-0.5070695186520665
13.23666895,-1.1376026346365895,0.7348378742162845,-0.5186725432492324
13.24142427,-1.0585074674845727,0.5523624696866439,-0.5343305832945495
13.24617963,-0.9655318766584069,0.361870236056459,-0.5535548026597461
13.250935,-0.8602736380306757,0.16598814696950476,-0.5757200992949528
13.25569036,-0.7444495291240878,-0.032508962818947516,-0.6000855393716535
13.26044572,-0.6198572243612234,-0.2307498618437692,-0.625817506337057
13.26520104,-0.48833890479766645,-0.42582078026970577,-0.6520148451732205
13.2699564,-0.35174730008287025,-0.6148205377912874,-0.6777352345956722
13.27471177,-0.2119147198843225,-0.794915777238851,-0.7020219991655202
13.27946708,-0.07062547019434291,-0.963395127365733,-0.7239305790437058
13.28422244,0.07040810618365978,-1.1177211339452062,-0.7425539049985178
13.28897781,0.2095658703529818,-1.2555788432035888,-0.7570459777272355
13.29373317,0.34533644351515896,-1.3749199957392173,-0.766643023047291
13.29848848,0.4763302229834498,-1.4740018911144335,-0.7706816893168152
13.30324385,0.6012890916632766,-1.551420110624512,-0.7686138709321206
13.30799921,0.7190931219209918,-1.6061344346318784,-0.7600178786520294
13.31275458,0.8287646194130609,-1.6374874566590514,-0.7446058260542944
13.31750994,0.9294698743707966,-1.6452155736210565,-0.722227250662939
13.32226526,1.0205189870807425,-1.6294522140632928,-0.6928691263644292
13.32702062,1.101364111058859,-1.5907233481082665,-0.6566525402430786
13.33177598,1.1715964129198715,-1.5299354986890703,-0.6138263945564693
13.3365313,1.2309419856102883,-1.4483566387946643,-0.5647585496407026
13.34128666,1.279256877420106,-1.3475905093775142,-0.5099248459463318
13.34604203,1.3165213209476696,-1.2295450231414864,-0.44989643579426947
13.35079739,1.3428331732503815,-1.0963955272146102,-0.385325822843691
13.3555527,1.3584005204557041,-0.9505437801613789,-0.31693195710165956
13.36030807,1.363533365603382,-0.7945735542238721,-0.24548467534468799
13.36506343,1.358634312742147,-0.6312038015976656,-0.17178872269520415
13.3698188,1.3441881841292278,-0.46324032511407537,-0.09666755266779006
13.37457411,1.3207505573052276,-0.2935268719027794,-0.020947089328276026
13.37932948,1.288935278645258,-0.12489652789910319,0.05456035060000806
13.38408484,1.2494010926630827,0.039875763329704085,0.12907173980051131
13.38884015,1.2028376151037472,0.19811879687747166,0.20184833854019815
13.39359552,1.149950966361195,0.34730812444422265,0.272209667107821
13.39835088,1.0914494634863476,0.485105868556001,0.33954606729227155
13.40310625,1.0280298368349925,0.6093967748088354,0.40332944404534
13.40786156,0.9603644837822228,0.7183200093101231,0.4631217808533165
13.41261692,0.8890902901697706,0.8102962724590964,0.5185810549072376
13.41737229,0.8147995353178392,0.8840498635682643,0.5694642433871676
13.42212765,0.7380333462402522,0.9386253947622099,0.6156272099581659
13.42688296,0.6592780818736442,0.973398918477806,0.6570213867282352
13.43163833,0.5789649120186435,0.988083302180108,0.6936873123827548
13.43639369,0.49747271367121965,0.9827277580459962,0.7257452392075073
13.44114906,0.4151342466865064,0.957711515730862,0.7533831666904672
13.44590437,0.3322454002057471,0.913731713981025,0.7768427858571452
13.45065974,0.24907713121526015,0.8517856820289504,0.7964039180425082
13.4554151,0.16588955759979515,0.7731478833606422,0.8123680985906289
13.46017041,0.08294753004243831,0.6793419001769752,0.8250419861296797
13.46492578,0.0005368984890198495,0.5721079434124801,0.8347212700591451
13.46968114,-0.08101938414450865,0.45336647701423244,0.8416757043469826
13.47443651,-0.161346212029431,0.32517864290619947,0.8461358196756112
13.47919182,-0.2400032142519314,0.18970426140990546,0.8482817660864337
13.48394718,-0.3164744174304255,0.04915825777278742,0.8482346238857277
13.48870255,-0.3901614354282533,-0.09423357400244863,0.8460504015286936
13.49345786,-0.46038081946581205,-0.23827851624735244,0.8417168245600177
13.49821322,-0.5263660529710403,-0.3808596054678236,0.8351529165629622
13.50296859,-0.587274501586528,-0.5199760662693171,0.826211285902007
13.50772395,-0.6421994356312875,-0.6537805471660998,0.8146829625849258
13.51247927,-0.6901870367891472,-0.7806122501169901,0.800304577253089
13.51723463,-0.7302580909296007,-0.899025115694916,0.7827676367987159
13.52199,-0.7614338640169155,-1.0078103202123618,0.7617296250208712
13.52674531,-0.782765467951443,-1.1060124598716372,0.7368266385119956
13.53150067,-0.7933658574594228,-1.1929389394883834,0.7076872546236294
13.53625604,-0.7924434655371204,-1.2681622482909625,0.6739473179142665
13.5410114,-0.7793363883055405,-1.3315149906877124,0.6352653231550384
13.54576671,-0.7535459725712891,-1.3830777425489604,0.5913380669331056
13.55052208,-0.7147686413335037,-1.4231600188503222,0.5419162364127739
13.55527744,-0.6629248131254216,-1.4522748605525777,0.4868196021985387
13.56003281,-0.5981838283397327,-1.4711077705992504,0.42595148051430237
13.56478812,-0.520983886579436,-1.4804809432594217,0.3593121257922773
13.56954348,-0.4320461204308444,-1.481313928625801,0.28701070748677987
13.57429885,-0.33238207938767467,-1.4745820442506283,0.20927551643504613
13.57905416,-0.22329406847905267,-1.4612739773985048,0.12646204064631636
13.58380953,-0.10636797401888685,-1.4423501036153707,0.039058553086955425
13.58856489,0.016541591644333876,-1.418703071444966,-0.05231113067209947
13.59332026,0.14333378792650706,-1.3911221632362505,-0.14688803572935172
13.59807557,0.27169143761774395,-1.3602628361139242,-0.24378181273140775
13.60283093,0.39911785256904986,-1.326622677871339,-0.3419781140666318
13.6075863,0.5229799257725873,-1.290524786427694,-0.44034965842382734
13.61234161,0.6405566227996418,-1.2521093083259782,-0.5376709686508893
13.61709698,0.7490918225373139,-1.211333563438292,-0.6326366435088385
13.62185234,0.8458502999604369,-1.167980852885122,-0.7238828995463358
13.62660765,0.9281755226805289,-1.1216777093002577,-0.8100120082114244
13.63136302,0.9935478582867462,-1.0719190173678919,-0.8896191639516114
13.63611838,1.039641768514115,-1.0181001217193193,-0.9613212516624149
13.64087369,1.0643806009272703,-0.9595547607218878,-1.0237869297731845
13.64562906,1.065987673736734,-0.8955974278888328,-1.0757673994176176
13.65038442,1.043032473717717,-0.8255685746729122,-1.1161271836215487
13.65513979,0.994470938921911,-0.7488809346702932,-1.1438741915661887
13.6598951,0.9196789673044936,-0.6650651742152968,-1.1581882960470078
13.66465046,0.8184784728822183,-0.5738130617204672,-1.1584476160730126
13.66940583,0.6911554970218451,-0.4750164002105108,-1.1442516817127135
13.67416114,0.538470067402115,-0.36880008419699484,-1.1154406741559113
13.67891651,0.36165767387796754,-0.2555478208187396,-1.0721099861975751
13.68367187,0.16242239308376255,-0.13591929195802546,-1.014619437535258
13.68842718,-0.05707816171591791,-0.01085782283405761,-0.9435966013132786
13.69318255,-0.2942557658264949,0.11841204639502241,-0.8599338464489653
13.69793791,-0.5461219854112302,0.2503973302687557,-0.7647788670040284
13.70269322,-0.8093255865031476,0.38335958218080296,-0.6595186486281798
13.70744859,-1.0801964305675587,0.5153476002080637,-0.545757008076288
13.71220395,-1.354795302833928,0.6442390158780862,-0.42528603176451374
13.71695932,-1.6289690946201278,0.7677896150156158,-0.30005193029644023
13.72171463,-1.8984107365370109,0.8836889726292136,-0.17211601355228787
13.72647,-2.1587232479356535,0.989620770029493,-0.04361166892097459
13.73122536,-2.4054872226884334,1.0833260073548947,0.08330161458577111
13.73598067,-2.6343310085597884,1.1626672305658963,0.20648599999750136
13.74073604,-2.8410027567552905,1.2256918582946734,0.32387355825782016
13.7454914,-3.0214434230688885,1.270692718480164,0.43351369177298693
13.75024671,-3.1718596985580048,1.2962639840206565,0.5336183760823527
13.75500208,-3.2887957434675865,1.3013508262867757,0.6226039005591726
13.75975744,-3.369202500850939,1.2852912799953515,0.6991278646605501
13.76451276,-3.410503283002492,1.2478490267490434,0.762120305067462
13.76926812,-3.4106542606504116,1.1892360510733373,0.8108079876496765
13.77402348,-3.3681984474451956,1.110124395070723,0.844731091503711
13.7787788,-3.282311765862128,1.011646528307599,0.863751733681356
13.78353416,-3.1528398102811153,0.8953841502606101,0.8680540248572509
13.78828953,-2.9803239934970684,0.7633455454875886,0.8581356000722832
13.79304489,-2.766015878418755,0.6179319086213958,0.8347908273695002
13.7978002,-2.5118786605116563,0.4618933392229176,0.7990861536614889
13.80255557,-2.2205749807592676,0.29827546740560673,0.7523282945119146
13.80731088,-1.8954405140430681,0.1303579025467323,0.6960262051485174
13.81206625,-1.5404430918498708,-0.03841410644262616,0.6318479758964416
13.81682161,-1.160127475783208,-0.2045032533161787,0.5615739679919061
13.82157698,-0.7595462907849175,-0.36435733544821375,0.4870476372381266
13.82633229,-0.3441780425592819,-0.5144882514273795,0.41012557580590786
13.83108765,0.08016643241792129,-0.6515510530221902,0.33262833062864194
13.83584302,0.5074473222434852,-0.7724212661053244,0.2562935263636548
13.84059833,0.9315068563738162,-0.8742687274075726,0.18273273105706944
13.84535369,1.3461855123026303,-0.9546262496111961,0.11339335667184082
13.85010906,1.7454406868722447,-1.011451523956028,0.049526690991647124
13.85486437,2.123464941201926,-1.0431807950994147,-0.007837079947284479
13.85961974,2.474800857490576,-1.0487729956276473,-0.05790627029311332
13.8643751,2.79444957195623,-1.0277432056293,-0.10013721875593962
13.86913041,3.077970170078439,-0.9801845044661731,-0.13423594814849663
13.87388578,3.321567346342941,-0.9067775060270357,-0.1601522697281427
13.87864114,3.5221650375406224,-0.8087871142211704,-0.17806692504213467
13.88339645,3.677464129763141,-0.6880463003349881,-0.1883726111937941
13.88815182,3.7859828029100804,-0.5469269842135907,-0.19164994606759775
13.89290718,3.8470785946619084,-0.3882983908453621,-0.18863958435309017
13.8976625,3.8609518138936973,-0.2154735451169792,-0.180211780109579
13.90241786,3.828630482635912,-0.03214485210474542,-0.1673346979082801
13.90717323,3.7519375069980976,0.15769001962395562,-0.15104270027718922
13.91192854,3.633441245925397,0.3498104857429012,-0.1324056916141182
13.9166839,3.4763910440227885,0.5398619380399341,-0.11250039445262157
13.92143927,3.2846396109825085,0.7234493048415043,-0.09238419598415981
13.92619458,3.062554363430536,0.8962332520732121,-0.07307195671038005
13.93094994,2.8149199993028207,1.054026885384671,-0.05551594357465825
13.93570531,2.546834657508187,1.1928907474537318,-0.040588856998164696
13.94046062,2.263602035568599,1.3092238883486245,-0.02906977781692254
13.94521598,1.9706218052035671,1.3998488248955339,-0.02163277062459555
13.94997135,1.6732805912886601,1.4620883003512257,-0.018837841125691587
13.95472666,1.3768456740280979,1.4938319092702264,-0.021123947680999393
13.95948203,1.0863634469683863,1.493590862744339,-0.028803798996655184
13.96423739,0.8065645215847309,1.4605394321826517,-0.04206021801557756
13.9689927,0.5417772163639383,1.3945419194519018,-0.06094390530737012
13.97374807,0.2958510050980687,1.2961643497973827,-0.0853724858312543
13.97850343,0.0720913230679079,1.1666704620919273,-0.11513076769843228
13.98325875,-0.12679306376507182,1.0080019671980227,-0.1498721818559313
13.98801411,-0.2987291382788048,0.8227434462926803,-0.18912141138128907
13.99276942,-0.44230441720109,0.6140726526927831,-0.23227826165968551
13.99752479,-0.5567769737565593,0.38569734933404093,-0.2786228683424498
14.00228015,-0.6420705337366395,0.14178014768570013,-0.32732238505694367
14.00703546,-0.6987548066368593,-0.11314689687516868,-0.37743933094968657
14.01179083,-0.7280115527271447,-0.3742759401155788,-0.4279418021794923
14.01654619,-0.7315872292430525,-0.6366230788110607,-0.4777157558638993
14.02130151,-0.71173339357437,-0.8951318554989156,-0.5255795570254377
14.02605687,-0.6711363576876835,-1.1447781732146833,-0.5703009386061381
14.03081218,-0.6128378756840713,-1.3806742494581214,-0.6106164624188244
14.03556755,-0.5401488954798381,-1.5981692903835871,-0.6452534855380255
14.04032291,-0.4565586068420326,-1.7929446727293428,-0.6729545325336959
14.04507823,-0.36564116290428866,-1.961101578277131,-0.6925038505836822
14.04983359,-0.27096253326981967,-2.099239228474202,-0.7027557854455249
14.05458895,-0.17598995766464987,-2.2045221087537414,-0.702664467369695
14.05934432,-0.08400640559522765,-2.2747348451792715,-0.6913141447618448
14.06409963,0.001967692122610186,-2.308323691431278,-0.6679493582404555
14.068855,0.07924338859699757,-2.304423892818741,-0.6320040181513598
14.07361031,0.1455210766957637,-2.2628725076779435,-0.5831283451430861
14.07836567,0.19893583813767676,-2.18420657833113,-0.5212125673919035
14.08312104,0.23808927127109925,-2.0696468483278903,-0.4464062507965469
14.08787635,0.26206722740108845,-1.9210675158140595,-0.35913218013809445
14.09263171,0.2704433557288241,-1.7409527912427558,-0.26009381710111656
14.09738708,0.2632688327283374,-1.5323412884597607,-0.15027553693328619
14.10214239,0.24104910896533766,-1.2987595188400065,-0.030935083497066862
14.10689776,0.20470891889028023,-1.0441459758665168,0.09641203094745882
14.11165312,0.155547142518673,-0.7727674893201453,0.23001613837885956
14.11640843,0.09518336370371829,-0.48912969087897623,0.36792467125552347
14.1211638,0.02549812932245007,-0.1978835629966743,0.5080203773162105
14.12591916,-0.051431020564143816,0.09626986336407174,0.6480655169300669
14.13067448,-0.13339569888266503,0.38867454359220505,0.7857508119520932
14.13542984,-0.2181230269286674,0.674812060798075,0.918747702781231
14.14018515,-0.30334037054776,0.950389789826453,1.0447623069923577
14.14494052,-0.3868368074894056,1.21142259499312,1.1615893667647892
14.14969588,-0.46651988439878983,1.4543062211945519,1.2671644340818429
14.15445119,-0.540466450137974,1.6758807387409176,1.3596125835682924
14.15920656,-0.6069665922231977,1.8734826511759481,1.437292070623423
14.16396192,-0.6645599478140277,2.0449845661448403,1.4988315658658
14.16871724,-0.7120639041062273,2.1888216536016443,1.543159880915501
14.1734726,-0.7485934411603933,2.304004463541053,1.5695274274260562
14.17822791,-0.7735725999907149,2.3901180369326673,1.5775189877821063
14.18298328,-0.786737776031696,2.4473076088457155,1.5670576938964689
14.18773864,-0.7881332368026561,2.4762515622106553,1.5384003949145084
14.19249395,-0.7780994356589396,2.4781226342811182,1.4921248440510546
14.19724932,-0.7572548353534424,2.4545386952224115,1.4291093565401258
14.20200468,-0.7264720638718751,2.407504698850933,1.3505057922758643
14.20676,-0.6868493037813657,2.3393476392555126,1.257706897320335
14.21151536,-0.6396778718691001,2.2526465243046703,1.1523091849438496
14.21627067,-0.5864069830896163,2.150159488545758,1.0360726294605056
14.22102604,-0.5286067085735597,2.034750204386637,0.9108784709971705
14.2257814,-0.4679301199031139,1.9093157040235058,0.7786863879264571
14.23053671,-0.40607554939485185,1.7767175931278396,0.6414922010355488
14.23529208,-0.3447497885146189,1.6397184273732932,0.5012871485812012
14.24004744,-0.2856329086201869,1.5009247494195834,0.3600196283802505
14.24480276,-0.2303452434753417,1.3627379666933972,0.21956014916751848
14.24955812,-0.18041694326278646,1.2273139097217818,0.08167007258877203
14.25431343,-0.13726040776444862,1.0965315658616666,-0.05202543477498221
14.2590688,-0.10214583278000192,0.9719711506415242,-0.18005997415668154
14.26382416,-0.07618005028040994,0.8549013724237645,-0.3011438847185159
14.26857948,-0.06028879787344812,0.7462754763166962,-0.4141776001069638
14.27333484,-0.05520250888881832,0.6467354272694164,-0.5182604751961715
14.27809015,-0.06144566873900912,0.5566234137148919,-0.6126952421480397
14.28284552,-0.07932973849474927,0.47599972288148096,-0.6969883148456445
14.28760088,-0.10894960595472948,0.4046659559340219,-0.770846209092909
14.29235619,-0.15018348916761523,0.34219251286757957,-0.8341683860091877
14.29711156,-0.2026961864788724,0.28794927937803794,-0.8870368606448942
14.30186692,-0.2659455389966501,0.2411384849303412,-0.929702949393219
14.30662224,-0.33919194474122705,0.20082876594008506,-0.962571559330767
14.3113776,-0.42151073861292404,0.16598955313284272,-0.9861834490135394
14.31613291,-0.511807229590646,0.1355250009905108,-1.00119591028776
14.32088828,-0.6088341675057966,0.10830678376517319,-1.0083623304050284
14.32564364,-0.7112113968779117,0.08320519169767371,-1.008511090025105
14.33039895,-0.8174474435313153,0.05911806845559239,-1.0025242346192254
14.33515432,-0.9259627681563655,0.034997232688163724,-0.9913163264920251
14.33990963,-1.0351144059511859,0.009872119843722925,-0.9758138468696534
14.344665,-1.1432216897904215,-0.017129537387065314,-0.9569354775799698
14.34942036,-1.248592724265882,-0.04676410179470129,-0.9355735533253516
14.35417567,-1.349551239600874,-0.07965755204517166,-0.9125769392360674
14.35893104,-1.4444634100845455,-0.11629413974896519,-0.8887355532039969
14.3636864,-1.5317641754179037,-0.15700815713412505,-0.8647667170970957
14.36844171,-1.609982560800563,-0.20197876300577808,-0.8413034851849176
14.37319708,-1.6777654592412654,-0.25122779574312704,-0.8188850634066328
14.37795239,-1.733899324133219,-0.3046204892103259,-0.7979494015557687
14.38270776,-1.7773292273892884,-0.3618689995439116,-0.7788280128631653
14.38746307,-1.807174772202994,-0.422538646630715,-0.7617430500289809
14.39221843,-1.822742410927523,-0.4860567721739934,-0.7468066395090353
14.3969738,-1.823533805974856,-0.5517241146047396,-0.7340224430176143
14.40172911,-1.8092499810938665,-0.6187285973791944,-0.7232893758404526
14.40648448,-1.7797911366796804,-0.6861614187594747,-0.7144073683079973
14.41123984,-1.7352521402930237,-0.7530353152831377,-0.707085014050179
14.41599515,-1.6759138467299255,-0.8183048454462326,-0.7009489099471217
14.42075052,-1.6022305451552972,-0.8808885031568321,-0.6955544595892942
14.42550583,-1.5148139682459145,-0.9396924219503078,-0.6903978853208085
14.43026119,-1.4144144244298134,-0.9936353718165368,-0.6849291750345776
14.43501656,-1.3018997245150215,-1.0416746829891135,-0.6785656810861436
14.43977187,-1.1782326647480534,-1.0828326582489285,-0.6707060915495565
14.44452724,-1.0444478965369621,-1.1162229608749366,-0.6607445076691029
14.44928255,-0.9016290550400557,-1.1410763935127093,-0.6480843818326449
14.45403791,-0.7508870297157776,-1.156765418373362,-0.6321520919752404
14.45879322,-0.5933402340482763,-1.162826715803866,-0.6124099462377859
14.46354859,-0.4300976639967063,-1.1589810409181645,-0.5883684244322207
14.46830395,-0.26224542313325233,-1.1451496213125059,-0.5595974720737297
14.47305927,-0.09083723885344412,-1.121466347572918,-0.5257366713604962
14.47781463,0.08311069609545195,-1.0882850467046514,-0.48650412411326044
14.48256994,0.2586204412533593,-1.0461812005609739,-0.4417038966061839
14.48732531,0.4347487068896797,-0.9959475795015347,-0.39123189804715724
14.49208067,0.6105792980674561,-0.9385834067563481,-0.3350800956183753
14.49683598,0.7852122044554922,-0.8752768499384049,-0.27333900955652657
14.50159135,0.9577501497068396,-0.8073808491626274,-0.20619847793288026
14.50634666,1.1272835946294784,-0.7363825304416421,-0.13394672609498018
14.51110203,1.2928753268191264,-0.6638667105071303,-0.05696781427730842
14.51585739,1.453545859822237,-0.5914742651328877,0.024262433964129058
14.5206127,1.608260902845893,-0.5208563960426478,0.10918189929611873
14.52536807,1.7559221440339476,-0.45362607889696394,0.19714889241942946
14.53012338,1.8953625133693832,-0.3913081928510685,0.2874499896132189
14.53487875,2.025346953177765,-0.33529000621750166,0.3793088215653349
14.53963411,2.1445795250096857,-0.28677380860174717,0.4718956548714159
14.54438942,2.2517174248895233,-0.24673352521345523,0.5643376067112881
14.54914479,2.3453921718035247,-0.2158771154388132,0.6557293408273688
14.5539001,2.4242378871137884,-0.19461644178135276,0.745144107165204
14.55865546,2.4869262076779566,-0.18304609849430425,0.8316450070628593
14.56341078,2.532206986950281,-0.18093241724565162,0.9142963877160302
14.56816614,2.558953552321911,-0.187713528838745,0.992175289216992
14.57292151,2.56621092186821,-0.20251096709453523,1.0643828791774241
14.57767682,2.5532450608398447,-0.22415286767848158,1.1300558090359212
14.58243218,2.5195910019885095,-0.25120835668846325,1.188377411624709
14.5871875,2.465097489216729,-0.2820322574254087,1.2385886359108527
14.59194286,2.3899657513261103,-0.3148187850658426,1.2799985900949271
14.59669817,2.294780081838972,-0.3476624646102478,1.3119945457651951
14.60145354,2.1805280914845415,-0.3786241160495029,1.3340512471969082
14.6062089,2.0486088053751996,-0.4057994233563574,1.3457393711732561
14.61096421,1.900827188019222,-0.4273873637481012,1.3467329918657085
14.61571958,1.7393741836111984,-0.44175564348378216,1.336815919571527
14.62047489,1.5667919379138726,-0.447500285712603,1.3158867985497555
14.62523026,1.3859244965312156,-0.44349665769538765,1.2839628649409607
14.62998562,1.1998549237235867,-0.4289395138476003,1.2411822781561919
14.63474093,1.0118304263215832,-0.4033700629342081,1.1878049466855105
14.6394963,0.8251776688609851,-0.36668862798415425,1.1242117730705237
14.64425161,0.6432109987382877,-0.31915213182250585,1.050902246683288
14.64900698,0.4691367344838118,-0.2613563762415982,0.9684903215735584
14.65376229,0.30595697932689736,-0.19420384800513696,0.8776985325302752
14.65851765,0.15637658438574825,-0.11885853397845743,0.7793503256741389
14.66327296,0.022716886591680474,-0.036689912348345906,0.6743606105197026
14.66802833,-0.09316031956429177,0.050791138376450405,0.5637245816835094
14.67278369,-0.18991544497656257,0.1420013427487377,0.44850491619005856
14.67753901,-0.2667777446330783,0.23535551617958714,0.32981753140808623
14.68229437,-0.3235738639529204,0.32933503039485906,0.20881618738545285
14.68704968,-0.36073690079131127,0.42255084776745355,0.08667632453219397
14.69180505,-0.37929531852470943,0.5137979792127173,-0.03542137615298952
14.69656036,-0.38084179193510465,0.6020986322592893,-0.1563071599931508
14.70131572,-0.3674828039406094,0.6867318552087202,-0.27483753089220225
14.70607109,-0.3417705129390792,0.7672481256609159,-0.3899092371366686
14.7108264,-0.3066190570925728,0.8434680497010207,-0.5004715082936294
14.71558177,-0.26520803445415037,0.9154651011390855,-0.6055362944417975
14.72033708,-0.2208763766959397,0.983533104949616,-0.7041864309877419
14.72509244,-0.17701019906289764,1.0481399204915032,-0.7955818124035274
14.72984776,-0.13692844273182608,1.1098694737599966,-0.8789637819765702
14.73460312,-0.10377021733185418,1.1693548921786452,-0.9536580217066916
14.73935843,-0.08038769845317564,1.227205983155124,-1.0190762607153245
14.7441138,-0.06924824241310382,1.2839346471486959,-1.074717122627682
14.74886916,-0.07234905893885096,1.3398820114055057,-1.1201664113138032
14.75362448,-0.09114734651432882,1.3951511016063658,-1.1550970942905487
14.75837984,-0.12650826288765557,1.4495487309919959,-1.1792691861300324
14.76313515,-0.1786724952148481,1.5025399815905753,-1.1925296649126895
14.76789052,-0.24724453327661466,1.5532181880226963,-1.1948124820359383
14.77264583,-0.33120205953084786,1.6002927263757292,-1.1861386614913103
14.77740119,-0.4289261759116235,1.642096181502037,-1.1666164403672736
14.78215651,-0.5382515117048997,1.6766116447626183,-1.136441384283825
14.78691187,-0.6565346196684916,1.7015200153602672,-1.0958964184847941
14.79166724,-0.7807384881031623,1.7142662823614243,-1.0453517386045423
14.79642255,-0.9075304928144506,1.712142895565692,-0.9852645913431952
14.80117791,-1.0333906983015453,1.692387534802801,-0.9161789307218368
14.80593322,-1.1547270987645708,1.652291895921243,-0.8387249498252587
14.81068859,-1.2679941676916255,1.5893175555677006,-0.7536184564998589
14.8154439,-1.3698109581117979,1.501214574971661,-0.6616600075510374
14.82019927,-1.4570749618885512,1.3861382672555012,-0.5637336502196608
14.82495463,-1.5270679948781642,1.2427594893064355,-0.460805056510974
14.82970994,-1.5775505275485522,1.070363928631724,-0.3539187872075966
14.83446531,-1.6068411333300967,0.8689361331713785,-0.2441943927240387
14.83922062,-1.6138780869063973,0.6392244678118447,-0.13282104436933895
14.84397598,-1.5982606176845362,0.38278376069660214,-0.021050384910745772
14.8487313,-1.560267910691341,0.10199310699985134,0.08981271510642265
14.85348666,-1.500854641456961,-0.1999528934066884,0.19842181072490078
14.85824198,-1.4216226178943263,-0.5190802978677989,0.3034032563455993
14.86299734,-1.32476895835018,-0.8506992691175804,0.4033735861706532
14.86775265,-1.2130121334121144,-1.1894937202100517,0.49696012702308595
14.87250802,-1.0894981075738546,-1.5296350924853195,0.5828249567346306
14.87726333,-0.9576896972782004,-1.8649172665375702,0.6596921439409293
14.88201869,-0.8212430699315991,-2.188908747242024,0.7263779551286423
14.88677406,-0.6838759974843287,-2.4951175228381177,0.7818233937050052
14.89152937,-0.5492330035552111,-2.7771634130590686,0.8251280616575422
14.89628474,-0.4207528652070257,-3.0289523251416535,0.8555839477588225
14.90104005,-0.30154401648074886,-3.244846653465583,0.8727074099435662
14.90579541,-0.19427322879612619,-3.4198261010034745,0.8762674056050186
14.91055072,-0.1010725069384909,-3.5496334675967938,0.8663079923497828
14.91530609,-0.023468446166360173,-3.6309004291166094,0.8431633010277191
14.9200614,0.03766263874232851,-3.6612490059280307,0.8074635581957087
14.92481677,0.08211165526367421,-3.6393652708133457,0.7601312540360585
14.92957208,0.11032492088395252,-3.56504285186405,0.7023671385290003
14.93432744,0.12336421451072008,-3.4391949055881175,0.6356263046088391
14.93908281,0.1228407613699208,-3.263834409829862,0.5615851184363195
14.94383812,0.11082656158288803,-3.0420237812620625,0.48210014736994006
14.94859349,0.08974758495787433,-2.777795886760459,0.3991605095208978
14.9533488,0.06226415883580883,-2.476049438724558,0.31483524108423894
14.95810416,0.031144343457815193,-2.142422511771471,0.23121737330186773
14.96285948,-0.000863766751600403,-1.783148481672253,0.15036645157702627
14.96761484,-0.031155024859063442,-1.4048990685261684,0.07425123048520495
14.97237015,-0.05738010725508894,-1.0146193736218774,0.00469425006772928
14.97712552,-0.07754351610624546,-0.6193598453947248,-0.056680054751703283
14.98188083,-0.0900827423786993,-0.226110007745159,-0.10849213937303678
14.98663619,-0.09392556189625356,0.15836145251094344,-0.14964756748973745
14.99139151,-0.08852346546998158,0.5276559987852121,-0.17936934732182402
14.99614687,-0.07386029457175239,0.8758801792825419,-0.19722126056638764
15.00090218,-0.050436219762513806,1.1977629528532459,-0.20312129033411191
15.00565755,-0.01922821762805672,1.4887527949966797,-0.1973445269441623
15.01041286,0.01837086343855607,1.7450926427908429,-0.18051523965511995
15.01516823,0.06063173762646507,1.9638714385085212,-0.1535881428432696
15.01992359,0.10558302145036415,2.1430517435720216,-0.11781925004027113
15.0246789,0.1511163532777194,2.2814735972779996,-0.07472708904166835
15.02943427,0.19509780030171653,2.378835469067072,-0.02604543153422316
15.03418958,0.23548086418951386,2.4356537809305037,0.026330949425493286
15.03894494,0.2704163723561193,2.4532030414298,0.08040566726414335
15.04370026,0.2983546869685135,2.4334391203591075,0.13414318808103565
15.04845562,0.31813597157931056,2.3789085912418457,0.18553216323247615
15.05321093,0.3290647151605295,2.2926473683272732,0.23264737957298054
15.0579663,0.3309653106430037,2.1780720595432967,0.27370815284042294
15.06272161,0.32421620081921015,2.0388675446019926,0.3071311684263659
15.06747698,0.3097609152015079,1.8788742693148157,0.33157604253873746
15.07223229,0.2890951995700754,1.7019786274321156,0.34598221496781056
15.07698765,0.2642303537108813,1.5120095867334833,0.3495961682234732
15.08174296,0.23763380622886582,1.312644415265191,0.34198837215744665
15.08649833,0.21214882950368916,1.1073259866664973,0.3230597565424525
15.09125364,0.19089609486758818,0.8991937020373683,0.29303789971452954
15.09600901,0.1771604557363916,0.6910295727075166,0.2524634774636851
15.10076432,0.17426690169226686,0.4852204775926248,0.2021678339946269
15.10551968,0.1854500350769417,0.2837370556609183,0.1432428082592112
15.110275,0.2137216743630216,0.0881291347642248,0.07700416712169575
15.11503036,0.2617412783557585,-0.10046294965487246,0.004950154952784271
15.11978567,0.3316938071299168,-0.28128231052043323,-0.07128323862246906
15.12454104,0.425179389410416,-0.4539163752157429,-0.14996866893670707
15.12929635,0.5431187600093434,-0.6182467055987056,-0.22933390838963913
15.13405171,0.6856778831229319,-0.7743901485225845,-0.30760693720441057
15.13880703,0.8522145154407192,-0.9226339404218394,-0.3830583576962899
15.14356239,1.0412487215401611,-1.063367542823714,-0.45404004721273106
15.1483177,1.2504585693372625,-1.1970140399307487,-0.5190192026918921
15.15307307,1.476701438264379,-1.3239638822544688,-0.5766071808771341
15.15782843,1.7160605932137856,-1.444513612545989,-0.6255827902509954
15.16258375,1.9639159326938074,-1.5588119665083968,-0.6649099333604986
15.16733911,2.21503712617998,-1.66681540959238,-0.6937497224257798
15.17209442,2.463696727531604,-1.7682547655266798,-0.7114673884839396
15.17684974,2.703800300596146,-1.8626141292776293,-0.7176344663433936
15.1816051,2.9290301288019216,-1.9491227574395051,-0.7120268563675297
15.18636041,3.1329987088727993,-2.026760115211313,-0.6946194339535389
15.19111578,3.3094079539697163,-2.0942737539410365,-0.6655778974629577
15.19587109,3.452209856762107,-2.1502092180731416,-0.6252485197190581
15.20062645,3.555764291569284,-2.192950753767312,-0.5741464053849764
15.20538182,3.6149896711101004,-2.220771228274904,-0.5129427658993835
15.21013713,3.6255023222552083,-2.231889379973629,-0.442451613374028
15.2148925,3.58374071041247,-2.2245323103681263,-0.3636161522696337
15.21964781,3.4870710260734152,-2.197001004522597,-0.27749502106076895
15.22440317,3.3338711491064434,-2.1477366250483647,-0.18524841603575568
15.22915849,3.123590620912605,-2.0753853623496985,-0.08812402745600595
15.2339138,2.8567849675301926,-1.9788597308654916,0.012557356290154479
15.23866916,2.5351235032749324,-1.8573943646209128,0.11541676450382009
15.24342448,2.161370567640462,-1.7105945725529217,0.21903268246589555
15.24817984,1.7393409611700708,-1.5384761550575052,0.3219576041836069
15.25293515,1.273831100298403,-1.3414952523929395,0.4227356575599586
15.25769052,0.7705280687888517,-1.1205672892568985,0.5199214000271722
15.26244588,0.23589928500473673,-0.8770743930938136,0.6120997934193483
15.26720119,-0.32293407315027006,-0.6128609891193655,0.6979072485871084
15.27195651,-0.898336435624896,-0.33021760419001134,0.7760534894160226
15.27671187,-1.4823063513145875,-0.03185323650923809,0.8453438338521715
15.28146718,-2.0666304015601322,0.2791430387187045,0.9047013404713597
15.28622255,-2.643038783576649,0.5993502643288434,0.9531881395921313
15.29097786,-3.2033589342394775,0.9250723696067562,0.9900251766546918
15.29573323,-3.7396637519199882,1.2524020598124592,1.014609560687842
15.30048854,-4.244411235743239,1.5772901968056265,1.0265287436895036
15.3052439,-4.71057268868621,1.8956189152465117,1.0255708571007283
15.30999921,-5.1317470148656765,2.203276647213921,1.0117306859489852
15.31475458,-5.502259073418588,2.4962332092796515,0.9852109480950914
15.31950989,-5.8172405220978485,2.770613137304962,0.9464187419582655
15.32426526,-6.072692082762461,3.022765531405632,0.89595721167236
15.32902057,-6.2655266767887525,3.249328791549979,0.8346126427358737
15.33377593,-6.3935933980326665,3.44728877766172,0.7633373432447697
15.33853125,-6.45568279988709,3.6140291124833106,0.6832287929808244
15.34328661,-6.451514455761146,3.747372558585833,0.5955056621776711
15.34804192,-6.38170819318385,3.845612642574745,0.501481413099112
15.35279729,-6.24774078528376,3.907534969869251,0.4025362911494102
15.3575526,-6.051890194974344,3.932427970655545,0.3000885752713654
15.36230796,-5.797169693038089,3.9200831361674653,0.19556597996521582
15.36706328,-5.487254298995658,3.870785133757584,0.09037807896396852
15.37181864,-5.126402013303588,3.7852925132932858,-0.014109446222731687
15.37657395,-4.719372215832268,3.6648100157186123,-0.11659803723397119
15.38132932,-4.27134340057127,3.5109537449717885,-0.2158764144720206
15.38608463,-3.787832111562204,3.3257106477307747,-0.3108372653136579
15.39084,-3.2746145628061467,3.111393850393551,-0.40049024352000523
15.39559531,-2.7376519975053637,2.8705954279233805,-0.4839712246910555
15.40035067,-2.1830204064046135,2.60613813170508,-0.5605479149619444
15.40510598,-1.6168448172994203,2.321027495026627,-0.6296220415586322
15.4098613,-1.0452380184804595,2.018405577985616,-0.6907284599011435
15.41461666,-0.47424330923041846,1.7015074203005582,-0.743531591981456
15.41937198,0.09021930904225368,1.3736210508318822,-0.7878196670252533
15.42412734,0.6424041755622895,1.0380516653959249,-0.8234972703114857
15.42888265,1.1767889225444794,0.6980903379470097,-0.8505767195626972
15.43363802,1.688121934524931,0.35698738288983817,-0.8691687782033987
15.43839333,2.171468763417036,0.0179302470447359,-0.8794731777788994
15.44314869,2.622257740508164,-0.3159744125317222,-0.8817693563340918
15.44790401,3.036324775368543,-0.6417150056568283,-0.8764077284370051
15.45265937,3.409957057009342,-0.9563863455812702,-0.8638016945601678
15.45741468,3.7399350986495747,-1.25719887261207,-0.844420485878508
15.46217005,4.023572317446771,-1.541486668414531,-0.8187828389672587
15.46692536,4.2587511325255285,-1.8067151884692527,-0.7874514136649404
15.47168072,4.443954409531238,-2.0504896085435447,-0.7510278104693016
15.47643604,4.578290982576558,-2.270564592680358,-0.7101480083895148
15.48119135,4.661513946257485,-2.4648561467036383,-0.6654780233275651
15.48594671,4.694030433010497,-2.631456027987256,-0.6177095747646063
15.49070203,4.676901678467509,-2.768648949118283,-0.5675555426179032
15.49545739,4.611832335018904,-2.8749325546218567,-0.5157449982720377
15.5002127,4.50114822609973,-2.9490398843424903,-0.4630176079372325
15.50496807,4.347762043008915,-2.9899637837465636,-0.41011723688461843
15.50972338,4.155126869158924,-2.9969824970115435,-0.35778463211606737
15.51447875,3.927177859615263,-2.9696854943565127,-0.30674912793041037
15.51923406,3.668262879228403,-2.9079984458984853,-0.257719399845177
15.52398942,3.3830633739116327,-2.8122061624428776,-0.21137338092662777
15.52874474,3.076507179979999,-2.6829722810046146,-0.16834754217757977
15.53350005,2.753675337548209,-2.5213544827079253,-0.12922581583488343
15.53825541,2.419705249068004,-2.3288140964927115,-0.09452849899722275
15.54301072,2.0796927067961204,-2.1072190654216394,-0.06470150960913156
15.54776609,1.7385954038948042,-1.8588394315323185,-0.040106375995357664
15.5525214,1.4011405470218161,-1.5863347242287875,-0.02101132749769188
15.55727677,1.07173910813315,-1.2927329061422261,-0.007583823118022796
15.56203208,0.7544090922125519,-0.9814008254420871,0.0001151865221653359
15.56678744,0.4527099553338727,-0.6560064286595118,0.002135018612375055
15.57154276,0.16968998285544382,-0.32047328708591266,-0.0013631455369943672
15.57629812,-0.0921519663434366,0.021071731694860246,-0.010106936254776192
15.58105343,-0.3308894158472129,0.36435656972241076,-0.023715761822125613
15.58580875,-0.5451755145663031,0.7050265809516973,-0.04170598585719388
15.59056411,-0.734234694262093,1.038710194335591,-0.06349814528171124
15.59531942,-0.8978394000041425,1.3610861013411877,-0.08842597147975154
15.60007479,-1.0362730414020282,1.6679503869387955,-0.11574694738204179
15.6048301,-1.150280737351531,1.9552820346117343,-0.14465414255250203
15.60958546,-1.241009773387516,2.219305300824622,-0.1742891067952579
15.61434078,-1.3099419541254649,2.456547567603577,-0.2037556527771433
15.61909614,-1.3588202150591537,2.6638914367171185,-0.23213440256706772
15.62385145,-1.3895719609622703,2.8386200175719902,-0.25849800084262886
15.62860682,-1.4042316237763122,2.9784545747689006,-0.28192690478057625
15.63336213,-1.404864880861929,3.0815839315068843,-0.301525647809612
15.63811744,-1.393496844728265,3.1466852633779716,-0.3164394441364445
15.64287281,-1.3720463312377027,3.1729361560248748,-0.32587095768033086
15.64762812,-1.34226804422426,3.1600180324692064,-0.32909700899898725
15.65238349,-1.3057041954363005,3.1081112742006423,-0.3254849436570351
15.6571388,-1.2636467271614187,3.0178825565633387,-0.31450834006045625
15.66189416,-1.2171109372972104,2.8904650863441828,-0.2957616959266071
15.66664948,-1.1668209366658733,2.7274325623188123,-0.2689737010304735
15.67140479,-1.1132070067456574,2.5307677749980564,-0.23401868217075275
15.67616015,-1.0564145809654306,2.302826819688191,-0.19092579970691487
15.68091546,-0.9963242502835225,2.0462999190482773,-0.13988559003377635
15.68567083,-0.932581897504118,1.7641698406395339,-0.08125349035454042
15.69042614,-0.8646377957958261,1.4596688548201635,-0.015550053560554293
15.69518151,-0.7917932650456224,1.136235111769316,0.05654233978134705
15.69993682,-0.7132532664575372,0.7974692264874353,0.13418634535769478
15.70469218,-0.6281831370406322,0.4470917511416791,0.2164000393791587
15.7094475,-0.5357675314781137,0.08890208997124745,0.3020706454649509
15.71420281,-0.4352695602499612,-0.2732607214029745,0.3899713247473766
15.71895817,-0.3260880976376417,-0.6355550876695362,0.4787806779431479
15.72371349,-0.20781128474727736,-0.9941716281358394,0.5671045683567496
15.72846885,-0.08026437036946248,-1.3453656357041697,0.6534998616077805
15.73322416,0.05644978752715106,-1.6854873223287774,0.736499679441202
15.73797948,0.2019190014057776,-2.01101005679342,0.8146397670093632
15.74273484,0.3553999750286005,-2.3185568836691437,0.8864855647322383
15.74749015,0.5158073093822615,-2.6049256688762235,0.9506595549481199
15.75224552,0.6817137985559405,-2.867113242071379,1.0058684266962947
15.75700083,0.8513621704591713,-3.102338894842112,1.0509295795207974
15.76175619,1.022688075543657,-3.3080675443454224,1.0847964755926112
15.76651151,1.1933537802152536,-3.4820327854875885,1.1065823462413276
15.77126687,1.3607916856149043,-3.622259935034609,1.1155817542743005
15.77602218,1.5222564725627554,-3.7270890251600752,1.1112894978621055
15.7807775,1.6748843791941919,-3.7951975414875236,1.0934163165820636
15.78553286,1.8157578644158112,-3.8256225328307996,1.0619008427054537
15.79028817,1.9419737166224502,-3.8177815575149983,1.0169172590135929
15.79504354,2.0507125509938544,-3.771491784004558,0.9588782028907087
15.79979885,2.1393076126357653,-3.6869864405097514,0.8884326017944129
15.80455416,2.2053108703260595,-3.564927718741135,0.8064583203930823
15.80930953,2.2465545392159485,-3.406415191366751,0.7140497095252214
15.81406484,2.2612063937094766,-3.2129888111695952,0.6125003317273485
15.8188202,2.247817501653626,-2.9866256299703573,0.5032812677533008
15.82357552,2.205361304946489,-2.7297295096040886,0.3880154749881034
15.82833083,2.1332632711436155,-2.445113292121148,0.2684486872637441
15.83308619,2.031420634217822,-2.135973141672946,0.14641734766504527
15.83784151,1.9002120242822638,-1.8058550482631472,0.02381408593160653
15.84259687,1.7404970513946596,-1.4586137695866381,-0.09744868491278912
15.84735218,1.553606152228156,-1.0983647568368011,-0.21547636579461177
15.85210755,1.3413212239371852,-0.7294298448081094,-0.3284301316897131
15.85686286,1.1058477509876687,-0.35627767661571397,-0.43456428585806284
15.86161817,0.8497792748323499,0.016540021176478757,-0.5322619541281854
15.86637354,0.5760551633035141,0.38445509077322837,-0.6200680666439345
15.87112885,0.2879127093636479,0.7429512264820946,-0.6967186695646088
15.87588421,-0.011165367812065162,1.087632547306778,-0.761165774086324
15.88063953,-0.3175069266833713,1.4142910991992168,-0.812597143903795
15.88539484,-0.6273088176002695,1.7189719396477972,-0.8504506077264135
15.8901502,-0.9366966251529267,1.9980345021077217,-0.8744226424595917
15.89490552,-1.2417846806449633,2.2482090161922983,-0.8844711072466926
15.89966088,-1.538735323313713,2.466646870153219,-0.8808121315616811
15.90441619,-1.8238164394664775,2.650963941004548,-0.8639112838232719
15.90917156,-2.0934563756360665,2.799276078533214,-0.8344692750277349
15.91392687,-2.3442954067550006,2.910226105082007,-0.7934025819432803
15.91868218,-2.5732330419797886,2.9830018762283745,-0.7418195005353236
15.92343755,-2.7774705641781483,3.017345132229764,-0.6809922571554808
15.92819286,-2.9545483164066666,3.013551051622851,-0.6123259090644962
15.93294822,-3.102377361667807,2.972458593128183,-0.5373248538665611
15.93770354,-3.2192652446409777,2.895431877642211,-0.45755783459552385
15.94245885,-3.303935673606936,2.784333017318005,-0.3746223668325549
15.94721421,-3.355542019378453,2.6414869429882204,-0.29010951992402334
15.95196953,-3.3736746005561726,2.469638913861411,-0.20556995308626264
15.95672489,-3.3583617959082455,2.271905513235768,-0.12248204128508525
15.9614802,-3.310065097936139,2.051720038812157,-0.04222283247871696
15.96623552,-3.2296682963103476,1.812773283328543,0.03395753335932525
15.97099088,-3.1184610527013774,1.5589507678676002,0.10495743329972496
15.97574619,-2.9781171950680907,1.294267534265902,0.16984101199973634
15.98050156,-2.8106681153111586,1.0228016240881375,0.2278508115109554
15.98525687,-2.6184716964204124,0.748627370936004,0.27841564333516455
15.99001218,-2.404177223127204,0.47574961324815507,0.3211536922162797
15.99476755,-2.1706867453434846,0.20803989985727903,0.35587096830576215
15.99952286,-1.9211133703318004,-0.050824285935541696,0.38255534978540906
16.00427817,-1.6587369632479019,-0.2974163131818259,0.40136657834027506
16.00903354,-1.3869577425106947,-0.5286122925267346,0.41262268112594536
16.01378885,-1.1092482715150962,-0.7416372281359451,0.4167833900852183
16.01854421,-0.8291043747829427,-0.9341046688282081,0.4144312052130769
16.02329953,-0.5499955459556313,-1.1040491802453092,0.40625079269353653
16.02805484,-0.2753154663562557,-1.249951056024483,0.3930074121262117
16.0328102,-0.008333313522654288,-1.3707527948006337,0.3755250249084311
16.03756552,0.24785339582234286,-1.465866993592189,0.3546646527967085
16.04232088,0.4903636220539288,-1.535175448763644,0.3313034453053704
16.04707619,0.7165744233426192,-1.5790194142445086,0.30631479557906455
16.05183151,0.9241585020516295,-1.5981811416362481,0.2805497349449525
16.05658687,1.1111168093004544,-1.5938570141777852,0.25481975003863494
16.06134218,1.2758053937094034,-1.5676227801651388,0.2298811101964625
16.0660975,1.4169557793736107,-1.5213915842038737,0.20642076736159096
16.07085286,1.5336883014849088,-1.4573656791940244,0.18504389164191015
16.07560817,1.6255180106940768,-1.3779828709920048,0.16626312504342816
16.08036354,1.692352970988613,-1.285858894615814,0.15048966413474238
16.08511885,1.7344850098778233,-1.183727039710834,0.1380263095108349
16.08987416,1.752573221817536,-1.0743764284801356,0.12906263698029147
16.09462953,1.7476207627012617,-0.9605903968954673,0.1236724456631764
16.09938484,1.7209456905235623,-0.8450864365555396,0.12181361807277157
16.1041402,1.6741467904400984,-0.7304591188277634,0.12333048685873521
16.10889552,1.6090654584943505,-0.6191273458703025,0.12795874576994645
16.11365083,1.527744797972877,-0.5132871576423946,0.135332874506257
16.11840619,1.4323871014377283,-0.41487117428127845,0.1449959752536082
16.12316151,1.3253108515786143,-0.32551557421718835,0.15641184890305668
16.12791682,1.208908282802172,-0.24653530528158654,0.16897907540180146
16.13267218,1.085604415337901,-0.1789080040428969,0.18204680712541585
16.1374275,0.9578183188020627,-0.12326686327545311,0.19493193642363651
16.14218286,0.8279271958640189,-0.07990244521073492,0.20693725768996182
16.14693817,0.6982337100462983,-0.04877319613983335,0.21737020996586
16.15169349,0.5709368239234459,-0.02952418348736937,0.22556175867691344
16.15644885,0.44810627245090145,-0.02151335710751589,0.2308849559664506
16.16120416,0.33166067605789834,-0.023844439372985658,0.23277271008872769
16.16595948,0.22334920169293138,-0.03540537987872432,0.2307342971913671
16.17071484,0.1247366062584222,-0.05491117490790161,0.22437016468486587
16.17547015,0.03719144286890762,-0.08094975189442959,0.2133846045809787
16.18022552,-0.03812282675974092,-0.11202955616015493,0.19759591720604652
16.18498083,-0.10025409189582105,-0.14662745172838912,0.17694373936906524
16.18973614,-0.14846550744791492,-0.18323556022784399,0.15149327468625867
16.19449151,-0.18223733413926954,-0.22040571159304018,0.12143623570622729
16.19924682,-0.20126694434454934,-0.25679026663104065,0.08708838713598008
16.20400213,-0.2054671877489341,-0.29117819296455194,0.048883667843545246
16.2087575,-0.19496325309242835,-0.3225254297612617,0.007364968254629483
16.21351281,-0.17008809753765183,-0.3499787592294702,-0.036828250191003165
16.21826812,-0.13137644974246032,-0.3728926092145811,-0.08297518870918508
16.22302349,-0.07955733344234685,-0.3908384356733874,-0.13029137425358445
16.2277788,-0.01554501275826814,-0.40360657004868755,-0.17794821898134544
16.23253416,0.0595717638866237,-0.41120065762209995,-0.22509385376167063
16.23728948,0.14454234117520096,-0.4138250507842228,-0.27087455187642057
16.24204479,0.23796864222102737,-0.4118657468949334,-0.3144560295018823
16.24680015,0.338321587890706,-0.40586566495136656,-0.35504391319360284
16.25155546,0.4439593972531341,-0.3964952305817851,-0.39190270103716646
16.25631078,0.5531476313299662,-0.3845193786343401,-0.42437261180977653
16.26106614,0.6640807647981537,-0.3707621823640243,-0.4518838119887873
16.26582145,0.774905012364014,-0.35607037500937544,-0.47396762778809076
16.27057677,0.8837421071800624,-0.3412770417569659,-0.4902644807854723
16.27533213,0.9887137319768576,-0.32716672759862264,-0.5005284232114358
16.28008744,1.0879663375223936,-0.31444313139684044,-0.5046282859547291
16.28484276,1.1796961395540437,-0.3037004429855103,-0.5025455835267824
16.28959812,1.2621741514549645,-0.2953992345831672,-0.4943694411031634
16.29435343,1.3337711692689214,-0.289847647251731,-0.480288915027391
16.2991088,1.3929826604295348,-0.2871884247398347,-0.46058316557832457
16.30386411,1.4384535021318507,-0.2873921477534155,-0.43561000551192164
16.30861942,1.4690024605888934,-0.29025681815080556,-0.4057933871251334
16.31337479,1.4836461999479547,-0.2954137408905127,-0.37161040323052646
16.3181301,1.4816224714900237,-0.30233945699292114,-0.3335783639001774
16.32288541,1.4624119786044945,-0.31037329744977493,-0.2922424724223615
16.32764078,1.425758260477433,-0.31873995927038096,-0.24816456209806312
16.33239609,1.3716848042179404,-0.3265763538365753,-0.20191327190325142
16.3371514,1.3005084953457253,-0.33296184777815474,-0.1540559359061639
16.34190677,1.2128484634065797,-0.33695091116601006,-0.10515234219047542
16.34666208,1.109629385926936,-0.33760711036786467,-0.05575038733694143
16.35141739,0.9920783910720413,-0.3340373363491356,-0.006383520149018365
16.35617276,0.8617148537729207,-0.325425145431187,0.04243025647492964
16.36092807,0.7203326107970439,-0.31106210918353006,0.09018816271019801
16.36568338,0.5699744166715057,-0.29037612279056985,0.1364016132110571
16.37043875,0.4128988038714955,-0.2629557055103491,0.1805948421536948
16.37519406,0.25153986806614975,-0.22856944040354316,0.22230364992084795
16.37994937,0.08846083802776021,-0.18717984053488723,0.2610747138664476
16.38470474,-0.07369742400868745,-0.13895109286771448,0.2964658498270312
16.38946005,-0.23227163804571385,-0.08425031719559464,0.32804753075602006
16.39421536,-0.3846335659266208,-0.023642183161420843,0.3554058704321851
16.39897072,-0.5282482063795577,0.042123051472765585,0.378147170039718
16.40372604,-0.6607312437878508,0.11212779238038466,0.3959040099591493
16.40848135,-0.7799043353848013,0.1853111407629108,0.40834275504406675
16.41323671,-0.8838469084593206,0.2604979927619872,0.41517223577909684
16.41799203,-0.9709432359677357,0.3364323150371714,0.416153275995645
16.42274734,-1.0399236630761304,0.4118135611260541,0.41110866445429933
16.4275027,-1.0898989700765216,0.48533508820786614,0.3999331150696606
16.43225802,-1.1203869806713613,0.5557233710321288,0.38260273056869204
16.43701338,-1.1313306593645485,0.6217767894226639,0.35918347813427176
16.44176869,-1.123107086971934,0.6824027865727511,0.32983820284697546
16.44652401,-1.0965268580537737,0.7366522550500347,0.2948317431742177
16.45127932,-1.0528236081270732,0.7837501030180336,0.25453376871511124
16.45603468,-0.9936335533013178,0.823121080561356,0.20941903028862746
16.46079,-0.9209651141088765,0.8544100998074722,0.16006479337301877
16.46554531,-0.83715890424432,0.8774964561606224,0.1071453154354602
16.47030067,-0.7448385994827047,0.8925015435204087,0.05142332343557379
16.47505598,-0.6468534649960563,0.8997898449287574,-0.006261452300914658
16.4798113,-0.5462136061295882,0.8999631629484226,-0.06500652852839095
16.48456666,-0.44601930440790777,0.8938482247360909,-0.12386343844293587
16.48932198,-0.3493860858907257,0.8824779524969039,-0.18185664691947562
16.49407729,-0.25936742021832015,0.8670668316361867,-0.2380041341200375
16.49883265,-0.1788771461814555,0.8489809392573715,-0.29133907686643074
16.50358796,-0.11061384821099514,0.8297033175167253,-0.3409319852477726
16.50834328,-0.05698945598302304,0.8107954910169325,-0.38591260992279225
16.51309864,-0.020064297242465036,0.7938560334894289,-0.42549092874723826
16.51785395,-0.0014906966197167529,0.7804771818795069,-0.4589765500162885
16.52260927,-0.0024669818291507208,0.7722005685051267,-0.48579592884316347
16.52736463,-0.02370344321056439,0.7704731865393457,-0.5055068742514668
16.53211994,-0.06540141142619652,0.7766047149088839,-0.5178099176617375
16.53687526,-0.12724619416613164,0.7917273038681671,-0.5225562104410242
16.54163062,-0.20841416786484035,0.8167588643733215,-0.5197517137378275
16.54638593,-0.30759387029774227,0.8523708184742829,-0.5095575358067604
16.55114125,-0.4230204925438291,0.8989611605090743,-0.4922863618052334
16.55589661,-0.5525227297790817,0.9566335544479291,-0.46839501307361514
16.56065192,-0.6935805298569943,1.0251830535188002,-0.43847327244568823
16.56540724,-0.8433918929931319,1.1040888757766691,-0.40322922166947645
16.5701626,-0.9989465439443684,1.1925145062281912,-0.36347145378474405
16.57491791,-1.1571040374861035,1.2893152264976366,-0.32008863991072717
16.57967322,-1.314673683854967,1.3930530010370994,-0.2740270375523136
16.58442859,-1.4684936054147115,1.502018478073836,-0.2262666188499533
16.5891839,-1.6155062679748964,1.6142596967513887,-0.17779656639476452
16.59393921,-1.7528279744300166,1.727616932030454,-0.12959092579738965
16.59869453,-1.8778100638236022,1.8397629587381779,-0.08258521260188494
16.60344989,-1.988089918848654,1.948247878603936,-0.03765474219817422
16.6082052,-2.081630336516606,2.0505475322425273,0.004404616107972409
16.61296052,-2.156746341698458,2.1441144152133877,0.042892663583372154
16.61771588,-2.212119097174891,2.2264299370737213,0.07721761321525149
16.62247119,-2.246797157344056,2.295056808158309,0.10690504587034348
16.62722651,-2.260185892569949,2.3476903137772713,0.13160295691912688
16.63198187,-2.252026442118464,2.3822072427384726,0.15108295310417255
16.63673718,-2.2223660013095623,2.3967112797727905,0.16523783920492122
16.6414925,-2.1715215828713754,2.389573752212365,0.17407599522611794
16.64624786,-2.1000395924734376,2.359468741100101,0.17771307219398416
16.65100317,-2.008653616652699,2.3054017241467992,0.17636161458215044
16.65575848,-1.8982427459057063,2.226731108044621,0.17031924204787896
16.66051385,-1.7697925668677084,2.123182223327368,0.15995599413599373
16.66526916,-1.6243606806410598,1.9948535867460002,0.14570137046873405
16.67002448,-1.4630482632589425,1.842215472941273,0.1280315031303507
16.67477979,-1.2869787979438563,1.666101067314667,0.10745679455622392
16.67953515,-1.0972846921975854,1.4676906841837947,0.08451025599334916
16.68429046,-0.8951020595974459,1.2484897190116666,0.05973669702585986
16.68904578,-0.6815735110631129,1.0103011537871616,0.033682851797082185
16.69380114,-0.4578583784756064,0.7551935465857806,0.006888485990559437
16.69855645,-0.22514939929049793,0.4854655088007352,-0.020121490660742876
16.70331177,0.015305462283436308,0.20360770733239186,-0.04684388561788713
16.70806713,0.262177680047757,-0.08773657394699212,-0.07280303767989499
16.71282244,0.5140311678634578,-0.38581131644901323,-0.09755556900310135
16.71757776,0.7692956174928521,-0.6877871644704571,-0.12069407620822019
16.72233312,1.0262422286026125,-0.9907995057411327,-0.14184978591274405
16.72708843,1.2829638541739459,-1.2919845207528338,-0.1606942256001799
16.73184375,1.5373614633092552,-1.5885126211591913,-0.176939982197625
16.73659906,1.7871386188845921,-1.8776188417040853,-0.19034063643029786
16.74135442,2.02980538496935,-2.1566298977129064,-0.20068997326543872
16.74610974,2.262692724397955,-2.4229877657594505,-0.20782058185609922
16.75086505,2.482978028401451,-2.6742697845368966,-0.21160197608814485
16.75562036,2.687721949478473,-2.9082054028780453,-0.21193839014866067
16.76037572,2.8739162017302298,-3.122689818951793,-0.20876642966794615
16.76513104,3.038541469788305,-3.3157948552795147,-0.20205278148797823
16.76988635,3.178634051958311,-3.48577749469509,-0.19179219548609222
16.77464171,3.2913593821536793,-3.631086559137839,-0.1780059423880702
16.77939703,3.374090156589929,-3.750368042905578,-0.16074091793752096
16.78415234,3.424486460472301,-3.842469612144669,-0.14006950676752872
16.7889077,3.4405750666386,-3.9064447514447016,-0.11609024367382674
16.79366302,3.420824974871459,-3.941556976180051,-0.08892922342116319
16.79841833,3.3642162830741533,-3.947284437150832,-0.05874212221449617
16.80317364,3.270299628949695,-3.923325125981133,-0.02571661440485665
16.80792901,3.139243706390908,-3.8696027519166742,0.009925095077864553
16.81268432,2.971868732046277,-3.7862732110940773,0.04792394412960543
16.81743963,2.7696641967951696,-3.673731417083729,0.08798223360379573
16.822195,2.5347897617226374,-3.532618116657145,0.12976273006969588
16.82695031,2.270058722928236,-3.363826188276174,0.17288895447145805
16.83170562,1.9789040474654402,-3.1685058233845917,0.21694689609373455
16.83646093,1.6653275485256032,-2.9480679306376465,0.2614882962474593
16.8412163,1.3338332996739817,-2.7041850854610514,0.30603552702722625
16.84597161,0.9893468688272167,-2.438789372325762,0.3500879612301386
16.85072692,0.6371223721892751,-2.1540665317233056,0.39312960758315774
16.85548229,0.28263970101584557,-1.8524459222981775,0.43463768756783283
16.8602376,-0.06850544334361847,-1.5365859336628647,0.4740917683456057
16.86499291,-0.4107158618158621,-1.2093546290477115,0.5109830452537375
16.86974823,-0.7385085434285078,-0.8738055510949091,0.5448233840282672
16.87450359,-1.0466287070470892,-0.5331487815831522,0.5751537781651466
16.8792589,-1.3301592300692866,-0.19071750065423437,0.6015519384373816
16.88401421,-1.5846226384460063,0.1500695617181644,0.6236387980769952
16.88876958,-1.8060730670908776,0.48574925369653965,0.6410837811817678
16.89352489,-1.9911759155042807,0.8128580597415838,0.6536087418204645
16.8982802,-2.1372733039862237,1.1279783357624655,0.660990539725975
16.90303552,-2.242433861728317,1.4277858827818326,0.6630622788226562
16.90779088,-2.3054858307217754,1.7090979555404366,0.6597132975709422
16.91254619,-2.326032933773461,1.9689207590820799,0.6508880610419181
16.91730151,-2.3044529195684014,2.2044954663128666,0.6365841564692252
16.92205682,-2.2418791526216326,2.4133417939927035,0.6168496297319825
16.92681218,-2.140166050540826,2.5932982037844328,0.5917799159434464
16.9315675,-2.001839574117463,2.742557847994388,0.561514613335643
16.93632281,-1.8300343368169092,2.859699454888483,0.5262343291179787
16.94107812,-1.628419210012343,2.9437124439265356,0.4861577926756761
16.94583348,-1.4011135507881112,2.9940156744861874,0.441539388014806
16.9505888,-1.1525963634215606,3.0104693597009056,0.3926672055317447
16.95534411,-0.8876108184493454,2.993379816439519,0.33986165531913726
16.96009948,-0.611066591730333,2.9434968693228565,0.2834746241924279
16.96485479,-0.32794245055648946,2.8620038770023406,0.22388910122899197
16.9696101,-0.04319140851907178,2.7505004989095205,0.16151914590352576
16.97436541,0.23834939775826156,2.6109784667797036,0.09681003099873069
16.97912078,0.5120421805603445,2.445790764057171,0.030238359650232298
16.98387609,0.7735236626279796,2.257614744497984,-0.037688068427249054
16.9886314,1.01877057838239,2.049409835632464,-0.10643088228061766
16.99338671,1.2441545046567495,1.8243705699912314,-0.1754225025417008
16.99814208,1.4464853720508404,1.5858757643881634,-0.2440684773716898
17.00289739,1.6230433800228277,1.33743472381415,-0.31175099514399557
17.0076527,1.771599408763512,1.0826313825885798,-0.3778337186821879
17.01240807,1.890424374445614,0.8250673145088632,-0.4416679995432409
17.01716338,1.9782882965173045,0.568304550437452,-0.502600422485391
17.02191869,2.034450121259054,0.3158091409816076,-0.5599815115781183
17.02667401,2.058639560976553,0.07089639773018512,-0.6131753162459344
17.03142937,2.05103235217468,-0.16332125883059986,-0.6615695048441093
17.03618468,2.0122204031809288,-0.3839829234645755,-0.7045855399810688
17.04094,1.943178292392373,-0.5885233928977088,-0.7416885033423359
17.04569531,1.845227498683969,-0.774712028250764,-0.7723961802619852
17.05045067,1.7199996061299578,-0.9406854474686529,-0.7962870995478054
17.05520598,1.5693995400946694,-1.0849732693545435,-0.8130073391264218
17.0599613,1.395569677319361,-1.2065162308036357,-0.8222760356748531
17.06471661,1.2008554461074872,-1.3046761353242073,-0.8238896572058948
17.06947198,0.9877728104784292,-1.3792372643211102,-0.8177251920745133
