"Time (s)","Acceleration x (m/s^2)","Acceleration y (m/s^2)","Acceleration z (m/s^2)"
6.033555000E-3,-2.481955290E0,5.908477306E0,5.988038540E0
1.079699300E-2,-2.691925526E0,5.840281963E0,5.797211170E0
1.558709700E-2,-2.710469961E0,5.676971912E0,5.840879917E0
2.036386800E-2,-3.099901676E0,5.617749214E0,5.871388435E0
2.514063900E-2,-3.388834953E0,5.612365723E0,6.122634888E0
2.991740900E-2,-3.601198196E0,5.611767292E0,6.450451851E0
3.469418000E-2,-3.326621771E0,5.419743061E0,6.770491600E0
3.947095100E-2,-2.997608662E0,5.361717224E0,6.893722057E0
4.424772200E-2,-2.844467878E0,5.386243820E0,7.108478069E0
4.902449300E-2,-2.648256540E0,5.358128071E0,7.232306480E0
5.380126400E-2,-2.519642353E0,5.304887772E0,7.298707485E0
5.857803400E-2,-2.408974171E0,5.218746185E0,7.399205685E0
6.335480500E-2,-2.317448616E0,5.136792183E0,7.567301750E0
6.813157600E-2,-2.139781713E0,5.079364300E0,7.743772507E0
7.290834700E-2,-1.906481385E0,5.056034088E0,7.795217991E0
7.768511800E-2,-1.774278045E0,5.047060966E0,7.660023689E0
8.246188900E-2,-1.633101463E0,4.994419098E0,7.366304398E0
8.723865900E-2,-1.568495274E0,4.864608288E0,6.963113785E0
9.201543000E-2,-1.414158225E0,4.701298237E0,6.463612080E0
9.677892000E-2,-8.249256015E-1,4.500899315E0,6.177071571E0
1.015689720E-1,-7.645068169E-1,4.221537113E0,5.769095421E0
1.063457430E-1,-6.101697683E-1,4.144967079E0,5.293521881E0
1.111092320E-1,-5.557330847E-1,4.154538155E0,4.919044971E0
1.158993360E-1,-4.199403822E-1,4.169493675E0,4.615755081E0
1.206760550E-1,-1.968096644E-1,4.242474556E0,4.581058979E0
1.254395450E-1,1.363908947E-1,4.252644062E0,4.555335999E0
1.302296490E-1,4.414757788E-1,4.191029072E0,4.625924587E0
1.350064200E-1,6.245267391E-1,4.152743816E0,4.965705395E0
1.397698570E-1,7.567301393E-1,4.061218262E0,5.502295494E0
1.445599610E-1,9.224331379E-1,3.878765583E0,6.163911343E0
1.493367320E-1,1.095314622E0,3.642474174E0,7.036693096E0
1.541001700E-1,1.164108157E0,3.488137245E0,8.010572433E0
1.588902740E-1,1.054636598E0,3.318845034E0,8.807980537E0
1.636670450E-1,7.022934556E-1,3.269792080E0,9.433703423E0
1.684304820E-1,5.892325640E-1,3.327219963E0,9.717252731E0
1.732205860E-1,8.715856671E-1,3.390031576E0,1.004686451E1
1.779973570E-1,8.955138922E-1,3.409173965E0,1.087238789E1
1.827607950E-1,2.285145670E-1,3.460021496E0,1.219083309E1
1.875508990E-1,4.510470629E-1,3.739981890E0,1.146461105E1
1.923276700E-1,5.832505226E-1,3.842274904E0,9.755537987E0
1.971044410E-1,2.356930375E-1,3.601198196E0,8.764310837E0
2.018812110E-1,-2.135594189E-1,3.220141172E0,8.248059273E0
2.066579820E-1,-6.239284873E-1,2.891128063E0,7.929215908E0
2.114347530E-1,-9.649057388E-1,2.788834810E0,8.045866013E0
2.162115240E-1,-1.077368379E0,2.889931440E0,8.373085022E0
2.209882950E-1,-6.095715761E-1,2.958127022E0,8.702097893E0
2.257650660E-1,2.584248483E-1,2.868396044E0,9.033503532E0
2.305418360E-1,8.428717852E-1,2.359323025E0,9.462417603E0
2.353186070E-1,1.402792215E0,1.719841242E0,9.627521515E0
2.400820970E-1,1.998605132E0,7.914260626E-1,9.332606316E0
2.448721490E-1,3.043072224E0,-7.716853023E-1,8.906085968E0
2.496489200E-1,4.622933388E0,-3.017947674E0,9.263813019E0
2.544124090E-1,6.294918060E0,-2.773879766E0,1.131864929E1
2.592024610E-1,6.122634888E0,-1.034895778E0,1.210110188E1
2.639792320E-1,4.545166492E0,6.323033571E-1,1.254915810E1
2.687427220E-1,2.900699139E0,1.567298889E0,1.333938789E1
2.735327740E-1,1.450648785E0,1.983051777E0,1.295773315E1
2.783095970E-1,3.792623878E-1,2.548954248E0,1.380778313E1
2.830730340E-1,-1.000199914E0,3.326023579E0,1.431865025E1
2.878631390E-1,-2.371287346E0,3.929612875E0,1.376830196E1
2.926399090E-1,-3.236292601E0,4.284348965E0,1.247677517E1
2.974033470E-1,-1.998605132E0,3.902693748E0,1.158784199E1
3.021934510E-1,-6.610172391E-1,3.516252756E0,1.067856884E1
3.069702220E-1,2.706880569E0,3.327818155E0,8.972486496E0
3.117336590E-1,7.098308563E0,3.479164124E0,6.660421848E0
3.165237640E-1,1.054158020E1,3.921238184E0,5.211567879E0
3.213005340E-1,1.127557850E1,4.381856441E0,4.055834293E0
3.260639720E-1,9.833304405E0,4.715655327E0,3.415156126E0
3.308540760E-1,7.319644451E0,4.839483738E0,3.121437073E0
3.356308470E-1,4.938187599E0,4.809573650E0,3.493520975E0
3.403942840E-1,3.302693367E0,4.704289436E0,3.717848301E0
3.451843890E-1,1.460818172E0,4.839483738E0,4.341776848E0
3.499611590E-1,5.659025311E-1,5.057828903E0,6.020939827E0
3.547245970E-1,8.961120844E-1,5.120640278E0,7.189833641E0
3.595147010E-1,1.158724308E0,5.053641319E0,7.961519241E0
3.642914720E-1,1.724626899E0,4.780261517E0,8.606385231E0
3.690549610E-1,1.852044702E0,4.399802685E0,9.071788788E0
3.738450140E-1,1.246062398E0,3.984049797E0,9.238089561E0
3.786217840E-1,4.660021961E-1,3.640081406E0,9.156135559E0
3.833852740E-1,3.828516230E-2,3.335594654E0,8.995817184E0
3.881753260E-1,-1.333998591E-1,2.992822886E0,8.828917503E0
3.929520970E-1,-3.571287692E-1,2.645863533E0,8.633902550E0
3.977155860E-1,-4.803591371E-1,2.337189436E0,8.542975426E0
4.025056390E-1,-6.789634228E-1,2.081755638E0,8.577671051E0
4.072824090E-1,-1.507478237E0,1.707877159E0,9.100502968E0
4.120458990E-1,-2.928216696E0,1.144367456E0,1.218006516E1
4.168359510E-1,-2.574079037E0,1.116251707E0,1.333460236E1
4.216127220E-1,-8.434699774E-1,9.134600163E-1,1.142034435E1
4.263762110E-1,1.417747438E-1,6.568298340E-1,9.750752449E0
4.311662640E-1,3.481557071E-1,1.615155339E-1,8.977272034E0
4.359430340E-1,8.327022791E-1,-1.357926875E-1,8.758927345E0
4.407065240E-1,1.710868239E0,-1.381855011E-1,8.422736168E0
4.454966280E-1,2.412563324E0,7.537391037E-2,8.097909927E0
4.502733990E-1,2.681157827E0,3.792623878E-1,7.884948730E0
4.550368360E-1,2.550150633E0,6.634100676E-1,7.593024254E0
4.598269410E-1,2.300100803E0,8.171489239E-1,7.214360237E0
4.646037110E-1,2.107478619E0,7.926225066E-1,6.884748936E0
4.693671490E-1,1.987837434E0,6.526423693E-1,6.688537598E0
4.741572530E-1,1.954936147E0,4.552344978E-1,6.626922131E0
4.789340240E-1,1.936391711E0,2.434697002E-1,6.655636311E0
4.837107950E-1,1.861017823E0,4.606183618E-2,6.651448727E0
4.884875660E-1,1.794018745E0,-1.226321608E-1,6.483951092E0
4.932643360E-1,1.811366796E0,-2.386840582E-1,6.152545452E0
4.980277740E-1,1.823330879E0,-3.104687333E-1,5.682355404E0
5.028178780E-1,1.739582062E0,-3.828516304E-1,5.207380295E0
5.075946490E-1,1.522433400E0,-3.206382394E-1,4.747958183E0
5.123580860E-1,1.086939692E0,-3.266202807E-1,4.390829563E0
5.171481910E-1,9.517452121E-1,-7.980063558E-1,3.714857101E0
5.219249610E-1,6.424728632E-1,-1.010369420E0,2.837887764E0
5.266884510E-1,5.395814776E-1,-1.006181955E0,3.141177893E0
5.314785030E-1,6.155536175E-1,-1.112064362E0,3.826721668E0
5.362552740E-1,6.610172391E-1,-1.217946768E0,4.240081787E0
5.410320450E-1,5.778666735E-1,-1.242473125E0,4.552345276E0
5.458088160E-1,5.946164131E-1,-1.314856052E0,4.959722996E0
5.505855860E-1,6.963114142E-1,-1.300499082E0,5.319842815E0
5.553623570E-1,8.159525394E-1,-1.247258782E0,5.472385406E0
5.601391280E-1,1.097109199E0,-1.251446247E0,5.499902725E0
5.649158990E-1,1.534995675E0,-1.332802176E0,5.440082073E0
5.696926700E-1,1.928615093E0,-1.538584948E0,5.207380295E0
5.744694410E-1,2.266003132E0,-1.855633974E0,4.826921463E0
5.792462110E-1,2.548954248E0,-2.182254314E0,4.326821327E0
5.840097010E-1,2.813361168E0,-2.465803623E0,3.883551121E0
5.887997530E-1,2.959921598E0,-2.807379246E0,3.566502094E0
5.935765760E-1,3.140579700E0,-3.143570662E0,3.330809116E0
5.983400140E-1,3.473780155E0,-3.407977581E0,3.161516905E0
6.031301180E-1,3.791427374E0,-3.595216036E0,2.938386202E0
6.079068890E-1,4.095315933E0,-3.729214191E0,2.745165825E0
6.126703260E-1,4.119244099E0,-3.753142357E0,2.778665304E0
6.174604300E-1,3.899104595E0,-3.754338741E0,3.288934708E0
6.222372010E-1,4.799404144E0,-4.093521118E0,3.303889751E0
6.270006390E-1,5.574678421E0,-4.178466320E0,3.280559778E0
6.317907430E-1,6.223133564E0,-4.152743816E0,3.535993576E0
6.365675140E-1,6.833901405E0,-4.069592953E0,3.815953970E0
6.413309510E-1,7.543971539E0,-3.942773581E0,4.124029636E0
6.461210550E-1,8.320442200E0,-3.984647989E0,4.206582069E0
6.508978260E-1,9.200403214E0,-4.213760853E0,4.072584152E0
6.556612640E-1,1.006181908E1,-4.490729809E0,3.967299938E0
6.604513680E-1,1.060618591E1,-4.648057938E0,4.195216179E0
6.652281390E-1,1.095793152E1,-4.749752998E0,4.879563808E0
6.699916280E-1,1.204008579E1,-5.108078003E0,5.023132801E0
6.747816800E-1,1.271366501E1,-5.395216942E0,5.336592674E0
6.795584510E-1,1.343031502E1,-5.538187981E0,5.827121258E0
6.843218890E-1,1.389691544E1,-5.595615864E0,6.602396011E0
6.891119930E-1,1.424985695E1,-5.618945599E0,7.492526054E0
6.938887640E-1,1.469731522E1,-5.545964718E0,8.282156944E0
6.986522530E-1,1.524228001E1,-5.448457241E0,8.865407944E0
7.034423050E-1,1.572981739E1,-5.408975601E0,9.217751503E0
7.082190760E-1,1.593500233E1,-5.404190063E0,9.321838379E0
7.129825660E-1,1.591107464E1,-5.413761139E0,9.293723106E0
7.177726180E-1,1.586800289E1,-5.423332691E0,9.260223389E0
7.225493890E-1,1.586740494E1,-5.385047436E0,9.174081802E0
7.273128780E-1,1.588535118E1,-5.428118229E0,8.904889107E0
7.321029300E-1,1.600259972E1,-5.485546112E0,8.679366112E0
7.368797010E-1,1.629751587E1,-5.446064472E0,8.648857117E0
7.416431910E-1,1.673540115E1,-5.291129112E0,8.814560890E0
7.464332430E-1,1.728694725E1,-5.145166874E0,8.782257080E0
7.512100660E-1,1.793241119E1,-4.888536453E0,8.711668968E0
7.559735030E-1,1.854916191E1,-4.380660057E0,8.693722725E0
7.607636070E-1,1.883271027E1,-3.749552965E0,8.715856552E0
7.655403780E-1,1.831885147E1,-3.128615618E0,8.996415138E0
7.703038160E-1,1.884108543E1,-2.776272535E0,9.007781029E0
7.750939200E-1,1.966242218E1,-2.586043119E0,8.806783676E0
7.798706910E-1,2.037010002E1,-2.541177750E0,8.635098457E0
7.846341280E-1,2.065962982E1,-2.468196630E0,8.624331474E0
7.894242320E-1,2.074936104E1,-2.298904419E0,8.579465866E0
7.942010030E-1,2.053998947E1,-2.077568293E0,8.648259163E0
7.989644410E-1,2.015893173E1,-1.963310957E0,8.741579056E0
8.037545450E-1,1.976411629E1,-2.041077614E0,8.662017822E0
8.085313160E-1,1.940638924E1,-1.950748682E0,8.504690170E0
8.133080860E-1,1.903729630E1,-2.042872429E0,8.084749222E0
8.180848570E-1,1.857368851E1,-2.053041935E0,7.722835064E0
8.228616280E-1,1.814537239E1,-2.087737799E0,7.595417500E0
8.276383990E-1,1.762134361E1,-2.127817631E0,7.535596848E0
8.324151700E-1,1.702732658E1,-2.143370867E0,7.548757076E0
8.371919410E-1,1.664686775E1,-2.111067772E0,7.679764271E0
8.419554300E-1,1.650927925E1,-2.096710920E0,7.728816986E0
8.467454820E-1,1.658465385E1,-1.893919110E0,6.960123062E0
8.515222530E-1,1.684846306E1,-1.387238979E0,5.177470207E0
8.562857430E-1,2.050529289E1,7.794619799E-1,-4.124029636E0
8.610757950E-1,2.164487457E1,2.173281193E0,-1.004806042E1
8.658525660E-1,1.983350945E1,2.814557552E0,-1.177149105E1
8.706160550E-1,1.690648842E1,3.019144058E0,-1.117089272E1
8.754061070E-1,1.335494137E1,2.560918331E0,-7.029514790E0
8.801828780E-1,1.169252777E1,2.078764677E0,-3.671188116E0
8.849463680E-1,1.125703430E1,1.286142230E0,-6.837490797E-1
8.897364720E-1,1.175115204E1,2.841476798E-1,1.858026743E0
8.945131910E-1,1.256710434E1,-1.237089276E0,3.765106440E0
8.992766800E-1,1.290568924E1,-2.817548752E0,5.391627789E0
9.040667320E-1,1.291226959E1,-4.124029636E0,6.625725746E0
9.088435550E-1,1.284885979E1,-4.953142643E0,7.514659405E0
9.136069930E-1,1.228893852E1,-5.402395248E0,7.555935860E0
9.183970970E-1,1.098485088E1,-5.159523964E0,6.026922226E0
9.231738680E-1,1.073958588E1,-4.947160721E0,4.885545731E0
9.279373050E-1,1.074437141E1,-5.333003521E0,6.210571289E0
9.327274090E-1,9.638887405E0,-4.936393261E0,6.911668301E0
9.375041800E-1,8.596215248E0,-4.495515347E0,7.051050186E0
9.422676180E-1,8.014161110E0,-4.189234257E0,7.745566845E0
9.470577220E-1,7.759325504E0,-4.416552544E0,9.584450722E0
9.518344930E-1,7.658228874E0,-4.537988186E0,1.090528965E1
9.565979300E-1,7.509873867E0,-4.292723656E0,1.008036327E1
9.613880340E-1,7.836493969E0,-3.949951887E0,1.074018478E1
9.661648050E-1,6.787241459E0,-3.166900873E0,9.915258408E0
9.709282430E-1,6.366104603E0,-2.087139606E0,6.989434719E0
9.757183470E-1,6.946363926E0,-2.081157446E0,7.740182877E0
9.804951180E-1,6.894320011E0,-2.056631088E0,5.398207664E0
9.852585550E-1,6.230910301E0,-1.893320918E0,2.843271494E0
9.900486590E-1,5.961717606E0,-1.884347796E0,3.108874798E0
9.948254300E-1,5.848656654E0,-1.759322882E0,3.401995659E0
9.995889200E-1,5.544768333E0,-1.914258122E0,3.456432343E0
1.004378972E0,5.595017433E0,-2.160120726E0,4.540979385E0
1.009155743E0,4.427320004E0,-2.090728760E0,4.249652863E0
1.013919232E0,3.707080364E0,-2.077568293E0,3.149552822E0
1.018709284E0,3.265604734E0,-2.208575249E0,2.475374937E0
1.023486055E0,2.469991207E0,-2.036292076E0,7.274180651E-1
1.028249545E0,3.816552162E0,-2.732005358E0,1.969292998E0
1.033039597E0,7.465008259E0,-5.218147755E0,1.075753212E1
1.037816368E0,8.313263893E0,-5.497509956E0,1.637288857E1
1.042579857E0,4.910071850E0,-4.376472473E0,1.123131084E1
1.047369961E0,4.836492538E0,-2.706880569E0,4.679762840E0
1.052146732E0,3.165106058E0,-1.398604870E0,4.689932466E-1
1.056910170E0,3.601198196E0,-1.305882931E0,1.018744230E0
1.061700274E0,5.262415409E0,-2.575275421E0,2.877369165E0
1.066477045E0,8.404789925E0,-5.250451088E0,1.273938751E1
1.071240482E0,7.573283672E0,-5.023132801E0,1.699562073E1
1.076030586E0,5.005784988E0,-2.513062000E0,1.307199001E1
1.080807357E0,5.952146530E0,-5.790630579E-1,3.875774384E0
1.085570795E0,5.976672649E0,-2.781656384E-1,-1.398604870E0
1.090360899E0,4.991427898E0,6.981059909E-1,-2.492722988E0
1.095137670E0,4.234697819E0,1.130010486E0,-1.462014675E0
1.099901107E0,4.048655987E0,5.599204898E-1,5.156532526E-1
1.104691211E0,3.823730469E0,-1.878365725E-1,1.439282775E0
1.109467982E0,4.262813568E0,-8.135597110E-1,2.161915302E0
1.114244753E0,5.048855782E0,-1.259821177E0,2.819941521E0
1.119021524E0,5.377869129E0,-1.693520188E0,3.558127165E0
1.123798295E0,5.237290382E0,-2.315055847E0,4.332205296E0
1.128575066E0,4.825725079E0,-2.586641312E0,4.549952030E0
1.133351836E0,4.292125702E0,-2.370688915E0,4.548157692E0
1.138128607E0,4.342374802E0,-2.110469580E0,4.389034748E0
1.142905378E0,4.459623337E0,-1.768295884E0,4.239483356E0
1.147682149E0,4.710271358E0,-1.430309772E0,4.122235298E0
1.152458920E0,4.794020176E0,-1.979462504E0,4.314857483E0
1.157235691E0,4.802993298E0,-2.976671457E0,4.526622295E0
1.162012461E0,5.804987907E0,-4.216751575E0,4.277768612E0
1.166789232E0,6.324828625E0,-4.866403103E0,4.179663181E0
1.171552722E0,7.974679470E0,-6.350551128E0,3.979264021E0
1.176342774E0,6.903891563E0,-5.500501156E0,4.359124660E0
1.181119545E0,4.881358147E0,-3.872783422E0,5.198407173E0
1.185883034E0,3.824328899E0,-3.017947674E0,5.467599869E0
1.190673086E0,3.270390272E0,-2.845664263E0,5.331208706E0
1.195449857E0,2.836092949E0,-2.899502754E0,4.963910580E0
1.200213347E0,3.174677372E0,-3.028715372E0,5.129613400E0
1.205003451E0,3.699902058E0,-3.148356438E0,5.242076397E0
1.209780222E0,4.152145386E0,-3.272184849E0,5.279164791E0
1.214556993E0,4.286143780E0,-3.416352510E0,4.582255363E0
1.219333764E0,4.098307133E0,-3.696312666E0,4.045664787E0
1.224110534E0,3.382254839E0,-3.707080364E0,3.589233875E0
1.228887305E0,3.623929977E0,-3.542573929E0,3.558725595E0
1.233664076E0,4.195216179E0,-3.444468260E0,3.671188116E0
1.238440847E0,5.006382942E0,-3.399004459E0,3.335594654E0
1.243204284E0,4.703691006E0,-3.192623615E0,2.866601467E0
1.247994389E0,4.539782524E0,-3.255435228E0,2.502892494E0
1.252771159E0,4.278367043E0,-3.251247883E0,2.653042078E0
1.257547930E0,4.107280254E0,-3.477967739E0,2.457428932E0
1.262324701E0,4.379463673E0,-3.622733593E0,2.571087837E0
1.267101472E0,5.087738991E0,-3.717249870E0,2.476571321E0
1.271864961E0,4.978865623E0,-3.803989887E0,1.694716692E0
1.276655014E0,5.053641319E0,-3.659224033E0,1.521237016E0
1.281431784E0,5.119443893E0,-3.581457376E0,1.463211060E0
1.286195274E0,5.243272781E0,-3.706482172E0,1.390828133E0
1.290985326E0,5.535795212E0,-3.955934048E0,9.242277741E-1
1.295762097E0,6.103492260E0,-4.349553585E0,8.739784956E-1
1.300525586E0,6.002395630E0,-4.508676052E0,6.149554253E-1
1.305315639E0,6.570092678E0,-4.854438782E0,7.028916478E-1
1.310092409E0,7.152146816E0,-5.219344616E0,7.339983582E-1
1.314855899E0,7.595417500E0,-5.660820007E0,7.274180651E-1
1.319645951E0,8.353343964E0,-5.736194134E0,8.823533654E-1
1.324422722E0,8.404789925E0,-6.531209469E0,3.349951804E-1
1.329186211E0,8.348558426E0,-7.706683636E0,5.473581553E-1
1.333976264E0,9.493523598E0,-9.506086349E0,8.979067206E-1
1.338753034E0,9.620942116E0,-9.872187614E0,1.406381488E0
1.343516524E0,9.534799576E0,-9.458230019E0,1.521237016E0
1.348306628E0,9.614361763E0,-9.004191399E0,7.866404653E-1
1.353083399E0,1.049970531E1,-9.845867157E0,1.901097536E0
1.357846836E0,7.805387497E0,-1.077188969E1,-3.541377485E-1
1.362636941E0,6.854838848E0,-1.169372463E1,-2.297109842E0
1.367413711E0,9.954740524E0,-1.262991619E1,-3.061616659E0
1.372177149E0,1.134257793E1,-1.245284748E1,-2.516651154E0
1.376967253E0,1.020658493E1,-1.081854916E1,-1.422533035E0
1.381744024E0,9.997811317E0,-9.855438232E0,-7.746763229E-1
1.386520795E0,1.000678444E1,-9.773484230E0,-1.581057549E0
1.391297566E0,7.424928665E0,-8.391629219E0,-2.960519791E0
1.396074336E0,2.099701911E-1,-2.705684185E0,-1.184447169E0
1.400837774E0,4.048057556E0,-4.127020836E0,-2.072184324E0
1.405627878E0,9.072386742E0,-5.598606586E0,-1.391426325E0
1.410404649E0,1.126959610E1,-6.533602238E0,3.343969584E-1
1.415168086E0,1.179900837E1,-7.178467751E0,1.119242787E0
1.419958191E0,1.136949635E1,-7.122236729E0,1.606182218E0
1.424734961E0,1.027597713E1,-6.690331936E0,1.179661512E0
1.429498399E0,9.367900848E0,-6.534200668E0,1.448255897E0
1.434288503E0,8.615956306E0,-6.362515450E0,1.490130305E0
1.439065274E0,7.689335346E0,-6.388836384E0,1.686939955E0
1.443828764E0,6.632904530E0,-6.757331371E0,1.500898004E0
1.448618816E0,5.269593716E0,-7.242475986E0,1.561316729E0
1.453395586E0,3.745365620E0,-8.045866013E0,1.588834286E0
1.458159076E0,2.464009047E0,-8.834300995E0,1.658226132E0
1.462949128E0,1.782652855E0,-9.192625999E0,1.364507079E0
1.467725899E0,1.055832982E0,-9.406784058E0,1.450050473E0
1.472489389E0,6.526423693E-1,-9.580862045E0,1.481157184E0
1.477279441E0,7.399803996E-1,-9.623932838E0,1.720439434E0
1.482056211E0,1.077966571E0,-9.642477036E0,1.771885157E0
1.486819701E0,1.391426325E0,-9.665806770E0,1.635494232E0
1.491609753E0,1.898106575E0,-9.620942116E0,1.273579836E0
1.496386524E0,2.331207514E0,-9.384052277E0,6.705885530E-1
1.501163295E0,2.941975355E0,-9.247062683E0,2.596212626E-1
1.505940118E0,3.495315790E0,-8.999405861E0,-2.374876440E-1
1.510716836E0,4.105485439E0,-8.699107170E0,-6.107679605E-1
1.515480326E0,4.532604218E0,-8.332406998E0,-5.940182209E-1
1.520270430E0,4.782654285E0,-8.042277336E0,-7.920243144E-1
1.525047201E0,4.850251675E0,-7.565506935E0,-3.170489967E-1
1.529823972E0,4.880161762E0,-7.257431030E0,7.058826834E-2
1.534600743E0,5.191826820E0,-7.241877556E0,-3.678964674E-1
1.539377514E0,5.398207664E0,-7.010372162E0,-6.472585201E-1
1.544140951E0,5.081757069E0,-6.461817741E0,-7.178467698E-3
1.548931055E0,5.054239750E0,-6.105885029E0,2.943171859E-1
1.553707826E0,4.957928658E0,-6.014359951E0,1.513460279E-1
1.558471264E0,5.041079044E0,-5.821737289E0,6.927221417E-1
1.563261368E0,5.005186558E0,-5.633901119E0,1.149153113E0
1.568038139E0,4.631308079E0,-5.562116146E0,-9.212367237E-2
1.572801576E0,4.357928276E0,-5.374279499E0,-1.069591761E0
1.577591680E0,3.753740549E0,-5.043471813E0,-9.708877802E-1
1.582368451E0,2.837289333E0,-4.795216560E0,-1.331007600E0
1.587131889E0,2.150549412E0,-4.536193371E0,-1.341775298E0
1.591921993E0,2.017149448E0,-4.310071945E0,-1.346560955E0
1.596698764E0,1.598405480E0,-4.113860130E0,-1.301097274E0
1.601462253E0,1.112662554E0,-3.960719585E0,-1.222134113E0
1.606252305E0,8.063812256E-1,-3.716053486E0,-1.388435364E0
1.611029076E0,6.053841114E-1,-3.504288673E0,-1.508076429E0
1.615792566E0,2.763710022E-1,-3.370290756E0,-7.668996453E-1
1.620582618E0,-1.734796353E-2,-3.415156126E0,2.757728100E-1
1.625359389E0,-1.256231815E-1,-3.570091486E0,1.116251707E0
1.630122878E0,-3.762713671E-1,-3.522234917E0,1.396211982E0
1.634912930E0,-6.107679605E-1,-3.392424345E0,1.253240824E0
1.639689701E0,-7.417750359E-1,-3.369094372E0,1.555932879E0
1.644453191E0,-6.765705943E-1,-3.311068296E0,1.339980721E0
1.649243243E0,-6.574280262E-1,-3.243471146E0,1.416550994E0
1.654020014E0,-6.819544435E-1,-3.296711445E0,2.040479422E0
1.658783503E0,-6.394818425E-1,-3.320639610E0,2.054836512E0
1.663573555E0,2.907279432E-1,-3.579662561E0,2.299502611E0
1.668350326E0,1.851446509E0,-4.732405186E0,3.314657450E0
1.673113816E0,1.695314884E0,-4.462614059E0,4.304089546E0
1.677903868E0,1.086341500E0,-4.068994999E0,3.769293785E0
1.682680691E0,4.785645381E-2,-3.999004841E0,1.965703845E0
1.687444128E0,-7.124629617E-1,-3.715455294E0,-8.051848412E-1
1.692234232E0,-5.521438122E-1,-3.641875982E0,-2.566900492E0
1.697011003E0,-2.398804724E-1,-3.693321705E0,-3.662214994E0
1.701774441E0,7.980063558E-1,-4.707878590E0,-2.496312141E0
1.706564545E0,-1.262213886E-1,-1.006421185E1,7.028916478E-1
1.711341316E0,-6.443871498E0,-2.185005951E1,2.318645239E0
1.716104753E0,-1.423310757E1,-3.721317673E1,1.807777524E0
1.720894857E0,-1.571905041E1,-5.227420044E1,5.320441246E0
1.725671628E0,-1.123789120E1,-6.173123550E1,8.096714020E0
1.730435066E0,-7.782655358E-1,-6.152246094E1,6.938587666E0
1.735225170E0,9.123234749E0,-5.347480011E1,2.691327333E0
1.740001941E0,1.454537106E1,-4.192165375E1,-1.524826288E0
1.744765378E0,1.505743504E1,-2.997488976E1,-4.895116806E0
1.749555482E0,1.323948765E1,-2.050708771E1,-6.993622303E0
1.754332253E0,1.090050316E1,-1.367617798E1,-7.711469173E0
1.759095691E0,8.411968231E0,-8.926424980E0,-7.600800991E0
1.763885795E0,6.014957905E0,-5.830710411E0,-6.678368092E0
1.768662566E0,3.857230186E0,-3.961916208E0,-5.310869694E0
1.773426055E0,2.040479422E0,-2.830111027E0,-3.713062525E0
1.778216107E0,5.551348329E-1,-2.256431818E0,-2.060220242E0
1.782992878E0,-6.442674994E-1,-2.245664120E0,-5.330012441E-1
1.787756368E0,-1.706082582E0,-2.562114954E0,7.058826685E-1
1.792546420E0,-2.773281336E0,-3.166900873E0,1.753340840E0
1.797323191E0,-3.835096598E0,-4.201198578E0,2.628515720E0
1.802086680E0,-4.812564373E0,-5.427519798E0,3.167499065E0
1.806876732E0,-5.820540905E0,-6.769295216E0,3.341576815E0
1.811653503E0,-6.643671989E0,-8.144570351E0,3.332603693E0
1.816416993E0,-7.054639339E0,-9.431908607E0,3.220141172E0
1.821207045E0,-6.853044033E0,-1.047218800E1,2.927020311E0
1.825983816E0,-5.740381718E0,-1.112363434E1,2.518445730E0
1.830747305E0,-4.167100430E0,-1.136530972E1,2.064407825E0
1.835537357E0,-2.781058073E0,-1.128455162E1,1.615155339E0
1.840314180E0,-1.847259045E0,-1.097408295E1,1.159322619E0
1.845077618E0,-1.466202021E0,-1.053021431E1,7.202396393E-1
1.849867670E0,-1.869990945E0,-9.899705887E0,2.997010350E-1
1.854644493E0,-2.834298372E0,-9.391230583E0,7.417750359E-2
1.859421264E0,-3.681955814E0,-9.151947975E0,8.315058798E-2
1.864198034E0,-3.829114437E0,-8.974281311E0,2.853440940E-1
1.868974805E0,-3.361915827E0,-8.901300430E0,5.270192027E-1
1.873751576E0,-2.741576433E0,-8.947959900E0,7.208378315E-1
1.878528347E0,-2.212164640E0,-9.086145401E0,8.243274093E-1
1.883305118E0,-1.869392633E0,-9.278767586E0,8.177471161E-1
1.888081889E0,-1.636092424E0,-9.475577354E0,7.250252366E-1
1.892858659E0,-1.494317770E0,-9.614361763E0,5.467599630E-1
1.897635430E0,-1.376471281E0,-9.720243454E0,2.919243574E-1
1.902412201E0,-1.211366415E0,-9.801599503E0,-2.033899166E-2
1.907188972E0,-1.064806104E0,-9.878170013E0,-2.991028428E-1
1.911965743E0,-9.332008362E-1,-9.969097137E0,-5.497509837E-1
1.916742514E0,-8.243274093E-1,-1.002652550E1,-6.993024349E-1
1.921519284E0,-7.585247755E-1,-1.004566765E1,-7.812566161E-1
1.926296055E0,-7.441678643E-1,-1.006002426E1,-7.668996453E-1
1.931072826E0,-7.100701332E-1,-1.007916737E1,-7.046862841E-1
1.935849597E0,-6.951149702E-1,-1.008395290E1,-5.748756528E-1
1.940626368E0,-6.705885530E-1,-1.007916737E1,-4.408775866E-1
1.945403139E0,-6.454638839E-1,-1.007916737E1,-2.679961324E-1
1.950179909E0,-6.209374666E-1,-1.005523872E1,-9.511470050E-2
1.954956680E0,-6.388836503E-1,-1.002652550E1,8.255238086E-2
1.959733451E0,-6.616154313E-1,-9.987641335E0,2.500499785E-1
1.964510222E0,-6.849454641E-1,-9.958928108E0,3.607180119E-1
1.969286993E0,-6.801598072E-1,-9.930213928E0,4.420739710E-1
1.974063764E0,-7.034898400E-1,-9.868000984E0,4.803591371E-1
1.978840534E0,-7.704889178E-1,-9.800403595E0,4.809573591E-1
1.983617305E0,-8.231309652E-1,-9.738189697E0,4.522434771E-1
1.988394076E0,-9.044869542E-1,-9.704689980E0,4.241278172E-1
1.993170847E0,-9.948160052E-1,-9.690333366E0,3.954139352E-1
1.997947618E0,-1.100100160E0,-9.690333366E0,3.385843933E-1
2.002724389E0,-1.219741344E0,-9.705288887E0,2.865405083E-1
2.007501211E0,-1.291526079E0,-9.690931320E0,2.338984162E-1
2.012277982E0,-1.362712502E0,-9.714859962E0,1.914258152E-1
2.017054753E0,-1.377069473E0,-9.725028992E0,1.627119333E-1
2.021831524E0,-1.386640668E0,-9.734601021E0,1.339980662E-1
2.026608295E0,-1.396211982E0,-9.744172096E0,1.292124242E-1
2.031385066E0,-1.405783296E0,-9.748957634E0,1.244267747E-1
2.036161836E0,-1.396211982E0,-9.758528709E0,1.339980662E-1
2.040938607E0,-1.377069473E0,-9.729815483E0,1.674975902E-1
2.045715378E0,-1.367498159E0,-9.705288887E0,1.962114573E-1
2.050492149E0,-1.314856052E0,-9.700503349E0,2.536391914E-1
2.055268920E0,-1.205384374E0,-9.666405678E0,2.961117923E-1
2.060045691E0,-1.138385415E0,-9.705288887E0,3.146561682E-1
2.064822461E0,-1.095314622E0,-9.699904442E0,3.290131092E-1
2.069599232E0,-1.057029366E0,-9.690333366E0,3.146561682E-1
2.074376003E0,-1.033699393E0,-9.652048111E0,2.805584669E-1
2.079152774E0,-1.019940615E0,-9.637093544E0,2.374876440E-1
2.083929545E0,-9.960124493E-1,-9.622735977E0,1.944168359E-1
2.088706316E0,-9.589236975E-1,-9.632308006E0,1.124626622E-1
2.093483086E0,-9.302098155E-1,-9.675378799E0,5.024927482E-2
2.098259857E0,-9.020941257E-1,-9.713663101E0,-1.734796353E-2
2.103036628E0,-8.691928387E-1,-9.747760773E0,-6.999006122E-2
2.107813399E0,-8.596215248E-1,-9.771689415E0,-1.280160099E-1
2.112590170E0,-8.362914920E-1,-9.776474953E0,-1.519442350E-1
2.117366941E0,-7.980063558E-1,-9.790832520E0,-1.663011760E-1
2.122143711E0,-7.836494446E-1,-9.800403595E0,-1.663011760E-1
2.126920482E0,-7.692924738E-1,-9.814760208E0,-1.375873089E-1
2.131697253E0,-7.692924738E-1,-9.800403595E0,-8.015955985E-2
2.136474024E0,-7.495517135E-1,-9.786046028E0,-2.273181453E-2
2.141250795E0,-7.208378315E-1,-9.785448074E0,3.948157281E-2
2.146027566E0,-7.208378315E-1,-9.771091461E0,9.690931439E-2
2.150804336E0,-7.537391186E-1,-9.795618057E0,1.501496136E-1
2.155581107E0,-7.579265833E-1,-9.800403595E0,2.027917206E-1
2.160357878E0,-7.292127013E-1,-9.805189133E0,2.267199457E-1
2.165134649E0,-7.052844763E-1,-9.819545746E0,2.650051117E-1
2.169911420E0,-7.004988194E-1,-9.819545746E0,2.650051117E-1
2.174688243E0,-7.004988194E-1,-9.829116821E0,2.697907388E-1
2.179465014E0,-6.813562512E-1,-9.829116821E0,2.644068897E-1
2.184241784E0,-6.813562512E-1,-9.819545746E0,2.548356056E-1
2.189018503E0,-6.765705943E-1,-9.824331284E0,2.500499785E-1
2.193795274E0,-6.765705943E-1,-9.829116821E0,2.261217386E-1
2.198572097E0,-6.628118753E-1,-9.833903313E0,2.021935135E-1
2.203348868E0,-6.628118753E-1,-9.819545746E0,1.686939895E-1
2.208125639E0,-6.442674994E-1,-9.819545746E0,1.256231815E-1
2.212902409E0,-6.538388133E-1,-9.829116821E0,7.716853172E-2
2.217679180E0,-6.448656917E-1,-9.833903313E0,2.931207791E-2
2.222455951E0,-6.544370055E-1,-9.843474388E0,1.016949583E-2
2.227232722E0,-6.687939167E-1,-9.843474388E0,-3.290131316E-2
2.232009493E0,-6.879364848E-1,-9.843474388E0,-5.682953820E-2
2.236786264E0,-6.927221417E-1,-9.843474388E0,-7.597211748E-2
2.241563034E0,-6.933203340E-1,-9.805189133E0,-9.511470050E-2
2.246339805E0,-7.740781307E-1,-9.766903877E0,-9.930214286E-2
2.251116576E0,-9.170492887E-1,-9.684949875E0,-6.999006122E-2
2.255893347E0,-9.882357717E-1,-9.622735977E0,-3.589234129E-2
2.260670118E0,-1.011565804E0,-9.613164902E0,2.392822644E-3
2.265446889E0,-1.001994491E0,-9.632308006E0,5.024927482E-2
2.270223659E0,-9.828519225E-1,-9.661021233E0,7.896314561E-2
2.275000430E0,-9.822536707E-1,-9.714262009E0,8.853443712E-2
2.279777201E0,-9.487541914E-1,-9.757332802E0,7.896314561E-2
2.284553972E0,-9.062815905E-1,-9.781260490E0,6.400800496E-2
2.289330743E0,-8.590233326E-1,-9.786046028E0,4.486542568E-2
2.294107514E0,-8.207381964E-1,-9.790832520E0,7.357929647E-2
2.298884284E0,-8.344969153E-1,-9.757332802E0,1.070788130E-1
2.303661055E0,-8.392825127E-1,-9.723833084E0,1.405783296E-1
2.308437826E0,-8.297112584E-1,-9.680164337E0,1.932204217E-1
2.313214597E0,-8.344969153E-1,-9.651450157E0,2.362912297E-1
2.317991368E0,-8.721838593E-1,-9.637093544E0,2.799602449E-1
2.322768139E0,-8.769695163E-1,-9.588638306E0,3.086741269E-1
2.327544909E0,-8.865407705E-1,-9.593423843E0,3.038884699E-1
2.332321680E0,-8.961120844E-1,-9.574281693E0,3.038884699E-1
2.337098451E0,-9.248259664E-1,-9.574281693E0,2.751746178E-1
2.341875222E0,-9.439685345E-1,-9.550353050E0,2.608176768E-1
2.346652045E0,-9.625129104E-1,-9.550353050E0,2.709871531E-1
2.351428816E0,-1.010369420E0,-9.535996437E0,2.662015259E-1
2.356205534E0,-1.048654556E0,-9.497711182E0,2.853440940E-1
2.360982357E0,-1.062413216E0,-9.483354568E0,3.092723191E-1
2.365759128E0,-1.095912814E0,-9.445069313E0,3.290131092E-1
2.370535899E0,-1.153340459E0,-9.454640388E0,3.529413342E-1
2.375312670E0,-1.191027522E0,-9.468997002E0,3.678964674E-1
2.380089441E0,-1.200598717E0,-9.507881165E0,3.631108403E-1
2.384866211E0,-1.195813060E0,-9.546165466E0,3.726821244E-1
2.389642982E0,-1.200000525E0,-9.604191780E0,3.870390654E-1
2.394419753E0,-1.314856052E0,-9.633503914E0,2.871387303E-1
2.399196524E0,-1.353739381E0,-9.657432556E0,1.387837082E-1
2.403973295E0,-1.316052437E0,-9.681360245E0,2.333002165E-2
2.408750066E0,-1.359123230E0,-9.739386559E0,-4.366901144E-2
2.413526836E0,-1.416550994E0,-9.816555023E0,-8.195417374E-2
2.418303607E0,-1.497308731E0,-9.884152412E0,-1.148554832E-1
2.423080378E0,-1.568495274E0,-9.946963310E0,-1.046859920E-1
2.427857149E0,-1.562513232E0,-1.001874828E1,-2.333002165E-2
2.432633920E0,-1.547558069E0,-1.011984539E1,1.112662554E-1
2.437410691E0,-1.517647743E0,-1.022094154E1,2.931207716E-1
2.442187461E0,-1.506281853E0,-1.028375340E1,4.899304509E-1
2.446964232E0,-1.510469317E0,-1.030349445E1,6.388836503E-1
2.451741003E0,-1.542772412E0,-1.030409241E1,7.345965505E-1
2.456517774E0,-1.557129383E0,-1.025025368E1,7.686942816E-1
2.461294545E0,-1.572084427E0,-1.019282627E1,7.298108935E-1
2.466071316E0,-1.582253933E0,-1.011087227E1,6.245267391E-1
2.470848086E0,-1.559522152E0,-1.001456070E1,4.803591371E-1
2.475624857E0,-1.508674622E0,-9.946963310E0,3.314059377E-1
2.480401628E0,-1.438086390E0,-9.884152412E0,2.063809484E-1
2.485178399E0,-1.372283816E0,-9.845269203E0,1.244267747E-1
2.489955170E0,-1.282552958E0,-9.820742607E0,6.640082598E-2
2.494731941E0,-1.192223907E0,-9.796813965E0,4.666004330E-2
2.499508711E0,-1.111466169E0,-9.757930756E0,5.563312769E-2
2.504285482E0,-1.091725349E0,-9.728618622E0,8.913264424E-2
2.509062253E0,-1.010369420E0,-9.719047546E0,1.322034448E-1
2.513839076E0,-9.343972206E-1,-9.714262009E0,1.746760458E-1
2.518615795E0,-8.913264275E-1,-9.661021233E0,2.177468538E-1
2.523392618E0,-8.482556343E-1,-9.622735977E0,2.560320199E-1
2.528169336E0,-8.105686903E-1,-9.593423843E0,2.697907388E-1
2.532946159E0,-7.818548083E-1,-9.540184021E0,2.793620527E-1
2.537722930E0,-7.537391186E-1,-9.525827408E0,2.889333367E-1
2.542499701E0,-7.489534616E-1,-9.511469841E0,3.080759048E-1
2.547276472E0,-7.585247755E-1,-9.511469841E0,2.889333367E-1
2.552053243E0,-7.914260626E-1,-9.501898766E0,2.889333367E-1
2.556830014E0,-8.201399446E-1,-9.506684303E0,2.650051117E-1
2.561606784E0,-8.584251404E-1,-9.521040916E0,2.458625287E-1
2.566383555E0,-9.110672474E-1,-9.559925079E0,1.890329868E-1
2.571160326E0,-9.397810698E-1,-9.593423843E0,1.363908947E-1
2.575937097E0,-9.445667267E-1,-9.632308006E0,7.896314561E-2
2.580713868E0,-9.541380405E-1,-9.646664619E0,3.110669367E-2
2.585490639E0,-9.499505758E-1,-9.680164337E0,7.178467698E-3
2.590267409E0,-9.637092948E-1,-9.719047546E0,2.392822644E-3
2.595044180E0,-9.684949517E-1,-9.757332802E0,2.392822644E-3
2.599820951E0,-9.774680734E-1,-9.796216011E0,2.153540403E-2
2.604597722E0,-9.678967595E-1,-9.824930191E0,3.589234129E-2
2.609374493E0,-9.391828775E-1,-9.868000984E0,5.024927482E-2
2.614151264E0,-9.152546525E-1,-9.882357597E0,5.024927482E-2
2.618928034E0,-9.152546525E-1,-9.877572060E0,7.417750359E-2
2.623704805E0,-8.865407705E-1,-9.868000984E0,7.896314561E-2
2.628481576E0,-8.865407705E-1,-9.877572060E0,9.810572863E-2
2.633258347E0,-8.817551732E-1,-9.868000984E0,9.810572863E-2
2.638035118E0,-8.961120844E-1,-9.853643417E0,1.124626622E-1
2.642811889E0,-8.913264275E-1,-9.844072342E0,1.220339537E-1
2.647588659E0,-9.056833982E-1,-9.848857880E0,1.316052526E-1
2.652365430E0,-9.290133715E-1,-9.834501266E0,1.507478207E-1
2.657142201E0,-9.529415965E-1,-9.810572624E0,1.651047617E-1
2.661918972E0,-9.912267923E-1,-9.801001549E0,1.752742529E-1
2.666695743E0,-1.048056364E0,-9.781859398E0,1.704886109E-1
2.671472514E0,-1.076770186E0,-9.753145218E0,1.800599098E-1
2.676249284E0,-1.115653515E0,-9.714262009E0,1.806581169E-1
2.681026055E0,-1.149153113E0,-9.704689980E0,1.519442350E-1
2.685802826E0,-1.196411371E0,-9.705288887E0,1.615155339E-1
2.690579597E0,-1.210768223E0,-9.705288887E0,1.567298770E-1
2.695356368E0,-1.249053478E0,-9.700503349E0,1.573280841E-1
2.700133191E0,-1.249053478E0,-9.710074425E0,1.525424421E-1
2.704909961E0,-1.258026481E0,-9.719645500E0,1.621137410E-1
2.709686732E0,-1.253240824E0,-9.714859962E0,1.860419661E-1
2.714463503E0,-1.238883972E0,-9.714859962E0,2.147558331E-1
2.719240274E0,-1.229312658E0,-9.729216576E0,2.626122832E-1
2.724017045E0,-1.214357495E0,-9.748359680E0,3.104687333E-1
2.728793816E0,-1.195214868E0,-9.757930756E0,3.487538993E-1
2.733570586E0,-1.166501045E0,-9.767501831E0,3.918247223E-1
2.738347357E0,-1.165902853E0,-9.782457352E0,4.301098585E-1
2.743124128E0,-1.146760225E0,-9.781859398E0,4.731806815E-1
2.747900899E0,-1.122832060E0,-9.767501831E0,4.779663086E-1
2.752677670E0,-1.118644595E0,-9.777072906E0,4.731806815E-1
2.757454441E0,-1.098903775E0,-9.781859398E0,4.588237405E-1
2.762231211E0,-1.113858938E0,-9.767501831E0,4.396811724E-1
2.767007982E0,-1.133001566E0,-9.767501831E0,4.109672904E-1
2.771784753E0,-1.156929731E0,-9.767501831E0,3.678964674E-1
2.776561524E0,-1.171884894E0,-9.777072906E0,3.104687333E-1
2.781338295E0,-1.171884894E0,-9.777072906E0,2.626122832E-1
2.786115066E0,-1.205384374E0,-9.786644936E0,2.051845491E-1
2.790891836E0,-1.224527001E0,-9.787242889E0,1.621137410E-1
2.795668607E0,-1.249053478E0,-9.782457352E0,9.990034252E-2
2.800445378E0,-1.263410330E0,-9.767501831E0,5.204389244E-2
2.805222149E0,-1.268794179E0,-9.767501831E0,8.374879137E-3
2.809998920E0,-1.264008522E0,-9.757930756E0,-2.991028316E-2
2.814775691E0,-1.283151150E0,-9.762716293E0,-6.819544733E-2
2.819552461E0,-1.264606714E0,-9.753145218E0,-7.298108935E-2
2.824329232E0,-1.250249863E0,-9.748359680E0,-6.819544733E-2
2.829106003E0,-1.240678549E0,-9.757930756E0,-4.905286431E-2
2.833882774E0,-1.207179070E0,-9.748359680E0,-2.033899166E-2
2.838659545E0,-1.211366415E0,-9.729216576E0,4.187439755E-2
2.843436316E0,-1.192223907E0,-9.729216576E0,8.973085135E-2
2.848213086E0,-1.168295622E0,-9.704689980E0,1.280160099E-1
2.852989857E0,-1.139581800E0,-9.704689980E0,1.663011760E-1
2.857766628E0,-1.134796143E0,-9.685547829E0,1.902294010E-1
2.862543399E0,-1.115653515E0,-9.661619186E0,2.237289101E-1
2.867320170E0,-1.105484009E0,-9.661619186E0,2.428714931E-1
2.872096993E0,-1.109671474E0,-9.656833649E0,2.763710022E-1
2.876873711E0,-1.100100160E0,-9.671191216E0,3.050848842E-1
2.881650534E0,-1.104885817E0,-9.690333366E0,3.146561682E-1
2.886427305E0,-1.104885817E0,-9.699904442E0,3.146561682E-1
2.891204076E0,-1.109671474E0,-9.714262009E0,3.146561682E-1
2.895980847E0,-1.128814101E0,-9.709476471E0,3.050848842E-1
2.900757618E0,-1.138385415E0,-9.714859962E0,2.907279432E-1
2.905534389E0,-1.138983607E0,-9.724431038E0,2.572284341E-1
2.910311159E0,-1.115055323E0,-9.729216576E0,2.380858511E-1
2.915087930E0,-1.129412293E0,-9.729216576E0,2.141576260E-1
2.919864701E0,-1.110269666E0,-9.719047546E0,2.093719840E-1
2.924641472E0,-1.110269666E0,-9.728618622E0,1.998006850E-1
2.929418243E0,-1.100698471E0,-9.738788605E0,1.998006850E-1
2.934195014E0,-1.086341500E0,-9.748359680E0,1.998006850E-1
2.938971784E0,-1.067198873E0,-9.748359680E0,2.183450609E-1
2.943748555E0,-1.062413216E0,-9.757930756E0,2.039881349E-1
2.948525326E0,-1.033699393E0,-9.777072906E0,2.135594189E-1
2.953302097E0,-1.014556766E0,-9.767501831E0,2.039881349E-1
2.958078868E0,-1.014556766E0,-9.777072906E0,2.135594189E-1
2.962855639E0,-9.810572863E-1,-9.772287369E0,2.231307179E-1
2.967632409E0,-9.816554785E-1,-9.781859398E0,2.087737769E-1
2.972409180E0,-9.672985673E-1,-9.786644936E0,2.039881349E-1
2.977185951E0,-9.672985673E-1,-9.786644936E0,1.992024779E-1
2.981962722E0,-9.768698215E-1,-9.781859398E0,2.135594189E-1
2.986739493E0,-1.000199914E0,-9.791430473E0,1.944168359E-1
2.991516264E0,-1.033699393E0,-9.791430473E0,1.800599098E-1
2.996293034E0,-1.033699393E0,-9.772287369E0,1.800599098E-1
3.001069805E0,-1.062413216E0,-9.777072906E0,1.704886109E-1
3.005846576E0,-1.071984529E0,-9.781859398E0,1.657029688E-1
3.010623347E0,-1.081555843E0,-9.781859398E0,1.657029688E-1
3.015400118E0,-1.105484009E0,-9.786644936E0,1.615155339E-1
3.020176889E0,-1.095912814E0,-9.786644936E0,1.513460279E-1
3.024953659E0,-1.095912814E0,-9.791430473E0,1.710868180E-1
3.029730430E0,-1.104885817E0,-9.777072906E0,1.902294010E-1
3.034507201E0,-1.091127157E0,-9.767501831E0,1.998006850E-1
3.039283972E0,-1.109671474E0,-9.757930756E0,2.093719840E-1
3.044060743E0,-1.109671474E0,-9.738788605E0,2.237289101E-1
3.048837514E0,-1.115055323E0,-9.724431038E0,2.428714931E-1
3.053614336E0,-1.119840980E0,-9.724431038E0,2.524427772E-1
3.058391107E0,-1.115055323E0,-9.699904442E0,2.667997181E-1
3.063167878E0,-1.119840980E0,-9.724431038E0,2.763710022E-1
3.067944649E0,-1.119840980E0,-9.714859962E0,2.859423161E-1
3.072721420E0,-1.104885817E0,-9.719645500E0,3.002992272E-1
3.077498191E0,-1.095314622E0,-9.734002113E0,3.050848842E-1
3.082274961E0,-1.080957651E0,-9.743574142E0,3.002992272E-1
3.087051732E0,-1.085743308E0,-9.767501831E0,2.907279432E-1
3.091828503E0,-1.080957651E0,-9.748359680E0,2.811566591E-1
3.096605274E0,-1.071386337E0,-9.734002113E0,2.620140910E-1
3.101382045E0,-1.062413216E0,-9.743574142E0,2.422732860E-1
3.106158816E0,-1.052842021E0,-9.743574142E0,2.327020019E-1
3.110935586E0,-1.052842021E0,-9.748359680E0,1.944168359E-1
3.115712357E0,-1.043270707E0,-9.753145218E0,1.752742529E-1
3.120489128E0,-1.019940615E0,-9.762716293E0,1.513460279E-1
3.125265899E0,-1.034297585E0,-9.762716293E0,1.417747438E-1
3.130042670E0,-1.015154958E0,-9.767501831E0,1.274178028E-1
3.134819441E0,-1.005583763E0,-9.786644936E0,1.322034448E-1
3.139596211E0,-1.000798106E0,-9.786644936E0,1.369891018E-1
3.144372982E0,-1.015154958E0,-9.801001549E0,1.274178028E-1
3.149149753E0,-1.015154958E0,-9.810572624E0,1.322034448E-1
3.153926524E0,-1.005583763E0,-9.810572624E0,1.322034448E-1
3.158703295E0,-1.019940615E0,-9.810572624E0,1.513460279E-1
3.163480066E0,-1.043270707E0,-9.791430473E0,1.657029688E-1
3.168256836E0,-1.057627559E0,-9.805787086E0,1.704886109E-1
3.173033607E0,-1.043270707E0,-9.791430473E0,1.800599098E-1
3.177810378E0,-1.043270707E0,-9.805787086E0,1.944168359E-1
3.182587149E0,-1.043270707E0,-9.796216011E0,2.135594189E-1
3.187363920E0,-1.033699393E0,-9.786644936E0,2.279163599E-1
3.192140691E0,-1.004985452E0,-9.781859398E0,2.374876440E-1
3.196917461E0,-1.004985452E0,-9.772287369E0,2.518445849E-1
3.201694232E0,-9.762716293E-1,-9.772287369E0,2.662015259E-1
3.206471003E0,-9.667003751E-1,-9.757332802E0,2.853440940E-1
3.211247826E0,-9.714859724E-1,-9.747760773E0,2.901297510E-1
3.216024545E0,-9.667003751E-1,-9.733404160E0,2.901297510E-1
3.220801368E0,-9.523434043E-1,-9.728618622E0,2.997010350E-1
3.225578086E0,-9.619147182E-1,-9.704689980E0,2.949153781E-1
3.230354909E0,-9.667003751E-1,-9.704689980E0,2.853440940E-1
3.235131680E0,-9.810572863E-1,-9.704689980E0,2.709871531E-1
3.239908451E0,-9.810572863E-1,-9.723833084E0,2.518445849E-1
3.244685222E0,-9.768698215E-1,-9.719047546E0,2.327020019E-1
3.249461993E0,-1.005583763E0,-9.714262009E0,2.087737769E-1
3.254238764E0,-1.024726272E0,-9.714262009E0,1.848455518E-1
3.259015534E0,-1.039083242E0,-9.719047546E0,1.704886109E-1
3.263792305E0,-1.048654556E0,-9.728618622E0,1.609173268E-1
3.268569076E0,-1.058225870E0,-9.733404160E0,1.513460279E-1
3.273345847E0,-1.067797065E0,-9.734002113E0,1.322034448E-1
3.278122618E0,-1.067797065E0,-9.743574142E0,1.226321608E-1
3.282899389E0,-1.082154036E0,-9.757930756E0,1.130608693E-1
3.287676159E0,-1.091127157E0,-9.762716293E0,1.178465188E-1
3.292452930E0,-1.120439172E0,-9.777072906E0,1.232303679E-1
3.297229701E0,-1.110269666E0,-9.786644936E0,1.423729509E-1
3.302006472E0,-1.091127157E0,-9.786644936E0,1.465603858E-1
3.306783243E0,-1.076770186E0,-9.781859398E0,1.609173268E-1
3.311560014E0,-1.067198873E0,-9.791430473E0,1.848455518E-1
3.316336784E0,-1.057627559E0,-9.781859398E0,2.135594189E-1
3.321113555E0,-1.038485050E0,-9.781859398E0,2.374876440E-1
3.325890326E0,-1.009771109E0,-9.796216011E0,2.518445849E-1
3.330667097E0,-1.013958573E0,-9.801001549E0,2.805584669E-1
3.335443868E0,-9.996016622E-1,-9.786644936E0,2.949153781E-1
3.340220639E0,-9.996016622E-1,-9.781859398E0,2.949153781E-1
3.344997409E0,-9.714859724E-1,-9.777072906E0,2.949153781E-1
3.349774180E0,-9.523434043E-1,-9.781859398E0,2.853440940E-1
3.354550951E0,-9.571290612E-1,-9.781859398E0,2.901297510E-1
3.359327722E0,-9.523434043E-1,-9.810572624E0,2.805584669E-1
3.364104493E0,-9.571290612E-1,-9.801001549E0,2.614158690E-1
3.368881264E0,-9.619147182E-1,-9.815358162E0,2.662015259E-1
3.373658034E0,-9.714859724E-1,-9.796216011E0,2.374876440E-1
3.378434857E0,-9.906286001E-1,-9.791430473E0,2.279163599E-1
3.383211576E0,-1.004985452E0,-9.791430473E0,1.944168359E-1
3.387988347E0,-1.005583763E0,-9.781859398E0,1.848455518E-1
3.392765118E0,-1.028913736E0,-9.786644936E0,1.657029688E-1
3.397541889E0,-1.052842021E0,-9.781859398E0,1.657029688E-1
3.402318659E0,-1.062413216E0,-9.772287369E0,1.657029688E-1
3.407095482E0,-1.062413216E0,-9.777072906E0,1.513460279E-1
3.411872253E0,-1.071984529E0,-9.767501831E0,1.657029688E-1
3.416649024E0,-1.081555843E0,-9.753145218E0,1.800599098E-1
3.421425795E0,-1.071984529E0,-9.743574142E0,1.752742529E-1
3.426202566E0,-1.048056364E0,-9.738189697E0,1.896311939E-1
3.430979336E0,-1.067198873E0,-9.734002113E0,2.039881349E-1
3.435756107E0,-1.048056364E0,-9.733404160E0,2.374876440E-1
3.440532878E0,-1.043270707E0,-9.728618622E0,2.470589429E-1
3.445309649E0,-1.043270707E0,-9.719047546E0,2.518445849E-1
3.450086420E0,-1.043270707E0,-9.723833084E0,2.757728100E-1
3.454863191E0,-1.038485050E0,-9.723833084E0,2.805584669E-1
3.459639961E0,-1.033101201E0,-9.728618622E0,2.901297510E-1
3.464416732E0,-1.019342422E0,-9.714262009E0,2.949153781E-1
3.469193503E0,-1.000199914E0,-9.733404160E0,2.997010350E-1
3.473970274E0,-1.009771109E0,-9.728618622E0,2.949153781E-1
3.478747045E0,-1.009771109E0,-9.742975235E0,3.044866920E-1
3.483523816E0,-1.000199914E0,-9.747760773E0,2.901297510E-1
3.488300586E0,-1.004985452E0,-9.753145218E0,2.853440940E-1
3.493077357E0,-1.009771109E0,-9.747760773E0,2.709871531E-1
3.497854128E0,-1.009771109E0,-9.742975235E0,2.662015259E-1
3.502630899E0,-1.000199914E0,-9.757930756E0,2.566302419E-1
3.507407670E0,-1.000199914E0,-9.747760773E0,2.422732860E-1
3.512184441E0,-1.014556766E0,-9.757930756E0,2.374876440E-1
3.516961211E0,-1.019342422E0,-9.762716293E0,2.327020019E-1
3.521737982E0,-1.024128079E0,-9.753145218E0,2.231307179E-1
3.526514753E0,-1.009771109E0,-9.772287369E0,2.279163599E-1
3.531291524E0,-1.024128079E0,-9.762716293E0,2.087737769E-1
3.536068295E0,-1.000199914E0,-9.772287369E0,2.183450609E-1
3.540845066E0,-1.004985452E0,-9.777072906E0,2.279163599E-1
3.545621836E0,-9.954141974E-1,-9.777072906E0,2.183450609E-1
3.550398607E0,-1.000199914E0,-9.781859398E0,2.231307179E-1
3.555175378E0,-9.954141974E-1,-9.781859398E0,2.279163599E-1
3.559952149E0,-9.810572863E-1,-9.796216011E0,2.566302419E-1
3.564728972E0,-9.906286001E-1,-9.801001549E0,2.757728100E-1
3.569505743E0,-9.948160052E-1,-9.810572624E0,2.901297510E-1
3.574282461E0,-9.948160052E-1,-9.810572624E0,3.188436031E-1
3.579059284E0,-1.009172916E0,-9.805787086E0,3.379862010E-1
3.583836055E0,-9.948160052E-1,-9.796216011E0,3.475574851E-1
3.588612826E0,-9.900303483E-1,-9.796216011E0,3.379862010E-1
3.593389597E0,-1.004387259E0,-9.786644936E0,3.427718580E-1
3.598166368E0,-1.004387259E0,-9.781859398E0,3.523431420E-1
3.602943139E0,-9.852447510E-1,-9.772287369E0,3.475574851E-1
3.607719909E0,-9.762716293E-1,-9.757930756E0,3.284149170E-1
3.612496680E0,-9.852447510E-1,-9.753145218E0,3.284149170E-1
3.617273451E0,-9.852447510E-1,-9.757930756E0,3.236292601E-1
3.622050222E0,-9.762716293E-1,-9.752547264E0,3.044866920E-1
3.626826993E0,-9.858429432E-1,-9.753145218E0,2.949153781E-1
3.631603764E0,-1.009771109E0,-9.748359680E0,2.853440940E-1
3.636380534E0,-1.009771109E0,-9.738189697E0,2.757728100E-1
3.641157305E0,-1.019342422E0,-9.719047546E0,2.470589429E-1
3.645934076E0,-1.028913736E0,-9.719047546E0,2.374876440E-1
3.650710847E0,-1.038485050E0,-9.719047546E0,2.087737769E-1
3.655487618E0,-1.052842021E0,-9.709476471E0,1.992024779E-1
3.660264389E0,-1.062413216E0,-9.719047546E0,1.992024779E-1
3.665041159E0,-1.081555843E0,-9.738788605E0,2.039881349E-1
3.669817930E0,-1.076770186E0,-9.748359680E0,1.848455518E-1
3.674594701E0,-1.086341500E0,-9.757930756E0,1.998006850E-1
3.679371472E0,-1.081555843E0,-9.748359680E0,2.045863420E-1
3.684148243E0,-1.076770186E0,-9.762716293E0,1.944168359E-1
3.688925014E0,-1.057627559E0,-9.757930756E0,2.039881349E-1
3.693701784E0,-1.028913736E0,-9.753145218E0,1.992024779E-1
3.698478555E0,-1.024128079E0,-9.772287369E0,2.135594189E-1
3.703255326E0,-1.014556766E0,-9.772287369E0,2.374876440E-1
3.708032097E0,-1.009771109E0,-9.781859398E0,2.422732860E-1
3.712808868E0,-9.954141974E-1,-9.781859398E0,2.518445849E-1
3.717585639E0,-9.858429432E-1,-9.777072906E0,2.566302419E-1
3.722362409E0,-9.714859724E-1,-9.777072906E0,2.518445849E-1
3.727139180E0,-9.571290612E-1,-9.757332802E0,2.614158690E-1
3.731915951E0,-9.619147182E-1,-9.762716293E0,2.709871531E-1
3.736692774E0,-9.571290612E-1,-9.767501831E0,2.709871531E-1
3.741469493E0,-9.475577474E-1,-9.772287369E0,3.044866920E-1
3.746246264E0,-9.427721500E-1,-9.781859398E0,3.188436031E-1
3.751023086E0,-9.140582681E-1,-9.796216011E0,3.092723191E-1
3.755799857E0,-9.092726111E-1,-9.786644936E0,3.182454109E-1
3.760576628E0,-9.092726111E-1,-9.781260490E0,3.236292601E-1
3.765353399E0,-9.140582681E-1,-9.796216011E0,3.188436031E-1
3.770130170E0,-9.332008362E-1,-9.810572624E0,3.044866920E-1
3.774906941E0,-9.475577474E-1,-9.815358162E0,2.901297510E-1
3.779683711E0,-9.667003751E-1,-9.815358162E0,2.757728100E-1
3.784460482E0,-9.858429432E-1,-9.796216011E0,2.470589429E-1
3.789237253E0,-1.009771109E0,-9.796216011E0,2.183450609E-1
3.794014024E0,-1.014556766E0,-9.786644936E0,2.087737769E-1
3.798790795E0,-1.024128079E0,-9.781859398E0,1.896311939E-1
3.803567566E0,-1.033699393E0,-9.767501831E0,1.800599098E-1
3.808344336E0,-1.043270707E0,-9.777072906E0,1.657029688E-1
3.813121107E0,-1.029511929E0,-9.767501831E0,1.513460279E-1
3.817897878E0,-1.019940615E0,-9.757930756E0,1.609173268E-1
3.822674649E0,-1.005583763E0,-9.742975235E0,1.609173268E-1
3.827451420E0,-1.015154958E0,-9.719047546E0,1.704886109E-1
3.832228191E0,-9.912267923E-1,-9.719047546E0,1.848455518E-1
3.837004961E0,-9.816554785E-1,-9.699904442E0,1.992024779E-1
3.841781732E0,-9.816554785E-1,-9.704689980E0,2.231307179E-1
3.846558503E0,-9.864411354E-1,-9.695118904E0,2.279163599E-1
3.851335274E0,-1.004985452E0,-9.699904442E0,2.470589429E-1
3.856112045E0,-9.912267923E-1,-9.704689980E0,2.470589429E-1
3.860888816E0,-1.000199914E0,-9.709476471E0,2.662015259E-1
3.865665586E0,-1.014556766E0,-9.723833084E0,2.901297510E-1
3.870442357E0,-1.014556766E0,-9.714262009E0,2.949153781E-1
3.875219128E0,-1.037886858E0,-9.704689980E0,2.997010350E-1
3.879995899E0,-1.047458172E0,-9.714262009E0,3.002992272E-1
3.884772670E0,-1.047458172E0,-9.704689980E0,3.098705411E-1
3.889549441E0,-1.061815023E0,-9.714262009E0,3.098705411E-1
3.894326211E0,-1.057029366E0,-9.729216576E0,3.002992272E-1
3.899102982E0,-1.047458172E0,-9.738788605E0,2.907279432E-1
3.903879753E0,-1.061815023E0,-9.748359680E0,2.907279432E-1
3.908656524E0,-1.052243710E0,-9.757930756E0,2.859423161E-1
3.913433347E0,-1.057029366E0,-9.786644936E0,2.620140910E-1
3.918210118E0,-1.038485050E0,-9.781859398E0,2.374876440E-1
3.922986889E0,-1.028913736E0,-9.801001549E0,2.279163599E-1
3.927763659E0,-1.009771109E0,-9.815358162E0,2.087737769E-1
3.932540430E0,-1.000199914E0,-9.815358162E0,1.848455518E-1
3.937317201E0,-9.720842242E-1,-9.824930191E0,1.752742529E-1
3.942093972E0,-9.529415965E-1,-9.839286804E0,1.698904037E-1
3.946870743E0,-9.529415965E-1,-9.844072342E0,1.507478207E-1
3.951647514E0,-9.720842242E-1,-9.863214493E0,1.459621787E-1
3.956424284E0,-9.625129104E-1,-9.858428955E0,1.459621787E-1
3.961201055E0,-9.768698215E-1,-9.853643417E0,1.513460279E-1
3.965977826E0,-9.816554785E-1,-9.848857880E0,1.417747438E-1
3.970754597E0,-9.912267923E-1,-9.829715729E0,1.561316848E-1
3.975531368E0,-1.000798106E0,-9.820143700E0,1.513460279E-1
3.980308139E0,-1.024128079E0,-9.820143700E0,1.657029688E-1
3.985084909E0,-1.024128079E0,-9.824930191E0,1.800599098E-1
3.989861680E0,-1.028913736E0,-9.796216011E0,2.087737769E-1
3.994638451E0,-1.052243710E0,-9.786644936E0,2.422732860E-1
3.999415222E0,-1.061815023E0,-9.786644936E0,2.476571500E-1
4.004191993E0,-1.066600680E0,-9.753145218E0,2.572284341E-1
4.008968764E0,-1.076171994E0,-9.734002113E0,2.811566591E-1
4.013745534E0,-1.076171994E0,-9.724431038E0,2.859423161E-1
4.018522305E0,-1.080957651E0,-9.724431038E0,3.098705411E-1
4.023299076E0,-1.076171994E0,-9.714262009E0,3.050848842E-1
4.028075847E0,-1.076171994E0,-9.719645500E0,3.242274821E-1
4.032852618E0,-1.085743308E0,-9.695118904E0,3.337987661E-1
4.037629389E0,-1.071386337E0,-9.699904442E0,3.242274821E-1
4.042406159E0,-1.090528965E0,-9.695118904E0,3.050848842E-1
4.047182930E0,-1.109671474E0,-9.714859962E0,3.050848842E-1
4.051959701E0,-1.115055323E0,-9.704689980E0,3.050848842E-1
4.056736472E0,-1.138385415E0,-9.714859962E0,2.907279432E-1
4.061513243E0,-1.134197950E0,-9.729216576E0,2.667997181E-1
4.066290014E0,-1.138983607E0,-9.729216576E0,2.667997181E-1
4.071066784E0,-1.158126116E0,-9.729216576E0,2.524427772E-1
4.075843555E0,-1.167697430E0,-9.738788605E0,2.380858511E-1
4.080620326E0,-1.177268744E0,-9.743574142E0,2.285145670E-1
4.085397097E0,-1.167697430E0,-9.743574142E0,2.285145670E-1
4.090173868E0,-1.177268744E0,-9.738788605E0,2.189432681E-1
4.094950691E0,-1.186840057E0,-9.734002113E0,2.093719840E-1
4.099727461E0,-1.201196909E0,-9.729216576E0,2.099701911E-1
4.104504232E0,-1.177268744E0,-9.719645500E0,1.998006850E-1
4.109281003E0,-1.172483087E0,-9.724431038E0,1.902294010E-1
4.114057774E0,-1.162911773E0,-9.714859962E0,1.854437590E-1
4.118834545E0,-1.144367456E0,-9.714859962E0,1.806581169E-1
4.123611316E0,-1.134796143E0,-9.710074425E0,1.854437590E-1
4.128388086E0,-1.125224829E0,-9.724431038E0,1.902294010E-1
4.133164857E0,-1.120439172E0,-9.719645500E0,1.854437590E-1
4.137941628E0,-1.110269666E0,-9.734002113E0,1.998006850E-1
4.142718399E0,-1.100698471E0,-9.724431038E0,2.189432681E-1
4.147495170E0,-1.104885817E0,-9.743574142E0,2.141576260E-1
4.152271941E0,-1.090528965E0,-9.743574142E0,2.428714931E-1
4.157048711E0,-1.095314622E0,-9.738788605E0,2.380858511E-1
4.161825482E0,-1.085743308E0,-9.757930756E0,2.285145670E-1
4.166602253E0,-1.090528965E0,-9.762716293E0,2.380858511E-1
4.171379024E0,-1.080957651E0,-9.767501831E0,2.333002090E-1
4.176155795E0,-1.095314622E0,-9.767501831E0,2.524427772E-1
4.180932566E0,-1.100100160E0,-9.777072906E0,2.476571500E-1
4.185709336E0,-1.100100160E0,-9.801001549E0,2.572284341E-1
4.190486107E0,-1.119840980E0,-9.796216011E0,2.620140910E-1
4.195262878E0,-1.133599758E0,-9.791430473E0,2.667997181E-1
4.200039649E0,-1.138385415E0,-9.796216011E0,2.620140910E-1
4.204816420E0,-1.147956610E0,-9.796216011E0,2.620140910E-1
4.209593191E0,-1.147956610E0,-9.791430473E0,2.572284341E-1
4.214369961E0,-1.152742267E0,-9.796216011E0,2.620140910E-1
4.219146732E0,-1.152742267E0,-9.786644936E0,2.524427772E-1
4.223923503E0,-1.143171072E0,-9.791430473E0,2.667997181E-1
4.228700274E0,-1.129412293E0,-9.781859398E0,2.572284341E-1
4.233477045E0,-1.133599758E0,-9.791430473E0,2.572284341E-1
4.238253816E0,-1.147956610E0,-9.791430473E0,2.572284341E-1
4.243030586E0,-1.133599758E0,-9.801001549E0,2.667997181E-1
4.247807357E0,-1.143171072E0,-9.801001549E0,2.620140910E-1
4.252584128E0,-1.143171072E0,-9.801001549E0,2.572284341E-1
4.257360899E0,-1.143171072E0,-9.791430473E0,2.667997181E-1
4.262137670E0,-1.143171072E0,-9.796216011E0,2.524427772E-1
4.266914441E0,-1.167099237E0,-9.786644936E0,2.578266263E-1
4.271691264E0,-1.176670551E0,-9.781859398E0,2.482553422E-1
4.276468034E0,-1.171884894E0,-9.767501831E0,2.476571500E-1
4.281244805E0,-1.171884894E0,-9.772287369E0,2.482553422E-1
4.286021576E0,-1.167099237E0,-9.781859398E0,2.524427772E-1
4.290798347E0,-1.167099237E0,-9.757930756E0,2.476571500E-1
4.295575118E0,-1.191027522E0,-9.762716293E0,2.386840582E-1
4.300351889E0,-1.191027522E0,-9.748359680E0,2.386840582E-1
4.305128659E0,-1.200598717E0,-9.743574142E0,2.291127741E-1
4.309905430E0,-1.210170031E0,-9.729216576E0,2.195414752E-1
4.314682201E0,-1.191625714E0,-9.719645500E0,2.045863420E-1
4.319458972E0,-1.196411371E0,-9.714859962E0,2.045863420E-1
4.324235743E0,-1.201196909E0,-9.719645500E0,1.902294010E-1
4.329012514E0,-1.205982566E0,-9.719645500E0,2.003988922E-1
4.333789284E0,-1.201196909E0,-9.714859962E0,1.950150430E-1
4.338566055E0,-1.172483087E0,-9.719645500E0,2.045863420E-1
4.343342826E0,-1.167697430E0,-9.714859962E0,1.950150430E-1
4.348119597E0,-1.182054400E0,-9.710074425E0,2.045863420E-1
4.352896368E0,-1.167697430E0,-9.705288887E0,2.045863420E-1
4.357673139E0,-1.153340459E0,-9.714859962E0,2.189432681E-1
4.362449909E0,-1.134197950E0,-9.709476471E0,2.428714931E-1
4.367226680E0,-1.124626637E0,-9.724431038E0,2.333002090E-1
4.372003451E0,-1.134197950E0,-9.734002113E0,2.524427772E-1
4.376780222E0,-1.134197950E0,-9.729216576E0,2.763710022E-1
4.381556993E0,-1.124626637E0,-9.738788605E0,2.859423161E-1
4.386333764E0,-1.134197950E0,-9.734002113E0,2.667997181E-1
4.391110534E0,-1.138385415E0,-9.719645500E0,2.907279432E-1
4.395887305E0,-1.138983607E0,-9.704689980E0,2.907279432E-1
4.400664076E0,-1.134197950E0,-9.710074425E0,2.811566591E-1
4.405440847E0,-1.129412293E0,-9.710074425E0,2.907279432E-1
4.410217618E0,-1.119840980E0,-9.709476471E0,2.859423161E-1
4.414994389E0,-1.100100160E0,-9.714262009E0,2.811566591E-1
4.419771159E0,-1.104885817E0,-9.714262009E0,2.859423161E-1
4.424547930E0,-1.076171994E0,-9.719047546E0,2.715853751E-1
4.429324701E0,-1.080957651E0,-9.714262009E0,2.667997181E-1
4.434101524E0,-1.080957651E0,-9.723833084E0,2.524427772E-1
4.438878295E0,-1.095912814E0,-9.719047546E0,2.237289101E-1
4.443655066E0,-1.095912814E0,-9.729216576E0,2.141576260E-1
4.448431836E0,-1.119840980E0,-9.738788605E0,2.141576260E-1
4.453208607E0,-1.143769264E0,-9.738788605E0,1.998006850E-1
4.457985378E0,-1.153340459E0,-9.762716293E0,1.998006850E-1
4.462762149E0,-1.177268744E0,-9.757930756E0,1.806581169E-1
4.467538920E0,-1.172483087E0,-9.753145218E0,1.758724600E-1
4.472315691E0,-1.186840057E0,-9.738788605E0,1.806581169E-1
4.477092461E0,-1.191625714E0,-9.767501831E0,1.902294010E-1
4.481869232E0,-1.196411371E0,-9.753145218E0,1.902294010E-1
4.486646003E0,-1.201196909E0,-9.757930756E0,1.710868180E-1
4.491422774E0,-1.196411371E0,-9.757930756E0,1.806581169E-1
4.496199545E0,-1.177268744E0,-9.762716293E0,1.854437590E-1
4.500976316E0,-1.196411371E0,-9.762716293E0,1.902294010E-1
4.505753086E0,-1.196411371E0,-9.757930756E0,2.003988922E-1
4.510529857E0,-1.186241865E0,-9.767501831E0,2.093719840E-1
4.515306628E0,-1.172483087E0,-9.748359680E0,2.333002090E-1
4.520083399E0,-1.153340459E0,-9.743574142E0,2.333002090E-1
4.524860170E0,-1.143769264E0,-9.753145218E0,2.428714931E-1
4.529636941E0,-1.143769264E0,-9.757930756E0,2.572284341E-1
4.534413711E0,-1.129412293E0,-9.753145218E0,2.715853751E-1
4.539190482E0,-1.129412293E0,-9.753145218E0,2.572284341E-1
4.543967253E0,-1.124626637E0,-9.748359680E0,2.763710022E-1
4.548744024E0,-1.128814101E0,-9.748359680E0,2.715853751E-1
4.553520795E0,-1.134197950E0,-9.734002113E0,2.715853751E-1
4.558297566E0,-1.124626637E0,-9.738788605E0,2.763710022E-1
4.563074336E0,-1.119840980E0,-9.748359680E0,2.620140910E-1
4.567851107E0,-1.119840980E0,-9.734002113E0,2.524427772E-1
4.572627878E0,-1.104885817E0,-9.734002113E0,2.428714931E-1
4.577404649E0,-1.100100160E0,-9.734002113E0,2.285145670E-1
4.582181420E0,-1.100100160E0,-9.743574142E0,2.285145670E-1
4.586958191E0,-1.091127157E0,-9.738788605E0,2.093719840E-1
4.591734961E0,-1.081555843E0,-9.738788605E0,1.944168359E-1
4.596511732E0,-1.081555843E0,-9.738788605E0,1.944168359E-1
4.601288503E0,-1.115653515E0,-9.743574142E0,1.854437590E-1
4.606065274E0,-1.105484009E0,-9.748359680E0,1.902294010E-1
4.610842097E0,-1.134796143E0,-9.743574142E0,1.663011760E-1
4.615618868E0,-1.130010486E0,-9.738788605E0,1.567298770E-1
4.620395639E0,-1.130010486E0,-9.753145218E0,1.615155339E-1
4.625172409E0,-1.153340459E0,-9.748359680E0,1.519442350E-1
4.629949180E0,-1.148554921E0,-9.762716293E0,1.615155339E-1
4.634725951E0,-1.162911773E0,-9.757930756E0,1.806581169E-1
4.639502722E0,-1.167697430E0,-9.762716293E0,1.950150430E-1
4.644279493E0,-1.162911773E0,-9.762716293E0,1.950150430E-1
4.649056264E0,-1.158126116E0,-9.777671814E0,1.950150430E-1
4.653833034E0,-1.167697430E0,-9.767501831E0,2.141576260E-1
4.658609805E0,-1.167697430E0,-9.772886276E0,2.045863420E-1
4.663386576E0,-1.158126116E0,-9.772886276E0,2.141576260E-1
4.668163347E0,-1.153340459E0,-9.772287369E0,2.189432681E-1
4.672940118E0,-1.143769264E0,-9.762716293E0,2.428714931E-1
4.677716889E0,-1.138983607E0,-9.767501831E0,2.380858511E-1
4.682493659E0,-1.119840980E0,-9.762716293E0,2.476571500E-1
4.687270430E0,-1.104885817E0,-9.757930756E0,2.524427772E-1
4.692047201E0,-1.100100160E0,-9.748359680E0,2.428714931E-1
4.696823972E0,-1.090528965E0,-9.757930756E0,2.428714931E-1
4.701600743E0,-1.080957651E0,-9.734002113E0,2.380858511E-1
4.706377514E0,-1.090528965E0,-9.729216576E0,2.285145670E-1
4.711154284E0,-1.100100160E0,-9.719645500E0,2.189432681E-1
4.715931055E0,-1.100698471E0,-9.705288887E0,2.093719840E-1
4.720707826E0,-1.115055323E0,-9.690333366E0,2.189432681E-1
4.725484597E0,-1.100698471E0,-9.705288887E0,2.093719840E-1
4.730261368E0,-1.120439172E0,-9.700503349E0,2.045863420E-1
4.735038139E0,-1.129412293E0,-9.700503349E0,1.998006850E-1
4.739814909E0,-1.143769264E0,-9.690931320E0,1.998006850E-1
4.744591680E0,-1.120439172E0,-9.700503349E0,1.950150430E-1
4.749368451E0,-1.158126116E0,-9.695118904E0,1.998006850E-1
4.754145222E0,-1.149153113E0,-9.685547829E0,1.902294010E-1
4.758922045E0,-1.144367456E0,-9.699904442E0,1.854437590E-1
4.763698816E0,-1.158126116E0,-9.714859962E0,1.998006850E-1
4.768475534E0,-1.158126116E0,-9.734002113E0,1.902294010E-1
4.773252357E0,-1.177268744E0,-9.724431038E0,1.950150430E-1
4.778029128E0,-1.186840057E0,-9.734002113E0,2.093719840E-1
4.782805899E0,-1.177268744E0,-9.738788605E0,1.998006850E-1
4.787582670E0,-1.162911773E0,-9.738788605E0,1.998006850E-1
4.792359441E0,-1.162911773E0,-9.748359680E0,2.045863420E-1
4.797136211E0,-1.153340459E0,-9.743574142E0,2.093719840E-1
4.801912982E0,-1.148554921E0,-9.743574142E0,2.045863420E-1
4.806689753E0,-1.124626637E0,-9.757930756E0,2.045863420E-1
4.811466524E0,-1.115055323E0,-9.762716293E0,2.189432681E-1
4.816243295E0,-1.104885817E0,-9.762716293E0,2.093719840E-1
4.821020066E0,-1.104885817E0,-9.781859398E0,1.950150430E-1
4.825796836E0,-1.100698471E0,-9.777072906E0,1.950150430E-1
4.830573607E0,-1.091127157E0,-9.777072906E0,1.998006850E-1
4.835350378E0,-1.091127157E0,-9.772287369E0,1.950150430E-1
4.840127149E0,-1.091127157E0,-9.772287369E0,1.998006850E-1
4.844903920E0,-1.091127157E0,-9.777072906E0,1.950150430E-1
4.849680691E0,-1.091127157E0,-9.772287369E0,1.998006850E-1
4.854457461E0,-1.100698471E0,-9.762716293E0,1.950150430E-1
4.859234232E0,-1.105484009E0,-9.762716293E0,1.950150430E-1
4.864011003E0,-1.100698471E0,-9.762716293E0,1.950150430E-1
4.868787774E0,-1.109671474E0,-9.757930756E0,2.141576260E-1
4.873564545E0,-1.109671474E0,-9.757930756E0,2.237289101E-1
4.878341316E0,-1.124626637E0,-9.762716293E0,2.380858511E-1
4.883118086E0,-1.129412293E0,-9.767501831E0,2.333002090E-1
4.887894857E0,-1.138983607E0,-9.748359680E0,2.380858511E-1
4.892671628E0,-1.143769264E0,-9.743574142E0,2.333002090E-1
4.897448399E0,-1.153340459E0,-9.743574142E0,2.285145670E-1
4.902225170E0,-1.148554921E0,-9.719645500E0,2.333002090E-1
4.907001941E0,-1.138983607E0,-9.729216576E0,2.237289101E-1
4.911778711E0,-1.158126116E0,-9.724431038E0,2.093719840E-1
4.916555482E0,-1.143769264E0,-9.734002113E0,2.045863420E-1
4.921332253E0,-1.138983607E0,-9.734002113E0,2.045863420E-1
4.926109024E0,-1.158126116E0,-9.738788605E0,1.806581169E-1
4.930885795E0,-1.172483087E0,-9.724431038E0,1.758724600E-1
4.935662618E0,-1.182054400E0,-9.729216576E0,1.519442350E-1
4.940439389E0,-1.186840057E0,-9.734002113E0,1.423729509E-1
4.945216159E0,-1.187438250E0,-9.724431038E0,1.184447184E-1
4.949992930E0,-1.191625714E0,-9.743574142E0,1.136590764E-1
4.954769701E0,-1.191625714E0,-9.753145218E0,1.136590764E-1
4.959546472E0,-1.191625714E0,-9.757930756E0,1.088734269E-1
4.964323243E0,-1.177866936E0,-9.753145218E0,9.451649338E-2
4.969100014E0,-1.158724308E0,-9.762716293E0,1.040877849E-1
4.973876784E0,-1.158724308E0,-9.743574142E0,9.451649338E-2
4.978653555E0,-1.158724308E0,-9.753145218E0,1.040877849E-1
4.983430326E0,-1.158724308E0,-9.753145218E0,1.088734269E-1
4.988207097E0,-1.153938770E0,-9.772287369E0,1.232303679E-1
4.992983868E0,-1.162911773E0,-9.786644936E0,1.280160099E-1
4.997760639E0,-1.167697430E0,-9.792028427E0,1.280160099E-1
5.002537409E0,-1.144367456E0,-9.786644936E0,1.375873089E-1
5.007314180E0,-1.138983607E0,-9.791430473E0,1.519442350E-1
5.012090951E0,-1.125224829E0,-9.791430473E0,1.471585929E-1
5.016867722E0,-1.134796143E0,-9.791430473E0,1.471585929E-1
5.021644493E0,-1.125224829E0,-9.796216011E0,1.519442350E-1
5.026421264E0,-1.120439172E0,-9.805787086E0,1.519442350E-1
5.031198034E0,-1.119840980E0,-9.825528145E0,1.615155339E-1
5.035974805E0,-1.124626637E0,-9.839884758E0,1.519442350E-1
5.040751576E0,-1.109671474E0,-9.854242325E0,1.615155339E-1
5.045528347E0,-1.109671474E0,-9.868598938E0,1.423729509E-1
5.050305118E0,-1.129412293E0,-9.882955551E0,1.423729509E-1
5.055081889E0,-1.143769264E0,-9.878170013E0,1.232303679E-1
5.059858659E0,-1.162911773E0,-9.887741089E0,1.328016520E-1
5.064635430E0,-1.177268744E0,-9.878170013E0,1.088734269E-1
5.069412201E0,-1.205982566E0,-9.873384476E0,8.973085135E-2
5.074188972E0,-1.220339537E0,-9.878767967E0,7.058826834E-2
5.078965743E0,-1.225125194E0,-9.868598938E0,6.101697683E-2
5.083742514E0,-1.239482164E0,-9.873982430E0,7.118647546E-2
5.088519284E0,-1.249053478E0,-9.878767967E0,7.118647546E-2
5.093296055E0,-1.262812138E0,-9.873982430E0,7.597211748E-2
5.098072878E0,-1.243669510E0,-9.888339996E0,9.511470050E-2
5.102849649E0,-1.243669510E0,-9.897911072E0,9.032905847E-2
5.107626420E0,-1.229312658E0,-9.888339996E0,1.046859920E-1
5.112403191E0,-1.214955688E0,-9.883553505E0,1.184447184E-1
5.117179961E0,-1.205384374E0,-9.878767967E0,1.280160099E-1
5.121956732E0,-1.162911773E0,-9.893125534E0,1.328016520E-1
5.126733503E0,-1.153340459E0,-9.897911072E0,1.567298770E-1
5.131510274E0,-1.153340459E0,-9.893125534E0,1.567298770E-1
5.136287045E0,-1.157527924E0,-9.917053223E0,1.710868180E-1
5.141063816E0,-1.152742267E0,-9.912267685E0,1.806581169E-1
5.145845430E0,-1.143171072E0,-9.926624298E0,2.045863420E-1
5.150617357E0,-1.147956610E0,-9.931410789E0,2.045863420E-1
5.155394128E0,-1.152742267E0,-9.936196327E0,2.093719840E-1
5.160170899E0,-1.167099237E0,-9.936196327E0,2.195414752E-1
5.164947670E0,-1.171884894E0,-9.936196327E0,2.243271172E-1
5.169724441E0,-1.166501045E0,-9.926624298E0,2.434697002E-1
5.174501211E0,-1.176072359E0,-9.945767403E0,2.434697002E-1
5.179277982E0,-1.185643673E0,-9.955338478E0,2.291127741E-1
5.184054753E0,-1.185643673E0,-9.964909554E0,2.195414752E-1
5.188831524E0,-1.171884894E0,-9.974481583E0,1.902294010E-1
5.193608295E0,-1.171884894E0,-9.969695091E0,1.758724600E-1
5.198385066E0,-1.176670551E0,-9.964909554E0,1.471585929E-1
5.203161836E0,-1.171884894E0,-9.979267120E0,1.423729509E-1
5.207938607E0,-1.157527924E0,-9.979267120E0,1.423729509E-1
5.212715378E0,-1.147956610E0,-9.984052658E0,1.328016520E-1
5.217492149E0,-1.147956610E0,-9.999007225E0,1.280160099E-1
5.222268920E0,-1.129412293E0,-9.993623734E0,1.328016520E-1
5.227045691E0,-1.133599758E0,-9.999007225E0,1.471585929E-1
5.231822461E0,-1.143171072E0,-1.000379372E1,1.471585929E-1
5.236599232E0,-1.147956610E0,-1.000379372E1,1.471585929E-1
5.241376003E0,-1.147956610E0,-1.000379372E1,1.615155339E-1
5.246152774E0,-1.162313581E0,-9.999007225E0,1.663011760E-1
5.250929545E0,-1.162313581E0,-1.000857925E1,1.615155339E-1
5.255706368E0,-1.171884894E0,-1.000379372E1,1.758724600E-1
5.260483086E0,-1.186241865E0,-1.000857925E1,1.716850251E-1
5.265259909E0,-1.195214868E0,-1.000857925E1,1.716850251E-1
5.270036680E0,-1.195214868E0,-1.001815033E1,1.908276081E-1
5.274813451E0,-1.180858016E0,-1.001815033E1,1.908276081E-1
5.279590222E0,-1.190429211E0,-1.001815033E1,1.956132501E-1
5.284366993E0,-1.185643673E0,-1.003250694E1,2.051845491E-1
5.289143764E0,-1.171286702E0,-1.002293587E1,2.195414752E-1
5.293920534E0,-1.161715388E0,-1.002772141E1,2.243271172E-1
5.298697305E0,-1.142572761E0,-1.002293587E1,2.333002090E-1
5.303474076E0,-1.133001566E0,-1.001336479E1,2.285145670E-1
5.308250847E0,-1.099501967E0,-1.000319481E1,2.285145670E-1
5.313027618E0,-1.094716311E0,-1.000857925E1,2.380858511E-1
5.317804389E0,-1.089930773E0,-1.000857925E1,2.476571500E-1
5.322581159E0,-1.089930773E0,-1.002293587E1,2.572284341E-1
5.327357930E0,-1.104287624E0,-1.002293587E1,2.476571500E-1
5.332134701E0,-1.118644595E0,-1.003250694E1,2.428714931E-1
5.336911472E0,-1.133001566E0,-1.004207802E1,2.428714931E-1
5.341688243E0,-1.152144074E0,-1.004686451E1,2.291127741E-1
5.346465014E0,-1.166501045E0,-1.005643559E1,2.338984162E-1
5.351241784E0,-1.190429211E0,-1.005643559E1,2.291127741E-1
5.356018555E0,-1.200000525E0,-1.006600666E1,2.147558331E-1
5.360795326E0,-1.219143152E0,-1.006181908E1,1.956132501E-1
5.365572097E0,-1.233500123E0,-1.006660461E1,1.860419661E-1
5.370348868E0,-1.237687469E0,-1.008574772E1,1.860419661E-1
5.375125639E0,-1.242473125E0,-1.010488987E1,1.716850251E-1
5.379902409E0,-1.261615753E0,-1.011924744E1,1.668993831E-1
5.384679180E0,-1.256830096E0,-1.013360405E1,1.525424421E-1
5.389455951E0,-1.256830096E0,-1.014855862E1,1.477568001E-1
5.394232722E0,-1.252044439E0,-1.015813065E1,1.477568001E-1
5.399009493E0,-1.247258782E0,-1.015813065E1,1.477568001E-1
5.403786264E0,-1.232901812E0,-1.018205833E1,1.429711580E-1
5.408563034E0,-1.223330617E0,-1.019641590E1,1.573280841E-1
5.413339805E0,-1.213759303E0,-1.019641590E1,1.716850251E-1
5.418116628E0,-1.194616675E0,-1.020598698E1,1.860419661E-1
5.422893347E0,-1.185045362E0,-1.022512913E1,2.003988922E-1
5.427670170E0,-1.170688510E0,-1.024427223E1,2.051845491E-1
5.432446941E0,-1.156331539E0,-1.024905777E1,2.147558331E-1
5.437223711E0,-1.146760225E0,-1.025384331E1,2.482553422E-1
5.442000482E0,-1.132403374E0,-1.027298546E1,2.530409992E-1
5.446777253E0,-1.141974568E0,-1.026819992E1,2.578266263E-1
5.451554024E0,-1.137188911E0,-1.025384331E1,2.769692242E-1
5.456330795E0,-1.141974568E0,-1.023948669E1,2.769692242E-1
5.461107566E0,-1.146760225E0,-1.023470020E1,2.769692242E-1
5.465884336E0,-1.146760225E0,-1.022991467E1,2.817548811E-1
5.470661107E0,-1.146760225E0,-1.021077251E1,2.769692242E-1
5.475437878E0,-1.156331539E0,-1.020598698E1,2.769692242E-1
5.480214649E0,-1.151545882E0,-1.020598698E1,2.721835673E-1
5.484991420E0,-1.174875975E0,-1.021077251E1,2.865405083E-1
5.489768191E0,-1.170688510E0,-1.020598698E1,2.673979402E-1
5.494544961E0,-1.198804140E0,-1.019641590E1,2.626122832E-1
5.499321732E0,-1.199402332E0,-1.017727280E1,2.482553422E-1
5.504098503E0,-1.208973646E0,-1.016291618E1,2.482553422E-1
5.508875274E0,-1.208973646E0,-1.014796066E1,2.243271172E-1
5.513652045E0,-1.218544960E0,-1.013838959E1,2.147558331E-1
5.518428816E0,-1.228116274E0,-1.014796066E1,2.147558331E-1
5.523205586E0,-1.237687469E0,-1.014317513E1,2.147558331E-1
5.527982357E0,-1.237687469E0,-1.015813065E1,2.338984162E-1
5.532759128E0,-1.251446247E0,-1.015334511E1,2.297109663E-1
5.537535899E0,-1.251446247E0,-1.014855862E1,2.297109663E-1
5.542312670E0,-1.251446247E0,-1.014855862E1,2.536391914E-1
5.547089441E0,-1.265803218E0,-1.014855862E1,2.488535494E-1
5.551866211E0,-1.265803218E0,-1.016291618E1,2.775674164E-1
5.556642982E0,-1.284347534E0,-1.017248726E1,2.871387303E-1
5.561419753E0,-1.269990563E0,-1.019162941E1,3.062812984E-1
5.566196524E0,-1.279561877E0,-1.021555805E1,3.206382394E-1
5.570973295E0,-1.274776220E0,-1.023051357E1,3.110669553E-1
5.575750118E0,-1.274776220E0,-1.024008465E1,2.967100143E-1
5.580526836E0,-1.265205026E0,-1.024008465E1,2.967100143E-1
5.585303659E0,-1.255633712E0,-1.024487019E1,2.919243574E-1
5.590080430E0,-1.227517962E0,-1.024965572E1,2.871387303E-1
5.594857149E0,-1.241276741E0,-1.026879883E1,2.727817893E-1
5.599633972E0,-1.222732425E0,-1.028794098E1,2.584248483E-1
5.604410743E0,-1.203589797E0,-1.031246758E1,2.338984162E-1
5.609187514E0,-1.198804140E0,-1.031725311E1,2.243271172E-1
5.613964284E0,-1.194018483E0,-1.031246758E1,2.338984162E-1
5.618741055E0,-1.189232826E0,-1.034118080E1,2.147558331E-1
5.623517826E0,-1.194018483E0,-1.035075283E1,2.099701911E-1
5.628294597E0,-1.198804140E0,-1.034596729E1,2.003988922E-1
5.633071368E0,-1.208375454E0,-1.036092186E1,2.099701911E-1
5.637848139E0,-1.203589797E0,-1.038485050E1,2.003988922E-1
5.642624909E0,-1.208375454E0,-1.037527943E1,2.099701911E-1
5.647401680E0,-1.208375454E0,-1.038006496E1,2.195414752E-1
5.652178451E0,-1.232303619E0,-1.038963604E1,2.153540403E-1
5.656955222E0,-1.236491084E0,-1.038485050E1,2.201396823E-1
5.661731993E0,-1.246062398E0,-1.037527943E1,2.297109663E-1
5.666508764E0,-1.250848055E0,-1.035613632E1,2.440679073E-1
5.671285534E0,-1.250848055E0,-1.036092186E1,2.440679073E-1
5.676062305E0,-1.269990563E0,-1.034656525E1,2.584248483E-1
5.680839076E0,-1.269990563E0,-1.034177971E1,2.584248483E-1
5.685615847E0,-1.269990563E0,-1.035135078E1,2.632105052E-1
5.690392618E0,-1.260419369E0,-1.034656525E1,2.823530734E-1
5.695169389E0,-1.269990563E0,-1.034656525E1,2.823530734E-1
5.699946159E0,-1.274776220E0,-1.035135078E1,2.871387303E-1
5.704722930E0,-1.269990563E0,-1.035135078E1,2.871387303E-1
5.709499701E0,-1.269990563E0,-1.035135078E1,2.871387303E-1
5.714276472E0,-1.283749342E0,-1.034177971E1,2.919243574E-1
5.719053243E0,-1.278963685E0,-1.034177971E1,2.919243574E-1
5.723830014E0,-1.279561877E0,-1.035135078E1,2.823530734E-1
5.728606784E0,-1.293320656E0,-1.035613632E1,2.775674164E-1
5.733383555E0,-1.279561877E0,-1.035613632E1,2.727817893E-1
5.738160378E0,-1.279561877E0,-1.037049294E1,2.727817893E-1
5.742937097E0,-1.269990563E0,-1.036092186E1,2.679961324E-1
5.747713868E0,-1.283749342E0,-1.038006496E1,2.679961324E-1
5.752490691E0,-1.283749342E0,-1.038963604E1,2.727817893E-1
5.757267461E0,-1.278963685E0,-1.040399265E1,2.632105052E-1
5.762044232E0,-1.288534999E0,-1.041894817E1,2.632105052E-1
5.766821003E0,-1.283749342E0,-1.042373371E1,2.536391914E-1
5.771597774E0,-1.298106313E0,-1.042373371E1,2.584248483E-1
5.776374545E0,-1.307677627E0,-1.041894817E1,2.488535494E-1
5.781151316E0,-1.293918848E0,-1.041894817E1,2.249253243E-1
5.785928086E0,-1.313061476E0,-1.041416264E1,2.105683982E-1
5.790704857E0,-1.307677627E0,-1.042851925E1,2.201396823E-1
5.795481628E0,-1.293918848E0,-1.043330479E1,2.153540403E-1
5.800258399E0,-1.289133191E0,-1.043809032E1,2.105683982E-1
5.805035170E0,-1.284347534E0,-1.044766140E1,2.297109663E-1
5.809811941E0,-1.274178028E0,-1.045723343E1,2.440679073E-1
5.814588711E0,-1.283749342E0,-1.046201897E1,2.440679073E-1
5.819365482E0,-1.278963685E0,-1.045244789E1,2.392822653E-1
5.824142253E0,-1.278963685E0,-1.045723343E1,2.536391914E-1
5.828919024E0,-1.278963685E0,-1.045723343E1,2.536391914E-1
5.833695795E0,-1.274178028E0,-1.045244789E1,2.536391914E-1
5.838472566E0,-1.274178028E0,-1.047159004E1,2.679961324E-1
5.843249336E0,-1.274178028E0,-1.045723343E1,2.632105052E-1
5.848026107E0,-1.259821177E0,-1.046680450E1,2.536391914E-1
5.852802878E0,-1.246062398E0,-1.046201897E1,2.584248483E-1
5.857579649E0,-1.236491084E0,-1.045723343E1,2.392822653E-1
5.862356420E0,-1.236491084E0,-1.047159004E1,2.392822653E-1
5.867133191E0,-1.222134113E0,-1.046201897E1,2.392822653E-1
5.871909961E0,-1.222134113E0,-1.046680450E1,2.344966233E-1
5.876686732E0,-1.212562919E0,-1.046680450E1,2.201396823E-1
5.881463503E0,-1.222134113E0,-1.046201897E1,2.249253243E-1
5.886240274E0,-1.231705427E0,-1.046680450E1,2.297109663E-1
5.891017045E0,-1.222134113E0,-1.047159004E1,2.440679073E-1
5.895793816E0,-1.236491084E0,-1.046680450E1,2.344966233E-1
5.900570586E0,-1.241276741E0,-1.046680450E1,2.536391914E-1
5.905347357E0,-1.259821177E0,-1.045244789E1,2.727817893E-1
5.910124180E0,-1.259821177E0,-1.045723343E1,2.727817893E-1
5.914900951E0,-1.264606714E0,-1.046201897E1,2.775674164E-1
5.919677722E0,-1.274178028E0,-1.045723343E1,2.775674164E-1
5.924454493E0,-1.269392371E0,-1.043809032E1,2.967100143E-1
5.929231264E0,-1.269392371E0,-1.043330479E1,2.823530734E-1
5.934008034E0,-1.288534999E0,-1.042373371E1,2.775674164E-1
5.938784805E0,-1.278963685E0,-1.043809032E1,2.871387303E-1
5.943561576E0,-1.283749342E0,-1.045244789E1,2.967100143E-1
5.948338347E0,-1.283749342E0,-1.044766140E1,2.919243574E-1
5.953115118E0,-1.274178028E0,-1.044287586E1,2.727817893E-1
5.957891889E0,-1.269392371E0,-1.043749237E1,2.871387303E-1
5.962668659E0,-1.255633712E0,-1.042792130E1,2.727817893E-1
5.967445430E0,-1.255633712E0,-1.043270683E1,2.632105052E-1
5.972222201E0,-1.246062398E0,-1.042792130E1,2.584248483E-1
5.976998972E0,-1.274776220E0,-1.042792130E1,2.536391914E-1
5.981775743E0,-1.283749342E0,-1.043809032E1,2.584248483E-1
5.986552514E0,-1.298704505E0,-1.042313576E1,2.249253243E-1
5.991329284E0,-1.312463164E0,-1.042313576E1,2.344966233E-1
5.996106055E0,-1.308275819E0,-1.040877819E1,2.153540403E-1
6.000882826E0,-1.298704505E0,-1.040877819E1,2.201396823E-1
6.005659597E0,-1.293918848E0,-1.040399265E1,2.249253243E-1
6.010436368E0,-1.298704505E0,-1.039442158E1,2.249253243E-1
6.015213139E0,-1.289133191E0,-1.040877819E1,2.488535494E-1
6.019989909E0,-1.293320656E0,-1.040877819E1,2.632105052E-1
6.024766680E0,-1.293320656E0,-1.041356373E1,2.727817893E-1
6.029543451E0,-1.288534999E0,-1.042313576E1,2.871387303E-1
6.034320222E0,-1.278963685E0,-1.040877819E1,2.871387303E-1
6.039096993E0,-1.269392371E0,-1.041356373E1,2.775674164E-1
6.043873764E0,-1.274178028E0,-1.041356373E1,2.727817893E-1
6.048650534E0,-1.269990563E0,-1.041356373E1,2.632105052E-1
6.053427305E0,-1.288534999E0,-1.041835022E1,2.584248483E-1
6.058204076E0,-1.288534999E0,-1.042792130E1,2.488535494E-1
6.062980847E0,-1.278963685E0,-1.044766140E1,2.440679073E-1
6.067757670E0,-1.293320656E0,-1.044766140E1,2.584248483E-1
6.072534441E0,-1.302891970E0,-1.045244789E1,2.632105052E-1
6.077311211E0,-1.293320656E0,-1.045723343E1,2.440679073E-1
6.082087982E0,-1.284347534E0,-1.045244789E1,2.201396823E-1
6.086864753E0,-1.288534999E0,-1.045244789E1,2.344966233E-1
6.091641524E0,-1.283749342E0,-1.044287586E1,2.440679073E-1
6.096418295E0,-1.260419369E0,-1.046680450E1,2.488535494E-1
6.101195066E0,-1.246062398E0,-1.047637558E1,2.536391914E-1
6.105971836E0,-1.259821177E0,-1.048594666E1,2.584248483E-1
6.110748607E0,-1.250249863E0,-1.049551868E1,2.727817893E-1
6.115525378E0,-1.240678549E0,-1.048594666E1,2.679961324E-1
6.120302149E0,-1.240678549E0,-1.047637558E1,2.727817893E-1
6.125078920E0,-1.250249863E0,-1.047637558E1,2.679961324E-1
6.129855691E0,-1.250848055E0,-1.044706345E1,2.488535494E-1
6.134632461E0,-1.226919770E0,-1.045663452E1,2.297109663E-1
6.139409232E0,-1.202991605E0,-1.047159004E1,2.488535494E-1
6.144186003E0,-1.222134113E0,-1.048116112E1,2.392822653E-1
6.148962774E0,-1.193420291E0,-1.049073315E1,2.338984162E-1
6.153739545E0,-1.155733347E0,-1.050030422E1,2.338984162E-1
6.158516316E0,-1.146162033E0,-1.050030422E1,2.386840582E-1
6.163293086E0,-1.164706469E0,-1.050030422E1,2.626122832E-1
6.168069857E0,-1.183848977E0,-1.048116112E1,2.673979402E-1
6.172846628E0,-1.231705427E0,-1.044766140E1,2.775674164E-1
6.177623399E0,-1.269392371E0,-1.045244789E1,2.679961324E-1
6.182400170E0,-1.283749342E0,-1.047159004E1,2.536391914E-1
6.187176941E0,-1.236491084E0,-1.048116112E1,2.249253243E-1
6.191953711E0,-1.213161111E0,-1.046680450E1,1.860419661E-1
6.196730482E0,-1.232303619E0,-1.044706345E1,1.525424421E-1
6.201507253E0,-1.251446247E0,-1.045723343E1,1.627119333E-1
6.206284024E0,-1.222732425E0,-1.048116112E1,1.621137410E-1
6.211060795E0,-1.193420291E0,-1.052423191E1,1.956132501E-1
6.215837566E0,-1.164706469E0,-1.054337502E1,2.291127741E-1
6.220614336E0,-1.112662554E0,-1.057208824E1,2.338984162E-1
6.225391107E0,-1.073779106E0,-1.057687473E1,2.434697002E-1
6.230167878E0,-1.040279627E0,-1.054816055E1,2.428714931E-1
6.234944701E0,-1.026520967E0,-1.050449181E1,2.285145670E-1
6.239721472E0,-1.050449133E0,-1.044227791E1,1.950150430E-1
6.244498243E0,-1.074377418E0,-1.038903809E1,1.902294010E-1
6.249275014E0,-1.103689432E0,-1.033160973E1,1.710868180E-1
6.254051784E0,-1.128215909E0,-1.027298546E1,1.663011760E-1
6.258828555E0,-1.147358418E0,-1.024905777E1,1.716850251E-1
6.263605326E0,-1.156331539E0,-1.022991467E1,1.908276081E-1
6.268382097E0,-1.165902853E0,-1.022512913E1,2.195414752E-1
6.273158868E0,-1.151545882E0,-1.024905777E1,2.434697002E-1
6.277935639E0,-1.103091240E0,-1.029212856E1,2.817548811E-1
6.282712409E0,-1.083948612E0,-1.033639526E1,2.865405083E-1
6.287489180E0,-1.050449133E0,-1.040818024E1,2.955136001E-1
6.292265951E0,-1.031306505E0,-1.044227791E1,2.955136001E-1
6.297042722E0,-1.012163997E0,-1.049970531E1,2.811566591E-1
6.301819493E0,-9.978070259E-1,-1.052841949E1,2.667997181E-1
6.306596264E0,-9.643075466E-1,-1.056251717E1,2.380858511E-1
6.311373034E0,-9.266205430E-1,-1.057208824E1,1.896311939E-1
6.316149805E0,-9.218349457E-1,-1.057149029E1,1.704886109E-1
6.320926576E0,-9.409775138E-1,-1.059123135E1,1.465603858E-1
6.325703347E0,-9.361918569E-1,-1.059123135E1,1.369891018E-1
6.330480118E0,-9.128618240E-1,-1.057627583E1,1.178465188E-1
6.335256889E0,-8.937192559E-1,-1.055234814E1,1.028913707E-1
6.340033659E0,-9.080761671E-1,-1.054756260E1,1.082752272E-1
6.344810430E0,-9.176474810E-1,-1.051406288E1,1.178465188E-1
6.349587201E0,-9.128618240E-1,-1.048534870E1,1.178465188E-1
6.354363972E0,-9.128618240E-1,-1.047099209E1,1.369891018E-1
6.359140743E0,-8.985049129E-1,-1.047099209E1,1.609173268E-1
6.363917514E0,-9.032905698E-1,-1.046620655E1,1.992024779E-1
6.368694284E0,-8.841479421E-1,-1.046560764E1,2.374876440E-1
6.373471055E0,-8.596215248E-1,-1.048056316E1,2.709871531E-1
6.378247878E0,-8.500502706E-1,-1.049491978E1,2.901297510E-1
6.383024649E0,-8.356932998E-1,-1.050449181E1,3.044866920E-1
6.387801420E0,-8.500502706E-1,-1.054277611E1,3.044866920E-1
6.392578139E0,-8.356932998E-1,-1.054756260E1,2.949153781E-1
6.397354961E0,-8.548358679E-1,-1.053320503E1,2.709871531E-1
6.402131732E0,-8.835497499E-1,-1.049970531E1,2.805584669E-1
6.406908503E0,-9.266205430E-1,-1.046620655E1,2.709871531E-1
6.411685274E0,-9.834501147E-1,-1.044706345E1,2.763710022E-1
6.416462045E0,-1.102493048E0,-1.040399265E1,2.913261652E-1
6.421238816E0,-1.122233868E0,-1.039442158E1,3.056831062E-1
6.426015586E0,-1.174277663E0,-1.041356373E1,3.206382394E-1
6.430792357E0,-1.183848977E0,-1.040877819E1,3.158525825E-1
6.435569128E0,-1.188634634E0,-1.041356373E1,2.967100143E-1
6.440345899E0,-1.222134113E0,-1.040399265E1,2.775674164E-1
6.445122670E0,-1.255633712E0,-1.038963604E1,2.632105052E-1
6.449899441E0,-1.236491084E0,-1.035613632E1,2.488535494E-1
6.454676211E0,-1.236491084E0,-1.037527943E1,2.488535494E-1
6.459452982E0,-1.232303619E0,-1.035613632E1,2.249253243E-1
6.464229753E0,-1.237089276E0,-1.035613632E1,2.249253243E-1
6.469006524E0,-1.260419369E0,-1.034177971E1,2.201396823E-1
6.473783295E0,-1.269990563E0,-1.032742214E1,2.440679073E-1
6.478560066E0,-1.284347534E0,-1.031785107E1,2.823530734E-1
6.483336836E0,-1.298106313E0,-1.033220863E1,2.919243574E-1
6.488113607E0,-1.302891970E0,-1.034177971E1,3.014956415E-1
6.492890378E0,-1.302891970E0,-1.035613632E1,2.967100143E-1
6.497667149E0,-1.269392371E0,-1.037527943E1,2.919243574E-1
6.502443920E0,-1.231705427E0,-1.040877819E1,2.823530734E-1
6.507220691E0,-1.217348576E0,-1.043809032E1,2.823530734E-1
6.511997461E0,-1.174277663E0,-1.048116112E1,3.062812984E-1
6.516774232E0,-1.164706469E0,-1.053380394E1,2.817548811E-1
6.521551003E0,-1.198205948E0,-1.051466084E1,2.291127741E-1
6.526327774E0,-1.174875975E0,-1.039920712E1,1.956132501E-1
6.531104545E0,-1.041476011E0,-1.038425159E1,2.189432681E-1
6.535881316E0,-9.690931439E-1,-1.042732334E1,2.907279432E-1
6.540658139E0,-1.011565804E0,-1.047099209E1,3.625126183E-1
6.545434909E0,-1.030110121E0,-1.046620655E1,4.109672904E-1
6.550211680E0,-1.077368379E0,-1.047099209E1,4.396811724E-1
6.554988451E0,-1.087537885E0,-1.047577763E1,4.061816335E-1
6.559765222E0,-1.045663476E0,-1.043749237E1,2.811566591E-1
6.564541993E0,-1.207777262E0,-1.050987530E1,2.051845491E-1
6.569318764E0,-1.208375454E0,-1.055832958E1,1.286142170E-1
6.574095534E0,-1.227517962E0,-1.057268715E1,4.725824669E-2
6.578872305E0,-1.375274777E0,-1.074616623E1,-9.571290761E-2
6.583649076E0,-1.394417405E0,-1.081376362E1,-8.614161611E-2
6.588425847E0,-1.293918848E0,-1.066421223E1,4.307080805E-2
6.593202618E0,-1.317248821E0,-1.058225822E1,2.207378894E-1
6.597979389E0,-1.383051515E0,-1.045723343E1,3.792623878E-1
6.602756159E0,-1.549950838E0,-1.041954613E1,3.272185028E-1
6.607532930E0,-1.617548108E0,-1.038544846E1,1.118644550E-1
6.612309701E0,-1.634297848E0,-1.041416264E1,-2.673979402E-1
6.617073191E0,-1.557129383E0,-1.045184898E1,-2.426920414E0
6.621863243E0,-1.557129383E0,-1.029212856E1,-3.132802963E0
6.626640014E0,-2.160120726E0,-1.074317551E1,-1.250249892E-1
6.631416784E0,-1.742573142E0,-1.073779202E1,5.491527915E-1
6.636193555E0,-1.639083505E0,-1.061695385E1,4.522434771E-1
6.640970326E0,-1.771885157E0,-1.054995537E1,5.443671346E-1
6.645747097E0,-1.846062660E0,-1.042971611E1,8.518448472E-1
6.650523868E0,-1.507478237E0,-1.012522888E1,1.147358418E0
6.655300639E0,-1.335793257E0,-9.985248566E0,1.333400369E0
6.660077409E0,-1.298106313E0,-9.936794281E0,1.319043517E0
6.664854180E0,-1.299302697E0,-9.888937950E0,1.103091240E0
6.669630951E0,-1.510469317E0,-1.013958549E1,7.058826685E-1
6.674407774E0,-1.649851203E0,-1.035194874E1,3.230310678E-1
6.679184493E0,-1.537388563E0,-1.031785107E1,5.383851007E-2
6.683961264E0,-1.601396561E0,-1.039980507E1,-3.637090325E-1
6.688738086E0,-1.594218135E0,-1.036570740E1,-6.855437160E-1
6.693514857E0,-1.664806366E0,-1.031785107E1,-5.270192027E-1
6.698291628E0,-1.667199135E0,-1.040040398E1,-1.567298770E-1
6.703068399E0,-1.605584025E0,-1.035194874E1,5.335994363E-1
6.707845170E0,-1.724028707E0,-1.028913784E1,7.166503668E-1
6.712621941E0,-1.509272933E0,-1.031366348E1,7.878368497E-1
6.717398711E0,-1.462612867E0,-1.039980507E1,6.287141442E-1
6.722175482E0,-1.537986755E0,-1.045304585E1,6.484549642E-1
6.726952253E0,-1.528415442E0,-1.036630630E1,7.250252366E-1
6.731729024E0,-1.644467354E0,-1.043390274E1,4.283152521E-1
6.736505795E0,-1.887338877E0,-1.053559780E1,3.194418252E-1
6.741282566E0,-1.948953986E0,-1.077188969E1,2.093719840E-1
6.746059336E0,-1.840678811E0,-1.071864891E1,-1.196411345E-2
6.750836107E0,-1.719841242E0,-1.080479050E1,-4.540380836E-1
6.755612878E0,-1.542772412E0,-1.063549805E1,-9.924231768E-1
6.760389649E0,-1.502094388E0,-1.046201897E1,-1.227517962E0
6.765166420E0,-1.497308731E0,-1.043270683E1,-1.247258782E0
6.769943191E0,-1.306481123E0,-1.033639526E1,-1.075573802E0
6.774719961E0,-1.028315544E0,-1.027717304E1,-7.555337548E-1
6.779496732E0,-8.315058947E-1,-1.026281643E1,-4.642075896E-1
6.784273503E0,-8.967102766E-1,-1.026760197E1,-1.704886109E-1
6.789050274E0,-9.469595551E-1,-1.025862885E1,1.609173268E-1
6.793827045E0,-1.144367456E0,-1.033639526E1,5.455635786E-1
6.798603816E0,-1.292124271E0,-1.033759212E1,1.266401410E0
6.803380586E0,-1.569093466E0,-1.049192905E1,9.852447510E-1
6.808157357E0,-1.405783296E0,-1.040459061E1,5.611169338E-1
6.812934128E0,-1.382453322E0,-1.048176003E1,4.701896608E-1
6.817710899E0,-1.274178028E0,-1.044766140E1,3.206382394E-1
6.822487670E0,-1.292124271E0,-1.048594666E1,4.791627228E-1
6.827264441E0,-1.509871125E0,-1.051585770E1,5.521438122E-1
6.832041264E0,-1.710868239E0,-1.059302616E1,3.278166950E-1
6.836817982E0,-1.447059512E0,-1.049611664E1,-1.375873014E-2
6.841594805E0,-1.163509965E0,-1.056251717E1,-3.661018610E-1
6.846371576E0,-1.459621787E0,-1.067856884E1,-6.329016089E-1
6.851148347E0,-1.488335729E0,-1.055354404E1,-6.089733839E-1
6.855925118E0,-1.088734269E0,-1.052841949E1,-6.305087805E-1
6.860701889E0,-9.361918569E-1,-1.046560764E1,-5.114658475E-1
6.865478659E0,-9.487541914E-1,-1.042732334E1,-2.470589429E-1
6.870255430E0,-9.188438654E-1,-1.036451149E1,-3.110669367E-2
6.875032201E0,-9.224331379E-1,-1.035494041E1,2.039881349E-1
6.879808972E0,-7.938188910E-1,-1.023410225E1,3.326023519E-1
6.884585743E0,-7.411768436E-1,-1.020479012E1,3.804588020E-1
6.889362514E0,-8.171489239E-1,-1.020060253E1,3.948157430E-1
6.894139284E0,-8.548358679E-1,-1.023410225E1,4.001995921E-1
6.898916055E0,-8.745766878E-1,-1.023888779E1,3.427718580E-1
6.903692826E0,-8.841479421E-1,-1.027777100E1,2.614158690E-1
6.908469597E0,-9.278169870E-1,-1.031665516E1,1.800599098E-1
6.913246368E0,-8.997012973E-1,-1.035015392E1,5.024927482E-2
6.918023139E0,-9.194421172E-1,-1.037946606E1,-5.024927482E-2
6.922799909E0,-9.625129104E-1,-1.042732334E1,-1.459621787E-1
6.927576680E0,-1.000798106E0,-1.044167995E1,-2.033899277E-1
6.932353451E0,-1.067198873E0,-1.045184898E1,-2.219343036E-1
6.937130222E0,-1.129412293E0,-1.049491978E1,-1.884347796E-1
6.941906993E0,-1.143769264E0,-1.052901745E1,-1.591227055E-1
6.946683764E0,-1.209571838E0,-1.055773163E1,-1.064806059E-1
6.951460534E0,-1.171286702E0,-1.051944637E1,-5.862415582E-2
6.956237305E0,-1.166501045E0,-1.052901745E1,1.316052489E-2
6.961014076E0,-1.256231904E0,-1.055354404E1,8.614161611E-2
6.965790847E0,-1.351346612E0,-1.052004433E1,1.196411327E-1
6.970567618E0,-1.445863128E0,-1.053918743E1,1.537388563E-1
6.975344389E0,-1.560120344E0,-1.053021431E1,1.830509305E-1
6.980121159E0,-1.550549030E0,-1.047697353E1,1.878365725E-1
6.984897982E0,-1.536790371E0,-1.039023399E1,1.639083475E-1
6.989674753E0,-1.555932879E0,-1.031785107E1,1.304088384E-1
6.994451524E0,-1.247856975E0,-1.006181908E1,1.142572835E-1
6.999228295E0,-1.272383451E0,-1.010010433E1,-1.016949583E-2
7.004005066E0,-1.301097274E0,-1.010488987E1,-4.366901144E-2
7.008781836E0,-1.291526079E0,-1.016770172E1,-1.058823988E-1
7.013558607E0,-1.253240824E0,-1.025384331E1,-9.690931439E-2
7.018335378E0,-1.186840057E0,-1.035075283E1,-1.064806059E-1
7.023112149E0,-1.095314622E0,-1.038903809E1,-1.022931710E-1
7.027888920E0,-1.000199914E0,-1.038903809E1,-9.810572863E-2
7.032665691E0,-9.672985673E-1,-1.038425159E1,-1.220339537E-1
7.037442461E0,-1.100100160E0,-1.045663452E1,-9.750752151E-2
7.042219232E0,-1.204786181E0,-1.049073315E1,-3.888336942E-2
7.046996003E0,-1.308874011E0,-1.053918743E1,1.914258115E-2
7.051772774E0,-1.317847013E0,-1.056311512E1,6.221338734E-2
7.056549545E0,-1.303490162E0,-1.058225822E1,6.699903309E-2
7.061326316E0,-1.284945726E0,-1.052423191E1,4.307080805E-2
7.066103086E0,-1.261615753E0,-1.051466084E1,1.375873014E-2
7.070879857E0,-1.213759303E0,-1.050508976E1,-5.383851007E-3
7.075656628E0,-1.080359459E0,-1.051884842E1,8.374879137E-3
7.080433399E0,-1.046859860E0,-1.049013424E1,-3.050848842E-2
7.085210170E0,-1.089930773E0,-1.045663452E1,-4.486542568E-2
7.089986941E0,-1.085145116E0,-1.047099209E1,-2.991028316E-2
7.094763711E0,-1.103689432E0,-1.051466084E1,3.589233849E-3
7.099540482E0,-1.137787223E0,-1.051944637E1,3.589233849E-3
7.104317253E0,-1.185643673E0,-1.050030422E1,-5.982056726E-3
7.109094024E0,-1.185643673E0,-1.046620655E1,1.375873014E-2
7.113870795E0,-1.165902853E0,-1.045663452E1,6.161518395E-2
7.118647618E0,-1.161117196E0,-1.045663452E1,9.511470050E-2
7.123424389E0,-1.127617717E0,-1.043270683E1,1.184447184E-1
7.128201159E0,-1.107876897E0,-1.045184898E1,1.710868180E-1
7.132977930E0,-1.074377418E0,-1.044227791E1,1.998006850E-1
7.137754701E0,-1.060020447E0,-1.040818024E1,1.950150430E-1
7.142531472E0,-1.074377418E0,-1.039382362E1,2.093719840E-1
7.147308243E0,-1.046261668E0,-1.038903809E1,1.902294010E-1
7.152085014E0,-9.942178130E-1,-1.038903809E1,1.657029688E-1
7.156861784E0,-9.559326172E-1,-1.039860916E1,1.322034448E-1
7.161638555E0,-9.469595551E-1,-1.039382362E1,9.391828626E-2
7.166415326E0,-9.278169870E-1,-1.038365364E1,7.896314561E-2
7.171192097E0,-8.757730722E-1,-1.035972595E1,3.110669367E-2
7.175968868E0,-9.092726111E-1,-1.036929703E1,1.196411345E-2
7.180745639E0,-9.475577474E-1,-1.037886810E1,1.196411345E-2
7.185522409E0,-9.337990284E-1,-1.036451149E1,-4.546362907E-2
7.190299180E0,-9.529415965E-1,-1.035972595E1,-8.374879509E-2
7.195075951E0,-1.048056364E0,-1.034058285E1,-1.357926875E-1
7.199852722E0,-1.205982566E0,-1.031246758E1,-1.160518974E-1
7.204629493E0,-1.277169108E0,-1.021555805E1,-5.324030295E-2
7.209406264E0,-1.390828133E0,-1.016291618E1,1.435693540E-2
7.214183034E0,-1.471585870E0,-1.011984539E1,6.281159073E-2
7.218959805E0,-1.533201098E0,-1.010548782E1,1.160518974E-1
7.223736576E0,-1.636690736E0,-1.017308521E1,2.075773627E-1
7.228513347E0,-1.555932879E0,-1.018265629E1,2.309073806E-1
7.233290118E0,-1.532004714E0,-1.023051357E1,2.500499785E-1
7.238066889E0,-1.545763373E0,-1.031785107E1,2.691925466E-1
7.242843659E0,-1.517049551E0,-1.036151981E1,3.026920557E-1
7.247620430E0,-1.544566989E0,-1.048176003E1,3.559323549E-1
7.252397201E0,-1.548754454E0,-1.058764172E1,4.037888348E-1
7.257173972E0,-1.496112347E0,-1.065523911E1,4.612165689E-1
7.261950743E0,-1.481755376E0,-1.073719311E1,4.516452849E-1
7.266727514E0,-1.519442320E0,-1.084307575E1,4.522434771E-1
7.271504336E0,-1.485942841E0,-1.090050316E1,4.229314029E-1
7.276281107E0,-1.414756417E0,-1.094836044E1,3.840480447E-1
7.281057878E0,-1.362712502E0,-1.094357395E1,3.457628787E-1
7.285834649E0,-1.272383451E0,-1.087119102E1,3.978067636E-1
7.290611420E0,-1.125224829E0,-1.077966595E1,3.589234054E-1
7.295388191E0,-9.966106415E-1,-1.070189953E1,3.050848842E-1
7.300164961E0,-8.931210637E-1,-1.061037350E1,2.422732860E-1
7.304941732E0,-9.463613629E-1,-1.058166027E1,1.034895778E-1
7.309718503E0,-9.230313301E-1,-1.050927734E1,-2.392822644E-3
7.314495274E0,-8.620143533E-1,-1.049432182E1,-3.589234129E-2
7.319272045E0,-1.281954765E0,-1.048116112E1,-1.920240223E-1
7.324048816E0,-2.251047850E0,-1.038185883E1,-6.675975323E-1
7.328825586E0,-1.258624673E0,-1.020538902E1,-9.224331379E-1
7.333589024E0,1.686939895E-1,-1.004327488E1,-9.391828775E-1
7.338379128E0,7.304090858E-1,-1.019581699E1,-8.799605370E-1
7.343155899E0,6.658028960E-1,-1.052901745E1,-7.447660565E-1
7.347932670E0,5.629115105E-1,-1.071206856E1,-6.005984545E-1
7.352709441E0,3.882354796E-1,-1.074676514E1,-3.541377485E-1
7.357486211E0,1.094716340E-1,-1.075214863E1,-6.520441920E-2
7.362262982E0,-1.322034448E-1,-1.074796104E1,1.328016520E-1
7.367039753E0,-5.353940725E-1,-1.065284634E1,4.085744619E-1
7.371816524E0,-1.099501967E0,-1.051944637E1,7.375875711E-1
7.376593295E0,-1.702493310E0,-1.037647533E1,1.100698471E0
7.381370066E0,-2.338984251E0,-1.022393322E1,1.319641709E0
7.386146836E0,-3.000599623E0,-1.009053326E1,1.332802176E0
7.390910326E0,-3.253640652E0,-1.003310490E1,1.122832060E0
7.395700378E0,-3.074777126E0,-1.002772141E1,8.291130662E-1
7.400477201E0,-2.715255499E0,-1.004148006E1,5.581258535E-1
7.405253920E0,-2.240280151E0,-1.017966557E1,3.499503136E-1
7.410030743E0,-1.855633974E0,-1.028435135E1,1.561316848E-1
7.414807514E0,-1.609173179E0,-1.026939678E1,3.948157281E-2
7.419584284E0,-1.424327731E0,-1.022094154E1,-1.435693540E-2
7.424361055E0,-1.290927768E0,-1.017727280E1,-2.452643216E-2
7.429137826E0,-1.229312658E0,-1.016291618E1,1.375873014E-2
7.433914597E0,-1.243071318E0,-1.019162941E1,1.142572835E-1
7.438691368E0,-1.303490162E0,-1.019641590E1,2.536391914E-1
7.443468139E0,-1.359721422E0,-1.017727280E1,3.930211067E-1
7.448244909E0,-1.354337573E0,-1.014855862E1,5.324030519E-1
7.453021680E0,-1.316052437E0,-1.015334511E1,6.329016089E-1
7.457798451E0,-1.258026481E0,-1.015334511E1,7.328019142E-1
7.462575222E0,-1.191027522E0,-1.019162941E1,7.716853023E-1
7.467351993E0,-1.162313581E0,-1.022572803E1,8.195417523E-1
7.472128764E0,-1.133599758E0,-1.024487019E1,8.482556343E-1
7.476905534E0,-1.133599758E0,-1.024008465E1,8.578268886E-1
7.481682305E0,-1.143171072E0,-1.023051357E1,8.578268886E-1
7.486459076E0,-1.167099237E0,-1.021555805E1,8.434699774E-1
7.491235847E0,-1.181456208E0,-1.025444126E1,8.243274093E-1
7.496012618E0,-1.195813060E0,-1.024965572E1,8.147560954E-1
7.500789389E0,-1.214955688E0,-1.027358437E1,7.621139884E-1
7.505566159E0,-1.224527001E0,-1.029811001E1,6.849454641E-1
7.510342930E0,-1.220339537E0,-1.037049294E1,5.988038778E-1
7.515119701E0,-1.225723386E0,-1.033699417E1,4.887340367E-1
7.519896472E0,-1.221535921E0,-1.023051357E1,4.354937077E-1
7.524673243E0,-1.203589797E0,-1.005703354E1,3.876372576E-1
7.529450014E0,-1.223330617E0,-9.883553505E0,3.972085714E-1
7.534226836E0,-1.289731383E0,-9.782457352E0,4.737788737E-1
7.539003607E0,-1.384247899E0,-9.691530228E0,5.700899959E-1
7.543780378E0,-1.511665702E0,-9.739984512E0,6.622136831E-1
7.548557149E0,-1.601994753E0,-9.788438797E0,7.202396393E-1
7.553333920E0,-1.654038668E0,-9.831509590E0,6.819544435E-1
7.558110691E0,-1.645065546E0,-9.889535904E0,6.005984545E-1
7.562887461E0,-1.588235974E0,-9.970891953E0,4.755735099E-1
7.567664232E0,-1.536192179E0,-1.009113121E1,3.601198196E-1
7.572441003E0,-1.489532113E0,-1.016829967E1,2.117647976E-1
7.577217774E0,-1.447657704E0,-1.018265629E1,9.152546525E-2
7.581994545E0,-1.409970760E0,-1.018205833E1,-9.571290575E-3
7.586771316E0,-1.377069473E0,-1.019162941E1,-7.657032460E-2
7.591548086E0,-1.391426325E0,-1.023529911E1,-6.699903309E-2
7.596324857E0,-1.179661512E0,-9.945767403E0,4.109672904E-1
7.601101628E0,-1.314856052E0,-9.532406807E0,1.160519004E0
7.605865118E0,-2.111067772E0,-8.970691681E0,1.821536183E0
7.610655170E0,-2.685943365E0,-8.721838951E0,2.131406784E0
7.615431941E0,-2.733201742E0,-9.078369141E0,2.031506538E0
7.620208711E0,-2.371287346E0,-9.949356079E0,1.626521230E0
7.624985482E0,-1.864607096E0,-1.106560802E1,5.784648657E-1
7.629762253E0,-1.494915962E0,-1.181575775E1,-7.375875711E-1
7.634525743E0,-1.376471281E0,-1.170927715E1,-1.549352646E0
7.639315795E0,-1.389033556E0,-1.108235836E1,-1.785045743E0
7.644092566E0,-1.307677627E0,-1.055294609E1,-1.401595831E0
7.648869336E0,-1.133001566E0,-1.035075283E1,-6.640082598E-1
7.653646107E0,-1.003190875E0,-1.038425159E1,1.800599098E-1
7.658422878E0,-1.089930773E0,-1.046680450E1,8.099704385E-1
7.663199649E0,-1.354935765E0,-1.035194874E1,1.122832060E0
7.667976420E0,-1.702493310E0,-1.018863869E1,1.158126116E0
7.672753243E0,-2.021935225E0,-1.003011417E1,1.121037364E0
7.677530014E0,-2.193022013E0,-9.958329201E0,1.141376376E0
7.682306784E0,-2.288136721E0,-1.000199890E1,1.185045362E0
7.687083555E0,-2.344966173E0,-1.010788059E1,1.223928809E0
7.691860326E0,-2.444866419E0,-1.015155029E1,1.166501045E0
7.696637097E0,-2.440679073E0,-1.016590691E1,1.118644595E0
7.701413868E0,-2.370090723E0,-1.013240719E1,9.936196208E-1
7.706190639E0,-2.313859463E0,-1.010309505E1,8.542376757E-1
7.710967409E0,-2.175075769E0,-1.016530895E1,8.201399446E-1
7.715744180E0,-1.947159410E0,-1.018385315E1,7.806583643E-1
7.720520951E0,-1.747956991E0,-1.022692394E1,7.070791125E-1
7.725297722E0,-1.585843205E0,-1.029392338E1,7.298108935E-1
7.730074493E0,-1.333400369E0,-1.043809032E1,6.711867452E-1
7.734851264E0,-1.090528965E0,-1.045184898E1,7.082754970E-1
7.739628034E0,-8.853443861E-1,-1.050449181E1,7.704889178E-1
7.744404805E0,-7.944171429E-1,-1.052363396E1,8.129615188E-1
7.749181576E0,-6.616154313E-1,-1.059063339E1,7.692924738E-1
7.753958347E0,-6.424728632E-1,-1.068694401E1,7.064808607E-1
7.758735118E0,-9.140582681E-1,-1.066361427E1,6.167500615E-1
7.763511889E0,-1.095314622E0,-1.060618591E1,6.317051649E-1
7.768288659E0,-1.066002488E0,-1.064925671E1,6.604190469E-1
7.773065430E0,-9.433703423E-1,-1.052901745E1,6.023930907E-1
7.777842201E0,-9.284151793E-1,-1.061037350E1,6.167500615E-1
7.782618972E0,-7.381857634E-1,-1.064865875E1,6.203392744E-1
7.787395743E0,-7.010970116E-1,-1.030169964E1,7.208378315E-1
7.792172514E0,-4.815555513E-1,-1.010847950E1,9.164510965E-1
7.796949284E0,6.819544733E-2,-1.040638542E1,1.125224829E0
7.801726107E0,-1.196411322E-3,-1.056550884E1,1.499701619E0
7.806502878E0,-5.862415582E-2,-1.064267731E1,1.413560033E0
7.811279649E0,-1.501496136E-1,-1.046441174E1,1.217348576E0
7.816056420E0,-3.050848842E-1,-1.014138031E1,9.637092948E-1
7.820833191E0,1.884347796E-1,-1.033340454E1,6.107679605E-1
7.825609961E0,3.900300860E-1,-1.059781170E1,7.585247755E-1
7.830386732E0,3.385843933E-1,-1.078086281E1,8.219345808E-1
7.835163503E0,3.762713671E-1,-1.088674450E1,7.489534616E-1
7.839940274E0,3.332005441E-1,-1.088195896E1,7.010970116E-1
7.844717045E0,1.477568001E-1,-1.084367371E1,6.544370055E-1
7.849493816E0,9.032905847E-2,-1.088255692E1,6.017948985E-1
7.854270586E0,1.082752272E-1,-1.069950676E1,5.443671346E-1
7.859047357E0,3.050848842E-2,-1.037707329E1,4.193421602E-1
7.863824128E0,5.353940725E-1,-1.078983593E1,3.116651475E-1
7.868600899E0,5.383850932E-1,-1.092024422E1,7.824530005E-1
7.873377670E0,5.306084156E-1,-1.095852947E1,1.022333503E0
7.878154441E0,4.271188378E-1,-1.081436157E1,1.329811215E0
7.882931211E0,1.860419661E-1,-1.071924686E1,1.570888042E0
7.887707982E0,1.974078640E-2,-1.070010471E1,1.648654819E0
7.892484753E0,-5.204389244E-2,-1.067617607E1,1.634297848E0
7.897261524E0,-5.204389244E-2,-1.077248764E1,1.643869162E0
7.902038295E0,-3.888336942E-2,-1.070967579E1,1.470987678E0
7.906815118E0,-5.605186820E-1,-9.689137459E0,6.669993401E-1
7.911591836E0,-5.264210105E-1,-1.122592735E1,8.027920127E-1
7.916368659E0,4.372883439E-1,-1.240917778E1,1.364507079E0
7.921132097E0,4.965106845E-1,-1.261196995E1,1.628315806E0
7.925922149E0,3.032902777E-1,-1.204367447E1,1.379462242E0
7.930698972E0,1.663011760E-1,-1.133539867E1,1.139581800E0
7.935475743E0,-2.632104978E-2,-1.094536877E1,1.082752228E0
7.940252514E0,-2.727817893E-1,-1.105244732E1,1.156331539E0
7.945029284E0,-1.627119333E-1,-1.109551907E1,1.170090318E0
7.949806055E0,-3.637090325E-1,-1.113918781E1,9.792626500E-1
7.954582826E0,-9.661021233E-1,-1.117926693E1,1.231705427E0
7.959359597E0,-1.046261668E0,-1.121276665E1,1.318445325E0
7.964136368E0,-8.733802438E-1,-1.100518990E1,8.811569214E-1
7.968913139E0,-1.202393413E0,-1.037946606E1,-3.804588020E-1
7.973689909E0,-2.073979139E0,-1.033819008E1,-5.820540786E-1
7.978466680E0,-1.243071318E0,-1.218185997E1,1.353739381E0
7.983243451E0,-4.211367965E-1,-1.303789234E1,1.513460279E0
7.988020222E0,-8.297112584E-1,-1.259522057E1,2.338984162E-1
7.992796993E0,-7.124629617E-1,-1.183849049E1,3.571287692E-1
7.997573764E0,-3.738785386E-1,-1.135095215E1,7.680960894E-1
8.002350534E0,-3.708875179E-2,-1.124387360E1,6.843472719E-1
8.007127305E0,3.032902777E-1,-1.121934700E1,1.071984529E0
8.011904076E0,6.137589812E-1,-1.116072273E1,1.310070395E0
8.016680847E0,9.272187948E-1,-1.096750259E1,1.327418327E0
8.021457618E0,1.057029366E0,-1.051944637E1,9.906286001E-1
8.026234389E0,1.121635556E0,-1.007079220E1,9.852447510E-1
8.031011159E0,1.239482164E0,-9.786046028E0,8.691928387E-1
8.035787930E0,1.543968797E0,-9.905687332E0,7.908278704E-1
8.040564753E0,1.607378602E0,-1.010309505E1,9.828519225E-1
8.045341524E0,1.536790371E0,-1.013719273E1,1.074377418E0
8.050118295E0,1.237687469E0,-1.007497978E1,1.147358418E0
8.054895066E0,9.439685345E-1,-1.003729248E1,1.441675663E0
8.059671836E0,7.561319470E-1,-9.994820595E0,1.859821439E0
8.064448607E0,7.214360237E-1,-1.002353382E1,1.654038668E0
8.069225378E0,7.501499057E-1,-1.047218800E1,1.418943882E0
8.074002149E0,7.788637877E-1,-1.082812023E1,1.299302697E0
8.078778920E0,7.334001660E-1,-1.117508030E1,1.424327731E0
8.083555691E0,7.453642488E-1,-1.151306629E1,1.683350682E0
8.088332461E0,6.412764788E-1,-1.180199909E1,1.612164259E0
8.093109232E0,4.839483798E-1,-1.193240833E1,1.493121386E0
8.097886003E0,3.080759048E-1,-1.182652569E1,1.479960799E0
8.102662774E0,2.273181528E-1,-1.162971592E1,1.595414519E0
8.107439545E0,2.685943544E-1,-1.147537899E1,1.436291814E0
8.112216316E0,3.206382394E-1,-1.143171024E1,1.469791293E0
8.116993086E0,3.774677813E-1,-1.133958626E1,1.484148264E0
8.121769857E0,3.732803464E-1,-1.123849010E1,1.618146300E0
8.126546628E0,3.966103494E-1,-1.113260746E1,1.569691658E0
8.131323399E0,6.005984545E-1,-1.105962658E1,1.583450437E0
8.136100170E0,5.706881881E-1,-1.111286640E1,2.106880426E0
8.140876941E0,6.185446382E-1,-1.105543900E1,2.121237278E0
8.145653711E0,5.778666735E-1,-1.094955635E1,2.581855536E0
8.150430482E0,8.009973764E-1,-1.062592697E1,1.904088616E0
8.155207305E0,8.955138922E-1,-1.061157036E1,1.811366796E0
8.159984076E0,1.066600680E0,-1.062054348E1,1.810768485E0
8.164760847E0,1.057029366E0,-1.061097240E1,1.805982947E0
8.169537618E0,1.033101201E0,-1.060080242E1,9.667003751E-1
8.174314389E0,8.997012973E-1,-1.079940701E1,1.653440475E0
8.179091159E0,8.775677085E-1,-1.090050316E1,1.778465390E0
8.183867930E0,4.624129832E-1,-1.070847988E1,9.457631707E-1
8.188644701E0,1.956132501E-1,-1.027478027E1,2.171486616E-1
8.193408139E0,6.065805554E-1,-9.497711182E0,-1.359123230E0
8.198198243E0,-4.055834413E-1,-1.034895802E1,2.871387079E-2
8.202975014E0,-5.371887088E-1,-1.032084274E1,9.936196208E-1
8.207738503E0,-5.623133183E-1,-1.122233772E1,3.480360508E0
8.212528555E0,-8.231309652E-1,-1.177807140E1,4.830510616E0
8.217305326E0,-1.066600680E0,-1.113200951E1,3.501895905E0
8.222082097E0,-1.214357495E0,-1.075155067E1,2.178066730E0
8.226858868E0,-1.543968797E0,-1.076650524E1,1.930409670E0
8.231635639E0,-1.884945989E0,-1.146760273E1,4.902893543E0
8.236399128E0,-1.897508383E0,-1.177627659E1,5.800800323E0
8.241189180E0,-2.067996979E0,-1.213819122E1,7.236494064E0
8.245965951E0,-1.747358680E0,-1.207478142E1,6.078367710E0
8.250742722E0,-1.419542074E0,-1.200060368E1,4.512265205E0
8.255519493E0,-9.738788009E-1,-1.164826107E1,4.385445595E0
8.260296316E0,-1.094716340E-1,-1.129292679E1,2.091326952E0
8.265059753E0,3.391826153E-1,-1.118046379E1,7.399803996E-1
8.269849857E0,8.093722463E-1,-1.106800079E1,-7.776673883E-2
8.274626628E0,1.195813060E0,-1.099980545E1,4.965107143E-2
8.279390066E0,1.816152334E0,-1.071386337E1,-9.858429432E-1
8.284180170E0,2.201995134E0,-1.042851925E1,-1.511665702E0
8.288956941E0,2.218744755E0,-1.026461124E1,-1.055234790E0
8.293720378E0,1.981855392E0,-1.004387283E1,-8.195417523E-1
8.298510482E0,1.451845169E0,-1.009352398E1,-3.314059377E-1
8.303287253E0,8.542376757E-1,-1.044287586E1,2.143370867E0
8.308050691E0,7.926225066E-1,-1.032861900E1,3.813561201E0
8.312840795E0,4.833501875E-1,-1.107518005E1,3.388834953E0
8.317617566E0,-8.404789567E-1,-1.070728302E1,2.617748022E0
8.322381003E0,-1.333998680E0,-9.393025398E0,2.009970903E0
8.327171107E0,-8.877372146E-1,-8.698508263E0,2.947359324E0
8.331947878E0,-1.842473447E-1,-8.572287560E0,3.672982693E0
8.336711368E0,6.927221417E-1,-8.666205406E0,3.908675671E0
8.341501420E0,1.757528186E0,-8.851051331E0,2.837887764E0
8.346278191E0,3.814159393E0,-9.028717995E0,2.151147604E0
8.351041680E0,5.584847927E0,-8.745168686E0,1.694716692E0
8.355831732E0,6.156732559E0,-8.262416840E0,2.070987940E0
8.360608503E0,6.166902065E0,-7.958528042E0,2.382653236E0
8.365371993E0,6.284150600E0,-8.040482521E0,2.880958557E0
8.370162045E0,6.220740795E0,-8.200202942E0,3.284747362E0
8.374938868E0,5.996413708E0,-8.258827209E0,3.875774384E0
8.379702305E0,5.741578102E0,-8.206185341E0,3.474378586E0
8.384492409E0,5.483751297E0,-8.307880402E0,3.375076294E0
8.389269180E0,5.152345181E0,-8.496315002E0,3.448655605E0
8.394045951E0,4.758726120E0,-8.656634331E0,3.522833109E0
8.398822722E0,4.359723091E0,-8.868997574E0,3.582653761E0
8.403599493E0,4.004388809E0,-9.256035805E0,3.642474174E0
8.408376264E0,3.711267948E0,-9.617950439E0,3.754338741E0
8.413153034E0,3.442075491E0,-9.777671814E0,3.962514400E0
8.417929805E0,3.327818155E0,-9.715457916E0,4.068396568E0
8.422693243E0,3.078366280E0,-1.040997505E1,4.089334011E0
8.427483347E0,2.858226538E0,-1.098365402E1,4.340580463E0
8.432260118E0,2.691925526E0,-1.103210926E1,4.341776848E0
8.437036889E0,2.615953445E0,-1.097946644E1,4.385445595E0
8.441813659E0,2.373081923E0,-1.111944675E1,4.281357765E0
8.446590430E0,2.106880426E0,-1.141854954E1,4.182055950E0
8.451353920E0,1.898704767E0,-1.158365440E1,4.250251293E0
8.456143972E0,1.656431437E0,-1.157946682E1,4.333401680E0
8.460920743E0,1.319043517E0,-1.144068336E1,4.440480709E0
8.465684232E0,9.571290612E-1,-1.173021507E1,4.303491592E0
8.470474284E0,6.173482537E-1,-1.240977669E1,4.396811485E0
8.475251055E0,3.397808075E-1,-1.277767277E1,4.662415028E0
8.480014545E0,1.507478207E-1,-1.284527016E1,4.807180882E0
8.484804649E0,-8.554340899E-2,-1.301934814E1,5.048257351E0
8.489581420E0,-3.014956415E-1,-1.322692490E1,5.400002480E0
8.494344857E0,-3.906283081E-1,-1.311685562E1,5.683551788E0
8.499134961E0,-4.558327198E-1,-1.290509033E1,5.981458187E0
8.503911732E0,-4.450650215E-1,-1.271246815E1,6.311667919E0
8.508675170E0,-3.726821244E-1,-1.249053383E1,6.647859573E0
8.513465274E0,-2.093719840E-1,-1.229312611E1,6.987640381E0
8.518242045E0,3.948157281E-2,-1.217169094E1,7.192226887E0
8.523005482E0,1.812563092E-1,-1.196949673E1,7.196413994E0
8.527795586E0,4.390829504E-1,-1.181934738E1,7.472784996E0
8.532572357E0,9.984052777E-1,-1.187617683E1,7.883154392E0
8.537335795E0,1.408176184E0,-1.180319595E1,7.934001446E0
8.542125899E0,1.526022673E0,-1.168235874E1,7.841877937E0
8.546902670E0,1.329213023E0,-1.142273712E1,7.718049526E0
8.551679441E0,9.798609018E-1,-1.104227829E1,7.609176159E0
8.556456211E0,6.741777658E-1,-1.076889801E1,7.514659405E0
8.561232982E0,4.923232496E-1,-1.073061275E1,7.366304398E0
8.566009753E0,3.684946895E-1,-1.106800079E1,7.165905476E0
8.570786524E0,2.877369225E-1,-1.146820068E1,6.974479675E0
8.575563295E0,2.261217386E-1,-1.156929779E1,6.908079147E0
8.580340066E0,8.255238086E-2,-1.146401310E1,6.850651264E0
8.585116889E0,-1.944168359E-1,-1.131924725E1,6.828517437E0
8.589893659E0,-3.086741269E-1,-1.118465137E1,6.857829571E0
8.594670430E0,-8.614161611E-2,-1.099681473E1,6.817749977E0
8.599447201E0,1.698904037E-1,-1.074556828E1,6.754340172E0
8.604223972E0,3.625126183E-1,-1.044167995E1,6.527620316E0
8.609000743E0,3.924229145E-1,-1.009412193E1,6.138188362E0
8.613777514E0,1.752742529E-1,-9.801001549E0,5.817550182E0
8.618554284E0,8.793623000E-2,-9.613164902E0,5.572884083E0
8.623331055E0,2.584248483E-1,-9.617352486E0,5.519643784E0
8.628107826E0,5.294120312E-1,-9.698708534E0,5.383851051E0
8.632884597E0,5.078766346E-1,-9.452845573E0,5.100301266E0
8.637648034E0,1.902294010E-1,-8.923434258E0,4.761118889E0
8.642438139E0,-2.327020019E-1,-8.404191017E0,4.441677094E0
8.647214909E0,-4.253242314E-1,-8.096115112E0,4.216751575E0
8.651978399E0,-5.030909777E-1,-7.941778183E0,3.972085476E0
8.656768451E0,-5.383850932E-1,-7.758727551E0,3.794418573E0
8.661545222E0,-4.869394004E-1,-7.397411346E0,3.803391695E0
8.666308711E0,-4.450650215E-1,-6.915257454E0,3.913461447E0
8.671098764E0,-3.176472187E-1,-6.418746948E0,3.984049797E0
8.675875534E0,-2.195414752E-1,-6.023931026E0,3.902095556E0
8.680639024E0,-1.310070455E-1,-5.782256126E0,3.747758389E0
8.685429128E0,-1.854437590E-2,-5.594419479E0,3.593421459E0
8.690205899E0,2.333002165E-2,-5.440082073E0,3.463610888E0
8.694969336E0,1.082752272E-1,-5.377270699E0,3.343371391E0
8.699759441E0,2.548356056E-1,-5.280361176E0,3.299104214E0
8.704536211E0,5.353940725E-1,-5.159523964E0,3.293122053E0
8.709299649E0,9.523434043E-1,-4.936991215E0,3.209373474E0
8.714089753E0,1.145563841E0,-4.473381996E0,3.035295486E0
8.718866524E0,1.022333503E0,-3.813561201E0,2.780459881E0
8.723629961E0,6.705885530E-1,-3.125624657E0,2.450848579E0
8.728420066E0,3.164508045E-1,-2.745764017E0,2.203191519E0
8.733196836E0,1.537388563E-1,-2.659622431E0,2.093719721E0
8.737960326E0,1.441675574E-1,-2.688336134E0,2.093719721E0
8.742750378E0,-8.374879137E-3,-2.592623234E0,2.151745796E0
8.747527149E0,-2.991028363E-3,-2.327019930E0,2.472982168E0
8.752290639E0,1.034895778E-1,-1.903490424E0,2.884547710E0
8.757080691E0,3.708875179E-2,-1.518245935E0,3.105883837E0
8.761857461E0,4.666004330E-2,-1.176072359E0,3.292523861E0
8.766620951E0,2.422732860E-1,-9.056833982E-1,3.507279873E0
8.771411003E0,4.516452849E-1,-7.561319470E-1,3.678964853E0
8.776187826E0,5.198407173E-1,-7.028916478E-1,3.899104595E0
8.780951264E0,5.443671346E-1,-6.161518097E-1,4.071387768E0
8.785741316E0,4.923232496E-1,-5.012963414E-1,4.240081787E0
8.790518139E0,3.882354796E-1,-4.725824594E-1,4.322634220E0
8.795294909E0,3.080759048E-1,-5.449653864E-1,4.409373760E0
8.800071680E0,3.481557071E-1,-7.280163169E-1,4.600799561E0
8.804848451E0,4.115654826E-1,-9.445667267E-1,4.764110088E0
8.809625222E0,4.175475538E-1,-1.074377418E0,4.926821709E0
8.814401993E0,3.906283081E-1,-1.137188911E0,5.104488850E0
8.819178764E0,3.816552162E-1,-1.122832060E0,5.258825779E0
8.823955534E0,4.636093974E-1,-1.094118118E0,5.402395248E0
8.828732305E0,1.996212244E0,-1.100100160E0,6.373282909E0
8.833509076E0,6.631109715E0,-1.390229940E0,1.025085258E1
8.838272566E0,1.346022511E1,-2.102692842E0,1.568674660E1
8.843062618E0,1.413619804E1,-2.206182480E0,1.334656620E1
8.847839389E0,1.187438202E1,-2.104487419E0,1.074197865E1
8.852602878E0,1.295055389E1,-2.106880426E0,1.082752228E1
8.857392930E0,1.488694572E1,-1.991426587E0,1.085085201E1
8.862169701E0,1.309232903E1,-1.716252089E0,1.011685371E1
8.866946472E0,8.621339798E0,-1.158126116E0,9.837491989E0
8.871723243E0,4.984249592E0,-9.888339639E-1,1.031186962E1
8.876500066E0,2.496312141E0,-1.024128079E0,1.035374355E1
8.881263503E0,6.921239495E-1,-1.249651670E0,1.010429192E1
8.886053607E0,-8.721838593E-1,-1.480558991E0,1.006421185E1
8.890830378E0,-2.220539331E0,-1.545763373E0,9.764511108E0
8.895593816E0,-3.037090063E0,-1.514058471E0,9.317052841E0
8.900383920E0,-3.001197815E0,-1.253240824E0,9.024530411E0
8.905160691E0,-1.819143414E0,-8.937192559E-1,8.825926781E0
8.909924128E0,1.441675574E-1,-3.978067636E-1,8.834898949E0
8.914714232E0,2.600998163E0,-7.836493850E-2,8.538188934E0
8.919491003E0,4.572684288E0,-2.763710022E-1,8.676973343E0
8.924254493E0,4.852046013E0,-4.929214716E-1,9.141180992E0
8.929044545E0,4.241876125E0,-5.084748268E-1,9.019744873E0
8.933821316E0,3.361915827E0,-4.917250574E-1,9.134600639E0
8.938598086E0,2.220539331E0,-7.010970116E-1,9.097511292E0
8.943374857E0,1.901097536E0,-1.367498159E0,9.392427444E0
8.948151628E0,1.475773335E0,-1.661815286E0,8.881559372E0
8.952928399E0,1.658824325E0,-1.551147223E0,9.249456406E0
8.957705170E0,1.831107497E0,-1.531406522E0,9.431310654E0
8.962481941E0,1.836491346E0,-1.329213023E0,9.708877563E0
8.967258711E0,2.131406784E0,-1.077368379E0,9.837491989E0
8.972035534E0,2.261217356E0,-9.571290612E-1,1.008634567E1
8.976812305E0,2.026720762E0,-1.155135155E0,1.059123135E1
8.981575743E0,2.149951220E0,-1.642672777E0,1.254437256E1
8.986365847E0,1.825723648E0,-1.652842283E0,1.246899891E1
8.991142618E0,1.150947690E0,-1.109671474E0,1.121515942E1
8.995919389E0,7.591229677E-1,-8.356932998E-1,1.042492962E1
9.000696159E0,2.099701911E-1,-1.053440213E0,1.064865875E1
9.005472930E0,-1.812563092E-1,-6.598208547E-1,1.077966595E1
9.010236368E0,6.699903309E-2,9.272187948E-2,1.046620655E1
9.015026472E0,9.487541914E-1,7.016952634E-1,1.031246758E1
9.019803243E0,1.656431437E0,1.079761267E0,1.026999474E1
9.024566732E0,1.588834286E0,1.344168067E0,1.025563812E1
9.029356784E0,1.445863128E0,1.286142230E0,1.019402313E1
9.034133555E0,1.399203062E0,8.763712645E-1,1.006540871E1
9.038910326E0,1.789831281E0,4.630111754E-1,1.000139999E1
9.043687097E0,2.575275421E0,2.243271172E-1,9.872786522E0
9.048463868E0,3.041277647E0,3.768695518E-2,9.774680138E0
9.053227357E0,3.322434187E0,-2.506481707E-1,8.937790871E0
9.058017461E0,4.534399033E0,-1.938186288E-1,7.890332699E0
9.062794232E0,2.307877541E0,-6.191428304E-1,8.463413239E0
9.067557670E0,1.773679733E0,-5.282155871E-1,7.626523972E0
9.072347774E0,2.305484533E0,-2.913261652E-1,7.518248558E0
9.077124545E0,2.775674343E0,-2.273181528E-1,7.395018578E0
9.081887982E0,4.161118507E0,7.776673418E-3,6.941578388E0
9.086678086E0,4.519443989E0,8.075776696E-2,7.189235687E0
9.091454857E0,3.062214851E0,2.931207791E-2,7.038487911E0
9.096231628E0,3.290729284E0,1.310070455E-1,7.133004189E0
9.101008399E0,2.156531334E0,7.477571070E-2,7.537989616E0
9.105785170E0,1.750947952E0,2.087737769E-1,7.395616531E0
9.110561941E0,1.729412556E0,3.822534084E-1,7.832306862E0
9.115338711E0,1.188634634E0,5.922235847E-1,8.170890808E0
9.120115482E0,1.198205948E0,9.493523836E-1,8.352746010E0
9.124892253E0,1.892124534E0,1.331007600E0,8.564510345E0
9.129669024E0,2.074577332E0,1.529013634E0,8.880961418E0
9.134445795E0,1.332802176E0,1.599601984E0,8.932407379E0
9.139222566E0,1.093519926E0,1.670788407E0,8.847461700E0
9.143999336E0,9.559326172E-1,1.709073544E0,8.958727837E0
9.148776107E0,9.182456732E-1,1.728216171E0,9.030512810E0
9.153552930E0,9.672985673E-1,1.771885157E0,9.231510162E0
9.158329701E0,9.918249846E-1,1.805384636E0,9.442676544E0
9.163106472E0,1.183848977E0,1.897508383E0,9.671789169E0
9.167883243E0,1.095314622E0,1.887338877E0,1.002772141E1
9.172660014E0,1.154536963E0,1.935195327E0,1.028674412E1
9.177436784E0,9.278169870E-1,1.983051777E0,1.066660500E1
9.182200222E0,7.280163169E-1,2.074577332E0,1.072044373E1
9.186990326E0,5.282155871E-1,2.170290232E0,1.072104168E1
9.191767097E0,1.992024779E-1,2.275574446E0,1.065105152E1
9.196543868E0,-1.016949639E-1,2.404786825E0,1.062353420E1
9.201320639E0,-2.219343036E-1,2.577668190E0,1.052841949E1
9.206097409E0,-4.133601189E-1,2.765504837E0,1.036570740E1
9.210874180E0,-3.631108403E-1,2.967698336E0,1.020718288E1
9.215650951E0,-4.839483798E-1,3.107080221E0,9.939187050E0
9.220427722E0,-5.335994363E-1,3.232703447E0,9.665208817E0
9.225204493E0,-6.257231236E-1,3.319443226E0,9.378069878E0
9.229981264E0,-6.705885530E-1,3.430111170E0,9.080761909E0
9.234758086E0,-1.413560033E0,3.803989887E0,9.190233231E0
9.239521524E0,-2.584846735E0,4.341178417E0,9.339784622E0
9.244311628E0,-3.154338360E0,4.975276470E0,9.107083321E0
9.249088399E0,-3.276372433E0,5.544169903E0,8.901300430E0
9.253851836E0,-3.001796007E0,5.944369793E0,8.861220360E0
9.258641941E0,-2.461018085E0,6.157330990E0,8.814560890E0
9.263418711E0,-2.080559254E0,6.148955822E0,8.683553696E0
9.268182149E0,-2.123630047E0,5.994618893E0,8.529814720E0
9.272972253E0,-2.018345833E0,5.672185898E0,8.462217331E0
9.277749024E0,-2.179861546E0,5.551946640E0,8.410173416E0
9.282525795E0,-2.319243431E0,5.676373482E0,8.324629784E0
9.287302566E0,-2.371885538E0,5.801398277E0,8.420941353E0
9.292079336E0,-1.928016901E0,5.860620975E0,8.562117577E0
9.296856107E0,-1.707877159E0,5.798407555E0,8.739186287E0
9.301632878E0,-1.555932879E0,5.654240131E0,8.671588898E0
9.306409649E0,-1.170688510E0,5.389832973E0,8.539385796E0
9.311186420E0,-6.945167780E-1,4.996213913E0,8.326424599E0
9.315963191E0,-3.242274821E-1,4.616951466E0,8.079963684E0
9.320740014E0,-9.571290761E-2,4.314259052E0,7.896913052E0
9.325503451E0,2.871387079E-2,4.068396568E0,7.800003529E0
9.330293503E0,9.631111473E-2,3.894917011E0,7.886145115E0
9.335070326E0,1.262213886E-1,3.774677753E0,8.049455643E0
9.339847097E0,8.015955985E-2,3.687937975E0,8.274978638E0
9.344623868E0,-4.247260094E-2,3.649054527E0,8.472386360E0
9.349400639E0,-1.513460279E-1,3.681955814E0,8.646464348E0
9.354177409E0,-2.985046208E-1,3.797409534E0,8.733204842E0
9.358954180E0,-4.462614357E-1,3.927220106E0,8.709874153E0
9.363730951E0,-6.035895348E-1,4.013361931E0,8.700901031E0
9.368507722E0,-6.275177598E-1,4.061218262E0,8.662615776E0
9.373284493E0,-6.813562512E-1,4.133601189E0,8.523234367E0
9.378061264E0,-6.394818425E-1,4.162913322E0,8.364709854E0
9.382838034E0,-7.399803996E-1,4.210769653E0,8.226524353E0
9.387614805E0,-7.603194118E-1,4.263411522E0,8.082356453E0
9.392391576E0,-8.135597110E-1,4.322035789E0,7.996214867E0
9.397168347E0,-8.805587292E-1,4.389034748E0,7.963313580E0
9.401945170E0,-8.991031051E-1,4.427918434E0,8.006384850E0
9.406721941E0,-8.512466550E-1,4.519443989E0,8.121239662E0
9.411498711E0,-2.667997181E-1,4.670191765E0,8.170890808E0
9.416275482E0,9.918249846E-1,4.768895626E0,8.644669533E0
9.421052253E0,-1.022333503E0,4.421936035E0,8.909076691E0
9.425815691E0,-2.085345030E0,4.221537113E0,8.396414757E0
9.430605795E0,-1.464407444E0,4.242474556E0,8.095517159E0
9.435382566E0,-6.765705943E-1,4.413561344E0,7.870592117E0
9.440159336E0,3.649054468E-2,4.603192329E0,7.790432453E0
9.444936107E0,7.986045480E-1,4.667798996E0,8.078767776E0
9.449712878E0,-1.172483116E-1,4.414757729E0,8.304290771E0
9.454489649E0,-1.240080357E0,4.214358807E0,8.281558990E0
9.459266420E0,-1.501496196E0,4.252045631E0,8.321041107E0
9.464043191E0,-1.067198873E0,4.427320004E0,8.496315002E0
9.468819961E0,-9.302098155E-1,4.572085857E0,8.462217331E0
9.473596732E0,-1.030708313E0,4.610371113E0,8.347361565E0
9.478373503E0,-1.260419369E0,4.624129772E0,8.204988480E0
9.483150274E0,-1.555932879E0,4.599603176E0,8.115258217E0
9.487927097E0,-1.456032634E0,4.671986103E0,8.129016876E0
9.492703816E0,-1.274776220E0,4.850251675E0,8.315058708E0
9.497480639E0,-1.393221021E0,5.057230473E0,8.540582657E0
9.502257409E0,-1.615753531E0,5.148158073E0,8.739186287E0
9.507034180E0,-1.771885157E0,5.215157032E0,8.869595528E0
9.511810951E0,-1.852642894E0,5.228915691E0,8.898907661E0
9.516587722E0,-1.829312921E0,5.239085197E0,8.816953659E0
9.521364493E0,-1.759322882E0,5.239085197E0,8.668000221E0
9.526141264E0,-1.721635938E0,5.200799942E0,8.508877754E0
9.530918034E0,-1.688734531E0,5.123631477E0,8.402995110E0
9.535694805E0,-1.599601984E0,5.027918816E0,8.234899521E0
9.540471576E0,-1.470987678E0,4.888536453E0,8.143373489E0
9.545248347E0,-1.261615753E0,4.768895626E0,8.075178146E0
9.550025118E0,-1.123430252E0,4.634299278E0,8.065009117E0
9.554801889E0,-1.037288666E0,4.518845558E0,8.054839134E0
9.559578659E0,-9.505487680E-1,4.446462631E0,8.140980721E0
9.564355430E0,-8.685946465E-1,4.412963390E0,8.356334686E0
9.569132201E0,-8.919246197E-1,4.446462631E0,8.432905197E0
9.573909024E0,-9.726824164E-1,4.470390797E0,8.414361000E0
9.578685795E0,-1.068395257E0,4.484747887E0,8.405387878E0
9.583462566E0,-1.096511006E0,4.484747887E0,8.443673134E0
9.588239336E0,-1.043868899E0,4.479962349E0,8.529814720E0
9.593016107E0,-1.048056364E0,4.499104977E0,8.606385231E0
9.597792878E0,-1.089930773E0,4.523033142E0,8.751151085E0
9.602569649E0,-1.171286702E0,4.580460548E0,8.785248756E0
9.607346420E0,-1.252642632E0,4.657629490E0,8.790632248E0
9.612123191E0,-1.361516118E0,4.729413986E0,8.867800713E0
9.616899961E0,-1.465603828E0,4.786841869E0,8.997611046E0
9.621676732E0,-1.549950838E0,4.849055290E0,9.180064201E0
9.626453503E0,-1.550549030E0,4.931009293E0,9.194420815E0
9.631230274E0,-1.513460279E0,4.979464054E0,9.055039406E0
9.636007045E0,-1.471585870E0,4.945964336E0,8.877371788E0
9.640783816E0,-1.424925923E0,4.859224796E0,8.719446182E0
9.645560586E0,-1.363310695E0,4.758127689E0,8.632705688E0
9.650337409E0,-1.295713425E0,4.652843475E0,8.666205406E0
9.655114180E0,-1.238285661E0,4.624129772E0,8.713463783E0
9.659890951E0,-1.186241865E0,4.619344234E0,8.737391472E0
9.664667722E0,-1.196411371E0,4.628915310E0,8.563912392E0
9.669444493E0,-1.274178028E0,4.648057938E0,8.362915039E0
9.674221264E0,-1.361516118E0,4.691128731E0,8.023134232E0
9.678998034E0,-1.669592023E0,4.778466702E0,5.883950710E0
9.683761472E0,-1.637288928E0,5.019543648E0,4.338785648E0
9.688551576E0,-1.201196909E0,5.024329185E0,6.491129398E0
9.693328347E0,-1.441675663E0,4.864608288E0,8.248658180E0
9.698091784E0,-1.765903115E0,4.800600529E0,9.675378799E0
9.702881889E0,-1.808973908E0,4.852644444E0,1.043390274E1
9.707658659E0,-1.800000787E0,4.872385025E0,1.032383347E1
9.712422149E0,-1.739582062E0,4.800002098E0,1.011266708E1
9.717212201E0,-1.650449395E0,4.665405750E0,9.843474388E0
9.721988972E0,-1.718644857E0,4.607978344E0,9.507282257E0
9.726765743E0,-1.868794441E0,4.665405750E0,9.100502968E0
9.731542566E0,-1.728814363E0,4.689932346E0,8.672785759E0
9.736319336E0,-1.435693622E0,4.609174728E0,8.306085587E0
9.741096107E0,-1.293918848E0,4.537389755E0,8.133204460E0
9.745872878E0,-1.232303619E0,4.503890514E0,8.103892326E0
9.750649649E0,-1.179661512E0,4.450650215E0,8.137392044E0
