"Time (s)","Acceleration x (m/s^2)","Acceleration y (m/s^2)","Acceleration z (m/s^2)"
5.565306000E-3,2.638086975E-1,4.603192329E0,8.430512428E0
1.032884800E-2,5.563312769E-1,4.570291042E0,8.837292671E0
1.511900400E-2,7.543373108E-1,4.579862595E0,9.162117958E0
1.989582700E-2,8.554341197E-1,4.590032101E0,9.372686386E0
2.465936800E-2,8.225327730E-1,4.613960266E0,9.464211464E0
2.944952500E-2,6.646065116E-1,4.622933388E0,9.474381447E0
3.422640000E-2,4.504488707E-1,4.607978344E0,9.432506561E0
3.900322300E-2,1.884347796E-1,4.559523582E0,9.333204269E0
4.378004500E-2,-1.399801224E-1,4.520041943E0,9.171689034E0
4.855692000E-2,-4.839483798E-1,4.456632137E0,8.977272034E0
5.333374300E-2,-8.751748800E-1,4.306482315E0,8.767302513E0
5.811056600E-2,-1.218544960E0,4.315455437E0,8.534002304E0
6.288744100E-2,-1.467398524E0,4.281357765E0,8.324629784E0
6.766426400E-2,-1.634896040E0,4.275974274E0,8.200801849E0
7.244113900E-2,-1.744965911E0,4.299902439E0,8.114660263E0
7.721796200E-2,-1.835893154E0,4.323830605E0,8.009973526E0
8.199478500E-2,-1.893919110E0,4.314259052E0,7.880761147E0
8.677166000E-2,-1.889731646E0,4.352544308E0,7.750950813E0
9.154848300E-2,-1.876571178E0,4.391427994E0,7.611568928E0
9.632530600E-2,-1.849053741E0,4.420141697E0,7.467401028E0
1.011021810E-1,-1.788036704E0,4.415954113E0,7.356733322E0
1.058790040E-1,-1.683350682E0,4.377668858E0,7.284350395E0
1.106558790E-1,-1.482951880E0,4.291527271E0,7.287939548E0
1.154327020E-1,-1.205982566E0,4.209573269E0,7.420741081E0
1.202095250E-1,-8.380861282E-1,4.113860130E0,7.707281590E0
1.249864000E-1,-4.600201547E-1,4.076173306E0,8.045866013E0
1.297632230E-1,-1.818545163E-1,4.071985722E0,8.318049431E0
1.345400980E-1,6.161518395E-2,4.082155228E0,8.499305725E0
1.393169200E-1,2.051845491E-1,4.154538155E0,8.661419868E0
1.440937950E-1,2.249253243E-1,4.202394962E0,8.839086533E0
1.488706180E-1,1.453639716E-1,4.270590305E0,9.046066284E0
1.536474410E-1,-8.733802289E-2,4.317848682E0,9.200403214E0
1.584243160E-1,-3.870390654E-1,4.369892120E0,9.245268822E0
1.632011390E-1,-7.064808607E-1,4.441677094E0,9.189037323E0
1.679779620E-1,-1.030708313E0,4.508078098E0,9.052047729E0
1.727548370E-1,-1.336391449E0,4.579862595E0,8.866005898E0
1.775316600E-1,-1.628315806E0,4.651647091E0,8.660821915E0
1.823084830E-1,-1.801795483E0,4.622334957E0,8.344968796E0
1.870853580E-1,-2.003988981E0,4.616951466E0,7.895716667E0
1.918621810E-1,-2.243271112E0,4.718048096E0,7.689933777E0
1.966390560E-1,-2.320439816E0,4.785047054E0,7.555935860E0
2.014158790E-1,-2.274377823E0,4.847858906E0,7.344769001E0
2.061927020E-1,-2.194816589E0,4.853242397E0,7.104290485E0
2.109695770E-1,-2.024926186E0,4.863411903E0,6.945167542E0
2.157464000E-1,-1.758126378E0,4.887938499E0,6.996613503E0
2.205232230E-1,-1.418345571E0,4.893322468E0,7.277770042E0
2.253000980E-1,-1.134796143E0,4.855037212E0,7.775477409E0
2.300769200E-1,-8.650053740E-1,4.759324074E0,8.321041107E0
2.348537950E-1,-6.095715761E-1,4.663611412E0,8.799605370E0
2.396306180E-1,-4.121637046E-1,4.567300320E0,9.197412491E0
2.444074410E-1,-3.332005441E-1,4.475774765E0,9.527621269E0
2.491843160E-1,-3.499503136E-1,4.389034748E0,9.839884758E0
2.539478580E-1,-3.810569942E-1,4.263411522E0,1.017129040E1
2.587380140E-1,-4.313062727E-1,4.152145386E0,1.045962620E1
2.635148370E-1,-4.869394004E-1,4.046263218E0,1.065165043E1
2.682783790E-1,-5.527420044E-1,3.978665829E0,1.076770210E1
2.730685350E-1,-6.520441771E-1,3.930211306E0,1.077308559E1
2.778453580E-1,-7.902296782E-1,3.876971006E0,1.074018478E1
2.826221810E-1,-9.571290612E-1,3.833301783E0,1.066899776E1
2.873990560E-1,-1.113858938E0,3.731606960E0,1.064566803E1
2.921758790E-1,-1.183848977E0,3.630510092E0,1.074197865E1
2.969527540E-1,-1.216152072E0,3.553341627E0,1.092443180E1
3.017295770E-1,-1.210170031E0,3.485744476E0,1.105424213E1
3.065064000E-1,-1.195214868E0,3.408575773E0,1.109791183E1
3.112832750E-1,-1.229312658E0,3.379862070E0,1.098724365E1
3.160600980E-1,-1.226321578E0,3.331407309E0,1.068993473E1
3.208369730E-1,-1.208973646E0,3.235694408E0,1.032981491E1
3.256137950E-1,-1.149153113E0,3.119642496E0,9.994221687E0
3.303906180E-1,-1.031306505E0,2.980260611E0,9.729216576E0
3.351674930E-1,-8.703892231E-1,2.860619545E0,9.527023315E0
3.399443160E-1,-7.190431952E-1,2.760120869E0,9.358329773E0
3.447211390E-1,-5.814558864E-1,2.663809776E0,9.194420815E0
3.494980140E-1,-5.252245665E-1,2.611167669E0,9.050253868E0
3.542748370E-1,-5.353940725E-1,2.596810818E0,8.911469460E0
3.590517120E-1,-6.508477330E-1,2.557927370E0,8.748159409E0
3.638285350E-1,-1.131805062E0,2.085345030E0,8.353343964E0
3.686053580E-1,-1.318445325E0,2.128415823E0,8.167302132E0
3.733822330E-1,-1.528415442E0,2.252842426E0,8.201399803E0
3.781590560E-1,-1.566700578E0,2.493321180E0,8.307282448E0
3.829359310E-1,-1.479960799E0,2.729612350E0,8.556135178E0
3.877127540E-1,-1.389033556E0,2.903092146E0,8.746963501E0
3.924895770E-1,-1.317248821E0,2.951546669E0,8.804390907E0
3.972664520E-1,-1.284347534E0,2.941975355E0,8.761320114E0
4.020432750E-1,-1.293918848E0,2.864806890E0,8.665008545E0
4.068201500E-1,-1.289133191E0,2.768495798E0,8.684151649E0
4.115969730E-1,-1.255035520E0,2.705684185E0,8.775676727E0
4.163737950E-1,-1.111466169E0,2.696711063E0,8.871390343E0
4.211506700E-1,-9.589236975E-1,2.726023197E0,8.928219795E0
4.259274930E-1,-7.782655358E-1,2.774477959E0,8.950951576E0
4.307043160E-1,-6.023930907E-1,2.851646423E0,9.026923180E0
4.354811910E-1,-4.600201547E-1,2.934198856E0,9.055039406E0
4.402580140E-1,-3.403790295E-1,2.992224693E0,9.083154678E0
4.450348890E-1,-2.644068897E-1,3.006581545E0,9.101698875E0
4.498117120E-1,-2.075773627E-1,3.001796007E0,9.058030128E0
4.545885350E-1,-1.369891018E-1,2.963510752E0,8.923434258E0
4.593654100E-1,-8.554340899E-2,2.968894720E0,8.726025581E0
4.641422330E-1,-8.255238086E-2,3.011965513E0,8.462217331E0
4.689191080E-1,-7.956135273E-2,3.036491871E0,8.160123825E0
4.736959310E-1,-1.004985496E-1,2.973680258E0,7.886743546E0
4.784727540E-1,-1.531406492E-1,2.906681299E0,7.719245911E0
4.832496290E-1,-2.009970993E-1,2.804986238E0,7.618149281E0
4.880264520E-1,-2.679961324E-1,2.752344131E0,7.555935860E0
4.928032750E-1,-1.722832322E-1,2.679961443E0,7.570292473E0
4.975801500E-1,-1.016949583E-2,2.636890650E0,7.627122402E0
5.023569730E-1,1.704886109E-1,2.613560438E0,7.659425259E0
5.071338480E-1,4.654040039E-1,2.566302299E0,7.682157040E0
5.119106700E-1,7.758727670E-1,2.566900492E0,7.733603001E0
5.166874930E-1,1.075573802E0,2.538784742E0,7.789834023E0
5.214643680E-1,1.147956610E0,2.475973129E0,7.947760582E0
5.262411910E-1,9.559326172E-1,2.277967215E0,8.246265411E0
5.310180660E-1,7.058826685E-1,2.089532375E0,8.574081421E0
5.357948890E-1,6.915257573E-1,2.011765718E0,8.550153732E0
5.405717120E-1,9.792626500E-1,2.066202402E0,8.150551796E0
5.453485870E-1,1.115055323E0,2.148754835E0,7.794619560E0
5.501254100E-1,1.009771109E0,2.230110645E0,7.709076405E0
5.549022850E-1,7.094719410E-1,2.335394859E0,7.777271748E0
5.596791080E-1,4.624129832E-1,2.459821701E0,7.889136314E0
5.644559310E-1,4.863412082E-1,2.565704107E0,7.932207108E0
5.692328060E-1,6.000002623E-1,2.648256540E0,7.916653633E0
5.740096290E-1,5.042873621E-1,2.633301258E0,7.783253670E0
5.787865040E-1,-1.740778536E-1,2.540579557E0,7.263412952E0
5.835499930E-1,-8.991031051E-1,2.432902336E0,6.873981476E0
5.883401500E-1,-1.465005636E0,2.379063845E0,6.848258495E0
5.931170250E-1,-1.570888042E0,2.359323025E0,6.809973240E0
5.978938480E-1,-1.313061476E0,2.301895380E0,6.808776855E0
6.026706700E-1,-7.549355626E-1,2.139781713E0,7.040880680E0
6.074475450E-1,-5.682953820E-2,1.909472466E0,7.435696602E0
6.122243680E-1,5.072783828E-1,1.741974831E0,7.807780266E0
6.170012430E-1,8.703892231E-1,1.675574064E0,7.997411251E0
6.217780660E-1,1.045663476E0,1.685743570E0,7.857431412E0
6.265548890E-1,7.686942816E-1,1.434497118E0,7.527820110E0
6.313317640E-1,-6.526423693E-1,2.991028316E-2,7.066005230E0
6.361085870E-1,-1.459621787E-1,7.178467698E-3,6.655636311E0
6.408854620E-1,3.026920557E-1,3.020938635E-1,6.263811588E0
6.456622850E-1,6.532405615E-1,7.698906660E-1,6.290730953E0
6.504391080E-1,1.070189953E0,1.310668588E0,6.278766632E0
6.552159830E-1,1.494915962E0,1.875374794E0,5.973681927E0
6.599928060E-1,1.622931957E0,2.328814745E0,5.429912567E0
6.647696810E-1,1.709073544E0,2.536391973E0,4.863411903E0
6.695331700E-1,1.876571178E0,2.710469961E0,4.219144344E0
6.743233270E-1,2.167299032E0,2.855833769E0,3.560520172E0
6.791002020E-1,2.292922258E0,2.842075109E0,3.166302681E0
6.838637430E-1,2.132004976E0,2.629712105E0,3.152543783E0
6.886538480E-1,1.808973908E0,2.378465652E0,3.139981508E0
6.934307230E-1,1.288534999E0,1.948355794E0,3.345165968E0
6.982075450E-1,9.206385016E-1,1.494317770E0,3.597010612E0
7.029844200E-1,8.961120844E-1,8.679963946E-1,3.957130432E0
7.077612430E-1,1.080359459E0,1.842473447E-1,4.162913322E0
7.125247850E-1,1.165304661E0,-6.011967063E-1,4.412963390E0
7.173149410E-1,1.154536963E0,-1.169492126E0,4.677370071E0
7.220917640E-1,1.223928809E0,-1.396211982E0,5.027320385E0
7.268553060E-1,1.393819213E0,-1.377069473E0,5.665007591E0
7.316454620E-1,1.738983870E0,-1.366301775E0,6.056233883E0
7.364222850E-1,2.329412937E0,-1.263410330E0,6.201598167E0
7.411858270E-1,2.785843849E0,-1.200000525E0,6.208776474E0
7.459759830E-1,3.113660574E0,-1.170090318E0,6.053841114E0
7.507528580E-1,3.516851187E0,-1.140179992E0,5.941378593E0
7.555163480E-1,3.901497364E0,-1.138983607E0,5.862415314E0
7.603065040E-1,4.310071945E0,-1.152742267E0,5.682953835E0
7.650833790E-1,4.708476543E0,-1.151545882E0,5.489135265E0
7.698469200E-1,5.164309502E0,-1.112064362E0,5.414359570E0
7.746370250E-1,5.725426197E0,-9.756734371E-1,5.392225742E0
7.794139000E-1,6.281757832E0,-8.829515576E-1,5.466403484E0
7.841774410E-1,7.380661488E0,-1.086939692E0,5.359324455E0
7.889675980E-1,8.556135178E0,-1.426720500E0,5.147559643E0
7.937444200E-1,8.199007034E0,-1.325623751E0,5.211567879E0
7.985079620E-1,7.941180229E0,-1.085743308E0,5.112265587E0
8.032981180E-1,7.840681553E0,-7.154539824E-1,5.256433010E0
8.080749410E-1,7.869395256E0,-3.445664644E-1,5.413761139E0
8.128384830E-1,7.787441254E0,-2.243271172E-1,5.352146149E0
8.176286390E-1,7.387839794E0,-3.260220885E-1,5.286941528E0
8.224054620E-1,7.040880680E0,-5.676971674E-1,5.236093998E0
8.271823370E-1,7.059424877E0,-8.327022791E-1,5.059025288E0
8.319591600E-1,7.146164894E0,-9.290133715E-1,5.193023205E0
8.367360350E-1,7.261618614E0,-9.427721500E-1,5.383851051E0
8.415128580E-1,7.372884750E0,-9.475577474E-1,5.696114540E0
8.462896810E-1,7.512865067E0,-1.043868899E0,5.910870075E0
8.510665560E-1,7.637889862E0,-1.192822099E0,6.049654007E0
8.558433790E-1,7.587640762E0,-1.381256819E0,6.232106686E0
8.606202540E-1,7.499105930E0,-1.530808330E0,6.434299946E0
8.653970770E-1,7.661818027E0,-1.684547186E0,6.611369133E0
8.701739000E-1,8.067999840E0,-1.871785522E0,6.748956203E0
8.749507750E-1,8.572885513E0,-2.082353830E0,6.851847649E0
8.797275980E-1,9.074181557E0,-2.235494614E0,6.983452797E0
8.844911390E-1,9.574281693E0,-2.286940336E0,7.033702374E0
8.892812950E-1,1.012522888E1,-2.222932339E0,6.930212498E0
8.940581180E-1,1.078923702E1,-2.072184324E0,6.691528320E0
8.988216600E-1,1.153878880E1,-1.896910191E0,6.432505608E0
9.036118160E-1,1.223629665E1,-1.673181176E0,6.189035892E0
9.083886910E-1,1.270469189E1,-1.465005636E0,5.913262844E0
9.131521810E-1,1.285364532E1,-1.353739381E0,5.427519798E0
9.179423370E-1,1.303669643E1,-1.265803218E0,5.051846981E0
9.227192120E-1,1.309053421E1,-1.231705427E0,4.557728767E0
9.274827540E-1,1.309651661E1,-1.188036442E0,4.024727821E0
9.322729100E-1,1.312762356E1,-1.130010486E0,3.592823267E0
9.370497330E-1,1.339621735E1,-1.124626637E0,3.202194929E0
9.418132750E-1,1.431685638E1,-1.223330617E0,2.727817774E0
9.466034310E-1,1.425404453E1,-1.378265858E0,2.531008244E0
9.513802540E-1,1.399681568E1,-1.537388563E0,2.446661234E0
9.561437950E-1,1.327059460E1,-1.712662816E0,2.536391973E0
9.609339520E-1,1.230150127E1,-1.830509305E0,2.709871531E0
9.657107750E-1,1.174995518E1,-1.870589137E0,2.827718258E0
9.704876500E-1,1.131386375E1,-1.943570137E0,2.978466034E0
9.752644730E-1,1.111884880E1,-1.983051777E0,3.013161898E0
9.800413480E-1,1.107577801E1,-2.074577332E0,2.912663460E0
9.848181700E-1,1.113200951E1,-2.286342144E0,2.677568436E0
9.895949930E-1,1.129890823E1,-2.599203587E0,2.557329178E0
9.943718680E-1,1.160578823E1,-2.944966555E0,2.833700180E0
9.991486910E-1,1.201017475E1,-3.257229805E0,3.374478102E0
1.003925514E0,1.246241856E1,-3.516851187E0,4.091726780E0
1.008702389E0,1.305703449E1,-3.694518089E0,4.799404144E0
1.013465931E0,1.367916870E1,-3.794418573E0,5.290530682E0
1.018256087E0,1.425643730E1,-3.763910055E0,5.532804012E0
1.023032910E0,1.474158192E1,-3.733999729E0,5.592624664E0
1.027796452E0,1.515015697E1,-3.708875179E0,5.542375565E0
1.032586608E0,1.543968773E1,-3.645465374E0,5.333601475E0
1.037363431E0,1.565145302E1,-3.533600807E0,5.078765869E0
1.042126973E0,1.590569019E1,-3.383451223E0,4.683950424E0
1.046917129E0,1.611565971E1,-3.373281717E0,4.092324734E0
1.051693952E0,1.581715584E1,-3.865006685E0,3.181855917E0
1.056457493E0,1.553001690E1,-3.899104595E0,2.852842808E0
1.061247650E0,1.524945831E1,-3.842274904E0,3.036491871E0
1.066024525E0,1.522612858E1,-3.630510092E0,3.228515863E0
1.070801348E0,1.547857189E1,-3.254238844E0,3.370888948E0
1.075578170E0,1.573819256E1,-3.007778168E0,3.124428272E0
1.080355045E0,1.614916039E1,-2.852244616E0,2.762513638E0
1.085118587E0,1.674258041E1,-2.793022156E0,2.538784742E0
1.089908743E0,1.756331825E1,-2.925823927E0,2.203191519E0
1.094685566E0,1.825903130E1,-3.159722328E0,2.185843468E0
1.099449108E0,1.877588081E1,-3.418745279E0,2.562114954E0
1.104239264E0,1.917368698E1,-3.601796389E0,2.915056229E0
1.109016087E0,1.940399742E1,-3.702294827E0,3.269193888E0
1.113779629E0,1.937408638E1,-3.659224033E0,3.802195072E0
1.118569785E0,1.896072578E1,-3.313461065E0,4.802394867E0
1.123346608E0,1.803051758E1,-3.157329559E0,5.271986485E0
1.128110150E0,1.719661903E1,-3.293720484E0,5.065605640E0
1.132900306E0,1.656371689E1,-3.686143398E0,4.762315273E0
1.137677181E0,1.597209072E1,-4.211966038E0,4.261018753E0
1.142440670E0,1.529432392E1,-4.868795872E0,3.535993576E0
1.147230827E0,1.462911987E1,-5.091328144E0,2.747558594E0
1.152007702E0,1.358704472E1,-5.065007210E0,2.719442844E0
1.156771243E0,1.213520050E1,-5.049454212E0,2.611765862E0
1.161561400E0,1.067438221E1,-5.149354458E0,2.609971285E0
1.166338223E0,9.416953087E0,-5.359324455E0,2.213959217E0
1.171101764E0,8.704490662E0,-5.750551224E0,2.174477577E0
1.175891920E0,8.190033913E0,-6.291927338E0,2.652443886E0
1.180668743E0,7.759325504E0,-6.857231617E0,3.389433384E0
1.185432285E0,7.335197926E0,-7.311269760E0,3.915256023E0
1.190222441E0,6.926623344E0,-7.659425259E0,4.522434711E0
1.194999264E0,6.623931408E0,-7.881958008E0,4.715655327E0
1.199762806E0,6.559923172E0,-7.944170952E0,4.342374802E0
1.204552962E0,6.613163471E0,-7.808976650E0,3.775275946E0
1.209329785E0,6.651448727E0,-7.524828911E0,3.145963669E0
1.214093327E0,6.492326260E0,-7.852645874E0,4.183252335E0
1.218883483E0,6.575476646E0,-8.543573380E0,7.375277519E0
1.223660358E0,7.286144733E0,-8.233104706E0,6.257829189E0
1.228437181E0,7.824530125E0,-7.691130161E0,5.054837704E0
1.233214056E0,8.135597229E0,-7.093522549E0,4.975874901E0
1.237990879E0,8.286344528E0,-6.726822853E0,5.748157978E0
1.242767702E0,8.504091263E0,-6.432505608E0,5.736792088E0
1.247544577E0,8.770293236E0,-6.431907177E0,5.630311489E0
1.252321400E0,8.906085968E0,-6.055635929E0,4.649852753E0
1.257084941E0,9.270991325E0,-5.244469166E0,3.275176048E0
1.261875098E0,9.132207870E0,-5.495715618E0,4.629513741E0
1.266651920E0,8.212167740E0,-5.763711452E0,6.481558323E0
1.271415462E0,7.469794273E0,-5.717649937E0,6.601199627E0
1.276205618E0,7.387839794E0,-5.659025669E0,4.883152962E0
1.280982441E0,7.822735310E0,-5.620141983E0,5.907878876E0
1.285759316E0,8.178069115E0,-5.233701229E0,5.123033047E0
1.290536139E0,8.912666321E0,-4.960919380E0,3.156133175E0
1.295313014E0,9.208778381E0,-5.100301266E0,3.279961586E0
1.300089837E0,8.955737114E0,-4.937589645E0,4.855037212E0
1.304866712E0,9.009575844E0,-4.224528313E0,5.458626747E0
1.309643535E0,8.824131966E0,-3.733401537E0,4.134797573E0
1.314407077E0,8.755936623E0,-3.893122435E0,5.340181828E0
1.319197233E0,8.864809990E0,-3.758526087E0,6.913462639E0
1.323974056E0,9.312267303E0,-4.100699902E0,9.138189316E0
1.328737598E0,8.270193100E0,-4.102494240E0,8.332406998E0
1.333527754E0,6.463014126E0,-3.748954773E0,4.709074974E0
1.338304577E0,5.518447399E0,-3.437289715E0,3.710669756E0
1.343068118E0,5.526822090E0,-3.118446112E0,2.112264156E0
1.347858275E0,6.046064377E0,-3.401397467E0,2.119442701E0
1.352635098E0,6.235695839E0,-3.874577999E0,4.043272018E0
1.357398639E0,5.830710411E0,-3.987040758E0,6.223731518E0
1.362188795E0,4.984847546E0,-3.854238987E0,5.753541946E0
1.366965670E0,4.995615482E0,-3.724428415E0,6.036493301E0
1.371729160E0,5.732006550E0,-3.622135162E0,7.385447025E0
1.376519316E0,6.282954216E0,-3.349951744E0,6.706483841E0
1.381296191E0,5.795416355E0,-2.912065268E0,4.942375183E0
1.386059733E0,5.362913609E0,-2.560320139E0,1.239482164E0
1.390849889E0,5.218147755E0,-2.100898266E0,-2.662015200E0
1.395626712E0,5.290530682E0,-1.575075507E0,-3.867399693E0
1.400390254E0,5.581857204E0,-1.878365755E0,-3.071786165E0
1.405180410E0,5.253442287E0,-2.419143677E0,-1.030110121E0
1.409957233E0,5.371886730E0,-3.114258766E0,1.642672777E0
1.414720775E0,5.506483078E0,-3.640081406E0,3.129812002E0
1.419510931E0,5.248058319E0,-3.866801500E0,3.563511133E0
1.424287754E0,5.449055195E0,-4.064209461E0,3.605983734E0
1.429064629E0,5.889933109E0,-4.120440483E0,3.406781197E0
1.433841452E0,6.008377552E0,-4.037888050E0,2.575873613E0
1.438618327E0,5.887540340E0,-4.182653904E0,2.236092806E0
1.443395150E0,5.780461311E0,-4.380660057E0,2.481357098E0
1.448171973E0,5.897709846E0,-4.563112736E0,2.864806890E0
1.452948848E0,5.884549141E0,-4.674378872E0,3.018545866E0
1.457725670E0,5.757729530E0,-4.761716843E0,3.235694408E0
1.462502545E0,5.912066460E0,-4.780859470E0,3.546761274E0
1.467279368E0,6.045466423E0,-4.770689964E0,3.613162279E0
1.472056191E0,6.074180126E0,-4.635495663E0,3.679563046E0
1.476833066E0,6.074778557E0,-4.514657974E0,3.838087559E0
1.481609889E0,6.186044693E0,-4.500301361E0,4.163511276E0
1.486386764E0,6.219544411E0,-4.471587181E0,4.230510235E0
1.491163587E0,6.135197163E0,-4.553541660E0,4.433301926E0
1.495940410E0,6.859025955E0,-4.383651257E0,4.606781960E0
1.500717285E0,7.058228493E0,-4.204787731E0,4.562514782E0
1.505494108E0,6.664609432E0,-4.378865242E0,4.674977303E0
1.510270983E0,6.975078106E0,-4.614558697E0,4.759922504E0
1.515047806E0,6.400800705E0,-4.529015064E0,5.041079044E0
1.519824629E0,7.413562775E0,-4.295714855E0,5.885147095E0
1.524601504E0,8.166105270E0,-4.405186653E0,6.754938126E0
1.529378327E0,6.657430649E0,-4.953142643E0,5.544169903E0
1.534155202E0,6.495915413E0,-4.977071285E0,4.771886349E0
1.538932025E0,6.379863262E0,-4.929214478E0,4.503890514E0
1.543708900E0,7.202396393E0,-4.676173687E0,4.638486862E0
1.548485723E0,7.411170006E0,-4.290330887E0,4.723432064E0
1.553262545E0,5.805585861E0,-4.631906509E0,4.923830986E0
1.558026087E0,4.998008251E0,-4.816751957E0,4.299304008E0
1.562816243E0,6.010770321E0,-4.496113777E0,4.303491592E0
1.567593066E0,6.442076683E0,-4.283152580E0,4.872385025E0
1.572369941E0,6.290730953E0,-4.264608383E0,5.151747227E0
1.577146764E0,5.035695076E0,-4.262813568E0,4.467400074E0
1.581923639E0,3.315854073E0,-4.564907551E0,3.866801500E0
1.586687181E0,3.010170937E0,-4.835894585E0,3.561716557E0
1.591477285E0,3.575475216E0,-4.525425911E0,3.587439299E0
1.596254160E0,3.562912941E0,-4.116253376E0,3.337389469E0
1.601030983E0,4.155734539E0,-3.864408493E0,3.050848961E0
1.605807858E0,5.740979671E0,-4.365705013E0,2.242074728E0
1.610584681E0,5.791228771E0,-4.202394962E0,2.749951363E0
1.615361556E0,5.936593056E0,-4.668995380E0,2.941377163E0
1.620138379E0,5.816951752E0,-3.860221148E0,3.287140131E0
1.624915202E0,5.565705299E0,-3.037090063E0,3.071786165E0
1.629678743E0,5.764907837E0,-3.117847919E0,2.121237278E0
1.634468900E0,6.058028698E0,-3.873381615E0,1.423729420E0
1.639245723E0,7.986045361E0,-3.777668715E0,1.701296926E0
1.644009264E0,9.009575844E0,-3.523431301E0,1.091725349E0
1.648799420E0,8.002795219E0,-3.106482029E0,-6.646065116E-1
1.653576295E0,7.836493969E0,-2.368894339E0,-1.835294962E0
1.658339837E0,7.801199913E0,-1.545165181E0,-2.556132793E0
1.663129941E0,7.356733322E0,-6.358926296E-1,-2.261217356E0
1.667906816E0,7.372286797E0,-7.238288224E-2,-1.791625977E0
1.672670358E0,7.354938507E0,-4.845465720E-2,-1.503889084E0
1.677460514E0,7.217351437E0,-7.776673883E-2,-6.628118753E-1
1.682237337E0,7.055237770E0,-5.952146053E-1,1.277169108E0
1.687000879E0,7.024130821E0,-1.492523074E0,3.576671600E0
1.691791035E0,6.646663189E0,-2.535195589E0,5.815755367E0
1.696567858E0,6.844669342E0,-3.151945591E0,8.334799767E0
1.701331400E0,8.070392609E0,-3.786043644E0,1.011864853E1
1.706121556E0,9.319445610E0,-3.964907169E0,8.096714020E0
1.710898379E0,1.003669453E1,-4.086941242E0,5.386243820E0
1.715661920E0,1.010788059E1,-4.147958279E0,2.238485575E0
1.720452077E0,9.894321442E0,-4.027120590E0,-7.363911867E-1
1.725228952E0,9.348757744E0,-3.589233875E0,-2.615355253E0
1.729992493E0,8.848658562E0,-3.329014540E0,-4.129413605E0
1.734782650E0,9.177073479E0,-3.019742250E0,-4.735994339E0
1.739559473E0,8.598608017E0,-2.895913601E0,-5.015954494E0
1.744323014E0,8.004590034E0,-2.868994236E0,-4.211368084E0
1.749113170E0,8.371888161E0,-3.190829039E0,-3.401995659E0
1.753889993E0,8.519046783E0,-3.894917011E0,-2.207378864E0
1.758653535E0,8.765507698E0,-4.935794830E0,-6.675975323E-1
1.763443691E0,9.007781029E0,-6.206982136E0,-5.814558864E-1
1.768220514E0,9.253643036E0,-7.429714203E0,-7.016952634E-1
1.772984056E0,9.135796547E0,-8.326424599E0,-1.055832982E0
1.777774212E0,8.098507881E0,-7.567301750E0,-6.000002623E-1
1.782551087E0,7.415955544E0,-6.807580471E0,-1.311864972E0
1.787314577E0,7.880163193E0,-6.916453838E0,-2.514258385E0
1.792104733E0,8.224729538E0,-7.450651646E0,-3.239881754E0
1.796881608E0,8.956335068E0,-7.978269100E0,-2.941377163E0
1.801645150E0,9.753145218E0,-7.933403492E0,-2.623729944E0
1.806435306E0,1.058584690E1,-7.497909546E0,-2.258824587E0
1.811212129E0,1.156810093E1,-6.980462074E0,-2.466402054E0
1.815975670E0,1.184267712E1,-6.555736065E0,-2.385644197E0
1.820765827E0,1.161057377E1,-6.093921185E0,-1.981855392E0
1.825542650E0,1.117627621E1,-5.670989513E0,-1.235892892E0
1.830319525E0,1.078684425E1,-5.200201988E0,-8.889335990E-1
1.835096348E0,1.055653572E1,-5.051248550E0,-1.060618639E0
1.839873170E0,1.049432182E1,-4.965106964E0,-1.151545882E0
1.844650045E0,1.067258739E1,-4.863411903E0,-1.503290772E0
1.849426868E0,1.084427261E1,-4.703093052E0,-2.069791555E0
1.854203743E0,1.078863907E1,-4.577469826E0,-2.535793781E0
1.858980566E0,1.054397297E1,-4.399802685E0,-2.860619545E0
1.863757389E0,9.814760208E0,-4.295714855E0,-3.029911757E0
1.868534264E0,8.803194046E0,-4.313062668E0,-2.727219582E0
1.873297806E0,8.336593628E0,-5.051248550E0,-2.373081923E0
1.878087962E0,7.249654293E0,-5.477769375E0,-2.123031855E0
1.882864785E0,5.962316036E0,-5.553741455E0,-1.055234790E0
1.887628327E0,5.066203594E0,-5.633302689E0,-6.478567123E-1
1.892418483E0,4.555335999E0,-5.851647854E0,-2.997010350E-1
1.897195306E0,4.130012035E0,-6.223731518E0,-2.333002165E-2
1.901958848E0,3.690330744E0,-6.725626469E0,1.854437590E-1
1.906749004E0,3.373879910E0,-7.338787079E0,2.165504545E-1
1.911525827E0,3.052045345E0,-7.816154957E0,1.704886109E-1
1.916289368E0,2.685943365E0,-8.048258781E0,1.728814393E-1
1.921079525E0,2.524427891E0,-8.203194618E0,1.160518974E-1
1.925856400E0,2.685943365E0,-8.265407562E0,1.298106313E-1
1.930619941E0,2.928216696E0,-8.245666504E0,5.144568533E-2
1.935410045E0,3.208176851E0,-8.129016876E0,-8.913264424E-2
1.940186920E0,3.567100286E0,-7.910671711E0,-3.218346536E-1
1.944963743E0,4.040280819E0,-7.765307903E0,-6.317051649E-1
1.949740618E0,4.708476543E0,-7.657630444E0,-1.085743308E0
1.954517441E0,5.438885689E0,-7.674978733E0,-1.521835208E0
1.959280983E0,6.097510338E0,-7.615158081E0,-1.884945989E0
1.964071139E0,6.576673031E0,-7.590033531E0,-2.146361828E0
1.968847962E0,7.094120979E0,-7.607979774E0,-2.302493572E0
1.973611504E0,7.512865067E0,-7.606783390E0,-2.328814745E0
1.978401660E0,7.846663475E0,-7.649255753E0,-2.239681959E0
1.983178483E0,8.086544037E0,-7.697112083E0,-1.904686809E0
1.987942025E0,8.326424599E0,-7.734799385E0,-1.584646821E0
1.992732181E0,8.404191017E0,-7.826324463E0,-1.335793257E0
1.997509056E0,8.396414757E0,-7.778468132E0,-9.661021233E-1
2.002272545E0,8.318049431E0,-7.673183918E0,-5.623133183E-1
2.007062702E0,8.215158463E0,-7.466204643E0,-1.591227055E-1
2.011839577E0,8.002795219E0,-7.250252724E0,1.878365725E-1
2.016603118E0,7.808378696E0,-7.039085865E0,4.474578202E-1
2.021393275E0,7.561917782E0,-6.870391846E0,6.263213158E-1
2.026170098E0,7.209574699E0,-6.770491600E0,6.951149702E-1
2.030946973E0,6.867401123E0,-6.790232658E0,7.734799385E-1
2.035723795E0,6.473781586E0,-6.873383045E0,9.002995491E-1
2.040500618E0,6.050850391E0,-6.981060028E0,9.649057388E-1
2.045264160E0,5.685346603E0,-7.044469833E0,1.077966571E0
2.050054316E0,5.447858810E0,-7.054639339E0,1.098305583E0
2.054831139E0,5.314459324E0,-7.030711174E0,1.060618639E0
2.059608014E0,5.313860893E0,-7.021139622E0,9.254241586E-1
2.064384837E0,5.379065514E0,-7.035496712E0,7.142575383E-1
2.069161712E0,5.563312531E0,-7.174280643E0,4.115654826E-1
2.073938535E0,5.790630817E0,-7.356733322E0,1.992024779E-1
2.078715358E0,6.037689686E0,-7.558328629E0,4.426721856E-2
2.083492233E0,6.308676720E0,-7.731209755E0,-1.914258115E-2
2.088269056E0,6.576074600E0,-7.879564762E0,-1.555334684E-2
2.093045931E0,6.866204739E0,-7.984848976E0,-5.084748194E-2
2.097822754E0,7.051648140E0,-8.056633949E0,-8.015955985E-2
2.102599577E0,7.151548862E0,-8.061419487E0,-9.990034252E-2
2.107376452E0,7.261020184E0,-8.017750740E0,-7.657032460E-2
2.112153275E0,7.237690449E0,-7.950153351E0,2.871387079E-2
2.116930150E0,7.214360237E0,-7.921439171E0,1.010967568E-1
2.121706973E0,7.143173695E0,-7.859225750E0,1.686939895E-1
2.126483848E0,6.958328247E0,-7.758727551E0,3.565305769E-1
2.131260670E0,6.830910206E0,-7.763513088E0,4.719842672E-1
2.136037493E0,6.664011002E0,-7.783253670E0,4.444667995E-1
2.140814368E0,6.412166595E0,-7.793423176E0,4.121637046E-1
2.145591191E0,6.059225082E0,-7.823333740E0,3.517449200E-1
2.150368014E0,5.735595703E0,-7.925028801E0,2.667997181E-1
2.155144889E0,5.507081509E0,-8.017151833E0,1.579262912E-1
2.159921712E0,5.416752338E0,-8.104490280E0,7.716853172E-2
2.164698587E0,5.387440205E0,-8.196015358E0,-3.290131316E-2
2.169475410E0,5.321039200E0,-8.206185341E0,-5.204389244E-2
2.174252285E0,5.306682587E0,-8.287541389E0,-1.333998591E-1
2.179029108E0,5.325226784E0,-8.335995674E0,-1.962114573E-1
2.183805931E0,5.244469166E0,-8.465806961E0,-2.679961324E-1
2.188582806E0,5.243870735E0,-8.514261246E0,-4.163511395E-1
2.193359629E0,5.146363258E0,-8.538188934E0,-6.843472719E-1
2.198136504E0,5.050052166E0,-8.533403397E0,-9.385846853E-1
2.202913327E0,4.929812908E0,-8.499904633E0,-1.105484009E0
2.207690150E0,4.797011375E0,-8.577671051E0,-1.080957651E0
2.212467025E0,4.696512699E0,-8.707481384E0,-1.247856975E0
2.217243848E0,4.624129772E0,-8.857032776E0,-1.512263894E0
2.222020723E0,4.557130814E0,-8.997013092E0,-1.708475351E0
2.226797545E0,4.490131855E0,-9.083752632E0,-1.827518344E0
2.231574368E0,4.380660057E0,-9.229117393E0,-1.860419631E0
2.236351243E0,4.357928276E0,-9.334999084E0,-1.779063582E0
2.241128066E0,4.349553585E0,-9.402596474E0,-1.625324726E0
2.245904941E0,4.317848682E0,-9.416953087E0,-1.366301775E0
2.250681764E0,4.290929317E0,-9.412167549E0,-1.087537885E0
2.255458587E0,4.231108665E0,-9.417551994E0,-7.800601721E-1
2.260235462E0,4.174877167E0,-9.364909172E0,-5.784648657E-1
2.265012285E0,4.099503517E0,-9.307481766E0,-3.714857101E-1
2.269789160E0,4.000201225E0,-9.225527763E0,-1.794617027E-1
2.274565983E0,3.839283943E0,-9.052047729E0,-4.845465720E-2
2.279342806E0,3.987040758E0,-9.042476654E0,1.040877849E-1
2.284119681E0,3.973880291E0,-8.989236832E0,2.338984162E-1
2.288896504E0,3.873381615E0,-8.739186287E0,3.110669553E-1
2.293673379E0,3.768097401E0,-8.479565620E0,3.158525825E-1
2.298450202E0,3.667000771E0,-8.224729538E0,2.590230405E-1
2.303227025E0,3.713660717E0,-8.045866013E0,2.009970993E-1
2.308003900E0,3.612564087E0,-7.848458290E0,9.571290761E-2
2.312780723E0,3.259024382E0,-7.362715244E0,4.426721856E-2
2.317544264E0,2.867199659E0,-6.993024349E0,3.170489892E-2
2.322334420E0,4.147958279E0,-8.048856735E0,-3.822534084E-1
2.327111295E0,2.806781054E0,-6.313462734E0,-1.704886109E-1
2.331874785E0,-9.332008660E-2,-4.340580463E0,-3.056831062E-1
2.336664941E0,-2.808575630E0,-3.186043262E0,-2.105683982E-1
2.341441816E0,-2.675773859E0,-2.766701221E0,-3.349951655E-2
2.346205306E0,-2.285743713E0,-2.669193745E0,-1.268195957E-1
2.350995462E0,-1.797608018E0,-2.519043922E0,-2.596212626E-1
2.355772337E0,-1.284945726E0,-2.285743713E0,-3.774677813E-1
2.360535879E0,-8.434699774E-1,-2.096710920E0,-4.660021961E-1
2.365326035E0,-5.449653864E-1,-1.937588096E0,-4.965106845E-1
2.370102858E0,-2.739782035E-1,-1.729412556E0,-5.653043389E-1
2.374866400E0,-4.187439755E-2,-1.594218135E0,-5.521438122E-1
2.379656556E0,6.221338734E-2,-1.517049551E0,-5.958128572E-1
2.384433379E0,9.152546525E-2,-1.526620865E0,-5.670989752E-1
2.389196920E0,1.489532143E-1,-1.584048629E0,-5.006981492E-1
2.393987077E0,2.727817893E-1,-1.622333765E0,-4.384847581E-1
2.398763900E0,3.308077157E-1,-1.651047587E0,-2.901297510E-1
2.403540775E0,4.163511395E-1,-1.713261008E0,-4.151547253E-1
2.408317598E0,8.195417523E-1,-1.972284079E0,-7.387840152E-1
2.413094473E0,1.740180254E0,-2.437089920E0,-5.222335458E-1
2.417858014E0,2.965903759E0,-3.664009571E0,1.345962733E-1
2.422648118E0,4.063013077E0,-5.496313572E0,-4.271188378E-1
2.427424993E0,3.795016766E0,-6.147161484E0,-2.428714931E-1
2.432188535E0,3.486940861E0,-6.582056999E0,4.839483798E-1
2.436978691E0,3.223730326E0,-6.616154671E0,9.553344250E-1
2.441755514E0,3.147758245E0,-8.241478920E0,2.397010088E0
2.446519056E0,3.826721668E0,-1.068634605E1,1.766501307E0
2.451309212E0,3.882952929E0,-1.708834267E1,-1.046261668E0
2.456086035E0,6.566503525E0,-3.342832947E1,-1.086939692E0
2.460849577E0,9.904491425E0,-4.903910446E1,-1.899901152E0
2.465639733E0,1.060558796E1,-5.688038635E1,-1.878963947E0
2.470416556E0,9.661021233E0,-5.440680313E1,-8.679963946E-1
2.475180098E0,9.138788223E0,-4.607379913E1,-2.907279432E-1
2.479970254E0,7.553543091E0,-3.613341522E1,1.046859920E-1
2.484747129E0,5.482554913E0,-2.707658195E1,2.273181453E-2
2.489510670E0,3.746562004E0,-1.978684807E1,1.178465188E-1
2.494300775E0,2.389233351E0,-1.436531067E1,3.942175210E-1
2.499077650E0,1.144965649E0,-1.053858948E1,4.989035130E-1
2.503841191E0,-1.615155339E-1,-8.016553879E0,5.856433511E-1
2.508631348E0,-1.171286702E0,-6.270391941E0,4.743770957E-1
2.513408170E0,-2.056032896E0,-5.241477966E0,3.487538993E-1
2.518171712E0,-2.866601467E0,-4.718646049E0,3.523431420E-1
2.522961868E0,-3.623331785E0,-4.555934429E0,2.991028428E-1
2.527738691E0,-4.380061626E0,-4.673780918E0,2.548356056E-1
2.532502233E0,-5.084149837E0,-4.989035130E0,1.579262912E-1
2.537292389E0,-5.634499073E0,-5.399404526E0,8.913264424E-2
2.542069264E0,-6.033502102E0,-5.887540340E0,6.759724021E-2
2.546832754E0,-6.221937180E0,-6.436692715E0,6.400800496E-2
2.551622910E0,-6.239284992E0,-6.961917400E0,5.503492057E-2
2.556399785E0,-6.160920143E0,-7.472187042E0,1.698904037E-1
2.561163327E0,-5.967699528E0,-7.948956966E0,2.416750938E-1
2.565953483E0,-5.785246849E0,-8.319844246E0,4.037888348E-1
2.570730306E0,-5.450850010E0,-8.694320679E0,4.169493318E-1
2.575507129E0,-4.883750916E0,-8.996415138E0,4.139583111E-1
2.580284004E0,-4.235894203E0,-9.308678627E0,4.253242314E-1
2.585060827E0,-3.549752474E0,-9.595816612E0,3.690928817E-1
2.589837702E0,-2.831905603E0,-9.863813400E0,2.075773627E-1
2.594614525E0,-1.914258122E0,-1.019342422E1,-5.623133108E-2
2.599391348E0,-1.414756417E0,-1.047697353E1,-2.991028428E-1
2.604154889E0,-1.444068432E0,-1.059242725E1,-4.857429862E-1
2.608945045E0,-1.859223247E0,-1.048774147E1,-5.988038778E-1
2.613721920E0,-2.235494614E0,-1.037767220E1,-6.640082598E-1
2.618498743E0,-2.484348059E0,-1.020419216E1,-7.591229677E-1
2.623275566E0,-2.432902336E0,-9.963115692E0,-8.027920127E-1
2.628052441E0,-2.219342947E0,-9.861420631E0,-8.279166222E-1
2.632829264E0,-1.966900229E0,-9.860821724E0,-7.764709592E-1
2.637606139E0,-1.813759565E0,-1.001456070E1,-6.951149702E-1
2.642382962E0,-1.622931957E0,-1.012522888E1,-6.771687865E-1
2.647159785E0,-1.399203062E0,-1.014855862E1,-6.640082598E-1
2.651936660E0,-1.118644595E0,-1.008514881E1,-6.891329288E-1
2.656713483E0,-8.482556343E-1,-1.004626560E1,-7.435696125E-1
2.661490358E0,-6.628118753E-1,-1.004566765E1,-7.878368497E-1
2.666267181E0,-5.156532526E-1,-1.003549862E1,-7.836494446E-1
2.671044004E0,-3.918247223E-1,-9.996614456E0,-7.651050687E-1
2.675820879E0,-2.482553422E-1,-9.933803558E0,-6.843472719E-1
2.680597702E0,-1.579262912E-1,-9.856635094E0,-5.844469070E-1
2.685374577E0,-1.052841991E-1,-9.769894600E0,-4.791627228E-1
2.690151400E0,-9.032905847E-2,-9.697511673E0,-3.493520916E-1
2.694928223E0,-6.101697683E-2,-9.649655342E0,-2.153540403E-1
2.699705098E0,-1.794617064E-2,-9.630513191E0,-1.190429255E-1
2.704481920E0,2.093719877E-2,-9.640084267E0,-2.333002165E-2
2.709258795E0,1.196411345E-2,-9.678369522E0,5.324030295E-2
2.714035618E0,7.776673418E-3,-9.726823807E0,1.106680483E-1
2.718812441E0,1.794617064E-2,-9.760323524E0,1.591227055E-1
2.723589316E0,5.623133108E-2,-9.789037704E0,2.015953064E-1
2.728366139E0,7.058826834E-2,-9.870991707E0,2.500499785E-1
2.733143014E0,7.597211748E-2,-9.972088814E0,2.404786795E-1
2.737919837E0,1.094716340E-1,-1.004925728E1,2.644068897E-1
2.742696660E0,1.381855011E-1,-1.009711361E1,2.494517565E-1
2.747473535E0,1.764706671E-1,-1.015992451E1,2.398804724E-1
2.752250358E0,1.668993831E-1,-1.018863869E1,2.207378894E-1
2.757027233E0,1.621137410E-1,-1.018863869E1,2.111666054E-1
2.761804056E0,1.286142170E-1,-1.015513897E1,2.015953064E-1
2.766580931E0,8.075776696E-2,-1.010189915E1,2.069791555E-1
2.771357754E0,5.204389244E-2,-1.002532864E1,2.021935135E-1
2.776134577E0,1.854437590E-2,-9.929018021E0,1.926222295E-1
2.780911452E0,-1.495514158E-2,-9.837491989E0,1.878365725E-1
2.785688275E0,3.589233849E-3,-9.755537987E0,2.021935135E-1
2.790465098E0,-1.076770201E-2,-9.702896118E0,1.974078715E-1
2.795241973E0,-5.862415582E-2,-9.654440880E0,2.117647976E-1
2.800018795E0,-1.393819153E-1,-9.630513191E0,2.123630047E-1
2.804795670E0,-2.440679073E-1,-9.611968994E0,2.273181528E-1
2.809572493E0,-3.391826153E-1,-9.611968994E0,2.374876440E-1
2.814349368E0,-4.342973232E-1,-9.636494637E0,2.572284341E-1
2.819126191E0,-4.911268353E-1,-9.669994354E0,2.715853751E-1
2.823903014E0,-5.198407173E-1,-9.728020668E0,2.961117923E-1
2.828679889E0,-5.383850932E-1,-9.805189133E0,3.152543902E-1
2.833456712E0,-5.473581553E-1,-9.872786522E0,3.391826153E-1
2.838233587E0,-5.563312769E-1,-9.944570541E0,3.541377485E-1
2.843010410E0,-5.706881881E-1,-1.001216793E1,3.637090325E-1
2.847787233E0,-6.035895348E-1,-1.007019424E1,3.780659735E-1
2.852564108E0,-5.988038778E-1,-1.008933640E1,3.780659735E-1
2.857340931E0,-5.754738450E-1,-1.007019424E1,3.397808075E-1
2.862117806E0,-5.563312769E-1,-1.002173901E1,3.056831062E-1
2.866894629E0,-5.569294691E-1,-9.983454704E0,2.865405083E-1
2.871671452E0,-5.575276613E-1,-9.930213928E0,2.195414752E-1
2.876448327E0,-5.581258535E-1,-9.891928673E0,1.668993831E-1
2.881225150E0,-5.395814776E-1,-9.857831001E0,6.580262631E-2
2.886002025E0,-5.210371017E-1,-9.838688850E0,-1.076770201E-2
2.890778848E0,-5.168496966E-1,-9.833903313E0,-9.272187948E-2
2.895555670E0,-4.983053207E-1,-9.853045464E0,-2.033899277E-1
2.900332545E0,-4.612165689E-1,-9.891330719E0,-3.188436031E-1
2.905109368E0,-4.187439680E-1,-9.943972588E0,-4.725824594E-1
2.909886243E0,-3.768695593E-1,-1.000678444E1,-6.167500615E-1
2.914663066E0,-2.817548811E-1,-1.004985523E1,-7.848458290E-1
2.919439889E0,-2.111666054E-1,-1.008275604E1,-9.242277741E-1
2.924216764E0,-1.836491376E-1,-1.013121128E1,-1.044467092E0
2.928993587E0,-1.746760458E-1,-1.014078236E1,-1.149751306E0
2.933770462E0,-1.513460279E-1,-1.014078236E1,-1.250848055E0
2.938547285E0,-1.375873089E-1,-1.011147022E1,-1.318445325E0
2.943324108E0,-1.573280841E-1,-1.005404282E1,-1.371087432E0
2.948100983E0,-2.099701911E-1,-1.000558758E1,-1.409372568E0
2.952877806E0,-2.243271172E-1,-9.952945709E0,-1.447657704E0
2.957654681E0,-2.626122832E-1,-9.919445992E0,-1.471585870E0
2.962431504E0,-3.056831062E-1,-9.885348320E0,-1.490728498E0
2.967208327E0,-3.535395563E-1,-9.837491989E0,-1.528415442E0
2.971985202E0,-4.067798555E-1,-9.794421196E0,-1.557129383E0
2.976762025E0,-4.785645306E-1,-9.756135941E0,-1.571486235E0
2.981538900E0,-5.641079545E-1,-9.736993790E0,-1.594816327E0
2.986315723E0,-6.263213158E-1,-9.713065147E0,-1.594816327E0
2.991092545E0,-7.214360237E-1,-9.669994354E0,-1.608574986E0
2.995869420E0,-7.740781307E-1,-9.655637741E0,-1.627119422E0
3.000646243E0,-8.309076428E-1,-9.636494637E0,-1.646261930E0
3.005423118E0,-9.074779749E-1,-9.588638306E0,-1.645663738E0
3.010199941E0,-9.314061999E-1,-9.569496155E0,-1.631306887E0
3.014976764E0,-9.361918569E-1,-9.530612946E0,-1.650449395E0
3.019753639E0,-9.601200819E-1,-9.492327690E0,-1.655235052E0
3.024530462E0,-9.744769931E-1,-9.434301376E0,-1.645663738E0
3.029307337E0,-9.415757060E-1,-9.367302895E0,-1.636092424E0
3.034084160E0,-8.518448472E-1,-9.284749985E0,-1.679761529E0
3.038860983E0,-8.141579032E-1,-9.202795982E0,-1.761715651E0
3.043637858E0,-8.673982024E-1,-9.101100922E0,-1.838286042E0
3.048414681E0,-8.679963946E-1,-9.034101486E0,-1.910070658E0
3.053191504E0,-8.446664214E-1,-8.971290588E0,-1.982453585E0
3.057968379E0,-8.117650747E-1,-8.961718559E0,-2.025524378E0
3.062745202E0,-8.931210637E-1,-9.004789352E0,-2.063809633E0
3.067522077E0,-9.403793216E-1,-9.086744308E0,-2.096710920E0
3.072298900E0,-9.876375198E-1,-9.120841980E0,-2.072782516E0
3.077075775E0,-1.010967612E0,-9.188439369E0,-2.072782516E0
3.081852598E0,-1.039083242E0,-9.294919968E0,-2.053041935E0
3.086629420E0,-1.015154958E0,-9.477970123E0,-2.105684042E0
3.091406295E0,-9.343972206E-1,-9.650852203E0,-2.245065928E0
3.096183118E0,-8.255237937E-1,-9.799804688E0,-2.370688915E0
3.100959993E0,-6.783652306E-1,-9.987043381E0,-2.505883455E0
3.105736816E0,-5.359922647E-1,-1.022752190E1,-2.684148788E0
3.110513691E0,-5.880361795E-1,-1.045424175E1,-2.799004316E0
3.115290514E0,-6.873382926E-1,-1.069531918E1,-2.769093990E0
3.120067337E0,-5.994020700E-1,-1.091186905E1,-2.572882652E0
3.124844212E0,-4.498506486E-1,-1.110449123E1,-2.318645239E0
3.129621035E0,-5.437689424E-1,-1.109970570E1,-2.044667006E0
3.134397910E0,-1.024726272E0,-1.098544884E1,-2.162513494E0
3.139174733E0,-1.152742267E0,-1.096152020E1,-2.065604210E0
3.143951556E0,-5.503492355E-1,-1.116251755E1,-1.646860242E0
3.148728431E0,-1.674975902E-1,-1.126301575E1,-1.389631748E0
3.153505254E0,2.955136001E-1,-1.135334492E1,-1.137188911E0
3.158282129E0,6.903293133E-1,-1.135274696E1,-1.067198873E0
3.163045618E0,1.071984529E0,-1.128455162E1,-9.684949517E-1
3.167835775E0,1.200000525E0,-1.112004471E1,-9.882357717E-1
3.172612650E0,1.066002488E0,-1.091366386E1,-9.349954724E-1
3.177389473E0,7.136593461E-1,-1.060618591E1,-8.039883971E-1
3.182166348E0,1.752742529E-1,-1.019282627E1,-6.963114142E-1
3.186943170E0,-1.627119333E-1,-9.789635658E0,-6.131607890E-1
3.191719993E0,-4.731806815E-1,-9.438488960E0,-5.204389095E-1
3.196496868E0,-8.111668825E-1,-9.159725189E0,-4.516452849E-1
3.201273691E0,-1.077966571E0,-8.991629601E0,-4.313062727E-1
3.206037233E0,-1.197607756E0,-8.828319550E0,-4.642075896E-1
3.210827389E0,-1.313061476E0,-8.708079338E0,-5.838487148E-1
3.215604212E0,-1.389631748E0,-8.621339798E0,-6.987041831E-1
3.220381087E0,-1.476371527E0,-8.573483467E0,-8.709874153E-1
3.225157910E0,-1.439880967E0,-8.544769287E0,-1.034297585E0
3.229934785E0,-1.407577872E0,-8.568697929E0,-1.226321578E0
3.234711608E0,-1.294517040E0,-8.582456589E0,-1.423729420E0
3.239488431E0,-1.181456208E0,-8.592027664E0,-1.616351724E0
3.244265306E0,-1.153938770E0,-8.562715530E0,-1.794018745E0
3.249042129E0,-1.150349498E0,-8.557929993E0,-1.952543259E0
3.253819004E0,-1.108475089E0,-8.528617859E0,-2.072782516E0
3.258595827E0,-1.028315544E0,-8.484949112E0,-2.135594130E0
3.263372650E0,-9.523434043E-1,-8.437092781E0,-2.149951220E0
3.268149525E0,-9.332008362E-1,-8.417351723E0,-2.145165443E0
3.272926348E0,-8.757730722E-1,-8.407780647E0,-2.117049932E0
3.277703223E0,-8.231309652E-1,-8.446065903E0,-2.078764677E0
3.282480045E0,-8.231309652E-1,-8.499305725E0,-2.050050735E0
3.287256868E0,-8.608179688E-1,-8.590831757E0,-2.015953064E0
3.292033743E0,-8.883354068E-1,-8.687142372E0,-1.968096614E0
3.296810566E0,-8.452646136E-1,-8.769096375E0,-1.896311998E0
3.301587441E0,-8.159525394E-1,-8.846264839E0,-1.872383714E0
3.306364264E0,-8.488538265E-1,-8.933005333E0,-1.857428551E0
3.311141087E0,-8.769695163E-1,-9.004789352E0,-1.823929071E0
3.315917962E0,-9.146564603E-1,-9.081958771E0,-1.819143414E0
3.320694785E0,-9.619147182E-1,-9.154341698E0,-1.823330879E0
3.325471660E0,-1.076770186E0,-9.193224907E0,-1.884945989E0
3.330248483E0,-1.214955688E0,-9.232706070E0,-1.941775560E0
3.335025306E0,-1.224527001E0,-9.237491608E0,-1.951346874E0
3.339802181E0,-1.119242787E0,-9.237491608E0,-1.918445587E0
3.344579004E0,-1.057627559E0,-9.247062683E0,-1.909472466E0
3.349355879E0,-1.091127157E0,-9.261420250E0,-1.923231244E0
3.354132702E0,-1.157527924E0,-9.275776863E0,-1.932802439E0
3.358909525E0,-1.333400369E0,-9.262018204E0,-1.931606054E0
3.363686400E0,-1.418943882E0,-9.266803741E0,-1.960319996E0
3.368463223E0,-1.381256819E0,-9.290732384E0,-1.989033818E0
3.373240098E0,-1.377069473E0,-9.324830055E0,-2.060818434E0
3.378016920E0,-1.396211982E0,-9.343972206E0,-2.118246317E0
3.382793743E0,-1.387238979E0,-9.367900848E0,-2.214557409E0
3.387570618E0,-1.511665702E0,-9.406784058E0,-2.276172638E0
3.392347441E0,-1.592423439E0,-9.460023880E0,-2.309073925E0
3.397124316E0,-1.615753531E0,-9.531808853E0,-2.318645239E0
3.401901139E0,-1.667797327E0,-9.604191780E0,-2.289333105E0
3.406677962E0,-1.728814363E0,-9.696315765E0,-2.226521492E0
3.411454837E0,-1.742573142E0,-9.797411919E0,-2.149951220E0
3.416231660E0,-1.718046665E0,-9.884152412E0,-2.078166485E0
3.421008535E0,-1.722234130E0,-9.980463028E0,-1.996212244E0
3.425785358E0,-1.640878081E0,-1.006181908E1,-1.958525300E0
3.430562181E0,-1.554736495E0,-1.008574772E1,-1.958525300E0
3.435339056E0,-1.492523074E0,-1.010488987E1,-1.992623091E0
3.440115879E0,-1.431506157E0,-1.010488987E1,-2.041077614E0
3.444892754E0,-1.360319614E0,-1.007557774E1,-2.079961061E0
3.449669577E0,-1.269990563E0,-1.004626560E1,-2.123630047E0
3.454446452E0,-1.241874933E0,-1.000798035E1,-2.157129526E0
3.459223275E0,-1.199402332E0,-9.997811317E0,-2.161915302E0
3.464000098E0,-1.213759303E0,-9.959526062E0,-2.152343988E0
3.468776973E0,-1.237687469E0,-9.921240807E0,-2.161915302E0
3.473553795E0,-1.180259824E0,-9.901499748E0,-2.148156643E0
3.478330618E0,-1.147358418E0,-9.868000984E0,-2.138585329E0
3.483107493E0,-1.152144074E0,-9.844072342E0,-2.148156643E0
3.487884316E0,-1.119242787E0,-9.839286804E0,-2.172084808E0
3.492661191E0,-1.109671474E0,-9.833903313E0,-2.172084808E0
3.497438014E0,-1.147358418E0,-9.844072342E0,-2.176870346E0
3.502214837E0,-1.152144074E0,-9.829715729E0,-2.157727718E0
3.506991712E0,-1.185045362E0,-9.848857880E0,-2.118844509E0
3.511768535E0,-1.170688510E0,-9.858428955E0,-2.085345030E0
3.516545410E0,-1.146760225E0,-9.872786522E0,-2.027917147E0
3.521322233E0,-1.160519004E0,-9.887143135E0,-2.013560295E0
3.526099056E0,-1.122233868E0,-9.915857315E0,-1.960918188E0
3.530875931E0,-1.041476011E0,-9.930213928E0,-1.923231244E0
3.535652754E0,-9.553344250E-1,-9.939785004E0,-1.880160451E0
3.540429629E0,-8.602197170E-1,-9.939785004E0,-1.842473388E0
3.545206452E0,-7.549355626E-1,-9.963713646E0,-1.790429592E0
3.549983275E0,-6.502495408E-1,-9.963115692E0,-1.771885157E0
3.554760150E0,-5.736792088E-1,-9.972686768E0,-1.743171334E0
3.559536973E0,-5.216353536E-1,-9.967901230E0,-1.715055585E0
3.564313848E0,-4.785645306E-1,-9.958329201E0,-1.686341763E0
3.569090670E0,-4.163511395E-1,-9.943374634E0,-1.628913999E0
3.573867493E0,-3.535395563E-1,-9.948160172E0,-1.566700578E0
3.578644368E0,-2.919243574E-1,-9.899705887E0,-1.514656782E0
3.583421191E0,-2.338984162E-1,-9.885348320E0,-1.438086390E0
3.588198066E0,-1.621137410E-1,-9.861420631E0,-1.337587833E0
3.592974889E0,-6.221338734E-2,-9.832108498E0,-1.241874933E0
3.597751764E0,-4.187439568E-3,-9.807581902E0,-1.122233868E0
3.602528587E0,5.982056726E-3,-9.754940033E0,-1.012163997E0
3.607305410E0,-1.794617064E-2,-9.672985077E0,-9.254241586E-1
3.612082285E0,-7.776673418E-3,-9.605986595E0,-8.536394835E-1
3.616859108E0,-6.520441920E-2,-9.538389206E0,-7.914260626E-1
3.621635931E0,-1.124626622E-1,-9.509675026E0,-7.668996453E-1
3.626412806E0,-1.645065546E-1,-9.461818695E0,-7.477570772E-1
3.631189629E0,-2.123630047E-1,-9.428318977E0,-7.328019142E-1
3.635966504E0,-2.596212626E-1,-9.452247620E0,-7.375875711E-1
3.640743327E0,-3.170489967E-1,-9.476774216E0,-7.274180651E-1
3.645520202E0,-4.935196638E-1,-9.491130829E0,-7.507480979E-1
3.650297025E0,-7.220342159E-1,-9.482157707E0,-7.686942816E-1
3.655073848E0,-9.786644578E-1,-9.473184586E0,-8.153542876E-1
3.659850723E0,-1.211964726E0,-9.459425926E0,-8.715856671E-1
3.664627545E0,-1.417149186E0,-9.445667267E0,-9.571290612E-1
3.669404368E0,-1.542174220E0,-9.464810371E0,-1.071386337E0
3.674181243E0,-1.623530149E0,-9.484550476E0,-1.181456208E0
3.678958066E0,-1.691127419E0,-9.484550476E0,-1.359123230E0
3.683734941E0,-1.730608940E0,-9.489336014E0,-1.574477315E0
3.688511764E0,-1.765304923E0,-9.479764938E0,-1.795215130E0
3.693288639E0,-1.747358680E0,-9.474979401E0,-2.015953064E0
3.698065462E0,-1.743769526E0,-9.479166985E0,-2.226521492E0
3.702842285E0,-1.749751568E0,-9.503693581E0,-2.423929453E0
3.707619160E0,-1.717448473E0,-9.522835732E0,-2.582453728E0
3.712395983E0,-1.656431437E0,-9.556335449E0,-2.669193745E0
3.717172858E0,-1.537388563E0,-9.594022751E0,-2.679363251E0
3.721949681E0,-1.403390527E0,-9.641879082E0,-2.651247501E0
3.726726504E0,-1.298106313E0,-9.680164337E0,-2.555534601E0
3.731503379E0,-1.177866936E0,-9.708877563E0,-2.422134638E0
3.736280202E0,-1.077368379E0,-9.728020668E0,-2.249253273E0
3.741057077E0,-9.954141974E-1,-9.747162819E0,-2.086541414E0
3.745833900E0,-8.943174481E-1,-9.780662537E0,-1.899901152E0
3.750610723E0,-8.069794178E-1,-9.819545746E0,-1.708475351E0
3.755387598E0,-7.345965505E-1,-9.828518867E0,-1.540977836E0
3.760164420E0,-6.765705943E-1,-9.828518867E0,-1.383051515E0
3.764941243E0,-6.424728632E-1,-9.814162254E0,-1.234098315E0
3.769718118E0,-6.418746710E-1,-9.818947792E0,-1.094716311E0
3.774494941E0,-6.029912829E-1,-9.828518867E0,-9.463613629E-1
3.779271816E0,-6.209374666E-1,-9.804591179E0,-8.267202377E-1
3.784048639E0,-5.922235847E-1,-9.775876999E0,-7.256234884E-1
3.788825514E0,-5.868397355E-1,-9.737591743E0,-6.346961856E-1
3.793602337E0,-5.868397355E-1,-9.713065147E0,-5.676971674E-1
3.798379160E0,-5.718846321E-1,-9.669994354E0,-5.054838061E-1
3.803156035E0,-6.197410822E-1,-9.646066666E0,-4.809573591E-1
3.807932858E0,-6.765705943E-1,-9.607781410E0,-4.570291340E-1
3.812709733E0,-7.387840152E-1,-9.588638306E0,-4.612165689E-1
3.817486556E0,-8.051848412E-1,-9.602995872E0,-4.851447940E-1
3.822263379E0,-8.817551732E-1,-9.608379364E0,-5.371887088E-1
3.827040254E0,-9.439685345E-1,-9.617950439E0,-6.137589812E-1
3.831817077E0,-9.774680734E-1,-9.617950439E0,-7.094719410E-1
3.836593952E0,-1.021137118E0,-9.627521515E0,-8.482556343E-1
3.841370775E0,-1.060020447E0,-9.666405678E0,-9.924231768E-1
3.846147598E0,-1.118046403E0,-9.666405678E0,-1.145563841E0
3.850924473E0,-1.133001566E0,-9.690333366E0,-1.294517040E0
3.855701295E0,-1.158126116E0,-9.699904442E0,-1.447657704E0
3.860478118E0,-1.106680512E0,-9.695118904E0,-1.596610904E0
3.865254993E0,-1.054636598E0,-9.708877563E0,-1.712064624E0
3.870031816E0,-9.936196208E-1,-9.694520950E0,-1.817947030E0
3.874808691E0,-9.326026440E-1,-9.684949875E0,-1.899901152E0
3.879585514E0,-8.614161611E-1,-9.665208817E0,-1.924427629E0
3.884362389E0,-8.183453679E-1,-9.665208817E0,-1.929213285E0
3.889139212E0,-7.992027402E-1,-9.650852203E0,-1.910070658E0
3.893916035E0,-7.752745152E-1,-9.631111145E0,-1.847857237E0
3.898692910E0,-7.513462901E-1,-9.621540070E0,-1.756929994E0
3.903469733E0,-7.459624410E-1,-9.621540070E0,-1.656431437E0
3.908246608E0,-7.543373108E-1,-9.646066666E0,-1.536192179E0
3.913023431E0,-7.393822074E-1,-9.669994354E0,-1.411765337E0
3.917800254E0,-7.531409264E-1,-9.679565430E0,-1.310668588E0
3.922577129E0,-7.854440212E-1,-9.699306488E0,-1.180858016E0
3.927353952E0,-8.368897438E-1,-9.708877563E0,-1.079761267E0
3.932130827E0,-8.602197170E-1,-9.704092026E0,-9.738788009E-1
3.936907650E0,-8.548358679E-1,-9.708877563E0,-8.829515576E-1
3.941684473E0,-8.638089895E-1,-9.718449593E0,-8.159525394E-1
3.946461348E0,-9.014959335E-1,-9.733404160E0,-7.483552694E-1
3.951238170E0,-9.248259664E-1,-9.733404160E0,-7.004988194E-1
3.956015045E0,-8.865407705E-1,-9.747760773E0,-6.813562512E-1
3.960791868E0,-8.488538265E-1,-9.752547264E0,-6.861419082E-1
3.965568691E0,-8.105686903E-1,-9.776474953E0,-7.154539824E-1
3.970345566E0,-7.920243144E-1,-9.786046028E0,-7.585247755E-1
3.975122389E0,-7.974081635E-1,-9.795618057E0,-8.207381964E-1
3.979899264E0,-8.165507317E-1,-9.790832520E0,-8.925228715E-1
3.984676087E0,-8.219345808E-1,-9.781260490E0,-9.547362328E-1
3.989452910E0,-8.075776696E-1,-9.766903877E0,-9.984052777E-1
3.994229785E0,-8.081758618E-1,-9.751948357E0,-1.041476011E0
3.999006608E0,-8.177471161E-1,-9.718449593E0,-1.055832982E0
4.003783431E0,-8.033902049E-1,-9.708877563E0,-1.055832982E0
4.008560306E0,-8.039883971E-1,-9.694520950E0,-1.079761267E0
4.013337129E0,-7.848458290E-1,-9.679565430E0,-1.089332461E0
4.018114004E0,-7.752745152E-1,-9.674779892E0,-1.113260746E0
4.022890827E0,-7.423732281E-1,-9.674779892E0,-1.133001566E0
4.027667650E0,-7.238288522E-1,-9.669994354E0,-1.171286702E0
4.032444525E0,-6.951149702E-1,-9.669994354E0,-1.200000525E0
4.037221348E0,-6.430711150E-1,-9.679565430E0,-1.200598717E0
4.041998223E0,-6.430711150E-1,-9.693922997E0,-1.210170031E0
4.046775045E0,-6.095715761E-1,-9.703494072E0,-1.214955688E0
4.051551920E0,-5.473581553E-1,-9.703494072E0,-1.186840057E0
4.056328743E0,-5.617151260E-1,-9.727422714E0,-1.181456208E0
4.061105566E0,-6.000002623E-1,-9.732208252E0,-1.176670551E0
4.065882441E0,-6.000002623E-1,-9.717850685E0,-1.157527924E0
4.070659264E0,-6.137589812E-1,-9.703494072E0,-1.138385415E0
4.075436139E0,-6.424728632E-1,-9.684351921E0,-1.119242787E0
4.080212962E0,-6.711867452E-1,-9.660423279E0,-1.113858938E0
4.084989785E0,-7.040880919E-1,-9.655637741E0,-1.118644595E0
4.089766660E0,-7.184450030E-1,-9.650852203E0,-1.109073281E0
4.094543483E0,-6.999006271E-1,-9.641280174E0,-1.133001566E0
4.099320358E0,-7.232306600E-1,-9.641280174E0,-1.128215909E0
4.104097181E0,-6.951149702E-1,-9.641280174E0,-1.156929731E0
4.108874004E0,-7.190431952E-1,-9.665208817E0,-1.156929731E0
4.113650879E0,-7.806583643E-1,-9.684351921E0,-1.171286702E0
4.118427702E0,-8.141579032E-1,-9.680164337E0,-1.185045362E0
4.123204577E0,-7.854440212E-1,-9.669994354E0,-1.195214868E0
4.127981400E0,-8.285148144E-1,-9.680164337E0,-1.213759303E0
4.132758223E0,-8.757730722E-1,-9.675378799E0,-1.218544960E0
4.137535098E0,-9.427721500E-1,-9.699306488E0,-1.261615753E0
4.142311920E0,-9.858429432E-1,-9.699306488E0,-1.309472203E0
4.147088743E0,-1.043270707E0,-9.714262009E0,-1.414756417E0
4.151865618E0,-1.053440213E0,-9.752547264E0,-1.524826288E0
4.156642441E0,-1.001994491E0,-9.781260490E0,-1.645065546E0
4.161419316E0,-9.361918569E-1,-9.790832520E0,-1.770090580E0
4.166196139E0,-8.656035662E-1,-9.809974670E0,-1.904686809E0
4.170972962E0,-8.327022791E-1,-9.814162254E0,-1.991426587E0
4.175749837E0,-8.093722463E-1,-9.814162254E0,-2.102094650E0
4.180526660E0,-7.962117195E-1,-9.828518867E0,-2.207378864E0
4.185303535E0,-7.968099117E-1,-9.838089943E0,-2.313261271E0
4.190080358E0,-8.350951076E-1,-9.842875481E0,-2.404786825E0
4.194857181E0,-8.542376757E-1,-9.852447510E0,-2.471785784E0
4.199634056E0,-8.877372146E-1,-9.848259926E0,-2.499901533E0
4.204410879E0,-9.164510965E-1,-9.876974106E0,-2.519043922E0
4.209187754E0,-9.589236975E-1,-9.867402077E0,-2.456830740E0
4.213964577E0,-9.678967595E-1,-9.867402077E0,-2.398206472E0
4.218741452E0,-9.439685345E-1,-9.867402077E0,-2.331207514E0
4.223518275E0,-9.200403094E-1,-9.876974106E0,-2.288136721E0
4.228295098E0,-8.913264275E-1,-9.872187614E0,-2.235494614E0
4.233071973E0,-8.291130662E-1,-9.881759644E0,-2.216950178E0
4.237848795E0,-7.435696125E-1,-9.900901794E0,-2.241476536E0
4.242625618E0,-6.867401004E-1,-9.939187050E0,-2.333002090E0
4.247402493E0,-6.825526357E-1,-9.967901230E0,-2.419741869E0
4.252179316E0,-6.789634228E-1,-1.002054310E1,-2.592025042E0
4.256956191E0,-6.705885530E-1,-1.011206818E1,-2.860619545E0
4.261733014E0,-6.149554253E-1,-1.021316528E1,-3.196810961E0
4.266509837E0,-5.036891699E-1,-1.029452133E1,-3.692125320E0
4.271286712E0,-3.254238665E-1,-1.040040398E1,-4.234697819E0
4.276063535E0,-4.845465720E-2,-1.050030422E1,-4.855635166E0
4.280827077E0,2.847459018E-1,-1.061934662E1,-5.624927998E0
4.285617233E0,6.987041831E-1,-1.072881889E1,-6.437889099E0
4.290394056E0,1.185045362E0,-1.095852947E1,-7.256234646E0
4.295157598E0,1.377069473E0,-1.130429268E1,-7.952546120E0
4.299947754E0,1.602592945E0,-1.175713444E1,-8.568099976E0
4.304724629E0,1.968694806E0,-1.232901859E1,-8.982057571E0
4.309488118E0,2.023131609E0,-1.302712440E1,-9.053842545E0
4.314278275E0,2.155933142E0,-1.378385448E1,-8.675178528E0
4.319055150E0,2.218744755E0,-1.453041553E1,-8.185248375E0
4.323818691E0,2.276172638E0,-1.534935951E1,-7.791030407E0
4.328608848E0,2.468794823E0,-1.627418518E1,-7.853842258E0
4.333385670E0,2.978466034E0,-1.703869247E1,-8.082356453E0
4.338149212E0,3.580859184E0,-1.783250999E1,-7.311867714E0
4.342939368E0,4.584648132E0,-1.828295898E1,-7.566105366E0
4.347716191E0,4.566103935E0,-1.794078636E1,-7.345965385E0
4.352479733E0,4.040280819E0,-1.693520164E1,-6.388836384E0
4.357269889E0,3.201596737E0,-1.587338734E1,-5.252245903E0
4.362046712E0,2.736192703E0,-1.498445320E1,-3.792025566E0
4.366810254E0,2.599801779E0,-1.430070496E1,-2.471785784E0
4.371600410E0,2.639881611E0,-1.362174129E1,-9.559326172E-1
4.376377233E0,2.791825771E0,-1.278425312E1,1.896311939E-1
4.381140775E0,2.538186550E0,-1.214417267E1,1.135992527E0
4.385930931E0,2.184048891E0,-1.158185959E1,1.775474429E0
4.390707806E0,1.907677889E0,-1.114397335E1,1.910668850E0
4.395471348E0,1.570888042E0,-1.077847004E1,1.548156261E0
4.400261504E0,1.218544960E0,-1.058166027E1,7.962117195E-1
4.405038327E0,1.224527001E0,-1.035015392E1,-4.277170599E-1
4.409801868E0,1.190429211E0,-1.026700401E1,-2.025524378E0
4.414592025E0,8.051848412E-1,-1.013240719E1,-3.526422262E0
4.419368848E0,5.114658475E-1,-1.007438183E1,-4.825126648E0
4.424132389E0,8.255238086E-2,-1.012821960E1,-5.801996708E0
4.428922545E0,-2.919243574E-1,-1.012881851E1,-6.428318024E0
4.433699368E0,-4.989035130E-1,-1.012463093E1,-6.681358814E0
4.438462910E0,-5.467599630E-1,-1.008096218E1,-6.724429607E0
4.443253066E0,-6.460621357E-1,-9.888937950E0,-6.561119556E0
4.448029889E0,-6.257231236E-1,-9.479764938E0,-6.101099491E0
4.452793431E0,-6.490531564E-1,-8.896514893E0,-5.683551788E0
4.457583587E0,-1.111466169E0,-8.151748657E0,-5.547161102E0
4.462360462E0,-1.643869162E0,-7.405786037E0,-5.770890236E0
4.467124004E0,-2.036890268E0,-6.909873486E0,-6.042475224E0
4.471914108E0,-2.120639086E0,-6.462415695E0,-6.229713917E0
4.476690983E0,-2.790629387E0,-6.464210510E0,-6.048457623E0
4.481454525E0,-2.974278450E0,-6.180660725E0,-5.644668579E0
4.486244681E0,-2.542972326E0,-5.987440586E0,-5.119443893E0
4.491021504E0,-1.941775560E0,-5.899504185E0,-4.738387108E0
4.495785045E0,-1.226919770E0,-5.868995667E0,-4.487739086E0
4.500575202E0,-6.705885530E-1,-5.654838085E0,-4.380061626E0
4.505352025E0,-3.421736360E-1,-5.423332691E0,-4.367499352E0
4.510115566E0,-1.435693651E-1,-5.230112076E0,-4.417150497E0
4.514905723E0,-1.890329868E-1,-4.849653244E0,-4.667200565E0
4.519682545E0,-1.154536903E-1,-4.603192329E0,-4.887938499E0
4.524446087E0,-3.744767308E-1,-4.252045631E0,-5.021338463E0
4.529236243E0,-5.192425251E-1,-3.973282099E0,-5.169693470E0
4.534013118E0,-6.681957245E-1,-3.728017569E0,-5.303092957E0
4.538776608E0,-5.066801906E-1,-3.645465374E0,-5.333003521E0
4.543566764E0,-1.429711580E-1,-3.823132277E0,-5.161916733E0
4.548343639E0,-1.040877849E-1,-4.044468403E0,-5.118845940E0
4.553120462E0,-6.520441920E-2,-4.270590305E0,-5.099703312E0
4.557897337E0,-5.024927482E-2,-4.371686935E0,-5.047060966E0
4.562674160E0,1.980060786E-1,-4.462614059E0,-4.880161762E0
4.567450983E0,3.134597540E-1,-4.573282242E0,-4.717449665E0
4.572227858E0,4.821537733E-1,-4.732405186E0,-4.473381996E0
4.577004681E0,9.272187948E-2,-4.588237286E0,-4.341776848E0
4.581781556E0,-1.220339537E-1,-4.357928276E0,-4.287938118E0
4.586558379E0,-2.045863420E-1,-4.073780537E0,-4.456034184E0
4.591335202E0,1.561316848E-1,-3.937987804E0,-4.500899315E0
4.596112077E0,4.414757788E-1,-3.966103554E0,-4.516452789E0
4.600888900E0,4.121637046E-1,-3.971487284E0,-4.578666210E0
4.605665775E0,2.889333367E-1,-3.937987804E0,-4.568496704E0
4.610442598E0,3.786641955E-1,-3.788436413E0,-4.583451748E0
4.615219420E0,5.455635786E-1,-3.686741590E0,-4.406980991E0
4.619996295E0,8.422735929E-1,-3.570091486E0,-4.202394962E0
4.624773118E0,7.663014531E-1,-3.493520975E0,-4.072584152E0
4.629549941E0,6.137589812E-1,-3.421736479E0,-3.971487284E0
4.634326816E0,5.611169338E-1,-3.315854073E0,-3.985246181E0
4.639103639E0,7.322037220E-1,-3.195016384E0,-3.957728624E0
4.643880514E0,9.278169870E-1,-3.126821041E0,-3.958925009E0
4.648657337E0,8.841479421E-1,-3.055036306E0,-4.030709743E0
4.653434212E0,8.309076428E-1,-3.020938635E0,-4.135993958E0
4.658211035E0,9.110672474E-1,-2.997010469E0,-4.294518471E0
4.662987858E0,9.475577474E-1,-3.001197815E0,-4.472185612E0
4.667764733E0,9.655039310E-1,-3.064009428E0,-4.683950424E0
4.672541556E0,9.888339639E-1,-3.131008387E0,-4.827519894E0
4.677318431E0,1.011565804E0,-3.169293642E0,-5.019543648E0
4.682095254E0,1.086939692E0,-3.246462107E0,-5.221737385E0
4.686872077E0,1.190429211E0,-3.366103172E0,-5.428118229E0
4.691648952E0,1.237687469E0,-3.544368505E0,-5.620141983E0
4.696425775E0,1.289133191E0,-3.742374659E0,-5.827121258E0
4.701202598E0,1.473978758E0,-3.895515203E0,-6.010172367E0
4.705979473E0,1.534995675E0,-3.967898130E0,-6.197410583E0
4.710756295E0,1.543370605E0,-3.996612072E0,-6.365506649E0
4.715533170E0,1.533201098E0,-4.015754700E0,-6.537789822E0
4.720309993E0,1.494317770E0,-4.001397610E0,-6.667600155E0
4.725086816E0,1.517049551E0,-3.981656790E0,-6.768098831E0
4.729863691E0,1.578664780E0,-4.000799656E0,-6.826124668E0
4.734640514E0,1.611566067E0,-4.015156269E0,-6.864409924E0
4.739417389E0,1.668395638E0,-4.034298897E0,-6.970890522E0
4.744194212E0,1.691725612E0,-4.053441525E0,-7.062416077E0
4.748971035E0,1.680957913E0,-4.063013077E0,-7.215556622E0
4.753747910E0,1.680359721E0,-4.086941242E0,-7.369295597E0
4.758524733E0,1.622333765E0,-4.130609989E0,-7.546364307E0
4.763301608E0,1.626521230E0,-4.217350006E0,-7.642077446E0
4.768078431E0,1.406979680E0,-4.207778454E0,-7.823333740E0
4.772855254E0,1.348953724E0,-4.188635826E0,-7.933403492E0
4.777632129E0,1.454836130E0,-4.308875561E0,-7.818548203E0
4.782408952E0,1.451246977E0,-4.386044025E0,-7.708477974E0
4.787185827E0,1.438086390E0,-4.453640938E0,-7.554739475E0
4.791962650E0,1.444068432E0,-4.511667252E0,-7.386643410E0
4.796739473E0,1.493121386E0,-4.554738045E0,-7.156932354E0
4.801516348E0,1.780858278E0,-4.766502857E0,-6.798008919E0
4.806293170E0,1.418345571E0,-4.646263599E0,-6.997809887E0
4.811070045E0,1.341177106E0,-4.642076015E0,-7.112665176E0
4.815846868E0,1.383051515E0,-4.801198483E0,-7.352545738E0
4.820623691E0,1.634896040E0,-5.200201988E0,-7.646264553E0
4.825400566E0,1.756929994E0,-5.642275810E0,-8.127222061E0
4.830177389E0,1.989033818E0,-6.267998695E0,-8.741579056E0
4.834954264E0,1.918445587E0,-6.888936520E0,-9.719645500E0
4.839717754E0,1.926820397E0,-7.563114166E0,-1.105364418E1
4.844507910E0,2.229512453E0,-8.491529465E0,-1.252822113E1
4.849284785E0,2.636890650E0,-9.516255379E0,-1.418465233E1
4.854048327E0,3.006581545E0,-1.076710415E1,-1.587578011E1
4.858838483E0,2.774477959E0,-1.201496029E1,-1.709731674E1
4.863615306E0,2.864208698E0,-1.314198017E1,-1.775893211E1
4.868378848E0,3.221337557E0,-1.406620789E1,-1.754896164E1
4.873169004E0,3.822534084E0,-1.461416435E1,-1.666840172E1
4.877945827E0,2.407777786E0,-1.527338696E1,-1.501017666E1
4.882709368E0,2.167897224E0,-1.546301842E1,-1.309352589E1
4.887499525E0,1.746760488E0,-1.523390579E1,-1.102792168E1
4.892276348E0,1.286740422E0,-1.453221035E1,-8.823533058E0
4.897039889E0,1.104287624E0,-1.331964684E1,-6.923034191E0
4.901830045E0,9.696913958E-1,-1.173559856E1,-5.555535793E0
4.906606868E0,6.352944374E-1,-1.004566765E1,-4.801796913E0
4.911370410E0,-1.196411322E-3,-8.476573944E0,-4.616951466E0
4.916160566E0,-9.379864931E-1,-7.240681171E0,-4.646861553E0
4.920937441E0,-1.896910191E0,-6.462415695E0,-4.680959225E0
4.925700983E0,-2.408375978E0,-5.986842155E0,-4.837090969E0
4.930491087E0,-2.962912560E0,-5.660222054E0,-5.045266628E0
4.935267962E0,-3.327818155E0,-5.357530117E0,-5.513661385E0
4.940031504E0,-2.662613392E0,-4.888536453E0,-6.098108292E0
4.944821660E0,-3.415754318E0,-5.159523964E0,-6.535397053E0
4.949598483E0,-3.689732552E0,-5.107480049E0,-6.246463299E0
4.954362025E0,-3.357130051E0,-5.289932728E0,-5.508875847E0
4.959152181E0,-2.740380049E0,-5.520241737E0,-4.311866283E0
4.963929004E0,-1.134796143E0,-5.507081509E0,-3.250051260E0
4.968692545E0,-1.565504193E0,-6.068198204E0,-2.359323025E0
4.973482702E0,-1.536790371E0,-6.333203316E0,-1.678565025E0
4.978259525E0,-1.862214208E0,-6.853642464E0,-1.527817249E0
4.983023066E0,-1.895115495E0,-7.379465103E0,-1.685743570E0
4.987813223E0,-2.124826431E0,-7.971688747E0,-2.264208317E0
4.992590098E0,-2.669791937E0,-8.580063820E0,-3.000001431E0
4.997353587E0,-2.477767944E0,-9.026923180E0,-3.798007727E0
5.002143743E0,-2.090728760E0,-9.469595909E0,-4.461417675E0
5.006920618E0,-1.413560033E0,-1.004566765E1,-4.594219685E0
5.011684108E0,-6.167500615E-1,-1.059840965E1,-4.448855400E0
5.016474264E0,-4.845465720E-2,-1.117926693E1,-4.437489510E0
5.021251139E0,2.333002090E-1,-1.173799133E1,-4.548755646E0
5.026014681E0,4.725824594E-1,-1.220937729E1,-4.539782524E0
5.030804837E0,2.673979402E-1,-1.286979675E1,-4.241278172E0
5.035581660E0,3.738785386E-1,-1.319222927E1,-4.077968121E0
5.040345202E0,5.706881881E-1,-1.332682610E1,-3.848855257E0
5.045135358E0,6.580262184E-1,-1.333639717E1,-3.542573929E0
5.049912181E0,6.502495408E-1,-1.321615791E1,-3.239881754E0
5.054675723E0,6.263213158E-1,-1.302353573E1,-3.129213810E0
5.059465879E0,6.687939167E-1,-1.274955750E1,-3.062813044E0
5.064242702E0,8.159525394E-1,-1.238225937E1,-3.039483070E0
5.069019577E0,9.379864931E-1,-1.191027451E1,-3.002394199E0
5.073796400E0,9.936196208E-1,-1.123071289E1,-2.916850805E0
5.078573275E0,1.002592683E0,-1.067677498E1,-2.696711063E0
5.083336764E0,1.068395257E0,-1.003609657E1,-2.481357098E0
5.088126920E0,1.001994491E0,-9.429515839E0,-2.130808592E0
5.092903795E0,8.165507317E-1,-8.856434822E0,-1.852044702E0
5.097667337E0,8.691928387E-1,-8.312665939E0,-1.440479279E0
5.102457493E0,1.080359459E0,-7.834699631E0,-9.086744189E-1
5.107234316E0,6.293123364E-1,-7.566703320E0,-4.989035130E-1
5.111997858E0,3.206382394E-1,-7.210771084E0,-2.386840582E-1
5.116788014E0,2.075773627E-1,-6.907480717E0,3.110669367E-2
5.121564837E0,1.316052526E-1,-6.681358814E0,2.087737769E-1
5.126328379E0,-1.495514158E-2,-6.450451851E0,4.683950245E-1
5.131118535E0,-1.950150430E-1,-6.359524250E0,5.988038778E-1
5.135895358E0,-5.617151260E-1,-6.399005890E0,5.718846321E-1
5.140658900E0,-1.089930773E0,-6.506084919E0,4.498506486E-1
5.145449056E0,-1.447059512E0,-6.728617191E0,3.080759048E-1
5.150225931E0,-1.527817249E0,-6.940382004E0,2.512463629E-1
5.155002754E0,-1.499701619E0,-7.114459991E0,7.836493850E-2
5.159779577E0,-1.399801254E0,-7.369295597E0,-6.101697683E-2
5.164556452E0,-1.327418327E0,-7.715656757E0,-1.573280841E-1
5.169333275E0,-1.247258782E0,-8.096714020E0,-3.828516304E-1
5.174110098E0,-1.152144074E0,-8.457431793E0,-5.802595019E-1
5.178886973E0,-1.099501967E0,-8.784649849E0,-7.477570772E-1
5.183663795E0,-1.065404296E0,-9.087940216E0,-7.716853023E-1
5.188440670E0,-9.595218897E-1,-9.430113792E0,-7.387840152E-1
5.193217493E0,-8.009973764E-1,-9.800403595E0,-6.334998012E-1
5.197981035E0,-5.988038778E-1,-1.012762165E1,-4.187439680E-1
5.202771191E0,-4.480560422E-1,-1.056132126E1,-1.214357466E-1
5.207548014E0,-3.535395563E-1,-1.096570778E1,2.045863420E-1
5.212311556E0,-1.992024779E-1,-1.147657585E1,3.529413342E-1
5.217101712E0,1.740778536E-1,-1.205803108E1,4.139583111E-1
5.221878535E0,1.036092162E0,-1.273041439E1,2.273181528E-1
5.226642077E0,1.878963947E0,-1.344586849E1,-9.272187948E-2
5.231432233E0,2.707478762E0,-1.404646683E1,-2.410768867E-1
5.236209108E0,3.645465374E0,-1.454955769E1,-3.942175210E-1
5.240972598E0,4.668396950E0,-1.517348671E1,-7.351947427E-1
5.245762754E0,5.834897995E0,-1.591227055E1,-9.613165259E-1
5.250539629E0,6.791429043E0,-1.616591072E1,-1.128814101E0
5.255303118E0,7.154539585E0,-1.578365612E1,-1.409970760E0
5.260093275E0,7.240083218E0,-1.529193115E1,-1.928615093E0
5.264870150E0,7.092924595E0,-1.437667656E1,-2.154138565E0
5.269633691E0,6.321238995E0,-1.300080395E1,-2.300100803E0
5.274423848E0,5.269593716E0,-1.143709373E1,-2.382055044E0
5.279200670E0,4.499702930E0,-9.960124016E0,-2.249253273E0
5.283964212E0,3.840480328E0,-8.642276764E0,-1.944766641E0
5.288754368E0,3.407379389E0,-7.645666599E0,-1.444068432E0
5.293531191E0,3.066402197E0,-6.933801651E0,-8.668000102E-1
5.298294733E0,2.609971285E0,-6.294918060E0,-3.948157430E-1
5.303084889E0,2.139183521E0,-5.794818401E0,-1.627119333E-1
5.307861712E0,1.573280931E0,-5.483152866E0,1.190429255E-1
5.312625254E0,1.052842021E0,-5.330610752E0,5.820540786E-1
5.317415410E0,5.593222976E-1,-5.293521881E0,9.254241586E-1
5.322192285E0,2.709871531E-1,-5.390431404E0,1.176670551E0
5.326955775E0,1.052841991E-1,-5.703890800E0,1.096511006E0
5.331745931E0,-2.075773627E-1,-6.186643124E0,9.828519225E-1
5.336522806E0,-4.642075896E-1,-6.553342819E0,9.314061999E-1
5.341286295E0,-7.298108935E-1,-6.833303452E0,8.608179688E-1
5.346076504E0,-9.762716293E-1,-7.122834682E0,8.434699774E-1
5.350853327E0,-1.133599758E0,-7.426723480E0,6.334998012E-1
5.355616868E0,-1.249053478E0,-7.609774113E0,3.367897868E-1
5.360407025E0,-1.403390527E0,-7.696514130E0,-1.088734269E-1
5.365183848E0,-1.593021631E0,-7.768897057E0,-6.693921089E-1
5.369947389E0,-1.824527264E0,-7.788637638E0,-1.219741344E0
5.374737545E0,-2.051247120E0,-7.813164234E0,-1.789831281E0
5.379514368E0,-2.328814745E0,-7.900502205E0,-2.186441660E0
5.384277910E0,-2.419741869E0,-7.968099594E0,-2.315654039E0
5.389068066E0,-2.196012974E0,-8.059026718E0,-2.282752752E0
5.393844889E0,-1.753340840E0,-8.197810173E0,-2.280359983E0
5.398621764E0,-1.223330617E0,-8.398807526E0,-2.115255117E0
5.403398587E0,-6.352944374E-1,-8.542376518E0,-1.667199135E0
5.408175410E0,-1.363908947E-1,-8.666205406E0,-1.093519926E0
5.412952285E0,1.489532143E-1,-8.805587769E0,-4.187439680E-1
5.417729108E0,4.534398913E-1,-8.940183640E0,2.709871531E-1
5.422505983E0,7.238288522E-1,-9.040681839E0,9.559326172E-1
5.427269473E0,1.013360381E0,-9.069396019E0,1.534995675E0
5.432059629E0,1.230509043E0,-9.117252350E0,1.980060697E0
5.436836504E0,1.517049551E0,-9.078369141E0,2.281556368E0
5.441600045E0,1.794616938E0,-9.010173798E0,2.529213428E0
5.446390202E0,1.795215130E0,-9.144769669E0,2.553740025E0
5.451167025E0,1.813759565E0,-9.275776863E0,2.476571321E0
5.455930566E0,1.914856315E0,-9.458230019E0,2.447259426E0
5.460720723E0,2.038684845E0,-9.631111145E0,2.437688112E0
5.465497545E0,2.105684042E0,-9.790233612E0,2.394019127E0
5.470274420E0,1.996212244E0,-9.973284721E0,2.303689957E0
5.475051243E0,1.828714728E0,-1.025264645E1,2.026122570E0
5.479828066E0,1.616949916E0,-1.060020447E1,1.437488198E0
5.484591608E0,1.484148264E0,-1.092263699E1,5.024927258E-1
5.489381764E0,1.551147223E0,-1.117268753E1,-3.332005441E-1
5.494158587E0,1.808973908E0,-1.136889839E1,-1.039681435E0
5.498922129E0,2.025524378E0,-1.156152058E1,-1.611566067E0
5.503712285E0,2.199602127E0,-1.176790142E1,-1.986641049E0
5.508489160E0,2.161915302E0,-1.200419331E1,-2.111067772E0
5.513252650E0,1.996810555E0,-1.232722378E1,-1.975873351E0
5.518042806E0,1.847259045E0,-1.268913841E1,-1.643869162E0
5.522819681E0,1.660618901E0,-1.305583858E1,-1.253240824E0
5.527583223E0,1.389033556E0,-1.340818214E1,-8.201399446E-1
5.532373379E0,1.016351461E0,-1.371326637E1,-4.486542344E-1
5.537150202E0,7.956135273E-1,-1.401236916E1,-1.639083475E-1
5.541913743E0,4.498506486E-1,-1.426361561E1,4.965107143E-2
5.546703900E0,9.032905847E-2,-1.448136234E1,1.812563092E-1
5.551480723E0,-4.139583111E-1,-1.464168167E1,1.932204217E-1
5.556244264E0,-9.517452121E-1,-1.476790333E1,1.375873014E-2
5.561034420E0,-1.462014675E0,-1.481815243E1,-2.428714931E-1
5.565811243E0,-1.788634896E0,-1.488574982E1,-7.016952634E-1
5.570574785E0,-1.996212244E0,-1.500658703E1,-1.237687469E0
5.575364941E0,-2.132004976E0,-1.521835232E1,-1.798804402E0
5.580141816E0,-2.195414782E0,-1.554078484E1,-2.263610125E0
5.584905306E0,-2.081755638E0,-1.596491241E1,-2.566302299E0
5.589695462E0,-1.862214208E0,-1.638784409E1,-2.701496840E0
5.594472337E0,-1.595414519E0,-1.673899078E1,-2.717050076E0
5.599235827E0,-1.288534999E0,-1.702732658E1,-2.603390932E0
5.604025983E0,-9.726824164E-1,-1.722951889E1,-2.408375978E0
5.608802858E0,-7.334001660E-1,-1.734916115E1,-2.149951220E0
5.613566400E0,-5.551348329E-1,-1.748375702E1,-1.848455548E0
5.618356504E0,-3.481557071E-1,-1.763270950E1,-1.595414519E0
5.623133379E0,-8.913264424E-2,-1.779123497E1,-1.308874011E0
5.627896920E0,2.315055877E-1,-1.780977821E1,-1.050449133E0
5.632687077E0,2.650051117E-1,-1.771346855E1,-9.499505758E-1
5.637463900E0,2.117647976E-1,-1.744367790E1,-9.164510965E-1
5.642240775E0,3.290131092E-1,-1.694238091E1,-9.655039310E-1
5.647017598E0,5.503492355E-1,-1.634477234E1,-1.005583763E0
5.651794420E0,7.956135273E-1,-1.573639774E1,-1.093519926E0
5.656557962E0,1.006780148E0,-1.514357662E1,-1.238883972E0
5.661348118E0,1.193420291E0,-1.454058456E1,-1.456630826E0
5.666124941E0,1.261615753E0,-1.388554955E1,-1.644467354E0
5.670888483E0,1.281954765E0,-1.318684578E1,-1.870589137E0
5.675678639E0,1.220937729E0,-1.242054367E1,-2.134397745E0
5.680455462E0,8.656035662E-1,-1.190608692E1,-2.387438774E0
5.685219004E0,4.869394004E-1,-1.147837067E1,-2.597409010E0
5.690009160E0,1.519442350E-1,-1.098724365E1,-2.667997360E0
5.694786035E0,-1.453639716E-1,-1.047278690E1,-2.772084951E0
5.699549577E0,-4.277170599E-1,-9.976874352E0,-2.766103029E0
5.704339681E0,-7.292127013E-1,-9.568299294E0,-2.846860647E0
5.709116556E0,-1.083948612E0,-9.236893654E0,-3.128017426E0
5.713880098E0,-1.381855130E0,-9.063413620E0,-3.563511133E0
5.718670254E0,-1.466202021E0,-8.995817184E0,-4.033102512E0
5.723447077E0,-1.212562919E0,-8.995218277E0,-4.591228485E0
5.728210618E0,-7.585247755E-1,-8.998209953E0,-4.963312149E0
5.733000775E0,-1.794617064E-2,-9.165108681E0,-4.597210407E0
5.737777598E0,4.731806815E-1,-9.675378799E0,-3.851248026E0
5.742554473E0,8.333004713E-1,-1.068694401E1,-3.113062143E0
5.747331295E0,2.824128866E0,-1.164586735E1,-2.422134638E0
5.752108118E0,4.654638290E0,-1.265324593E1,-2.469393015E0
5.756871660E0,5.275575638E0,-1.350389481E1,-2.491526604E0
5.761661816E0,5.536393166E0,-1.389452267E1,-2.050648928E0
5.766438639E0,5.222933769E0,-1.439581966E1,-1.396211982E0
5.771202181E0,5.563910961E0,-1.485404491E1,-4.043870270E-1
5.775992337E0,5.888138294E0,-1.571007729E1,8.434699476E-2
5.780769212E0,5.130211830E0,-1.596311760E1,4.869394004E-1
5.785532702E0,4.440480709E0,-1.583450413E1,5.335994363E-1
5.790322858E0,4.110270977E0,-1.571007729E1,3.768695593E-1
5.795099733E0,3.069991350E0,-1.530329704E1,7.704889178E-1
5.799863275E0,1.448854089E0,-1.460339642E1,6.203392744E-1
5.804653431E0,-3.643072546E-1,-1.359601784E1,2.309073806E-1
5.809430254E0,-1.614557028E0,-1.261196995E1,2.458625287E-1
5.814193795E0,-2.223530531E0,-1.181336498E1,5.509474277E-1
5.818983952E0,-2.465803623E0,-1.132283688E1,8.781659007E-1
5.823760775E0,-2.669791937E0,-1.100518990E1,1.224527001E0
5.828524316E0,-1.984248161E0,-1.061396313E1,1.484746456E0
5.833314473E0,-1.770090580E0,-1.053141022E1,1.588834286E0
5.838091295E0,-1.828116536E0,-1.052662468E1,1.349551916E0
5.842854837E0,-1.944766641E0,-1.051705360E1,9.661021233E-1
5.847644993E0,-1.928016901E0,-1.047398281E1,6.394818425E-1
5.852421816E0,-1.684547186E0,-1.042014408E1,3.888336942E-2
5.857198691E0,-1.119242787E0,-1.032682419E1,-8.524430394E-1
5.861975514E0,-4.073780477E-1,-1.021316528E1,-1.811366796E0
5.866752389E0,2.931207791E-2,-1.005284595E1,-2.778067112E0
5.871515879E0,2.099701911E-1,-9.690931320E0,-3.388834953E0
5.876306035E0,9.990034252E-2,-9.315258980E0,-4.046263218E0
5.881082910E0,-6.819544733E-2,-9.035896301E0,-4.241876125E0
5.885846400E0,-4.199403822E-1,-8.819944382E0,-4.000201225E0
5.890636608E0,-9.649057388E-1,-8.528019905E0,-3.460021496E0
5.895413431E0,-1.202991605E0,-8.230113029E0,-2.605185747E0
5.900176973E0,-1.375274777E0,-7.917252064E0,-1.841277003E0
5.904967129E0,-1.435095429E0,-7.551748276E0,-1.284945726E0
5.909743952E0,-1.520638824E0,-7.007979393E0,-9.002995491E-1
5.914507493E0,-1.487139225E0,-6.247061729E0,-5.700899959E-1
5.919297650E0,-1.725225091E0,-5.279164791E0,-4.606183618E-2
5.924074473E0,-2.411965132E0,-3.710669756E0,4.408775866E-1
5.928838014E0,-3.102892876E0,-2.107478619E0,4.097708762E-1
5.933628170E0,-3.449851990E0,-7.310073376E-1,3.720839322E-1
5.938404993E0,-3.412165165E0,8.374879509E-2,-3.170489892E-2
5.943168535E0,-2.727817774E0,4.612165689E-1,-6.161518097E-1
5.947958691E0,-2.129612207E0,2.656033039E-1,-9.888339639E-1
5.952735514E0,-1.859223247E0,-1.956132501E-1,-1.398006678E0
5.957499056E0,-1.682752490E0,-7.591229677E-1,-1.566700578E0
5.962289212E0,-1.475175142E0,-1.428515077E0,-1.572084427E0
5.967066087E0,-1.301695466E0,-2.059023857E0,-1.481157184E0
5.971842910E0,-1.280160069E0,-2.574677229E0,-1.351346612E0
5.976619733E0,-1.154536963E0,-2.988635540E0,-1.207179070E0
5.981396608E0,-1.271785259E0,-3.282952785E0,-1.153938770E0
5.986173431E0,-1.271187067E0,-3.523431301E0,-1.143769264E0
5.990950254E0,-1.337587833E0,-3.586242914E0,-1.205982566E0
5.995727129E0,-1.390229940E0,-3.596412420E0,-1.220339537E0
6.000503952E0,-1.496112347E0,-3.495315790E0,-1.301695466E0
6.005280827E0,-1.335195065E0,-3.403192043E0,-1.465603828E0
6.010057650E0,-1.217946768E0,-3.282354355E0,-1.610369682E0
6.014834473E0,-1.028315544E0,-3.233899832E0,-1.731207132E0
6.019611348E0,-1.044467092E0,-3.017349243E0,-1.928016901E0
6.024388170E0,-6.035895348E-1,-2.900699139E0,-2.035693884E0
6.029164993E0,-1.178465188E-1,-2.956930637E0,-2.091326952E0
6.033941868E0,2.452643216E-2,-3.033500910E0,-2.168495417E0
6.038718691E0,1.435693540E-2,-3.067598581E0,-2.302493572E0
6.043495566E0,9.930214286E-2,-3.100499868E0,-2.423929453E0
6.048272389E0,2.650051117E-1,-3.100499868E0,-2.529811859E0
6.053049212E0,5.216353536E-1,-3.186043262E0,-2.617748022E0
6.057826087E0,6.400800347E-1,-3.229114056E0,-2.670988321E0
6.062602910E0,8.410771489E-1,-3.310470104E0,-2.653042078E0
6.067379785E0,1.022333503E0,-3.401995659E0,-2.596212626E0
6.072156608E0,1.160519004E0,-3.492922783E0,-2.611167669E0
6.076933431E0,1.298106313E0,-3.559921980E0,-2.717648268E0
6.081710306E0,1.411167145E0,-3.579064369E0,-2.852244616E0
6.086487129E0,1.462612867E0,-3.603590965E0,-3.072982550E0
6.091263952E0,1.579861164E0,-3.650849104E0,-3.299104214E0
6.096040827E0,1.568495274E0,-3.704089403E0,-3.630510092E0
6.100817650E0,1.533799291E0,-3.751945972E0,-3.961317778E0
6.105594525E0,1.465005636E0,-3.795614958E0,-4.287340164E0
6.110371348E0,1.434497118E0,-3.862613916E0,-4.622933388E0
6.115134889E0,1.362114310E0,-3.944568157E0,-4.925027370E0
6.119925045E0,1.351346612E0,-4.083950043E0,-5.131408215E0
6.124701868E0,1.384247899E0,-4.276572227E0,-5.341976643E0
6.129465410E0,1.459621787E0,-4.488337040E0,-5.519643784E0
6.134255566E0,1.634896040E0,-4.738387108E0,-5.842674732E0
6.139032389E0,2.953939438E0,-5.409573555E0,-5.997610092E0
6.143795931E0,3.038884640E0,-5.876772404E0,-6.429514408E0
6.148586087E0,2.377867460E0,-5.824728489E0,-7.036095142E0
6.153362910E0,2.897109985E0,-5.997011662E0,-7.782057285E0
6.158126452E0,3.577269793E0,-6.230910301E0,-8.793025017E0
6.162916608E0,4.318446636E0,-6.637690067E0,-9.952945709E0
6.167693483E0,4.985445976E0,-7.103094101E0,-1.078205872E1
6.172456973E0,5.452046394E0,-7.602595806E0,-1.104287624E1
6.177247129E0,5.832505226E0,-8.161319733E0,-1.060319519E1
6.182024004E0,5.979663849E0,-8.748757362E0,-9.384650230E0
6.186787545E0,5.618945599E0,-9.178867340E0,-7.923233986E0
6.191577650E0,4.712066174E0,-9.625128746E0,-7.040282249E0
6.196354525E0,2.948555708E0,-9.995418549E0,-6.944569588E0
6.201118066E0,1.910070658E0,-1.047039413E1,-7.471588612E0
6.205908170E0,1.049850941E0,-1.137248802E1,-7.758727551E0
6.210685045E0,5.437689424E-1,-1.212562847E1,-7.698308468E0
6.215448587E0,6.083751321E-1,-1.283330631E1,-9.113663673E0
6.220238743E0,1.162911773E0,-1.347637749E1,-1.147777176E1
6.225015566E0,2.603989124E0,-1.430549049E1,-1.355234909E1
6.229779108E0,4.351946354E0,-1.544267941E1,-1.382034492E1
6.234569264E0,5.825326920E0,-1.661516190E1,-1.232004547E1
6.239346087E0,6.790232658E0,-1.771765518E1,-9.920044899E0
6.244109629E0,6.902695179E0,-1.862453461E1,-6.771687984E0
6.248899785E0,6.108876228E0,-1.911865234E1,-3.777668715E0
6.253676608E0,4.887938499E0,-1.880938148E1,-2.490330219E0
6.258440150E0,3.669991732E0,-1.785344887E1,-2.810968399E0
6.263230306E0,2.332403898E0,-1.652184296E1,-3.822534084E0
6.268007129E0,1.268794179E0,-1.498265934E1,-4.969892502E0
6.272770670E0,3.194418252E-1,-1.328794193E1,-6.098706722E0
6.277560827E0,-6.472585201E-1,-1.162313557E1,-6.823731899E0
6.282337702E0,-1.593619823E0,-1.013659477E1,-6.809973240E0
6.287101191E0,-1.430907965E0,-8.676973343E0,-5.962913990E0
6.291891348E0,-1.971087694E0,-7.931608677E0,-5.163711071E0
6.296668223E0,-2.620738983E0,-7.307680130E0,-4.344767570E0
6.301431764E0,-2.496312141E0,-6.966104984E0,-3.357130051E0
6.306221920E0,-2.068595171E0,-6.632306099E0,-2.438884497E0
6.310998743E0,-2.461616278E0,-6.609574318E0,-2.230110645E0
6.315762285E0,-2.248056889E0,-6.286543369E0,-2.053640127E0
6.320552441E0,-1.871785522E0,-6.145965099E0,-1.916650891E0
6.325329264E0,-1.192223907E0,-5.894120216E0,-1.987837434E0
6.330092806E0,-6.705885530E-1,-5.694319725E0,-2.105684042E0
6.334882962E0,-9.571290761E-2,-5.568098068E0,-2.175673962E0
6.339659785E0,1.926222295E-1,-5.470590591E0,-2.383849621E0
6.344423327E0,6.358926296E-1,-5.310271740E0,-2.894717216E0
6.349213483E0,9.284151793E-1,-5.256433010E0,-3.347558975E0
6.353990306E0,8.751748800E-1,-5.386841774E0,-3.568296671E0
6.358767181E0,7.764709592E-1,-5.661418438E0,-3.524627686E0
6.363544004E0,6.323033571E-1,-6.086144447E0,-3.196810961E0
6.368320827E0,5.132604837E-1,-6.631109715E0,-2.682354212E0
6.373097702E0,1.052841991E-1,-7.388438225E0,-2.185245275E0
6.377874525E0,5.862415582E-2,-8.193622589E0,-1.704886079E0
6.382651400E0,1.525424421E-1,-8.983254433E0,-1.465005636E0
6.387414889E0,1.028913707E-1,-9.706484795E0,-1.459023595E0
6.392205045E0,8.554340899E-2,-1.034237766E1,-1.472782373E0
6.396981920E0,1.190429255E-1,-1.079043388E1,-1.698305845E0
6.401745410E0,2.590230405E-1,-1.115593719E1,-1.583450437E0
6.406535566E0,4.313062727E-1,-1.146401310E1,-1.488335729E0
6.411312441E0,3.074777126E-1,-1.168594742E1,-1.679761529E0
6.416075983E0,1.770688742E-1,-1.172961617E1,-2.000399828E0
6.420866139E0,-1.674975902E-1,-1.168175983E1,-2.334198475E0
6.425642962E0,-3.589234054E-1,-1.153340530E1,-2.482553482E0
6.430419785E0,-6.640082598E-1,-1.130249786E1,-2.384447813E0
6.435196660E0,-1.139581800E0,-1.094237804E1,-2.214557409E0
6.439973483E0,-1.592423439E0,-1.050987530E1,-2.059023857E0
6.444737025E0,-1.844268084E0,-1.001934624E1,-1.832303882E0
6.449527181E0,-2.148754835E0,-9.470791817E0,-1.538584948E0
6.454304004E0,-2.111067772E0,-9.027522087E0,-1.323230863E0
6.459067545E0,-1.877169371E0,-8.636893272E0,-9.840483069E-1
6.463857702E0,-1.667199135E0,-8.256434441E0,-6.496513486E-1
6.468634525E0,-1.203589797E0,-7.951349735E0,-2.542374134E-1
6.473398066E0,-7.794619799E-1,-7.680960655E0,1.184447184E-1
6.478188223E0,-5.347958803E-1,-7.497311592E0,5.246263742E-1
6.482965045E0,-6.628118753E-1,-7.358527660E0,6.789634228E-1
6.487728587E0,-6.717849374E-1,-7.295716286E0,7.555337548E-1
6.492518743E0,-8.709874153E-1,-7.243073940E0,9.337990284E-1
6.497295618E0,-1.060020447E0,-7.325626373E0,1.084546804E0
6.502059108E0,-1.101296663E0,-7.398009300E0,1.252642632E0
6.506849264E0,-1.118644595E0,-7.648657799E0,1.368096352E0
6.511626139E0,-1.084546804E0,-7.980661869E0,1.363310695E0
6.516402962E0,-1.026520967E0,-8.347361565E0,1.329213023E0
6.521179785E0,-8.015955687E-1,-8.813961983E0,1.280758262E0
6.525956660E0,-3.768695593E-1,-9.260822296E0,1.312463164E0
6.530720202E0,1.591227055E-1,-9.760921478E0,1.482353687E0
6.535510358E0,6.699903607E-1,-1.022154045E1,1.667199135E0
6.540287181E0,1.101296663E0,-1.080419254E1,1.785643935E0
6.545050723E0,1.503290772E0,-1.139043427E1,1.836491346E0
6.549840879E0,1.875374794E0,-1.202094269E1,1.633699656E0
6.554617702E0,2.508276224E0,-1.280937767E1,1.290329576E0
6.559381243E0,3.174079180E0,-1.353978729E1,8.021938205E-1
6.564171400E0,4.420141697E0,-1.438923931E1,3.164508045E-1
6.568948223E0,5.807978630E0,-1.496890068E1,-2.135594189E-1
6.573711764E0,7.152146816E0,-1.508555031E1,-6.137589812E-1
6.578501920E0,7.603792191E0,-1.441436386E1,-1.153938770E0
6.583278743E0,6.860820770E0,-1.299960709E1,-2.048256159E0
6.588042285E0,5.362315655E0,-1.135992527E1,-2.737987280E0
6.592832441E0,3.862613916E0,-9.875179291E0,-2.822334290E0
6.597609264E0,2.983251572E0,-8.518448830E0,-2.790031195E0
6.602372806E0,2.553141832E0,-7.555935860E0,-2.615355253E0
6.607162962E0,2.057827473E0,-6.771687984E0,-2.286940336E0
6.611939837E0,1.634896040E0,-6.118447304E0,-1.800599098E0
6.616703327E0,1.427916884E0,-5.776273727E0,-1.291526079E0
6.621493483E0,1.177866936E0,-5.618347645E0,-8.769695163E-1
6.626270358E0,8.267202377E-1,-5.537590027E0,-7.507480979E-1
6.631033900E0,1.280160099E-1,-5.592026711E0,-6.364908218E-1
6.635824004E0,-4.671986103E-1,-5.776273727E0,-7.196413875E-1
6.640600879E0,-5.216353536E-1,-6.061617851E0,-4.941178858E-1
6.645364368E0,-1.860419661E-1,-6.416952133E0,-2.793620527E-1
6.650154525E0,2.518445849E-1,-6.734001160E0,-3.391826153E-1
6.654931400E0,4.959124923E-1,-7.046862602E0,-3.403790295E-1
6.659708223E0,5.533402562E-1,-7.383652687E0,-3.930211067E-1
6.664485098E0,7.256234884E-1,-7.758727551E0,-3.936193287E-1
6.669261920E0,8.285148144E-1,-8.096115112E0,-2.213360965E-1
6.674038743E0,8.261220455E-1,-8.346763611E0,5.324030295E-2
6.678815618E0,7.525427341E-1,-8.505886078E0,3.266202807E-1
6.683592441E0,6.771687865E-1,-8.607581139E0,5.048855543E-1
6.688369316E0,7.016952634E-1,-8.660223007E0,6.436693072E-1
6.693146139E0,7.411768436E-1,-8.674580574E0,8.117650747E-1
6.697922962E0,1.046261668E0,-8.712865829E0,8.817551732E-1
6.702699837E0,1.190429211E0,-8.803792953E0,1.030708313E0
6.707476660E0,1.287338614E0,-8.924032211E0,1.284347534E0
6.712253483E0,1.498505235E0,-9.087342262E0,1.561316729E0
6.717030358E0,1.667199135E0,-9.337990761E0,1.747956991E0
6.721807181E0,1.768295884E0,-9.641280174E0,1.814955950E0
6.726584004E0,1.883749604E0,-9.929615974E0,1.752144337E0
6.731347545E0,1.978266120E0,-1.024247742E1,1.535593987E0
6.736137702E0,1.902294040E0,-1.059960651E1,1.301695466E0
6.740914525E0,1.878365755E0,-1.087896824E1,1.210768223E0
6.745678066E0,1.907677889E0,-1.113380337E1,1.148554921E0
6.750468223E0,2.074577332E0,-1.133599758E1,1.176072359E0
6.755245098E0,2.274976015E0,-1.155733299E1,1.141974568E0
6.760008587E0,2.035095692E0,-1.177926731E1,6.484549642E-1
6.764798743E0,1.868794441E0,-1.208734322E1,-1.513460279E-1
6.769575618E0,1.808375716E0,-1.230867958E1,-8.614161611E-1
6.774339160E0,1.768295884E0,-1.253480148E1,-1.298106313E0
6.779129316E0,1.625324726E0,-1.265145111E1,-1.393221021E0
6.783906139E0,1.574477315E0,-1.266162109E1,-1.133001566E0
6.788682962E0,1.562513232E0,-1.259402370E1,-7.495517135E-1
6.793459837E0,1.607378602E0,-1.239123249E1,-3.517449200E-1
6.798236660E0,1.609173179E0,-1.217946720E1,1.477568001E-1
6.803013483E0,1.336989641E0,-1.217109203E1,6.717849374E-1
6.807790358E0,1.007378340E0,-1.216750336E1,1.254437327E0
6.812567181E0,7.585247755E-1,-1.226919842E1,1.673181176E0
6.817330723E0,5.365904570E-1,-1.241934776E1,1.990828395E0
6.822120879E0,2.255235314E-1,-1.259880924E1,2.295315027E0
6.826897702E0,-5.264209956E-2,-1.281655598E1,2.589632273E0
6.831661243E0,-3.074777126E-1,-1.309113312E1,2.749353170E0
6.836451400E0,-6.017948985E-1,-1.340997601E1,2.818146944E0
6.841228223E0,-9.391828775E-1,-1.360319710E1,2.781656265E0
6.845991764E0,-1.429711580E0,-1.371087360E1,2.568695068E0
6.850781920E0,-2.088335991E0,-1.382333660E1,2.245664120E0
6.855558743E0,-2.398206472E0,-1.400698566E1,1.925624013E0
6.860322285E0,-2.681157827E0,-1.423849106E1,1.543370605E0
6.865112441E0,-2.978466034E0,-1.449392509E1,1.046261668E0
6.869889316E0,-3.008376360E0,-1.482712555E1,6.191428304E-1
6.874652806E0,-3.066402197E0,-1.507238960E1,2.841476798E-1
6.879442962E0,-3.038286448E0,-1.532722569E1,8.733802289E-2
6.884219837E0,-2.719442844E0,-1.565384579E1,-1.495514158E-2
6.888983327E0,-2.529213428E0,-1.593799305E1,-2.799602449E-1
6.893773483E0,-2.239083767E0,-1.628435516E1,-4.396811724E-1
6.898550358E0,-1.948355794E0,-1.660618973E1,-4.839483798E-1
6.903313900E0,-1.670788407E0,-1.694238091E1,-3.505485058E-1
6.908104004E0,-1.482951880E0,-1.720260048E1,-1.932204217E-1
6.912880879E0,-1.348953724E0,-1.733241081E1,-2.177468538E-1
6.917644420E0,-1.193420291E0,-1.713440514E1,-3.337987661E-1
6.922434577E0,-1.281356573E0,-1.670070648E1,-4.247260094E-1
6.927211400E0,-1.509272933E0,-1.609412575E1,-7.692924738E-1
6.931988223E0,-1.523629785E0,-1.549173164E1,-1.197009563E0
6.936765098E0,-1.261615753E0,-1.501914978E1,-1.759921074E0
6.941541920E0,-9.768698215E-1,-1.443470287E1,-2.352144718E0
6.946305462E0,-7.824530005E-1,-1.376471233E1,-2.910270452E0
6.951095618E0,-5.826523304E-1,-1.314736366E1,-3.309871912E0
6.955872441E0,-4.917250574E-1,-1.248634720E1,-3.685544968E0
6.960635983E0,-5.198407173E-1,-1.194197941E1,-4.045664787E0
6.965426139E0,-5.371887088E-1,-1.148973656E1,-4.290330887E0
6.970202962E0,-5.300102234E-1,-1.109372425E1,-4.492524624E0
6.974966504E0,-5.228317380E-1,-1.066540909E1,-4.670789719E0
6.979756660E0,-4.157529473E-1,-1.038066292E1,-4.853840828E0
6.984533483E0,-2.793620527E-1,-1.006660461E1,-5.079962254E0
6.989297025E0,-6.622136831E-1,-1.004327488E1,-5.380261898E0
6.994087181E0,-9.104689956E-1,-1.016471100E1,-5.638088226E0
6.998864056E0,-9.924231768E-1,-1.033819008E1,-5.911468506E0
7.003627545E0,-1.012762189E0,-1.056969547E1,-6.227919102E0
7.008417702E0,-9.427721500E-1,-1.082453156E1,-6.592226505E0
7.013194577E0,-9.296116233E-1,-1.108415222E1,-6.894918442E0
7.017958066E0,-9.343972206E-1,-1.138744259E1,-7.063014030E0
7.022748223E0,-8.327022791E-1,-1.170090294E1,-6.938587666E0
7.027525098E0,-7.758727670E-1,-1.180199909E1,-6.256632805E0
7.032301920E0,-3.266202807E-1,-1.176790142E1,-5.169693470E0
7.037078743E0,8.542376757E-1,-1.161595726E1,-4.091726780E0
7.041855618E0,2.967100143E0,-1.108594704E1,-2.893520832E0
7.046619160E0,5.121238708E0,-1.030588722E1,-1.124626637E0
7.051409264E0,5.705685616E0,-9.799804688E0,5.276173949E-1
7.056186139E0,4.808377266E0,-1.052483082E1,1.343569875E0
7.060949681E0,3.262613773E0,-1.121336555E1,2.537588358E0
7.065739837E0,2.835494757E0,-1.164407349E1,4.147359848E0
7.070516660E0,2.844467878E0,-1.219382381E1,5.357530117E0
7.075280202E0,2.059622049E0,-1.294277763E1,5.688337803E0
7.080070358E0,1.051047325E0,-1.321436310E1,5.478367329E0
7.084847181E0,1.216750264E0,-1.358465195E1,5.222933769E0
7.089610723E0,1.426720500E0,-1.377727413E1,4.487739086E0
7.094400879E0,1.710269928E0,-1.377129269E1,3.358924866E0
7.099177702E0,1.971685886E0,-1.374556923E1,1.686939955E0
7.103941243E0,1.908276081E0,-1.369113255E1,-1.453639716E-1
7.108731400E0,1.216750264E0,-1.338425350E1,-1.702493310E0
7.113508223E0,5.030909777E-1,-1.287039471E1,-2.980260611E0
7.118271764E0,9.870393574E-2,-1.221535969E1,-3.472583771E0
7.123061920E0,-1.591227055E-1,-1.165783215E1,-3.361317635E0
7.127838743E0,-3.822534084E-1,-1.120977592E1,-2.933600664E0
7.132602285E0,-5.258227587E-1,-1.092622662E1,-2.174477577E0
7.137392441E0,-7.537391186E-1,-1.088435173E1,-1.305284739E0
7.142169264E0,-9.337990284E-1,-1.101954651E1,-5.024927258E-1
7.146932806E0,-9.732806087E-1,-1.102014446E1,6.400800496E-2
7.151722962E0,-1.001396298E0,-1.100578785E1,1.459621787E-1
7.156499837E0,-9.678967595E-1,-1.109731293E1,8.793623000E-2
7.161276660E0,-9.266205430E-1,-1.099083233E1,-7.058826834E-2
7.166053483E0,-5.712863803E-1,-1.088435173E1,-2.117647976E-1
7.170830358E0,-1.160518974E-1,-1.068096161E1,-4.492524564E-1
7.175607181E0,3.840480447E-1,-1.037109184E1,-9.367900491E-1
7.180384004E0,8.745766878E-1,-1.001276588E1,-1.463211060E0
7.185160879E0,1.070788145E0,-9.641280174E0,-1.828714728E0
7.189924420E0,1.073180914E0,-9.318847656E0,-2.121835470E0
7.194714525E0,9.038887620E-1,-8.981459618E0,-2.327019930E0
7.199491400E0,6.550351977E-1,-8.611170769E0,-2.307279348E0
7.204254941E0,3.032902777E-1,-8.231309891E0,-2.123031855E0
7.209045098E0,-1.286142170E-1,-7.765307903E0,-1.703689694E0
7.213821920E0,-5.611169338E-1,-7.275377274E0,-1.289731383E0
7.218585462E0,-8.267202377E-1,-6.716653347E0,-9.092726111E-1
7.223375618E0,-1.201795220E0,-6.062814236E0,-4.905286431E-1
7.228152441E0,-1.988435626E0,-5.111069202E0,-1.609173268E-1
7.232915983E0,-2.951546669E0,-4.164109707E0,1.196411345E-2
7.237706139E0,-3.728615999E0,-3.029313564E0,2.069791555E-1
7.242482962E0,-4.404588223E0,-1.571486235E0,2.243271172E-1
7.247246504E0,-4.633102894E0,-6.562315822E-1,-9.690931439E-2
7.252036660E0,-4.466801643E0,-2.703889608E-1,-7.316055298E-1
7.256813483E0,-3.837489367E0,-3.601198196E-1,-1.316052437E0
7.261577025E0,-3.195016384E0,-7.244270444E-1,-1.524826288E0
7.266367181E0,-2.684746981E0,-1.281356573E0,-1.579861164E0
7.271144004E0,-2.378465652E0,-1.887937069E0,-1.590628862E0
7.275920879E0,-1.981257200E0,-2.475374937E0,-1.491924882E0
7.280697702E0,-1.683350682E0,-3.028715372E0,-1.348953724E0
7.285474525E0,-1.333998680E0,-3.470789194E0,-1.272981644E0
7.290238066E0,-8.566305041E-1,-3.874577999E0,-1.227517962E0
7.295028223E0,-6.664010882E-1,-4.148556232E0,-1.325025558E0
7.299805045E0,-6.143572330E-1,-4.326223373E0,-1.473380566E0
7.304581920E0,-5.820540786E-1,-4.393820763E0,-1.627119422E0
7.309358743E0,-5.018945336E-1,-4.345366001E0,-1.737787485E0
7.314135566E0,-6.035895348E-1,-4.182055950E0,-1.958525300E0
7.318912441E0,-5.240281820E-1,-3.964907169E0,-2.097907305E0
7.323689264E0,-4.636093974E-1,-3.733401537E0,-2.208575249E0
7.328466139E0,-4.797609448E-1,-3.458226919E0,-2.357528448E0
7.333242962E0,-3.762713671E-1,-3.221935749E0,-2.435295343E0
7.338019785E0,-3.254238665E-1,-2.995813847E0,-2.618346214E0
7.342796660E0,-2.889333367E-1,-2.812762976E0,-2.786442041E0
7.347573483E0,-3.349951655E-2,-2.696112871E0,-2.907877684E0
7.352350306E0,3.708875179E-2,-2.546561480E0,-3.004188776E0
7.357127181E0,6.418746710E-1,-2.747558594E0,-2.944966555E0
7.361890723E0,1.076770186E0,-3.107678413E0,-2.846262455E0
7.366680879E0,8.488538265E-1,-3.305684566E0,-2.897708178E0
7.371457702E0,7.244270444E-1,-3.488735437E0,-3.016751051E0
7.376234525E0,8.392825127E-1,-3.672384501E0,-3.108276606E0
7.381011400E0,9.056833982E-1,-3.787240028E0,-3.262015581E0
7.385788223E0,1.037886858E0,-3.897907972E0,-3.435495138E0
7.390565045E0,1.426720500E0,-4.055834293E0,-3.653840065E0
7.395341868E0,1.682752490E0,-4.223331928E0,-3.890131474E0
7.400118743E0,1.877169371E0,-4.323830605E0,-4.144967079E0
7.404882285E0,2.285743713E0,-4.472185612E0,-4.276572227E0
7.409672441E0,2.594418049E0,-4.543970108E0,-4.436293125E0
7.414449264E0,2.722434044E0,-4.581656933E0,-4.523631096E0
7.419212806E0,2.821736097E0,-4.605585575E0,-4.552345276E0
7.424002962E0,2.897708178E0,-4.586442947E0,-4.572085857E0
7.428779785E0,2.841476917E0,-4.576871395E0,-4.485345840E0
7.433556660E0,2.723032236E0,-4.533800602E0,-4.355535507E0
7.438333483E0,2.590230465E0,-4.466801643E0,-4.234697819E0
7.443110306E0,2.490928411E0,-4.404588223E0,-4.152743816E0
7.447887181E0,2.452643156E0,-4.351347923E0,-4.124029636E0
7.452664004E0,2.495115757E0,-4.370490551E0,-4.229912281E0
7.457440827E0,2.727219582E0,-4.505086899E0,-4.427320004E0
7.462217702E0,3.093919754E0,-4.831707001E0,-4.650450706E0
7.466994525E0,3.386442184E0,-5.038087845E0,-5.054837704E0
7.471771348E0,3.287738323E0,-5.047659397E0,-5.663212776E0
7.476534889E0,3.563511133E0,-5.027320385E0,-6.495316982E0
7.481325045E0,4.009174347E0,-5.112265587E0,-7.514659405E0
7.486101868E0,4.535595417E0,-5.317450047E0,-8.760123253E0
7.490865410E0,5.525625706E0,-5.936593056E0,-9.772886276E0
7.495655566E0,6.247061729E0,-6.830312252E0,-1.050090218E1
7.500432441E0,6.418746948E0,-7.807780266E0,-1.102851963E1
7.505195931E0,6.145366669E0,-8.786444664E0,-1.102672482E1
7.509986087E0,5.383252621E0,-9.786046028E0,-1.021555805E1
7.514762962E0,4.494318962E0,-1.063669491E1,-8.948558807E0
7.519526452E0,2.543570518E0,-1.169252777E1,-7.958528042E0
7.524316608E0,3.260220885E-1,-1.261795235E1,-7.768897057E0
7.529093483E0,-1.015154958E0,-1.360319710E1,-8.231907845E0
7.533856973E0,-8.237292171E-1,-1.476790333E1,-9.465408325E0
7.538647129E0,8.386843204E-1,-1.588116360E1,-1.126780224E1
7.543424004E0,2.631506681E0,-1.718704605E1,-1.283091354E1
7.548187545E0,4.199403763E0,-1.856052780E1,-1.325563908E1
7.552977650E0,5.700900078E0,-1.999741745E1,-1.268196011E1
7.557754525E0,6.844669342E0,-2.137807655E1,-1.155434227E1
7.562518066E0,7.078567505E0,-2.261636162E1,-9.750154495E0
7.567308170E0,6.117849350E0,-2.313081741E1,-7.604390144E0
7.572085045E0,4.350151539E0,-2.257628250E1,-6.156134605E0
7.576848587E0,2.816352367E0,-2.086541367E1,-6.307480335E0
7.581638691E0,1.552941918E0,-1.838704681E1,-6.960721016E0
7.586415566E0,5.467599630E-1,-1.565743542E1,-6.702296257E0
7.591179108E0,-7.920243144E-1,-1.285783291E1,-5.531009674E0
7.595969264E0,-2.321636200E0,-1.005763149E1,-4.445266247E0
7.600746087E0,-3.238087177E0,-7.603193760E0,-3.583850145E0
7.605509629E0,-3.720839262E0,-5.576473236E0,-2.963510752E0
7.610299785E0,-3.464209080E0,-4.207778454E0,-2.264806747E0
7.615076608E0,-2.845664263E0,-3.195016384E0,-1.673779488E0
7.619840150E0,-2.541775942E0,-2.760719061E0,-1.637288928E0
7.624630306E0,-2.157727718E0,-2.610569477E0,-1.687538147E0
7.629407129E0,-1.897508383E0,-2.450250387E0,-1.871187329E0
7.634170670E0,-2.019542217E0,-2.504088879E0,-2.398206472E0
7.638960827E0,-2.406581402E0,-2.639283419E0,-2.785245657E0
7.643737650E0,-2.528615236E0,-2.745764017E0,-3.355335474E0
7.648501191E0,-2.242672920E0,-2.787638426E0,-4.024129391E0
7.653291348E0,-1.782652855E0,-3.013161898E0,-4.319045067E0
7.658068170E0,-1.475773335E0,-3.330210924E0,-4.195216179E0
7.662831712E0,-1.205384374E0,-3.845266104E0,-3.803391695E0
7.667621868E0,-1.027717352E0,-4.529015064E0,-3.141177893E0
7.672398691E0,-8.297112584E-1,-5.382056236E0,-2.248655081E0
7.677162233E0,-7.351947427E-1,-6.282954216E0,-1.264606714E0
7.681952389E0,-5.802595019E-1,-7.121638298E0,-4.737788737E-1
7.686729212E0,-3.547359705E-1,-7.925626755E0,8.733802289E-2
7.691492754E0,-2.075773627E-1,-8.797212601E0,3.990031779E-1
7.696282910E0,-1.471585929E-1,-9.616155624E0,4.857429862E-1
7.701059733E0,-1.363908947E-1,-1.045005512E1,2.321037948E-1
7.705823275E0,-7.477571070E-2,-1.116730309E1,-1.034895778E-1
7.710613431E0,9.631111473E-2,-1.184626675E1,-5.503492355E-1
7.715390254E0,1.812563092E-1,-1.241396427E1,-9.439685345E-1
7.720153795E0,-2.243271172E-1,-1.283390427E1,-1.359123230E0
7.724943952E0,-6.490531564E-1,-1.313360500E1,-1.697707653E0
7.729720827E0,-8.925228715E-1,-1.327358532E1,-1.921436548E0
7.734484316E0,-1.001396298E0,-1.323051453E1,-1.877767563E0
7.739274473E0,-1.278963685E0,-1.291346550E1,-1.910070658E0
7.744051348E0,-1.503889084E0,-1.239841080E1,-1.856830359E0
7.748828170E0,-1.691127419E0,-1.187378407E1,-1.783849239E0
7.753604993E0,-1.806581140E0,-1.125224876E1,-1.745564103E0
7.758381868E0,-1.750947952E0,-1.062652493E1,-1.655235052E0
7.763158691E0,-1.685743570E0,-9.994820595E0,-1.540977836E0
7.767935514E0,-1.229312658E0,-9.473783493E0,-1.332802176E0
7.772712389E0,-7.292127013E-1,-9.019744873E0,-9.990034699E-1
7.777475931E0,-6.340979934E-1,-8.648857117E0,-7.842476368E-1
7.782266035E0,-7.345965505E-1,-8.331210136E0,-6.544370055E-1
7.787042910E0,-8.440681696E-1,-8.081160545E0,-5.724828243E-1
7.791806452E0,-9.296116233E-1,-7.844869137E0,-4.761717021E-1
7.796596608E0,-1.195813060E0,-7.768298626E0,-3.595215976E-1
7.801373431E0,-1.152144074E0,-7.676773071E0,-2.446661144E-1
7.806136973E0,-7.950153351E-1,-7.632505894E0,-1.262213886E-1
7.810927129E0,-6.658028960E-1,-7.675576687E0,-2.632104978E-2
7.815703952E0,-6.885347366E-1,-7.825128078E0,7.956135273E-2
7.820480775E0,-6.257231236E-1,-8.036892891E0,1.561316848E-1
7.825257650E0,-6.430711150E-1,-8.359924316E0,2.667997181E-1
7.830034473E0,-5.545366406E-1,-8.812766075E0,5.066801906E-1
7.834811295E0,-2.554338276E-1,-9.284749985E0,8.458628058E-1
7.839588170E0,1.333998591E-1,-9.943374634E0,1.132403374E0
7.844364993E0,9.146564603E-1,-1.066959572E1,1.603789330E0
7.849128535E0,1.943570137E0,-1.150588799E1,2.170888424E0
7.853918691E0,2.875574589E0,-1.256291676E1,2.440080881E0
7.858695514E0,4.257429600E0,-1.406321716E1,2.654238462E0
7.863459056E0,6.143572330E0,-1.601456451E1,2.799602509E0
7.868249212E0,7.712067604E0,-1.768714714E1,2.355733871E0
7.873026035E0,8.751151085E0,-1.853181267E1,7.381857634E-1
7.877789577E0,8.604590416E0,-1.777448463E1,-1.790429592E0
7.882579733E0,7.272984505E0,-1.594218063E1,-3.089732170E0
7.887356556E0,5.834300041E0,-1.407099342E1,-3.247060299E0
7.892120098E0,4.701896667E0,-1.242592812E1,-3.122035265E0
7.896910254E0,3.657429457E0,-1.102672482E1,-2.777468920E0
7.901687077E0,2.675773859E0,-9.651450157E0,-2.288136721E0
7.906450618E0,2.333600283E0,-8.525627136E0,-1.677966833E0
7.911240775E0,2.286342144E0,-7.465606689E0,-1.063609719E0
7.916017598E0,2.381456852E0,-6.531209469E0,-5.467599630E-1
7.920781139E0,2.386242390E0,-5.793622017E0,-1.878365725E-1
7.925571295E0,2.395215511E0,-5.259424210E0,-5.982056609E-4
7.930348118E0,2.294716835E0,-4.884349346E0,1.148554832E-1
7.935111660E0,2.099701881E0,-4.671986103E0,1.974078715E-1
7.939901816E0,1.895115495E0,-4.610371113E0,2.512463629E-1
7.944678639E0,1.690529227E0,-4.774877548E0,2.524427772E-1
7.949442181E0,1.372882009E0,-5.069194794E0,1.920240223E-1
7.954232337E0,8.979067206E-1,-5.422136307E0,7.477571070E-2
7.959009160E0,5.168496966E-1,-5.803193092E0,-8.135596663E-2
7.963772702E0,1.375873014E-2,-6.214160442E0,-1.609173268E-1
7.968562858E0,-6.179464459E-1,-6.543173313E0,-1.184447184E-1
7.973339681E0,-7.214360237E-1,-6.866204739E0,-5.503492057E-2
7.978103223E0,-1.014556766E0,-7.204789162E0,2.811566554E-2
7.982893379E0,-1.375872970E0,-7.503891945E0,-1.716850251E-1
7.987670254E0,-1.774876237E0,-7.794021606E0,-1.064806059E-1
7.992433743E0,-2.062014818E0,-7.996813297E0,2.596212626E-1
7.997223900E0,-1.912463546E0,-8.161319733E0,4.797609448E-1
8.002000775E0,-1.616351724E0,-8.280961037E0,6.269195080E-1
8.006777598E0,-1.457827210E0,-8.415556908E0,7.411768436E-1
8.011554420E0,-1.614557028E0,-8.661419868E0,7.758727670E-1
8.016331295E0,-1.742573142E0,-8.935996056E0,6.472585201E-1
8.021094785E0,-1.733600020E0,-9.206384659E0,4.552344978E-1
8.025884941E0,-1.472184181E0,-9.388239861E0,2.141576260E-1
8.030661816E0,-1.311864972E0,-9.522835732E0,-5.503492057E-2
8.035425306E0,-1.379462242E0,-9.681360245E0,-3.810569942E-1
8.040215462E0,-1.351944804E0,-9.787242889E0,-5.300102234E-1
8.044992337E0,-1.355534077E0,-9.922437668E0,-4.869394004E-1
8.049769160E0,-1.368694544E0,-1.007617569E1,-3.427718580E-1
8.054545983E0,-1.242473125E0,-1.023051357E1,2.691925503E-2
8.059322858E0,-9.248259664E-1,-1.032682419E1,5.670989752E-1
8.064099681E0,-5.407779217E-1,-1.035972595E1,1.174875975E0
8.068876504E0,-7.058826834E-2,-1.038305569E1,1.724028707E0
8.073653379E0,5.210371017E-1,-1.038185883E1,2.114656925E0
8.078416920E0,9.038887620E-1,-1.041476059E1,2.367099762E0
8.083207025E0,1.176072359E0,-1.047637558E1,2.466402054E0
8.087983900E0,1.270588875E0,-1.052961636E1,2.394019127E0
8.092747441E0,1.189232826E0,-1.062114143E1,2.245664120E0
8.097537598E0,1.230509043E0,-1.066899776E1,2.024327993E0
8.102314420E0,1.486541033E0,-1.066361427E1,1.816750646E0
8.107077962E0,1.722832322E0,-1.069172955E1,1.585245013E0
8.111868118E0,2.002194405E0,-1.076770210E1,1.272383451E0
8.116644941E0,2.275574446E0,-1.088255692E1,8.291130662E-1
8.121408483E0,2.519642353E0,-1.105484104E1,2.045863420E-1
8.126198639E0,2.539382935E0,-1.121336555E1,-6.113662124E-1
8.130975462E0,2.353939295E0,-1.143051338E1,-1.493719578E0
8.135739004E0,2.293520451E0,-1.167637634E1,-2.169692039E0
8.140529160E0,2.339582443E0,-1.183968639E1,-2.510669231E0
8.145305983E0,2.557927370E0,-1.182473087E1,-2.559721947E0
8.150069525E0,2.359921217E0,-1.202273750E1,-2.371287346E0
8.154859681E0,1.996810555E0,-1.213938713E1,-1.918445587E0
8.159636504E0,1.652842283E0,-1.215972614E1,-1.316650629E0
8.164413327E0,1.429113269E0,-1.213639641E1,-5.814558864E-1
8.169190202E0,1.176072359E0,-1.207956696E1,1.112662554E-1
8.173967025E0,8.943174481E-1,-1.200359440E1,7.076773047E-1
8.178730566E0,5.635097623E-1,-1.198505020E1,1.203589797E0
8.183520723E0,1.668993831E-1,-1.199581814E1,1.575075507E0
8.188297545E0,-2.691925466E-1,-1.208854008E1,1.812563181E0
8.193061087E0,-6.059823632E-1,-1.222911835E1,1.944168448E0
8.197851243E0,-8.668000102E-1,-1.241276741E1,1.983649969E0
8.202628066E0,-1.089930773E0,-1.258744335E1,1.941775560E0
8.207391608E0,-1.194616675E0,-1.272742367E1,1.856232166E0
8.212181764E0,-1.218544960E0,-1.288116264E1,1.755733609E0
8.216958587E0,-1.247258782E0,-1.308335590E1,1.597807288E0
8.221735410E0,-1.210170031E0,-1.327597809E1,1.381855130E0
8.226512285E0,-1.158724308E0,-1.348295784E1,1.108475089E0
8.231289108E0,-1.144965649E0,-1.374796295E1,8.584251404E-1
8.236052650E0,-1.164706469E0,-1.403211021E1,6.478567123E-1
8.240842806E0,-1.211366415E0,-1.437906933E1,5.282155871E-1
8.245619629E0,-1.286142230E0,-1.483250904E1,5.431707501E-1
8.250383170E0,-1.440479279E0,-1.531406498E1,6.741777658E-1
8.255173327E0,-1.685743570E0,-1.578664780E1,8.817551732E-1
8.259950150E0,-1.920838356E0,-1.625982857E1,1.056431174E0
8.264713691E0,-2.099701881E0,-1.669352722E1,1.177866936E0
8.269503848E0,-2.164308071E0,-1.698305893E1,1.283749342E0
8.274280670E0,-2.068595171E0,-1.713261032E1,1.322034478E0
8.279044212E0,-1.831705689E0,-1.702074623E1,1.243669510E0
8.283834368E0,-1.673181176E0,-1.673600006E1,9.302098155E-1
8.288611191E0,-1.601396561E0,-1.629751587E1,4.163511395E-1
8.293388066E0,-1.640878081E0,-1.568973827E1,-3.134597540E-1
8.298164889E0,-1.829911113E0,-1.492403507E1,-1.210170031E0
8.302941712E0,-1.966302037E0,-1.412423420E1,-2.188834429E0
8.307705254E0,-2.060818434E0,-1.333340645E1,-3.172882795E0
8.312495410E0,-1.992024899E0,-1.259163094E1,-3.951148272E0
8.317272233E0,-1.692323804E0,-1.197846985E1,-4.413561344E0
8.322035775E0,-1.341775298E0,-1.145264721E1,-4.497310162E0
8.326825931E0,-9.433703423E-1,-1.103210926E1,-4.380061626E0
8.331602754E0,-5.814558864E-1,-1.070907784E1,-4.175475597E0
8.336366295E0,-3.475574851E-1,-1.044347477E1,-3.990031719E0
8.341156452E0,-3.248256743E-1,-1.012044334E1,-3.952344894E0
8.345933275E0,-4.737788737E-1,-9.783653259E0,-3.918246984E0
8.350696816E0,-5.509474277E-1,-9.480362892E0,-3.912863255E0
8.355486973E0,-5.706881881E-1,-9.171689034E0,-3.917648792E0
8.360263795E0,-5.150550604E-1,-8.945567131E0,-3.990031719E0
8.365027337E0,-4.109672904E-1,-8.906683922E0,-4.125226021E0
8.369817493E0,-3.541377485E-1,-9.065208435E0,-4.269393921E0
8.374594316E0,-2.494517565E-1,-9.315856934E0,-4.461417675E0
8.379371191E0,-1.543370634E-1,-9.638289452E0,-4.562514782E0
8.384148014E0,-5.982056609E-4,-1.003250694E1,-4.572684288E0
8.388924837E0,1.052841991E-1,-1.046142101E1,-4.582255363E0
8.393701712E0,4.013960063E-1,-1.078325558E1,-4.578666210E0
8.398478535E0,1.055234790E0,-1.090708351E1,-4.347160339E0
8.403255410E0,2.083550215E0,-1.101595688E1,-3.488735437E0
8.408018900E0,3.346960783E0,-1.127318573E1,-2.391027927E0
8.412809056E0,4.006781578E0,-1.170150089E1,-1.242473125E0
8.417585879E0,4.185046673E0,-1.234696484E1,2.925225794E-1
8.422349420E0,4.277768612E0,-1.278604794E1,1.199402332E0
8.427139577E0,4.622933388E0,-1.317488194E1,1.481157184E0
8.431916400E0,4.550550461E0,-1.380658627E1,1.750349760E0
8.436679941E0,3.994219303E0,-1.440539074E1,1.494915962E0
8.441470098E0,3.761517286E0,-1.491207027E1,1.265803218E0
8.446246973E0,2.733201742E0,-1.529910946E1,9.499505758E-1
8.451010462E0,2.193022013E0,-1.552702618E1,1.144965649E0
8.455800618E0,2.269592285E0,-1.579681683E1,1.077966571E0
8.460577441E0,2.323430777E0,-1.602772522E1,4.534398913E-1
8.465340983E0,2.161317110E0,-1.601336670E1,-4.145565331E-1
8.470131139E0,1.357328653E0,-1.561915016E1,-1.706082582E0
8.474908014E0,2.883351147E-1,-1.474457359E1,-2.589034081E0
8.479671504E0,-6.562315822E-1,-1.360020542E1,-3.098107100E0
8.484461660E0,-6.855437160E-1,-1.273819160E1,-2.782254457E0
8.489238535E0,-5.503492355E-1,-1.211665535E1,-2.101496458E0
8.494002025E0,-5.670989752E-1,-1.175055408E1,-1.574477315E0
8.498792181E0,-5.228317380E-1,-1.142273712E1,-1.152144074E0
8.503569056E0,-8.069794178E-1,-1.121635628E1,-8.530412912E-1
8.508332545E0,-1.209571838E0,-1.118405342E1,-5.443671346E-1
8.513122702E0,-1.503889084E0,-1.126660538E1,-3.846462369E-1
8.517899577E0,-1.689332843E0,-1.136351490E1,-4.552344978E-1
8.522663066E0,-1.957328916E0,-1.136889839E1,-7.274180651E-1
8.527453223E0,-1.964507341E0,-1.130130100E1,-1.153938770E0
8.532230098E0,-1.904686809E0,-1.131027412E1,-1.447657704E0
8.537006920E0,-1.906481385E0,-1.125284672E1,-1.701895118E0
8.541783743E0,-1.884945989E0,-1.103569794E1,-1.990230203E0
8.546560618E0,-1.620539188E0,-1.077009487E1,-2.154736757E0
8.551337441E0,-1.098305583E0,-1.055713367E1,-2.243869543E0
8.556114264E0,-6.711867452E-1,-1.024726295E1,-2.227119684E0
8.560891139E0,-4.701896608E-1,-9.967302322E0,-1.926222205E0
8.565654629E0,-4.444667995E-1,-9.731609344E0,-1.485344648E0
8.570444785E0,-4.049852192E-1,-9.428318977E0,-1.053440213E0
8.575221660E0,-4.845465720E-1,-9.096315384E0,-6.598208547E-1
8.579985150E0,-5.916253924E-1,-8.325826645E0,-6.119644046E-1
8.584775306E0,-7.842476368E-1,-7.607979774E0,-6.735795736E-1
8.589552181E0,-9.678967595E-1,-6.952944279E0,-8.171489239E-1
8.594315670E0,-1.141376376E0,-6.317649841E0,-8.787640929E-1
8.599105827E0,-1.439282775E0,-5.508875847E0,-8.973084688E-1
8.603882702E0,-1.989632010E0,-4.735395908E0,-9.475577474E-1
8.608646191E0,-2.663211584E0,-3.869194269E0,-9.493523836E-1
8.613436348E0,-3.541377544E0,-2.801995277E0,-9.314061999E-1
8.618213223E0,-4.021736622E0,-1.907079697E0,-1.101894855E0
8.622976712E0,-3.772883177E0,-1.274776220E0,-1.286740422E0
8.627766868E0,-3.232105255E0,-1.076171994E0,-1.476969719E0
8.632543743E0,-2.718844652E0,-1.190429211E0,-1.642074585E0
8.637307233E0,-2.509472847E0,-1.503290772E0,-1.820937991E0
8.642097389E0,-2.270190477E0,-1.935793519E0,-1.840678811E0
8.646874264E0,-2.154736757E0,-2.388635159E0,-1.836491346E0
8.651651087E0,-2.129612207E0,-2.788834810E0,-1.811964989E0
8.656427910E0,-2.066202402E0,-3.173480988E0,-1.811964989E0
8.661204785E0,-1.837089539E0,-3.471387386E0,-1.813161373E0
8.665981608E0,-1.503290772E0,-3.707080364E0,-1.810170293E0
8.670758431E0,-1.174875975E0,-3.889533281E0,-1.945963025E0
8.675535306E0,-9.523434043E-1,-3.951746702E0,-2.085943222E0
8.680312129E0,-7.531409264E-1,-3.970290899E0,-2.182852507E0
8.685088952E0,-4.821537733E-1,-3.979264021E0,-2.270788670E0
8.689865827E0,-2.871387303E-1,-3.911068678E0,-2.295913219E0
8.694629316E0,7.178467698E-3,-3.867399693E0,-2.316850424E0
8.699419473E0,7.836493850E-2,-3.799802303E0,-2.312064886E0
8.704196348E0,2.967100143E-1,-3.745963812E0,-2.375474691E0
8.708973170E0,3.284149170E-1,-3.581457376E0,-2.496312141E0
8.713749993E0,3.176472187E-1,-3.422932863E0,-2.626122952E0
8.718526868E0,8.315058947E-1,-3.382853031E0,-2.686541557E0
8.723290358E0,1.311864972E0,-3.521636724E0,-2.722434044E0
8.728080514E0,1.436291814E0,-3.632304668E0,-2.669791937E0
8.732857389E0,1.355534077E0,-3.723830223E0,-2.674577475E0
8.737634212E0,1.389631748E0,-3.767499208E0,-2.636292458E0
8.742411035E0,1.484746456E0,-3.796213150E0,-2.622533560E0
8.747187910E0,1.756331801E0,-3.862613916E0,-2.580659151E0
8.751964733E0,1.813759565E0,-3.872185230E0,-2.513660192E0
8.756741556E0,2.209173441E0,-3.977469444E0,-2.520240545E0
8.761518431E0,2.371885538E0,-4.025325775E0,-2.439482689E0
8.766295254E0,2.337189436E0,-3.986442566E0,-2.569293261E0
8.771072077E0,2.727219582E0,-4.149154663E0,-2.657229662E0
8.775848952E0,2.593221426E0,-4.255635262E0,-2.858226538E0
8.780625775E0,2.095514536E0,-4.001397610E0,-3.229712248E0
8.785402598E0,1.863410592E0,-3.736990690E0,-3.656233072E0
8.790179473E0,1.831705689E0,-3.466601849E0,-4.044468403E0
8.794942962E0,1.982453585E0,-3.292523861E0,-4.290330887E0
8.799733118E0,2.238485575E0,-3.354737282E0,-4.387240410E0
8.804509993E0,2.085943222E0,-3.349951744E0,-4.477569580E0
8.809286816E0,1.947757602E0,-3.287738323E0,-4.543970108E0
8.814063639E0,2.008774519E0,-3.210569859E0,-4.587639332E0
8.818840514E0,2.103291035E0,-3.176471949E0,-4.689334393E0
8.823617337E0,2.268395901E0,-3.161516905E0,-4.887340069E0
8.828394160E0,2.419143677E0,-3.171088219E0,-5.118247509E0
8.833171035E0,2.579462767E0,-3.247658491E0,-5.392225742E0
8.837934525E0,2.672184706E0,-3.348157167E0,-5.796014786E0
8.842724681E0,2.821736097E0,-3.506681681E0,-6.391827583E0
8.847501556E0,2.969492912E0,-3.756731510E0,-7.241877556E0
8.852265045E0,3.174677372E0,-4.102494240E0,-8.121239662E0
8.857055202E0,3.488735437E0,-4.520041943E0,-9.105886459E0
8.861832077E0,3.882952929E0,-5.111667156E0,-1.030768204E1
8.866595566E0,4.277768612E0,-5.982056618E0,-1.158544922E1
8.871385723E0,4.603192329E0,-7.098308563E0,-1.262273788E1
8.876162598E0,4.725824833E0,-8.152944565E0,-1.336630726E1
8.880926087E0,5.219942570E0,-9.452845573E0,-1.334895897E1
8.885716243E0,5.397011280E0,-1.076231766E1,-1.315693569E1
8.890493118E0,5.443671703E0,-1.203410339E1,-1.326640701E1
8.895256608E0,4.572684288E0,-1.321615791E1,-1.385683632E1
8.900046764E0,3.275176048E0,-1.422652721E1,-1.424746418E1
8.904823639E0,2.575873613E0,-1.505205059E1,-1.381137276E1
8.909587129E0,2.391626120E0,-1.550130367E1,-1.227398396E1
8.914377285E0,2.223530531E0,-1.543490219E1,-1.015214825E1
8.919154160E0,1.999801517E0,-1.480499172E1,-8.342576027E0
8.923917650E0,1.742573142E0,-1.373719501E1,-7.703094482E0
8.928707806E0,1.484746456E0,-1.259103298E1,-8.091927528E0
8.933484681E0,1.163509965E0,-1.156989574E1,-8.805587769E0
8.938248170E0,7.698906660E-1,-1.080479050E1,-8.957531929E0
8.943038327E0,4.468596280E-1,-1.018863869E1,-8.500502586E0
8.947815202E0,1.489532143E-1,-9.583254814E0,-7.841877937E0
8.952578691E0,-3.409772366E-2,-9.014959335E0,-7.222734928E0
8.957368848E0,-7.118647546E-2,-8.442476273E0,-6.723233223E0
8.962145723E0,-2.273181528E-1,-7.835297585E0,-6.224329948E0
8.966909212E0,-3.158525825E-1,-7.262814999E0,-5.690730572E0
8.971699368E0,-7.776673418E-3,-6.780661106E0,-4.767100811E0
8.976476243E0,3.445664644E-1,-6.413960934E0,-3.732803345E0
8.981239733E0,4.163511395E-1,-6.062814236E0,-2.696711063E0
8.986029889E0,6.299105883E-1,-5.836692810E0,-1.838884234E0
8.990806764E0,6.490531564E-1,-5.653043270E0,-1.704886079E0
8.995570254E0,5.611169338E-1,-5.450850010E0,-1.977667928E0
9.000360410E0,2.249253243E-1,-5.523830891E0,-2.643470764E0
9.005137285E0,1.495514158E-2,-5.682355404E0,-3.577867985E0
9.009900775E0,1.010967568E-1,-5.860620975E0,-4.422534466E0
9.014690931E0,2.207378894E-1,-6.341578007E0,-5.258227825E0
9.019467754E0,7.776673883E-2,-6.803991318E0,-5.559125423E0
9.024244629E0,5.132604837E-1,-7.400402069E0,-5.441278458E0
9.029021452E0,8.811569214E-1,-8.214560509E0,-4.943571568E0
9.033798327E0,1.111466169E0,-9.157930374E0,-4.314857483E0
9.038561816E0,1.061815023E0,-1.020837975E1,-3.675973892E0
9.043351973E0,1.096511006E0,-1.119661522E1,-3.181257725E0
9.048128848E0,1.015753269E0,-1.212203979E1,-2.882753134E0
9.052892337E0,5.670989752E-1,-1.313001633E1,-2.745165825E0
9.057682493E0,3.038884699E-1,-1.402672672E1,-2.729014158E0
9.062459316E0,4.378865361E-1,-1.459442329E1,-2.877967358E0
9.067222858E0,7.322037220E-1,-1.480558968E1,-3.052045345E0
9.072013014E0,9.607182741E-1,-1.476670647E1,-3.172882795E0
9.076789837E0,1.068993568E0,-1.454955769E1,-3.178864956E0
9.081553379E0,1.082154036E0,-1.407757378E1,-3.078366280E0
9.086343535E0,1.039083242E0,-1.344646645E1,-2.848057270E0
9.091120358E0,8.913264275E-1,-1.269093323E1,-2.502892494E0
9.095897233E0,6.520441771E-1,-1.182951736E1,-2.179861546E0
9.100674056E0,4.133601189E-1,-1.089511967E1,-1.867598057E0
9.105450879E0,8.015955985E-2,-1.005823040E1,-1.415952802E0
9.110214420E0,-4.785645381E-2,-9.239884377E0,-9.212366939E-1
9.115004577E0,-3.589234129E-2,-8.405985832E0,-9.122636318E-1
9.119781400E0,-2.871387079E-2,-7.798807144E0,-9.894321561E-1
9.124544941E0,5.084748194E-2,-7.350750923E0,-9.469595551E-1
9.129335098E0,-5.922235921E-2,-7.067201614E0,-9.272187948E-1
9.134111920E0,-2.877369225E-1,-6.932007313E0,-8.207381964E-1
9.138875462E0,-6.544370055E-1,-6.933203697E0,-8.524430394E-1
9.143665618E0,-1.143769264E0,-7.069594383E0,-8.973084688E-1
9.148442441E0,-1.576870084E0,-7.268198967E0,-9.050851464E-1
9.153205983E0,-2.074577332E0,-7.505088329E0,-7.770691514E-1
9.157996139E0,-2.291725874E0,-7.770691395E0,-6.610172391E-1
9.162772962E0,-2.309073925E0,-8.078767776E0,-5.742774606E-1
9.167536504E0,-2.332403898E0,-8.301300049E0,-5.790630579E-1
9.172326660E0,-2.369492531E0,-8.517850876E0,-5.306084156E-1
9.177103483E0,-2.297109842E0,-8.778069496E0,-5.545366406E-1
9.181880358E0,-2.040479422E0,-9.003593445E0,-7.094719410E-1
9.186657181E0,-1.837089539E0,-9.156734467E0,-9.308080077E-1
9.191434004E0,-1.752144337E0,-9.296713829E0,-1.127617717E0
9.196210827E0,-1.624128342E0,-9.412167549E0,-1.234098315E0
9.200987702E0,-1.671386600E0,-9.479764938E0,-1.233500123E0
9.205764525E0,-1.732403636E0,-9.489336014E0,-1.137188911E0
9.210541400E0,-1.755733609E0,-9.431908607E0,-9.696913958E-1
9.215318223E0,-1.588235974E0,-9.412167549E0,-8.219345808E-1
9.220095045E0,-1.725823283E0,-9.359525681E0,-6.963114142E-1
9.224871868E0,-1.786840320E0,-9.253643036E0,-5.377869010E-1
9.229648743E0,-1.805384636E0,-9.147761345E0,-4.031906128E-1
9.234425566E0,-1.747956991E0,-9.215357780E0,-4.037888348E-1
9.239202389E0,-1.746760488E0,-9.369695663E0,-3.074777126E-1
9.243979264E0,-1.588834286E0,-9.585647583E0,-1.645065546E-1
9.248756087E0,-1.291526079E0,-9.864411354E0,2.392822644E-3
9.253532910E0,-8.895317912E-1,-1.024905777E1,1.782652885E-1
9.258309785E0,-3.774677813E-1,-1.066241741E1,4.540380836E-1
9.263086608E0,3.445664644E-1,-1.119541931E1,7.722834945E-1
9.267850150E0,1.028913736E0,-1.180140114E1,1.023529887E0
9.272640306E0,1.703091502E0,-1.244985580E1,1.284347534E0
9.277417129E0,2.644667149E0,-1.332443333E1,1.567897081E0
9.282180670E0,3.766901016E0,-1.435753441E1,1.673181176E0
9.286970827E0,5.282155991E0,-1.556770420E1,1.335195065E0
9.291747650E0,6.317051888E0,-1.649970818E1,5.623133183E-1
9.296511191E0,6.725626469E0,-1.669592094E1,-4.378865361E-1
9.301301348E0,6.290730953E0,-1.596910000E1,-1.889731646E0
9.306078170E0,5.576473236E0,-1.461117363E1,-2.933600664E0
9.310841712E0,4.983651161E0,-1.296969700E1,-3.262613773E0
9.315631816E0,4.289134502E0,-1.137667561E1,-3.183052301E0
9.320408691E0,3.764508247E0,-1.010608673E1,-2.715853691E0
9.325172233E0,3.632304668E0,-9.157930374E0,-2.039283037E0
9.329962389E0,3.638885021E0,-8.228917122E0,-1.252642632E0
9.334739212E0,3.440280676E0,-7.241877556E0,-5.377869010E-1
9.339502754E0,3.284747362E0,-6.302694798E0,1.585244983E-1
9.344292910E0,3.306282759E0,-5.575276852E0,2.201396823E-1
9.349069733E0,3.339782238E0,-5.011766911E0,5.605186820E-1
9.353833275E0,3.077768087E0,-4.612165451E0,7.196413875E-1
9.358623379E0,2.830709219E0,-4.357928276E0,9.032905698E-1
9.363400254E0,2.854039192E0,-4.045066833E0,1.042672515E0
9.368163795E0,2.483749866E0,-4.021736622E0,1.130608678E0
9.372953900E0,1.894517303E0,-4.143770695E0,1.128814101E0
9.377730775E0,1.314257860E0,-4.433900356E0,1.051047325E0
9.382494264E0,1.034895778E0,-4.863411903E0,1.018744230E0
9.387284420E0,4.354937077E-1,-5.452644825E0,7.483552694E-1
9.392061295E0,2.494517565E-1,-6.055037498E0,3.230310678E-1
9.396824785E0,2.093719877E-2,-6.575476646E0,8.494520187E-2
9.401614941E0,1.746760458E-1,-6.931408882E0,1.513460279E-1
9.406391816E0,-9.451649338E-2,-7.366304398E0,2.057827413E-1
9.411155306E0,-2.985046208E-1,-7.752147198E0,7.776673883E-2
9.415945462E0,-5.222335458E-1,-8.026723862E0,-2.153540403E-2
9.420722285E0,-5.982056856E-1,-8.200801849E0,-1.124626622E-1
9.425485827E0,-6.646065116E-1,-8.307282448E0,-1.070788130E-1
9.430275983E0,-6.969096065E-1,-8.427521706E0,-6.879365444E-2
9.435052858E0,-7.447660565E-1,-8.567501068E0,-1.399801224E-1
9.439816348E0,-8.973084688E-1,-8.798408508E0,-3.463610709E-1
9.444606504E0,-9.834501147E-1,-9.005986214E0,-5.515456200E-1
9.449383379E0,-8.883354068E-1,-9.174081802E0,-5.808576941E-1
9.454146868E0,-7.292127013E-1,-9.357132912E0,-3.894318938E-1
9.458937025E0,-6.089733839E-1,-9.477372169E0,-1.555334777E-1
9.463713848E0,-5.826523304E-1,-9.607781410E0,1.764706671E-1
9.468490723E0,-5.934200287E-1,-9.723235130E0,7.040880919E-1
9.473267545E0,-4.271188378E-1,-9.920642853E0,1.298704505E0
9.478044368E0,-4.277170599E-1,-1.021496010E1,1.859821439E0
9.482807910E0,-5.814558864E-1,-1.050508976E1,2.173281193E0
9.487598066E0,-7.465606928E-1,-1.085204887E1,2.274976015E0
9.492374889E0,-6.975077987E-1,-1.110688496E1,2.323430777E0
9.497138431E0,-5.934200287E-1,-1.121276665E1,2.188236237E0
9.501928587E0,-3.816552162E-1,-1.125523949E1,1.822134495E0
9.506705410E0,-5.024927482E-2,-1.120618629E1,1.489532113E0
9.511482285E0,2.811566591E-1,-1.107996559E1,1.314856052E0
9.516259108E0,6.029912829E-1,-1.093460083E1,1.188634634E0
9.521035931E0,8.733802438E-1,-1.073659515E1,1.028913736E0
9.525812806E0,9.188438654E-1,-1.056790161E1,8.117650747E-1
9.530589629E0,8.123632669E-1,-1.047637558E1,5.389832854E-1
9.535366452E0,7.238288522E-1,-1.041894817E1,2.033899277E-1
9.540143327E0,6.837490797E-1,-1.040937710E1,-1.417747438E-1
9.544920150E0,6.628118753E-1,-1.047637558E1,-5.018945336E-1
9.549696973E0,5.856433511E-1,-1.064507008E1,-7.746763229E-1
9.554460514E0,7.854440212E-1,-1.087059307E1,-9.720842242E-1
9.559250670E0,8.997012973E-1,-1.112602711E1,-1.092323542E0
9.564027493E0,9.816554785E-1,-1.131326580E1,-1.025324464E0
9.568804316E0,1.054038405E0,-1.141436195E1,-8.769695163E-1
9.573581191E0,1.117448211E0,-1.147777176E1,-6.711867452E-1
9.578358014E0,1.199402332E0,-1.156391335E1,-4.797609448E-1
9.583134837E0,1.220339537E0,-1.162672520E1,-2.590230405E-1
9.587911712E0,1.154536963E0,-1.162193966E1,-7.118647546E-2
9.592688535E0,1.022931695E0,-1.159382439E1,1.501496136E-1
9.597465358E0,8.147560954E-1,-1.156032467E1,3.816552162E-1
9.602242233E0,6.388836503E-1,-1.157527924E1,5.024927258E-1
9.607019056E0,3.924229145E-1,-1.160040379E1,6.329016089E-1
9.611795879E0,9.332008660E-2,-1.162014484E1,6.921239495E-1
9.616572702E0,-1.633101404E-1,-1.168834019E1,6.550351977E-1
9.621349577E0,-4.731806815E-1,-1.180917835E1,5.659025311E-1
9.626113066E0,-9.062815905E-1,-1.194018459E1,4.001995921E-1
9.630903223E0,-1.306481123E0,-1.208554935E1,2.440679073E-1
9.635680098E0,-1.549352646E0,-1.230269718E1,1.112662554E-1
9.640443639E0,-1.558923960E0,-1.260180092E1,-3.230310604E-2
9.645233743E0,-1.406381488E0,-1.280399418E1,-1.585244983E-1
9.650010618E0,-1.235294700E0,-1.297208977E1,-2.596212626E-1
9.654787441E0,-1.053440213E0,-1.314018536E1,-2.129612118E-1
9.659564264E0,-8.285148144E-1,-1.329332638E1,-5.982056633E-2
9.664341139E0,-5.557330847E-1,-1.345185089E1,1.884347796E-1
9.669117962E0,-2.536391914E-1,-1.363430309E1,4.414757788E-1
9.673894785E0,-1.854437590E-2,-1.380778313E1,6.801598072E-1
9.678671660E0,1.501496136E-1,-1.404347610E1,9.188438654E-1
9.683448483E0,4.749752879E-1,-1.421097374E1,1.080957651E0
9.688225306E0,4.875376225E-1,-1.480858135E1,1.259222865E0
9.693002181E0,5.952146053E-1,-1.534337711E1,1.493719578E0
9.697765670E0,9.026923180E-1,-1.582433414E1,1.597807288E0
9.702555827E0,9.008977413E-1,-1.654218102E1,1.728216171E0
9.707332650E0,9.128618240E-1,-1.711585999E1,1.862812400E0
9.712096191E0,8.955138922E-1,-1.757827377E1,1.863410592E0
9.716886348E0,7.902296782E-1,-1.773261070E1,1.671984792E0
9.721663170E0,7.788637877E-1,-1.775175285E1,1.326820135E0
9.726426712E0,8.560323119E-1,-1.757288933E1,8.027920127E-1
9.731216868E0,8.697910309E-1,-1.712483406E1,1.740778536E-1
9.735993691E0,7.824530005E-1,-1.645962906E1,-5.078766346E-1
