"Time (s)","Acceleration x (m/s^2)","Acceleration y (m/s^2)","Acceleration z (m/s^2)"
1.333345000E-3,2.667997360E0,4.579862595E0,9.262616158E0
6.183501000E-3,2.679961443E0,4.572684288E0,9.430113792E0
1.103391800E-2,2.309073925E0,4.682754040E0,9.509077072E0
1.588412600E-2,2.002792597E0,4.718646049E0,9.430113792E0
2.073443900E-2,1.694118381E0,4.718646049E0,9.169296265E0
2.558464700E-2,1.397408366E0,4.816751957E0,8.772088051E0
3.043485500E-2,1.203589797E0,4.890929699E0,8.370093346E0
3.528516800E-2,1.062413216E0,4.981856823E0,8.013563156E0
4.013537600E-2,9.427721500E-1,5.077569485E0,7.695317745E0
4.498568900E-2,8.662018180E-1,5.156532764E0,7.401000500E0
4.983589700E-2,8.087740541E-1,5.242674351E0,7.271788120E0
5.468610500E-2,6.484549642E-1,5.233103275E0,7.209574699E0
5.953641800E-2,4.235295951E-1,5.158925533E0,7.159325123E0
6.438662600E-2,3.589234054E-1,5.168497086E0,7.077969551E0
6.923693900E-2,3.589234054E-1,5.192425251E0,6.984649181E0
7.408714700E-2,3.756731451E-1,5.194818020E0,7.032505512E0
7.893735500E-2,3.780659735E-1,5.161318302E0,7.267002583E0
8.378766800E-2,3.661018610E-1,5.077569485E0,7.558926582E0
8.863787600E-2,3.038884699E-1,4.962714195E0,7.807780266E0
9.348818900E-2,2.608176768E-1,4.797609329E0,8.109275818E0
9.833839700E-2,2.440679073E-1,4.673182487E0,8.379665375E0
1.031886050E-1,2.201396823E-1,4.553541660E0,8.647661209E0
1.080389180E-1,1.674975902E-1,4.433900356E0,8.910871506E0
1.128891260E-1,-2.392822644E-3,4.297509670E0,9.157332420E0
1.177394390E-1,-1.100698411E-1,4.216153622E0,9.257830620E0
1.225896470E-1,-2.536391914E-1,4.213760853E0,9.360722542E0
1.274399600E-1,-4.283152521E-1,4.173082829E0,9.482755661E0
1.322901680E-1,-5.670989752E-1,4.082155228E0,9.559326172E0
1.371403760E-1,-6.388836503E-1,4.017549038E0,9.559326172E0
1.419906890E-1,-6.771687865E-1,3.936193228E0,9.516255379E0
1.468408970E-1,-7.489534616E-1,3.866801500E0,9.477970123E0
1.516912100E-1,-8.279166222E-1,3.828516245E0,9.439684868E0
1.565414180E-1,-8.829515576E-1,3.778266907E0,9.379864693E0
1.613916260E-1,-9.571290612E-1,3.759124279E0,9.329615593E0
1.662419390E-1,-1.038485050E0,3.759124279E0,9.279366493E0
1.710921470E-1,-1.112662554E0,3.732803345E0,9.198010445E0
1.759424600E-1,-1.208375454E0,3.704089403E0,9.157332420E0
1.807926680E-1,-1.227517962E0,3.649054527E0,8.999405861E0
1.856428760E-1,-1.246660590E0,3.620340586E0,8.781659126E0
1.904931890E-1,-1.316052437E0,3.603590965E0,8.681160927E0
1.953433970E-1,-1.354337573E0,3.567698479E0,8.669196129E0
2.001937100E-1,-1.433300734E0,3.471985579E0,8.623732567E0
2.050439180E-1,-1.433300734E0,3.393022537E0,8.578269005E0
2.098942300E-1,-1.512263894E0,3.299702406E0,8.556734085E0
2.147444390E-1,-1.591227055E0,3.259024382E0,8.633303642E0
2.195946470E-1,-1.651047587E0,3.218346357E0,8.733802795E0
2.244449600E-1,-1.548156261E0,3.165704250E0,8.774480820E0
2.292951680E-1,-1.184447169E0,3.046063185E0,8.559126854E0
2.341454800E-1,-1.136590719E0,3.065205812E0,8.472985268E0
2.389956890E-1,-1.272981644E0,3.170490026E0,8.537590981E0
2.437525120E-1,-1.318445325E0,3.213560820E0,8.621339798E0
2.485076680E-1,-1.316052437E0,3.172882795E0,8.709874153E0
2.532628760E-1,-1.332802176E0,3.113062143E0,8.839086533E0
2.580180330E-1,-1.418943882E0,3.069991350E0,9.004191399E0
2.627731890E-1,-1.557727575E0,3.038884640E0,9.236295700E0
2.675283970E-1,-1.732403636E0,2.983849764E0,9.463613510E0
2.722835530E-1,-1.914258122E0,2.880958557E0,9.602396965E0
2.770387620E-1,-2.000399828E0,2.804388046E0,9.712467194E0
2.817939180E-1,-2.084148407E0,2.684746981E0,9.769894600E0
2.865491260E-1,-2.151147604E0,2.591426849E0,9.777072906E0
2.913042830E-1,-2.196611166E0,2.495713949E0,9.791430473E0
2.960594910E-1,-2.289931297E0,2.426322222E0,9.779465675E0
3.008146470E-1,-2.371287346E0,2.383251429E0,9.772287369E0
3.055698030E-1,-2.524427891E0,2.335394859E0,9.966106415E0
3.103250120E-1,-2.837887764E0,2.294716835E0,1.041117096E1
3.150801680E-1,-3.170490026E0,2.277967215E0,1.094716358E1
3.198353760E-1,-3.270988464E0,2.251646042E0,1.102851963E1
3.245905330E-1,-3.065205812E0,2.227717876E0,1.071745300E1
3.293457410E-1,-2.804388046E0,2.199003935E0,1.027956581E1
3.341008970E-1,-2.548356056E0,2.117648125E0,9.884750366E0
3.388560530E-1,-2.361716032E0,2.076970100E0,9.655039787E0
3.436112620E-1,-2.289931297E0,2.081755638E0,9.509077072E0
3.483664180E-1,-2.285145521E0,2.088934183E0,9.360722542E0
3.531216260E-1,-2.323430777E0,2.143969059E0,9.214759827E0
3.578767830E-1,-2.309073925E0,2.215753794E0,9.032905579E0
3.626319910E-1,-2.287538528E0,2.277967215E0,8.848658562E0
3.673871470E-1,-2.239681959E0,2.342573404E0,8.717052460E0
3.721423550E-1,-2.213361025E0,2.419143677E0,8.583054543E0
3.768975120E-1,-2.201396942E0,2.493321180E0,8.501698494E0
3.816527200E-1,-2.249253273E0,2.572284460E0,8.528019905E0
3.864078760E-1,-2.356930256E0,2.677568436E0,8.551948547E0
3.911630330E-1,-2.507678032E0,2.734996319E0,8.563912392E0
3.959182410E-1,-2.600998163E0,2.768495798E0,8.645268440E0
4.006733970E-1,-2.629712105E0,2.761317253E0,8.690732002E0
4.054286050E-1,-2.538784742E0,2.742174864E0,8.726624489E0
4.101837620E-1,-2.440679073E0,2.734996319E0,8.678768158E0
4.149389700E-1,-2.333002090E0,2.665604353E0,8.630910873E0
4.196941260E-1,-2.237289190E0,2.718246460E0,8.647661209E0
4.244493350E-1,-2.167897224E0,2.792423964E0,8.669196129E0
4.292044910E-1,-2.093719721E0,2.758924484E0,8.786444664E0
4.339596990E-1,-2.163111687E0,2.725425005E0,9.020941734E0
4.387148550E-1,-2.249253273E0,2.672782898E0,9.154939651E0
4.434700640E-1,-2.335394859E0,2.591426849E0,9.236295700E0
4.482252200E-1,-2.342573404E0,2.483749866E0,9.253045082E0
4.529803760E-1,-2.610569477E0,2.354537487E0,9.265008926E0
4.577355850E-1,-2.603390932E0,2.337787628E0,9.339186668E0
4.624907410E-1,-2.565105915E0,2.356930256E0,9.267401695E0
4.672459490E-1,-2.581855536E0,2.438286304E0,9.193224907E0
4.720011050E-1,-2.368894339E0,2.517249346E0,8.958727837E0
4.767563140E-1,-2.359323025E0,2.679961443E0,8.662017822E0
4.815114700E-1,-2.218146563E0,2.842673302E0,8.398807526E0
4.862666780E-1,-2.201396942E0,3.055634499E0,8.355736732E0
4.910218350E-1,-2.361716032E0,3.256631613E0,8.346165657E0
4.957770430E-1,-2.388036966E0,3.448057413E0,8.539983749E0
5.005321990E-1,-2.237289190E0,3.680161238E0,8.662017822E0
5.052874080E-1,-2.041077614E0,3.802195072E0,8.841479301E0
5.100425640E-1,-1.500299811E0,3.625126362E0,8.805587769E0
5.147977720E-1,-1.560120344E0,3.493520975E0,9.061619759E0
5.195529280E-1,-1.878365755E0,3.347558975E0,9.418149948E0
5.243081370E-1,-2.244467735E0,3.127419233E0,9.690931320E0
5.290632930E-1,-2.608176708E0,2.957528830E0,9.731609344E0
5.338184490E-1,-2.892922640E0,2.734996319E0,9.808179855E0
5.385736580E-1,-2.976671457E0,2.498106956E0,9.724431038E0
5.433288660E-1,-2.945564747E0,2.232503414E0,9.657432556E0
5.480840220E-1,-2.787638426E0,2.120040894E0,9.595218658E0
5.528391780E-1,-2.476571321E0,2.050648928E0,9.523433685E0
5.575943870E-1,-2.060220242E0,2.122433662E0,9.427721024E0
5.623495430E-1,-1.835294962E0,2.266003132E0,9.276973724E0
5.671047510E-1,-1.840080619E0,2.337787628E0,9.128618240E0
5.718599080E-1,-2.206182480E0,2.732603550E0,8.894122124E0
5.766151160E-1,-2.603390932E0,2.959921598E0,8.788837433E0
5.813702720E-1,-1.931007862E0,2.589034081E0,8.365307808E0
5.861254800E-1,-1.837687731E0,2.742174864E0,7.798209190E0
5.908806370E-1,-2.813959360E0,3.120240688E0,7.735995770E0
5.956358450E-1,-2.536391973E0,3.426522017E0,7.781459332E0
6.003910010E-1,-3.014956474E0,3.479164124E0,7.743174076E0
6.051462100E-1,-3.144168854E0,3.364308596E0,7.913064480E0
6.099013660E-1,-3.158525944E0,3.196810961E0,8.200202942E0
6.146565740E-1,-3.314059258E0,2.967100143E0,8.331808090E0
6.194117300E-1,-3.290131092E0,2.895315409E0,8.472985268E0
6.241669390E-1,-3.330809116E0,2.706282377E0,8.702695847E0
6.289220950E-1,-3.388236761E0,2.605783939E0,8.585447311E0
6.336773030E-1,-3.395415306E0,2.459821701E0,8.429914474E0
6.384324600E-1,-3.263810158E0,2.426322222E0,8.152346611E0
6.431876680E-1,-3.117847919E0,2.464607239E0,7.846065521E0
6.479428240E-1,-2.971885681E0,2.557927370E0,7.678567886E0
6.526980330E-1,-2.864208698E0,2.687139750E0,7.451249599E0
6.574531890E-1,-2.797209740E0,2.768495798E0,7.221538544E0
6.622083970E-1,-2.742174864E0,2.787638426E0,6.977470875E0
6.669635530E-1,-2.727817774E0,2.809173822E0,6.891329288E0
6.717187620E-1,-2.689532757E0,2.828316450E0,6.936792850E0
6.764739180E-1,-2.935993433E0,2.732603550E0,7.037291527E0
6.812291260E-1,-2.823530674E0,2.830709219E0,7.037291527E0
6.859842830E-1,-2.837887764E0,2.833101988E0,7.389036179E0
6.907394910E-1,-2.861815929E0,2.694318295E0,7.381857872E0
6.954946470E-1,-2.797209740E0,2.603390932E0,7.453642368E0
7.002498550E-1,-2.773281336E0,2.510071039E0,7.566105366E0
7.050050120E-1,-2.790031195E0,2.316252232E0,7.539783955E0
7.097602200E-1,-2.711068153E0,2.242074728E0,7.534998417E0
7.145153760E-1,-2.536391973E0,2.356930256E0,7.408178806E0
7.192705850E-1,-2.364108801E0,2.452643156E0,7.530212879E0
7.240257410E-1,-2.622533560E0,2.304288149E0,7.690532207E0
7.287809490E-1,-2.342573404E0,2.328216314E0,7.764709473E0
7.335361050E-1,-2.443071842E0,2.165504456E0,8.118846893E0
7.382913140E-1,-2.806781054E0,2.079362869E0,7.922635555E0
7.430464700E-1,-2.742174864E0,2.088934183E0,8.159524918E0
7.478016780E-1,-3.036491871E0,1.806581140E0,8.327022552E0
7.525568350E-1,-3.007778168E0,1.744367719E0,8.377271652E0
7.573120430E-1,-3.220739365E0,1.629512191E0,8.334200859E0
7.620671990E-1,-3.797409534E0,1.605584025E0,8.226524353E0
7.668224080E-1,-4.122833252E0,1.476371527E0,8.178668022E0
7.715775640E-1,-3.991228104E0,1.450050473E0,8.740981102E0
7.763327720E-1,-3.785445452E0,1.332802176E0,8.903693199E0
7.810879280E-1,-3.682554007E0,1.086341500E0,8.951549530E0
7.858431370E-1,-3.163311481E0,9.164510965E-1,8.781659126E0
7.905983450E-1,-2.892922640E0,7.920243144E-1,8.853444099E0
7.953535010E-1,-2.677568436E0,7.968099117E-1,8.597412109E0
8.001086580E-1,-2.787638426E0,7.322037220E-1,8.394021988E0
8.048638660E-1,-2.541177750E0,8.949156404E-1,8.176275253E0
8.096190740E-1,-2.581855536E0,9.164510965E-1,7.939385414E0
8.143742300E-1,-2.964707375E0,9.379864931E-1,7.843672752E0
8.191294390E-1,-3.069991350E0,1.129412293E0,7.881958008E0
8.238845950E-1,-3.397808075E0,1.179661512E0,8.082955360E0
8.286398030E-1,-3.462414265E0,1.375872970E0,8.243273735E0
8.333949600E-1,-3.536591768E0,1.402194023E0,8.322237015E0
8.381501680E-1,-3.818944931E0,1.299302697E0,8.511270523E0
8.429053240E-1,-3.684946775E0,1.294517040E0,8.669196129E0
8.476605330E-1,-3.756731510E0,1.074377418E0,8.779266357E0
8.524156890E-1,-3.735196114E0,9.068797827E-1,8.812766075E0
8.571708970E-1,-3.596412420E0,7.968099117E-1,8.860622406E0
8.619260530E-1,-3.352344513E0,8.542376757E-1,8.817551613E0
8.666812620E-1,-3.081955671E0,9.547362328E-1,8.669196129E0
8.714364180E-1,-2.904886723E0,1.024128079E0,8.470592499E0
8.761916260E-1,-2.849851847E0,1.076770186E0,8.183453560E0
8.809467830E-1,-2.866601467E0,1.141376376E0,7.960920811E0
8.857019910E-1,-2.904886723E0,1.194018483E0,7.869993687E0
8.904571470E-1,-3.058027267E0,1.380658627E0,7.704888821E0
8.952123550E-1,-4.149154663E0,1.454836130E0,7.226324558E0
8.999675120E-1,-5.051248550E0,1.426122308E0,5.513063431E0
9.047227200E-1,-4.733003139E0,1.205982566E0,4.534399033E0
9.094779280E-1,-3.905086517E0,1.079162955E0,4.455435753E0
9.142330850E-1,-3.108276606E0,1.402194023E0,4.508078098E0
9.189882410E-1,-2.711068153E0,1.603191137E0,5.142175674E0
9.237434490E-1,-2.557927370E0,1.971685886E0,6.058627129E0
9.284986580E-1,-3.431307554E0,2.323430777E0,7.355536938E0
9.332538140E-1,-4.692325115E0,2.354537487E0,8.015955925E0
9.380090220E-1,-5.477170944E0,2.359323025E0,8.023134232E0
9.427641780E-1,-5.699703693E0,2.282752752E0,8.044670105E0
9.475193870E-1,-5.778666496E0,2.103291035E0,7.908278942E0
9.522745430E-1,-5.931807518E0,1.904686809E0,7.654639721E0
9.570297510E-1,-6.099305153E0,1.615155339E0,7.286144733E0
9.617849080E-1,-6.135197163E0,1.342373490E0,6.821937561E0
9.665401160E-1,-6.020341873E0,1.184447169E0,6.384050846E0
9.712952720E-1,-6.032305717E0,1.155733347E0,6.065805435E0
9.760504800E-1,-6.113661766E0,1.122233868E0,5.950950146E0
9.808056370E-1,-5.740381718E0,1.237089276E0,6.015556335E0
9.855608450E-1,-5.532206059E0,1.296909928E0,6.202196121E0
9.903160530E-1,-5.553741455E0,1.253839016E0,6.293123722E0
9.950712100E-1,-5.726024628E0,1.272981644E0,6.417550564E0
9.998264180E-1,-5.924628735E0,1.328016520E0,6.675975323E0
1.004581574E0,-6.137589931E0,1.385444283E0,6.972685337E0
1.009336783E0,-6.544369698E0,1.507478237E0,7.329215527E0
1.014091939E0,-7.013363361E0,1.622333765E0,7.546962738E0
1.018847147E0,-7.630711555E0,1.794616938E0,7.599604607E0
1.023602303E0,-8.116454124E0,1.804188251E0,7.405786037E0
1.028357512E0,-8.386843681E0,1.804188251E0,7.080362320E0
1.033112668E0,-8.472985268E0,1.797009826E0,6.802794933E0
1.037867876E0,-8.516056061E0,1.775474429E0,6.582654953E0
1.042623085E0,-8.492127419E0,1.770688772E0,6.338587284E0
1.047378241E0,-8.508877754E0,1.780260086E0,6.101697922E0
1.052133449E0,-8.611768723E0,1.799402595E0,5.869594097E0
1.056888605E0,-8.772088051E0,1.887937069E0,5.694917679E0
1.061643814E0,-8.788837433E0,1.962114573E0,5.632704735E0
1.066398970E0,-8.738588333E0,2.007578135E0,5.637490273E0
1.071154178E0,-8.657232285E0,1.933400750E0,5.678168297E0
1.075909335E0,-8.621339798E0,1.770688772E0,5.728417397E0
1.080664543E0,-8.599804878E0,1.607976794E0,5.781059742E0
1.085419699E0,-8.583054543E0,1.457229018E0,5.807380676E0
1.090174908E0,-8.477770805E0,1.330409408E0,5.800201893E0
1.094930116E0,-8.484949112E0,1.292124271E0,5.874379635E0
1.099685272E0,-8.539983749E0,1.265803218E0,5.879165173E0
1.104440480E0,-8.542376518E0,1.213161111E0,5.776273727E0
1.109195637E0,-8.458627701E0,1.098305583E0,5.635097504E0
1.113950845E0,-8.432307243E0,1.004985452E0,5.436492920E0
1.118706001E0,-8.504091263E0,9.930213690E-1,5.292923450E0
1.123461210E0,-8.355736732E0,1.275374413E0,5.125426292E0
1.128216418E0,-8.379665375E0,1.536192179E0,4.922036171E0
1.132971574E0,-8.484949112E0,1.710868239E0,4.646861553E0
1.137726783E0,-8.652446747E0,1.576870084E0,4.271188259E0
1.142481939E0,-8.772088051E0,1.670190215E0,4.156332970E0
1.147237147E0,-9.061619759E0,1.763510346E0,4.177868366E0
1.151992303E0,-9.351150513E0,1.677368641E0,4.197010994E0
1.156747512E0,-9.576076508E0,1.385444283E0,4.235296249E0
1.161502668E0,-9.832108498E0,1.055234790E0,4.223331928E0
1.166257876E0,-9.942177773E0,9.044869542E-1,4.237689018E0
1.171013085E0,-1.008574772E1,8.063812256E-1,4.412364960E0
1.175768241E0,-1.010728264E1,8.087740541E-1,4.579862595E0
1.180523449E0,-9.958928108E0,7.322037220E-1,4.584648132E0
1.185278605E0,-9.774680138E0,5.910272002E-1,4.424329281E0
1.190033814E0,-9.743574142E0,5.335994363E-1,4.311866283E0
1.194788970E0,-9.640682220E0,5.072783828E-1,4.201796532E0
1.199544178E0,-9.413364410E0,4.737788737E-1,3.986442566E0
1.204299387E0,-9.116654396E0,4.378865361E-1,3.754338741E0
1.209054543E0,-8.843872070E0,3.996013701E-1,3.560520172E0
1.213809751E0,-8.685946465E0,3.613162339E-1,3.359523058E0
1.218564908E0,-8.652446747E0,3.996013701E-1,3.235096216E0
1.223320116E0,-8.714659691E0,4.259224236E-1,3.125026464E0
1.228075324E0,-8.788837433E0,4.857429862E-1,2.914458036E0
1.232830480E0,-8.882157326E0,4.857429862E-1,2.723032236E0
1.237585689E0,-9.128618240E0,4.977070987E-1,2.450250387E0
1.242340845E0,-9.382257462E0,5.216353536E-1,2.263610125E0
1.247096053E0,-9.525827408E0,5.096712112E-1,2.091326952E0
1.251851210E0,-9.535398483E0,4.737788737E-1,1.883151412E0
1.256606418E0,-9.573683739E0,3.852444589E-1,1.770688772E0
1.261361626E0,-9.690931320E0,3.206382394E-1,1.782652855E0
1.266116783E0,-9.805787086E0,1.722832322E-1,1.636690736E0
1.270871991E0,-9.714859962E0,-7.657032460E-2,1.794616938E0
1.275627147E0,-9.604789734E0,-4.187439680E-1,1.706082582E0
1.280382355E0,-9.521040916E0,-6.604190469E-1,1.837687731E0
1.285137564E0,-9.269794464E0,-1.036092162E0,1.581655741E0
1.289892720E0,-9.286544800E0,-1.234696507E0,1.579262972E0
1.294647928E0,-9.121439934E0,-1.473978758E0,1.619940877E0
1.299403085E0,-9.095118523E0,-1.545763373E0,1.732403636E0
1.304158293E0,-9.181260109E0,-1.619940877E0,1.674975872E0
1.308913501E0,-9.320044518E0,-1.660618901E0,1.696511269E0
1.313668658E0,-9.595218658E0,-1.646261930E0,1.476371527E0
1.318423866E0,-9.999606133E0,-1.545763373E0,1.450050473E0
1.323179022E0,-1.031545830E1,-1.390229940E0,1.091127157E0
1.327934230E0,-1.064806080E1,-1.124626637E0,7.513462901E-1
1.332689387E0,-1.077248764E1,-8.183453679E-1,1.483550072E-1
1.337444595E0,-1.084666538E1,-4.881358147E-1,-4.067798555E-1
1.342199803E0,-1.078923702E1,-2.177468538E-1,-8.446664214E-1
1.346954960E0,-1.061695385E1,-6.460621208E-2,-1.115055323E0
1.351710168E0,-1.043509960E1,-1.674975827E-2,-1.275374413E0
1.356465376E0,-1.033699417E1,-1.914258115E-2,-1.390229940E0
1.361220533E0,-1.036092186E1,-9.571290761E-2,-1.485942841E0
1.365975741E0,-1.044467068E1,-3.134597540E-1,-1.610369682E0
1.370730897E0,-1.051167011E1,-5.527420044E-1,-1.416550994E0
1.375486105E0,-1.039202881E1,-8.159525394E-1,-1.509871125E0
1.380241314E0,-1.025324535E1,-1.086341500E0,-9.786644578E-1
1.384996470E0,-1.008335495E1,-1.323230863E0,-9.571290612E-1
1.389751678E0,-1.000917721E1,-1.605584025E0,-5.144568682E-1
1.394506835E0,-9.985248566E0,-1.806581140E0,-5.072783828E-1
1.399262043E0,-9.997213364E0,-1.976471543E0,-2.608176768E-1
1.404017251E0,-9.999606133E0,-2.132004976E0,-2.153540403E-1
1.408772408E0,-1.002592659E1,-2.277967215E0,-4.163511395E-1
1.413527616E0,-1.017428207E1,-2.337787628E0,-5.120640397E-1
1.418282772E0,-1.040159988E1,-2.285145521E0,-6.723831892E-1
1.423037980E0,-1.056431198E1,-2.155933142E0,-1.138983607E0
1.427793189E0,-1.071266651E1,-1.993221283E0,-1.275374413E0
1.432548345E0,-1.078205872E1,-1.785045743E0,-1.495514154E0
1.437303553E0,-1.087059307E1,-1.402194023E0,-1.653440475E0
1.442058762E0,-1.095434189E1,-1.098305583E0,-1.718046665E0
1.446813918E0,-1.100937653E1,-8.255237937E-1,-1.720439434E0
1.451569126E0,-1.107159042E1,-6.939185858E-1,-1.780260086E0
1.456324335E0,-1.111705399E1,-6.723831892E-1,-2.014756680E0
1.461079491E0,-1.112662506E1,-7.417750359E-1,-2.143969059E0
1.465834699E0,-1.105005455E1,-8.638089895E-1,-2.175075769E0
1.470589855E0,-1.105484104E1,-1.007378340E0,-2.163111687E0
1.475345064E0,-1.110509014E1,-1.203589797E0,-2.143969059E0
1.480100272E0,-1.112662506E1,-1.462014675E0,-2.100898266E0
1.484855428E0,-1.105005455E1,-1.672582984E0,-2.026720762E0
1.489610637E0,-1.098066330E1,-1.856830359E0,-1.866401672E0
1.494365845E0,-1.100937653E1,-2.012363911E0,-1.710868239E0
1.499121001E0,-1.102851963E1,-2.108076811E0,-1.596012712E0
1.503876210E0,-1.101894855E1,-2.151147604E0,-1.488335729E0
1.508631366E0,-1.088016415E1,-2.139183521E0,-1.351944804E0
1.513386574E0,-1.071266651E1,-2.088934183E0,-1.239482164E0
1.518141783E0,-1.060499001E1,-2.110469580E0,-1.170090318E0
1.522896939E0,-1.061456108E1,-2.129612207E0,-1.265803218E0
1.527652147E0,-1.059781170E1,-2.177468538E0,-1.280160069E0
1.532407355E0,-1.062413216E1,-2.151147604E0,-1.153340459E0
1.537162512E0,-1.057866859E1,-2.163111687E0,-1.184447169E0
1.541917720E0,-1.053559780E1,-2.232503414E0,-1.284945726E0
1.546672876E0,-1.047577763E1,-2.309073925E0,-1.552941918E0
1.551428085E0,-1.049013424E1,-2.313859463E0,-1.710868239E0
1.556183293E0,-1.049491978E1,-2.208575249E0,-1.835294962E0
1.560938449E0,-1.046381378E1,-2.141576290E0,-1.873580098E0
1.565693658E0,-1.041595650E1,-2.100898266E0,-1.895115495E0
1.570448866E0,-1.034895802E1,-2.067398787E0,-1.959721804E0
1.575204022E0,-1.022453117E1,-2.072184324E0,-2.088934183E0
1.579959230E0,-1.013599682E1,-2.057827473E0,-2.146361828E0
1.584714439E0,-1.011685371E1,-2.017149448E0,-2.172683001E0
1.589469595E0,-1.020538902E1,-1.981257200E0,-2.213361025E0
1.594224803E0,-1.031306553E1,-1.959721804E0,-2.143969059E0
1.598980012E0,-1.032742214E1,-2.017149448E0,-2.086541414E0
1.603735168E0,-1.034895802E1,-2.148754835E0,-2.069791555E0
1.608490376E0,-1.038963604E1,-2.292324066E0,-2.060220242E0
1.613245585E0,-1.055474091E1,-2.385644197E0,-2.045863390E0
1.618000741E0,-1.074616623E1,-2.435893536E0,-1.974078655E0
1.622755949E0,-1.085145092E1,-2.450250387E0,-1.890329838E0
1.627511105E0,-1.088255692E1,-2.493321180E0,-1.775474429E0
1.632266314E0,-1.080359459E1,-2.510071039E0,-1.622333765E0
1.637021522E0,-1.067438221E1,-2.553141832E0,-1.500299811E0
1.641776730E0,-1.054756260E1,-2.605783939E0,-1.430907965E0
1.646531887E0,-1.055474091E1,-2.665604353E0,-1.397408366E0
1.651287095E0,-1.061695385E1,-2.701496840E0,-1.261017561E0
1.656042251E0,-1.074377346E1,-2.732603550E0,-1.091127157E0
1.660797460E0,-1.080359459E1,-2.744567633E0,-1.019342422E0
1.665552668E0,-1.082034397E1,-2.761317253E0,-1.004985452E0
1.670307824E0,-1.082273674E1,-2.758924484E0,-1.000199914E0
1.675063033E0,-9.860821724E0,-2.739781857E0,-7.298108935E-1
1.679818241E0,-1.005942631E1,-2.670390129E0,-7.561319470E-1
1.684573397E0,-1.057627583E1,-2.701496840E0,-8.255237937E-1
1.689328605E0,-1.093998528E1,-2.711068153E0,-7.896314859E-1
1.694083814E0,-1.062173939E1,-2.665604353E0,-5.144568682E-1
1.698838970E0,-1.047099209E1,-2.703889608E0,-4.881358147E-1
1.703594178E0,-9.801001549E0,-2.737389088E0,-6.005984545E-1
1.708349387E0,-9.810572624E0,-2.723032236E0,-6.460621357E-1
1.713104543E0,-1.014078236E1,-2.818745136E0,-9.116654396E-1
1.717859751E0,-1.039202881E1,-2.852244616E0,-9.188438654E-1
1.722614960E0,-1.047817039E1,-2.924029350E0,-8.063812256E-1
1.727370116E0,-1.032024384E1,-3.014956474E0,-5.024927258E-1
1.732125324E0,-9.489934921E0,-3.007778168E0,-2.033899277E-1
1.736880533E0,-9.322437286E0,-3.005385160E0,-1.148554832E-1
1.741635689E0,-9.726823807E0,-3.038884640E0,-6.675975323E-1
1.746390897E0,-1.024128056E1,-2.983849764E0,-8.949156404E-1
1.751146105E0,-1.046859932E1,-2.964707375E0,-7.680960894E-1
1.755901262E0,-1.022692394E1,-2.974278450E0,-5.647061467E-1
1.760656470E0,-9.956535339E0,-3.041277647E0,-5.790630579E-1
1.765411678E0,-1.008814049E1,-2.981456995E0,-1.155733347E0
1.770166835E0,-1.045902824E1,-2.864208698E0,-1.799402595E0
1.774922043E0,-1.082512951E1,-2.627319336E0,-2.182254314E0
1.779677251E0,-1.109551907E1,-2.330609322E0,-2.505285263E0
1.784432460E0,-1.087777138E1,-2.029113531E0,-2.519642353E0
1.789187616E0,-1.083470058E1,-1.828116536E0,-2.565105915E0
1.793942824E0,-1.110748291E1,-1.670190215E0,-2.914458036E0
1.798697980E0,-1.131805134E1,-1.517049551E0,-3.287738323E0
1.803453189E0,-1.119362450E1,-1.361516118E0,-3.723232031E0
1.808208397E0,-1.081795120E1,-1.294517040E0,-4.192225456E0
1.812963605E0,-9.681360245E0,-1.433300734E0,-4.847858906E0
1.817718762E0,-1.036331463E1,-1.433300734E0,-4.862215519E0
1.822473970E0,-1.154297638E1,-1.426122308E0,-4.527220249E0
1.827229178E0,-1.209332561E1,-1.280160069E0,-3.706482172E0
1.831984335E0,-1.163868904E1,-1.560120344E0,-3.692125320E0
1.836739543E0,-1.117687416E1,-2.043470621E0,-4.151547432E0
1.841494751E0,-1.071984577E1,-2.395215511E0,-4.364508629E0
1.846249908E0,-9.674181938E0,-3.136990547E0,-5.584847927E0
1.851005116E0,-9.576076508E0,-2.907279491E0,-4.558327198E0
1.855760324E0,-9.609575272E0,-2.665604353E0,-3.617947817E0
1.860515480E0,-9.722038269E0,-2.440679073E0,-3.579662561E0
1.865270689E0,-9.722038269E0,-2.380858421E0,-4.060619831E0
1.870025897E0,-9.908679008E0,-2.376072884E0,-4.084548473E0
1.874781105E0,-1.005464077E1,-2.340180635E0,-3.661018610E0
1.879536262E0,-1.010488987E1,-2.244467735E0,-3.103491068E0
1.884291470E0,-1.020778179E1,-1.964507341E0,-2.395215511E0
1.889046678E0,-1.020778179E1,-1.981257200E0,-2.033899307E0
1.893801835E0,-1.012642574E1,-2.218146563E0,-2.904886723E0
1.898557043E0,-1.002831936E1,-2.232503414E0,-2.584248543E0
1.903312251E0,-9.573683739E0,-2.892922640E0,-2.380858421E0
1.908067408E0,-9.360722542E0,-3.610769272E0,-2.452643156E0
1.912822616E0,-9.176474571E0,-4.063013077E0,-2.021935225E0
1.917577824E0,-9.080761909E0,-4.280759811E0,-1.636690736E0
1.922332980E0,-9.028120041E0,-4.268795490E0,-1.179661512E0
1.927088189E0,-8.178668022E0,-4.170690060E0,-1.471585870E0
1.931843397E0,-8.343772888E0,-4.048655987E0,-1.177268744E0
1.936598605E0,-8.934800148E0,-4.017549038E0,-5.742774606E-1
1.941353762E0,-9.217152596E0,-3.859622955E0,-1.938186288E-1
1.946108970E0,-9.193224907E0,-3.950550079E0,2.823530734E-1
1.950864178E0,-9.011369705E0,-4.273581028E0,9.092725813E-2
1.955619335E0,-8.772088051E0,-4.457828522E0,1.914258152E-1
1.960374543E0,-8.137989998E0,-4.759324074E0,9.092725813E-2
1.965129751E0,-7.716853142E0,-4.776073933E0,1.914258152E-1
1.969884960E0,-7.389036179E0,-4.524827480E0,-9.092725813E-2
1.974640116E0,-6.259624004E0,-4.725824833E0,-1.335195065E0
1.979395324E0,-6.881757736E0,-4.551148891E0,-1.653440475E0
1.984150533E0,-8.209774017E0,-4.122833252E0,-1.347159147E0
1.988905689E0,-8.506484032E0,-3.572484255E0,-7.824530005E-1
1.993660897E0,-8.776873589E0,-3.579662561E0,-1.383051515E0
1.998416105E0,-9.305686951E0,-3.718446493E0,-2.060220242E0
2.003171314E0,-9.535398483E0,-3.866801500E0,-2.230110645E0
2.007926470E0,-9.702896118E0,-4.024727821E0,-2.574677229E0
2.012681678E0,-9.889535904E0,-4.345366001E0,-3.505485058E0
2.017436887E0,-1.032742214E1,-3.495913982E0,-1.524227977E0
2.022192043E0,-1.025085258E1,-2.885744095E0,-5.240281820E-1
2.026947251E0,-1.003071213E1,-3.103491068E0,-1.435693622E0
2.031702460E0,-9.784252167E0,-3.297309637E0,-1.761117458E0
2.036457668E0,-9.250652313E0,-3.670589924E0,-1.753939033E0
2.041212824E0,-8.970691681E0,-3.893122435E0,-1.380658627E0
2.045968033E0,-8.547162056E0,-4.015156269E0,-1.335195065E0
2.050723241E0,-8.114061356E0,-3.976871252E0,-1.136590719E0
2.055478449E0,-7.977670670E0,-3.869194269E0,-8.853443861E-1
2.060233605E0,-8.008777618E0,-3.859622955E0,-9.188438654E-1
2.064988814E0,-8.015955925E0,-4.192225456E0,-1.246660590E0
2.069744022E0,-8.008777618E0,-4.465006828E0,-1.540977836E0
2.074499178E0,-8.001599312E0,-4.400400639E0,-1.555334687E0
2.079254387E0,-7.908278942E0,-4.335794449E0,-1.536192179E0
2.084009595E0,-7.807780266E0,-4.256831646E0,-1.572084427E0
2.088764803E0,-7.886743546E0,-4.220939159E0,-1.787438512E0
2.093519960E0,-8.185846329E0,-4.223331928E0,-1.950150490E0
2.098275168E0,-8.633303642E0,-4.261617184E0,-2.151147604E0
2.103030376E0,-9.315258980E0,-4.254438877E0,-2.167897224E0
2.107785585E0,-9.877572060E0,-4.175475597E0,-2.026720762E0
2.112540741E0,-1.008335495E1,-4.259224415E0,-2.055434704E0
2.117295949E0,-9.968499184E0,-4.347758770E0,-2.182254314E0
2.122051158E0,-9.734002113E0,-4.402793884E0,-2.502892494E0
2.126806366E0,-9.504291534E0,-4.268795490E0,-2.675175667E0
2.131561522E0,-9.375079155E0,-4.053441525E0,-2.768495798E0
2.136316730E0,-9.176474571E0,-3.938585997E0,-2.876172781E0
2.141071939E0,-8.874979019E0,-3.845266104E0,-3.053241730E0
2.145827147E0,-8.583054543E0,-3.883551121E0,-3.294916868E0
2.150582303E0,-8.274380684E0,-4.012763500E0,-3.464807272E0
2.155337512E0,-8.137989998E0,-4.000799656E0,-3.579662561E0
2.160092720E0,-8.092526436E0,-4.115654945E0,-3.735196114E0
2.164847876E0,-8.279166222E0,-4.173082829E0,-3.694518089E0
2.169603085E0,-8.451449394E0,-4.206582069E0,-3.555734396E0
2.174358293E0,-8.441878319E0,-4.122833252E0,-3.436093330E0
2.179113501E0,-8.405985832E0,-3.828516245E0,-2.945564747E0
2.183868658E0,-8.499305725E0,-3.617947817E0,-2.983849764E0
2.188623866E0,-8.616554260E0,-3.625126362E0,-3.201596737E0
2.193379074E0,-8.760123253E0,-3.723232031E0,-3.500699520E0
2.198134283E0,-9.049654961E0,-3.888336897E0,-3.711267948E0
2.202889439E0,-9.418149948E0,-3.881158352E0,-3.795016766E0
2.207644647E0,-9.521040916E0,-3.890729666E0,-3.589233875E0
2.212399855E0,-9.387042999E0,-4.000799656E0,-3.335594654E0
2.217155064E0,-8.927620888E0,-4.158725739E0,-3.242274761E0
2.221910220E0,-8.439485550E0,-4.357329845E0,-3.249453068E0
2.226665428E0,-8.030312538E0,-4.505684853E0,-3.223132133E0
2.231420637E0,-7.630711555E0,-4.685146809E0,-3.067598581E0
2.236175845E0,-7.144968510E0,-4.807180882E0,-2.749353170E0
2.240931001E0,-6.750152588E0,-4.814359188E0,-2.543570518E0
2.245686210E0,-6.410371780E0,-4.972285271E0,-2.266003132E0
2.250441418E0,-6.178267956E0,-5.113461971E0,-2.182254314E0
2.255196626E0,-6.082555294E0,-5.142175674E0,-2.213361025E0
2.259951783E0,-6.022734642E0,-5.156532764E0,-2.285145521E0
2.264706991E0,-6.001199245E0,-5.063212872E0,-2.433500528E0
2.269462199E0,-5.905486107E0,-5.008177757E0,-2.773281336E0
2.274217408E0,-6.020341873E0,-4.711467743E0,-3.136990547E0
2.278972616E0,-6.046662807E0,-4.599005222E0,-3.366701365E0
2.283727772E0,-6.202196121E0,-4.579862595E0,-3.687339783E0
2.288482980E0,-6.333801746E0,-4.577469826E0,-4.031906128E0
2.293238189E0,-6.005984783E0,-4.625326157E0,-4.106083870E0
2.297993397E0,-6.266802311E0,-4.666004181E0,-4.754538536E0
2.302748553E0,-6.506084919E0,-4.515256405E0,-4.474578381E0
2.307503762E0,-6.671189308E0,-4.517649174E0,-4.840680122E0
2.312258970E0,-6.958328247E0,-4.414757729E0,-4.572684288E0
2.317014178E0,-7.214360237E0,-4.697110653E0,-4.390829563E0
2.321769335E0,-7.331608772E0,-4.826323509E0,-4.285545349E0
2.326524543E0,-7.214360237E0,-4.776073933E0,-3.751945972E0
2.331279751E0,-7.147361279E0,-4.907679081E0,-3.617947817E0
2.336034960E0,-7.018148899E0,-4.869394302E0,-2.955136061E0
2.340790168E0,-6.704689026E0,-4.979464054E0,-2.749353170E0
2.345545324E0,-7.061219692E0,-5.075176716E0,-3.002992392E0
2.350300533E0,-7.264609337E0,-4.962714195E0,-3.034099102E0
2.355055741E0,-7.458428383E0,-4.804787636E0,-3.170490026E0
2.359810949E0,-7.812565804E0,-4.701896667E0,-3.373879910E0
2.364566105E0,-8.154739380E0,-4.613361835E0,-3.455235958E0
2.369321314E0,-8.535198212E0,-4.618147850E0,-3.675375462E0
2.374076522E0,-8.729017258E0,-4.673182487E0,-3.821337700E0
2.378831730E0,-9.296115875E0,-4.893322468E0,-4.192225456E0
2.383586887E0,-1.002114105E1,-5.187639713E0,-4.479363918E0
2.388342095E0,-1.083709335E1,-5.481956482E0,-4.527220249E0
2.393097303E0,-1.146640587E1,-5.706882000E0,-4.362115860E0
2.397852512E0,-1.180618668E1,-5.702096462E0,-4.443471432E0
2.402607720E0,-1.185643578E1,-5.697310925E0,-4.409972191E0
2.407362876E0,-1.183729362E1,-5.663811207E0,-4.211368084E0
2.412118085E0,-1.151186943E1,-5.651846886E0,-4.034298897E0
2.416873293E0,-1.095912743E1,-5.680561066E0,-3.857230186E0
2.421628501E0,-1.013121128E1,-5.572884083E0,-3.610769272E0
2.426383710E0,-8.834300995E0,-5.367101192E0,-3.596412420E0
2.431138866E0,-7.838887215E0,-5.283352375E0,-3.694518089E0
2.435894074E0,-7.484749317E0,-5.175675392E0,-3.723232031E0
2.440649283E0,-7.326822758E0,-5.197210789E0,-3.778266907E0
2.445404491E0,-7.317251682E0,-5.221138954E0,-3.723232031E0
2.450159647E0,-7.412964344E0,-5.359922886E0,-3.622733593E0
2.454914855E0,-7.422535896E0,-5.481956482E0,-3.337987661E0
2.459670064E0,-7.398607731E0,-5.513063431E0,-3.146561861E0
2.464425272E0,-7.295716286E0,-5.491528034E0,-3.067598581E0
2.469180480E0,-7.204789162E0,-5.465207100E0,-3.046063185E0
2.473935637E0,-7.156932354E0,-5.441278458E0,-3.067598581E0
2.478690845E0,-7.214360237E0,-5.505885124E0,-3.113062143E0
2.483446053E0,-7.238288403E0,-5.570491314E0,-3.175275564E0
2.488201262E0,-7.262216568E0,-5.582455158E0,-3.381058455E0
2.492956470E0,-7.367500782E0,-5.556134224E0,-3.608376503E0
2.497711626E0,-7.561319351E0,-5.527420521E0,-4.060619831E0
2.502466835E0,-7.654639721E0,-5.479563713E0,-4.369294167E0
2.507222043E0,-7.633104324E0,-5.448457241E0,-4.409972191E0
2.511977251E0,-7.587640762E0,-5.436492920E0,-4.390829563E0
2.516732460E0,-7.503891945E0,-5.434100151E0,-4.290330887E0
2.521487616E0,-7.365108013E0,-5.443671703E0,-4.043870449E0
2.526242824E0,-7.281359196E0,-5.510670662E0,-3.857230186E0
2.530998033E0,-7.176074982E0,-5.544169903E0,-3.591626883E0
2.535753241E0,-7.101897717E0,-5.625525951E0,-3.352344513E0
2.540508449E0,-7.092326164E0,-5.675775528E0,-3.113062143E0
2.545263605E0,-7.109076023E0,-5.706882000E0,-3.022135019E0
2.550018814E0,-7.173682213E0,-5.711667538E0,-2.974278450E0
2.554774022E0,-7.274180889E0,-5.625525951E0,-3.041277647E0
2.559529230E0,-7.439285755E0,-5.558526993E0,-3.180061340E0
2.564284387E0,-7.506284714E0,-5.517848969E0,-3.242274761E0
2.569039595E0,-7.496713161E0,-5.472385406E0,-3.323630571E0
2.573794803E0,-7.417750359E0,-5.462814331E0,-3.433700562E0
2.578550012E0,-7.326822758E0,-5.458028316E0,-3.555734396E0
2.583305220E0,-7.209574699E0,-5.513063431E0,-3.689732552E0
2.588060376E0,-7.111468792E0,-5.536991596E0,-3.795016766E0
2.592815585E0,-7.082755089E0,-5.603990555E0,-3.955335855E0
2.597570793E0,-7.030112743E0,-5.635097504E0,-4.115654945E0
2.602326001E0,-6.934400082E0,-5.635097504E0,-4.228117466E0
2.607081210E0,-6.876972198E0,-5.623133183E0,-4.247260094E0
2.611836418E0,-6.893722057E0,-5.592026711E0,-4.108476639E0
2.616591574E0,-6.958328247E0,-5.455635548E0,-3.962514400E0
2.621346783E0,-7.032505512E0,-5.324030399E0,-3.814159393E0
2.626101991E0,-7.075576782E0,-5.278566837E0,-3.768695593E0
2.630857199E0,-7.027719975E0,-5.252245903E0,-3.649054527E0
2.635612408E0,-6.939185619E0,-5.374279499E0,-3.567698479E0
2.640367616E0,-6.826723099E0,-5.350351334E0,-3.297309637E0
2.645122772E0,-6.891329288E0,-5.393422127E0,-3.294916868E0
2.649877980E0,-6.932007313E0,-5.525027275E0,-3.493520975E0
2.654633189E0,-7.032505512E0,-5.493920803E0,-3.725624800E0
2.659388397E0,-7.324429989E0,-4.907679081E0,-3.739981890E0
2.664143605E0,-7.056434155E0,-4.945964336E0,-3.553341627E0
2.668898762E0,-6.812366009E0,-5.056034088E0,-3.589233875E0
2.673653970E0,-6.434299946E0,-5.324030399E0,-3.610769272E0
2.678409178E0,-6.204588890E0,-5.498706341E0,-3.778266907E0
2.683164387E0,-6.104090691E0,-5.871986866E0,-4.115654945E0
2.687919595E0,-6.589833736E0,-5.388636589E0,-4.579862595E0
2.692674803E0,-6.709474564E0,-5.209175110E0,-4.589433670E0
2.697429960E0,-6.592226505E0,-5.099104881E0,-4.431507587E0
2.702185168E0,-6.300302029E0,-5.094319344E0,-4.275974274E0
2.706940376E0,-6.046662807E0,-5.285745144E0,-4.206582069E0
2.711695585E0,-5.958128452E0,-5.484349728E0,-4.194618225E0
2.716450793E0,-6.101697922E0,-5.436492920E0,-4.220939159E0
2.721205949E0,-6.494120598E0,-5.053641319E0,-4.240081787E0
2.725961158E0,-6.431907177E0,-5.058426857E0,-4.043870449E0
2.730716366E0,-6.300302029E0,-5.173282623E0,-3.864408493E0
2.735471574E0,-6.142375946E0,-5.338387489E0,-3.723232031E0
2.740226783E0,-6.116054535E0,-5.551348686E0,-3.646661758E0
2.744981991E0,-6.166304111E0,-5.726024628E0,-3.589233875E0
2.749737147E0,-6.711867332E0,-5.268995285E0,-3.696911097E0
2.754492355E0,-6.793223381E0,-5.228317261E0,-3.704089403E0
2.759247564E0,-6.747759819E0,-5.257031441E0,-3.754338741E0
2.764002772E0,-6.635297298E0,-5.335994720E0,-3.814159393E0
2.768757980E0,-6.611369133E0,-5.345565796E0,-3.847658873E0
2.773513137E0,-6.695117950E0,-5.326423168E0,-3.936193228E0
2.778268345E0,-6.716653347E0,-5.321637630E0,-4.055834293E0
2.783023553E0,-6.644868374E0,-5.350351334E0,-4.168296814E0
2.787778762E0,-6.527620316E0,-5.419743061E0,-4.249652863E0
2.792533970E0,-6.429514408E0,-5.429314613E0,-4.254438877E0
2.797289178E0,-6.302694798E0,-5.410171986E0,-4.189832687E0
2.802044335E0,-6.250052929E0,-5.388636589E0,-4.132404804E0
2.806799543E0,-6.149554253E0,-5.300102234E0,-4.012763500E0
2.811554751E0,-6.084948063E0,-5.218746185E0,-3.857230186E0
2.816309960E0,-6.046662807E0,-5.144568920E0,-3.742374659E0
2.821065168E0,-5.991627693E0,-5.137390137E0,-3.605983734E0
2.825820376E0,-5.938985825E0,-5.094319344E0,-3.550948858E0
2.830575533E0,-5.862415314E0,-5.053641319E0,-3.483949661E0
2.835330741E0,-5.800201893E0,-5.106283665E0,-3.531806231E0
2.840085949E0,-5.726024628E0,-5.039284706E0,-3.553341627E0
2.844841158E0,-5.630311489E0,-5.020142078E0,-3.450450182E0
2.849596366E0,-5.603990555E0,-5.017749310E0,-3.347558975E0
2.854351574E0,-5.525027275E0,-4.998606682E0,-3.247060299E0
2.859106730E0,-5.391029358E0,-5.290530682E0,-3.239881754E0
2.863861939E0,-5.221138954E0,-5.718846321E0,-3.421736479E0
2.868617147E0,-5.302495003E0,-5.718846321E0,-3.500699520E0
2.873372355E0,-5.364708424E0,-5.592026711E0,-3.395415306E0
2.878127564E0,-5.393422127E0,-5.412564754E0,-3.199203968E0
2.882882772E0,-5.429314613E0,-5.424529076E0,-3.148954630E0
2.887637980E0,-5.410171986E0,-5.577669621E0,-3.072384357E0
2.892393137E0,-5.371886730E0,-5.785845280E0,-3.031706333E0
2.897148345E0,-5.429314613E0,-5.946164131E0,-3.012563705E0
2.901903553E0,-5.486742496E0,-6.034698486E0,-2.955136061E0
2.906658762E0,-5.501099110E0,-6.022734642E0,-2.797209740E0
2.911413970E0,-5.414957523E0,-6.058627129E0,-2.627319336E0
2.916169178E0,-5.343173027E0,-5.994020939E0,-2.522035122E0
2.920924335E0,-5.359922886E0,-6.092126369E0,-2.586641312E0
2.925679543E0,-5.374279499E0,-6.161518097E0,-2.663211584E0
2.930434751E0,-5.297709465E0,-6.216553211E0,-2.725425005E0
2.935189960E0,-5.252245903E0,-6.245266914E0,-2.790031195E0
2.939945168E0,-5.197210789E0,-6.290730953E0,-2.804388046E0
2.944700376E0,-5.144568920E0,-6.312266350E0,-2.806781054E0
2.949455585E0,-5.056034088E0,-6.348158360E0,-2.773281336E0
2.954210741E0,-4.931607246E0,-6.427121639E0,-2.703889608E0
2.958965949E0,-4.828716278E0,-6.491727829E0,-2.703889608E0
2.963721158E0,-4.723432064E0,-6.551548481E0,-2.706282377E0
2.968476366E0,-4.606183529E0,-6.580262184E0,-2.708675146E0
2.973231574E0,-4.491328239E0,-6.608976364E0,-2.665604353E0
2.977986783E0,-4.424329281E0,-6.685546398E0,-2.639283419E0
2.982741939E0,-4.321437836E0,-6.745367050E0,-2.581855536E0
2.987497147E0,-4.113262177E0,-6.896114826E0,-2.586641312E0
2.992252355E0,-3.823730469E0,-7.101897717E0,-2.567498684E0
2.997007564E0,-3.914657831E0,-7.013363361E0,-2.505285263E0
3.001762772E0,-4.177868366E0,-6.831508636E0,-2.486142635E0
3.006517980E0,-4.249652863E0,-6.831508636E0,-2.445464849E0
3.011273189E0,-4.232903481E0,-6.867401123E0,-2.366501570E0
3.016028345E0,-4.177868366E0,-6.927221775E0,-2.311466694E0
3.020783553E0,-4.132404804E0,-6.991827965E0,-2.225325108E0
3.025538762E0,-4.046263218E0,-7.027719975E0,-2.103291035E0
3.030293970E0,-3.950550079E0,-6.879364967E0,-1.950150490E0
3.035049178E0,-3.718446493E0,-6.752545357E0,-1.777867198E0
3.039804387E0,-3.460021496E0,-6.649653912E0,-1.567298889E0
3.044559595E0,-3.046063185E0,-6.582654953E0,-1.373480201E0
3.049314803E0,-2.505285263E0,-6.501298904E0,-1.186840057E0
3.054069960E0,-1.902294040E0,-6.417550564E0,-1.129412293E0
3.058825168E0,-8.015955687E-1,-5.977271080E0,-1.105484009E0
3.063580376E0,2.488535494E-1,-5.635097504E0,-1.361516118E0
3.068335585E0,1.071984529E0,-5.481956482E0,-1.878365755E0
3.073090793E0,1.167697430E0,-5.367101192E0,-2.483749866E0
3.077846001E0,6.029912829E-1,-5.309673309E0,-2.825923443E0
3.082601158E0,-4.833501875E-1,-5.615954876E0,-2.371287346E0
3.087356366E0,-2.938386202E0,-7.274180889E0,-1.770688772E0
3.092111574E0,-6.259624004E0,-1.044467068E1,-1.579262972E0
3.096866783E0,-8.161917686E0,-1.371805191E1,-1.507478237E0
3.101621991E0,-8.389236450E0,-1.627598000E1,-1.122233868E0
3.106377199E0,-9.851250648E0,-1.995135498E1,-7.034898400E-1
3.111132408E0,-1.197846985E1,-2.369372940E1,-1.028913707E-1
3.115887616E0,-1.270588779E1,-2.620858574E1,3.517449200E-1
3.120642772E0,-1.267717457E1,-2.774238586E1,8.733802438E-1
3.125397980E0,-1.240439224E1,-2.836930466E1,1.552941918E0
3.130153189E0,-1.083948612E1,-2.740739059E1,1.270588875E0
3.134908397E0,-8.195417404E0,-2.421536446E1,-7.920243144E-1
3.139663605E0,-5.603990555E0,-1.954218292E1,-1.294517040E0
3.144418814E0,-2.964707375E0,-1.653440475E1,-2.426322222E0
3.149174022E0,-1.026520967E0,-1.395733452E1,-3.268595695E0
3.153929230E0,5.216353536E-1,-1.183968639E1,-3.500699520E0
3.158684387E0,1.674975872E0,-1.024128056E1,-3.409772158E0
3.163439595E0,2.531606436E0,-8.908478737E0,-3.378665686E0
3.168194803E0,2.804388046E0,-7.865208149E0,-3.469592810E0
3.172950012E0,2.689532757E0,-7.054041386E0,-3.548556089E0
3.177705220E0,2.330609322E0,-6.501298904E0,-3.766302824E0
3.182460428E0,1.773081541E0,-6.309873104E0,-4.218546391E0
3.187215637E0,1.136590719E0,-6.424728870E0,-4.742574692E0
3.191970845E0,4.139583111E-1,-6.778866768E0,-5.000999451E0
3.196726001E0,-5.024927258E-1,-7.159325123E0,-4.874179840E0
3.201481210E0,-1.540977836E0,-7.434499741E0,-4.543970108E0
3.206236418E0,-2.522035122E0,-7.654639721E0,-4.072584152E0
3.210991626E0,-3.314059258E0,-7.822137356E0,-3.519842148E0
3.215746835E0,-3.933800459E0,-8.008777618E0,-2.988635540E0
3.220502043E0,-4.383651257E0,-8.224131584E0,-2.495713949E0
3.225257251E0,-4.661218643E0,-8.386843681E0,-2.050648928E0
3.230012460E0,-4.776073933E0,-8.530412674E0,-1.557727575E0
3.234767616E0,-4.838287354E0,-8.616554260E0,-1.100698471E0
3.239522824E0,-4.809573650E0,-8.659625053E0,-6.652047038E-1
3.244278033E0,-4.704289436E0,-8.666803360E0,-2.512463629E-1
3.249033241E0,-4.522434711E0,-8.654839516E0,1.100698411E-1
3.253788449E0,-4.323830605E0,-8.671588898E0,3.349951804E-1
3.258543658E0,-4.060619831E0,-8.671588898E0,5.048855543E-1
3.263298866E0,-3.795016766E0,-8.676374435E0,6.675975323E-1
3.268054074E0,-3.558127165E0,-8.628518105E0,7.824530005E-1
3.272809283E0,-3.428914785E0,-8.578269005E0,8.303094506E-1
3.277564439E0,-3.359523058E0,-8.559126854E0,6.963114142E-1
3.282319647E0,-3.311666489E0,-8.659625053E0,3.613162339E-1
3.287074855E0,-3.223132133E0,-8.891729355E0,-1.842473447E-1
3.291830064E0,-3.122633457E0,-9.166903496E0,-6.843472719E-1
3.296585272E0,-3.012563705E0,-9.394221306E0,-1.127019525E0
3.301340480E0,-2.931207657E0,-9.509077072E0,-1.476371527E0
3.306095689E0,-2.909672260E0,-9.552147865E0,-1.744367719E0
3.310850845E0,-2.842673302E0,-9.597611427E0,-1.942971945E0
3.315606053E0,-2.720639229E0,-9.827322960E0,-2.155933142E0
3.320361262E0,-2.495713949E0,-1.020299530E1,-2.364108801E0
3.325116470E0,-2.469393015E0,-1.038963604E1,-2.500499725E0
3.329871678E0,-2.679961443E0,-1.030827999E1,-2.553141832E0
3.334626887E0,-2.962314367E0,-1.011685371E1,-2.553141832E0
3.339382095E0,-3.235096216E0,-9.879964828E0,-2.512463808E0
3.344137303E0,-3.426522017E0,-9.595218658E0,-2.481357098E0
3.348892512E0,-3.448057413E0,-9.341579437E0,-2.443071842E0
3.353647720E0,-3.347558975E0,-9.190832138E0,-2.428714991E0
3.358402876E0,-3.287738323E0,-9.142974854E0,-2.457428932E0
3.363158085E0,-3.328416348E0,-9.188439369E0,-2.289931297E0
3.367913293E0,-3.340380430E0,-9.128618240E0,-2.065006018E0
3.372668501E0,-3.237488985E0,-8.958727837E0,-1.842473388E0
3.377423710E0,-3.010170937E0,-8.755337715E0,-1.605584025E0
3.382178918E0,-2.871387243E0,-8.616554260E0,-1.581655741E0
3.386934126E0,-2.828316450E0,-8.767302513E0,-1.986042738E0
3.391689335E0,-3.029313564E0,-8.946763992E0,-2.445464849E0
3.396444543E0,-3.254238844E0,-9.011369705E0,-2.641676188E0
3.401199699E0,-3.445664644E0,-9.097511292E0,-2.720639229E0
3.405954908E0,-3.498306751E0,-9.154939651E0,-2.723032236E0
3.410710116E0,-3.493520975E0,-9.171689034E0,-2.725425005E0
3.415465324E0,-3.562912941E0,-9.049654961E0,-2.684746981E0
3.420220533E0,-3.756731510E0,-8.884550095E0,-2.529213428E0
3.424975741E0,-3.931407690E0,-8.829515457E0,-2.313859463E0
3.429730949E0,-4.024727821E0,-8.836693764E0,-2.110469580E0
3.434486158E0,-4.003192425E0,-8.863015175E0,-1.942971945E0
3.439241366E0,-3.917050600E0,-8.879764557E0,-1.813759565E0
3.443996522E0,-3.811766386E0,-8.879764557E0,-1.701296926E0
3.448751730E0,-3.699303865E0,-8.860622406E0,-1.665404558E0
3.453506939E0,-3.591626883E0,-8.865407944E0,-1.674975872E0
3.458262147E0,-3.522234917E0,-8.860622406E0,-1.715653777E0
3.463017355E0,-3.505485058E0,-8.843872070E0,-1.797009826E0
3.467772564E0,-3.510270834E0,-8.829515457E0,-1.880758643E0
3.472527772E0,-3.538984776E0,-8.810373306E0,-1.964507341E0
3.477282980E0,-3.565305710E0,-8.781659126E0,-2.014756680E0
3.482038189E0,-3.560520172E0,-8.774480820E0,-2.057827473E0
3.486793397E0,-3.567698479E0,-8.762516975E0,-2.053041935E0
3.491548553E0,-3.527020693E0,-8.786444664E0,-2.031506538E0
3.496303762E0,-3.512663603E0,-8.810373306E0,-2.007578135E0
3.501058970E0,-3.464807272E0,-8.843872070E0,-1.954936147E0
3.505814178E0,-3.445664644E0,-8.882157326E0,-1.911865234E0
3.510569387E0,-3.445664644E0,-8.925228119E0,-1.904686809E0
3.515324595E0,-3.421736479E0,-8.944371223E0,-1.873580098E0
3.520079803E0,-3.404986620E0,-8.975478172E0,-1.909472466E0
3.524835012E0,-3.404986620E0,-8.987442017E0,-1.952543259E0
3.529590220E0,-3.445664644E0,-9.004191399E0,-1.974078655E0
3.534345428E0,-3.419343472E0,-8.994620323E0,-2.005185366E0
3.539100585E0,-3.419343472E0,-8.997013092E0,-2.053041935E0
3.543855793E0,-3.433700562E0,-8.985049248E0,-2.072184324E0
3.548611001E0,-3.438486099E0,-8.980263710E0,-2.088934183E0
3.553366210E0,-3.476771355E0,-8.951549530E0,-2.086541414E0
3.558121418E0,-3.491128206E0,-8.913264275E0,-2.096112728E0
3.562876626E0,-3.558127165E0,-8.901300430E0,-2.072184324E0
3.567631835E0,-3.603590965E0,-8.889336586E0,-2.057827473E0
3.572387043E0,-3.637090445E0,-8.867800713E0,-2.021935225E0
3.577142251E0,-3.689732552E0,-8.843872070E0,-1.964507341E0
3.581897460E0,-3.742374659E0,-8.812766075E0,-1.911865234E0
3.586652668E0,-3.804588079E0,-8.815158844E0,-1.864008784E0
3.591407876E0,-3.833301783E0,-8.798408508E0,-1.840080619E0
3.596163033E0,-3.850051641E0,-8.776873589E0,-1.811366796E0
3.600918241E0,-3.845266104E0,-8.781659126E0,-1.792224169E0
3.605673449E0,-3.873979807E0,-8.755337715E0,-1.816152334E0
3.610428658E0,-3.847658873E0,-8.740981102E0,-1.840080619E0
3.615183866E0,-3.869194269E0,-8.717052460E0,-1.880758643E0
3.619939074E0,-3.862015724E0,-8.690732002E0,-1.911865234E0
3.624694283E0,-3.828516245E0,-8.702695847E0,-1.926222205E0
3.629449491E0,-3.826123476E0,-8.702695847E0,-1.928615093E0
3.634204699E0,-3.795016766E0,-8.702695847E0,-1.971685886E0
3.638959908E0,-3.773481369E0,-8.702695847E0,-1.998006940E0
3.643715116E0,-3.725624800E0,-8.690732002E0,-2.026720762E0
3.648470272E0,-3.684946775E0,-8.726624489E0,-2.048256159E0
3.653225480E0,-3.692125320E0,-8.748159409E0,-2.069791555E0
3.657980689E0,-3.694518089E0,-8.774480820E0,-2.103291035E0
3.662735897E0,-3.687339783E0,-8.786444664E0,-2.134397745E0
3.667491105E0,-3.677768469E0,-8.781659126E0,-2.151147604E0
3.672246314E0,-3.670589924E0,-8.784051895E0,-2.179861546E0
3.677001522E0,-3.663411379E0,-8.805587769E0,-2.218146563E0
3.681756730E0,-3.653840065E0,-8.796015739E0,-2.232503414E0
3.686511939E0,-3.677768469E0,-8.803194046E0,-2.227717876E0
3.691267147E0,-3.668197155E0,-8.815158844E0,-2.234896421E0
3.696022355E0,-3.670589924E0,-8.817551613E0,-2.239681959E0
3.700777564E0,-3.663411379E0,-8.829515457E0,-2.227717876E0
3.705532720E0,-3.653840065E0,-8.860622406E0,-2.227717876E0
3.710287928E0,-3.687339783E0,-8.886942863E0,-2.215753794E0
3.715043137E0,-3.684946775E0,-8.925228119E0,-2.210968018E0
3.719798345E0,-3.718446493E0,-8.965906143E0,-2.199003935E0
3.724553553E0,-3.761517286E0,-9.020941734E0,-2.167897224E0
3.729308762E0,-3.785445452E0,-9.037691116E0,-2.127219439E0
3.734063970E0,-3.768695593E0,-9.049654961E0,-2.043470621E0
3.738819178E0,-3.768695593E0,-9.061619759E0,-1.964507341E0
3.743574387E0,-3.826123476E0,-9.085547447E0,-1.921436548E0
3.748329595E0,-3.857230186E0,-9.087940216E0,-1.907079697E0
3.753084803E0,-3.857230186E0,-9.085547447E0,-1.866401672E0
3.757840012E0,-3.919443607E0,-9.047262192E0,-1.840080619E0
3.762595220E0,-3.921836376E0,-8.994620323E0,-1.820937991E0
3.767350376E0,-3.929014683E0,-8.963513374E0,-1.785045743E0
3.772105585E0,-3.957728624E0,-8.915657043E0,-1.730010748E0
3.776860793E0,-3.988835335E0,-8.913264275E0,-1.689332843E0
3.781616001E0,-3.974478483E0,-8.906085968E0,-1.667797327E0
3.786371210E0,-3.969692707E0,-8.896514893E0,-1.636690736E0
3.791126418E0,-3.960121393E0,-8.872586250E0,-1.646261930E0
3.795881626E0,-3.924229145E0,-8.891729355E0,-1.658226132E0
3.800636835E0,-3.893122435E0,-8.879764557E0,-1.670190215E0
3.805392043E0,-3.847658873E0,-8.894122124E0,-1.708475351E0
3.810147251E0,-3.818944931E0,-8.910871506E0,-1.722832322E0
3.814902460E0,-3.833301783E0,-8.925228119E0,-1.725225091E0
3.819657668E0,-3.759124279E0,-8.982656479E0,-1.727617979E0
3.824412876E0,-3.704089403E0,-8.999405861E0,-1.751546144E0
3.829168085E0,-3.637090445E0,-9.013762474E0,-1.782652855E0
3.833923241E0,-3.555734396E0,-9.052047729E0,-1.806581140E0
3.838678449E0,-3.467200041E0,-9.059226990E0,-1.835294962E0
3.843433658E0,-3.440878868E0,-9.123832703E0,-1.861616015E0
3.848188866E0,-3.412165165E0,-9.131011009E0,-1.880758643E0
3.852944074E0,-3.402593851E0,-9.164510727E0,-1.887937069E0
3.857699283E0,-3.402593851E0,-9.178867340E0,-1.904686809E0
3.862454491E0,-3.393022537E0,-9.164510727E0,-1.856830359E0
3.867209699E0,-3.373879910E0,-9.188439369E0,-1.801795483E0
3.871964908E0,-3.337987661E0,-9.195617676E0,-1.780260086E0
3.876720116E0,-3.321237803E0,-9.233902931E0,-1.765903115E0
3.881475324E0,-3.282952785E0,-9.257830620E0,-1.773081541E0
3.886230533E0,-3.213560820E0,-9.288937569E0,-1.732403636E0
3.890985741E0,-3.144168854E0,-9.308079720E0,-1.710868239E0
3.895740897E0,-3.055634499E0,-9.336793900E0,-1.696511269E0
3.900496158E0,-3.010170937E0,-9.382257462E0,-1.665404558E0
3.905251314E0,-2.950350285E0,-9.399007797E0,-1.634297848E0
3.910006522E0,-2.919243574E0,-9.432506561E0,-1.591227055E0
3.914761730E0,-2.909672260E0,-9.451649666E0,-1.574477315E0
3.919516939E0,-2.933600664E0,-9.432506561E0,-1.524227977E0
3.924272147E0,-2.991028309E0,-9.425328255E0,-1.490728498E0
3.929027355E0,-3.065205812E0,-9.387042999E0,-1.442872047E0
3.933782564E0,-3.136990547E0,-9.317651749E0,-1.409372568E0
3.938537772E0,-3.225524902E0,-9.265008926E0,-1.399801254E0
3.943292980E0,-3.259024382E0,-9.200403214E0,-1.416550994E0
3.948048189E0,-3.318845034E0,-9.119047165E0,-1.433300734E0
3.952803397E0,-3.347558975E0,-9.052047729E0,-1.476371527E0
3.957558605E0,-3.428914785E0,-9.013762474E0,-1.538584948E0
3.962313814E0,-3.462414265E0,-8.975478172E0,-1.607976794E0
3.967069022E0,-3.538984776E0,-8.930013657E0,-1.677368641E0
3.971824230E0,-3.565305710E0,-8.884550095E0,-1.739582062E0
3.976579439E0,-3.596412420E0,-8.827122688E0,-1.797009826E0
3.981334647E0,-3.591626883E0,-8.784051895E0,-1.873580098E0
3.986089803E0,-3.632304668E0,-8.762516975E0,-1.942971945E0
3.990845012E0,-3.637090445E0,-8.729017258E0,-1.945364833E0
3.995600220E0,-3.629911900E0,-8.743373871E0,-1.986042738E0
4.000355428E0,-3.634697676E0,-8.724231720E0,-2.007578135E0
4.005110637E0,-3.622733593E0,-8.729017258E0,-2.000399828E0
4.009865845E0,-3.661018610E0,-8.788837433E0,-2.014756680E0
4.014621053E0,-3.646661758E0,-8.824729919E0,-2.012363911E0
4.019376262E0,-3.658625841E0,-8.877371788E0,-2.021935225E0
4.024131470E0,-3.637090445E0,-8.937192917E0,-2.026720762E0
4.028886678E0,-3.661018610E0,-8.992227554E0,-2.031506538E0
4.033641887E0,-3.668197155E0,-9.013762474E0,-2.026720762E0
4.038397095E0,-3.629911900E0,-9.047262192E0,-1.988435626E0
4.043152303E0,-3.615555048E0,-9.073583603E0,-1.938186288E0
4.047907512E0,-3.601198196E0,-9.078369141E0,-1.885544300E0
4.052662720E0,-3.644268990E0,-9.095118523E0,-1.825723648E0
4.057417928E0,-3.646661758E0,-9.107083321E0,-1.797009826E0
4.062173137E0,-3.625126362E0,-9.066405296E0,-1.770688772E0
4.066928345E0,-3.582055569E0,-9.042476654E0,-1.770688772E0
4.071683553E0,-3.562912941E0,-9.018548965E0,-1.785045743E0
4.076438762E0,-3.550948858E0,-8.997013092E0,-1.799402595E0
4.081193970E0,-3.529413462E0,-8.987442017E0,-1.844866276E0
4.085949178E0,-3.517449379E0,-8.987442017E0,-1.885544300E0
4.090704335E0,-3.519842148E0,-8.992227554E0,-1.911865234E0
4.095459543E0,-3.543770313E0,-9.004191399E0,-1.942971945E0
4.100214751E0,-3.531806231E0,-9.008976936E0,-1.933400750E0
4.104969960E0,-3.565305710E0,-8.994620323E0,-1.933400750E0
4.109725168E0,-3.591626883E0,-9.008976936E0,-1.899901152E0
4.114480376E0,-3.591626883E0,-9.037691116E0,-1.871187329E0
4.119235585E0,-3.584448338E0,-9.054440498E0,-1.852044702E0
4.123990793E0,-3.553341627E0,-9.064012527E0,-1.849651933E0
4.128746001E0,-3.536591768E0,-9.080761909E0,-1.861616015E0
4.133501210E0,-3.510270834E0,-9.107083321E0,-1.864008784E0
4.138256418E0,-3.462414265E0,-9.131011009E0,-1.844866276E0
4.143011626E0,-3.419343472E0,-9.202795982E0,-1.840080619E0
4.147766835E0,-3.373879910E0,-9.202795982E0,-1.794616938E0
4.152522043E0,-3.328416348E0,-9.207581520E0,-1.763510346E0
4.157277251E0,-3.297309637E0,-9.207581520E0,-1.720439434E0
4.162032460E0,-3.270988464E0,-9.250652313E0,-1.691725612E0
4.166787668E0,-3.223132133E0,-9.241081238E0,-1.651047587E0
4.171542876E0,-3.182454109E0,-9.238688469E0,-1.622333765E0
4.176298085E0,-3.153740168E0,-9.233902931E0,-1.607976794E0
4.181053293E0,-3.115455151E0,-9.183652878E0,-1.617548108E0
4.185808501E0,-3.108276606E0,-9.171689034E0,-1.619940877E0
4.190563710E0,-3.115455151E0,-9.154939651E0,-1.636690736E0
4.195318918E0,-3.108276606E0,-9.097511292E0,-1.658226132E0
4.200074126E0,-3.113062143E0,-9.090332985E0,-1.691725612E0
4.204829335E0,-3.110669374E0,-9.085547447E0,-1.696511269E0
4.209584543E0,-3.156133175E0,-9.054440498E0,-1.737189293E0
4.214339751E0,-3.199203968E0,-9.075976372E0,-1.746760488E0
4.219094960E0,-3.239881754E0,-9.059226990E0,-1.780260086E0
4.223850168E0,-3.285345554E0,-9.052047729E0,-1.811366796E0
4.228605376E0,-3.323630571E0,-9.056833267E0,-1.787438512E0
4.233360585E0,-3.361915827E0,-9.064012527E0,-1.792224169E0
4.238115793E0,-3.381058455E0,-9.028120041E0,-1.775474429E0
4.242871001E0,-3.407379389E0,-9.016156197E0,-1.765903115E0
4.247626210E0,-3.407379389E0,-9.001798630E0,-1.770688772E0
4.252381418E0,-3.397808075E0,-9.018548965E0,-1.785045743E0
4.257136626E0,-3.400201082E0,-9.032905579E0,-1.804188251E0
4.261891783E0,-3.395415306E0,-9.028120041E0,-1.806581140E0
4.266647043E0,-3.390629768E0,-9.001798630E0,-1.808973908E0
4.271402251E0,-3.340380430E0,-9.030512810E0,-1.787438512E0
4.276157460E0,-3.357130051E0,-9.004191399E0,-1.792224169E0
4.280912668E0,-3.354737282E0,-9.004191399E0,-1.775474429E0
4.285667824E0,-3.318845034E0,-8.982656479E0,-1.761117458E0
4.290423085E0,-3.330809116E0,-8.987442017E0,-1.744367719E0
4.295178293E0,-3.328416348E0,-9.001798630E0,-1.730010748E0
4.299933449E0,-3.345165968E0,-9.008976936E0,-1.737189293E0
4.304688710E0,-3.359523058E0,-8.999405861E0,-1.749153376E0
4.309443918E0,-3.354737282E0,-9.030512810E0,-1.782652855E0
4.314199074E0,-3.383451223E0,-8.997013092E0,-1.801795483E0
4.318954283E0,-3.390629768E0,-9.016156197E0,-1.842473388E0
4.323709543E0,-3.385843992E0,-8.999405861E0,-1.868794441E0
4.328464751E0,-3.412165165E0,-9.011369705E0,-1.911865234E0
4.333219908E0,-3.431307554E0,-9.016156197E0,-1.940579176E0
4.337975116E0,-3.481556892E0,-9.004191399E0,-1.971685886E0
4.342730376E0,-3.479164124E0,-9.023334503E0,-2.002792597E0
4.347485533E0,-3.491128206E0,-9.028120041E0,-2.041077614E0
4.352240741E0,-3.529413462E0,-9.073583603E0,-2.072184324E0
4.356996001E0,-3.601198196E0,-9.116654396E0,-2.076970100E0
4.361751158E0,-3.637090445E0,-9.133403778E0,-2.091326952E0
4.366506366E0,-3.637090445E0,-9.135796547E0,-2.108076811E0
4.371261626E0,-3.584448338E0,-9.159725189E0,-2.124826431E0
4.376016783E0,-3.586841106E0,-9.116654396E0,-2.134397745E0
4.380772043E0,-3.567698479E0,-9.078369141E0,-2.165504456E0
4.385527251E0,-3.572484255E0,-9.071190834E0,-2.201396942E0
4.390282460E0,-3.567698479E0,-8.999405861E0,-2.208575249E0
4.395037668E0,-3.572484255E0,-8.956335068E0,-2.199003935E0
4.399792876E0,-3.601198196E0,-8.922835350E0,-2.172683001E0
4.404548033E0,-3.591626883E0,-8.851051331E0,-2.139183521E0
4.409303293E0,-3.582055569E0,-8.812766075E0,-2.076970100E0
4.414058501E0,-3.584448338E0,-8.788837433E0,-2.033899307E0
4.418813710E0,-3.584448338E0,-8.767302513E0,-1.969292998E0
4.423568918E0,-3.572484255E0,-8.769695282E0,-1.923829436E0
4.428324126E0,-3.550948858E0,-8.764909744E0,-1.899901152E0
4.433079335E0,-3.529413462E0,-8.800801277E0,-1.902294040E0
4.437834543E0,-3.522234917E0,-8.807980537E0,-1.897508383E0
4.442589751E0,-3.491128206E0,-8.855836868E0,-1.897508383E0
4.447344960E0,-3.467200041E0,-8.882157326E0,-1.880758643E0
4.452100168E0,-3.445664644E0,-8.915657043E0,-1.887937069E0
4.456855376E0,-3.428914785E0,-8.956335068E0,-1.907079697E0
4.461610585E0,-3.416950703E0,-8.977870941E0,-1.921436548E0
4.466365793E0,-3.395415306E0,-9.001798630E0,-1.962114573E0
4.471121001E0,-3.407379389E0,-9.006584167E0,-1.976471543E0
4.475876210E0,-3.400201082E0,-9.037691116E0,-2.000399828E0
4.480631418E0,-3.428914785E0,-9.044869423E0,-2.053041935E0
4.485386626E0,-3.440878868E0,-9.042476654E0,-2.091326952E0
4.490141835E0,-3.464807272E0,-9.020941734E0,-2.122433662E0
4.494897043E0,-3.486342669E0,-9.008976936E0,-2.141576290E0
4.499652251E0,-3.507878065E0,-8.982656479E0,-2.155933142E0
4.504407460E0,-3.560520172E0,-8.982656479E0,-2.167897224E0
4.509162668E0,-3.577269793E0,-8.975478172E0,-2.158325911E0
4.513917876E0,-3.548556089E0,-8.930013657E0,-2.141576290E0
4.518673085E0,-3.524627686E0,-8.908478737E0,-2.110469580E0
4.523428293E0,-3.543770313E0,-8.898907661E0,-2.091326952E0
4.528183501E0,-3.536591768E0,-8.886942863E0,-2.057827473E0
4.532938710E0,-3.519842148E0,-8.886942863E0,-2.031506538E0
4.537693918E0,-3.483949661E0,-8.896514893E0,-2.019542217E0
4.542449126E0,-3.500699520E0,-8.889336586E0,-2.014756680E0
4.547204335E0,-3.486342669E0,-8.910871506E0,-2.029113531E0
4.551959543E0,-3.467200041E0,-8.941978455E0,-2.043470621E0
4.556714751E0,-3.445664644E0,-8.953942299E0,-2.053041935E0
4.561470012E0,-3.433700562E0,-8.987442017E0,-2.026720762E0
4.566225168E0,-3.438486099E0,-9.032905579E0,-2.012363911E0
4.570980428E0,-3.409772158E0,-9.066405296E0,-2.024327993E0
4.575735637E0,-3.416950703E0,-9.099904060E0,-2.050648928E0
4.580490845E0,-3.433700562E0,-9.114261627E0,-2.065006018E0
4.585246053E0,-3.448057413E0,-9.126225471E0,-2.100898266E0
4.590001262E0,-3.474378586E0,-9.135796547E0,-2.139183521E0
4.594756470E0,-3.493520975E0,-9.135796547E0,-2.191825628E0
4.599511678E0,-3.524627686E0,-9.150154114E0,-2.222932339E0
4.604266887E0,-3.550948858E0,-9.138189316E0,-2.251646042E0
4.609022095E0,-3.584448338E0,-9.111868858E0,-2.270788670E0
4.613777303E0,-3.608376503E0,-9.102297783E0,-2.292324066E0
4.618532512E0,-3.603590965E0,-9.083154678E0,-2.299502611E0
4.623287720E0,-3.629911900E0,-9.102297783E0,-2.294716835E0
4.628042928E0,-3.639483213E0,-9.095118523E0,-2.306680918E0
4.632798137E0,-3.646661758E0,-9.107083321E0,-2.285145521E0
4.637553345E0,-3.615555048E0,-9.104690552E0,-2.256431818E0
4.642308553E0,-3.586841106E0,-9.111868858E0,-2.215753794E0
4.647063762E0,-3.555734396E0,-9.119047165E0,-2.170290232E0
4.651818970E0,-3.524627686E0,-9.123832703E0,-2.129612207E0
4.656574178E0,-3.474378586E0,-9.102297783E0,-2.088934183E0
4.661329439E0,-3.426522017E0,-9.080761909E0,-2.048256159E0
4.666084647E0,-3.404986620E0,-9.061619759E0,-2.012363911E0
4.670839855E0,-3.349951744E0,-9.025727272E0,-1.954936147E0
4.675595064E0,-3.328416348E0,-8.977870941E0,-1.926222205E0
4.680350272E0,-3.314059258E0,-8.937192917E0,-1.868794441E0
4.685105480E0,-3.294916868E0,-8.898907661E0,-1.844866276E0
4.689860689E0,-3.314059258E0,-8.898907661E0,-1.847259045E0
4.694615897E0,-3.318845034E0,-8.874979019E0,-1.871187329E0
4.699371105E0,-3.337987661E0,-8.872586250E0,-1.895115495E0
4.704126314E0,-3.364308596E0,-8.898907661E0,-1.909472466E0
4.708881522E0,-3.388236761E0,-8.915657043E0,-1.974078655E0
4.713636730E0,-3.421736479E0,-8.944371223E0,-1.988435626E0
4.718391939E0,-3.445664644E0,-8.970691681E0,-2.009970903E0
4.723147199E0,-3.438486099E0,-9.008976936E0,-2.026720762E0
4.727902355E0,-3.495913982E0,-9.042476654E0,-2.048256159E0
4.732657616E0,-3.515056372E0,-9.047262192E0,-2.060220242E0
4.737412824E0,-3.570091486E0,-9.042476654E0,-2.050648928E0
4.742168033E0,-3.560520172E0,-9.025727272E0,-2.043470621E0
4.746923241E0,-3.605983734E0,-8.982656479E0,-2.048256159E0
4.751678449E0,-3.651447296E0,-8.994620323E0,-2.026720762E0
4.756433658E0,-3.663411379E0,-8.949156761E0,-2.036292076E0
4.761188866E0,-3.646661758E0,-8.896514893E0,-2.036292076E0
4.765944074E0,-3.632304668E0,-8.848658562E0,-2.021935225E0
4.770699283E0,-3.632304668E0,-8.848658562E0,-2.012363911E0
4.775454491E0,-3.615555048E0,-8.805587769E0,-2.012363911E0
4.780209699E0,-3.589233875E0,-8.800801277E0,-2.021935225E0
4.784964908E0,-3.577269793E0,-8.791230202E0,-2.017149448E0
4.789720168E0,-3.558127165E0,-8.786444664E0,-2.014756680E0
4.794475376E0,-3.538984776E0,-8.807980537E0,-2.005185366E0
4.799230585E0,-3.553341627E0,-8.829515457E0,-1.993221283E0
4.803985793E0,-3.553341627E0,-8.839086533E0,-2.000399828E0
4.808741001E0,-3.543770313E0,-8.846264839E0,-2.002792597E0
4.813496210E0,-3.546163082E0,-8.891729355E0,-2.024327993E0
4.818251418E0,-3.524627686E0,-8.886942863E0,-2.009970903E0
4.823006626E0,-3.536591768E0,-8.922835350E0,-2.031506538E0
4.827761835E0,-3.562912941E0,-8.946763992E0,-2.045863390E0
4.832517095E0,-3.582055569E0,-8.961120605E0,-2.055434704E0
4.837272303E0,-3.615555048E0,-8.958727837E0,-2.074577332E0
4.842027512E0,-3.613162279E0,-8.963513374E0,-2.081755638E0
4.846782720E0,-3.637090445E0,-8.975478172E0,-2.105684042E0
4.851537928E0,-3.680161238E0,-8.989834785E0,-2.115255117E0
4.856293137E0,-3.675375462E0,-8.975478172E0,-2.127219439E0
4.861048345E0,-3.651447296E0,-8.963513374E0,-2.122433662E0
4.865803553E0,-3.639483213E0,-8.932407379E0,-2.112862349E0
4.870558762E0,-3.625126362E0,-8.941978455E0,-2.098505497E0
4.875313970E0,-3.591626883E0,-8.906085968E0,-2.091326952E0
4.880069230E0,-3.586841106E0,-8.898907661E0,-2.079362869E0
4.884824439E0,-3.536591768E0,-8.915657043E0,-2.067398787E0
4.889579647E0,-3.522234917E0,-8.906085968E0,-2.055434704E0
4.894334855E0,-3.512663603E0,-8.925228119E0,-2.053041935E0
4.899090064E0,-3.469592810E0,-8.927620888E0,-2.041077614E0
4.903845272E0,-3.486342669E0,-8.961120605E0,-2.024327993E0
4.908600480E0,-3.450450182E0,-9.001798630E0,-1.978864312E0
4.913355689E0,-3.455235958E0,-8.982656479E0,-1.947757602E0
4.918110949E0,-3.467200041E0,-8.992227554E0,-1.916650891E0
4.922866158E0,-3.483949661E0,-9.013762474E0,-1.861616015E0
4.927621366E0,-3.486342669E0,-9.008976936E0,-1.830509305E0
4.932376574E0,-3.481556892E0,-8.992227554E0,-1.811366796E0
4.937131783E0,-3.522234917E0,-8.985049248E0,-1.835294962E0
4.941886991E0,-3.512663603E0,-8.977870941E0,-1.825723648E0
4.946642199E0,-3.536591768E0,-9.006584167E0,-1.840080619E0
4.951397408E0,-3.538984776E0,-8.992227554E0,-1.859223247E0
4.956152668E0,-3.505485058E0,-9.032905579E0,-1.890329838E0
4.960907876E0,-3.495913982E0,-9.042476654E0,-1.914258122E0
4.965663085E0,-3.524627686E0,-9.054440498E0,-1.942971945E0
4.970418293E0,-3.522234917E0,-9.037691116E0,-1.995614052E0
4.975173501E0,-3.495913982E0,-9.049654961E0,-2.045863390E0
4.979928710E0,-3.495913982E0,-9.066405296E0,-2.057827473E0
4.984683918E0,-3.500699520E0,-9.044869423E0,-2.055434704E0
4.989439126E0,-3.491128206E0,-9.049654961E0,-2.065006018E0
4.994194387E0,-3.483949661E0,-9.047262192E0,-2.062613010E0
4.998949595E0,-3.431307554E0,-9.040083885E0,-2.045863390E0
5.003704803E0,-3.419343472E0,-9.042476654E0,-2.041077614E0
5.008460012E0,-3.388236761E0,-9.040083885E0,-2.000399828E0
5.013215220E0,-3.369094372E0,-9.028120041E0,-1.995614052E0
5.017970480E0,-3.357130051E0,-9.020941734E0,-1.990828395E0
5.022725689E0,-3.337987661E0,-9.011369705E0,-1.993221283E0
5.027480897E0,-3.333201885E0,-9.008976936E0,-1.964507341E0
5.032236105E0,-3.342773199E0,-8.994620323E0,-1.928615093E0
5.036991314E0,-3.328416348E0,-8.985049248E0,-1.895115495E0
5.041746522E0,-3.357130051E0,-8.989834785E0,-1.854437590E0
5.046501730E0,-3.366701365E0,-8.949156761E0,-1.830509305E0
5.051256991E0,-3.378665686E0,-8.963513374E0,-1.806581140E0
5.056012199E0,-3.419343472E0,-8.973084450E0,-1.775474429E0
5.060767408E0,-3.433700562E0,-8.975478172E0,-1.794616938E0
5.065522616E0,-3.443271875E0,-8.970691681E0,-1.806581140E0
5.070277824E0,-3.443271875E0,-8.963513374E0,-1.844866276E0
5.075033033E0,-3.464807272E0,-8.956335068E0,-1.835294962E0
5.079788293E0,-3.452843189E0,-8.941978455E0,-1.866401672E0
5.084543501E0,-3.455235958E0,-8.958727837E0,-1.892722726E0
5.089298710E0,-3.448057413E0,-8.949156761E0,-1.923829436E0
5.094053918E0,-3.455235958E0,-8.958727837E0,-1.952543259E0
5.098809126E0,-3.464807272E0,-8.961120605E0,-1.971685886E0
5.103564387E0,-3.457628727E0,-8.989834785E0,-1.981257200E0
5.108319595E0,-3.445664644E0,-8.989834785E0,-1.990828395E0
5.113074803E0,-3.436093330E0,-9.037691116E0,-1.993221283E0
5.117830012E0,-3.440878868E0,-9.037691116E0,-2.007578135E0
5.122585220E0,-3.428914785E0,-9.030512810E0,-2.024327993E0
5.127340428E0,-3.517449379E0,-9.095118523E0,-2.009970903E0
5.132095689E0,-3.517449379E0,-9.114261627E0,-2.014756680E0
5.136850897E0,-3.471985579E0,-9.114261627E0,-2.021935225E0
5.141606105E0,-3.464807272E0,-9.095118523E0,-2.033899307E0
5.146361314E0,-3.460021496E0,-9.080761909E0,-2.045863390E0
5.151116522E0,-3.464807272E0,-9.078369141E0,-2.053041935E0
5.155871783E0,-3.469592810E0,-9.068798065E0,-2.050648928E0
5.160626991E0,-3.500699520E0,-9.061619759E0,-2.060220242E0
5.165382199E0,-3.524627686E0,-9.054440498E0,-2.055434704E0
5.170137408E0,-3.529413462E0,-9.059226990E0,-2.048256159E0
5.174892616E0,-3.531806231E0,-9.075976372E0,-2.029113531E0
5.179647876E0,-3.546163082E0,-9.087940216E0,-1.998006940E0
5.184403085E0,-3.479164124E0,-9.078369141E0,-1.981257200E0
5.189158293E0,-3.457628727E0,-9.064012527E0,-1.969292998E0
5.193913501E0,-3.474378586E0,-9.075976372E0,-1.942971945E0
5.198668710E0,-3.476771355E0,-9.095118523E0,-1.926222205E0
5.203423970E0,-3.467200041E0,-9.099904060E0,-1.933400750E0
5.208179178E0,-3.440878868E0,-9.078369141E0,-1.921436548E0
5.212934387E0,-3.438486099E0,-9.047262192E0,-1.928615093E0
5.217689595E0,-3.436093330E0,-9.032905579E0,-1.933400750E0
5.222444855E0,-3.424129248E0,-9.006584167E0,-1.916650891E0
5.227200064E0,-3.431307554E0,-8.985049248E0,-1.902294040E0
5.231955272E0,-3.443271875E0,-8.965906143E0,-1.899901152E0
5.236710480E0,-3.452843189E0,-8.927620888E0,-1.911865234E0
5.241465689E0,-3.500699520E0,-8.906085968E0,-1.904686809E0
5.246220949E0,-3.531806231E0,-8.903693199E0,-1.887937069E0
5.250976158E0,-3.572484255E0,-8.896514893E0,-1.873580098E0
5.255731366E0,-3.598805189E0,-8.894122124E0,-1.871187329E0
5.260486574E0,-3.637090445E0,-8.901300430E0,-1.868794441E0
5.265241835E0,-3.656233072E0,-8.913264275E0,-1.887937069E0
5.269997043E0,-3.634697676E0,-8.932407379E0,-1.892722726E0
5.274752251E0,-3.584448338E0,-8.934800148E0,-1.895115495E0
5.279507460E0,-3.586841106E0,-8.913264275E0,-1.897508383E0
5.284262668E0,-3.522234917E0,-8.918049812E0,-1.914258122E0
5.289017928E0,-3.471985579E0,-8.941978455E0,-1.940579176E0
5.293773137E0,-3.438486099E0,-8.934800148E0,-1.954936147E0
5.298528345E0,-3.402593851E0,-8.958727837E0,-2.002792597E0
5.303283553E0,-3.376272678E0,-9.006584167E0,-2.009970903E0
5.308038814E0,-3.357130051E0,-9.023334503E0,-2.036292076E0
5.312794022E0,-3.354737282E0,-9.071190834E0,-2.043470621E0
5.317549230E0,-3.333201885E0,-9.059226990E0,-2.031506538E0
5.322304439E0,-3.309273720E0,-9.095118523E0,-2.029113531E0
5.327059699E0,-3.311666489E0,-9.099904060E0,-2.021935225E0
5.331814908E0,-3.306880951E0,-9.092725754E0,-2.005185366E0
5.336570116E0,-3.337987661E0,-9.078369141E0,-2.000399828E0
5.341325324E0,-3.328416348E0,-9.059226990E0,-2.002792597E0
5.346080585E0,-3.357130051E0,-9.032905579E0,-1.981257200E0
5.350835793E0,-3.378665686E0,-9.011369705E0,-1.976471543E0
5.355591001E0,-3.402593851E0,-8.973084450E0,-1.966900229E0
5.360346210E0,-3.388236761E0,-8.953942299E0,-1.969292998E0
5.365101470E0,-3.390629768E0,-8.941978455E0,-1.945364833E0
5.369856678E0,-3.373879910E0,-8.934800148E0,-1.933400750E0
5.374611887E0,-3.361915827E0,-8.922835350E0,-1.942971945E0
5.379367095E0,-3.376272678E0,-8.930013657E0,-1.916650891E0
5.384122355E0,-3.378665686E0,-8.937192917E0,-1.921436548E0
5.388877564E0,-3.383451223E0,-8.930013657E0,-1.902294040E0
5.393632772E0,-3.407379389E0,-8.970691681E0,-1.890329838E0
5.398387980E0,-3.385843992E0,-8.992227554E0,-1.885544300E0
5.403143241E0,-3.400201082E0,-8.985049248E0,-1.878365755E0
5.407898449E0,-3.381058455E0,-8.980263710E0,-1.909472466E0
5.412653658E0,-3.404986620E0,-8.977870941E0,-1.938186288E0
5.417408918E0,-3.402593851E0,-9.018548965E0,-1.981257200E0
5.422164126E0,-3.414557934E0,-8.992227554E0,-2.024327993E0
5.426919335E0,-3.452843189E0,-8.982656479E0,-2.038684845E0
5.431674543E0,-3.488735437E0,-9.004191399E0,-2.060220242E0
5.436429803E0,-3.522234917E0,-9.004191399E0,-2.074577332E0
5.441185012E0,-3.577269793E0,-9.011369705E0,-2.041077614E0
5.445940220E0,-3.596412420E0,-9.004191399E0,-2.055434704E0
5.450695480E0,-3.598805189E0,-9.001798630E0,-2.055434704E0
5.455450689E0,-3.603590965E0,-9.020941734E0,-2.043470621E0
5.460205897E0,-3.565305710E0,-8.999405861E0,-2.065006018E0
5.464961105E0,-3.555734396E0,-8.977870941E0,-2.055434704E0
5.469716366E0,-3.536591768E0,-8.982656479E0,-2.045863390E0
5.474471574E0,-3.517449379E0,-8.973084450E0,-2.024327993E0
5.479226783E0,-3.512663603E0,-8.982656479E0,-2.009970903E0
5.483982043E0,-3.462414265E0,-8.985049248E0,-1.995614052E0
5.488737251E0,-3.426522017E0,-8.961120605E0,-1.974078655E0
5.493492460E0,-3.404986620E0,-8.973084450E0,-1.959721804E0
5.498247668E0,-3.361915827E0,-8.965906143E0,-1.933400750E0
5.503002928E0,-3.364308596E0,-8.977870941E0,-1.935793519E0
5.507758137E0,-3.361915827E0,-8.975478172E0,-1.940579176E0
5.512513345E0,-3.354737282E0,-9.016156197E0,-1.940579176E0
5.517268605E0,-3.357130051E0,-9.008976936E0,-1.928615093E0
5.522023814E0,-3.373879910E0,-9.056833267E0,-1.935793519E0
5.526779022E0,-3.393022537E0,-9.068798065E0,-1.957328916E0
5.531534230E0,-3.414557934E0,-9.068798065E0,-1.947757602E0
5.536289491E0,-3.438486099E0,-9.066405296E0,-1.981257200E0
5.541044699E0,-3.467200041E0,-9.090332985E0,-1.976471543E0
5.545799908E0,-3.510270834E0,-9.099904060E0,-1.976471543E0
5.550555168E0,-3.517449379E0,-9.075976372E0,-1.983649969E0
5.555310376E0,-3.550948858E0,-9.090332985E0,-1.981257200E0
5.560065585E0,-3.538984776E0,-9.056833267E0,-1.993221283E0
5.564820845E0,-3.548556089E0,-9.032905579E0,-1.995614052E0
5.569576053E0,-3.562912941E0,-9.008976936E0,-1.990828395E0
5.574331262E0,-3.546163082E0,-8.999405861E0,-2.024327993E0
5.579086522E0,-3.555734396E0,-8.963513374E0,-2.029113531E0
5.583841730E0,-3.524627686E0,-8.941978455E0,-2.036292076E0
5.588596939E0,-3.491128206E0,-8.941978455E0,-2.029113531E0
5.593352199E0,-3.476771355E0,-8.944371223E0,-2.019542217E0
5.598107408E0,-3.445664644E0,-8.956335068E0,-2.021935225E0
5.602862616E0,-3.416950703E0,-8.963513374E0,-2.009970903E0
5.607617876E0,-3.378665686E0,-8.970691681E0,-2.014756680E0
5.612373085E0,-3.404986620E0,-8.965906143E0,-2.021935225E0
5.617128293E0,-3.409772158E0,-8.963513374E0,-2.019542217E0
5.621883501E0,-3.404986620E0,-8.977870941E0,-2.026720762E0
5.626638762E0,-3.440878868E0,-8.963513374E0,-2.038684845E0
5.631393970E0,-3.440878868E0,-8.963513374E0,-2.043470621E0
5.636149230E0,-3.436093330E0,-8.965906143E0,-2.024327993E0
5.640904439E0,-3.464807272E0,-8.975478172E0,-2.031506538E0
5.645659647E0,-3.460021496E0,-8.958727837E0,-2.033899307E0
5.650414908E0,-3.445664644E0,-8.992227554E0,-2.048256159E0
5.655170116E0,-3.452843189E0,-8.980263710E0,-2.045863390E0
5.659925324E0,-3.460021496E0,-9.016156197E0,-2.043470621E0
5.664680533E0,-3.471985579E0,-8.999405861E0,-2.043470621E0
5.669435793E0,-3.469592810E0,-9.037691116E0,-2.048256159E0
5.674191001E0,-3.467200041E0,-9.040083885E0,-2.021935225E0
5.678946210E0,-3.455235958E0,-9.025727272E0,-2.026720762E0
5.683701470E0,-3.469592810E0,-9.042476654E0,-2.014756680E0
5.688456678E0,-3.474378586E0,-9.049654961E0,-1.990828395E0
5.693211939E0,-3.507878065E0,-9.044869423E0,-1.976471543E0
5.697967147E0,-3.483949661E0,-9.030512810E0,-1.974078655E0
5.702722355E0,-3.498306751E0,-9.016156197E0,-1.964507341E0
5.707477616E0,-3.464807272E0,-8.992227554E0,-1.990828395E0
5.712232824E0,-3.426522017E0,-8.970691681E0,-1.990828395E0
5.716988033E0,-3.424129248E0,-8.992227554E0,-2.007578135E0
5.721743293E0,-3.414557934E0,-8.958727837E0,-2.012363911E0
5.726498501E0,-3.428914785E0,-8.949156761E0,-2.012363911E0
5.731253710E0,-3.424129248E0,-8.944371223E0,-2.007578135E0
5.736008970E0,-3.448057413E0,-8.956335068E0,-1.983649969E0
5.740764178E0,-3.431307554E0,-8.965906143E0,-1.969292998E0
5.745519387E0,-3.462414265E0,-8.956335068E0,-1.971685886E0
5.750274647E0,-3.464807272E0,-8.970691681E0,-1.986042738E0
5.755029855E0,-3.462414265E0,-8.970691681E0,-2.005185366E0
5.759785064E0,-3.457628727E0,-9.006584167E0,-2.045863390E0
5.764540324E0,-3.467200041E0,-8.999405861E0,-2.067398787E0
5.769295533E0,-3.486342669E0,-8.997013092E0,-2.067398787E0
5.774050793E0,-3.527020693E0,-9.004191399E0,-2.086541414E0
5.778806001E0,-3.541377544E0,-9.004191399E0,-2.048256159E0
5.783561210E0,-3.531806231E0,-8.982656479E0,-2.038684845E0
5.788316470E0,-3.543770313E0,-8.989834785E0,-2.024327993E0
5.793071678E0,-3.543770313E0,-8.958727837E0,-2.009970903E0
5.797826887E0,-3.531806231E0,-8.944371223E0,-2.036292076E0
5.802582147E0,-3.534198999E0,-8.946763992E0,-2.048256159E0
5.807337355E0,-3.536591768E0,-8.944371223E0,-2.074577332E0
5.812092564E0,-3.507878065E0,-8.956335068E0,-2.072184324E0
5.816847824E0,-3.488735437E0,-8.939585686E0,-2.069791555E0
5.821603033E0,-3.481556892E0,-8.946763992E0,-2.038684845E0
5.826358293E0,-3.471985579E0,-8.961120605E0,-2.021935225E0
5.831113501E0,-3.443271875E0,-8.989834785E0,-1.993221283E0
5.835868710E0,-3.428914785E0,-8.980263710E0,-2.009970903E0
5.840623970E0,-3.404986620E0,-9.011369705E0,-1.974078655E0
5.845379178E0,-3.388236761E0,-9.018548965E0,-1.964507341E0
5.850134387E0,-3.388236761E0,-9.020941734E0,-1.964507341E0
5.854889647E0,-3.369094372E0,-9.004191399E0,-1.940579176E0
5.859644855E0,-3.388236761E0,-8.997013092E0,-1.947757602E0
5.864400116E0,-3.395415306E0,-8.989834785E0,-1.942971945E0
5.869155324E0,-3.416950703E0,-8.980263710E0,-1.981257200E0
5.873910533E0,-3.431307554E0,-8.965906143E0,-2.012363911E0
5.878665793E0,-3.450450182E0,-8.968298912E0,-2.036292076E0
5.883421001E0,-3.476771355E0,-8.965906143E0,-2.069791555E0
5.888176210E0,-3.505485058E0,-8.994620323E0,-2.069791555E0
5.892931470E0,-3.524627686E0,-8.989834785E0,-2.079362869E0
5.897686678E0,-3.543770313E0,-9.006584167E0,-2.065006018E0
5.902441939E0,-3.594019651E0,-9.018548965E0,-2.067398787E0
5.907197147E0,-3.546163082E0,-9.018548965E0,-2.055434704E0
5.911952355E0,-3.550948858E0,-9.028120041E0,-2.055434704E0
5.916707616E0,-3.553341627E0,-9.018548965E0,-2.033899307E0
5.921462824E0,-3.558127165E0,-9.004191399E0,-2.029113531E0
5.926218085E0,-3.517449379E0,-9.049654961E0,-2.036292076E0
5.930973293E0,-3.505485058E0,-9.023334503E0,-2.014756680E0
5.935728501E0,-3.462414265E0,-8.989834785E0,-2.000399828E0
5.940483762E0,-3.471985579E0,-8.994620323E0,-1.983649969E0
5.945238970E0,-3.448057413E0,-8.997013092E0,-1.986042738E0
5.949994230E0,-3.448057413E0,-8.999405861E0,-1.993221283E0
5.954749439E0,-3.431307554E0,-9.035298347E0,-1.993221283E0
5.959504647E0,-3.438486099E0,-9.020941734E0,-1.978864312E0
5.964259908E0,-3.438486099E0,-9.052047729E0,-1.971685886E0
5.969015116E0,-3.445664644E0,-9.037691116E0,-1.988435626E0
5.973770376E0,-3.457628727E0,-9.035298347E0,-1.976471543E0
5.978525585E0,-3.455235958E0,-9.042476654E0,-1.966900229E0
5.983280793E0,-3.469592810E0,-9.013762474E0,-1.969292998E0
5.988036053E0,-3.445664644E0,-8.994620323E0,-1.950150490E0
5.992791262E0,-3.467200041E0,-8.982656479E0,-1.962114573E0
5.997546522E0,-3.464807272E0,-8.970691681E0,-1.971685886E0
6.002301730E0,-3.450450182E0,-8.965906143E0,-1.954936147E0
6.007056939E0,-3.438486099E0,-8.944371223E0,-1.964507341E0
6.011812199E0,-3.460021496E0,-8.944371223E0,-1.971685886E0
6.016567408E0,-3.438486099E0,-8.956335068E0,-1.978864312E0
6.021322668E0,-3.452843189E0,-8.944371223E0,-1.998006940E0
6.026077876E0,-3.436093330E0,-8.968298912E0,-1.986042738E0
6.030833137E0,-3.457628727E0,-8.970691681E0,-1.990828395E0
6.035588345E0,-3.483949661E0,-8.985049248E0,-1.988435626E0
6.040343553E0,-3.495913982E0,-9.004191399E0,-2.002792597E0
6.045098814E0,-3.495913982E0,-8.982656479E0,-2.009970903E0
6.049854022E0,-3.515056372E0,-8.989834785E0,-2.005185366E0
6.054609283E0,-3.505485058E0,-8.985049248E0,-1.990828395E0
6.059364491E0,-3.515056372E0,-8.973084450E0,-2.029113531E0
6.064119699E0,-3.510270834E0,-8.985049248E0,-2.043470621E0
6.068874960E0,-3.550948858E0,-8.963513374E0,-2.048256159E0
6.073630168E0,-3.541377544E0,-8.939585686E0,-2.024327993E0
6.078385428E0,-3.550948858E0,-8.934800148E0,-2.019542217E0
6.083140637E0,-3.546163082E0,-8.913264275E0,-2.019542217E0
6.087895897E0,-3.550948858E0,-8.906085968E0,-1.981257200E0
6.092651105E0,-3.555734396E0,-8.922835350E0,-1.974078655E0
6.097406314E0,-3.538984776E0,-8.915657043E0,-1.947757602E0
6.102161574E0,-3.500699520E0,-8.934800148E0,-1.933400750E0
6.106916783E0,-3.476771355E0,-8.939585686E0,-1.959721804E0
6.111672043E0,-3.448057413E0,-8.958727837E0,-1.969292998E0
6.116427251E0,-3.424129248E0,-8.992227554E0,-1.983649969E0
6.121182512E0,-3.393022537E0,-9.020941734E0,-2.009970903E0
6.125937720E0,-3.373879910E0,-8.994620323E0,-2.014756680E0
6.130692928E0,-3.385843992E0,-8.999405861E0,-2.017149448E0
6.135448189E0,-3.395415306E0,-8.989834785E0,-2.005185366E0
6.140203397E0,-3.400201082E0,-9.013762474E0,-2.012363911E0
6.144958658E0,-3.426522017E0,-8.975478172E0,-2.012363911E0
6.149713866E0,-3.452843189E0,-8.992227554E0,-2.000399828E0
6.154469126E0,-3.495913982E0,-8.968298912E0,-1.966900229E0
6.159224335E0,-3.507878065E0,-8.999405861E0,-1.969292998E0
6.163979595E0,-3.503092289E0,-8.994620323E0,-1.969292998E0
6.168734803E0,-3.519842148E0,-9.025727272E0,-1.971685886E0
6.173490012E0,-3.483949661E0,-9.037691116E0,-1.995614052E0
6.178245272E0,-3.483949661E0,-9.049654961E0,-2.000399828E0
6.183000480E0,-3.483949661E0,-9.056833267E0,-2.002792597E0
6.187755741E0,-3.471985579E0,-9.042476654E0,-2.000399828E0
6.192510949E0,-3.486342669E0,-9.061619759E0,-2.012363911E0
6.197266210E0,-3.474378586E0,-9.032905579E0,-1.978864312E0
6.202021418E0,-3.488735437E0,-9.011369705E0,-1.978864312E0
6.206776678E0,-3.474378586E0,-9.032905579E0,-1.974078655E0
6.211531887E0,-3.467200041E0,-9.023334503E0,-1.957328916E0
6.216287095E0,-3.457628727E0,-9.035298347E0,-1.935793519E0
6.221042355E0,-3.457628727E0,-9.011369705E0,-1.959721804E0
6.225797564E0,-3.464807272E0,-9.037691116E0,-1.947757602E0
6.230552824E0,-3.457628727E0,-9.028120041E0,-1.926222205E0
6.235308033E0,-3.438486099E0,-9.016156197E0,-1.923829436E0
6.240063293E0,-3.438486099E0,-9.018548965E0,-1.902294040E0
6.244818501E0,-3.452843189E0,-8.992227554E0,-1.907079697E0
6.249573762E0,-3.460021496E0,-8.992227554E0,-1.885544300E0
6.254328970E0,-3.455235958E0,-8.956335068E0,-1.895115495E0
6.259084230E0,-3.486342669E0,-8.939585686E0,-1.890329838E0
6.263839439E0,-3.483949661E0,-8.927620888E0,-1.890329838E0
6.268594647E0,-3.491128206E0,-8.920442581E0,-1.892722726E0
6.273349908E0,-3.495913982E0,-8.918049812E0,-1.921436548E0
6.278105116E0,-3.522234917E0,-8.925228119E0,-1.923829436E0
6.282860376E0,-3.505485058E0,-8.925228119E0,-1.950150490E0
6.287615585E0,-3.495913982E0,-8.944371223E0,-2.000399828E0
6.292370845E0,-3.503092289E0,-8.973084450E0,-2.021935225E0
6.297126053E0,-3.500699520E0,-8.975478172E0,-2.031506538E0
6.301881314E0,-3.495913982E0,-9.016156197E0,-2.055434704E0
6.306636522E0,-3.500699520E0,-9.037691116E0,-2.067398787E0
6.311391730E0,-3.491128206E0,-9.054440498E0,-2.053041935E0
6.316146991E0,-3.486342669E0,-9.035298347E0,-2.041077614E0
6.320902199E0,-3.488735437E0,-9.042476654E0,-2.026720762E0
6.325657460E0,-3.503092289E0,-9.020941734E0,-2.007578135E0
6.330412668E0,-3.503092289E0,-8.992227554E0,-1.995614052E0
6.335167928E0,-3.495913982E0,-8.973084450E0,-1.978864312E0
6.339923137E0,-3.491128206E0,-8.968298912E0,-1.986042738E0
6.344678397E0,-3.500699520E0,-8.961120605E0,-1.966900229E0
6.349433605E0,-3.464807272E0,-8.970691681E0,-1.966900229E0
6.354188866E0,-3.467200041E0,-8.980263710E0,-1.947757602E0
6.358944074E0,-3.469592810E0,-8.982656479E0,-1.966900229E0
6.363699335E0,-3.428914785E0,-8.997013092E0,-1.978864312E0
6.368454543E0,-3.448057413E0,-9.025727272E0,-2.005185366E0
6.373209803E0,-3.433700562E0,-9.035298347E0,-1.993221283E0
6.377965012E0,-3.438486099E0,-9.020941734E0,-1.990828395E0
6.382720272E0,-3.421736479E0,-9.028120041E0,-2.002792597E0
6.387475480E0,-3.457628727E0,-9.044869423E0,-1.995614052E0
6.392230741E0,-3.464807272E0,-9.044869423E0,-1.995614052E0
6.396985949E0,-3.469592810E0,-9.020941734E0,-2.007578135E0
6.401741210E0,-3.462414265E0,-9.032905579E0,-2.005185366E0
6.406496418E0,-3.455235958E0,-9.008976936E0,-2.002792597E0
6.411251626E0,-3.462414265E0,-9.016156197E0,-1.986042738E0
6.416006887E0,-3.471985579E0,-8.999405861E0,-1.988435626E0
6.420762095E0,-3.464807272E0,-8.989834785E0,-1.990828395E0
6.425517355E0,-3.471985579E0,-8.994620323E0,-1.995614052E0
6.430272564E0,-3.460021496E0,-8.994620323E0,-2.000399828E0
6.435027824E0,-3.467200041E0,-8.977870941E0,-1.983649969E0
6.439783033E0,-3.462414265E0,-8.965906143E0,-1.974078655E0
6.444538293E0,-3.464807272E0,-8.994620323E0,-1.988435626E0
6.449293501E0,-3.483949661E0,-8.999405861E0,-1.986042738E0
6.454048762E0,-3.476771355E0,-9.001798630E0,-1.993221283E0
6.458803970E0,-3.498306751E0,-9.011369705E0,-2.002792597E0
6.463559230E0,-3.493520975E0,-9.020941734E0,-2.007578135E0
6.468314439E0,-3.498306751E0,-9.030512810E0,-2.033899307E0
6.473069699E0,-3.505485058E0,-9.030512810E0,-2.033899307E0
6.477824908E0,-3.527020693E0,-9.020941734E0,-2.019542217E0
6.482580168E0,-3.538984776E0,-9.025727272E0,-2.009970903E0
6.487335376E0,-3.543770313E0,-9.013762474E0,-1.993221283E0
6.492090637E0,-3.541377544E0,-8.975478172E0,-1.983649969E0
6.496845845E0,-3.548556089E0,-8.965906143E0,-1.957328916E0
6.501601105E0,-3.519842148E0,-8.946763992E0,-1.962114573E0
6.506356314E0,-3.512663603E0,-8.939585686E0,-1.928615093E0
6.511111574E0,-3.505485058E0,-8.930013657E0,-1.938186288E0
6.515866783E0,-3.469592810E0,-8.956335068E0,-1.923829436E0
6.520622043E0,-3.436093330E0,-8.953942299E0,-1.940579176E0
6.525377251E0,-3.424129248E0,-8.982656479E0,-1.931007862E0
6.530132512E0,-3.416950703E0,-8.968298912E0,-1.938186288E0
6.534887720E0,-3.412165165E0,-8.989834785E0,-1.954936147E0
6.539642980E0,-3.385843992E0,-9.001798630E0,-1.978864312E0
6.544398189E0,-3.409772158E0,-9.037691116E0,-1.993221283E0
6.549153449E0,-3.424129248E0,-9.025727272E0,-2.012363911E0
6.553908658E0,-3.424129248E0,-9.030512810E0,-2.019542217E0
6.558663918E0,-3.474378586E0,-9.016156197E0,-2.033899307E0
6.563419126E0,-3.505485058E0,-9.030512810E0,-2.036292076E0
6.568174387E0,-3.486342669E0,-9.037691116E0,-2.033899307E0
6.572929595E0,-3.503092289E0,-9.032905579E0,-2.017149448E0
6.577684855E0,-3.495913982E0,-9.016156197E0,-2.009970903E0
6.582440064E0,-3.517449379E0,-9.030512810E0,-1.990828395E0
6.587195324E0,-3.495913982E0,-9.028120041E0,-1.983649969E0
6.591950533E0,-3.479164124E0,-9.016156197E0,-1.966900229E0
6.596705793E0,-3.450450182E0,-9.011369705E0,-1.959721804E0
6.601461001E0,-3.448057413E0,-9.040083885E0,-1.933400750E0
6.606216262E0,-3.402593851E0,-9.011369705E0,-1.935793519E0
6.610971470E0,-3.364308596E0,-9.006584167E0,-1.950150490E0
6.615726730E0,-3.369094372E0,-9.004191399E0,-1.966900229E0
6.620481939E0,-3.383451223E0,-8.999405861E0,-1.981257200E0
6.625237199E0,-3.400201082E0,-8.989834785E0,-1.976471543E0
6.629992408E0,-3.390629768E0,-8.989834785E0,-1.981257200E0
6.634747668E0,-3.421736479E0,-8.977870941E0,-1.971685886E0
6.639502876E0,-3.431307554E0,-9.001798630E0,-1.971685886E0
6.644258137E0,-3.460021496E0,-8.997013092E0,-1.974078655E0
6.649013345E0,-3.481556892E0,-8.982656479E0,-1.983649969E0
6.653768605E0,-3.462414265E0,-8.992227554E0,-1.986042738E0
6.658523814E0,-3.464807272E0,-8.982656479E0,-1.978864312E0
6.663279074E0,-3.462414265E0,-8.977870941E0,-1.993221283E0
6.668034283E0,-3.450450182E0,-8.977870941E0,-1.990828395E0
6.672789543E0,-3.471985579E0,-8.994620323E0,-2.014756680E0
6.677544751E0,-3.488735437E0,-8.992227554E0,-2.005185366E0
6.682300012E0,-3.510270834E0,-8.999405861E0,-2.005185366E0
6.687055272E0,-3.505485058E0,-8.982656479E0,-2.005185366E0
6.691810480E0,-3.495913982E0,-9.001798630E0,-2.012363911E0
6.696565741E0,-3.486342669E0,-9.008976936E0,-2.029113531E0
6.701320949E0,-3.486342669E0,-9.020941734E0,-2.038684845E0
6.706076210E0,-3.505485058E0,-9.008976936E0,-2.072184324E0
6.710831418E0,-3.500699520E0,-9.004191399E0,-2.084148407E0
6.715586678E0,-3.512663603E0,-9.001798630E0,-2.074577332E0
6.720341887E0,-3.553341627E0,-9.004191399E0,-2.062613010E0
6.725097147E0,-3.543770313E0,-9.004191399E0,-2.038684845E0
6.729852355E0,-3.546163082E0,-8.980263710E0,-2.017149448E0
6.734607616E0,-3.548556089E0,-8.994620323E0,-2.005185366E0
6.739362824E0,-3.529413462E0,-8.973084450E0,-1.981257200E0
6.744118085E0,-3.491128206E0,-8.977870941E0,-1.988435626E0
6.748873293E0,-3.460021496E0,-8.985049248E0,-1.978864312E0
6.753628553E0,-3.471985579E0,-8.980263710E0,-1.966900229E0
6.758383762E0,-3.424129248E0,-8.989834785E0,-1.969292998E0
6.763139022E0,-3.448057413E0,-9.013762474E0,-1.952543259E0
6.767894283E0,-3.424129248E0,-9.008976936E0,-1.947757602E0
6.772649491E0,-3.416950703E0,-9.040083885E0,-1.933400750E0
6.777404751E0,-3.419343472E0,-9.023334503E0,-1.928615093E0
6.782159960E0,-3.409772158E0,-9.035298347E0,-1.962114573E0
6.786915220E0,-3.416950703E0,-9.035298347E0,-1.974078655E0
6.791670428E0,-3.412165165E0,-9.078369141E0,-1.998006940E0
6.796425689E0,-3.431307554E0,-9.054440498E0,-2.017149448E0
6.801180897E0,-3.416950703E0,-9.064012527E0,-2.043470621E0
6.805936158E0,-3.457628727E0,-9.071190834E0,-2.050648928E0
6.810691366E0,-3.462414265E0,-9.047262192E0,-2.057827473E0
6.815446626E0,-3.450450182E0,-9.049654961E0,-2.053041935E0
6.820201835E0,-3.479164124E0,-9.049654961E0,-2.029113531E0
6.824957095E0,-3.486342669E0,-9.020941734E0,-2.017149448E0
6.829712303E0,-3.507878065E0,-9.016156197E0,-1.969292998E0
6.834467564E0,-3.503092289E0,-9.013762474E0,-1.964507341E0
6.839222824E0,-3.517449379E0,-9.006584167E0,-1.933400750E0
6.843978033E0,-3.491128206E0,-8.980263710E0,-1.897508383E0
6.848733293E0,-3.476771355E0,-8.965906143E0,-1.890329838E0
6.853488501E0,-3.462414265E0,-8.953942299E0,-1.861616015E0
6.858243762E0,-3.443271875E0,-8.937192917E0,-1.861616015E0
6.862998970E0,-3.402593851E0,-8.975478172E0,-1.892722726E0
6.867754230E0,-3.397808075E0,-8.965906143E0,-1.904686809E0
6.872509439E0,-3.383451223E0,-8.992227554E0,-1.931007862E0
6.877264699E0,-3.376272678E0,-9.004191399E0,-1.964507341E0
6.882019908E0,-3.395415306E0,-9.001798630E0,-1.988435626E0
6.886775168E0,-3.402593851E0,-9.013762474E0,-2.024327993E0
6.891530428E0,-3.445664644E0,-9.028120041E0,-2.036292076E0
6.896285637E0,-3.474378586E0,-9.030512810E0,-2.033899307E0
6.901040897E0,-3.515056372E0,-9.032905579E0,-2.017149448E0
6.905796105E0,-3.531806231E0,-8.994620323E0,-2.017149448E0
6.910551366E0,-3.541377544E0,-9.001798630E0,-2.009970903E0
6.915306574E0,-3.538984776E0,-8.982656479E0,-2.012363911E0
6.920061835E0,-3.522234917E0,-8.953942299E0,-1.995614052E0
6.924817043E0,-3.536591768E0,-8.963513374E0,-2.002792597E0
6.929572303E0,-3.522234917E0,-8.961120605E0,-1.983649969E0
6.934327564E0,-3.498306751E0,-8.949156761E0,-1.950150490E0
6.939082772E0,-3.460021496E0,-8.939585686E0,-1.952543259E0
6.943838033E0,-3.452843189E0,-8.939585686E0,-1.938186288E0
6.948593241E0,-3.431307554E0,-8.949156761E0,-1.952543259E0
6.953348501E0,-3.421736479E0,-8.968298912E0,-1.945364833E0
6.958103710E0,-3.426522017E0,-8.985049248E0,-1.974078655E0
6.962858970E0,-3.443271875E0,-8.973084450E0,-1.969292998E0
6.967614178E0,-3.464807272E0,-8.992227554E0,-1.981257200E0
6.972369439E0,-3.455235958E0,-8.989834785E0,-1.998006940E0
6.977124699E0,-3.462414265E0,-8.985049248E0,-1.988435626E0
6.981879908E0,-3.474378586E0,-8.975478172E0,-1.993221283E0
6.986635168E0,-3.462414265E0,-8.968298912E0,-2.014756680E0
6.991390376E0,-3.464807272E0,-8.963513374E0,-2.021935225E0
6.996145637E0,-3.493520975E0,-8.980263710E0,-2.036292076E0
7.000900845E0,-3.495913982E0,-8.994620323E0,-2.036292076E0
7.005656105E0,-3.505485058E0,-9.006584167E0,-2.043470621E0
7.010411366E0,-3.517449379E0,-9.018548965E0,-2.041077614E0
7.015166574E0,-3.495913982E0,-9.004191399E0,-2.021935225E0
7.019921835E0,-3.498306751E0,-9.006584167E0,-2.017149448E0
7.024677043E0,-3.500699520E0,-9.013762474E0,-2.024327993E0
7.029432303E0,-3.491128206E0,-9.016156197E0,-2.041077614E0
7.034187512E0,-3.471985579E0,-9.020941734E0,-2.057827473E0
7.038942772E0,-3.483949661E0,-9.028120041E0,-2.081755638E0
7.043698033E0,-3.452843189E0,-9.006584167E0,-2.072184324E0
7.048453241E0,-3.474378586E0,-9.030512810E0,-2.088934183E0
7.053208501E0,-3.486342669E0,-9.023334503E0,-2.072184324E0
7.057963710E0,-3.510270834E0,-9.018548965E0,-2.060220242E0
7.062718970E0,-3.531806231E0,-9.006584167E0,-2.007578135E0
7.067474178E0,-3.531806231E0,-9.013762474E0,-1.990828395E0
7.072229439E0,-3.503092289E0,-8.994620323E0,-1.969292998E0
7.076984699E0,-3.510270834E0,-8.985049248E0,-1.954936147E0
7.081739908E0,-3.510270834E0,-8.982656479E0,-1.964507341E0
7.086495168E0,-3.474378586E0,-8.961120605E0,-1.950150490E0
7.091250376E0,-3.445664644E0,-8.975478172E0,-1.971685886E0
7.096005637E0,-3.424129248E0,-8.946763992E0,-1.986042738E0
7.100760845E0,-3.428914785E0,-8.963513374E0,-2.005185366E0
7.105516105E0,-3.426522017E0,-8.970691681E0,-1.998006940E0
7.110271366E0,-3.445664644E0,-8.973084450E0,-2.017149448E0
7.115026574E0,-3.457628727E0,-8.970691681E0,-1.990828395E0
7.119781835E0,-3.486342669E0,-8.977870941E0,-2.000399828E0
7.124537043E0,-3.534198999E0,-8.975478172E0,-2.005185366E0
7.129292303E0,-3.548556089E0,-8.958727837E0,-1.983649969E0
7.134047564E0,-3.586841106E0,-8.963513374E0,-1.976471543E0
7.138802772E0,-3.605983734E0,-8.951549530E0,-1.974078655E0
7.143558033E0,-3.594019651E0,-8.946763992E0,-1.971685886E0
7.148313241E0,-3.562912941E0,-8.956335068E0,-1.988435626E0
7.153068501E0,-3.574877024E0,-8.956335068E0,-1.983649969E0
7.157823710E0,-3.550948858E0,-8.958727837E0,-2.005185366E0
7.162578970E0,-3.524627686E0,-8.977870941E0,-2.012363911E0
7.167334230E0,-3.507878065E0,-8.980263710E0,-2.031506538E0
7.172089439E0,-3.498306751E0,-8.987442017E0,-2.048256159E0
7.176844699E0,-3.495913982E0,-8.975478172E0,-2.041077614E0
7.181599908E0,-3.488735437E0,-8.973084450E0,-2.026720762E0
7.186355168E0,-3.505485058E0,-8.970691681E0,-2.009970903E0
7.191110428E0,-3.548556089E0,-8.944371223E0,-1.971685886E0
7.195865637E0,-3.531806231E0,-8.982656479E0,-1.962114573E0
7.200620897E0,-3.531806231E0,-8.977870941E0,-1.942971945E0
7.205376105E0,-3.543770313E0,-8.973084450E0,-1.950150490E0
7.210131366E0,-3.500699520E0,-8.970691681E0,-1.952543259E0
7.214886574E0,-3.500699520E0,-8.977870941E0,-1.974078655E0
7.219641835E0,-3.469592810E0,-9.006584167E0,-1.990828395E0
7.224397095E0,-3.467200041E0,-8.997013092E0,-2.009970903E0
7.229152303E0,-3.467200041E0,-8.999405861E0,-2.007578135E0
7.233907564E0,-3.455235958E0,-9.004191399E0,-2.012363911E0
7.238662772E0,-3.464807272E0,-8.970691681E0,-2.021935225E0
7.243418033E0,-3.464807272E0,-8.973084450E0,-2.017149448E0
7.248173293E0,-3.467200041E0,-8.973084450E0,-2.019542217E0
7.252928501E0,-3.457628727E0,-9.008976936E0,-2.033899307E0
7.257683762E0,-3.460021496E0,-8.992227554E0,-2.062613010E0
7.262438970E0,-3.469592810E0,-8.973084450E0,-2.072184324E0
7.267194230E0,-3.486342669E0,-8.968298912E0,-2.067398787E0
7.271949491E0,-3.474378586E0,-8.980263710E0,-2.053041935E0
7.276704699E0,-3.486342669E0,-8.963513374E0,-2.029113531E0
7.281459960E0,-3.498306751E0,-8.975478172E0,-2.005185366E0
7.286215168E0,-3.500699520E0,-8.989834785E0,-1.986042738E0
7.290970428E0,-3.512663603E0,-8.973084450E0,-1.957328916E0
7.295725689E0,-3.517449379E0,-8.958727837E0,-1.923829436E0
7.300480897E0,-3.519842148E0,-8.958727837E0,-1.914258122E0
7.305236158E0,-3.517449379E0,-8.965906143E0,-1.911865234E0
7.309991366E0,-3.503092289E0,-8.937192917E0,-1.921436548E0
7.314746626E0,-3.519842148E0,-8.963513374E0,-1.914258122E0
7.319501887E0,-3.483949661E0,-8.975478172E0,-1.947757602E0
7.324257095E0,-3.450450182E0,-8.980263710E0,-1.935793519E0
7.329012355E0,-3.462414265E0,-8.975478172E0,-1.938186288E0
7.333767564E0,-3.481556892E0,-8.999405861E0,-1.976471543E0
7.338522824E0,-3.469592810E0,-9.004191399E0,-1.974078655E0
7.343278085E0,-3.474378586E0,-9.004191399E0,-2.002792597E0
7.348033293E0,-3.471985579E0,-8.992227554E0,-2.031506538E0
7.352788553E0,-3.503092289E0,-9.013762474E0,-2.067398787E0
7.357543762E0,-3.507878065E0,-9.006584167E0,-2.093719721E0
7.362299022E0,-3.531806231E0,-8.987442017E0,-2.103291035E0
7.367054283E0,-3.524627686E0,-8.980263710E0,-2.122433662E0
7.371809491E0,-3.558127165E0,-8.970691681E0,-2.112862349E0
7.376564751E0,-3.555734396E0,-8.968298912E0,-2.105684042E0
7.381319960E0,-3.577269793E0,-8.980263710E0,-2.103291035E0
7.386075220E0,-3.570091486E0,-8.970691681E0,-2.108076811E0
7.390830480E0,-3.582055569E0,-8.973084450E0,-2.103291035E0
7.395585689E0,-3.586841106E0,-8.953942299E0,-2.062613010E0
7.400340949E0,-3.567698479E0,-8.963513374E0,-2.029113531E0
7.405096158E0,-3.550948858E0,-8.958727837E0,-2.002792597E0
7.409851418E0,-3.555734396E0,-8.968298912E0,-1.966900229E0
7.414606678E0,-3.529413462E0,-8.963513374E0,-1.952543259E0
7.419361887E0,-3.519842148E0,-8.982656479E0,-1.931007862E0
7.424117147E0,-3.493520975E0,-8.973084450E0,-1.942971945E0
7.428872355E0,-3.457628727E0,-9.001798630E0,-1.952543259E0
7.433627616E0,-3.416950703E0,-8.997013092E0,-1.947757602E0
7.438382876E0,-3.419343472E0,-9.008976936E0,-1.990828395E0
7.443138085E0,-3.409772158E0,-8.989834785E0,-1.983649969E0
7.447893345E0,-3.407379389E0,-8.980263710E0,-2.002792597E0
7.452648605E0,-3.416950703E0,-8.987442017E0,-2.002792597E0
7.457403814E0,-3.438486099E0,-8.951549530E0,-2.036292076E0
7.462159074E0,-3.471985579E0,-8.939585686E0,-2.043470621E0
7.466914283E0,-3.481556892E0,-8.939585686E0,-2.043470621E0
7.471669543E0,-3.488735437E0,-8.946763992E0,-2.062613010E0
7.476424803E0,-3.507878065E0,-8.963513374E0,-2.045863390E0
7.481180012E0,-3.491128206E0,-8.973084450E0,-2.014756680E0
7.485935272E0,-3.503092289E0,-8.994620323E0,-2.024327993E0
7.490690533E0,-3.493520975E0,-8.997013092E0,-2.017149448E0
7.495445741E0,-3.500699520E0,-9.025727272E0,-2.012363911E0
7.500201001E0,-3.529413462E0,-9.061619759E0,-1.998006940E0
7.504956210E0,-3.512663603E0,-9.066405296E0,-1.976471543E0
7.509711470E0,-3.474378586E0,-9.047262192E0,-2.002792597E0
7.514466730E0,-3.483949661E0,-9.013762474E0,-1.966900229E0
7.519221939E0,-3.457628727E0,-9.018548965E0,-1.954936147E0
7.523977199E0,-3.457628727E0,-8.965906143E0,-1.969292998E0
7.528732460E0,-3.445664644E0,-8.934800148E0,-1.986042738E0
7.533487668E0,-3.443271875E0,-8.910871506E0,-1.986042738E0
7.538242928E0,-3.440878868E0,-8.879764557E0,-1.998006940E0
7.542998137E0,-3.416950703E0,-8.882157326E0,-1.995614052E0
7.547753397E0,-3.448057413E0,-8.889336586E0,-1.995614052E0
7.552508658E0,-3.505485058E0,-8.906085968E0,-1.998006940E0
7.557263866E0,-3.498306751E0,-8.956335068E0,-2.014756680E0
7.562019126E0,-3.474378586E0,-8.973084450E0,-2.012363911E0
7.566774387E0,-3.471985579E0,-9.016156197E0,-1.993221283E0
7.571529595E0,-3.471985579E0,-9.044869423E0,-2.019542217E0
7.576284855E0,-3.464807272E0,-9.056833267E0,-1.995614052E0
7.581040064E0,-3.460021496E0,-9.040083885E0,-1.971685886E0
7.585795324E0,-3.452843189E0,-9.023334503E0,-1.998006940E0
7.590550585E0,-3.481556892E0,-8.982656479E0,-1.988435626E0
7.595305793E0,-3.493520975E0,-8.980263710E0,-2.021935225E0
7.600061053E0,-3.529413462E0,-8.953942299E0,-2.038684845E0
7.604816314E0,-3.541377544E0,-8.949156761E0,-2.048256159E0
7.609571522E0,-3.562912941E0,-8.961120605E0,-2.055434704E0
7.614326783E0,-3.574877024E0,-8.944371223E0,-2.053041935E0
7.619082043E0,-3.577269793E0,-8.949156761E0,-2.041077614E0
7.623837251E0,-3.555734396E0,-8.956335068E0,-2.036292076E0
7.628592512E0,-3.553341627E0,-8.982656479E0,-2.029113531E0
7.633347720E0,-3.550948858E0,-8.980263710E0,-2.019542217E0
7.638102980E0,-3.529413462E0,-8.970691681E0,-2.019542217E0
7.642858241E0,-3.527020693E0,-8.977870941E0,-2.019542217E0
7.647613449E0,-3.491128206E0,-8.965906143E0,-1.993221283E0
7.652368710E0,-3.483949661E0,-8.946763992E0,-1.993221283E0
7.657123918E0,-3.455235958E0,-8.939585686E0,-1.981257200E0
7.661879178E0,-3.455235958E0,-8.941978455E0,-1.976471543E0
7.666634439E0,-3.448057413E0,-8.927620888E0,-1.971685886E0
7.671389647E0,-3.426522017E0,-8.946763992E0,-1.976471543E0
7.676144908E0,-3.462414265E0,-8.968298912E0,-1.988435626E0
7.680900168E0,-3.455235958E0,-8.980263710E0,-1.990828395E0
7.685655376E0,-3.462414265E0,-9.006584167E0,-2.029113531E0
7.690410637E0,-3.474378586E0,-9.001798630E0,-2.067398787E0
7.695165897E0,-3.488735437E0,-8.999405861E0,-2.084148407E0
7.699921105E0,-3.498306751E0,-8.997013092E0,-2.065006018E0
7.704676366E0,-3.512663603E0,-9.008976936E0,-2.067398787E0
7.709431574E0,-3.500699520E0,-9.001798630E0,-2.057827473E0
7.714186835E0,-3.512663603E0,-8.987442017E0,-2.069791555E0
7.718942095E0,-3.522234917E0,-8.975478172E0,-2.055434704E0
7.723697303E0,-3.515056372E0,-8.989834785E0,-2.060220242E0
7.728452564E0,-3.503092289E0,-8.982656479E0,-2.048256159E0
7.733207824E0,-3.500699520E0,-8.958727837E0,-2.029113531E0
7.737963033E0,-3.479164124E0,-8.982656479E0,-2.036292076E0
7.742718293E0,-3.452843189E0,-8.980263710E0,-2.007578135E0
7.747473553E0,-3.436093330E0,-8.980263710E0,-2.012363911E0
7.752228762E0,-3.431307554E0,-8.973084450E0,-2.012363911E0
7.756984022E0,-3.426522017E0,-8.977870941E0,-2.021935225E0
7.761739283E0,-3.431307554E0,-8.973084450E0,-2.024327993E0
7.766494491E0,-3.450450182E0,-8.997013092E0,-2.038684845E0
7.771249751E0,-3.438486099E0,-9.004191399E0,-2.021935225E0
7.776005012E0,-3.419343472E0,-9.032905579E0,-2.007578135E0
7.780760220E0,-3.469592810E0,-9.042476654E0,-1.993221283E0
7.785515480E0,-3.505485058E0,-9.052047729E0,-2.000399828E0
7.790270689E0,-3.503092289E0,-9.059226990E0,-2.033899307E0
7.795025949E0,-3.493520975E0,-9.059226990E0,-2.033899307E0
7.799781210E0,-3.512663603E0,-9.011369705E0,-2.050648928E0
7.804536418E0,-3.498306751E0,-8.997013092E0,-2.045863390E0
7.809291678E0,-3.517449379E0,-8.956335068E0,-2.053041935E0
7.814046939E0,-3.548556089E0,-8.908478737E0,-2.038684845E0
7.818802147E0,-3.531806231E0,-8.886942863E0,-2.043470621E0
7.823557408E0,-3.550948858E0,-8.894122124E0,-2.017149448E0
7.828312668E0,-3.558127165E0,-8.896514893E0,-1.990828395E0
7.833067876E0,-3.538984776E0,-8.884550095E0,-1.993221283E0
7.837823137E0,-3.515056372E0,-8.903693199E0,-1.974078655E0
7.842578397E0,-3.474378586E0,-8.922835350E0,-1.981257200E0
7.847333605E0,-3.493520975E0,-8.970691681E0,-2.002792597E0
7.852088866E0,-3.467200041E0,-8.987442017E0,-2.009970903E0
7.856844126E0,-3.424129248E0,-9.018548965E0,-2.026720762E0
7.861599335E0,-3.402593851E0,-9.037691116E0,-2.005185366E0
7.866354595E0,-3.414557934E0,-9.042476654E0,-2.017149448E0
7.871109803E0,-3.426522017E0,-9.066405296E0,-2.019542217E0
7.875865064E0,-3.404986620E0,-9.047262192E0,-2.012363911E0
7.880620324E0,-3.388236761E0,-9.035298347E0,-2.024327993E0
7.885375533E0,-3.412165165E0,-9.008976936E0,-2.041077614E0
7.890130793E0,-3.414557934E0,-9.004191399E0,-2.048256159E0
7.894886053E0,-3.438486099E0,-8.999405861E0,-2.048256159E0
7.899641262E0,-3.462414265E0,-9.004191399E0,-2.041077614E0
7.904396522E0,-3.457628727E0,-8.975478172E0,-2.057827473E0
7.909151783E0,-3.471985579E0,-8.997013092E0,-2.086541414E0
7.913906991E0,-3.507878065E0,-8.999405861E0,-2.088934183E0
7.918662251E0,-3.488735437E0,-9.001798630E0,-2.065006018E0
7.923417512E0,-3.493520975E0,-8.992227554E0,-2.050648928E0
7.928172720E0,-3.503092289E0,-8.985049248E0,-2.045863390E0
7.932927980E0,-3.522234917E0,-8.992227554E0,-2.045863390E0
7.937683241E0,-3.531806231E0,-8.985049248E0,-2.031506538E0
7.942438449E0,-3.546163082E0,-8.982656479E0,-2.038684845E0
7.947193710E0,-3.538984776E0,-9.006584167E0,-2.043470621E0
7.951948970E0,-3.527020693E0,-9.006584167E0,-2.021935225E0
7.956704178E0,-3.524627686E0,-8.982656479E0,-2.041077614E0
7.961459439E0,-3.479164124E0,-8.989834785E0,-2.043470621E0
7.966214699E0,-3.493520975E0,-9.018548965E0,-2.014756680E0
7.970969908E0,-3.455235958E0,-8.980263710E0,-2.024327993E0
7.975725168E0,-3.464807272E0,-8.963513374E0,-1.998006940E0
7.980480376E0,-3.431307554E0,-8.946763992E0,-2.002792597E0
7.985235637E0,-3.438486099E0,-8.953942299E0,-2.014756680E0
7.989990897E0,-3.445664644E0,-8.951549530E0,-2.019542217E0
7.994746105E0,-3.443271875E0,-8.915657043E0,-2.009970903E0
7.999501366E0,-3.457628727E0,-8.946763992E0,-2.014756680E0
8.004256626E0,-3.476771355E0,-8.946763992E0,-2.021935225E0
8.009011835E0,-3.498306751E0,-8.956335068E0,-2.029113531E0
8.013767095E0,-3.507878065E0,-8.965906143E0,-2.036292076E0
8.018522355E0,-3.531806231E0,-9.008976936E0,-2.055434704E0
8.023277564E0,-3.560520172E0,-8.999405861E0,-2.069791555E0
8.028032824E0,-3.534198999E0,-9.018548965E0,-2.103291035E0
8.032788085E0,-3.562912941E0,-9.020941734E0,-2.110469580E0
8.037543293E0,-3.541377544E0,-9.004191399E0,-2.079362869E0
8.042298553E0,-3.572484255E0,-8.997013092E0,-2.076970100E0
8.047053814E0,-3.601198196E0,-8.994620323E0,-2.053041935E0
8.051809022E0,-3.579662561E0,-8.965906143E0,-2.036292076E0
8.056564283E0,-3.550948858E0,-8.944371223E0,-2.024327993E0
8.061319543E0,-3.546163082E0,-8.930013657E0,-1.995614052E0
8.066074751E0,-3.505485058E0,-8.894122124E0,-1.995614052E0
8.070830012E0,-3.505485058E0,-8.894122124E0,-1.988435626E0
8.075585272E0,-3.464807272E0,-8.913264275E0,-2.021935225E0
8.080340480E0,-3.452843189E0,-8.908478737E0,-2.002792597E0
8.085095741E0,-3.433700562E0,-8.906085968E0,-1.998006940E0
8.089851001E0,-3.414557934E0,-8.918049812E0,-1.981257200E0
8.094606210E0,-3.419343472E0,-8.910871506E0,-1.971685886E0
8.099361470E0,-3.397808075E0,-8.951549530E0,-1.957328916E0
8.104116730E0,-3.414557934E0,-8.965906143E0,-1.957328916E0
8.108871939E0,-3.421736479E0,-8.992227554E0,-1.964507341E0
8.113627199E0,-3.436093330E0,-9.004191399E0,-1.976471543E0
8.118382460E0,-3.448057413E0,-9.013762474E0,-1.971685886E0
8.123137668E0,-3.471985579E0,-9.023334503E0,-1.995614052E0
8.127892928E0,-3.488735437E0,-9.032905579E0,-2.002792597E0
8.132648189E0,-3.500699520E0,-9.016156197E0,-2.017149448E0
8.137403397E0,-3.510270834E0,-9.037691116E0,-2.041077614E0
8.142158658E0,-3.553341627E0,-9.023334503E0,-2.041077614E0
8.146913918E0,-3.534198999E0,-9.052047729E0,-2.060220242E0
8.151669126E0,-3.543770313E0,-9.018548965E0,-2.065006018E0
8.156424387E0,-3.522234917E0,-9.006584167E0,-2.038684845E0
8.161179647E0,-3.538984776E0,-8.989834785E0,-2.043470621E0
8.165934855E0,-3.522234917E0,-8.989834785E0,-2.033899307E0
8.170690116E0,-3.505485058E0,-8.970691681E0,-2.017149448E0
8.175445376E0,-3.467200041E0,-8.965906143E0,-1.978864312E0
8.180200585E0,-3.450450182E0,-8.982656479E0,-1.952543259E0
8.184955845E0,-3.450450182E0,-8.997013092E0,-1.928615093E0
8.189711105E0,-3.445664644E0,-9.023334503E0,-1.892722726E0
8.194466314E0,-3.438486099E0,-9.023334503E0,-1.875972986E0
8.199221574E0,-3.443271875E0,-9.059226990E0,-1.883151412E0
8.203976835E0,-3.455235958E0,-9.066405296E0,-1.887937069E0
8.208732043E0,-3.450450182E0,-9.071190834E0,-1.914258122E0
8.213487303E0,-3.469592810E0,-9.064012527E0,-1.962114573E0
8.218242512E0,-3.483949661E0,-9.052047729E0,-1.976471543E0
8.222997772E0,-3.493520975E0,-9.052047729E0,-2.005185366E0
8.227753033E0,-3.512663603E0,-9.032905579E0,-2.019542217E0
8.232508293E0,-3.524627686E0,-9.001798630E0,-2.014756680E0
8.237263501E0,-3.510270834E0,-8.977870941E0,-2.012363911E0
8.242018762E0,-3.517449379E0,-8.958727837E0,-2.012363911E0
8.246774022E0,-3.534198999E0,-8.946763992E0,-2.012363911E0
8.251529230E0,-3.515056372E0,-8.941978455E0,-2.000399828E0
8.256284491E0,-3.517449379E0,-8.949156761E0,-1.995614052E0
8.261039751E0,-3.507878065E0,-8.937192917E0,-1.950150490E0
8.265794960E0,-3.498306751E0,-8.946763992E0,-1.909472466E0
8.270550220E0,-3.505485058E0,-8.951549530E0,-1.873580098E0
8.275305480E0,-3.491128206E0,-8.949156761E0,-1.835294962E0
8.280060689E0,-3.474378586E0,-8.956335068E0,-1.837687731E0
8.284815949E0,-3.460021496E0,-8.965906143E0,-1.835294962E0
8.289571210E0,-3.436093330E0,-8.985049248E0,-1.849651933E0
8.294326418E0,-3.428914785E0,-8.989834785E0,-1.885544300E0
8.299081678E0,-3.412165165E0,-9.011369705E0,-1.942971945E0
8.303836939E0,-3.400201082E0,-8.992227554E0,-1.983649969E0
8.308592147E0,-3.416950703E0,-9.008976936E0,-2.012363911E0
8.313347408E0,-3.390629768E0,-8.992227554E0,-2.067398787E0
8.318102668E0,-3.416950703E0,-9.004191399E0,-2.074577332E0
8.322857876E0,-3.416950703E0,-9.011369705E0,-2.074577332E0
8.327613137E0,-3.443271875E0,-8.982656479E0,-2.067398787E0
8.332368397E0,-3.517449379E0,-8.980263710E0,-2.081755638E0
8.337123605E0,-3.505485058E0,-8.977870941E0,-2.076970100E0
8.341878866E0,-3.531806231E0,-8.970691681E0,-2.045863390E0
8.346634126E0,-3.546163082E0,-8.975478172E0,-2.009970903E0
8.351389335E0,-3.546163082E0,-8.961120605E0,-2.005185366E0
8.356144595E0,-3.548556089E0,-8.999405861E0,-2.002792597E0
8.360899855E0,-3.519842148E0,-8.997013092E0,-1.959721804E0
8.365655064E0,-3.498306751E0,-9.030512810E0,-1.950150490E0
8.370410324E0,-3.469592810E0,-9.040083885E0,-1.940579176E0
8.375165585E0,-3.483949661E0,-9.047262192E0,-1.897508383E0
8.379920793E0,-3.452843189E0,-9.037691116E0,-1.916650891E0
8.384676053E0,-3.469592810E0,-9.042476654E0,-1.914258122E0
8.389431314E0,-3.440878868E0,-9.049654961E0,-1.911865234E0
8.394186522E0,-3.445664644E0,-9.035298347E0,-1.938186288E0
8.398941783E0,-3.460021496E0,-9.030512810E0,-1.950150490E0
8.403697043E0,-3.443271875E0,-9.011369705E0,-1.964507341E0
8.408452251E0,-3.483949661E0,-8.999405861E0,-1.990828395E0
8.413207512E0,-3.536591768E0,-9.004191399E0,-1.998006940E0
8.417962772E0,-3.589233875E0,-8.999405861E0,-1.986042738E0
8.422717980E0,-3.586841106E0,-8.985049248E0,-1.978864312E0
8.427473241E0,-3.577269793E0,-8.939585686E0,-1.964507341E0
8.432228501E0,-3.591626883E0,-8.930013657E0,-1.945364833E0
8.436983710E0,-3.582055569E0,-8.944371223E0,-1.952543259E0
8.441738970E0,-3.558127165E0,-8.951549530E0,-1.942971945E0
8.446494230E0,-3.579662561E0,-8.965906143E0,-1.926222205E0
8.451249439E0,-3.543770313E0,-8.977870941E0,-1.931007862E0
8.456004699E0,-3.495913982E0,-9.008976936E0,-1.935793519E0
8.460759960E0,-3.488735437E0,-9.011369705E0,-1.942971945E0
8.465515168E0,-3.431307554E0,-9.020941734E0,-1.981257200E0
8.470270428E0,-3.412165165E0,-9.011369705E0,-1.983649969E0
8.475025689E0,-3.393022537E0,-9.028120041E0,-1.995614052E0
8.479780897E0,-3.359523058E0,-9.011369705E0,-1.988435626E0
8.484536158E0,-3.373879910E0,-9.018548965E0,-1.974078655E0
8.489291418E0,-3.390629768E0,-9.035298347E0,-1.978864312E0
8.494046678E0,-3.409772158E0,-9.028120041E0,-1.945364833E0
8.498801887E0,-3.409772158E0,-9.028120041E0,-1.962114573E0
8.503557147E0,-3.469592810E0,-9.011369705E0,-1.950150490E0
8.508312355E0,-3.505485058E0,-9.035298347E0,-1.952543259E0
8.513067616E0,-3.510270834E0,-9.030512810E0,-1.959721804E0
8.517822876E0,-3.505485058E0,-9.020941734E0,-1.974078655E0
8.522578137E0,-3.519842148E0,-9.030512810E0,-1.998006940E0
8.527333345E0,-3.527020693E0,-9.001798630E0,-1.976471543E0
8.532088605E0,-3.507878065E0,-9.020941734E0,-1.976471543E0
8.536843866E0,-3.503092289E0,-9.013762474E0,-1.981257200E0
8.541599074E0,-3.488735437E0,-9.011369705E0,-1.998006940E0
8.546354335E0,-3.471985579E0,-9.028120041E0,-2.017149448E0
8.551109595E0,-3.491128206E0,-9.059226990E0,-2.031506538E0
8.555864803E0,-3.481556892E0,-9.128618240E0,-2.029113531E0
8.560620064E0,-3.452843189E0,-9.114261627E0,-2.024327993E0
8.565375324E0,-3.433700562E0,-9.128618240E0,-2.007578135E0
8.570130533E0,-3.424129248E0,-9.114261627E0,-2.007578135E0
8.574885793E0,-3.416950703E0,-9.104690552E0,-1.986042738E0
8.579641053E0,-3.464807272E0,-9.107083321E0,-1.995614052E0
8.584396262E0,-3.495913982E0,-9.090332985E0,-1.969292998E0
8.589151522E0,-3.534198999E0,-9.061619759E0,-1.988435626E0
8.593906783E0,-3.503092289E0,-9.064012527E0,-1.976471543E0
8.598661991E0,-3.510270834E0,-9.011369705E0,-1.990828395E0
8.603417251E0,-3.558127165E0,-8.953942299E0,-1.986042738E0
8.608172512E0,-3.529413462E0,-8.951549530E0,-1.983649969E0
8.612927720E0,-3.495913982E0,-8.934800148E0,-1.954936147E0
8.617682980E0,-3.507878065E0,-8.920442581E0,-1.954936147E0
8.622438241E0,-3.503092289E0,-8.927620888E0,-1.986042738E0
8.627193449E0,-3.491128206E0,-8.915657043E0,-1.964507341E0
8.631948710E0,-3.493520975E0,-8.920442581E0,-1.938186288E0
8.636703970E0,-3.512663603E0,-8.953942299E0,-1.942971945E0
8.641459178E0,-3.505485058E0,-8.973084450E0,-1.945364833E0
8.646214439E0,-3.515056372E0,-9.001798630E0,-1.947757602E0
8.650969699E0,-3.531806231E0,-9.011369705E0,-1.945364833E0
8.655724908E0,-3.546163082E0,-9.042476654E0,-1.964507341E0
8.660480168E0,-3.543770313E0,-9.044869423E0,-1.974078655E0
8.665235428E0,-3.546163082E0,-9.061619759E0,-1.976471543E0
8.669990637E0,-3.577269793E0,-9.044869423E0,-2.007578135E0
8.674745897E0,-3.577269793E0,-8.997013092E0,-2.036292076E0
8.679501158E0,-3.603590965E0,-8.987442017E0,-2.041077614E0
8.684256366E0,-3.615555048E0,-8.951549530E0,-2.057827473E0
8.689011626E0,-3.637090445E0,-8.934800148E0,-2.062613010E0
8.693766887E0,-3.627519131E0,-8.934800148E0,-2.074577332E0
8.698522095E0,-3.617947817E0,-8.908478737E0,-2.079362869E0
8.703277355E0,-3.613162279E0,-8.889336586E0,-2.060220242E0
8.708032616E0,-3.574877024E0,-8.910871506E0,-2.031506538E0
8.712787824E0,-3.574877024E0,-8.918049812E0,-2.019542217E0
8.717543085E0,-3.553341627E0,-8.913264275E0,-1.983649969E0
8.722298345E0,-3.503092289E0,-8.951549530E0,-1.986042738E0
8.727053605E0,-3.479164124E0,-8.970691681E0,-1.971685886E0
8.731808814E0,-3.428914785E0,-8.970691681E0,-1.954936147E0
8.736564074E0,-3.388236761E0,-9.013762474E0,-1.954936147E0
8.741319335E0,-3.371487141E0,-9.037691116E0,-1.947757602E0
8.746074543E0,-3.376272678E0,-9.052047729E0,-1.931007862E0
8.750829803E0,-3.349951744E0,-9.071190834E0,-1.919043779E0
8.755585064E0,-3.381058455E0,-9.090332985E0,-1.887937069E0
8.760340272E0,-3.352344513E0,-9.087940216E0,-1.909472466E0
8.765095533E0,-3.357130051E0,-9.078369141E0,-1.899901152E0
8.769850793E0,-3.354737282E0,-9.097511292E0,-1.928615093E0
8.774606001E0,-3.361915827E0,-9.092725754E0,-1.926222205E0
8.779361262E0,-3.378665686E0,-9.092725754E0,-1.959721804E0
8.784116522E0,-3.388236761E0,-9.059226990E0,-1.974078655E0
8.788871730E0,-3.402593851E0,-9.083154678E0,-1.986042738E0
8.793626991E0,-3.421736479E0,-9.092725754E0,-1.993221283E0
8.798382251E0,-3.414557934E0,-9.075976372E0,-2.000399828E0
8.803137460E0,-3.400201082E0,-9.080761909E0,-2.005185366E0
8.807892720E0,-3.416950703E0,-9.068798065E0,-2.021935225E0
8.812647980E0,-3.426522017E0,-9.080761909E0,-2.014756680E0
8.817403189E0,-3.397808075E0,-9.073583603E0,-2.014756680E0
8.822158449E0,-3.407379389E0,-9.064012527E0,-2.000399828E0
8.826913710E0,-3.438486099E0,-9.040083885E0,-1.966900229E0
8.831668918E0,-3.438486099E0,-9.035298347E0,-1.940579176E0
8.836424178E0,-3.460021496E0,-9.032905579E0,-1.919043779E0
8.841179439E0,-3.457628727E0,-9.016156197E0,-1.904686809E0
8.845934647E0,-3.498306751E0,-9.032905579E0,-1.890329838E0
8.850689908E0,-3.519842148E0,-9.030512810E0,-1.864008784E0
8.855445168E0,-3.529413462E0,-9.020941734E0,-1.864008784E0
8.860200376E0,-3.543770313E0,-9.030512810E0,-1.873580098E0
8.864955637E0,-3.562912941E0,-9.020941734E0,-1.883151412E0
8.869710897E0,-3.570091486E0,-8.999405861E0,-1.907079697E0
8.874466105E0,-3.562912941E0,-8.997013092E0,-1.926222205E0
8.879221366E0,-3.546163082E0,-8.999405861E0,-1.952543259E0
8.883976626E0,-3.582055569E0,-8.977870941E0,-1.950150490E0
8.888731835E0,-3.574877024E0,-8.965906143E0,-1.983649969E0
8.893487095E0,-3.570091486E0,-8.939585686E0,-1.983649969E0
8.898242355E0,-3.558127165E0,-8.891729355E0,-2.009970903E0
8.902997564E0,-3.570091486E0,-8.884550095E0,-2.031506538E0
8.907752824E0,-3.594019651E0,-8.896514893E0,-2.048256159E0
8.912508085E0,-3.565305710E0,-8.870193481E0,-2.048256159E0
8.917263293E0,-3.579662561E0,-8.870193481E0,-2.072184324E0
8.922018553E0,-3.584448338E0,-8.858229637E0,-2.057827473E0
8.926773814E0,-3.574877024E0,-8.863015175E0,-2.074577332E0
8.931529074E0,-3.572484255E0,-8.848658562E0,-2.086541414E0
8.936284283E0,-3.567698479E0,-8.858229637E0,-2.091326952E0
8.941039543E0,-3.565305710E0,-8.860622406E0,-2.108076811E0
8.945794751E0,-3.584448338E0,-8.863015175E0,-2.108076811E0
8.950550012E0,-3.601198196E0,-8.894122124E0,-2.112862349E0
8.955305272E0,-3.562912941E0,-8.882157326E0,-2.086541414E0
8.960060533E0,-3.524627686E0,-8.884550095E0,-2.069791555E0
8.964815741E0,-3.522234917E0,-8.882157326E0,-2.041077614E0
8.969571001E0,-3.515056372E0,-8.918049812E0,-2.045863390E0
8.974326262E0,-3.524627686E0,-8.918049812E0,-2.041077614E0
8.979081470E0,-3.505485058E0,-8.903693199E0,-2.033899307E0
8.983836730E0,-3.488735437E0,-8.918049812E0,-2.019542217E0
8.988591991E0,-3.462414265E0,-8.918049812E0,-2.005185366E0
8.993347199E0,-3.440878868E0,-8.927620888E0,-2.009970903E0
8.998102460E0,-3.400201082E0,-8.913264275E0,-1.998006940E0
9.002857668E0,-3.409772158E0,-8.908478737E0,-1.978864312E0
9.007612928E0,-3.424129248E0,-8.918049812E0,-2.007578135E0
9.012368189E0,-3.436093330E0,-8.922835350E0,-2.019542217E0
9.017123449E0,-3.436093330E0,-8.949156761E0,-2.060220242E0
9.021878658E0,-3.474378586E0,-8.939585686E0,-2.081755638E0
9.026633918E0,-3.476771355E0,-8.949156761E0,-2.091326952E0
9.031389178E0,-3.527020693E0,-8.965906143E0,-2.108076811E0
9.036144387E0,-3.553341627E0,-8.968298912E0,-2.093719721E0
9.040899647E0,-3.577269793E0,-9.011369705E0,-2.079362869E0
9.045654908E0,-3.596412420E0,-9.006584167E0,-2.074577332E0
9.050410116E0,-3.613162279E0,-9.032905579E0,-2.076970100E0
9.055165376E0,-3.620340586E0,-9.042476654E0,-2.079362869E0
9.059920637E0,-3.598805189E0,-9.068798065E0,-2.081755638E0
9.064675845E0,-3.608376503E0,-9.068798065E0,-2.065006018E0
9.069431105E0,-3.620340586E0,-9.059226990E0,-2.062613010E0
9.074186366E0,-3.620340586E0,-9.056833267E0,-2.067398787E0
9.078941574E0,-3.622733593E0,-9.052047729E0,-2.048256159E0
9.083696835E0,-3.632304668E0,-9.056833267E0,-2.009970903E0
9.088452095E0,-3.637090445E0,-9.052047729E0,-2.012363911E0
9.093207303E0,-3.625126362E0,-9.054440498E0,-1.990828395E0
9.097962564E0,-3.610769272E0,-9.040083885E0,-1.974078655E0
9.102717824E0,-3.584448338E0,-8.999405861E0,-1.993221283E0
9.107473033E0,-3.570091486E0,-9.004191399E0,-2.000399828E0
9.112228293E0,-3.562912941E0,-8.992227554E0,-2.009970903E0
9.116983553E0,-3.572484255E0,-8.997013092E0,-1.988435626E0
9.121738762E0,-3.553341627E0,-9.001798630E0,-1.981257200E0
9.126494022E0,-3.538984776E0,-9.011369705E0,-1.983649969E0
9.131249283E0,-3.522234917E0,-8.989834785E0,-1.966900229E0
9.136004491E0,-3.517449379E0,-9.001798630E0,-1.971685886E0
9.140759751E0,-3.486342669E0,-9.006584167E0,-1.983649969E0
9.145515012E0,-3.498306751E0,-9.013762474E0,-1.952543259E0
9.150270220E0,-3.486342669E0,-8.987442017E0,-1.954936147E0
9.155025480E0,-3.479164124E0,-8.985049248E0,-1.942971945E0
9.159780741E0,-3.457628727E0,-8.951549530E0,-1.914258122E0
9.164535949E0,-3.469592810E0,-8.953942299E0,-1.887937069E0
9.169291210E0,-3.467200041E0,-8.963513374E0,-1.885544300E0
9.174046470E0,-3.479164124E0,-8.977870941E0,-1.897508383E0
9.178801678E0,-3.488735437E0,-8.977870941E0,-1.895115495E0
9.183556939E0,-3.510270834E0,-9.001798630E0,-1.940579176E0
9.188312199E0,-3.524627686E0,-8.982656479E0,-1.966900229E0
9.193067408E0,-3.515056372E0,-9.008976936E0,-1.993221283E0
9.197822668E0,-3.507878065E0,-8.968298912E0,-2.017149448E0
9.202577928E0,-3.524627686E0,-8.953942299E0,-2.031506538E0
9.207333137E0,-3.536591768E0,-8.946763992E0,-2.038684845E0
9.212088397E0,-3.543770313E0,-8.918049812E0,-2.014756680E0
9.216843658E0,-3.534198999E0,-8.882157326E0,-2.019542217E0
9.221598866E0,-3.534198999E0,-8.884550095E0,-2.009970903E0
9.226354126E0,-3.524627686E0,-8.870193481E0,-2.002792597E0
9.231109387E0,-3.515056372E0,-8.858229637E0,-1.998006940E0
9.235864595E0,-3.515056372E0,-8.851051331E0,-1.995614052E0
9.240619855E0,-3.495913982E0,-8.831908226E0,-1.981257200E0
9.245375116E0,-3.474378586E0,-8.846264839E0,-1.962114573E0
9.250130324E0,-3.455235958E0,-8.851051331E0,-1.957328916E0
9.254885585E0,-3.450450182E0,-8.858229637E0,-1.952543259E0
9.259640845E0,-3.460021496E0,-8.889336586E0,-1.962114573E0
9.264396053E0,-3.448057413E0,-8.922835350E0,-1.966900229E0
9.269151314E0,-3.433700562E0,-8.903693199E0,-1.990828395E0
9.273906574E0,-3.426522017E0,-8.946763992E0,-2.026720762E0
9.278661783E0,-3.457628727E0,-8.961120605E0,-2.053041935E0
9.283417043E0,-3.486342669E0,-8.982656479E0,-2.072184324E0
9.288172303E0,-3.519842148E0,-8.975478172E0,-2.074577332E0
9.292927512E0,-3.560520172E0,-8.968298912E0,-2.098505497E0
9.297682772E0,-3.594019651E0,-8.975478172E0,-2.091326952E0
9.302438033E0,-3.622733593E0,-8.965906143E0,-2.076970100E0
9.307193241E0,-3.656233072E0,-8.951549530E0,-2.041077614E0
9.311948501E0,-3.675375462E0,-8.922835350E0,-2.057827473E0
9.316703762E0,-3.732803345E0,-8.918049812E0,-2.041077614E0
9.321458970E0,-3.706482172E0,-8.918049812E0,-2.053041935E0
9.326214230E0,-3.723232031E0,-8.898907661E0,-2.060220242E0
9.330969491E0,-3.723232031E0,-8.896514893E0,-2.045863390E0
9.335724699E0,-3.701696634E0,-8.894122124E0,-2.060220242E0
9.340479960E0,-3.661018610E0,-8.886942863E0,-2.062613010E0
9.345235220E0,-3.665804386E0,-8.870193481E0,-2.067398787E0
9.349990428E0,-3.682554007E0,-8.879764557E0,-2.019542217E0
9.354745689E0,-3.649054527E0,-8.886942863E0,-1.998006940E0
9.359500949E0,-3.632304668E0,-8.925228119E0,-1.978864312E0
9.364256158E0,-3.577269793E0,-8.927620888E0,-1.959721804E0
9.369011418E0,-3.548556089E0,-8.915657043E0,-1.966900229E0
9.373766678E0,-3.524627686E0,-8.925228119E0,-1.954936147E0
9.378521887E0,-3.507878065E0,-8.939585686E0,-1.952543259E0
9.383277147E0,-3.488735437E0,-8.918049812E0,-1.969292998E0
9.388032408E0,-3.515056372E0,-8.920442581E0,-1.986042738E0
9.392787616E0,-3.493520975E0,-8.906085968E0,-2.002792597E0
9.397542876E0,-3.519842148E0,-8.915657043E0,-2.014756680E0
9.402298137E0,-3.553341627E0,-8.913264275E0,-2.029113531E0
9.407053345E0,-3.572484255E0,-8.903693199E0,-2.057827473E0
9.411808605E0,-3.605983734E0,-8.949156761E0,-2.065006018E0
9.416563866E0,-3.622733593E0,-8.963513374E0,-2.067398787E0
9.421319074E0,-3.653840065E0,-8.989834785E0,-2.055434704E0
9.426074335E0,-3.651447296E0,-9.018548965E0,-2.033899307E0
9.430829543E0,-3.675375462E0,-9.049654961E0,-2.043470621E0
9.435584803E0,-3.656233072E0,-9.078369141E0,-2.021935225E0
9.440340064E0,-3.649054527E0,-9.087940216E0,-2.021935225E0
9.445095272E0,-3.651447296E0,-9.083154678E0,-1.978864312E0
9.449850533E0,-3.656233072E0,-9.064012527E0,-1.950150490E0
9.454605793E0,-3.646661758E0,-9.054440498E0,-1.931007862E0
9.459361001E0,-3.644268990E0,-9.052047729E0,-1.897508383E0
9.464116262E0,-3.596412420E0,-9.059226990E0,-1.883151412E0
9.468871522E0,-3.605983734E0,-9.061619759E0,-1.897508383E0
9.473626730E0,-3.632304668E0,-9.078369141E0,-1.904686809E0
9.478381991E0,-3.649054527E0,-9.061619759E0,-1.904686809E0
9.483137251E0,-3.644268990E0,-9.054440498E0,-1.909472466E0
9.487892460E0,-3.680161238E0,-9.025727272E0,-1.933400750E0
9.492647720E0,-3.696911097E0,-8.999405861E0,-1.931007862E0
9.497402980E0,-3.699303865E0,-8.992227554E0,-1.942971945E0
9.502158189E0,-3.680161238E0,-8.987442017E0,-1.957328916E0
9.506913449E0,-3.694518089E0,-8.992227554E0,-1.974078655E0
9.511668710E0,-3.680161238E0,-8.968298912E0,-1.983649969E0
9.516423918E0,-3.665804386E0,-8.973084450E0,-1.995614052E0
9.521179178E0,-3.658625841E0,-8.989834785E0,-2.000399828E0
9.525934439E0,-3.661018610E0,-8.992227554E0,-1.947757602E0
9.530689647E0,-3.656233072E0,-9.004191399E0,-1.933400750E0
9.535444908E0,-3.634697676E0,-8.989834785E0,-1.899901152E0
9.540200168E0,-3.598805189E0,-9.013762474E0,-1.887937069E0
9.544955376E0,-3.598805189E0,-9.004191399E0,-1.883151412E0
9.549710637E0,-3.610769272E0,-9.008976936E0,-1.873580098E0
9.554465897E0,-3.589233875E0,-8.985049248E0,-1.866401672E0
9.559221105E0,-3.591626883E0,-8.975478172E0,-1.875972986E0
9.563976366E0,-3.591626883E0,-8.941978455E0,-1.866401672E0
9.568731626E0,-3.601198196E0,-8.953942299E0,-1.868794441E0
9.573486835E0,-3.622733593E0,-8.934800148E0,-1.878365755E0
9.578242095E0,-3.625126362E0,-8.908478737E0,-1.897508383E0
9.582997303E0,-3.639483213E0,-8.891729355E0,-1.897508383E0
9.587752564E0,-3.637090445E0,-8.858229637E0,-1.916650891E0
9.592507824E0,-3.663411379E0,-8.855836868E0,-1.921436548E0
9.597263033E0,-3.665804386E0,-8.843872070E0,-1.942971945E0
9.602018293E0,-3.670589924E0,-8.827122688E0,-1.928615093E0
9.606773553E0,-3.706482172E0,-8.805587769E0,-1.931007862E0
9.611528762E0,-3.720839262E0,-8.805587769E0,-1.928615093E0
9.616284022E0,-3.699303865E0,-8.807980537E0,-1.938186288E0
9.621039283E0,-3.706482172E0,-8.824729919E0,-1.947757602E0
9.625794491E0,-3.704089403E0,-8.843872070E0,-1.945364833E0
9.630549751E0,-3.708875179E0,-8.843872070E0,-1.952543259E0
9.635305012E0,-3.732803345E0,-8.858229637E0,-1.954936147E0
9.640060220E0,-3.747160196E0,-8.846264839E0,-1.998006940E0
9.644815480E0,-3.756731510E0,-8.860622406E0,-2.060220242E0
9.649570741E0,-3.763910055E0,-8.886942863E0,-2.088934183E0
9.654325949E0,-3.761517286E0,-8.872586250E0,-2.115255117E0
9.659081210E0,-3.785445452E0,-8.903693199E0,-2.132004976E0
9.663836470E0,-3.790230989E0,-8.886942863E0,-2.141576290E0
9.668591678E0,-3.780659676E0,-8.884550095E0,-2.153540373E0
9.673346939E0,-3.809373617E0,-8.872586250E0,-2.167897224E0
9.678102147E0,-3.792623997E0,-8.867800713E0,-2.158325911E0
9.682857408E0,-3.783052683E0,-8.843872070E0,-2.124826431E0
