"Time (s)","Acceleration x (m/s^2)","Acceleration y (m/s^2)","Acceleration z (m/s^2)"
6.240895000E-3,1.694118381E0,5.441278458E0,7.747959614E0
1.109001000E-2,1.667797327E0,5.596812248E0,7.860422611E0
1.593969800E-2,1.454836130E0,5.687739372E0,8.374878883E0
2.078928100E-2,1.275374413E0,5.668596745E0,8.748159409E0
2.563886400E-2,1.064806104E0,5.594419479E0,9.312865257E0
3.048844800E-2,8.973084688E-1,5.541777134E0,9.990034103E0
3.533803100E-2,6.747759581E-1,5.498706341E0,1.065763187E1
4.018766600E-2,6.173482537E-1,5.391029358E0,1.122712421E1
4.503725000E-2,6.556333899E-1,5.266602516E0,1.173440266E1
4.988683300E-2,6.029912829E-1,5.123033047E0,1.192104244E1
5.473641600E-2,3.804588020E-1,4.924428940E0,1.177508068E1
5.958605200E-2,-3.828516230E-2,4.776073933E0,1.146640587E1
6.443563500E-2,-3.972085714E-1,4.584648132E0,1.117687416E1
6.928521800E-2,-6.364908218E-1,4.338187218E0,1.104526901E1
7.413480200E-2,-6.891329288E-1,4.082155228E0,1.104048347E1
7.898438500E-2,-5.431707501E-1,3.866801500E0,1.105723381E1
8.383402000E-2,-2.297109663E-1,3.668197155E0,1.106201935E1
8.868360400E-2,1.387837082E-1,3.517449379E0,1.099262714E1
9.353318700E-2,5.168496966E-1,3.361915827E0,1.085145092E1
9.838277000E-2,8.111668825E-1,3.206382275E0,1.063370419E1
1.032323540E-1,1.313659668E0,2.902493954E0,1.003071213E1
1.080819890E-1,1.540977836E0,2.830709219E0,9.784252167E0
1.129315730E-1,1.622333765E0,2.639283419E0,9.523433685E0
1.177811560E-1,1.591227055E0,2.548356056E0,9.260223389E0
1.226307390E-1,1.584048629E0,2.507678032E0,8.918049812E0
1.274803230E-1,1.588834286E0,2.457428932E0,8.618947029E0
1.323299580E-1,1.524227977E0,2.364108801E0,8.154739380E0
1.371795410E-1,1.311266780E0,2.400001049E0,7.968099594E0
1.420291250E-1,9.906286001E-1,2.617748022E0,8.248059273E0
1.468787080E-1,7.704889178E-1,2.423929453E0,8.260024071E0
1.517282910E-1,4.043870270E-1,2.471785784E0,8.583054543E0
1.565779270E-1,1.770688742E-1,2.481357098E0,8.824729919E0
1.614275100E-1,3.589234129E-2,2.648854733E0,9.300901413E0
1.662770930E-1,-3.828516230E-2,2.648854733E0,9.544969559E0
1.711266770E-1,-7.896314561E-2,2.644068956E0,9.719645500E0
1.759762600E-1,-7.657032460E-2,2.744567633E0,9.927821159E0
1.808258950E-1,5.503492057E-2,2.897708178E0,1.023170948E1
1.856754790E-1,2.225325108E-1,2.959921598E0,1.040399265E1
1.905250620E-1,4.785645306E-1,2.969492912E0,1.042552853E1
1.953746450E-1,9.786644578E-1,2.658426046E0,1.023888779E1
2.002242810E-1,1.330409408E0,2.593819857E0,1.010488987E1
2.050738640E-1,1.545763373E0,2.524427891E0,9.834501266E0
2.099234480E-1,1.629512191E0,2.548356056E0,9.485149384E0
2.147730310E-1,1.651047587E0,2.615355253E0,9.095118523E0
2.196226140E-1,1.584048629E0,2.572284460E0,8.784051895E0
2.244721980E-1,1.452443361E0,2.445464849E0,8.630910873E0
2.293218330E-1,1.208375454E0,2.306680918E0,8.707481384E0
2.341714160E-1,1.095912814E0,2.411965132E0,8.551948547E0
2.390210000E-1,9.738788009E-1,2.579462767E0,8.425128937E0
2.438705830E-1,8.374879360E-1,2.758924484E0,8.370093346E0
2.486279790E-1,7.537391186E-1,3.053241730E0,8.425128937E0
2.533825100E-1,8.159525394E-1,3.376272678E0,8.484949112E0
2.581370410E-1,9.260223508E-1,3.661018610E0,8.401200294E0
2.628915730E-1,1.127019525E0,3.864408493E0,8.358129501E0
2.676461560E-1,1.466800332E0,3.852444410E0,8.659625053E0
2.724006870E-1,1.502692580E0,3.799802303E0,8.401200294E0
2.771552180E-1,1.706082582E0,3.675375462E0,8.276773453E0
2.819097500E-1,2.117648125E0,3.364308596E0,8.159524918E0
2.866642810E-1,2.435893536E0,3.048455954E0,8.197810173E0
2.914188640E-1,2.342573404E0,2.792423964E0,8.511270523E0
2.961733950E-1,1.926222205E0,2.490928411E0,8.800801277E0
3.009279270E-1,1.430907965E0,2.282752752E0,9.087940216E0
3.056824580E-1,1.110269666E0,2.038684845E0,9.238688469E0
3.104370410E-1,8.925228715E-1,1.828116536E0,9.281759262E0
3.151915730E-1,7.274180651E-1,1.550549030E0,9.300901413E0
3.199461040E-1,7.010970116E-1,1.411765337E0,9.238688469E0
3.247006350E-1,5.718846321E-1,1.404586911E0,9.152546883E0
3.294552180E-1,3.972085714E-1,1.485942841E0,9.073583603E0
3.342097500E-1,1.866401732E-1,1.710868239E0,9.020941734E0
3.389642810E-1,4.307080805E-2,2.007578135E0,8.970691681E0
3.437188120E-1,-6.699903309E-2,2.263610125E0,8.863015175E0
3.484733430E-1,-1.292124242E-1,2.512463808E0,8.614161491E0
3.532279270E-1,-1.722832322E-1,2.691925526E0,8.336593628E0
3.579824580E-1,-1.316052526E-1,2.849851847E0,8.039883614E0
3.627369890E-1,-1.100698411E-1,2.964707375E0,7.709674358E0
3.674915200E-1,-8.853443712E-2,3.053241730E0,7.374679565E0
3.722461040E-1,-7.896314561E-2,3.089133978E0,7.058826923E0
3.770006350E-1,-1.292124242E-1,3.110669374E0,6.850651264E0
3.817551660E-1,-2.009970993E-1,3.134597778E0,6.802794933E0
3.865096980E-1,-2.392822653E-1,3.117847919E0,6.824330330E0
3.912642290E-1,-2.656033039E-1,3.029313564E0,6.843472958E0
3.960188120E-1,-2.632105052E-1,2.924029350E0,6.857829571E0
4.007733430E-1,-2.632105052E-1,2.813959360E0,6.917650223E0
4.055278750E-1,-3.230310678E-1,2.627319336E0,7.056434155E0
4.102824060E-1,-4.331009090E-1,2.507678032E0,7.250252724E0
4.150369890E-1,-5.790630579E-1,2.385644197E0,7.446464062E0
4.197915200E-1,-7.202396393E-1,2.388036966E0,7.692924976E0
4.245460520E-1,-8.279166222E-1,2.481357098E0,7.946564198E0
4.293005830E-1,-8.590233326E-1,2.591426849E0,8.276773453E0
4.340551660E-1,-8.997012973E-1,2.768495798E0,8.609375954E0
4.388096980E-1,-8.781659007E-1,2.964707375E0,8.841479301E0
4.435642290E-1,-8.733802438E-1,3.079562664E0,9.040083885E0
4.483187600E-1,-1.215553880E0,2.804388046E0,9.154939651E0
4.530732910E-1,-1.280160069E0,2.811566591E0,9.406186104E0
4.578278750E-1,-1.191625714E0,2.916850805E0,9.736394882E0
4.625824060E-1,-1.091127157E0,3.091526747E0,9.980463028E0
4.673369370E-1,-1.026520967E0,3.270988464E0,1.008335495E1
4.720914680E-1,-9.044869542E-1,3.419343472E0,1.019342422E1
4.768460520E-1,-7.202396393E-1,3.529413462E0,1.032263660E1
4.816005830E-1,-6.221339107E-1,3.718446493E0,1.052602673E1
4.863551140E-1,-7.489534616E-1,3.940979004E0,1.069591713E1
4.911096450E-1,-1.040877819E0,4.189832687E0,1.083230782E1
4.958642290E-1,-1.495514154E0,4.426722050E0,1.087059307E1
5.006187600E-1,-1.794616938E0,4.613361835E0,1.090648556E1
5.053732910E-1,-1.828116536E0,4.826323509E0,1.088495064E1
5.101278230E-1,-1.765903115E0,5.051248550E0,1.092084217E1
5.148823540E-1,-1.473978758E0,5.331208706E0,1.081077290E1
5.196369370E-1,-1.115055323E0,5.297709465E0,1.055474091E1
5.243914680E-1,2.488535494E-1,4.347758770E0,1.023170948E1
5.291460000E-1,1.344766378E0,3.366701365E0,9.906285286E0
5.339005830E-1,1.442872047E0,3.022135019E0,9.700503349E0
5.386551140E-1,7.034898400E-1,3.146561861E0,9.640682220E0
5.434096450E-1,9.571290575E-3,3.249453068E0,9.769894600E0
5.481641770E-1,-2.225325108E-1,3.201596737E0,9.930213928E0
5.529187080E-1,-1.722832322E-1,3.043670416E0,1.015992451E1
5.576732910E-1,-1.124626622E-1,2.885744095E0,1.049252701E1
5.624278230E-1,-1.363908947E-1,2.823530674E0,1.080598736E1
5.671823540E-1,-1.962114573E-1,2.837887764E0,1.107159042E1
5.719369370E-1,-1.651047617E-1,2.890529871E0,1.129890823E1
5.766914680E-1,0.000000000E0,2.928814888E0,1.139701462E1
5.814460000E-1,2.297109663E-1,3.036491871E0,1.149033451E1
5.862005310E-1,3.996013701E-1,3.136990547E0,1.150229836E1
5.909551140E-1,6.077769399E-1,3.235096216E0,1.136351490E1
5.957096450E-1,7.633104324E-1,3.309273720E0,1.115773201E1
6.004641770E-1,8.614161611E-1,3.333201885E0,1.092323494E1
6.052187080E-1,1.581655741E0,3.026920557E0,1.043749237E1
6.099732910E-1,1.555334687E0,3.134597778E0,9.956535339E0
6.147278230E-1,1.299302697E0,3.354737282E0,9.561718941E0
6.194823540E-1,1.081555843E0,3.517449379E0,9.188439369E0
6.242368850E-1,7.872386575E-1,3.653840065E0,8.982656479E0
6.289914680E-1,8.374879360E-1,3.558127165E0,8.836693764E0
6.337460000E-1,1.153340459E0,3.318845034E0,8.757730484E0
6.385005310E-1,1.268195987E0,3.132204771E0,8.920442581E0
6.432550620E-1,1.191625714E0,3.084348440E0,9.212367058E0
6.480096450E-1,1.229910851E0,3.014956474E0,9.559326172E0
6.527641770E-1,1.325623751E0,2.907279491E0,9.930213928E0
6.575187080E-1,1.562513232E0,2.727817774E0,1.026281643E1
6.622732910E-1,1.775474429E0,2.648854733E0,1.066959572E1
6.670278230E-1,1.926222205E0,2.632104874E0,1.134197903E1
6.717823540E-1,1.928615093E0,2.474178553E0,1.180140114E1
6.765368850E-1,2.282752752E0,2.038684845E0,1.199043465E1
6.812914160E-1,2.213361025E0,1.935793519E0,1.214357471E1
6.860460000E-1,1.954936147E0,1.909472466E0,1.228953743E1
6.908005310E-1,1.758724689E0,1.885544300E0,1.232064342E1
6.955550620E-1,1.579262972E0,1.866401672E0,1.218903828E1
7.003095930E-1,1.179661512E0,1.519442320E0,1.194257736E1
7.050641770E-1,8.709874153E-1,1.067198873E0,1.175593758E1
7.098187080E-1,9.906286001E-1,1.265803218E0,1.175115204E1
7.145732390E-1,1.074377418E0,1.756331801E0,1.173200989E1
7.193277700E-1,1.138983607E0,2.175075769E0,1.175593758E1
7.240823540E-1,1.225125194E0,2.438286304E0,1.152622700E1
7.288368850E-1,1.349551916E0,2.445464849E0,1.110030460E1
7.335914160E-1,1.457229018E0,2.519642353E0,1.053559780E1
7.383460000E-1,1.507478237E0,2.749353170E0,1.010728264E1
7.431005310E-1,1.500299811E0,2.998206854E0,9.669396400E0
7.478550620E-1,1.619940877E0,3.146561861E0,9.198010445E0
7.526095930E-1,1.691725612E0,3.242274761E0,8.702695847E0
7.573641770E-1,1.591227055E0,3.342773199E0,8.391629219E0
7.621187080E-1,1.450050473E0,3.378665686E0,8.303094864E0
7.668732390E-1,1.763510346E0,3.127419233E0,8.202595711E0
7.716277700E-1,2.072184324E0,2.840280533E0,8.372486115E0
7.763823540E-1,2.060220242E0,2.720639229E0,8.695517540E0
7.811368850E-1,1.928615093E0,2.744567633E0,9.174081802E0
7.858914160E-1,1.916650891E0,2.658426046E0,9.585647583E0
7.906460000E-1,2.127219439E0,2.313859463E0,9.693324089E0
7.954005310E-1,2.955136061E0,1.478764415E0,9.494720459E0
8.001550620E-1,2.603390932E0,1.531406522E0,9.463613510E0
8.049095930E-1,2.048256159E0,1.820937991E0,9.434899330E0
8.096641770E-1,1.698904037E0,2.158325911E0,9.298508644E0
8.144187080E-1,1.545763373E0,2.419143677E0,9.052047729E0
8.191732390E-1,1.533799291E0,2.581855536E0,8.848658562E0
8.239277700E-1,1.584048629E0,2.620140791E0,8.695517540E0
8.286823540E-1,1.665404558E0,2.624926329E0,8.513663292E0
8.334368850E-1,1.634297848E0,2.648854733E0,8.394021988E0
8.381914160E-1,1.641476393E0,2.701496840E0,8.269595146E0
8.429459480E-1,1.598405480E0,2.739781857E0,8.248059273E0
8.477005310E-1,1.488335729E0,2.871387243E0,8.264809608E0
8.524550620E-1,1.263410330E0,3.072384357E0,8.386843681E0
8.572095930E-1,1.052842021E0,3.304488182E0,8.499305725E0
8.619641250E-1,1.083948612E0,3.431307554E0,8.585447311E0
8.667187080E-1,1.249053478E0,3.433700562E0,8.673981667E0
8.714732390E-1,1.521835208E0,3.354737282E0,8.695517540E0
8.762277700E-1,1.758724689E0,3.326023579E0,8.707481384E0
8.809823540E-1,1.962114573E0,3.256631613E0,8.817551613E0
8.857368850E-1,2.041077614E0,3.172882795E0,8.970691681E0
8.904914160E-1,2.232503414E0,2.993421078E0,8.961120605E0
8.952459480E-1,2.306680918E0,2.864208698E0,8.968298912E0
9.000005310E-1,2.455035925E0,2.684746981E0,8.810373306E0
9.047550620E-1,2.112862349E0,2.780459881E0,8.836693764E0
9.095095930E-1,1.969292998E0,2.809173822E0,8.743373871E0
9.142641770E-1,2.041077614E0,2.900100946E0,8.685946465E0
9.190187080E-1,2.225325108E0,3.096312523E0,8.429914474E0
9.237732390E-1,2.014756680E0,3.206382275E0,8.276773453E0
9.285277700E-1,1.797009826E0,3.328416348E0,8.013563156E0
9.332823540E-1,1.770688772E0,3.486342669E0,7.755138397E0
9.380368850E-1,1.607976794E0,3.572484255E0,7.456035137E0
9.427914160E-1,1.287338614E0,3.704089403E0,7.233502865E0
9.475460000E-1,1.239482164E0,3.694518089E0,7.013363361E0
9.523005310E-1,1.246660590E0,3.622733593E0,6.884150982E0
9.570550620E-1,1.172483087E0,3.598805189E0,6.898507595E0
9.618095930E-1,1.155733347E0,3.538984776E0,6.876972198E0
9.665641770E-1,1.079162955E0,3.603590965E0,6.936792850E0
9.713187080E-1,1.004985452E0,3.718446493E0,6.955935478E0
9.760732390E-1,9.571290612E-1,3.864408493E0,7.030112743E0
9.808277700E-1,1.158126116E0,3.931407690E0,7.156932354E0
9.855823540E-1,1.378265858E0,3.857230186E0,7.391428947E0
9.903368850E-1,1.576870084E0,3.773481369E0,7.609176159E0
9.950914160E-1,1.698904037E0,3.732803345E0,7.838887215E0
9.998460000E-1,1.820937991E0,3.677768469E0,8.018348694E0
1.004600531E0,1.856830359E0,3.639483213E0,8.123632431E0
1.009355062E0,1.316052437E0,3.165704250E0,8.073383331E0
1.014109593E0,1.383051515E0,3.335594654E0,8.092526436E0
1.018864177E0,1.775474429E0,3.637090445E0,8.102097511E0
1.023618708E0,1.974078655E0,4.000799656E0,8.169096947E0
1.028373239E0,2.029113531E0,4.208974838E0,8.209774017E0
1.033127823E0,1.986042738E0,4.249652863E0,8.295916557E0
1.037882354E0,2.096112728E0,4.211368084E0,8.310273170E0
1.042636885E0,2.213361025E0,4.122833252E0,8.257631302E0
1.047391416E0,2.246860504E0,4.048655987E0,8.109275818E0
1.052146000E0,2.227717876E0,4.027120590E0,7.982456207E0
1.056900531E0,2.172683001E0,4.031906128E0,7.893921852E0
1.061655062E0,2.108076811E0,4.034298897E0,7.836493969E0
1.066409645E0,2.043470621E0,3.998406649E0,7.702496052E0
1.071164177E0,2.062613010E0,3.931407690E0,7.513463020E0
1.075918708E0,2.084148407E0,3.907479286E0,7.405786037E0
1.080673239E0,2.158325911E0,3.847658873E0,7.133004189E0
1.085427823E0,2.529213428E0,3.835694790E0,6.939185619E0
1.090182354E0,2.711068153E0,3.823730469E0,6.807580471E0
1.094936885E0,2.818745136E0,3.809373617E0,6.783652306E0
1.099691468E0,2.916850805E0,3.835694790E0,6.833901405E0
1.104446000E0,3.005385160E0,3.876372576E0,6.958328247E0
1.109200531E0,3.038884640E0,3.840480328E0,7.058826923E0
1.113955114E0,3.218346357E0,3.725624800E0,7.219145775E0
1.118709645E0,3.404986620E0,3.672982693E0,7.331608772E0
1.123464177E0,3.881158352E0,3.330809116E0,7.185646534E0
1.128218708E0,4.012763500E0,3.192025423E0,7.338787079E0
1.132973291E0,4.137190342E0,3.069991350E0,7.515855789E0
1.137727823E0,4.249652863E0,2.998206854E0,7.747959614E0
1.142482354E0,4.297509670E0,2.964707375E0,7.951349735E0
1.147236885E0,4.378865242E0,2.916850805E0,8.166703224E0
1.151991468E0,4.486542225E0,2.880958557E0,8.327022552E0
1.156746000E0,4.546362877E0,2.866601467E0,8.353343964E0
1.161500531E0,4.584648132E0,2.830709219E0,8.288737297E0
1.166255114E0,4.534399033E0,2.785245657E0,8.130811691E0
1.171009645E0,4.488935471E0,2.775674343E0,7.910671711E0
1.175764177E0,4.412364960E0,2.758924484E0,7.726424217E0
1.180518760E0,4.371686935E0,2.773281336E0,7.523034573E0
1.185273291E0,4.350151539E0,2.790031195E0,7.348358154E0
1.190027823E0,4.304687977E0,2.806781054E0,7.197610378E0
1.194782406E0,4.275974274E0,2.902493954E0,7.037291527E0
1.199536937E0,4.232903481E0,2.971885681E0,6.929614544E0
1.204291468E0,4.163511276E0,3.034099102E0,6.884150982E0
1.209046000E0,4.065405846E0,3.120240688E0,6.915257454E0
1.213800583E0,3.969692707E0,3.215953588E0,7.001399040E0
1.218555114E0,3.866801500E0,3.311666489E0,7.085147858E0
1.223309645E0,3.787838221E0,3.445664644E0,7.176074982E0
1.228064229E0,3.787838221E0,3.555734396E0,7.314858913E0
1.232818760E0,3.852444410E0,3.646661758E0,7.479963779E0
1.237573291E0,3.967299938E0,3.809373617E0,7.635497093E0
1.242327823E0,4.120440483E0,3.926621914E0,7.759923935E0
1.247082406E0,4.271188259E0,4.067798615E0,7.838887215E0
1.251836937E0,4.457828522E0,4.211368084E0,7.788637638E0
1.256591468E0,4.563112736E0,4.390829563E0,7.690532207E0
1.261346052E0,4.570291042E0,4.517649174E0,7.592426300E0
1.266100583E0,4.476971149E0,4.627718925E0,7.494320393E0
1.270855114E0,4.311866283E0,4.709074974E0,7.451249599E0
1.275609698E0,4.153940201E0,4.790431023E0,7.487142086E0
1.280364229E0,4.027120590E0,4.809573650E0,7.558926582E0
1.285118760E0,3.940979004E0,4.833501816E0,7.714460373E0
1.289873291E0,3.771088600E0,4.737788677E0,7.936992645E0
1.294627875E0,3.558127165E0,4.792823792E0,8.300702095E0
1.299382406E0,3.275774240E0,4.754538536E0,8.669196129E0
1.304136937E0,3.132204771E0,4.871787071E0,9.126225471E0
1.308891520E0,2.921636343E0,4.902893543E0,9.427721024E0
1.313646052E0,2.873780012E0,4.859822750E0,9.798608780E0
1.318400583E0,2.945564747E0,4.785645485E0,1.009531879E1
1.323155166E0,2.964707375E0,4.649254322E0,1.025563812E1
1.327909698E0,3.665804386E0,4.331008911E0,9.973284721E0
1.332664229E0,4.467400074E0,3.838087559E0,9.324830055E0
1.337418812E0,5.010570526E0,3.462414265E0,8.626125336E0
1.342173343E0,5.469992638E0,3.306880951E0,8.042277336E0
1.346927875E0,6.025127411E0,3.263810158E0,7.479963779E0
1.351682406E0,6.587440968E0,3.311666489E0,6.975078106E0
1.356436989E0,7.123433113E0,3.342773199E0,6.565905571E0
1.361191520E0,7.542177200E0,3.337987661E0,6.233303070E0
1.365946052E0,7.879564762E0,3.359523058E0,6.008377552E0
1.370700635E0,8.169096947E0,3.376272678E0,5.871986866E0
1.375455166E0,8.458627701E0,3.383451223E0,5.819344521E0
1.380209698E0,8.647661209E0,3.340380430E0,5.790630817E0
1.384964281E0,8.662017822E0,3.225524902E0,5.730810165E0
1.389718812E0,8.645268440E0,3.113062143E0,5.661418438E0
1.394473343E0,8.520841599E0,3.117847919E0,5.532206059E0
1.399227927E0,8.642875671E0,2.907279491E0,5.340780258E0
1.403982458E0,8.389236450E0,3.036491871E0,5.216353416E0
1.408736989E0,7.879564762E0,3.424129248E0,5.149354458E0
1.413491573E0,7.530212879E0,3.646661758E0,4.965106964E0
1.418246104E0,7.247859955E0,3.876372576E0,4.608576298E0
1.423000635E0,7.168896675E0,4.022335052E0,4.153940201E0
1.427755166E0,7.058826923E0,4.206582069E0,3.694518089E0
1.432509750E0,7.166503906E0,4.295116425E0,3.208775282E0
1.437264281E0,7.319644451E0,4.424329281E0,2.785245657E0
1.442018812E0,7.752745152E0,4.347758770E0,2.416750908E0
1.446773395E0,8.200202942E0,4.412364960E0,2.170290232E0
1.451527927E0,8.729017258E0,4.532006264E0,1.959721804E0
1.456282458E0,9.147761345E0,4.701896667E0,1.883151412E0
1.461037041E0,9.360722542E0,4.843072891E0,1.837687731E0
1.465791573E0,9.473184586E0,5.101497650E0,1.813759565E0
1.470546104E0,9.705288887E0,5.101497650E0,1.878365755E0
1.475300635E0,1.000917721E1,5.010570526E0,2.036292076E0
1.480055218E0,1.006181908E1,4.761716843E0,2.275574446E0
1.484809750E0,9.934999466E0,4.546362877E0,2.727817774E0
1.489564281E0,9.690931320E0,4.374079704E0,3.232703447E0
1.494318864E0,9.444471359E0,4.247260094E0,3.692125320E0
1.499073395E0,9.097511292E0,4.170690060E0,4.106083870E0
1.503827927E0,8.714659691E0,4.086941242E0,4.517649174E0
1.508582510E0,8.336593628E0,3.974478483E0,4.845465660E0
1.513337041E0,7.975277901E0,3.907479286E0,5.108676434E0
1.518091573E0,7.668996811E0,3.895515203E0,5.280959606E0
1.522846156E0,7.489534855E0,3.921836376E0,5.364708424E0
1.527600687E0,7.444071293E0,3.962514400E0,5.350351334E0
1.532355218E0,7.518248558E0,4.060619831E0,5.249852657E0
1.537109802E0,7.590033531E0,4.151547432E0,5.044070244E0
1.541864333E0,7.704888821E0,4.232903481E0,4.795216560E0
1.546618864E0,7.881958008E0,4.283152580E0,4.510470867E0
1.551373448E0,8.130811691E0,4.280759811E0,4.242474556E0
1.556127979E0,8.398807526E0,4.235296249E0,4.019941807E0
1.560882510E0,8.599804878E0,4.170690060E0,3.818944931E0
1.565637093E0,8.729017258E0,4.146761417E0,3.696911097E0
1.570391625E0,8.736195564E0,4.120440483E0,3.677768469E0
1.575146156E0,8.678768158E0,4.067798615E0,3.682554007E0
1.579900687E0,8.568697929E0,3.998406649E0,3.644268990E0
1.584655270E0,8.408378601E0,3.931407690E0,3.586841106E0
1.589409802E0,8.255238533E0,3.885943890E0,3.598805189E0
1.594164333E0,8.147561073E0,3.838087559E0,3.617947817E0
1.598918916E0,8.032705307E0,3.797409534E0,3.653840065E0
1.603673448E0,7.843672752E0,3.792623997E0,3.730410576E0
1.608427979E0,7.587640762E0,3.773481369E0,3.950550079E0
1.613182562E0,7.302894592E0,3.756731510E0,4.242474556E0
1.617937093E0,7.104290485E0,3.694518089E0,4.486542225E0
1.622691625E0,6.946363926E0,3.677768469E0,4.512863636E0
1.627446208E0,6.802794933E0,3.687339783E0,4.460221291E0
1.632200739E0,6.714260101E0,3.771088600E0,4.304687977E0
1.636955270E0,7.010970116E0,3.670589924E0,4.060619831E0
1.641709802E0,7.154539585E0,3.768695593E0,3.620340586E0
1.646464385E0,7.264609337E0,3.991228104E0,3.103491068E0
1.651218916E0,7.405786037E0,4.189832687E0,2.581855536E0
1.655973500E0,7.587640762E0,4.342973232E0,2.136790514E0
1.660728031E0,7.893921852E0,4.441078663E0,1.710868239E0
1.665482562E0,8.204988480E0,4.558327198E0,1.282552958E0
1.670237093E0,8.525627136E0,4.642076015E0,9.571290612E-1
1.674991677E0,8.819944382E0,4.632504463E0,7.058826685E-1
1.679746208E0,9.080761909E0,4.572684288E0,5.934200287E-1
1.684500739E0,9.303294182E0,4.498506546E0,5.000999570E-1
1.689255323E0,9.430113792E0,4.426722050E0,5.120640397E-1
1.694009854E0,9.343972206E0,4.448257446E0,7.034898400E-1
1.698764385E0,8.886942863E0,4.491328239E0,1.258624673E0
1.703518968E0,8.401200294E0,4.529613495E0,1.940579176E0
1.708273500E0,8.154739380E0,4.515256405E0,2.450250387E0
1.713028031E0,8.106883049E0,4.491328239E0,2.924029350E0
1.717782614E0,8.137989998E0,4.453042984E0,3.378665686E0
1.722537145E0,8.413164139E0,4.331008911E0,3.730410576E0
1.727291677E0,8.525627136E0,4.467400074E0,3.948157310E0
1.732046260E0,8.599804878E0,4.668396950E0,3.996013880E0
1.736800791E0,8.606983185E0,4.785645485E0,3.854837179E0
1.741555323E0,8.561519623E0,4.955535889E0,3.601198196E0
1.746309906E0,8.609375954E0,5.111069202E0,3.235096216E0
1.751064437E0,8.829515457E0,5.237888813E0,2.742174864E0
1.755818968E0,9.181260109E0,5.312066078E0,2.227717876E0
1.760573552E0,9.561718941E0,5.402993679E0,1.761117458E0
1.765328083E0,9.949356079E0,5.443671703E0,1.337587833E0
1.770082614E0,1.026281643E1,5.431707382E0,9.595218897E-1
1.774837145E0,1.053799057E1,5.350351334E0,6.317051649E-1
1.779591729E0,1.073659515E1,5.328815937E0,3.948157430E-1
1.784346260E0,1.063131142E1,5.458028316E0,2.656033039E-1
1.789100791E0,1.034177971E1,5.515456200E0,3.373879790E-1
1.793855375E0,1.001635551E1,5.453242779E0,5.240281820E-1
1.798609906E0,9.834501266E0,5.297709465E0,7.513462901E-1
1.803364437E0,9.875179291E0,5.146961689E0,9.858429432E-1
1.808119020E0,1.008096218E1,5.044070244E0,1.282552958E0
1.812873552E0,1.037288570E1,5.012963295E0,1.596012712E0
1.817628083E0,1.068395329E1,4.938786030E0,1.897508383E0
1.822382666E0,1.088016415E1,4.910071850E0,2.158325911E0
1.827137198E0,1.101416302E1,4.910071850E0,2.266003132E0
1.831891729E0,1.102134132E1,4.929214478E0,2.187039852E0
1.836646312E0,1.091844940E1,4.979464054E0,2.041077614E0
1.841400843E0,1.070548820E1,5.027320385E0,1.799402595E0
1.846155375E0,1.047099209E1,5.015356064E0,1.545763373E0
1.850909958E0,1.033938694E1,4.996213913E0,1.289731383E0
1.855664489E0,1.039681435E1,4.977071285E0,1.033699393E0
1.860419020E0,1.054995537E1,4.941178799E0,8.135597110E-1
1.865173552E0,1.082752228E1,4.919643402E0,6.364908218E-1
1.869928135E0,1.112183952E1,4.881358147E0,4.953143001E-1
1.874682666E0,1.143769264E1,4.888536453E0,3.517449200E-1
1.879437250E0,1.163868904E1,4.780859470E0,2.129612118E-1
1.884191781E0,1.176072311E1,4.723432064E0,1.339980662E-1
1.888946312E0,1.169611740E1,4.682754040E0,1.507478207E-1
1.893700895E0,1.154297638E1,4.694717884E0,2.656033039E-1
1.898455427E0,1.137547874E1,4.692325115E0,4.689932466E-1
1.903209958E0,1.122712421E1,4.603790760E0,6.795616150E-1
1.907964489E0,1.113619614E1,4.479363918E0,8.638089895E-1
1.912719073E0,1.109073257E1,4.335794449E0,9.978070259E-1
1.917473604E0,1.110030460E1,4.192225456E0,1.026520967E0
1.922228135E0,1.113858986E1,4.034298897E0,9.786644578E-1
1.926982718E0,1.110030460E1,3.869194269E0,9.044869542E-1
1.931737250E0,1.100698376E1,3.780659676E0,7.848458290E-1
1.936491781E0,1.064806080E1,3.871587038E0,7.082754970E-1
1.941246364E0,1.056670475E1,3.816552162E0,7.178468108E-1
1.946000895E0,1.068156052E1,3.708875179E0,4.498506486E-1
1.950755427E0,1.085623646E1,3.603590965E0,2.129612118E-1
1.955510010E0,1.104048347E1,3.596412420E0,-4.546362907E-2
1.960264541E0,1.126301575E1,3.701696634E0,-3.230310678E-1
1.965019073E0,1.168654537E1,3.759124279E0,-5.694918036E-1
1.969773656E0,1.186361504E1,3.893122435E0,-6.771687865E-1
1.974528187E0,1.214596748E1,3.878765583E0,-7.609176040E-1
1.979282718E0,1.220818138E1,3.883551121E0,-7.896314859E-1
1.984037302E0,1.211725426E1,3.866801500E0,-7.513462901E-1
1.988791833E0,1.197129154E1,3.785445452E0,-7.417750359E-1
1.993546364E0,1.177508068E1,3.653840065E0,-6.436693072E-1
1.998300948E0,1.148794174E1,3.471985579E0,-4.857429862E-1
2.003055479E0,1.114576817E1,3.251846075E0,-3.038884699E-1
2.007810010E0,1.081316566E1,3.036491871E0,-9.571290761E-2
2.012564593E0,1.051645565E1,2.811566591E0,1.914258152E-1
2.017319125E0,1.022692394E1,2.620140791E0,4.594219327E-1
2.022073656E0,9.978070259E0,2.392822742E0,7.896314859E-1
2.026828239E0,9.676574707E0,2.175075769E0,1.071984529E0
2.031582770E0,9.370293617E0,1.916650891E0,1.361516118E0
2.036337302E0,9.085547447E0,1.665404558E0,1.629512191E0
2.041091885E0,8.836693764E0,1.450050473E0,1.830509305E0
2.045846416E0,8.604590416E0,1.261017561E0,2.002792597E0
2.050600948E0,8.405985832E0,1.091127157E0,2.165504456E0
2.055355531E0,8.248059273E0,9.571290612E-1,2.266003132E0
2.060110062E0,8.147561073E0,8.494520187E-1,2.371287346E0
2.064864593E0,8.059026718E0,7.872386575E-1,2.467000246E0
2.069619177E0,7.989634991E0,7.154539824E-1,2.500499725E0
2.074373708E0,7.896314621E0,6.029912829E-1,2.414358139E0
2.079128239E0,7.867600918E0,5.862415433E-1,2.256431818E0
2.083882823E0,7.872386456E0,5.838487148E-1,2.017149448E0
2.088637354E0,7.915457249E0,6.125625968E-1,1.739582062E0
2.093391885E0,7.953742504E0,6.436693072E-1,1.416550994E0
2.098146416E0,8.032705307E0,6.532405615E-1,1.100698471E0
2.102901000E0,8.123632431E0,6.771687865E-1,7.465606928E-1
2.107655531E0,8.188239098E0,7.202396393E-1,3.996013701E-1
2.112410062E0,8.214560509E0,7.609176040E-1,1.674975827E-2
2.117164645E0,8.219346046E0,8.422735929E-1,-3.326023519E-1
2.121919177E0,8.092526436E0,8.805587292E-1,-6.604190469E-1
2.126673708E0,7.925028801E0,9.068797827E-1,-9.954141974E-1
2.131428291E0,7.678567886E0,9.571290612E-1,-1.296909928E0
2.136182823E0,7.491927624E0,1.055234790E0,-1.555334687E0
2.140937354E0,7.470392227E0,1.375872970E0,-1.655833244E0
2.145691937E0,7.458428383E0,1.404586911E0,-1.694118381E0
2.150446468E0,7.544569969E0,1.268195987E0,-1.852044702E0
2.155201000E0,7.467999458E0,1.134197950E0,-2.017149448E0
2.159955583E0,7.494320393E0,1.170090318E0,-2.187039852E0
2.164710114E0,7.484749317E0,1.311266780E0,-2.323430777E0
2.169464645E0,7.451249599E0,1.500299811E0,-2.242074728E0
2.174219229E0,7.534998417E0,1.639083505E0,-1.998006940E0
2.178973760E0,7.752745152E0,1.696511269E0,-1.761117458E0
2.183728291E0,7.920242786E0,1.801795483E0,-1.581655741E0
2.188482875E0,7.999206066E0,1.887937069E0,-1.423729420E0
2.193237406E0,7.984848976E0,1.962114573E0,-1.272981644E0
2.197991937E0,7.922635555E0,1.931007862E0,-1.134197950E0
2.202746520E0,7.853243828E0,1.899901152E0,-9.523434043E-1
2.207501052E0,7.762316704E0,1.825723648E0,-7.489534616E-1
2.212255583E0,7.628318787E0,1.799402595E0,-5.718846321E-1
2.217010166E0,7.503891945E0,1.775474429E0,-3.756731451E-1
2.221764698E0,7.377072334E0,1.773081541E0,-2.177468538E-1
2.226519229E0,7.314858913E0,1.741974831E0,-5.503492057E-2
2.231273812E0,7.264609337E0,1.725225091E0,7.657032460E-2
2.236028343E0,7.250252724E0,1.667797327E0,1.722832322E-1
2.240782875E0,7.216753006E0,1.634297848E0,2.225325108E-1
2.245537458E0,7.200003147E0,1.576870084E0,2.823530734E-1
2.250291989E0,7.185646534E0,1.550549030E0,3.493520916E-1
2.255046520E0,7.161718369E0,1.560120344E0,3.230310678E-1
2.259801104E0,7.207181931E0,1.543370605E0,2.225325108E-1
2.264555635E0,7.278966427E0,1.598405480E0,3.110669367E-2
2.269310166E0,7.420143127E0,1.634297848E0,-1.818545163E-1
2.274064750E0,7.594819069E0,1.698904037E0,-4.283152521E-1
2.278819281E0,7.733603001E0,1.789831281E0,-6.436693072E-1
2.283573812E0,7.855636597E0,1.904686809E0,-8.207381964E-1
2.288328395E0,7.889136314E0,1.983649969E0,-9.523434043E-1
2.293082927E0,7.848458290E0,2.012363911E0,-1.088734269E0
2.297837458E0,7.855636597E0,2.065006018E0,-1.234696507E0
2.302591989E0,7.908278942E0,2.120040894E0,-1.332802176E0
2.307346573E0,7.905886173E0,2.196611166E0,-1.392622828E0
2.312101104E0,7.898707390E0,2.258824587E0,-1.500299811E0
2.316855687E0,7.829315662E0,2.299502611E0,-1.605584025E0
2.321610218E0,7.735995770E0,2.316252232E0,-1.677368641E0
2.326364750E0,7.695317745E0,2.349751949E0,-1.682154298E0
2.331119281E0,7.666603565E0,2.383251429E0,-1.593619823E0
2.335873864E0,7.633104324E0,2.416750908E0,-1.452443361E0
2.340628395E0,7.506284714E0,2.421536446E0,-1.270588875E0
2.345382979E0,7.491927624E0,2.392822742E0,-1.127019525E0
2.350137510E0,7.640282631E0,2.371287346E0,-1.000199914E0
2.354892041E0,7.838887215E0,2.433500528E0,-8.063812256E-1
2.359646625E0,7.944170952E0,2.481357098E0,-6.005984545E-1
2.364401156E0,7.929814339E0,2.464607239E0,-4.331009090E-1
2.369155687E0,7.874779224E0,2.431107759E0,-3.182454109E-1
2.373910218E0,7.793423176E0,2.340180635E0,-2.560320199E-1
2.378664802E0,7.805387497E0,2.285145521E0,-2.464607358E-1
2.383419333E0,7.893921852E0,2.222932339E0,-2.703889608E-1
2.388173864E0,8.023134232E0,2.208575249E0,-2.919243574E-1
2.392928448E0,8.291130066E0,2.187039852E0,-3.373879790E-1
2.397682979E0,8.896514893E0,2.210968018E0,-4.426721931E-1
2.402437562E0,9.698110580E0,2.344966173E0,-5.575276613E-1
2.407192093E0,1.046620655E1,2.579462767E0,-5.168496966E-1
2.411946625E0,1.109312534E1,2.725425005E0,-4.139583111E-1
2.416701156E0,1.149033451E1,2.780459881E0,-3.421736360E-1
2.421455739E0,1.170568848E1,2.801995277E0,-3.086741269E-1
2.426210270E0,1.180618668E1,2.801995277E0,-3.038884699E-1
2.430964802E0,1.186361504E1,2.792423964E0,-2.009970993E-1
2.435719385E0,1.181336498E1,2.749353170E0,-4.307080805E-2
2.440473916E0,1.166501045E1,2.629712105E0,2.033899277E-1
2.445228448E0,1.149990559E1,2.481357098E0,4.450650215E-1
2.449983031E0,1.140419292E1,2.318645239E0,6.747759581E-1
2.454737562E0,1.136351490E1,2.234896421E0,9.212366939E-1
2.459492093E0,1.141854954E1,2.210968018E0,1.225125194E0
2.464246677E0,1.170568848E1,2.194218397E0,1.411765337E0
2.469001208E0,1.222971630E1,2.244467735E0,1.552941918E0
2.473755791E0,1.294756317E1,2.347358942E0,1.753939033E0
2.478510323E0,1.359123230E1,2.495713949E0,1.959721804E0
2.483264854E0,1.409133244E1,2.610569477E0,2.112862349E0
2.488019385E0,1.454596901E1,2.658426046E0,2.172683001E0
2.492773968E0,1.512981796E1,2.766103029E0,2.194218397E0
2.497528500E0,1.580459309E1,3.007778168E0,2.160718918E0
2.502283083E0,1.631904984E1,3.244667530E0,2.115255117E0
2.507037614E0,1.654876137E1,3.297309637E0,1.935793519E0
2.511792145E0,1.655594063E1,3.206382275E0,1.596012712E0
2.516546677E0,1.638604927E1,3.007778168E0,1.162911773E0
2.521301260E0,1.608934021E1,2.749353170E0,6.556333899E-1
2.526055791E0,1.515374565E1,2.718246460E0,3.804588020E-1
2.530810323E0,1.515135288E1,2.153540373E0,-2.512463629E-1
2.535564906E0,1.468953800E1,1.773081541E0,-6.412764788E-1
2.540319437E0,1.382094383E1,1.701296926E0,-5.455635786E-1
2.545074020E0,1.340698528E1,1.720439434E0,-5.694918036E-1
2.549828552E0,1.347398472E1,1.581655741E0,-2.158325911E0
2.554583083E0,1.315813160E1,1.603191137E0,-3.108276606E0
2.559337666E0,1.275135231E1,1.665404558E0,-3.629911900E0
2.564092198E0,1.252403355E1,1.725225091E0,-3.567698479E0
2.568846729E0,1.334955788E1,1.129412293E0,-4.177868366E0
2.573601312E0,1.283031464E1,1.258624673E0,-3.589233875E0
2.578355843E0,1.201196957E1,1.397408366E0,-3.019742250E0
2.583110375E0,1.170090294E1,1.146162033E0,-2.971885681E0
2.587864958E0,1.213878918E1,8.614161611E-1,-3.756731510E0
2.592619489E0,1.202871990E1,1.378265858E0,-4.453042984E0
2.597374020E0,1.148554897E1,1.663011789E0,-3.706482172E0
2.602128604E0,1.067438221E1,8.350951076E-1,-1.524227977E0
2.606883135E0,1.046381378E1,-5.000999570E-1,3.373879790E-1
2.611637666E0,1.017428207E1,-2.703889608E0,6.005984545E-1
2.616392250E0,8.702695847E0,-6.348158360E0,-1.634297848E0
2.621146781E0,5.539384365E0,-1.056670475E1,-5.434100151E0
2.625901312E0,6.132804394E0,-9.181260109E0,-4.421936035E0
2.630655895E0,1.200239849E1,-7.178467751E0,9.308079720E0
2.635410427E0,1.359362507E1,-9.238688469E0,1.080120182E1
2.640164958E0,1.042792130E1,-8.963513374E0,4.790431023E0
2.644919541E0,1.063131142E1,-8.604590416E0,3.577269793E0
2.649674073E0,1.093519974E1,-7.312466145E0,3.381058455E0
2.654428604E0,1.061216831E1,-6.257231236E0,3.933800459E0
2.659183187E0,9.083154678E0,-4.316651821E0,3.462414265E0
2.663937718E0,8.030312538E0,-2.000399828E0,2.751745939E0
2.668692302E0,6.975078106E0,-2.679961324E-1,2.830709219E0
2.673446833E0,6.166304111E0,4.235295951E-1,2.945564747E0
2.678201364E0,6.278766632E0,5.407779217E-1,2.311466694E0
2.682955948E0,6.941578388E0,2.201396823E-1,2.096112728E0
2.687710479E0,5.711667538E0,8.398807645E-1,1.710868239E0
2.692465010E0,5.032105923E0,1.686939955E0,2.041077614E0
2.697219593E0,6.723831654E0,6.293123364E-1,1.737189293E0
2.701974125E0,8.355736732E0,-9.595218897E-1,1.746760488E0
2.706728656E0,9.399007797E0,-1.619940877E0,1.749153376E0
2.711483239E0,1.026520920E1,-1.196411371E0,1.933400750E0
2.716237770E0,1.076052380E1,-6.628118753E-1,2.694318295E0
2.720992302E0,1.112662506E1,-6.412764788E-1,3.775874138E0
2.725746885E0,1.128215885E1,-8.207381964E-1,4.572684288E0
2.730501416E0,1.084187984E1,-1.012163997E0,4.682754040E0
2.735256000E0,1.035135078E1,-1.320838094E0,4.692325115E0
2.740010531E0,9.671789169E0,-1.447657704E0,4.510470867E0
2.744765062E0,9.044869423E0,-1.411765337E0,3.986442566E0
2.749519645E0,8.726624489E0,-1.383051515E0,3.644268990E0
2.754274177E0,8.532805443E0,-1.404586911E0,3.550948858E0
2.759028708E0,8.614161491E0,-1.481157184E0,3.400201082E0
2.763783291E0,8.956335068E0,-1.651047587E0,3.074777126E0
2.768537823E0,9.193224907E0,-1.816152334E0,2.742174864E0
2.773292354E0,9.109476089E0,-1.801795483E0,2.555534601E0
2.778046937E0,9.324830055E0,-1.639083505E0,2.567498684E0
2.782801468E0,9.621540070E0,-1.531406522E0,2.778067112E0
2.787556000E0,9.829715729E0,-1.526620865E0,2.823530674E0
2.792310583E0,1.002114105E1,-1.622333765E0,2.790031195E0
2.797065114E0,1.003310490E1,-1.682154298E0,2.746960402E0
2.801819645E0,9.846465111E0,-1.768295884E0,2.677568436E0
2.806574229E0,9.403793335E0,-1.923829436E0,2.663211584E0
2.811328760E0,9.303294182E0,-2.076970100E0,2.651247501E0
2.816083291E0,9.159725189E0,-2.153540373E0,2.675175667E0
2.820837875E0,8.949156761E0,-2.129612207E0,2.648854733E0
2.825592406E0,8.886942863E0,-2.189432621E0,2.493321180E0
2.830346989E0,8.879764557E0,-2.242074728E0,2.356930256E0
2.835101520E0,9.174081802E0,-2.325823545E0,2.517249346E0
2.839856052E0,9.296115875E0,-2.428714991E0,2.531606436E0
2.844610635E0,9.568898201E0,-2.667997360E0,2.541177750E0
2.849365166E0,9.640682220E0,-2.907279491E0,2.440679073E0
2.854119698E0,9.609575272E0,-3.091526747E0,2.397608280E0
2.858874281E0,9.743574142E0,-3.187239647E0,2.103291035E0
2.863628812E0,1.017906761E1,-3.084348440E0,1.787438512E0
2.868383395E0,1.076052380E1,-2.904886723E0,1.816152334E0
2.873137927E0,1.115055370E1,-2.364108801E0,1.624726534E0
2.877892458E0,1.150708389E1,-1.366301775E0,1.232303619E0
2.882647041E0,1.140180016E1,-2.847459018E-1,2.488535643E0
2.887401573E0,1.002353382E1,6.029912829E-1,4.005585194E0
2.892156104E0,8.293522835E0,1.143769264E0,4.689932346E0
2.896910687E0,7.039684296E0,1.275374413E0,4.845465660E0
2.901665218E0,6.979863644E0,1.007378340E0,4.811966419E0
2.906419750E0,7.532605648E0,6.364908218E-1,5.252245903E0
2.911174333E0,8.492127419E0,2.703889608E-1,5.668596745E0
2.915928864E0,8.327022552E0,5.240281820E-1,6.192625046E0
2.920683395E0,9.628718376E0,2.967100143E-1,5.592026711E0
2.925437979E0,9.219545364E0,8.183453679E-1,6.005984783E0
2.930192510E0,1.022453117E1,6.197410822E-1,4.955535889E0
2.934947093E0,9.363115311E0,1.320838094E0,3.864408493E0
2.939701625E0,9.200403214E0,2.122433662E0,3.225524902E0
2.944456156E0,8.853444099E0,2.751745939E0,4.457828522E0
2.949210739E0,8.288737297E0,3.407379389E0,5.297709465E0
2.953965270E0,5.565705299E0,4.017549038E0,5.632704735E0
2.958719802E0,3.515056372E0,4.264009953E0,4.675575256E0
2.963474385E0,4.342973232E0,3.469592810E0,2.536391973E0
2.968228916E0,5.450850010E0,2.617748022E0,1.244267747E-1
2.972983500E0,7.338787079E0,1.660618901E0,-1.395015597E0
2.977738031E0,7.271788120E0,1.998006940E0,-1.521835208E0
2.982492562E0,6.276373863E0,3.292523861E0,-1.186840057E0
2.987247145E0,5.766702652E0,4.127619267E0,-1.122233868E0
2.992001677E0,5.692524910E0,4.134797573E0,-1.339980721E0
2.996756208E0,6.463014126E0,3.239881754E0,6.101697683E-1
3.001510791E0,6.884150982E0,2.617748022E0,2.620140791E0
3.006265323E0,6.848258495E0,2.495713949E0,3.775874138E0
3.011019906E0,6.441478729E0,2.624926329E0,4.280759811E0
3.015774437E0,5.910272121E0,2.694318295E0,4.299902439E0
3.020528968E0,5.412564754E0,2.675175667E0,3.996013880E0
3.025283552E0,4.993820667E0,2.577069998E0,3.460021496E0
3.030038083E0,4.424329281E0,2.565105915E0,2.746960402E0
3.034792614E0,3.828516245E0,2.677568436E0,2.285145521E0
3.039547198E0,3.766302824E0,2.620140791E0,2.600998163E0
3.044301729E0,4.630111694E0,2.344966173E0,3.591626883E0
3.049056260E0,6.307480335E0,1.871187329E0,4.453042984E0
3.053810843E0,8.216953278E0,1.308874011E0,4.481756687E0
3.058565375E0,9.576076508E0,7.752745152E-1,3.591626883E0
3.063319958E0,1.035135078E1,5.120640397E-1,2.005185366E0
3.068074489E0,1.020538902E1,5.479564071E-1,7.202396393E-1
3.072829020E0,9.456435204E0,6.604190469E-1,-1.076770201E-1
3.077583604E0,8.724231720E0,4.761717021E-1,-6.460621357E-1
3.082338135E0,8.446663857E0,2.105683982E-1,-6.771687865E-1
3.087092718E0,7.025327206E0,6.221339107E-1,4.235295951E-1
3.091847250E0,5.967699528E0,1.050449133E0,1.495514154E0
3.096601781E0,5.666203976E0,9.547362328E-1,1.969292998E0
3.101356364E0,5.596812248E0,3.421736360E-1,2.392822742E0
3.106110895E0,7.403393269E0,-3.541377485E-1,2.009970903E0
3.110865427E0,7.886743546E0,-8.614161611E-1,2.447857618E0
3.115620010E0,7.594819069E0,-1.110269666E0,3.122633457E0
3.120374541E0,7.372286797E0,-1.368694544E0,3.909872293E0
3.125129125E0,7.384250641E0,-1.615155339E0,4.244867325E0
3.129883656E0,7.846065521E0,-1.919043779E0,3.926621914E0
3.134638187E0,8.420342445E0,-2.335394859E0,2.993421078E0
3.139392770E0,9.241081238E0,-2.464607239E0,1.890329838E0
3.144147302E0,1.038245773E1,-2.024327993E0,1.191625714E0
3.148901833E0,1.146401310E1,-1.373480201E0,3.828516304E-1
3.153656416E0,1.181097221E1,-5.144568682E-1,-1.538584948E0
3.158410948E0,1.066241741E1,-3.397808075E-1,-1.093519926E0
3.163165531E0,9.686145782E0,-7.250252366E-1,6.699903607E-1
3.167920062E0,9.332008362E0,-1.447657704E0,2.196611166E0
3.172674593E0,9.899106979E0,-2.177468538E0,3.625126362E0
3.177429177E0,1.060499001E1,-2.988635540E0,3.962514400E0
3.182183708E0,1.165304661E1,-3.694518089E0,3.850051641E0
3.186938239E0,1.256471157E1,-4.232903481E0,3.299702406E0
3.191692823E0,1.354098320E1,-4.589433670E0,2.493321180E0
3.196447354E0,1.412243938E1,-4.670789719E0,1.844866276E0
3.201201885E0,1.435454273E1,-4.634897232E0,1.294517040E0
3.205956468E0,1.441197109E1,-4.498506546E0,9.236295223E-1
3.210711000E0,1.424447346E1,-4.242474556E0,8.063812256E-1
3.215465583E0,1.408415413E1,-3.974478483E0,7.992027402E-1
3.220220114E0,1.375872993E1,-3.718446493E0,7.417750359E-1
3.224974645E0,1.294995594E1,-3.369094372E0,2.608176768E-1
3.229729229E0,1.225125217E1,-3.278167009E0,-1.770688742E-1
3.234483760E0,1.171525955E1,-3.416950703E0,-1.531406492E-1
3.239238291E0,1.140658569E1,-3.572484255E0,1.651047617E-1
3.243992875E0,1.130608654E1,-3.756731510E0,5.862415433E-1
3.248747406E0,1.094237804E1,-3.661018610E0,1.119840980E0
3.253501937E0,1.101894855E1,-3.661018610E0,1.354337573E0
3.258256520E0,1.114576817E1,-3.716053486E0,1.399801254E0
3.263011052E0,1.127258778E1,-3.787838221E0,1.406979680E0
3.267765635E0,1.141854954E1,-3.878765583E0,1.392622828E0
3.272520166E0,1.157647610E1,-3.936193228E0,1.335195065E0
3.277274698E0,1.173200989E1,-3.964907169E0,1.356730461E0
3.282029281E0,1.195693493E1,-3.948157310E0,1.665404558E0
3.286783812E0,1.222732353E1,-3.917050600E0,1.962114573E0
3.291538395E0,1.239003563E1,-3.943371773E0,2.359323025E0
3.296292927E0,1.261974621E1,-4.158725739E0,2.141576290E0
3.301047458E0,1.246182060E1,-4.522434711E0,1.799402595E0
3.305802041E0,1.122233772E1,-4.589433670E0,2.239681959E0
3.310556573E0,9.839286804E0,-4.469792843E0,3.000599623E0
3.315311156E0,9.284152031E0,-4.512863636E0,2.679961443E0
3.320065687E0,8.910871506E0,-4.721039295E0,1.935793519E0
3.324820218E0,8.633303642E0,-5.034498692E0,1.239482164E0
3.329574802E0,8.252845764E0,-5.405386448E0,7.848458290E-1
3.334329333E0,7.951349735E0,-5.615954876E0,4.857429862E-1
3.339083864E0,7.831708431E0,-5.723631859E0,3.756731451E-1
3.343838448E0,7.846065521E0,-5.737988472E0,5.623133183E-1
3.348592979E0,7.726424217E0,-5.793023586E0,7.154539824E-1
3.353347562E0,7.439285755E0,-5.843272686E0,8.207381964E-1
3.358102093E0,7.154539585E0,-5.869594097E0,1.048056364E0
3.362856625E0,6.745367050E0,-5.860022545E0,1.189232826E0
3.367611208E0,6.563512325E0,-5.927021503E0,1.289731383E0
3.372365739E0,6.350551128E0,-5.845665932E0,1.462014675E0
3.377120270E0,6.106483459E0,-5.936593056E0,1.514656782E0
3.381874854E0,5.797809124E0,-6.056233883E0,1.493121386E0
3.386629385E0,5.503491879E0,-6.214160442E0,1.428515077E0
3.391383968E0,5.316852093E0,-6.460621357E0,1.495514154E0
3.396138500E0,5.209175110E0,-6.707081795E0,1.555334687E0
3.400893031E0,5.324030399E0,-6.817151546E0,1.610369682E0
3.405647614E0,5.924628735E0,-6.185446739E0,1.574477315E0
3.410402145E0,6.175875187E0,-6.082555294E0,1.430907965E0
3.415156729E0,6.276373863E0,-6.063412666E0,1.205982566E0
3.419911260E0,6.640082836E0,-6.113661766E0,8.183453679E-1
3.424665791E0,6.991827965E0,-6.197410583E0,3.278166950E-1
3.429420375E0,7.192824841E0,-6.343372822E0,-4.283152521E-1
3.434174906E0,7.415357590E0,-6.589833736E0,-1.323230863E0
3.438929489E0,7.953742504E0,-6.788437843E0,-1.904686809E0
3.443684020E0,8.556734085E0,-6.989434719E0,-1.885544300E0
3.448438552E0,9.056833267E0,-7.202396393E0,-1.564906001E0
3.453193135E0,9.365508080E0,-7.322037220E0,-1.172483087E0
3.457947666E0,9.365508080E0,-7.348358154E0,-8.327022791E-1
3.462702250E0,9.080761909E0,-7.262216568E0,-4.666004181E-1
3.467456781E0,8.690732002E0,-7.166503906E0,-2.249253243E-1
3.472211312E0,8.257631302E0,-7.228717327E0,-2.679961324E-1
3.476965895E0,8.123632431E0,-7.470392227E0,-2.009970993E-1
3.481720427E0,8.281558990E0,-7.891529083E0,5.982056633E-2
3.486475010E0,8.166703224E0,-8.154739380E0,4.785645306E-1
3.491229541E0,8.145168304E0,-8.516056061E0,8.877372146E-1
3.495984073E0,7.996813297E0,-8.717052460E0,1.170090318E0
3.500738656E0,7.853243828E0,-9.020941734E0,1.416550994E0
3.505493187E0,7.738388538E0,-9.308079720E0,1.464407444E0
3.510247718E0,7.537391186E0,-9.573683739E0,1.473978758E0
3.515002302E0,7.164111137E0,-9.781859398E0,1.373480201E0
3.519756833E0,6.585047722E0,-9.927821159E0,1.119840980E0
3.524511416E0,5.974878311E0,-1.005703354E1,8.303094506E-1
3.529265948E0,5.194818020E0,-1.008814049E1,5.694918036E-1
3.534020479E0,4.204189301E0,-1.003789139E1,3.349951804E-1
3.538775062E0,3.304488182E0,-9.923035622E0,1.674975902E-1
3.543529593E0,2.971885681E0,-9.442078590E0,1.818545163E-1
3.548284177E0,2.845066071E0,-8.760123253E0,3.134597540E-1
3.553038708E0,2.754138947E0,-8.085348129E0,5.431707501E-1
3.557793239E0,2.600998163E0,-7.444071293E0,7.010970116E-1
3.562547823E0,2.421536446E0,-6.740581512E0,7.944171429E-1
3.567302354E0,2.318645239E0,-6.092126369E0,8.255237937E-1
3.572056937E0,2.014756680E0,-5.953342915E0,7.202396393E-1
3.576811468E0,1.926222205E0,-5.781059742E0,5.335994363E-1
3.581566000E0,1.828116536E0,-5.603990555E0,3.493520916E-1
3.586320583E0,1.962114573E0,-5.388636589E0,2.273181528E-1
3.591075114E0,2.249253273E0,-5.158925533E0,1.172483116E-1
3.595829698E0,2.565105915E0,-4.962714195E0,8.135596663E-2
3.600584229E0,2.902493954E0,-4.764110088E0,1.603191197E-1
3.605338760E0,3.110669374E0,-4.608576298E0,2.703889608E-1
3.610093343E0,3.263810158E0,-4.436293125E0,3.804588020E-1
3.614847875E0,3.084348440E0,-4.082155228E0,5.288137794E-1
3.619602458E0,2.940778971E0,-3.876372576E0,6.556333899E-1
3.624356989E0,2.301895380E0,-3.548556089E0,7.010970116E-1
3.629111573E0,2.289931297E0,-3.646661758E0,6.053841114E-1
3.633866104E0,2.433500528E0,-3.591626883E0,4.426721931E-1
3.638620635E0,2.847458839E0,-3.646661758E0,2.464607358E-1
3.643375218E0,3.177668571E0,-3.553341627E0,9.571290761E-2
3.648129750E0,3.495913982E0,-3.457628727E0,-6.699903309E-2
3.652884281E0,3.969692707E0,-3.517449379E0,-1.914258115E-2
3.657638864E0,4.295116425E0,-3.598805189E0,1.387837082E-1
3.662393395E0,4.682754040E0,-3.806980848E0,3.852444589E-1
3.667147979E0,5.000999451E0,-3.972085476E0,5.599204898E-1
3.671902510E0,5.350351334E0,-4.153940201E0,4.187439680E-1
3.676657093E0,5.613562107E0,-4.500899315E0,2.871387079E-2
3.681411625E0,5.596812248E0,-4.917250633E0,-6.747759581E-1
3.686166156E0,5.539384365E0,-5.405386448E0,-1.892722726E0
3.690920739E0,5.769095421E0,-6.142375946E0,-3.256631613E0
3.695675270E0,6.305087566E0,-7.099504948E0,-4.560719967E0
3.700429854E0,7.235895634E0,-7.877171993E0,-5.225924492E0
3.705184385E0,8.303094864E0,-8.650053978E0,-4.905286312E0
3.709938916E0,9.458827972E0,-9.207581520E0,-3.847658873E0
3.714693500E0,1.037288570E1,-9.523433685E0,-2.526820660E0
3.719448031E0,1.099262714E1,-9.734002113E0,-1.318445325E0
3.724202614E0,1.145922756E1,-9.777072906E0,-4.642075896E-1
3.728957145E0,1.168175983E1,-9.848857880E0,-7.657032460E-2
3.733711729E0,1.168893814E1,-9.961320877E0,7.178468257E-2
3.738466260E0,1.166501045E1,-1.015753174E1,5.264209956E-2
3.743220791E0,1.160279655E1,-1.024606609E1,-2.249253243E-1
3.747975375E0,1.197368431E1,-1.059302616E1,-9.140582681E-1
3.752729906E0,1.301456261E1,-1.138026428E1,-2.136790514E0
3.757484489E0,1.337109280E1,-1.201436234E1,-2.744567633E0
3.762239020E0,1.335673618E1,-1.242832088E1,-3.407379389E0
3.766993552E0,1.309831142E1,-1.271306705E1,-3.818944931E0
3.771748135E0,1.230628681E1,-1.267478180E1,-3.924229145E0
3.776502666E0,1.040877819E1,-1.157408333E1,-3.718446493E0
3.781257250E0,8.394021988E0,-1.028913784E1,-3.175275564E0
3.786011781E0,7.042077065E0,-9.315258980E0,-2.703889608E0
3.790766364E0,6.506084919E0,-8.614161491E0,-2.191825628E0
3.795520895E0,6.690331936E0,-8.173882484E0,-1.296909928E0
3.800275427E0,7.286144733E0,-7.726424217E0,-2.799602449E-1
3.805030010E0,8.118846893E0,-7.324429989E0,7.896314859E-1
3.809784541E0,8.659625053E0,-7.164111137E0,1.610369682E0
3.814539125E0,9.233902931E0,-7.219145775E0,2.148754835E0
3.819293656E0,9.817750931E0,-7.384250641E0,2.469393015E0
3.824048239E0,9.537791252E0,-7.300501823E0,2.569891453E0
3.828802770E0,9.068798065E0,-7.695317745E0,2.467000246E0
3.833557302E0,8.535198212E0,-8.094919205E0,2.268395901E0
3.838311885E0,7.673782349E0,-8.523234367E0,2.031506538E0
3.843066416E0,6.788437843E0,-9.154939651E0,1.665404558E0
3.847821000E0,5.726024628E0,-9.693324089E0,1.351944804E0
3.852575531E0,4.716253281E0,-1.021496010E1,1.392622828E0
3.857330114E0,3.885943890E0,-1.087298584E1,1.844866276E0
3.862084645E0,3.455235958E0,-1.140419292E1,2.462214470E0
3.866839177E0,3.661018610E0,-1.144726372E1,2.854637384E0
3.871593760E0,3.684946775E0,-1.172483063E1,3.103491068E0
3.876348291E0,3.649054527E0,-1.196650600E1,3.160918713E0
3.881102875E0,3.522234917E0,-1.222971630E1,2.763710260E0
3.885857406E0,3.361915827E0,-1.222493076E1,2.426322222E0
3.890611989E0,3.125026464E0,-1.224168110E1,2.139183521E0
3.895366520E0,2.830709219E0,-1.203111267E1,1.883151412E0
3.900121052E0,2.371287346E0,-1.173679543E1,1.529013634E0
3.904875635E0,1.797009826E0,-1.113858986E1,1.129412293E0
3.909630166E0,9.667003751E-1,-1.039920712E1,8.638089895E-1
3.914384750E0,2.105683982E-1,-9.444471359E0,6.317051649E-1
3.919139281E0,-1.225125194E0,-8.209774017E0,8.135596663E-2
3.923893864E0,-3.048455954E0,-6.905686378E0,-2.380858421E0
3.928648395E0,-5.924628735E0,-5.733202934E0,-7.733603001E0
3.933402979E0,-7.283751965E0,-5.010570526E0,-8.530412674E0
3.938157510E0,-6.984649181E0,-4.460221291E0,-5.235496044E0
3.942912041E0,-5.907878876E0,-4.563112736E0,-1.210768223E0
3.947666625E0,-4.634897232E0,-5.209175110E0,2.122433662E0
3.952421156E0,-3.553341627E0,-5.919843197E0,3.857230186E0
3.957175739E0,-2.792423964E0,-6.558726788E0,3.806980848E0
3.961930270E0,-2.105684042E0,-6.953542709E0,3.215953588E0
3.966684854E0,-1.751546144E0,-7.116254330E0,2.751745939E0
3.971439385E0,-2.096112728E0,-6.673582554E0,2.553141832E0
3.976193916E0,-1.823330879E0,-6.116054535E0,1.907079697E0
3.980948500E0,-1.490728498E0,-5.529813290E0,1.040877819E0
3.985703031E0,-1.232303619E0,-5.151747227E0,2.991028428E-1
3.990457614E0,-8.494520187E-1,-5.039284706E0,7.896314561E-2
3.995212145E0,-5.742774606E-1,-5.302495003E0,2.991028428E-1
3.999966729E0,-5.982056856E-1,-5.819344521E0,3.062812984E-1
4.004721260E0,-5.790630579E-1,-6.532405853E0,4.761717021E-1
4.009475843E0,-3.613162339E-1,-7.432106972E0,4.857429862E-1
4.014230375E0,-9.092725813E-2,-8.508877754E0,2.679961324E-1
4.018984906E0,1.220339537E-1,-9.480362892E0,-2.871387079E-2
4.023739489E0,7.106683254E-1,-1.109073257E1,-1.698904037E-1
4.028494020E0,1.174875975E0,-1.255274773E1,-9.810572863E-2
4.033248604E0,1.213161111E0,-1.389272785E1,-3.110669367E-2
4.038003135E0,1.395015597E0,-1.492642784E1,-5.503492057E-2
4.042757718E0,1.330409408E0,-1.604387665E1,6.939185411E-2
4.047512250E0,1.521835208E0,-1.674736595E1,2.823530734E-1
4.052266833E0,1.299302697E0,-1.711825371E1,4.953143001E-1
4.057021364E0,1.016949654E0,-1.707279015E1,8.614161611E-1
4.061775895E0,8.111668825E-1,-1.669472313E1,1.249053478E0
4.066530479E0,6.340979934E-1,-1.612283897E1,1.557727575E0
4.071285010E0,4.307080805E-1,-1.546959877E1,1.768295884E0
4.076039593E0,3.373879790E-1,-1.479960823E1,1.832902193E0
4.080794125E0,2.249253243E-1,-1.400519085E1,1.911865234E0
4.085548708E0,1.507478207E-1,-1.299541950E1,2.088934183E0
4.090303239E0,1.148554832E-1,-1.191386414E1,2.153540373E0
4.095057823E0,1.698904037E-1,-1.084905815E1,2.208575249E0
4.099812354E0,2.895315289E-1,-9.980463028E0,2.395215511E0
4.104566885E0,5.024927258E-1,-9.253045082E0,2.486142635E0
4.109321468E0,7.920243144E-1,-8.563912392E0,2.512463808E0
4.114076000E0,1.009771109E0,-7.941778183E0,2.639283419E0
4.118830583E0,1.225125194E0,-7.475177765E0,2.780459881E0
4.123585114E0,1.390229940E0,-7.094718933E0,2.967100143E0
4.128339698E0,1.538584948E0,-6.805187702E0,3.067598581E0
4.133094229E0,1.682154298E0,-6.611369133E0,3.180061340E0
4.137848812E0,1.974078655E0,-6.565905571E0,3.235096216E0
4.142603343E0,2.189432621E0,-6.558726788E0,3.376272678E0
4.147357927E0,2.282752752E0,-6.671189308E0,3.474378586E0
4.152112458E0,2.402393818E0,-6.850651264E0,3.570091486E0
4.156866989E0,2.490928411E0,-7.216753006E0,3.622733593E0
4.161621573E0,2.797209740E0,-7.685746193E0,3.656233072E0
4.166376104E0,2.888136864E0,-8.049455643E0,3.665804386E0
4.171130687E0,3.074777126E0,-8.484949112E0,3.598805189E0
4.175885218E0,3.113062143E0,-8.867800713E0,3.529413462E0
4.180639802E0,3.103491068E0,-9.226723671E0,3.445664644E0
4.185394333E0,3.151347399E0,-9.549755096E0,3.383451223E0
4.190148916E0,3.163311481E0,-9.810572624E0,3.306880951E0
4.194903448E0,3.136990547E0,-1.009292603E1,3.136990547E0
4.199658031E0,3.031706333E0,-1.034895802E1,2.947957516E0
4.204412562E0,2.885744095E0,-1.059302616E1,2.775674343E0
4.209167093E0,2.823530674E0,-1.087777138E1,2.641676188E0
4.213921677E0,2.754138947E0,-1.114576817E1,2.533999205E0
4.218676208E0,2.660818815E0,-1.141137123E1,2.469393015E0
4.223430791E0,2.660818815E0,-1.157886887E1,2.400001049E0
4.228185323E0,2.699103832E0,-1.170568848E1,2.344966173E0
4.232939906E0,2.751745939E0,-1.183011532E1,2.352144718E0
4.237694437E0,2.809173822E0,-1.196411324E1,2.268395901E0
4.242449020E0,2.902493954E0,-1.204546928E1,2.093719721E0
4.247203552E0,3.048455954E0,-1.208136177E1,1.787438512E0
4.251958135E0,3.268595695E0,-1.216511059E1,1.304088354E0
4.256712666E0,3.804588079E0,-1.237089348E1,-7.250252366E-1
4.261467250E0,4.850251675E0,-1.283510113E1,-4.697110653E0
4.266221781E0,6.166304111E0,-1.306959724E1,-8.243273735E0
4.270976364E0,6.589833736E0,-1.266521072E1,-7.568498135E0
4.275730895E0,6.125626087E0,-1.191625690E1,-4.651647091E0
4.280485427E0,5.769095421E0,-1.133480072E1,-2.086541414E0
4.285240010E0,5.467599869E0,-1.095673466E1,-4.761717021E-1
4.289994541E0,5.398207664E0,-1.088973618E1,3.421736360E-1
4.294749125E0,5.142175674E0,-1.061216831E1,6.532405615E-1
4.299503656E0,5.056034088E0,-1.037767220E1,4.259224236E-1
4.304258239E0,4.862215519E0,-1.008096218E1,-1.986042857E-1
4.309012770E0,4.661218643E0,-9.851250648E0,-1.354337573E0
4.313767354E0,4.278367043E0,-9.595218658E0,-2.514856577E0
4.318521885E0,3.864408493E0,-9.332008362E0,-2.888136864E0
4.323276468E0,3.610769272E0,-9.097511292E0,-2.165504456E0
4.328031000E0,3.663411379E0,-8.968298912E0,-7.513462901E-1
4.332785583E0,3.881158352E0,-8.949156761E0,5.479564071E-1
4.337540114E0,4.106083870E0,-8.891729355E0,1.452443361E0
4.342294698E0,4.256831646E0,-8.738588333E0,2.048256159E0
4.347049229E0,4.331008911E0,-8.671588898E0,2.478964329E0
4.351803812E0,4.345366001E0,-8.678768158E0,2.830709219E0
4.356558343E0,4.431507587E0,-8.705088615E0,3.180061340E0
4.361312927E0,4.510470867E0,-8.738588333E0,3.613162279E0
4.366067458E0,4.596612453E0,-8.819944382E0,4.055834293E0
4.370821989E0,4.721039295E0,-8.944371223E0,4.488935471E0
4.375576573E0,4.950749874E0,-9.154939651E0,4.953142643E0
4.380331156E0,5.139782906E0,-9.470791817E0,5.436492920E0
4.385085687E0,5.371886730E0,-9.958928108E0,5.771488190E0
4.389840218E0,5.675775528E0,-1.055713367E1,5.998806477E0
4.394594802E0,5.948556900E0,-1.113858986E1,6.049055576E0
4.399349333E0,6.336194515E0,-1.179183006E1,6.053841114E0
4.404103916E0,6.587440968E0,-1.241396427E1,5.977271080E0
4.408858448E0,6.788437843E0,-1.301456261E1,5.824130535E0
4.413613031E0,6.829115868E0,-1.350030518E1,5.544169903E0
4.418367562E0,6.788437843E0,-1.390947819E1,5.173282623E0
4.423122145E0,6.865008354E0,-1.368455315E1,4.666004181E0
4.427876677E0,6.479763508E0,-1.426122284E1,4.141975880E0
4.432631260E0,6.096911907E0,-1.410568905E1,3.550948858E0
4.437385791E0,5.465207100E0,-1.383769321E1,2.555534601E0
4.442140375E0,4.058227062E0,-1.365344620E1,-2.572284460E0
4.446894906E0,1.744367719E0,-1.363191032E1,-1.223689461E1
4.451649489E0,7.585247755E-1,-1.379462242E1,-1.479960823E1
4.456404020E0,8.422735929E-1,-1.379701519E1,-1.187318611E1
4.461158604E0,1.361516118E0,-1.373958778E1,-6.886543751E0
4.465913135E0,2.232503414E0,-1.372523022E1,-2.225325108E0
4.470667718E0,3.180061340E0,-1.369890976E1,8.805587292E-1
4.475422250E0,3.720839262E0,-1.353859043E1,2.201396942E0
4.480176833E0,3.888336897E0,-1.324905872E1,1.837687731E0
4.484931364E0,3.950550079E0,-1.275374508E1,-2.392822644E-3
4.489685948E0,4.426722050E0,-1.198086262E1,-2.002792597E0
4.494440479E0,4.859822750E0,-1.110030460E1,-2.677568436E0
4.499195062E0,5.096712112E0,-1.023888779E1,-2.086541414E0
4.503949593E0,5.020142078E0,-9.430113792E0,-1.356730461E0
4.508704177E0,4.900500774E0,-8.736195564E0,-1.026520967E0
4.513458708E0,4.881358147E0,-8.159524918E0,-9.786644578E-1
4.518213291E0,5.044070244E0,-7.757531166E0,-9.619147182E-1
4.522967823E0,5.204389095E0,-7.487142086E0,-7.489534616E-1
4.527722406E0,5.182853699E0,-7.274180889E0,-2.416750938E-1
4.532476937E0,5.089533806E0,-7.176074982E0,3.996013701E-1
4.537231520E0,4.895715237E0,-7.257431030E0,1.069591761E0
4.541986052E0,4.828716278E0,-7.408178806E0,1.500299811E0
4.546740635E0,4.852644444E0,-7.692924976E0,1.753939033E0
4.551495166E0,4.914857864E0,-8.087740898E0,1.799402595E0
4.556249750E0,5.082355499E0,-8.518448830E0,1.686939955E0
4.561004281E0,5.261816978E0,-9.147761345E0,1.476371527E0
4.565758864E0,5.302495003E0,-9.949356079E0,1.115055323E0
4.570513395E0,5.376672268E0,-1.083230782E1,7.992027402E-1
4.575267979E0,5.316852093E0,-1.180618668E1,4.881358147E-1
4.580022510E0,5.087141037E0,-1.287099266E1,1.411765367E-1
4.584777093E0,4.536791801E0,-1.402911949E1,-1.196411327E-1
4.589531625E0,3.649054527E0,-1.502214050E1,-1.866401732E-1
4.594286208E0,2.711068153E0,-1.601994705E1,-5.264209956E-2
4.599040739E0,1.744367719E0,-1.687897110E1,6.460621208E-2
4.603795323E0,9.164510965E-1,-1.689811325E1,-4.067798331E-2
4.608549854E0,-2.536391914E-1,-1.807298851E1,-1.316052526E-1
4.613304437E0,-1.249053478E0,-1.898704720E1,-4.115654826E-1
4.618058968E0,-2.270788670E0,-1.945604134E1,-7.345965505E-1
4.622813552E0,-3.029313564E0,-1.982214355E1,-1.021735311E0
4.627568083E0,-3.476771355E0,-2.004946136E1,-1.294517040E0
4.632322666E0,-3.658625841E0,-1.991785622E1,-1.162911773E0
4.637077250E0,-3.656233072E0,-1.940339851E1,-7.704889178E-1
4.641831781E0,-3.407379389E0,-1.862333870E1,-3.230310678E-1
4.646586364E0,-2.902493954E0,-1.752742577E1,5.240281820E-1
4.651340895E0,-2.553141832E0,-1.621376610E1,1.457229018E0
4.656095479E0,-2.297109842E0,-1.487139320E1,2.000399828E0
4.660850010E0,-2.227717876E0,-1.362712479E1,2.246860504E0
4.665604593E0,-2.321038008E0,-1.280399418E1,2.306680918E0
4.670359125E0,-2.170290232E0,-1.208136177E1,2.251646042E0
4.675113708E0,-2.062613010E0,-1.143051338E1,2.230110645E0
4.679868239E0,-1.701296926E0,-1.066959572E1,1.947757602E0
4.684622823E0,-1.308874011E0,-9.927821159E0,1.524227977E0
4.689377354E0,-6.819544435E-1,-9.104690552E0,6.987041831E-1
4.694131937E0,-1.674975902E-1,-8.274380684E0,-1.292124242E-1
4.698886468E0,4.402793646E-1,-7.453642368E0,-8.590233326E-1
4.703641052E0,9.978070259E-1,-6.747759819E0,-1.342373490E0
4.708395583E0,1.555334687E0,-6.137589931E0,-1.414158225E0
4.713150166E0,2.127219439E0,-5.565705299E0,-1.232303619E0
4.717904698E0,2.801995277E0,-5.096712112E0,-7.465606928E-1
4.722659281E0,3.503092289E0,-4.651647091E0,-3.852444589E-1
4.727413812E0,4.017549038E0,-4.228117466E0,-5.742774159E-2
4.732168395E0,4.419543266E0,-3.852444410E0,2.297109663E-1
4.736922979E0,4.570291042E0,-3.510270834E0,5.407779217E-1
4.741677510E0,4.453042984E0,-3.227917671E0,8.063812256E-1
4.746432093E0,4.161118507E0,-3.017349243E0,1.016949654E0
4.751186625E0,3.732803345E0,-2.931207657E0,1.162911773E0
4.755941208E0,3.223132133E0,-2.885744095E0,1.155733347E0
4.760695739E0,2.612962246E0,-3.010170937E0,1.117448211E0
4.765450323E0,2.009970903E0,-3.326023579E0,1.057627559E0
4.770204854E0,1.335195065E0,-3.720839262E0,9.284151793E-1
4.774959437E0,7.106683254E-1,-4.232903481E0,8.327022791E-1
4.779713968E0,1.722832322E-1,-4.685146809E0,8.183453679E-1
4.784468552E0,-2.895315289E-1,-5.108676434E0,8.303094506E-1
4.789223083E0,-6.412764788E-1,-5.367101192E0,7.920243144E-1
4.793977666E0,-9.714859724E-1,-5.481956482E0,7.034898400E-1
4.798732250E0,-1.347159147E0,-5.517848969E0,5.599204898E-1
4.803486781E0,-1.785045743E0,-5.429314613E0,4.187439680E-1
4.808241364E0,-2.230110645E0,-5.247459888E0,2.249253243E-1
4.812995895E0,-2.658426046E0,-5.015356064E0,1.076770201E-1
4.817750479E0,-3.108276606E0,-4.706682205E0,-8.853443712E-2
4.822505010E0,-3.306880951E0,-4.445864677E0,-2.775674164E-1
4.827259593E0,-3.603590965E0,-4.134797573E0,-5.144568682E-1
4.832014125E0,-3.806980848E0,-3.852444410E0,-7.345965505E-1
4.836768708E0,-3.929014683E0,-3.639483213E0,-8.877372146E-1
4.841523239E0,-4.096512318E0,-3.426522017E0,-1.115055323E0
4.846277823E0,-4.182653904E0,-3.297309637E0,-1.311266780E0
4.851032406E0,-4.156332970E0,-3.196810961E0,-1.526620865E0
4.855786937E0,-3.960121393E0,-3.170490026E0,-1.825723648E0
4.860541520E0,-3.601198196E0,-3.254238844E0,-2.297109842E0
4.865296052E0,-2.732603550E0,-3.464807272E0,-2.840280533E0
4.870050635E0,-1.658226132E0,-3.742374659E0,-3.517449379E0
4.874805166E0,-6.340979934E-1,-4.022335052E0,-4.252045631E0
4.879559750E0,3.684946895E-1,-4.342973232E0,-4.931607246E0
4.884314281E0,1.253839016E0,-4.756931305E0,-5.639883041E0
4.889068864E0,2.220539331E0,-5.206781864E0,-6.226124287E0
4.893823448E0,3.316452265E0,-5.852844238E0,-6.597012043E0
4.898577979E0,4.642076015E0,-6.611369133E0,-6.321837425E0
4.903332562E0,6.307480335E0,-7.465606689E0,-4.974678040E0
4.908087093E0,8.315058708E0,-8.367700577E0,-2.124826431E0
4.912841677E0,1.030349445E1,-9.157332420E0,2.187039852E0
4.917596208E0,1.199043465E1,-9.784252167E0,7.118647575E0
4.922350791E0,1.360319710E1,-1.043509960E1,1.153101254E1
4.927105323E0,1.540499210E1,-1.133958626E1,1.371805191E1
4.931859906E0,1.761356735E1,-1.267478180E1,1.234457207E1
4.936614489E0,2.078884315E1,-1.422054482E1,8.417949677E0
4.941369020E0,2.361715889E1,-1.542652798E1,4.409972191E0
4.946123604E0,2.497389030E1,-1.595294857E1,1.596012712E0
4.950878135E0,2.462932396E1,-1.558206081E1,-2.656033039E-1
4.955632718E0,2.348076820E1,-1.463211060E1,-1.564906001E0
4.960387250E0,2.186561394E1,-1.312941742E1,-2.246860504E0
4.965141833E0,1.982453537E1,-1.124865913E1,-2.438286304E0
4.969896416E0,1.787677765E1,-9.176474571E0,-2.014756680E0
4.974650948E0,1.625683784E1,-7.039684296E0,-1.332802176E0
4.979405531E0,1.509631824E1,-5.776273727E0,-6.939185858E-1
4.984160062E0,1.385922909E1,-5.670989513E0,-3.349951804E-1
4.988914645E0,1.211964703E1,-5.656632900E0,-2.560320199E-1
4.993669177E0,1.021735287E1,-5.560919762E0,-2.105683982E-1
4.998423760E0,8.547162056E0,-5.338387489E0,-9.092725813E-2
5.003178343E0,6.922435760E0,-5.139782906E0,1.435693651E-1
5.007932875E0,5.601597786E0,-4.905286312E0,4.450650215E-1
5.012687458E0,4.007977962E0,-4.744967461E0,9.643075466E-1
5.017441989E0,2.598605394E0,-4.749752998E0,1.129412293E0
5.022196573E0,1.249053478E0,-4.926821709E0,7.393822074E-1
5.026951156E0,-8.853443712E-2,-5.402993679E0,-2.488535494E-1
5.031705687E0,-1.265803218E0,-6.407979012E0,-1.588834286E0
5.036460270E0,-2.213361025E0,-8.154739380E0,-3.426522017E0
5.041214802E0,-2.883351326E0,-1.050209904E1,-6.565905571E0
5.045969385E0,-2.995813847E0,-1.318923855E1,-9.623932838E0
5.050723968E0,-1.689332843E0,-1.552224064E1,-9.351150513E0
5.055478500E0,6.053841114E-1,-1.697946930E1,-5.115854740E0
5.060233083E0,2.816352367E0,-1.795574188E1,1.117448211E0
5.064987614E0,4.412364960E0,-1.865205193E1,6.592226505E0
5.069742198E0,5.513063431E0,-1.955175400E1,8.740981102E0
5.074496729E0,5.876772404E0,-2.075055885E1,8.774480820E0
5.079251312E0,5.924628735E0,-2.183211327E1,8.260024071E0
5.084005895E0,5.788238049E0,-2.216950226E1,7.824530125E0
5.088760427E0,5.259424210E0,-2.147319031E1,7.257431030E0
5.093515010E0,4.283152580E0,-1.960200310E1,6.245266914E0
5.098269541E0,3.596412420E0,-1.718046570E1,3.464807272E0
5.103024125E0,6.008377552E0,-1.435454273E1,-9.159725189E0
5.107778708E0,7.886743546E0,-1.161476135E1,-1.474217987E1
5.112533239E0,7.448856831E0,-9.511469841E0,-1.354337597E1
5.117287823E0,5.221138954E0,-8.492127419E0,-7.936992645E0
5.122042354E0,3.007778168E0,-8.341380119E0,-2.411965132E0
5.126796937E0,1.462014675E0,-8.324629784E0,9.212366939E-1
5.131551520E0,3.326023519E-1,-8.118846893E0,2.177468538E0
5.136306052E0,-3.589234054E-1,-7.800601959E0,2.175075769E0
5.141060635E0,-7.513462901E-1,-7.479963779E0,1.794616938E0
5.145815166E0,-9.714859724E-1,-7.173682213E0,1.385444283E0
5.150569750E0,-1.055234790E0,-6.898507595E0,1.012163997E0
5.155324333E0,-1.148554921E0,-6.716653347E0,6.963114142E-1
5.160078864E0,-1.251446247E0,-6.494120598E0,4.187439680E-1
5.164833448E0,-1.392622828E0,-6.300302029E0,3.206382394E-1
5.169587979E0,-1.497906923E0,-6.108876228E0,3.110669553E-1
5.174342562E0,-1.560120344E0,-5.948556900E0,3.900300860E-1
5.179097145E0,-1.574477315E0,-5.898307800E0,4.713860750E-1
5.183851677E0,-1.555334687E0,-5.864808083E0,5.216353536E-1
5.188606260E0,-1.557727575E0,-5.958128452E0,5.335994363E-1
5.193360843E0,-1.490728498E0,-6.125626087E0,5.264210105E-1
5.198115375E0,-1.378265858E0,-6.372086525E0,5.168496966E-1
5.202869958E0,-1.198804140E0,-6.766902447E0,5.814558864E-1
5.207624489E0,-9.619147182E-1,-7.295716286E0,7.417750359E-1
5.212379073E0,-7.322037220E-1,-7.848458290E0,9.619147182E-1
5.217133656E0,-4.689932466E-1,-8.415556908E0,1.110269666E0
5.221888187E0,-2.009970993E-1,-9.001798630E0,1.299302697E0
5.226642770E0,8.853443712E-2,-9.509077072E0,1.607976794E0
5.231397302E0,3.565305769E-1,-9.944570541E0,1.964507341E0
5.236151885E0,6.053841114E-1,-1.032024384E1,2.321038008E0
5.240906468E0,8.470591903E-1,-1.064088249E1,2.758924484E0
5.245661000E0,9.595218897E-1,-1.088255692E1,3.230310678E0
5.250415583E0,9.834501147E-1,-1.096391296E1,3.725624800E0
5.255170166E0,1.048056364E0,-1.098066330E1,4.218546391E0
5.259924698E0,1.062413216E0,-1.093759251E1,4.675575256E0
5.264679281E0,1.086341500E0,-1.082512951E1,5.077569485E0
5.269433864E0,1.115055323E0,-1.067916775E1,5.297709465E0
5.274188395E0,1.172483087E0,-1.059541893E1,5.374279499E0
5.278942979E0,1.215553880E0,-1.042792130E1,5.331208706E0
5.283697510E0,1.244267821E0,-1.036810017E1,5.046463013E0
5.288452093E0,1.246660590E0,-1.034417248E1,4.673182487E0
5.293206677E0,1.182054400E0,-1.025803089E1,4.249652863E0
5.297961208E0,1.196411371E0,-1.018863869E1,3.857230186E0
5.302715791E0,1.107876897E0,-1.001396275E1,3.510270834E0
5.307470375E0,1.009771109E0,-9.839286804E0,3.251846075E0
5.312224906E0,1.024128079E0,-9.652647018E0,3.148954630E0
5.316979489E0,1.110269666E0,-9.420542717E0,3.101098061E0
5.321734073E0,1.313659668E0,-9.217152596E0,2.957528830E0
5.326488604E0,1.524227977E0,-9.049654961E0,2.732603550E0
5.331243187E0,1.651047587E0,-8.937192917E0,2.536391973E0
5.335997718E0,1.737189293E0,-8.934800148E0,2.349751949E0
5.340752302E0,1.885544300E0,-8.961120605E0,2.055434704E0
5.345506885E0,2.031506538E0,-9.042476654E0,1.679761529E0
5.350261416E0,2.230110645E0,-9.126225471E0,1.306481123E0
5.355016000E0,2.373680115E0,-9.159725189E0,9.930213690E-1
5.359770583E0,2.469393015E0,-9.142974854E0,7.130611539E-1
5.364525114E0,2.536391973E0,-9.171689034E0,4.689932466E-1
5.369279698E0,2.615355253E0,-9.195617676E0,2.560320199E-1
5.374034281E0,2.713460922E0,-9.176474571E0,1.339980662E-1
5.378788812E0,2.715853691E0,-9.169296265E0,4.546362907E-2
5.383543395E0,2.833101988E0,-9.147761345E0,1.052841991E-1
5.388297927E0,2.983849764E0,-9.157332420E0,2.392822653E-1
5.393052510E0,3.177668571E0,-9.176474571E0,4.331009090E-1
5.397807093E0,3.440878868E0,-9.142974854E0,7.010970116E-1
5.402561625E0,3.742374659E0,-9.078369141E0,1.016949654E0
5.407316208E0,3.917050600E0,-9.020941734E0,1.292124271E0
5.412070791E0,4.029513359E0,-9.047262192E0,1.339980721E0
5.416825375E0,4.182653904E0,-9.040083885E0,1.349551916E0
5.421579906E0,4.328616142E0,-9.109476089E0,1.301695466E0
5.426334489E0,4.412364960E0,-9.164510727E0,1.249053478E0
5.431089020E0,4.472185612E0,-9.255437851E0,1.203589797E0
5.435843604E0,4.472185612E0,-9.334401131E0,1.131805062E0
5.440598187E0,4.398007870E0,-9.420542717E0,1.021735311E0
5.445352718E0,4.304687977E0,-9.533005714E0,8.590233326E-1
5.450107302E0,4.199403763E0,-9.633503914E0,6.508477330E-1
5.454861885E0,4.137190342E0,-9.774680138E0,4.450650215E-1
5.459616468E0,4.063013077E0,-9.889535904E0,2.344966233E-1
5.464371000E0,3.988835335E0,-9.961320877E0,1.196411345E-2
5.469125583E0,3.955335855E0,-1.007139015E1,-2.273181528E-1
5.473880166E0,3.919443607E0,-1.013121128E1,-4.666004181E-1
5.478634698E0,3.610769272E0,-1.023888779E1,-1.761117458E0
5.483389281E0,3.146561861E0,-1.047817039E1,-6.058627129E0
5.488143864E0,2.586641312E0,-1.062891865E1,-9.219545364E0
5.492898395E0,2.364108801E0,-1.039681435E1,-7.609176159E0
5.497652979E0,2.490928411E0,-1.012642574E1,-4.201796532E0
5.502407562E0,2.857030153E0,-9.896714211E0,-1.727617979E0
5.507162093E0,3.247060299E0,-9.729216576E0,-2.656033039E-1
5.511916677E0,3.376272678E0,-9.544969559E0,4.331009090E-1
5.516671260E0,3.299702406E0,-9.334401131E0,6.939185858E-1
5.521425791E0,3.113062143E0,-9.109476089E0,8.207381964E-1
5.526180375E0,2.976671457E0,-8.913264275E0,8.757730722E-1
5.530934958E0,2.847458839E0,-8.721838951E0,9.140582681E-1
5.535689489E0,2.794816732E0,-8.602197647E0,8.973084688E-1
5.540444073E0,2.746960402E0,-8.461020470E0,8.757730722E-1
5.545198656E0,2.751745939E0,-8.343772888E0,8.494520187E-1
5.549953187E0,2.782852650E0,-8.209774017E0,8.063812256E-1
5.554707770E0,2.868994236E0,-8.116454124E0,7.800601721E-1
5.559462354E0,2.928814888E0,-8.030312538E0,7.441678643E-1
5.564216885E0,3.019742250E0,-7.970492363E0,6.867401004E-1
5.568971468E0,3.134597778E0,-7.948956966E0,6.604190469E-1
5.573726052E0,3.244667530E0,-7.982456207E0,6.029912829E-1
5.578480583E0,3.359523058E0,-8.042277336E0,5.455635786E-1
5.583235166E0,3.426522017E0,-8.106883049E0,5.072783828E-1
5.587989750E0,3.562912941E0,-8.178668022E0,4.737788737E-1
5.592744333E0,3.716053486E0,-8.252845764E0,4.689932466E-1
5.597498864E0,3.859622955E0,-8.353343964E0,4.977070987E-1
5.602253448E0,4.096512318E0,-8.501698494E0,5.240281820E-1
5.607008031E0,4.376472473E0,-8.650053978E0,5.910272002E-1
5.611762562E0,4.682754040E0,-8.927620888E0,6.891329288E-1
5.616517145E0,5.039284706E0,-9.226723671E0,7.968099117E-1
5.621271729E0,5.412564754E0,-9.571290970E0,9.619147182E-1
5.626026260E0,5.694917679E0,-9.930213928E0,1.119840980E0
5.630780843E0,5.867201328E0,-1.021974564E1,1.289731383E0
5.635535427E0,5.903093338E0,-1.046620655E1,1.390229940E0
5.640290010E0,5.809773445E0,-1.066481018E1,1.438086390E0
5.645044541E0,5.465207100E0,-1.067916775E1,1.387837172E0
5.649799125E0,4.979464054E0,-1.062652493E1,1.143769264E0
5.654553708E0,4.395615101E0,-1.054756260E1,6.269195080E-1
5.659308291E0,3.797409534E0,-1.051167011E1,-8.614161611E-2
5.664062823E0,3.318845034E0,-1.046859932E1,-8.303094506E-1
5.668817406E0,2.947957516E0,-1.047577763E1,-1.490728498E0
5.673571937E0,2.758924484E0,-1.052363396E1,-1.892722726E0
5.678326520E0,2.749353170E0,-1.060020447E1,-2.076970100E0
5.683081104E0,2.868994236E0,-1.070309544E1,-2.117648125E0
5.687835687E0,3.189632654E0,-1.082273674E1,-2.014756680E0
5.692590218E0,3.574877024E0,-1.102373409E1,-1.904686809E0
5.697344802E0,3.998406649E0,-1.127976608E1,-1.892722726E0
5.702099385E0,4.457828522E0,-1.150947666E1,-1.993221283E0
5.706853968E0,4.931607246E0,-1.179183006E1,-2.352144718E0
5.711608500E0,5.489135265E0,-1.189232826E1,-2.804388046E0
5.716363083E0,6.053841114E0,-1.173679543E1,-3.242274761E0
5.721117666E0,6.494120598E0,-1.131565857E1,-3.512663603E0
5.725872198E0,6.783652306E0,-1.073420238E1,-3.452843189E0
5.730626781E0,6.917650223E0,-1.000439167E1,-3.065205812E0
5.735381364E0,6.850651264E0,-9.217152596E0,-2.129612207E0
5.740135948E0,6.580262184E0,-8.429914474E0,-5.958128572E-1
5.744890479E0,6.329015732E0,-7.690532207E0,8.997012973E-1
5.749645062E0,6.120840549E0,-7.058826923E0,2.055434704E0
5.754399645E0,5.912664890E0,-6.580262184E0,2.653640270E0
5.759154229E0,5.924628735E0,-6.247660160E0,2.737389088E0
5.763908760E0,6.063412666E0,-6.096911907E0,2.636890650E0
5.768663343E0,6.431907177E0,-6.355337143E0,2.495713949E0
5.773417927E0,7.037291527E0,-6.912864685E0,2.309073925E0
5.778172458E0,7.829315662E0,-7.767102242E0,2.062613010E0
5.782927041E0,8.394021988E0,-9.138189316E0,1.756331801E0
5.787681625E0,8.700303078E0,-1.090409279E1,1.306481123E0
5.792436208E0,8.587840080E0,-1.275853062E1,9.212366939E-1
5.797190739E0,8.154739380E0,-1.452204037E1,9.284151793E-1
5.801945323E0,7.472784996E0,-1.608216095E1,1.021735311E0
5.806699906E0,6.585047722E0,-1.753939056E1,1.445264935E0
5.811454489E0,5.608776093E0,-1.883629990E1,1.825723648E0
5.816209020E0,4.716253281E0,-2.004706764E1,2.005185366E0
5.820963604E0,3.859622955E0,-2.103530312E1,2.117648125E0
5.825718187E0,2.976671457E0,-2.182254219E1,2.251646042E0
5.830472770E0,2.227717876E0,-2.216710854E1,2.385644197E0
5.835227302E0,1.069591761E0,-2.222214317E1,2.567498684E0
5.839981885E0,6.173482537E-1,-2.253321075E1,2.811566591E0
5.844736468E0,-3.732803464E-1,-2.223889351E1,2.943171740E0
5.849491000E0,-1.478764415E0,-2.138944244E1,3.012563705E0
5.854245583E0,-2.529213428E0,-2.015953064E1,3.050848961E0
5.859000166E0,-3.414557934E0,-1.866880226E1,2.916850805E0
5.863754750E0,-3.842873096E0,-1.692204094E1,1.727617979E0
5.868509333E0,-3.747160196E0,-1.501496220E1,-2.096112728E0
5.873263864E0,-2.993421078E0,-1.302413368E1,-5.312066078E0
5.878018448E0,-2.376072884E0,-1.143529987E1,-5.467599869E0
5.882773031E0,-2.402393818E0,-1.056191921E1,-2.945564747E0
5.887527614E0,-2.636890650E0,-1.029392338E1,-1.962114573E-1
5.892282145E0,-2.718246460E0,-1.015753174E1,1.689332843E0
5.897036729E0,-2.423929453E0,-1.003549862E1,2.797209740E0
5.901791312E0,-1.890329838E0,-9.913464546E0,3.354737282E0
5.906545843E0,-1.464407444E0,-9.714859962E0,3.481556892E0
5.911300427E0,-1.205982566E0,-9.396614075E0,3.156133175E0
5.916055010E0,-1.052842021E0,-9.025727272E0,2.565105915E0
5.920809593E0,-9.475577474E-1,-8.678768158E0,1.734796405E0
5.925564177E0,-7.393822074E-1,-8.264809608E0,7.226324677E-1
5.930318708E0,-6.197410822E-1,-7.841279984E0,-3.397808075E-1
5.935073291E0,-4.283152521E-1,-7.360322475E0,-1.256231904E0
5.939827875E0,-1.483550072E-1,-6.853044033E0,-1.859223247E0
5.944582458E0,1.746760458E-1,-6.350551128E0,-1.777867198E0
5.949336989E0,5.551348329E-1,-6.008377552E0,-1.378265858E0
5.954091573E0,9.092726111E-1,-5.771488190E0,-6.508477330E-1
5.958846156E0,1.232303619E0,-5.627918720E0,1.866401732E-1
5.963600739E0,1.502692580E0,-5.623133183E0,9.116654396E-1
5.968355270E0,1.797009826E0,-5.692524910E0,1.526620865E0
5.973109854E0,2.065006018E0,-5.828916073E0,1.902294040E0
5.977864437E0,2.206182480E0,-5.996413708E0,2.060220242E0
5.982619020E0,2.218146563E0,-6.175875187E0,2.158325911E0
5.987373604E0,2.148754835E0,-6.336194515E0,2.182254314E0
5.992128135E0,1.971685886E0,-6.496513367E0,2.158325911E0
5.996882718E0,1.777867198E0,-6.640082836E0,2.043470621E0
6.001637302E0,1.557727575E0,-6.695117950E0,1.842473388E0
6.006391885E0,1.311266780E0,-6.742974281E0,1.615155339E0
6.011146416E0,1.086341500E0,-6.781259537E0,1.423729420E0
6.015901000E0,7.944171429E-1,-6.807580471E0,1.153340459E0
6.020655583E0,4.283152521E-1,-6.836294174E0,9.427721500E-1
6.025410166E0,4.067798331E-2,-6.922435760E0,7.968099117E-1
6.030164750E0,-3.278166950E-1,-7.034898758E0,6.125625968E-1
6.034919281E0,-6.125625968E-1,-7.195217609E0,3.254238665E-1
6.039673864E0,-8.590233326E-1,-7.353144169E0,-1.220339537E-1
6.044428448E0,-1.095912814E0,-7.436892986E0,-7.489534616E-1
6.049183031E0,-1.284945726E0,-7.408178806E0,-1.505085468E0
6.053937562E0,-1.454836130E0,-7.341179848E0,-2.304288149E0
6.058692145E0,-1.629512191E0,-7.216753006E0,-2.945564747E0
6.063446729E0,-1.744367719E0,-7.056434155E0,-3.215953588E0
6.068201312E0,-1.763510346E0,-6.867401123E0,-3.177668571E0
6.072955895E0,-1.718046665E0,-6.687939167E0,-2.931207657E0
6.077710427E0,-1.562513232E0,-6.458228111E0,-2.598605394E0
6.082465010E0,-1.430907965E0,-6.314659119E0,-2.258824587E0
6.087219593E0,-1.316052437E0,-6.187839508E0,-2.065006018E0
6.091974177E0,-1.122233868E0,-6.128018856E0,-1.947757602E0
6.096728760E0,-8.087740541E-1,-6.116054535E0,-1.873580098E0
6.101483291E0,-3.397808075E-1,-6.192625046E0,-1.830509305E0
6.106237875E0,2.847459018E-1,-6.364908218E0,-1.787438512E0
6.110992458E0,8.805587292E-1,-6.508477688E0,-1.741974831E0
6.115747041E0,1.347159147E0,-6.630511761E0,-1.718046665E0
6.120501625E0,1.756331801E0,-6.831508636E0,-1.641476393E0
6.125256156E0,2.182254314E0,-6.996613503E0,-1.378265858E0
6.130010739E0,2.689532757E0,-7.228717327E0,-8.255237937E-1
6.134765323E0,3.208775282E0,-7.448856831E0,-4.546362907E-2
6.139519906E0,3.864408493E0,-7.645068169E0,9.643075466E-1
6.144274489E0,4.577469826E0,-7.934599876E0,2.024327993E0
6.149029020E0,5.302495003E0,-8.231309891E0,2.952743053E0
6.153783604E0,5.927021503E0,-8.520841599E0,3.675375462E0
6.158538187E0,6.527620316E0,-8.724231720E0,4.240081787E0
6.163292770E0,7.109076023E0,-8.922835350E0,4.685146809E0
6.168047354E0,7.769495010E0,-9.164510727E0,4.981856823E0
6.172801885E0,8.559126854E0,-9.492327690E0,4.950749874E0
6.177556468E0,9.482755661E0,-9.887143135E0,4.764110088E0
6.182311052E0,1.047099209E1,-1.036092186E1,4.455435753E0
6.187065635E0,1.106680489E1,-1.082034397E1,4.024727821E0
6.191820218E0,1.149033451E1,-1.114098263E1,3.570091486E0
6.196574802E0,1.184207916E1,-1.136112213E1,3.005385160E0
6.201329333E0,1.178943729E1,-1.134915733E1,2.289931297E0
6.206083916E0,1.178704453E1,-1.124626637E1,1.603191137E0
6.210838500E0,1.175354481E1,-1.090887833E1,1.237089276E0
6.215593083E0,1.162193966E1,-1.035852909E1,1.127019525E0
6.220347666E0,1.173200989E1,-9.705288887E0,1.220339537E0
6.225102198E0,1.174875927E1,-9.123832703E0,1.404586911E0
6.229856781E0,1.167697430E1,-8.638090134E0,1.648654819E0
6.234611364E0,1.130369377E1,-8.116454124E0,1.844866276E0
6.239365948E0,1.076291656E1,-7.594819069E0,2.007578135E0
6.244120531E0,1.003789139E1,-7.087540627E0,2.206182480E0
6.248875114E0,9.109476089E0,-6.537191391E0,2.366501570E0
6.253629645E0,7.877171993E0,-6.063412666E0,2.490928411E0
6.258384229E0,6.451049805E0,-5.659025669E0,2.553141832E0
6.263138812E0,5.063212872E0,-5.345565796E0,2.641676188E0
6.267893395E0,3.871587038E0,-5.115854740E0,2.734996319E0
6.272647979E0,2.900100946E0,-4.955535889E0,2.835494757E0
6.277402562E0,2.474178553E0,-5.352744102E0,2.995813847E0
6.282157093E0,2.675175667E0,-6.664011002E0,3.151347399E0
6.286911677E0,3.067598581E0,-8.501698494E0,2.933600664E0
6.291666260E0,3.287738323E0,-1.022931671E1,2.474178553E0
6.296420843E0,3.230310678E0,-1.172243786E1,2.005185366E0
6.301175427E0,3.251846075E0,-1.325862980E1,1.639083505E0
6.305930010E0,3.421736479E0,-1.491446400E1,1.380658627E0
6.310684541E0,3.816552162E0,-1.674975777E1,1.277767301E0
6.315439125E0,4.412364960E0,-1.877887154E1,1.368694544E0
6.320193708E0,5.288137913E0,-2.090369797E1,1.744367719E0
6.324948291E0,6.441478729E0,-2.286820602E1,2.364108801E0
6.329702875E0,7.659425259E0,-2.448096848E1,3.189632654E0
6.334457458E0,8.932407379E0,-2.566062927E1,4.187439442E0
6.339212041E0,9.932606697E0,-2.550749016E1,5.134997368E0
6.343966573E0,9.415757179E0,-2.287777710E1,5.592026711E0
6.348721156E0,7.499105930E0,-1.939382744E1,5.058426857E0
6.353475739E0,5.194818020E0,-1.598166275E1,3.129812002E0
6.358230323E0,3.984049797E0,-1.267956734E1,-5.453242779E0
6.362984906E0,2.239681959E0,-9.556933403E0,-1.619223022E1
6.367739489E0,-1.033699393E0,-8.075776100E0,-1.693161392E1
6.372494020E0,-2.615355253E0,-8.276773453E0,-1.075095177E1
6.377248604E0,-1.433300734E0,-8.671588898E0,-3.476771355E0
6.382003187E0,-3.661018610E-1,-8.350951195E0,5.312066078E-1
6.386757770E0,-4.043870270E-1,-7.982456207E0,1.686939955E0
6.391512354E0,-4.570291340E-1,-7.881958008E0,1.794616938E0
6.396266937E0,-3.804588020E-1,-7.848458290E0,1.392622828E0
6.401021520E0,-4.857429862E-1,-7.532605648E0,8.327022791E-1
6.405776052E0,-7.585247755E-1,-7.073183537E0,3.278166950E-1
6.410530635E0,-1.337587833E0,-6.491727829E0,-5.982056633E-2
6.415285218E0,-1.691725612E0,-5.962913990E0,-2.416750938E-1
6.420039802E0,-2.172683001E0,-5.474778175E0,-2.033899277E-1
6.424794385E0,-2.536391973E0,-5.041677475E0,-1.292124242E-1
6.429548968E0,-2.634497643E0,-4.670789719E0,-4.546362907E-2
6.434303552E0,-2.761317253E0,-4.309473515E0,-1.172483116E-1
6.439058135E0,-2.708675146E0,-4.211368084E0,-1.148554832E-1
6.443812666E0,-2.622533560E0,-4.285545349E0,-2.632104978E-2
6.448567250E0,-2.589034081E0,-4.522434711E0,-7.657032460E-2
6.453321833E0,-2.421536446E0,-4.969892502E0,-1.603191197E-1
6.458076416E0,-2.141576290E0,-5.733202934E0,-2.057827413E-1
6.462831000E0,-1.916650891E0,-6.520441532E0,-2.847459018E-1
6.467585583E0,-1.670190215E0,-7.250252724E0,-3.613162339E-1
6.472340166E0,-1.363908887E0,-7.996813297E0,-3.637090325E-1
6.477094750E0,-1.083948612E0,-8.740981102E0,-3.182454109E-1
6.481849281E0,-8.039883971E-1,-9.451649666E0,-1.651047617E-1
6.486603864E0,-5.264210105E-1,-1.004267693E1,7.178467698E-3
6.491358448E0,-2.560320199E-1,-1.066720295E1,1.914258152E-1
6.496113031E0,-1.004985496E-1,-1.118405342E1,4.833501875E-1
6.500867614E0,-3.110669367E-2,-1.161954689E1,7.609176040E-1
6.505622198E0,-1.196411327E-1,-1.194736385E1,1.165304661E0
6.510376781E0,-1.244267747E-1,-1.225364494E1,1.631905079E0
6.515131364E0,-5.982056633E-2,-1.248335552E1,2.096112728E0
6.519885948E0,1.579262912E-1,-1.244267750E1,2.593819857E0
6.524640479E0,1.292124242E-1,-1.292124271E1,3.594019651E0
6.529395062E0,3.086741269E-1,-1.294517040E1,4.273581028E0
6.534149645E0,4.546363056E-1,-1.287577820E1,4.749752998E0
6.538904229E0,7.034898400E-1,-1.262931824E1,5.185246468E0
6.543658812E0,1.043270707E0,-1.233021545E1,5.395814896E0
6.548413395E0,1.411765337E0,-1.200239849E1,5.209175110E0
6.553167979E0,1.674975872E0,-1.151665497E1,4.888536453E0
6.557922562E0,1.849651933E0,-1.099262714E1,4.673182487E0
6.562677145E0,1.897508383E0,-1.047817039E1,4.534399033E0
6.567431729E0,1.866401672E0,-9.973284721E0,4.465006828E0
6.572186312E0,1.627119422E0,-9.489934921E0,4.438685894E0
6.576940843E0,1.134197950E0,-9.040083885E0,4.503292084E0
6.581695427E0,6.245267391E-1,-8.733802795E0,4.713860512E0
6.586450010E0,6.819544435E-1,-8.645268440E0,4.957928658E0
6.591204593E0,1.026520967E0,-8.635697365E0,5.163711071E0
6.595959177E0,1.107876897E0,-8.669196129E0,5.417350292E0
6.600713760E0,1.004985452E0,-8.726624489E0,5.520241737E0
6.605468343E0,7.944171429E-1,-8.810373306E0,5.233103275E0
6.610222927E0,6.101697683E-1,-8.858229637E0,4.831109047E0
6.614977510E0,5.288137794E-1,-8.901300430E0,4.517649174E0
6.619732041E0,6.364908218E-1,-8.961120605E0,4.232903481E0
6.624486677E0,8.662018180E-1,-9.083154678E0,4.070191383E0
6.629241208E0,1.251446247E0,-9.159725189E0,3.929014683E0
6.633995791E0,1.612762451E0,-9.140582085E0,3.651447296E0
6.638750375E0,1.974078655E0,-9.052047729E0,3.321237803E0
6.643504958E0,2.251646042E0,-8.951549530E0,3.022135019E0
6.648259541E0,2.467000246E0,-8.865407944E0,2.842673302E0
6.653014125E0,2.586641312E0,-8.779266357E0,2.758924484E0
6.657768708E0,2.596212626E0,-8.673981667E0,2.730210543E0
6.662523291E0,2.600998163E0,-8.547162056E0,2.715853691E0
6.667277875E0,2.629712105E0,-8.444271088E0,2.718246460E0
6.672032458E0,2.608176708E0,-8.293522835E0,2.751745939E0
6.676787041E0,2.562713146E0,-8.188239098E0,2.787638426E0
6.681541573E0,2.495713949E0,-8.114061356E0,2.792423964E0
6.686296156E0,2.423929453E0,-8.087740898E0,2.785245657E0
6.691050739E0,2.328216314E0,-8.075776100E0,2.742174864E0
6.695805323E0,2.330609322E0,-8.173882484E0,2.641676188E0
6.700559906E0,2.285145521E0,-8.298309326E0,2.531606436E0
6.705314489E0,2.316252232E0,-8.475378036E0,2.388036966E0
6.710069073E0,2.352144718E0,-8.736195564E0,2.275574446E0
6.714823656E0,2.364108801E0,-9.068798065E0,2.134397745E0
6.719578239E0,2.395215511E0,-9.485149384E0,1.885544300E0
6.724332823E0,2.414358139E0,-9.930213928E0,1.648654819E0
6.729087406E0,2.445464849E0,-1.036810017E1,1.483550072E0
6.733841989E0,2.493321180E0,-1.072941685E1,1.356730461E0
6.738596573E0,2.557927370E0,-1.108833981E1,1.258624673E0
6.743351156E0,2.696711063E0,-1.149033451E1,1.162911773E0
6.748105739E0,2.907279491E0,-1.178943729E1,1.014556766E0
6.752860323E0,3.156133175E0,-1.202632618E1,8.853443861E-1
6.757614906E0,3.428914785E0,-1.212682533E1,5.934200287E-1
6.762369437E0,3.684946775E0,-1.215075302E1,9.571290761E-2
6.767124020E0,4.072584152E0,-1.220578861E1,-3.043670416E0
6.771878604E0,6.532405853E0,-1.270588779E1,-1.869033813E1
6.776633187E0,7.980063438E0,-1.224646664E1,-1.988914108E1
6.781387770E0,7.133004189E0,-1.106201935E1,-1.252881908E1
6.786142354E0,5.434100151E0,-1.013121128E1,-4.929214478E0
6.790896937E0,3.931407690E0,-9.537791252E0,-7.728816867E-1
6.795651520E0,3.395415306E0,-9.131011009E0,8.949156404E-1
6.800406104E0,3.421736479E0,-8.793622971E0,1.557727575E0
6.805160687E0,3.680161238E0,-8.530412674E0,1.940579176E0
6.809915270E0,3.988835335E0,-8.305487633E0,2.194218397E0
6.814669854E0,4.297509670E0,-8.128418922E0,2.404786825E0
6.819424437E0,4.584648132E0,-8.070990562E0,2.646461725E0
6.824179020E0,4.766502857E0,-8.157132149E0,2.837887764E0
6.828933604E0,4.893322468E0,-8.405985832E0,2.981456995E0
6.833688187E0,4.888536453E0,-8.748159409E0,3.172882795E0
6.838442770E0,4.800002098E0,-9.181260109E0,3.402593851E0
6.843197354E0,4.608576298E0,-9.676574707E0,3.641875982E0
6.847951937E0,4.462614059E0,-1.018146038E1,3.979264021E0
6.852706520E0,4.307080746E0,-1.068634605E1,4.615755081E0
6.857461104E0,4.156332970E0,-1.115294647E1,5.331208706E0
6.862215635E0,4.012763500E0,-1.165304661E1,5.898307800E0
6.866970270E0,3.778266907E0,-1.204307652E1,6.214160442E0
6.871724802E0,3.428914785E0,-1.239242840E1,6.206982136E0
6.876479385E0,3.192025423E0,-1.261256790E1,5.943771362E0
6.881234020E0,3.177668571E0,-1.270110226E1,5.436492920E0
6.885988552E0,3.462414265E0,-1.270110226E1,4.819144726E0
6.890743135E0,3.850051641E0,-1.262213898E1,4.252045631E0
6.895497718E0,4.137190342E0,-1.250249863E1,3.806980848E0
6.900252302E0,4.268795490E0,-1.245224857E1,3.493520975E0
6.905006885E0,4.292723656E0,-1.244267750E1,3.282952785E0
6.909761468E0,4.204189301E0,-1.236610699E1,3.129812002E0
6.914516052E0,3.969692707E0,-1.219382381E1,3.038884640E0
6.919270635E0,3.668197155E0,-1.189950657E1,2.964707375E0
6.924025218E0,3.385843992E0,-1.152144146E1,2.859423161E0
6.928779802E0,3.153740168E0,-1.115055370E1,2.675175667E0
6.933534385E0,3.000599623E0,-1.073180962E1,2.440679073E0
6.938288968E0,2.959921598E0,-1.031306553E1,2.160718918E0
6.943043552E0,3.000599623E0,-9.934999466E0,1.813759565E0
6.947798135E0,3.062813044E0,-9.561718941E0,1.392622828E0
6.952552718E0,3.187239647E0,-9.214759827E0,6.675975323E-1
6.957307302E0,3.653840065E0,-9.135796547E0,-6.223731518E0
6.962061885E0,4.733003139E0,-9.458827972E0,-1.710150337E1
6.966816468E0,5.369493961E0,-9.798608780E0,-1.649372673E1
6.971571052E0,5.458028316E0,-1.001635551E1,-9.255437851E0
6.976325635E0,5.347958565E0,-1.023649502E1,-2.730210543E0
6.981080218E0,5.276174068E0,-1.039681435E1,1.105484009E0
6.985834802E0,5.321637630E0,-1.039681435E1,2.797209740E0
6.990589385E0,5.489135265E0,-1.025085258E1,3.184846878E0
6.995343968E0,5.706882000E0,-1.002114105E1,2.749353170E0
7.000098552E0,5.915057659E0,-9.757930756E0,1.543370605E0
7.004853135E0,6.218945980E0,-9.475577354E0,-4.522434771E-1
7.009607718E0,6.599404812E0,-9.183652878E0,-2.804388046E0
7.014362302E0,6.757331371E0,-8.870193481E0,-4.500899315E0
7.019116885E0,6.474977970E0,-8.556734085E0,-4.716253281E0
7.023871468E0,5.910272121E0,-8.367700577E0,-3.677768469E0
7.028626052E0,5.261816978E0,-8.322237015E0,-2.115255117E0
7.033380635E0,4.663611412E0,-8.439485550E0,-7.393822074E-1
7.038135218E0,4.256831646E0,-8.523234367E0,2.105683982E-1
7.042889802E0,3.955335855E0,-8.702695847E0,6.436693072E-1
7.047644385E0,3.739981890E0,-8.884550095E0,7.178468108E-1
7.052398968E0,3.613162279E0,-9.159725189E0,6.269195080E-1
7.057153552E0,3.455235958E0,-9.607182503E0,5.527420044E-1
7.061908135E0,3.230310678E0,-1.011206818E1,6.005984545E-1
7.066662718E0,3.007778168E0,-1.075334454E1,6.364908218E-1
7.071417302E0,2.739781857E0,-1.139222908E1,7.728816867E-1
7.076171885E0,2.400001049E0,-1.213639641E1,8.877372146E-1
7.080926468E0,2.055434704E0,-1.287099266E1,9.140582681E-1
7.085681052E0,1.686939955E0,-1.354576874E1,9.954141974E-1
7.090435635E0,1.287338614E0,-1.417508125E1,1.083948612E0
7.095190218E0,8.638089895E-1,-1.477807236E1,1.179661512E0
7.099944802E0,4.067798555E-1,-1.533320713E1,1.387837172E0
7.104699385E0,-2.392822644E-3,-1.579980755E1,1.600798368E0
7.109453968E0,-4.235295951E-1,-1.613001823E1,1.782652855E0
7.114208552E0,-8.446664214E-1,-1.627837181E1,1.442872047E0
7.118963135E0,-1.170090318E0,-1.631665802E1,3.110669367E-2
7.123717718E0,-1.289731383E0,-1.617548180E1,-2.167897224E0
7.128472302E0,-1.373480201E0,-1.595773411E1,-3.627519131E0
7.133226885E0,-1.502692580E0,-1.560120392E1,-3.326023579E0
7.137981468E0,-1.722832322E0,-1.507717514E1,-1.600798368E0
7.142736052E0,-2.072184324E0,-1.449093437E1,3.062812984E-1
7.147490635E0,-2.581855536E0,-1.402433395E1,1.706082582E0
7.152245218E0,-2.943171740E0,-1.356969738E1,2.478964329E0
7.156999802E0,-3.182454109E0,-1.330170155E1,2.730210543E0
7.161754385E0,-3.225524902E0,-1.294517040E1,2.502892494E0
7.166508968E0,-3.038884640E0,-1.262453270E1,1.947757602E0
7.171263604E0,-2.945564747E0,-1.218664551E1,1.378265858E0
7.176018135E0,-2.589034081E0,-1.168654537E1,1.189232826E0
7.180772770E0,-2.005185366E0,-1.113619614E1,1.272981644E0
7.185527354E0,-1.174875975E0,-1.051645565E1,1.339980721E0
7.190281937E0,-7.178468257E-2,-9.808179855E0,1.201196909E0
7.195036520E0,9.619147182E-1,-9.044869423E0,8.327022791E-1
7.199791104E0,1.844866276E0,-8.367700577E0,1.339980662E-1
7.204545687E0,2.459821701E0,-7.697710514E0,-4.905286431E-1
7.209300270E0,3.031706333E0,-7.190432072E0,-7.752745152E-1
7.214054854E0,3.452843189E0,-6.793223381E0,-6.771687865E-1
7.218809437E0,3.739981890E0,-6.522834301E0,-3.852444589E-1
7.223564020E0,4.024727821E0,-6.429514408E0,-2.632104978E-2
7.228318604E0,4.278367043E0,-6.403193474E0,3.732803464E-1
7.233073187E0,4.462614059E0,-6.345765591E0,5.982056856E-1
7.237827770E0,4.575077057E0,-6.331408501E0,7.633104324E-1
7.242582354E0,4.658825874E0,-6.307480335E0,7.154539824E-1
7.247336937E0,4.654039860E0,-6.307480335E0,6.125625968E-1
7.252091520E0,4.548755646E0,-6.262016773E0,4.522434771E-1
7.256846104E0,4.309473515E0,-6.238088608E0,2.847459018E-1
7.261600687E0,3.945764542E0,-6.288337708E0,1.674975902E-1
7.266355270E0,3.431307554E0,-6.343372822E0,4.067798331E-2
7.271109854E0,2.804388046E0,-6.460621357E0,-1.124626622E-1
7.275864437E0,2.175075769E0,-6.599404812E0,-1.890329868E-1
7.280619020E0,1.596012712E0,-6.745367050E0,-2.177468538E-1
7.285373604E0,1.117448211E0,-6.857829571E0,-2.440679073E-1
7.290128187E0,6.747759581E-1,-6.939185619E0,-2.512463629E-1
7.294882823E0,2.823530734E-1,-6.975078106E0,-2.919243574E-1
7.299637406E0,-5.982056633E-2,-6.965506554E0,-2.847459018E-1
7.304391989E0,-4.187439680E-1,-6.884150982E0,-2.536391914E-1
7.309146573E0,-7.465606928E-1,-6.798008919E0,-2.584248483E-1
7.313901156E0,-9.738788009E-1,-6.697510719E0,-2.799602449E-1
7.318655739E0,-1.234696507E0,-6.522834301E0,-3.014956415E-1
7.323410323E0,-1.497906923E0,-6.340980053E0,-3.230310678E-1
7.328164906E0,-1.674975872E0,-6.149554253E0,-3.206382394E-1
7.332919489E0,-1.782652855E0,-5.958128452E0,-2.943171859E-1
7.337674073E0,-1.928615093E0,-5.735595703E0,-2.799602449E-1
7.342428656E0,-2.079362869E0,-5.484349728E0,-2.751746178E-1
7.347183239E0,-2.167897224E0,-5.292923450E0,-2.847459018E-1
7.351937823E0,-2.170290232E0,-5.127819061E0,-3.373879790E-1
7.356692406E0,-2.057827473E0,-4.989035130E0,-3.014956415E-1
7.361446989E0,-1.835294962E0,-4.898108006E0,-2.057827413E-1
7.366201573E0,-1.605584025E0,-4.814359188E0,-1.651047617E-1
7.370956208E0,-1.447657704E0,-4.704289436E0,-7.417750359E-2
7.375710739E0,-1.270588875E0,-4.651647091E0,-1.196411345E-2
7.380465375E0,-1.055234790E0,-4.579862595E0,3.828516230E-2
7.385219958E0,-7.393822074E-1,-4.608576298E0,1.483550072E-1
7.389974541E0,-2.560320199E-1,-4.747360229E0,2.464607358E-1
7.394729125E0,3.637090325E-1,-4.950749874E0,3.038884699E-1
7.399483708E0,9.236295223E-1,-5.228317261E0,3.182454109E-1
7.404238291E0,1.411765337E0,-5.515456200E0,3.014956415E-1
7.408992875E0,1.875972986E0,-5.831308842E0,2.608176768E-1
7.413747458E0,2.282752752E0,-6.168696880E0,1.483550072E-1
7.418502041E0,2.751745939E0,-6.551548481E0,-4.785645381E-2
7.423256625E0,3.294916868E0,-6.965506554E0,-2.201396823E-1
7.428011208E0,3.862015724E0,-7.436892986E0,-3.254238665E-1
7.432765791E0,4.534399033E0,-7.941778183E0,-2.368894368E-1
7.437520375E0,5.304887772E0,-8.482556343E0,1.579262912E-1
7.442275010E0,6.099305153E0,-9.001798630E0,7.154539824E-1
7.447029593E0,7.020541668E0,-9.487542152E0,1.371087432E0
7.451784177E0,7.917850018E0,-9.915857315E0,2.266003132E0
7.456538760E0,8.798408508E0,-1.031306553E1,3.337987661E0
7.461293343E0,9.743574142E0,-1.076770210E1,4.467400074E0
7.466047927E0,1.072463131E1,-1.131805134E1,5.118247509E0
7.470802510E0,1.170808125E1,-1.196172047E1,4.991427898E0
7.475557093E0,1.279442310E1,-1.235414314E1,4.503292084E0
7.480311677E0,1.363908863E1,-1.252164078E1,4.237689018E0
7.485066260E0,1.440957832E1,-1.256231880E1,3.763910055E0
7.489820843E0,1.469910908E1,-1.237089348E1,3.440878868E0
7.494575427E0,1.484028625E1,-1.195214939E1,3.177668571E0
7.499330062E0,1.549831200E1,-1.139462185E1,2.914458036E0
7.504084645E0,1.599362659E1,-1.079402256E1,2.648854733E0
7.508839229E0,1.644826317E1,-1.021017456E1,2.347358942E0
7.513593812E0,1.655115509E1,-9.765109062E0,1.978864312E0
7.518348395E0,1.643629837E1,-9.281759262E0,1.686939955E0
7.523102979E0,1.620658684E1,-8.853444099E0,1.366301775E0
7.527857562E0,1.573041630E1,-8.367700577E0,1.174875975E0
7.532612145E0,1.512981796E1,-7.817351341E0,9.762716293E-1
7.537366729E0,1.422533035E1,-7.281359196E0,7.298108935E-1
7.542121312E0,1.269870949E1,-6.630511761E0,6.029912829E-1
7.546875895E0,1.040159988E1,-6.037091732E0,5.120640397E-1
7.551630531E0,8.090133667E0,-5.603990555E0,3.756731451E-1
7.556385114E0,6.137589931E0,-5.257031441E0,2.536391914E-1
7.561139698E0,4.632504463E0,-5.063212872E0,1.579262912E-1
7.565894281E0,3.424129248E0,-4.845465660E0,1.746760458E-1
7.570648864E0,2.445464849E0,-4.661218643E0,3.254238665E-1
7.575403448E0,1.643869162E0,-4.613361835E0,6.987041831E-1
7.580158031E0,9.475577474E-1,-4.596612453E0,1.277767301E0
7.584912614E0,3.230310678E-1,-4.661218643E0,1.828116536E0
7.589667198E0,-7.417750359E-2,-4.886143684E0,2.309073925E0
7.594421781E0,-2.321037948E-1,-5.560919762E0,2.794816732E0
7.599176416E0,-2.033899277E-1,-6.896114826E0,2.995813847E0
7.603931000E0,3.589234129E-2,-8.714659691E0,2.208575249E0
7.608685583E0,-7.154539824E-1,-1.064806080E1,-2.842673302E0
7.613440166E0,-2.689532757E0,-1.309591866E1,-1.113858986E1
7.618194750E0,-2.208575249E0,-1.518724537E1,-1.143290615E1
7.622949333E0,-5.479564071E-1,-1.659661865E1,-6.005984783E0
7.627703916E0,8.997012973E-1,-1.782174301E1,-2.368894368E-1
7.632458500E0,1.617548108E0,-1.912822342E1,2.622533560E0
7.637213135E0,2.041077614E0,-2.076730728E1,2.778067112E0
7.641967666E0,2.488535643E0,-2.238724899E1,2.522035122E0
7.646722302E0,2.756531715E0,-2.382533455E1,2.677568436E0
7.651476885E0,3.330809116E0,-2.529452896E1,3.000599623E0
7.656231468E0,3.629911900E0,-2.569173622E1,3.622733593E0
7.660986052E0,4.115654945E0,-2.478007126E1,4.199403763E0
7.665740635E0,4.527220249E0,-2.223889351E1,4.369294167E0
7.670495218E0,4.579862595E0,-1.947996902E1,4.063013077E0
7.675249802E0,4.223331928E0,-1.702014732E1,3.407379389E0
7.680004385E0,3.591626883E0,-1.500778389E1,2.577069998E0
7.684759020E0,2.866601467E0,-1.325862980E1,1.622333765E0
7.689513604E0,2.017149448E0,-1.153579807E1,-3.206382394E-1
7.694268187E0,2.153540403E-2,-9.525827408E0,-4.673182487E0
7.699022770E0,-1.584048629E0,-8.556734085E0,-5.697310925E0
7.703777354E0,-1.153340459E0,-8.477770805E0,-3.589233875E0
7.708531937E0,-3.996013701E-1,-8.370093346E0,-1.514656782E0
7.713286520E0,1.028913707E-1,-8.159524918E0,-5.766702294E-1
7.718041104E0,2.368894368E-1,-7.721638680E0,-3.278166950E-1
7.722795739E0,1.411765367E-1,-7.247859955E0,-3.086741269E-1
7.727550323E0,-2.153540403E-2,-6.778866768E0,-2.871387303E-1
7.732304906E0,-3.230310678E-1,-6.190232277E0,-1.794617027E-1
7.737059489E0,-6.173482537E-1,-5.642275810E0,-1.435693540E-2
7.741814073E0,-7.896314859E-1,-5.206781864E0,1.148554832E-1
7.746568656E0,-8.350951076E-1,-4.831109047E0,1.603191197E-1
7.751323239E0,-9.571290612E-1,-4.517649174E0,1.794617027E-1
7.756077823E0,-1.016949654E0,-4.345366001E0,9.810572863E-2
7.760832458E0,-9.834501147E-1,-4.240081787E0,4.785645287E-3
7.765587041E0,-9.643075466E-1,-4.185046673E0,-3.828516230E-2
7.770341625E0,-1.036092162E0,-4.182653904E0,-5.742774159E-2
7.775096208E0,-1.158126116E0,-4.292723656E0,-6.699903309E-2
7.779850791E0,-1.196411371E0,-4.591826439E0,-4.067798331E-2
7.784605375E0,-1.031306505E0,-5.067998409E0,8.135596663E-2
7.789359958E0,-9.284151793E-1,-5.663811207E0,1.435693651E-1
7.794114541E0,-8.111668825E-1,-6.400800705E0,1.411765367E-1
7.798869177E0,-7.274180651E-1,-7.173682213E0,3.349951804E-1
7.803623760E0,-6.987041831E-1,-8.078168869E0,6.652047038E-1
7.808378343E0,-9.355936646E-1,-8.956335068E0,1.194018483E0
7.813132927E0,-8.901300430E-1,-9.899106979E0,2.416750908E0
7.817887510E0,-7.537391186E-1,-1.083709335E1,3.723232031E0
7.822642093E0,-7.298108935E-1,-1.181336498E1,5.070391178E0
7.827396677E0,-6.460621357E-1,-1.272263813E1,6.159125328E0
7.832151260E0,-6.604190469E-1,-1.351466274E1,7.190432072E0
7.836905895E0,-6.819544435E-1,-1.419661713E1,8.085348129E0
7.841660479E0,-8.901300430E-1,-1.466561031E1,8.719446182E0
7.846415062E0,-1.189232826E0,-1.483071518E1,9.288937569E0
7.851169645E0,-1.524227977E0,-1.470628834E1,9.647860527E0
7.855924229E0,-1.818545222E0,-1.434497166E1,9.671789169E0
7.860678812E0,-2.132004976E0,-1.367976665E1,9.394221306E0
7.865433448E0,-2.172683001E0,-1.280160141E1,8.760123253E0
7.870188031E0,-1.986042738E0,-1.187557888E1,7.846065521E0
7.874942614E0,-1.533799291E0,-1.107876873E1,6.953542709E0
7.879697198E0,-1.036092162E0,-1.033220863E1,6.101697922E0
7.884451781E0,-6.293123364E-1,-9.688538551E0,5.237888813E0
7.889206364E0,-2.703889608E-1,-9.114261627E0,4.419543266E0
7.893960948E0,2.632104978E-2,-8.662017822E0,3.704089403E0
7.898715583E0,2.560320199E-1,-8.267202377E0,3.084348440E0
7.903470166E0,3.732803464E-1,-7.965706348E0,2.541177750E0
7.908224750E0,4.881358147E-1,-7.745566845E0,2.091326952E0
7.912979333E0,5.862415433E-1,-7.625925541E0,1.732403636E0
7.917733916E0,6.819544435E-1,-7.606783390E0,1.459621787E0
7.922488500E0,8.015955687E-1,-7.714460373E0,1.256231904E0
7.927243135E0,8.949156404E-1,-7.908278942E0,1.095912814E0
7.931997718E0,9.954141974E-1,-8.173882484E0,9.714859724E-1
7.936752302E0,1.127019525E0,-8.465806961E0,8.733802438E-1
7.941506885E0,1.256231904E0,-8.764909744E0,8.327022791E-1
7.946261468E0,1.347159147E0,-9.064012527E0,8.350951076E-1
7.951016052E0,1.354337573E0,-9.367900848E0,8.183453679E-1
7.955770635E0,1.349551916E0,-9.638289452E0,8.470591903E-1
7.960525270E0,1.299302697E0,-9.903892517E0,8.805587292E-1
7.965279854E0,1.294517040E0,-1.014796066E1,9.379864931E-1
7.970034437E0,1.277767301E0,-1.036092186E1,1.043270707E0
7.974789020E0,1.296909928E0,-1.056431198E1,1.165304661E0
7.979543604E0,1.306481123E0,-1.076530933E1,1.261017561E0
7.984298187E0,1.354337573E0,-1.087777138E1,1.347159147E0
7.989052823E0,1.402194023E0,-1.100459099E1,1.409372568E0
7.993807406E0,1.548156261E0,-1.107159042E1,1.438086390E0
7.998561989E0,1.746760488E0,-1.116969585E1,1.457229018E0
8.003316573E0,2.009970903E0,-1.117448139E1,1.416550994E0
8.008071156E0,2.275574446E0,-1.115294647E1,1.342373490E0
8.012825739E0,2.476571321E0,-1.112901783E1,1.237089276E0
8.017580323E0,2.694318295E0,-1.108116150E1,1.134197950E0
8.022334958E0,2.835494757E0,-1.099023438E1,1.004985452E0
8.027089541E0,2.888136864E0,-1.085623646E1,8.015955687E-1
8.031844125E0,2.919243574E0,-1.075334454E1,5.335994363E-1
8.036598708E0,2.921636343E0,-1.058106136E1,2.751746178E-1
8.041353343E0,2.921636343E0,-1.040877819E1,4.307080805E-2
8.046107927E0,2.861815929E0,-1.019342422E1,-1.387837082E-1
8.050862510E0,2.821137905E0,-1.002114105E1,-2.991028428E-1
8.055617093E0,2.756531715E0,-9.836894035E0,-4.522434771E-1
8.060371677E0,2.684746981E0,-9.633503914E0,-7.585247755E-1
8.065126260E0,2.371287346E0,-9.492327690E0,-6.163911343E0
8.069880843E0,1.825723648E0,-9.533005714E0,-2.422972298E1
8.074635479E0,1.921436548E0,-8.659625053E0,-1.987478447E1
8.079390062E0,2.203789711E0,-7.889136314E0,-8.003992081E0
8.084144645E0,2.258824587E0,-7.621140003E0,-2.081755638E0
8.088899229E0,2.148754835E0,-7.479963779E0,-1.698904037E-1
8.093653812E0,2.251646042E0,-7.259823799E0,1.579262912E-1
8.098408395E0,2.366501570E0,-7.130611420E0,2.297109663E-1
8.103163031E0,2.574677229E0,-7.051648140E0,3.445664644E-1
8.107917614E0,2.778067112E0,-7.080362320E0,5.551348329E-1
8.112672198E0,3.048455954E0,-7.099504948E0,8.398807645E-1
8.117426781E0,3.491128206E0,-7.262216568E0,1.201196909E0
8.122181364E0,4.058227062E0,-7.527820110E0,1.576870084E0
8.126936000E0,4.618147850E0,-7.858029366E0,1.871187329E0
8.131690583E0,5.132604599E0,-8.190631866E0,2.146361828E0
8.136445166E0,5.541777134E0,-8.477770805E0,2.409572363E0
8.141199750E0,5.900700569E0,-8.736195564E0,2.682354212E0
8.145954333E0,6.130411625E0,-8.953942299E0,2.921636343E0
8.150708916E0,6.305087566E0,-9.121439934E0,3.105883837E0
8.155463552E0,6.324230194E0,-9.190832138E0,3.227917671E0
8.160218135E0,6.247660160E0,-9.267401695E0,3.373879910E0
8.164972718E0,6.149554253E0,-9.317651749E0,3.510270834E0
8.169727302E0,6.017949104E0,-9.312865257E0,3.706482172E0
8.174481885E0,5.795416355E0,-9.212367058E0,3.883551121E0
8.179236520E0,5.630311489E0,-9.025727272E0,4.027120590E0
8.183991104E0,5.446064472E0,-8.810373306E0,4.156332970E0
8.188745687E0,5.273781300E0,-8.446663857E0,4.201796532E0
8.193500270E0,5.132604599E0,-7.960920811E0,4.170690060E0
8.198254854E0,4.843072891E0,-7.525427341E0,3.979264021E0
8.203009437E0,4.563112736E0,-7.164111137E0,3.510270834E0
8.207764073E0,4.326223373E0,-6.936792850E0,2.888136864E0
8.212518656E0,4.118047714E0,-6.903293133E0,2.225325108E0
8.217273239E0,4.067798615E0,-7.044469833E0,1.627119422E0
8.222027823E0,4.168296814E0,-7.436892986E0,1.124626637E0
8.226782406E0,4.378865242E0,-7.901100159E0,7.609176040E-1
8.231537041E0,4.577469826E0,-8.441878319E0,4.378865361E-1
8.236291625E0,4.711467743E0,-8.925228119E0,2.225325108E-1
8.241046208E0,4.914857864E0,-9.418149948E0,1.172483116E-1
8.245800791E0,5.139782906E0,-9.844072342E0,-2.392822644E-3
8.250555375E0,5.264209747E0,-1.026999474E1,-5.407779217E-1
8.255310010E0,5.273781300E0,-1.112423229E1,-5.056034088E0
8.260064593E0,5.113461971E0,-1.235653591E1,-1.404108334E1
8.264819177E0,5.508277893E0,-1.312463188E1,-1.562752438E1
8.269573760E0,5.898307800E0,-1.295234871E1,-7.922635555E0
8.274328343E0,5.879165173E0,-1.235414314E1,-2.108076811E0
8.279082979E0,5.946164131E0,-1.214836025E1,6.723831892E-1
8.283837562E0,6.092126369E0,-1.228953743E1,2.170290232E0
8.288592145E0,6.163911343E0,-1.260538960E1,3.125026464E0
8.293346729E0,6.171089649E0,-1.299302673E1,3.527020693E0
8.298101312E0,6.211767673E0,-1.347637749E1,3.110669374E0
8.302855948E0,6.319444656E0,-1.400997639E1,1.119840980E0
8.307610531E0,6.407979012E0,-1.457946873E1,-2.730210543E0
8.312365114E0,6.015556335E0,-1.500778389E1,-6.273981094E0
8.317119698E0,5.426921844E0,-1.530210114E1,-7.121040344E0
8.321874281E0,4.886143684E0,-1.561316776E1,-5.319244862E0
8.326628916E0,4.364508629E0,-1.594577026E1,-2.739781857E0
8.331383500E0,3.854837179E0,-1.634537125E1,-5.647061467E-1
8.336138083E0,3.426522017E0,-1.669711685E1,9.954141974E-1
8.340892666E0,3.053241730E0,-1.707518196E1,1.892722726E0
8.345647250E0,2.706282377E0,-1.752503395E1,2.507678032E0
8.350401885E0,2.337787628E0,-1.789352798E1,2.701496840E0
8.355156468E0,1.950150490E0,-1.809930992E1,2.533999205E0
8.359911052E0,1.450050473E0,-1.837687874E1,2.041077614E0
8.364665635E0,1.019342422E0,-1.865683746E1,1.581655741E0
8.369420218E0,4.833501875E-1,-1.896551132E1,1.282552958E0
8.374174854E0,-3.014956415E-1,-1.928375816E1,1.000199914E0
8.378929437E0,-1.167697430E0,-1.936511421E1,7.561319470E-1
8.383684020E0,-2.213361025E0,-1.933400726E1,3.756731451E-1
8.388438604E0,-3.474378586E0,-1.909711838E1,4.785645287E-3
8.393193187E0,-4.941178799E0,-1.859223175E1,-2.321037948E-1
8.397947823E0,-6.027520180E0,-1.798684692E1,-4.713860750E-1
8.402702406E0,-6.187839508E0,-1.716371727E1,-3.804588020E-1
8.407456989E0,-5.618347645E0,-1.622573090E1,8.853443712E-2
8.412211573E0,-4.778466702E0,-1.534995747E1,6.293123364E-1
8.416966208E0,-4.031906128E0,-1.455075455E1,1.282552958E0
8.421720791E0,-3.330809116E0,-1.399083424E1,1.789831281E0
8.426475375E0,-2.624926329E0,-1.348594856E1,2.199003935E0
8.431229958E0,-1.926222205E0,-1.293799210E1,2.505285263E0
8.435984541E0,-1.043270707E0,-1.235175037E1,2.239681959E0
8.440739177E0,-2.249253243E-1,-1.177986622E1,1.612762451E0
8.445493760E0,4.163511395E-1,-1.111226845E1,8.542376757E-1
8.450248343E0,9.355936646E-1,-1.036570740E1,-4.546362907E-2
8.455002927E0,1.301695466E0,-9.592825890E0,-1.040877819E0
8.459757510E0,1.533799291E0,-8.798408508E0,-1.806581140E0
8.464512145E0,1.737189293E0,-8.111668587E0,-2.301895380E0
8.469266729E0,1.911865234E0,-7.496713161E0,-2.273181438E0
8.474021312E0,1.904686809E0,-6.924828529E0,-1.593619823E0
8.478775895E0,1.945364833E0,-6.463014126E0,-9.499505758E-1
8.483530479E0,1.907079697E0,-6.094519138E0,-3.493520916E-1
8.488285114E0,1.873580098E0,-5.785845280E0,2.057827413E-1
8.493039698E0,1.871187329E0,-5.587240696E0,8.566305041E-1
8.497794281E0,1.864008784E0,-5.441278458E0,1.203589797E0
8.502548864E0,1.777867198E0,-5.285745144E0,1.380658627E0
8.507303500E0,1.684547186E0,-5.223531723E0,1.550549030E0
8.512058083E0,1.569691658E0,-5.199603558E0,1.639083505E0
8.516812666E0,1.454836130E0,-5.249852657E0,1.847259045E0
8.521567250E0,1.232303619E0,-5.312066078E0,1.866401672E0
8.526321885E0,9.164510965E-1,-5.338387489E0,1.840080619E0
8.531076468E0,5.934200287E-1,-5.505885124E0,1.816152334E0
8.535831052E0,2.679961324E-1,-5.754738331E0,1.689332843E0
8.540585635E0,2.632104978E-2,-6.008377552E0,1.478764415E0
8.545340218E0,-1.579262912E-1,-6.307480335E0,1.172483087E0
8.550094854E0,-1.531406492E-1,-6.647261143E0,7.776673436E-1
8.554849437E0,-2.177468538E-1,-6.912864685E0,2.823530734E-1
8.559604020E0,-3.230310678E-1,-7.202396393E0,-8.853443712E-2
8.564358604E0,-6.029912829E-1,-7.391428947E0,-2.488535494E-1
8.569113239E0,-8.901300430E-1,-7.551748276E0,-2.991028428E-1
8.573867823E0,-1.153340459E0,-7.647460938E0,-2.584248483E-1
8.578622406E0,-1.416550994E0,-7.659425259E0,-1.722832322E-1
8.583376989E0,-1.741974831E0,-7.647460938E0,-2.632104978E-2
8.588131625E0,-2.062613010E0,-7.575676441E0,1.148554832E-1
8.592886208E0,-2.337787628E0,-7.456035137E0,2.440679073E-1
8.597640791E0,-2.452643156E0,-7.314858913E0,3.206382394E-1
8.602395375E0,-2.510071039E0,-7.180860519E0,3.373879790E-1
8.607149958E0,-2.490928411E0,-7.051648140E0,1.890329868E-1
8.611904593E0,-2.462214470E0,-6.934400082E0,-2.871387079E-2
8.616659177E0,-2.488535643E0,-6.800402164E0,-3.182454109E-1
8.621413760E0,-2.500499725E0,-6.719046116E0,-5.503492355E-1
8.626168343E0,-2.476571321E0,-6.613761902E0,-7.944171429E-1
8.630922979E0,-2.359323025E0,-6.546762943E0,-1.002592683E0
8.635677562E0,-2.155933142E0,-6.506084919E0,-1.155733347E0
8.640432145E0,-1.952543259E0,-6.458228111E0,-1.313659668E0
8.645186729E0,-1.651047587E0,-6.431907177E0,-1.395015597E0
8.649941312E0,-1.174875975E0,-6.424728870E0,-1.454836130E0
8.654695948E0,-4.091726840E-1,-6.503692150E0,-1.584048629E0
8.659450531E0,3.637090325E-1,-6.553941250E0,-1.730010748E0
8.664205114E0,9.954141974E-1,-6.577869415E0,-1.859223247E0
8.668959698E0,1.598405480E0,-6.628118515E0,-1.966900229E0
8.673714333E0,2.100898266E0,-6.745367050E0,-2.017149448E0
8.678468916E0,2.658426046E0,-6.915257454E0,-1.864008784E0
8.683223500E0,3.347558975E0,-7.087540627E0,-1.428515077E0
8.687978083E0,4.173082829E0,-7.341179848E0,-6.005984545E-1
8.692732718E0,5.044070244E0,-7.573283672E0,5.862415433E-1
8.697487302E0,5.881557941E0,-7.762316704E0,2.060220242E0
8.702241885E0,6.568298340E0,-7.915457249E0,3.582055569E0
8.706996468E0,7.130611420E0,-7.989634991E0,5.000999451E0
8.711751104E0,7.652246952E0,-8.147561073E0,6.092126369E0
8.716505687E0,8.372486115E0,-8.561519623E0,6.687939167E0
8.721260270E0,9.363115311E0,-9.159725189E0,6.874579430E0
8.726014854E0,1.048295593E1,-9.923035622E0,6.652047157E0
8.730769489E0,1.166501045E1,-1.072463131E1,5.984449387E0
8.735524073E0,1.245942783E1,-1.139222908E1,5.388636589E0
8.740278656E0,1.311506081E1,-1.199761295E1,4.790431023E0
8.745033239E0,1.370130253E1,-1.242832088E1,4.206582069E0
8.749787875E0,1.402672672E1,-1.253121185E1,3.730410576E0
8.754542458E0,1.428275871E1,-1.236132145E1,3.395415306E0
8.759297041E0,1.478046513E1,-1.211007500E1,3.093919754E0
8.764051625E0,1.548395538E1,-1.171765232E1,2.816352367E0
8.768806208E0,1.608455467E1,-1.126780224E1,2.548356056E0
8.773560843E0,1.643629837E1,-1.087298584E1,2.488535643E0
8.778315427E0,1.662533188E1,-1.046381378E1,2.421536446E0
8.783070010E0,1.651286888E1,-9.963713646E0,2.440679073E0
8.787824593E0,1.601037598E1,-9.365508080E0,2.555534601E0
8.792579229E0,1.529970837E1,-8.642875671E0,2.713460922E0
8.797333812E0,1.412004662E1,-7.855636597E0,2.885744095E0
8.802088395E0,1.239482117E1,-7.123433113E0,3.115455151E0
8.806842979E0,1.019342422E1,-6.558726788E0,3.261417150E0
8.811597614E0,8.011170387E0,-6.218945980E0,3.213560820E0
8.816352198E0,6.168696880E0,-6.001199245E0,3.017349243E0
8.821106781E0,4.651647091E0,-5.840879917E0,2.756531715E0
8.825861364E0,3.443271875E0,-5.795416355E0,2.474178553E0
8.830616000E0,2.541177750E0,-5.816951752E0,2.275574446E0
8.835370583E0,1.935793519E0,-6.001199245E0,2.091326952E0
8.840125166E0,1.591227055E0,-6.384050846E0,1.904686809E0
8.844879802E0,1.586441398E0,-7.164111137E0,1.775474429E0
8.849634385E0,1.947757602E0,-8.434700012E0,1.641476393E0
8.854388968E0,2.438286304E0,-1.008335495E1,1.284945726E0
8.859143552E0,2.634497643E0,-1.189711380E1,-1.339980662E-1
8.863898135E0,2.266003132E0,-1.393101311E1,-3.201596737E0
8.868652770E0,1.974078655E0,-1.586202145E1,-4.393222332E0
8.873407354E0,2.318645239E0,-1.755853271E1,-2.321038008E0
8.878161937E0,2.682354212E0,-1.905644035E1,8.518448472E-1
8.882916520E0,2.806781054E0,-2.048256111E1,3.029313564E0
8.887671156E0,2.801995277E0,-2.180100632E1,3.998406649E0
8.892425739E0,2.763710260E0,-2.295913315E1,4.091726780E0
8.897180323E0,2.794816732E0,-2.374397850E1,4.082155228E0
8.901934906E0,2.876172781E0,-2.377747917E1,4.108476639E0
8.906689541E0,2.818745136E0,-2.169333076E1,3.902693748E0
8.911444125E0,2.471785784E0,-1.879801559E1,3.302095175E0
8.916198708E0,1.904686809E0,-1.598884106E1,2.512463808E0
8.920953291E0,1.253839016E0,-1.359123230E1,1.619940877E0
8.925707927E0,7.561319470E-1,-1.149272728E1,6.747759581E-1
8.930462510E0,8.135596663E-2,-9.377471924E0,-2.175075769E0
8.935217093E0,-8.542376757E-1,-7.087540627E0,-5.230710506E0
8.939971729E0,-1.596012712E0,-5.989234924E0,-4.311866283E0
8.944726312E0,-1.895115495E0,-5.845665932E0,-2.452643156E0
8.949480895E0,-1.751546144E0,-6.080162525E0,-7.968099117E-1
8.954235479E0,-1.335195065E0,-6.266802311E0,2.392822690E-2
8.958990062E0,-8.925228715E-1,-6.192625046E0,3.182454109E-1
8.963744698E0,-5.742774606E-1,-5.965306759E0,4.666004181E-1
8.968499281E0,-4.235295951E-1,-5.589633465E0,5.982056856E-1
8.973253864E0,-5.192425251E-1,-5.240281582E0,6.412764788E-1
8.978008500E0,-6.699903607E-1,-5.044070244E0,5.599204898E-1
8.982763083E0,-9.092726111E-1,-4.823930264E0,3.732803464E-1
8.987517666E0,-1.028913736E0,-4.673182487E0,1.938186288E-1
8.992272250E0,-1.270588875E0,-4.474578381E0,5.503492057E-2
8.997026885E0,-1.404586911E0,-4.321437836E0,-3.349951655E-2
9.001781468E0,-1.500299811E0,-4.237689018E0,-4.307080805E-2
9.006536052E0,-1.514656782E0,-4.158725739E0,-8.614161611E-2
9.011290635E0,-1.600798368E0,-4.235296249E0,-1.052841991E-1
9.016045218E0,-1.727617979E0,-4.515256405E0,-8.374879509E-2
9.020799854E0,-1.765903115E0,-5.041677475E0,-5.742774159E-2
9.025554437E0,-1.765903115E0,-5.781059742E0,-9.332008660E-2
9.030309020E0,-1.560120344E0,-6.664011002E0,-5.024927482E-2
9.035063656E0,-1.258624673E0,-7.690532207E0,1.076770201E-1
9.039818239E0,-9.212366939E-1,-8.724231720E0,3.613162339E-1
9.044572823E0,-5.383850932E-1,-9.657432556E0,5.144568682E-1
9.049327406E0,-5.982056633E-2,-1.056191921E1,7.058826685E-1
9.054082041E0,3.445664644E-1,-1.127019501E1,8.518448472E-1
9.058836625E0,5.599204898E-1,-1.188275719E1,1.095912814E0
9.063591208E0,6.532405615E-1,-1.237807178E1,1.354337573E0
9.068345791E0,6.771687865E-1,-1.278963661E1,1.593619823E0
9.073100427E0,6.819544435E-1,-1.310309696E1,1.904686809E0
9.077855010E0,6.843472719E-1,-1.331127262E1,2.330609322E0
9.082609593E0,6.723831892E-1,-1.342612743E1,2.845066071E0
9.087364177E0,6.939185858E-1,-1.339502144E1,3.361915827E0
9.092118812E0,6.604190469E-1,-1.320359516E1,3.845266104E0
9.096873395E0,7.130611539E-1,-1.286142159E1,4.216153622E0
9.101627979E0,8.877372146E-1,-1.242592812E1,4.462614059E0
9.106382614E0,1.031306505E0,-1.185882950E1,4.579862595E0
9.111137198E0,1.261017561E0,-1.129651546E1,4.587040901E0
9.115891781E0,1.502692580E0,-1.071266651E1,4.524827480E0
9.120646364E0,1.732403636E0,-1.021974564E1,4.390829563E0
9.125401000E0,1.878365755E0,-9.762716293E0,4.230510235E0
9.130155583E0,1.983649969E0,-9.389435768E0,3.991228104E0
9.134910166E0,1.998006940E0,-9.040083885E0,3.493520975E0
9.139664750E0,2.031506538E0,-8.774480820E0,2.895315409E0
9.144419385E0,1.988435626E0,-8.532805443E0,2.438286304E0
9.149173968E0,1.904686809E0,-8.365307808E0,2.120040894E0
9.153928552E0,1.751546144E0,-8.219346046E0,1.921436548E0
9.158683135E0,1.634297848E0,-8.128418922E0,1.837687731E0
9.163437770E0,1.514656782E0,-8.094919205E0,1.854437590E0
9.168192354E0,1.426122308E0,-8.092526436E0,1.952543259E0
9.172946937E0,1.246660590E0,-8.090133667E0,2.084148407E0
9.177701520E0,1.115055323E0,-8.157132149E0,2.342573404E0
9.182456156E0,1.191625714E0,-8.161917686E0,2.464607239E0
9.187210739E0,1.466800332E0,-8.238488197E0,2.213361025E0
9.191965323E0,1.691725612E0,-8.396414757E0,1.942971945E0
9.196719958E0,1.849651933E0,-8.568697929E0,1.732403636E0
9.201474541E0,2.055434704E0,-8.671588898E0,1.502692580E0
9.206229125E0,2.440679073E0,-8.779266357E0,1.469193101E0
9.210983708E0,3.158525944E0,-8.836693764E0,2.344966173E0
9.215738343E0,3.541377544E0,-8.989834785E0,3.010170937E0
9.220492927E0,3.723232031E0,-9.205188751E0,3.225524902E0
9.225247510E0,4.007977962E0,-9.346364975E0,3.263810158E0
9.230002093E0,4.175475597E0,-9.477970123E0,3.125026464E0
9.234756729E0,4.206582069E0,-9.518648148E0,2.837887764E0
9.239511312E0,4.259224415E0,-9.628718376E0,2.548356056E0
9.244265895E0,4.197010994E0,-9.686145782E0,2.285145521E0
9.249020531E0,4.156332970E0,-9.700503349E0,2.096112728E0
9.253775114E0,4.115654945E0,-9.662218094E0,1.962114573E0
9.258529698E0,4.065405846E0,-9.650253296E0,1.861616015E0
9.263284281E0,4.029513359E0,-9.655039787E0,1.684547186E0
9.268038916E0,3.933800459E0,-9.674181938E0,1.454836130E0
9.272793500E0,3.809373617E0,-9.726823807E0,1.215553880E0
9.277548083E0,3.661018610E0,-9.743574142E0,9.762716293E-1
9.282302666E0,3.481556892E0,-9.731609344E0,8.183453679E-1
9.287057302E0,3.359523058E0,-9.786644936E0,6.771687865E-1
9.291811885E0,3.215953588E0,-9.810572624E0,5.910272002E-1
9.296566468E0,3.067598581E0,-9.844072342E0,5.048855543E-1
9.301321104E0,2.878565550E0,-9.920642853E0,3.972085714E-1
9.306075687E0,2.768495798E0,-9.987641335E0,3.206382394E-1
9.310830270E0,2.591426849E0,-1.003310490E1,2.297109663E-1
9.315584854E0,2.459821701E0,-1.007139015E1,1.627119333E-1
9.320339489E0,2.316252232E0,-1.008335495E1,4.067798331E-2
9.325094073E0,2.177468538E0,-1.006660461E1,-6.699903309E-2
9.329848656E0,2.053041935E0,-1.001635551E1,-1.818545163E-1
9.334603239E0,1.974078655E0,-9.925428391E0,-2.679961324E-1
9.339357875E0,1.880758643E0,-9.817750931E0,-3.445664644E-1
9.344112458E0,1.770688772E0,-9.738788605E0,-4.331009090E-1
9.348867041E0,1.715653777E0,-9.647860527E0,-5.264210105E-1
9.353621625E0,1.653440475E0,-9.561718941E0,-5.790630579E-1
9.358376260E0,1.607976794E0,-9.533005714E0,-6.317051649E-1
9.363130843E0,1.584048629E0,-9.511469841E0,-6.987041831E-1
9.367885427E0,1.560120344E0,-9.513862610E0,-7.345965505E-1
9.372640062E0,1.524227977E0,-9.516255379E0,-7.657032609E-1
9.377394645E0,1.495514154E0,-9.552147865E0,-8.231309652E-1
9.382149229E0,1.397408366E0,-9.552147865E0,-1.012163997E0
9.386903812E0,1.031306505E0,-9.568898201E0,-1.887937069E0
9.391658448E0,3.684946895E-1,-9.616754532E0,-3.684946775E0
9.396413031E0,-1.507478207E-1,-9.676574707E0,-5.000999451E0
9.401167614E0,-0.000000000E0,-9.750752449E0,-4.438685894E0
9.405922198E0,6.891329288E-1,-9.738788605E0,-2.699103832E0
9.410676833E0,1.361516118E0,-9.659825325E0,-1.050449133E0
9.415431416E0,1.856830359E0,-9.556933403E0,-7.417750359E-2
9.420186000E0,2.124826431E0,-9.523433685E0,4.067798555E-1
9.424940635E0,2.364108801E0,-9.533005714E0,6.412764788E-1
9.429695218E0,2.567498684E0,-9.595218658E0,8.662018180E-1
9.434449802E0,2.790031195E0,-9.669396400E0,1.062413216E0
9.439204385E0,3.026920557E0,-9.769894600E0,1.246660590E0
9.443959020E0,3.354737282E0,-9.915857315E0,1.478764415E0
9.448713604E0,3.771088600E0,-1.010249710E1,1.792224169E0
9.453468187E0,4.273581028E0,-1.029392338E1,2.167897224E0
9.458222823E0,4.730610371E0,-1.044945621E1,2.550748825E0
9.462977406E0,5.146961689E0,-1.062652493E1,2.943171740E0
9.467731989E0,5.522634506E0,-1.073898792E1,3.500699520E0
9.472486573E0,5.807380676E0,-1.081077290E1,4.180261135E0
9.477241208E0,5.860022545E0,-1.087537861E1,4.816751957E0
9.481995791E0,5.821737289E0,-1.088255692E1,5.288137913E0
9.486750375E0,5.644668579E0,-1.083470058E1,5.687739372E0
9.491504958E0,5.211567879E0,-1.085145092E1,5.778666496E0
9.496259593E0,4.701896667E0,-1.098066330E1,5.489135265E0
9.501014177E0,4.256831646E0,-1.117687416E1,5.034498692E0
9.505768760E0,4.106083870E0,-1.141376400E1,4.469792843E0
9.510523395E0,4.122833252E0,-1.161715412E1,3.857230186E0
9.515277979E0,4.278367043E0,-1.172004509E1,3.275774240E0
9.520032562E0,4.424329281E0,-1.175593758E1,2.780459881E0
9.524787145E0,4.493721008E0,-1.170090294E1,2.385644197E0
9.529541781E0,4.405186653E0,-1.149990559E1,2.098505497E0
9.534296364E0,4.144368649E0,-1.125583744E1,1.885544300E0
9.539050948E0,3.847658873E0,-1.091844940E1,1.701296926E0
9.543805531E0,3.596412420E0,-1.062652493E1,1.519442320E0
9.548560166E0,3.498306751E0,-1.037527943E1,1.344766378E0
9.553314750E0,3.515056372E0,-1.015513897E1,1.112662554E0
9.558069333E0,3.500699520E0,-9.961320877E0,7.465606928E-1
9.562823968E0,3.512663603E0,-9.829715729E0,-1.622333765E0
9.567578552E0,3.993621111E0,-1.000199890E1,-9.801001549E0
9.572333135E0,4.931607246E0,-1.020538902E1,-1.188993549E1
9.577087718E0,5.611168861E0,-1.014078236E1,-8.518448830E0
9.581842354E0,5.802595139E0,-9.939785004E0,-3.897907972E0
9.586596937E0,5.620740414E0,-9.702896118E0,-5.647061467E-1
9.591351520E0,5.450850010E0,-9.375079155E0,1.270588875E0
9.596106156E0,5.572884083E0,-9.071190834E0,2.160718918E0
9.600860739E0,5.869594097E0,-8.815158844E0,2.407179594E0
9.605615323E0,6.216553211E0,-8.547162056E0,2.096112728E0
9.610369906E0,6.630511761E0,-8.257631302E0,9.236295223E-1
9.615124541E0,7.401000500E0,-8.090133667E0,-1.471585870E0
9.619879125E0,8.147561073E0,-7.963313580E0,-3.785445452E0
9.624633708E0,8.496912956E0,-7.956135273E0,-4.670789719E0
9.629388291E0,8.334200859E0,-8.073383331E0,-3.713660717E0
9.634142927E0,7.843672752E0,-8.360522270E0,-1.928615093E0
9.638897510E0,7.171289444E0,-8.812766075E0,-2.273181528E-1
9.643652093E0,6.625725746E0,-9.360722542E0,6.819544435E-1
9.648406729E0,6.202196121E0,-9.913464546E0,9.643075466E-1
9.653161312E0,5.666203976E0,-1.056191921E1,7.537391186E-1
9.657915895E0,4.902893543E0,-1.125823021E1,4.259224236E-1
9.662670531E0,4.122833252E0,-1.196889877E1,1.555334777E-1
9.667425114E0,3.366701365E0,-1.268913841E1,9.332008660E-2
9.672179698E0,2.670390129E0,-1.340937805E1,2.201396823E-1
9.676934281E0,2.141576290E0,-1.419661713E1,4.905286431E-1
9.681688916E0,1.643869162E0,-1.499103355E1,6.963114142E-1
9.686443500E0,1.237089276E0,-1.572323799E1,9.164510965E-1
9.691198083E0,7.944171429E-1,-1.634297943E1,1.069591761E0
9.695952666E0,2.967100143E-1,-1.678804398E1,1.256231904E0
9.700707302E0,-1.986042857E-1,-1.705603981E1,1.409372568E0
9.705461885E0,-6.269195080E-1,-1.707996750E1,1.651047587E0
9.710216468E0,-1.170090318E0,-1.696032715E1,1.801795483E0
9.714971104E0,-1.753939033E0,-1.671625900E1,1.694118381E0
9.719725687E0,-2.636890650E0,-1.628076553E1,8.207381964E-1
9.724480270E0,-3.833301783E0,-1.570888042E1,-1.820937991E0
9.729234854E0,-4.780859470E0,-1.508674717E1,-4.275974274E0
9.733989489E0,-4.816751957E0,-1.448375511E1,-4.424329281E0
9.738744073E0,-4.177868366E0,-1.390469265E1,-2.234896421E0
9.743498656E0,-3.412165165E0,-1.358166122E1,3.565305769E-1
9.748253239E0,-2.900100946E0,-1.327298737E1,2.074577332E0
9.753007875E0,-2.742174864E0,-1.309591866E1,2.830709219E0
9.757762458E0,-2.737389088E0,-1.306481171E1,2.981456995E0
9.762517041E0,-2.641676188E0,-1.301934814E1,2.682354212E0
9.767271677E0,-2.184647083E0,-1.294038486E1,2.098505497E0
9.772026260E0,-1.775474429E0,-1.270349503E1,1.485942841E0
9.776780843E0,-1.418943882E0,-1.232064342E1,9.690931439E-1
9.781535427E0,-1.004985452E0,-1.185404301E1,5.766702294E-1
9.786290062E0,-6.245267391E-1,-1.135872936E1,5.216353536E-1
9.791044645E0,-2.823530734E-1,-1.073659515E1,5.216353536E-1
9.795799229E0,2.153540403E-1,-1.001156998E1,4.713860750E-1
9.800553864E0,9.786644578E-1,-9.403793335E0,4.307080805E-1
9.805308448E0,1.730010748E0,-8.743373871E0,2.679961324E-1
9.810063031E0,2.536391973E0,-8.152346611E0,0.000000000E0
9.814817614E0,3.196810961E0,-7.635497093E0,-6.939185411E-2
9.819572250E0,3.656233072E0,-7.202396393E0,-7.896314561E-2
9.824326833E0,3.850051641E0,-6.774080753E0,1.363908947E-1
9.829081416E0,3.924229145E0,-6.465406895E0,2.488535494E-1
9.833836000E0,3.929014683E0,-6.221338749E0,4.426721931E-1
9.838590635E0,3.938585997E0,-6.049055576E0,5.599204898E-1
9.843345218E0,3.888336897E0,-5.972485542E0,5.359922647E-1
9.848099802E0,3.677768469E0,-5.948556900E0,3.254238665E-1
9.852854385E0,3.471985579E0,-5.986842155E0,1.818545163E-1
9.857609020E0,3.098705292E0,-6.063412666E0,8.135596663E-2
9.862363604E0,2.677568436E0,-6.180660725E0,-1.196411345E-2
9.867118187E0,2.151147604E0,-6.355337143E0,-3.589234129E-2
9.871872823E0,1.586441398E0,-6.513263226E0,-9.092725813E-2
9.876627406E0,1.093519926E0,-6.685546398E0,-1.316052526E-1
9.881381989E0,6.053841114E-1,-6.819544315E0,-1.316052526E-1
