Time (s),Acceleration x (m/s^2),Acceleration y (m/s^2),Acceleration z (m/s^2)
9.001781468,-0.48635467283193545,0.13851398519751032,1.2074786090490137
9.006536052,-0.39230376666484434,-0.19962559827163687,1.3673984820666865
9.011290635,-0.297131754774289,-0.5349373612718118,1.526305735953973
9.016045218,-0.2009617281581248,-0.8658946050795012,1.6836972575414597
9.020799854,-0.1039200953356797,-1.1910021245690405,1.8390665187113104
9.025554437,-0.006136939083589075,-1.5088071474086149,1.9919054856911365
9.03030902,0.0922536210450411,-1.8179099234978366,2.141706605006337
9.035063656,0.19111307007503928,-2.1169738670784484,2.287964865189763
9.039818239,0.29029815181599367,-2.4047351561259234,2.4301799314359487
9.044572823,0.3896605440421217,-2.6800116969643724,2.5678583482347044
9.049327406,0.4890465618810569,-2.9417113667537182,2.7005158027129617
9.054082041,0.5882968958813142,-3.1888394526967327,2.8276794390599083
9.058836625,0.6872463906932863,-3.420505214516211,2.948890212095276
9.063591208,0.785723870063388,-3.6359275058700486,3.0637052658159085
9.068345791,0.8835520139107624,-3.834439400737464,3.171700320657544
9.073100427,0.9805472935559357,-4.015491782208805,3.2724720512833456
9.07785501,1.0765199715637568,-4.1786558633118505,3.365640435019539
9.082609593,1.1712741730014125,-4.323624622277914,3.450851049671479
9.087364177,1.2646080350842217,-4.4502131477655755,3.527777298452358
9.092118812,1.356313942123429,-4.558357902792172,3.5961225392440235
9.096873395,1.4461788523740424,-4.648114929238906,3.655622095496738
9.101627979,1.5339847228016668,-4.719657027544654,3.7060451268474464
9.106382614,1.6195090369584881,-4.773269958320466,3.7471963390165506
9.111137198,1.7025254401197927,-4.809347723831631,3.778917514676203
9.115891781,1.7828044846527682,-4.828386997355141,3.801088849646359
9.120646364,1.8601144873534163,-4.830980777116125,3.8136300818046003
9.125401,1.9342224992736412,-4.81781134868617,3.8165014033172335
9.130155583,2.0048953874264734,-4.789642645310388,3.8097041500510636
9.134910166,2.0719010267282343,-4.747312099612165,3.793281265169743
9.13966475,2.135009599597699,-4.691722082556295,3.7673175368332723
9.144419385,2.1939949997353394,-4.623831026520843,3.731939612472309
9.149173968,2.2486363356868857,-4.544644328942358,3.6873157941470374
9.153928552,2.2987195287938667,-4.455205131374141,3.633655620883557
9.158683135,2.34403899899562,-4.356585066055348,3.5712092445515244
9.16343777,2.384399430622819,-4.249875058356003,3.5002666058669503
9.168192354,2.419617608770138,-4.136176268868655,3.4211564166275923
9.172946937,2.4495243150345423,-4.016591253592457,3.3342449535056096
9.17770152,2.4739662693617945,-3.8922154147322607,3.23993466782082
9.182456156,2.492808102479867,-3.7641288082423743,3.138662614866401
9.187210739,2.5059343409475163,-3.6333883675007317,3.0308987056969703
9.191965323,2.5132513842742568,-3.501020595511066,2.917143783904955
9.196719958,2.514689451000442,-3.368014770897203,2.7979275298027257
9.201474541,2.5102044682373355,-3.2353167057759036,2.673806194489558
9.206229125,2.499779877118292,-3.103823086481073,2.5453601663635017
9.210983708,2.483428325011172,-2.9743764211642496,2.4131913726410166
9.215738343,2.461193214274068,-2.8477606115867884,2.277920518404695
9.220492927,2.4331500769196883,-2.7246971599895367,2.140184165811581
9.22524751,2.3994077449257136,-2.6058420158092317,2.0006316566862217
9.230002093,2.360109287158997,-2.4917830612563208,1.859921883075333
9.234756729,2.31543268592226,-2.3830382294382475,1.7187199125067092
9.239511312,2.265591228859948,-2.280054243853155,1.5776934774757074
9.244265895,2.2108335952436327,-2.1832059637036045,1.4375093417712272
9.249020531,2.151443619374324,-2.0927963155723504,1.2988295593735348
9.253775114,2.087739717870352,-2.0090567885389468,1.1623076446214922
9.258529698,2.020073971846594,-1.9321484667733229,1.0285846750640333
9.263284281,1.94883085934758,-1.8621635709892612,0.898285350863173
9.268038916,1.8744256378121937,-1.7991274778384483,0.7720140368262017
9.2727935,1.7973023807769253,-1.7430011843431548,0.6503508151327815
9.277548083,1.717931677426173,-1.693684182791308,0.5338475785747007
9.282302666,1.6368080079197571,-1.6510177101568915,0.4230241955931412
9.287057302,1.5544468116048094,-1.6147883350684626,0.31836477952176045
9.291811885,1.4713812691832633,-1.5847318446260856,0.22031409518630138
9.296566468,1.388158823599508,-1.5605373929485684,0.1292741363708965
9.301321104,1.3053374677957388,-1.5418518732039252,0.04560090766372101
9.306075687,1.2234818305286246,-1.5282844750270805,-0.030398556125285598
9.31083027,1.143159094125781,-1.5194113896546892,-0.09846890039860882
9.315584854,1.064934780358953,-1.5147806258030516,-0.1584088593842121
9.320339489,0.9893684425018612,-1.5139169002728177,-0.2100733324434901
9.325094073,0.9170093031105189,-1.5163265684637548,-0.25337509906863004
9.329848656,0.8483918781031577,-1.5215025613903026,-0.28828614533785596
9.334603239,0.7840316283196328,-1.5289292973580821,-0.3148385766778549
9.339357875,0.7244206799056567,-1.53808753813833,-0.333125094183698
9.344112458,0.6700236546028492,-1.5484591612005112,-0.34329901447410494
9.348867041,0.6212736503462091,-1.5595318212717812,-0.34557381610782045
9.353621625,0.5785684114928966,-1.570803476133663,-0.340222198940166
9.35837626,0.542266726545052,-1.5817867531071836,-0.32757464644053225
9.363130843,0.5126850894012374,-1.5920131341027157,-0.3080174849038917
9.367885427,0.49009465799827734,-1.6010369384208478,-0.2819904376496708
9.372640062,0.4747185417144472,-1.6084390837010487,-0.2499836766811239
9.377394645,0.46672944612277284,-1.613830606551232,-0.21253437884694618
9.382149229,0.46624770063243237,-1.6168559254818078,-0.1702227982738248
9.386903812,0.4733396912500572,-1.6171958298368616,-0.1236678717031016
9.391658448,0.48801671712043787,-1.6145701794810035,-0.07352237839633105
9.396413031,0.5102342856048953,-1.6087403010758372,-0.02046768163850265
9.401167614,0.5398918562934145,-1.5995110678763698,0.03479191508004761
9.405922198,0.5768330393793718,-1.5867326511114264,0.09153515698345303
9.410676833,0.620846248244398,-1.5703019322026992,0.14903012354546832
9.415431416,0.6716658001550747,-1.5501635663323117,0.20654075339416833
9.420186,0.728973453114219,-1.5263106891691467,0.2633335432213131
9.424940635,0.7924003615679355,-1.498785259865985,0.3186843488702029
9.429695218,0.8615294290616358,-1.4676780347021094,0.37188521238765715
9.434449802,0.935898032053465,-1.4331281669626188,0.4222511363379355
9.439204385,1.0150010858168415,-1.3953224298509392,0.46912672567439534
9.44395902,1.098294420592739,-1.3544940604836577,0.5118926175956662
9.448713604,1.185198433842643,-1.3109212243776593,0.5499716208831522
9.453468187,1.275101982615737,-1.2649251013625438,0.5828344881538177
9.458222823,1.3673664787328657,-1.2168675955854384,0.6100052472627565
9.462977406,1.4613301487868275,-1.1671486742641743,0.6310660217880907
9.467731989,1.5563124209442574,-1.116203342117529,0.6456612751758553
9.472486573,1.6516184012530348,-1.0644982609633193,0.653501418760232
9.477241208,1.7465434035975893,-1.0125280268064683,0.6543657305452656
9.481995791,1.8403774995298712,-0.9608111197975254,0.6481045393866035
9.486750375,1.9324100568064877,-0.9098855456681486,0.6346406380930131
9.491504958,2.021934238398654,-0.8603041905740353,0.6139698989750901
9.496259593,2.1082514367860483,-0.8126299146253049,0.5861610763992565
9.501014177,2.190675621252423,-0.767430412697761,0.5513547927341169
9.50576876,2.2685375784276873,-0.725272874367335,0.5097617163646001
9.510523395,2.341189028275313,-0.6867184780131359,0.46165995277559246
9.515277979,2.4080065990284862,-0.65231675734222,0.4073916816335774
9.520032562,2.4683956453097102,-0.6225998818425053,0.34735908394823556
9.524787145,2.521793894018156,-0.5980768959626438,0.2820196135130188
9.529541781,2.567674902750861,-0.5792279650800171,0.2118806757574992
9.534296364,2.605551315685682,-0.5664986794276198,0.13749378484797573
9.539050948,2.634977902033867,-0.5602944699505029,0.05944827637496656
9.543805531,2.65555436230308,-0.5609751923806986,-0.021635341660917556
9.548560166,2.666927887576607,-0.5688499374901832,-0.10511231252749957
9.55331475,2.6687954567051086,-0.5841721263694581,-0.19032073872311026
9.558069333,2.660905855695272,-0.6071349496017643,-0.27658878144589133
9.562823968,2.6430614027325197,-0.6378672083336134,-0.3632418573596022
9.567578552,2.6151193613229977,-0.6764296135001452,-0.4496097381333108
9.572333135,2.57699302313713,-0.7228115969035194,-0.5350334596542365
9.577087718,2.528652441472783,-0.7769286845615688,-0.6188719522793714
9.581842354,2.4701247960994888,-0.8386204788778283,-0.7005083124310676
9.586596937,2.4014943709028014,-0.9076492918511603,-0.779355649279916
9.59135152,2.3229021273996,-0.9836994667689435,-0.8548624559394141
9.596106156,2.2345448597584525,-1.0663774205310854,-0.9265174691486692
9.600860739,2.136673920151222,-1.1552124328098519,-0.9938539924647002
9.605615323,2.0295935068153064,-1.2496582015705227,-1.0564536650851553
9.610369906,1.913658511034367,-1.3490951770290707,-1.11394966247921
9.615124541,1.7892719234431909,-1.4528336779296818,-1.1660293173118206
9.619879125,1.6568818048010345,-1.5601177851479002,-1.212436150925766
9.624633708,1.516977831830214,-1.6701299981505626,-1.2529713080186635
9.629388291,1.3700874350241454,-1.7819966298875858,-1.2874943910993042
9.634142927,1.2167715525342144,-1.8947939054096945,-1.3159236973598591
9.63889751,1.057620032188092,-2.0075547190998795,-1.3382358684600746
9.643652093,0.8932467219812285,-2.1192759951140494,-1.3544649722630606
9.648406729,0.7242842975041122,-2.228926585719641,-1.3647010433743791
9.653161312,0.5513788822613522,-2.335455632983887,-1.3690881154037329
9.657915895,0.3751845234153044,-2.4378013109601953,-1.3678217819391845
9.662670531,0.19635759101292985,-2.5348998583715945,-1.3611463256813339
9.667425114,0.015551173148672366,-2.625694805968959,-1.3493514566673523
9.672179698,-0.16659045733270766,-2.7091462983886445,-1.3327687015696192
9.676934281,-0.3494372272124973,-2.784240407558694,-1.311767486971877
9.681688916,-0.5323784206556957,-2.8499983335829535,-1.2867509603420855
9.6864435,-0.7148275337911673,-2.905485389621226,-1.2581515930091203
9.691198083,-0.8962267520659224,-2.949819669616047,-1.2264266096423249
9.695952666,-1.0760509800809317,-2.982180301802207,-1.1920532884100008
9.700707302,-1.2538113584937538,-3.00181519673117,-1.155524175115919
9.705461885,-1.429058208482256,-3.008048205929549,-1.117342253200831
9.710216468,-1.6013833511478852,-3.000285616084949,-1.0780161095881515
9.714971104,-1.770421757056012,-2.9780219135376362,-1.0380551339863016
9.719725687,-1.9358524898249498,-2.9408447645309743,-0.9979647864798763
9.72448027,-2.097398917259269,-2.888439167802823,-0.9582419651682226
9.729234854,-2.2548281740034293,-2.8205907473608556,-0.919370502572269
9.733989489,-2.407949871157139,-2.73718816437522,-0.881816817181913
9.738744073,-2.5566140608137466,-2.6382246377710032,-0.8460257456901055
9.743498656,-2.7007084769289293,-2.5237985730936088,-0.8124165826141947
9.748253239,-2.84015508783341,-2.3941133084184845,-0.7813793566202412
9.753007875,-2.9749060093502737,-2.2494759944469127,-0.7532713754783797
9.757762458,-3.1049388401805658,-2.0902956335258565,-0.7284140725928933
9.762517041,-3.230251492593811,-1.9170803092647362,-0.7070901866344548
9.767271677,-3.3508566014464845,-1.7304336448286046,-0.6895413021193679
9.77202626,-3.4667756032501327,-1.5310505339875682,-0.6759657736099508
9.776780843,-3.578032584468577,-1.3197121946763073,-0.6665170504346135
9.781535427,-3.684648004351353,-1.097280600170791,-0.6613024131433256
9.786290062,-3.786632402245882,-0.864692347941043,-0.6603821277552907
9.791044645,-3.883980202341267,-0.6229520306452859,-0.6637690193981101
9.795799229,-3.976663730118482,-0.37312517742987034,-0.6714284631543925
9.800553864,-4.064627554394939,-0.11633083654413942,-0.6832787866689359
9.805308448,-4.147783266736497,0.14626612785207058,-0.6991920761459037
9.810063031,-4.226004806110909,0.41346295100959435,-0.7189953746584832
9.814817614,-4.299124430873992,0.6840270216726969,-0.7424722591740904
9.81957225,-4.366929432416666,0.956704002969564,-0.7693647804064251
9.824326833,-4.429159675037393,1.2302259506107076,-0.7993757475932376
9.829081416,-4.485506034949703,1.503319362292178,-0.8321713385667548
9.833836,-4.535609798033,1.7747130964161997,-0.8673840139557184
9.838590635,-4.579063061329093,2.0431461031389695,-0.9046157129098058
9.843345218,-4.6154101677477755,2.3073749161875434,-0.9434413062577762
9.848099802,-4.644150187308315,2.5661808596990285,-0.9834122814464386
9.852854385,-4.664740441789117,2.8183769303625277,-1.0240606319779353
9.85760902,-4.676601053132552,3.062814321224134,-1.0649029224557147
9.862363604,-4.679120479605463,3.298388559492516,-1.1054444988902266
9.867118187,-4.671661987812313,3.524045236416912,-1.1451838127108769
9.871872823,-4.653570993469422,3.7387853126787998,-1.183616826028193
9.876627406,-4.624183189644104,3.9416699876396173,-1.2202414650807167
9.881381989,-4.582833368191871,4.131825125136035,-1.254562088452674
9.886136573,-4.528864828597183,4.308445232252792,-1.2860939365304236
9.890891208,-4.461639258486949,4.470796990603237,-1.314367528753433
9.895645791,-4.3805469618236605,4.618222342112278,-1.3389329754813741
9.900400375,-4.285017304226255,4.750141133154128,-1.3593641717066682
9.90515501,-4.17452924000669,4.866053322195865,-1.3752628403535516
9.909909593,-4.048621782329061,4.965540756898487,-1.3862623934935787
9.914664177,-3.906904276373949,5.048268526999873,-1.392031580465477
9.91941876,-3.749066335506683,5.113985899328875,-1.3922778926246784
9.924173395,-3.5748873021926975,5.162526841069304,-1.3867506952854034
9.928927979,-3.3842450987667303,5.193810137010848,-1.375244058379138
9.933682562,-3.1771243381320766,5.207839106097451,-1.357599258463789
9.938437198,-2.95362357101826,5.204700922209844,-1.3337069260118923
9.943191781,-2.713961554520187,5.184565543878134,-1.3035088134226829
9.947946364,-2.4584824362186946,5.1476842575733075,-1.266999160971373
9.952700948,-2.187659759160559,5.094387839417861,-1.2242256399465377
9.957455583,-1.9020992052533132,5.025084340621971,-1.175289854553888
9.962210166,-1.602540008078027,4.940256502730362,-1.1203473868265725
9.96696475,-1.289854980586574,4.840458809891477,-1.0596073718419816
9.971719333,-0.9650491184649881,4.726314186855268,-0.9933315940518028
9.976473968,-0.6292567559587234,4.598510353267127,-0.9218330994839904
9.981228552,-0.28373726752239004,4.4577958470354995,-0.8454743229118787
9.985983135,0.07013067438969874,4.304975732082812,-0.7646647337117353
9.990737718,0.43085625793273413,4.14090700860809,-0.6798580089528125
9.995492354,0.7968450623099677,3.9664937470418598,-0.5915487472225337
10.00024694,1.166408898620001,3.782681970083279,-0.5002687417628182
10.00500152,1.5377768833230634,3.5904543104797377,-0.40658283668507006
10.00975616,1.909107650842917,3.390824475435184,-0.31108439534956894
10.01451074,2.278502596954858,3.184831551610562,-0.21439041545247184
10.01926532,2.6440200306790675,2.9735341875061256,-0.11713633098372231
10.02401991,3.003690099485038,2.758004692489272,-0.019970547019601406
10.02877454,3.3555303408075114,2.5393230937522007,0.07645124073942586
10.03352913,3.697561702308175,2.3185711939571036,0.17147188381210507
10.03828371,4.02782486417789,2.0968266731673806,0.26443871254882145
10.04303834,4.344396689297304,1.875157278791852,0.35470949271896357
10.04779293,4.645406621520332,1.6546151466156498,0.44165833405848076
10.05254751,4.92905284898028,1.436231294516138,0.5246814749600411
10.05730209,5.193618048395006,1.2210103281738793,0.6032028665751417
10.06205673,5.437484528086837,1.0099253950491076,0.6766794809917072
10.06681131,5.659148591998457,0.8039134191945937,0.7446062721234964
10.0715659,5.857233954450056,0.6038706451952963,0.8065207245409212
10.07632048,6.030504045712849,0.41064851469862396,0.8620069344405696
10.08107511,6.177873061558653,0.22504989362163058,0.9106991777266928
10.0858297,6.298415625639614,0.04782566219602276,0.9522849318948894
10.09058428,6.391374951663121,-0.1203283263790396,0.9865073300258368
10.09533892,6.456169412525915,-0.27877391954670416,1.013167035760279
10.1000935,6.492397445337916,-0.42693297867550767,1.032123537046955
10.10484808,6.4998407439684325,-0.5642893454371594,1.0432958636292344
10.10960267,6.478465713832073,-0.6903904797440094,1.0466627389320515
10.1143573,6.428423186765587,-0.8048487914120593,1.0422621816420037
10.11911188,6.350046416890416,-0.9073426898166795,1.0301905762261183
10.12386647,6.2438474012044916,-0.9976173762060118,1.0106012352035028
10.1286211,6.110511591064204,-1.0754854020719737,0.983702479376031
10.13337569,5.950891082255937,-1.140827014181515,0.9497552655793299
10.13813027,5.7659963913913685,-1.1935903026926706,0.9090703949198928
10.14288485,5.556986944189264,-1.2337911633572265,0.8620053379556502
10.14763949,5.325160416150931,-1.261513078283181,0.8089607168485392
10.15239407,5.071941077637849,-1.2769067122823465,0.7503764881234639
10.15714866,4.798867303074903,-1.2801893137290254,0.6867278732297678
10.16190329,4.507578407870578,-1.2716439004601492,0.6185210875002549
10.16665788,4.199800976885613,-1.2516182030025642,0.5462889211572538
10.17141246,3.8773348453347922,-1.2205233298760954,0.47058622844860426
10.17616704,3.5420388874454805,-1.178832113561486,0.39198538240789293
10.18092168,3.195816760590457,-1.1270770916584116,0.3110717525443586
10.18567626,2.840602743359499,-1.065848076428085,0.22843926014909582
10.19043084,2.478347795295407,-0.9957892677490383,0.14468605990605127
10.19518543,2.111005953889413,-0.9175958696667158,0.06041038665043594
10.19994006,1.7405211712283508,-0.8320101790494847,-0.023793406809042506
10.20469464,1.3688146790680282,-0.7398171259989527,-0.1073386088062752
10.20944923,0.9977729578732764,-0.6418392590964545,-0.18964970520176888
10.21420381,0.6292363731674496,-0.5389311837666931,-0.2701657420446235
10.21895845,0.26498853170386993,-0.4319734784611641,-0.3483435075809409
10.22371303,-0.09325359950088175,-0.32186613040223505,-0.423660546281017
10.22846761,-0.44384877659095595,-0.20952154953332622,-0.495618013749992
10.23322225,-0.785239737608168,-0.09585723516124978,-0.5637433755705151
10.23797683,-1.1159606162890834,0.01821181644444003,-0.6275929465238816
10.24273142,-1.4346434969500839,0.13178086431845978,-0.6867542600327553
10.247486,-1.7400241021453515,0.24396322811228716,-0.7408482515084914
10.25224064,-2.0309466098713664,0.35389803526935076,-0.7895312339608004
10.25699522,-2.306367601757383,0.46075779762957364,-0.832496640429782
10.2617498,-2.5653591480923055,0.5637557067238893,-0.8694765067512612
10.26650444,-2.807111039825011,0.6621525415308571,-0.9002426711725853
10.27125902,-3.0309321819377306,0.7552630895701388,-0.9246076745567312
10.2760136,-3.236251166902736,0.842461991411438,-0.9424253545630463
10.28076819,-3.4226160512747223,0.9231889292638479,-0.9535911364184865
10.28552282,-3.5896933627127288,0.996953091595345,-0.9580420295798142
10.29027741,-3.7372663687106087,1.0633368573242807,-0.9557563433272576
10.29503199,-3.865232641973189,1.1219986549554426,-0.946753135975465
10.29978657,-3.973600960716709,1.1726749641843086,-0.9310914130432248
10.30454121,-4.062487585216336,1.215181440013423,-0.9088690901088462
10.30929579,-4.132111954664057,1.2494131522562972,-0.8802217364585033
10.31405038,-4.182791850824207,1.2753439462960874,-0.8453211160199342
10.31880501,-4.214938077097279,1.293024943913083,-0.804373542400352
10.32355959,-4.22904870348908,1.3025822156653872,-0.7576180650707544
10.32831418,-4.225702929725082,1.3042136684620156,-0.7053245038593593
10.33306876,-4.205554620428044,1.2981852033729824,-0.6477913489695061
10.3378234,-4.169325567915389,1.2848262091484275,-0.5853435437639166
10.34257798,-4.117798539721517,1.2645244661323995,-0.5183301675800875
10.34733256,-4.051810169281062,1.237720543005397,-0.44712203585407195
10.35208714,-3.9722437491486193,1.2049017748216495,-0.3721092348036863
10.35684178,-3.8800219865223173,1.1665959148957217,-0.2936986078159123
10.36159636,-3.776099780573362,1.1233645550547466,-0.21231121044866472
10.36635095,-3.6614570800707886,1.0757964084828766,-0.12837975054986067
10.37110558,-3.537091877937927,1.0245005468079265,-0.042346029388799764
10.37586017,-3.4040133966348436,0.9700996783124066,0.04534160111765587
10.38061475,-3.2632355146813734,0.913223547448887,0.13423075099115347
10.38536933,-3.1157704803646964,0.8545025276145793,0.22386746160226087
10.39012397,-2.9626229538794364,0.7945614699123866,0.3137986200561005
10.39487855,-2.804784413942378,0.7340138609516252,0.40357430780165254
10.39963314,-2.643227959366628,0.6734563331378176,0.4927500737329514
10.40438772,-2.478903530217129,0.6134635617841326,0.5808891230255783
10.40914235,-2.3127335670793774,0.5545835750297541,0.6675644139885238
10.41389694,-2.1456091207783925,0.4973334951219567,0.7523606564304346
10.41865152,-1.9783864187277815,0.4421957231601819,0.8348762064886988
10.4234061,-1.811883888098407,0.3896145739115071,0.9147248544887024
10.42816074,-1.6468796302787916,0.3399933627649009,0.9915375040544777
10.43291532,-1.484109335750294,0.2936919432545582,1.0649637422338443
10.43766991,-1.3242646236088538,0.2510246907784967,1.134673301715872
10.44242454,-1.1679917856050481,0.21225892606369354,1.200357417240343
10.44717912,-1.0158909107966914,0.17761377046435164,1.2617300790020676
10.45193371,-0.8685153637485256,0.1472594242083851,1.3185291862267903
10.45668829,-0.7263715866968818,0.12131685811210827,1.3705176041269191
10.46144293,-0.5899191942431335,0.09985790893800715,1.4174841271208916
10.46619751,-0.45957132796927,0.082905768341305,1.459244350519998
10.47095209,-0.33569523790682465,0.07043585510430496,1.4956414518749488
10.47570668,-0.21861305805116027,0.06237705996198226,1.5265468818780523
10.48046131,-0.10860274407621462,0.058613351650527175,1.5518609632032918
10.4852159,-0.005899143002198249,0.058985731748895334,1.5715133940311679
10.48997048,0.08930483330581201,0.06329452434507903,1.58546365137193
10.49472506,0.1768569564026355,0.07130198449316812,1.5937012878029535
10.4994797,0.2566443740841299,0.08273520682905179,1.596246113989152
10.50423428,0.3285922676036146,0.09728931263181152,1.5931482584516596
10.50898886,0.3926624901226557,0.11463089016587043,1.5844880955699396
10.5137435,0.4488522002888013,0.13440165948526211,1.570376032807453
10.51849808,0.49719250204126436,0.15622232923457027,1.5509521486384321
10.52325267,0.5377470992082334,0.1796966095559779,1.5263856735131145
10.52800725,0.5706109712369624,0.20441534219901253,1.4968743072359962
10.53276189,0.5959090744711695,0.22996070648299954,1.4626433671500776
10.53751647,0.6137950716656166,0.2559104580023776,1.4239447623874808
10.54227105,0.6244500907882404,0.28184215598270673,1.3810557901045792
10.54702564,0.62808151253384,0.3073373350500743,1.334277750094835
10.55178027,0.6249217843890518,0.3319855778952483,1.283934374635683
10.55653485,0.6152272576750064,0.3553884468887881,1.2303700712100811
10.56128944,0.5992770428853867,0.37716323508505023,1.1739479772060906
10.56604402,0.5773718778596186,0.39694650014293587,1.1150478279987461
10.57079866,0.5498330027961501,0.4143973483563097,1.0540636428341978
10.57555324,0.5170010357073983,0.42920044009326896,0.9914012363714982
10.58030782,0.47923484158103763,0.4410686923738027,0.927475567276869
10.58506241,0.43691038823310097,0.449745658960453,0.8627079386550216
10.58981704,0.39041958164441365,0.4550075730807412,0.7975230681889094
10.59457162,0.3401690735017626,0.45666504262034363,0.7323460486025927
10.59932621,0.2865790337458547,0.454564392200621,0.6675992214977233
10.60408084,0.2300818811651312,0.4485886508735728,0.6036989897901299
10.60883543,0.17112096545926855,0.43865818814181956,0.541052595902251
10.61359001,0.11014919471930529,0.42473100457289314,0.4800548945197618
10.61834459,0.047627602927522175,0.40680268637794575,0.42108515004073427
10.62309923,-0.015976147135580553,0.3849060359340499,0.36450388977392567
10.62785381,-0.0801893292833758,0.35911039233138686,0.31064984443298665
10.6326084,-0.14453579029469737,0.32952065762627447,0.2598370075033761
10.63736298,-0.2085376588006993,0.2962760456107045,0.21235184464031656
10.64211761,-0.2717171269611493,0.2595485706319545,0.16845068343611022
10.6468722,-0.33359830383390904,0.21954129439339476,0.12835731274312248
10.65162678,-0.3937091378793804,0.17648634882036732,0.09226081932548788
10.65638136,-0.451583404512784,0.13064275305132048,0.06031368798858111
10.661136,-0.5067627530487739,0.08229404247207847,0.03263018951775675
10.66589058,-0.5587988058043432,0.031745727502974275,0.009285078732461463
10.67064517,-0.6072553005694445,-0.020677400377998666,-0.009687377303988588
10.6753998,-0.6517102661512972,-0.07463409809908322,-0.024294023420105417
10.68015438,-0.6917582192704003,-0.12976961882576446,-0.03458307816018326
10.68490897,-0.7270123697479381,-0.18571876112846247,-0.040644021783053826
10.68966355,-0.7571068196908783,-0.24210900247207973,-0.042607102339135686
10.69441819,-0.7816987412767015,-0.2985636999579399,-0.040642455361890706
10.69917277,-0.8004705167948855,-0.35470534113476465,-0.03495883648660537
10.70392735,-0.8131318238459916,-0.41015882753926247,-0.025801970163406483
10.70868194,-0.8194216480516925,-0.4645547734488238,-0.013452521510475757
10.71343652,-0.8191102052992891,-0.517532802143055,0.001776297779593232
10.71819116,-0.8120007554337412,-0.5687448217765539,0.019541474737998187
10.72294574,-0.7979312894194992,-0.6178582627455942,0.039473273106556496
10.72770032,-0.7767760723286389,-0.6645592581604953,0.061178621796363686
10.73245496,-0.7484470250887614,-0.7085557486853328,0.08424478799389959
10.73720954,-0.712894928778817,-0.7495804925508067,0.10824330559650483
10.74196412,-0.6701104364330625,-0.7873939609636026,0.1327341262948787
10.74671871,-0.6201248788228605,-0.8217870984140874,0.15726995740005031
10.75147334,-0.5630108525209635,-0.8525839265216756,0.18140074746049306
10.75622793,-0.4988825806755351,-0.8796439690645093,0.20467827786835857
10.76098251,-0.4278960392770703,-0.9028644747446714,0.22666081605360658
10.76573709,-0.3502488442196299,-0.9221824130893318,0.24691778355142951
10.77049173,-0.2661798970474842,-0.9375762177503171,0.2650343902435147
10.77524631,-0.1759687898322047,-0.9490672504259098,0.28061618446660175
10.7800009,-0.07993497203433568,-0.9567209577879978,0.2932934675142127
10.78475548,0.02156331562819732,-0.9606476932640178,0.30272552040567025
10.78951011,0.12813033343590177,-0.9610031754165235,0.3086045907481038
10.7942647,0.23933435272101886,-0.9579885551082802,0.31065958815897937
10.79901928,0.3547093743761132,-0.9518500647497369,0.30865943811856605
10.80377386,0.4737570459283652,-0.9428782247830213,0.30241604632634883
10.8085285,0.595948767199974,-0.9314065852153687,0.2917868286635947
10.81328308,0.720727974894941,-0.9178099835005559,0.27667676573109146
10.81803767,0.8475125970986597,-0.902502304381678,0.257039945655092
10.8227923,0.9756976695252157,-0.8859337324334489,0.23288056444790653
10.82754688,1.104658106233512,-0.8685874939324547,0.20425335965358846
10.83230147,1.233751618268996,-0.8509760912600258,0.17126346023135505
10.83705605,1.3623217740910172,-0.8336370401865414,0.1340656434961007
10.84181069,1.4897011955688904,-0.8171281279472228,0.09286299826129825
10.84656527,1.6152148826778248,-0.80202221782588,0.0479050019017291
10.85131985,1.7381836587729314,-0.7889016338375042,-0.0005149723383951536
10.85607444,1.8579277265207756,-0.7783521668808185,-0.052062693005447205
10.86082907,1.9737703223555154,-0.7709567512878098,-0.10636662011108677
10.86558366,2.08504145487841,-0.767288867933999,-0.1630219261074179
10.87033824,2.1910817101084374,-0.7679057369146227,-0.22159494017884396
10.87509282,2.2912461040388767,-0.7733413691510898,-0.2816279611567693
10.87984746,2.3849079606068257,-0.7840995520469101,-0.342644378274647
10.88460204,2.4714627909244227,-0.8006468493015902,-0.404154033576322
10.88935663,2.5503321474100313,-0.8234056990321852,-0.46565875513453214
10.89411121,2.620967424262902,-0.8527476972691157,-0.526657986393173
10.89886579,2.682853573543993,-0.8889871555413809,-0.5866544339789526
10.90362043,2.735512703986681,-0.9323750215499279,-0.6451596542945147
10.90837501,2.7785075276144404,-0.9830932508013905,-0.7016994982007775
10.91312959,2.8114446173819743,-1.0412497145447084,-0.7558193334770548
10.91788423,2.8339774376007405,-1.1068737254908576,-0.8070889675655402
10.92263881,2.8458091082722583,-1.1799122577394727,-0.8551072000944424
10.9273934,2.8466948650916475,-1.260226931245531,-0.8995059469267574
10.93214798,2.8364441789131107,-1.3475918241246023,-0.9399538936722627
10.93690261,2.814922501423562,-1.4416921680930506,-0.9761596530607778
10.9416572,2.782052606905085,-1.5421239733016587,-1.0078744136764395
10.94641178,2.737815502825115,-1.6483946187405927,-1.0348940758569045
10.95116636,2.6822508846636204,-1.7599244333589374,-1.0570608748036978
10.955921,2.6154571133068916,-1.8760492811978604,-1.0742644927433458
10.96067558,2.5375906969963338,-1.9960241513423924,-1.0864426629025514
10.96543017,2.448865264614654,-2.119027740517875,-1.093581269468704
10.97018475,2.3495500232802775,-2.244168002870857,-1.095713950653226
10.97493938,2.2399677008552823,-2.37048862807201,-1.092921216891217
10.97969397,2.120491982830462,-2.496976395555649,-1.0853291026026946
10.98444855,1.9915444626784333,-2.622569339657253,-1.0731073765687231
10.98920314,1.8535911346376144,-2.7461656478204084,-1.05646734154416
10.99395777,1.7071384675851562,-2.8666332021370398,-1.0356592575617107
10.99871235,1.5527291079185441,-2.9828196635251407,-1.0109694255832005
11.00346694,1.390937268037504,-3.0935629881446807,-0.982716969280356
11.00822152,1.222363864933206,-3.197702257521989,-0.9512503533643452
11.01297616,1.0476314802949727,-3.294088697580078,-0.9169436774002886
11.01773074,0.8673792190979429,-3.3815967575766464,-0.8801927845451968
11.02248532,0.6822575475103253,-3.459135117970505,-0.841411225039836
11.02723991,0.49292319295541837,-3.5256574965309246,-0.8010261143885525
11.03199454,0.3000341892761927,-3.5801731245763113,-0.7594739258326572
11.03674912,0.10424514835086235,-3.621756770038789,-0.7171962559082603
11.04150371,-0.0937971635494199,-3.6495581910117836,-0.6746356005966225
11.04625829,-0.2934578706701996,-3.662810912401307,-0.6322311778776871
11.05101288,-0.4941175853989876,-3.660840229049023,-0.5904148304416162
11.05576751,-0.6951754966156082,-3.6430703509278772,-0.549607039923413
11.06052209,-0.8960518944708186,-3.609030619365737,-0.5102130812755405
11.06527668,-1.0961900861313985,-3.558360737337341,-0.4726193427374695
11.07003126,-1.295057667041756,-3.4908149712871124,-0.43718983336169
11.0747859,-1.4921471235581576,-3.406265296315086,-0.40426289660921233
11.07954048,-1.6869757556241698,-3.3047034704951517,-0.3741481460055333
11.08429506,-1.8790849226336552,-3.1862420372571925,-0.3471236382932903
11.08904965,-2.0680386315584736,-3.0511142668830606,-0.32343330135137777
11.09380428,-2.2534215030168845,-2.8996730590742374,-0.30328463754366874
11.09855886,-2.434836167086182,-2.7323888382053854,-0.2868467263172923
11.10331345,-2.6119001553243293,-2.5498464813637796,-0.27424855106253954
11.10806803,-2.7842423681391315,-2.352741326757608,-0.26557767367903085
11.11282267,-2.9514992072444395,-2.1418743167534027,-0.26087927620740375
11.11757725,-3.1133104715977713,-1.9181463358340396,-0.26015558313701986
11.12233183,-3.2693151220625905,-1.6825518092235032,-0.26336567159964386
11.12708642,-3.4191470251159015,-1.436171632770157,-0.27042567049277744
11.13184105,-3.562430789130307,-1.1801655088110203,-0.2812093442661707
11.13659564,-3.698777807941836,-0.9157637660237778,-0.2955490529613498
11.14135022,-3.8277826254572695,-0.6442587435879882,-0.3132370771276217
11.1461048,-3.9490197319312754,-0.3669958212258174,-0.33402729421786465
11.15085944,-4.062040897288048,-0.08536417682089535,-0.3576371916325605
11.15561402,-4.166373139526692,0.19921264767527702,-0.3837502003850849
11.1603686,-4.261517416896144,0.48528629337849527,-0.41201833217639067
11.16512319,-4.346948121243927,0.7713931689391973,-0.4420651013898173
11.16987782,-4.422113436871542,1.0560640003506454,-0.47348871211890503
11.17463241,-4.4864366145615335,1.3378332784007545,-0.5058654888264351
11.17938699,-4.539318194424386,1.6152485407685957,-0.5387535276248776
11.18414157,-4.580139194140709,1.886879430720324,-0.5716965435105762
11.18889616,-4.608265261374747,2.151326479451926,-0.6042278872331017
11.19365079,-4.623051770963781,2.407229564269229,-0.6358747038954374
11.19840538,-4.623849829319295,2.6532759999105293,-0.6661622039093064
11.20315996,-4.6100131306998176,2.8882082253165393,-0.6946180156052428
11.20791454,-4.580905593030845,3.1108310529350502,-0.7207765876323046
11.21266918,-4.535909685145239,3.3200184521091423,-0.7441836082785585
11.21742376,-4.474435343048334,3.514719842145294,-0.7644004079978007
11.22217834,-4.395929360343899,3.6939658742212016,-0.7810083107387222
11.22693293,-4.299885127452971,3.8568736843352087,-0.7936128991402093
11.23168756,-4.185852585785253,4.002651602027386,-0.801848158281645
11.23644214,-4.053448256588451,4.130603301676046,-0.8053804624608332
11.24119673,-3.9023651997785245,4.240131384897053,-0.8039123694156662
11.24595131,-3.7323827556001414,4.330740384074629,-0.7971861865113714
11.25070595,-3.5433759214298925,4.402039178456372,-0.7849872736920782
11.25546053,-3.3353242173706654,4.4537428156573675,-0.7671470484689645
11.26021511,-3.1083198974676938,4.485673732920407,-0.7435456589312768
11.2649697,-2.8625753683872164,4.497762374131429,-0.7141142917680703
11.26972428,-2.598429684206589,4.490047200433938,-0.6788370836128287
11.27447892,-2.316353994512015,4.462674094354467,-0.6377526057034535
11.2792335,-2.0169558331928665,4.415895159660457,-0.5909548939367897
11.28398808,-1.700982147031743,4.350066921715561,-0.5385939989502843
11.28874267,-1.3693209762860805,4.265647935844195,-0.4808760339238403
11.2934973,-1.023001713848933,4.163195814128557,-0.41806270136419343
11.29825188,-0.6631938852088176,4.0433636841093525,-0.3504702841834223
11.30300647,-0.29120440823234717,3.906896096031088,-0.27846809087064117
11.30776105,0.09152669035340089,3.754624398553134,-0.20247634943825396
11.31251564,0.4834321061701101,3.587461606228684,-0.12296355006163412
11.31727027,0.8828246210708456,3.4063967855298674,-0.04044324188727598
11.32202485,1.2879059648159823,3.212488989767659,0.04452970467701456
11.32677944,1.6967771196092705,3.0068607769137916,0.13136335279036443
11.33153402,2.1074499926318575,2.790691348056269,0.21943344741481022
11.33628866,2.51786036228771,2.565209347968448,0.3080886267057877
11.34104324,2.9258819853779334,2.3316853729838285,0.396656059485569
11.34579782,3.329341735256652,2.091424234968449,0.4844474645536668
11.35055241,3.7260356255007614,1.8457570335810423,0.5707654599619282
11.35530704,4.113745559956823,1.5960330921032875,0.6549101822386475
11.36006162,4.49025663835071,1.343611814780388,0.7361861069316786
11.36481621,4.853374837085556,1.0898545256833259,0.813908993015106
11.36957079,5.200944877549342,0.8361163504293629,0.8874128652189109
11.37432538,5.530868089349198,0.5837382025372042,0.9560569410400211
11.37908001,5.841120073506723,0.33403893565646,1.0192324041095029
11.38383459,6.129767970846847,0.08830772138439977,1.076368923748587
11.38858918,6.3949871435664365,-0.15220329006049704,1.1269408227129967
11.39334376,6.635077083196414,-0.3862859722927801,1.170472801588734
11.3980984,6.8484763658166585,-0.6127828383586479,1.2065451387344355
11.40285298,7.033776485489622,-0.8305932244203008,1.2347982980972934
11.40760756,7.189734409574801,-1.0386790025001278,1.2549368921796535
11.41236215,7.315283714942241,-1.2360697905538278,1.2667329622322783
11.41711673,7.409544181929061,-1.4218676366186882,1.2700285510231302
11.42187136,7.471829742640157,-1.595251163054925,1.2647375545987423
11.42662595,7.501654701152919,-1.7554791663364975,1.2508468483876083
11.43138053,7.498738164739312,-1.9018936767419843,1.2284166903128335
11.43613511,7.4630066470989425,-2.033922490013131,1.1975804098797767
11.44088975,7.394594826809492,-2.1510811891442825,1.1585433979158661
11.44564433,7.293844466768663,-2.2529746787210634,1.1115814169836438
11.45039892,7.161301523155871,-2.3392982566077674,1.0570382575421784
11.4551535,6.9977114949925765,-2.409838248354744,0.9953227697307139
11.45990808,6.804013087191233,-2.4644722285432548,0.9269053052430741
11.46466272,6.581330280440398,-2.5031688504794207,0.852313608232459
11.4694173,6.330962919722469,-2.52598730127563,0.7721281986232396
11.47417188,6.054375949042266,-2.5330763935587806,0.6869772956710922
11.47892647,5.753187432480305,-2.5246732980658106,0.5975313341029846
11.4836811,5.429155510619369,-2.5011019136114587,0.5044971295946941
11.48843569,5.08416444673223,-2.462770862875443,0.4086117545321249
11.49319027,4.720209919243018,-2.410171094834764,0.3106361887258748
11.49794485,4.339383716502369,-2.3438730682401148,0.2113488127438904
11.50269944,3.9438579874763797,-2.2645234860811554,0.11153881343982483
11.50745407,3.5358691979800576,-2.1728415491538082,0.01199957151230268
11.51220866,3.117701936771177,-2.0696146980696564,-0.08647790121569025
11.51696324,2.6916727092395245,-1.955693817525393,-0.18311141209030063
11.52171782,2.2601138488090005,-1.8319878843319286,-0.2771338700272775
11.52647241,1.8253576679794927,-1.6994580513452058,-0.3677993523653639
11.53122704,1.3897209626779856,-1.5591111726893208,-0.4543889149125082
11.53598163,0.9554899755653258,-1.4119927911080832,-0.5362161076227622
11.54073621,0.5249059161772767,-1.2591796254090724,-0.612632159205078
11.54549079,0.10015112810514874,-1.1017716139940141,-0.6830307928998627
11.55024543,-0.3166640143077144,-0.9408835882004168,-0.7468526344320953
11.55500001,-0.7235134050296946,-0.7776366650600676,-0.8035891740141776
11.55975459,-1.1184666340498914,-0.6131494616251074,-0.8527862489617525
11.56450918,-1.4996994840602573,-0.44852924134064603,-0.8940470220230857
11.56926376,-1.865503443998308,-0.2848631069875798,-0.9270344411284545
11.5740184,-2.214294195418127,-0.1232093549820229,-0.9514731766346651
11.57877298,-2.544619036495041,0.035410897012646686,-0.9671510407286573
11.58352756,-2.855163218011324,0.19002170245639902,-0.9739198999537457
11.58828214,-3.144755175607725,0.339699798644728,-0.9716960959488122
11.59303673,-3.4123706524731956,0.48358154849129653,-0.9604603918237861
11.59779136,-3.6571357160775633,0.6208692294353345,-0.9402574626631888
11.60254595,-3.8783286812996374,0.7508365976208736,-0.9111949490759857
11.60730053,-4.075380960313615,0.8728336662825606,-0.8734420930521558
11.61205511,-4.247876866896968,0.9862906487322,-0.827227975962498
11.6168097,-4.395552409431956,1.090721028441641,-0.7728393793972413
11.62156433,-4.518293112775533,1.1857237313819518,-0.710618290577818
11.62631892,-4.6161309143421665,1.270984388850782,-0.6409590751773241
11.6310735,-4.6892401841871845,1.34627569227504,-0.5643053414836264
11.63582808,-4.737932922674497,1.4114568546628639,-0.48114652091751225
11.64058272,-4.762653192620338,1.4664722062579287,-0.39201419097676454
11.6453373,-4.763970845816575,1.5113489642939235,-0.2974781677088397
11.65009188,-4.742574606713033,1.5461942283169254,-0.19814239579730955
11.65484647,-4.699264578847525,1.5711912630653846,-0.09464066524464788
11.65960105,-4.634944242312535,1.586595140074916,0.012367815594895058
11.66435564,-4.550612013021368,1.592727816717853,0.12220296027631201
11.66911027,-4.447352436643593,1.589972737044463,0.23416842707401522
11.67386485,-4.32632709166112,1.5787690423738518,0.34755629346100003
11.67861944,-4.188765276852181,1.559605480972103,0.46165175151034105
11.68337402,-4.035954558431877,1.5330141053308974,0.5757377938568409
11.68812866,-3.869231250942423,1.4995638426215583,0.6890998604584232
11.69288324,-3.689970903826611,1.4598540190859317,0.8010304171888804
11.69763782,-3.4995788625994386,1.4145079127970621,0.9108334382509514
11.70239241,-3.2994809698777896,1.3641664018141242,1.0178287654839724
11.70714699,-3.0911144674472286,1.3094817667259693,1.1213563188112463
11.71190163,-2.8759191561906703,1.2511116983665984,1.2207801333052386
11.71665621,-2.6553288661422116,1.1897135534815946,1.315492199658859
11.72141079,-2.430763284146401,1.1259388936268322,1.404916086306346
11.72616538,-2.2036201815445535,1.060428335774887,1.4885103231484877
11.73091996,-1.9752680789342953,0.9938067370627697,1.5657715289038483
11.73567459,-1.747039379365214,0.9266787308350614,1.6362372665536395
11.74042918,-1.5202239954089776,0.859624626593602,1.6994886141021348
11.74518376,-1.2960634894836953,0.7931966826315706,1.7551524408068597
11.74993834,-1.0757457407399653,0.7279157569665,1.8029033819937164
11.75469293,-0.8604001458447471,0.6642683396285981,1.8424655084105401
11.75944751,-0.6510933552372731,0.6027039673268714,1.873613688648826
11.76420214,-0.44882554098845984,0.5436330199317301,1.8961746453749386
11.76895673,-0.2545271873828899,0.48742489702296354,1.9100277079122372
11.77371131,-0.06905639086357415,0.43440657190570575,1.9151052651031897
11.7784659,0.1068033478765841,0.384861519923341,1.9113929233726643
11.78322053,0.2723448600317452,0.3390290174895963,1.8989293755285301
11.78797511,0.42693859582763866,0.29710380789218627,1.8778059861006111
11.7927297,0.5700334870667825,0.25923612945556507,1.8481660989895832
11.79748428,0.7011574102851086,0.2255321009706856,1.8102040729732718
11.80223886,0.819917275779455,0.19605445829561935,1.7641640503417149
11.8069935,0.9259987671128787,0.1708236346053943,1.7103384637666201
11.81174808,1.0191657544580746,0.14981917485488674,1.6490662866007482
11.81650267,1.0992594034382102,0.13298147259436305,1.5807310322452037
11.82125725,1.166196999133242,0.12021381437146113,1.5057585090405903
11.82601183,1.2199705028144125,0.1113847136338423,1.4246143382535688
11.83076642,1.2606448569141036,0.10633051241324824,1.3378012439705615
11.83552105,1.288356051856575,0.10485822525419458,1.245856124880771
11.84027564,1.3033089667452595,0.10674859600705837,1.1493469188985534
11.84503022,1.3057749945750812,0.11175933441318232,1.0488692722866884
11.8497848,1.296089461664632,0.11962849605246713,0.9450430254254644
11.85453938,1.2746488504505988,0.13007796638403427,0.8385085277851333
11.85929402,1.2419078347173353,0.14281700746416007,0.7299227952796183
11.8640486,1.1983761367301524,0.15754582462532035,0.6199555242510183
11.86880319,1.1446152164511696,0.17395911004304945,0.5092849778918553
11.87355777,1.0812348038079422,0.1917495207237995,0.39859376277946285
11.87831235,1.0088892856541334,0.21061104996559324,0.28856451513623915
11.88306699,0.9282739594986075,0.23024225367487589,0.17987551826166862
11.88782157,0.8401211662550259,0.2503492959499431,0.073196274211783
11.89257616,0.7451963141964161,0.2706487819463281,-0.030816945799144697
11.89733074,0.6442938060418966,0.29087035010477164,-0.13152554660842264
11.90208532,0.5382328807440817,0.31075900022021,-0.22831302322084585
11.90683991,0.4278533812003509,0.3300771384241291,-0.3205893161748486
11.91159454,0.3140114588975391,0.34860632481036813,-0.4077950795893664
11.91634912,0.1975752265079348,0.36614871403946925,-0.4894058324143959
11.92110371,0.07942036972188452,0.38252818370874664,-0.5649359625032498
11.92585829,-0.03957426989018469,0.397591149483673,-0.6339425522499949
11.93061288,-0.15853112850122036,0.41120706986724115,-0.6960289937542342
11.93536751,-0.2765783568357406,0.42326864696874744,-0.7508483608770592
11.94012209,-0.3928542459688306,0.4336917326791247,-0.7981065052312281
11.94487668,-0.506511626979142,0.4424149522532642,-0.8375648431783633
11.94963126,-0.6167222283465101,0.4493990594509537,-0.8690428013234566
11.95438584,-0.7226809740006288,0.45462603912442506,-0.892419888807997
11.95914048,-0.8236102039469777,0.4580979745041554,-0.9076373658985358
11.96389506,-0.9187637984335891,0.4598356974781958,-0.9146994799414951
11.96864965,-1.0074311856956226,0.45987724094177396,-0.9136742417120133
11.97340423,-1.0889412124522249,0.4582761128765549,-0.9046937175338553
11.97815881,-1.1626658555668872,0.45509941227294404,-0.8879538152941111
11.98291345,-1.2280237526527258,0.4504258074050966,-0.8637135456177897
11.98766803,-1.2844835289359617,0.4443433973683068,-0.8322937429934616
11.99242261,-1.3315668974078059,0.4369474782364134,-0.7940752355385944
11.9971772,-1.368851509221179,0.4283382357148812,-0.749496456353149
12.00193178,-1.3959735314548116,0.418618386751975,-0.6990504940386025
12.00668636,-1.4126299298269551,0.40789079320491495,-0.6432815850141858
12.01144095,-1.4185804348190618,0.3962560713084271,-0.5827810559437093
12.01619558,-1.4136491712061912,0.383810221325983,-0.5181827313170743
12.02095017,-1.3977259334597814,0.3706423023393119,-0.4501578294954087
12.02570475,-1.3707670929512004,0.35683217758562646,-0.3794093804025795
12.03045933,-1.3327961269877497,0.34244835599255585,-0.3066662087987612
12.03521397,-1.2839037638041328,0.32754595550110593,-0.23267653737840607
12.03996855,-1.224247741137218,0.312164813373304,-0.15820127260137878
12.04472314,-1.1540521787185327,0.29632776798826915,-0.08400704269788718
12.04947772,-1.0736065670701562,0.28003913571147576,-0.010859061868642073
12.0542323,-0.9832643766987467,0.2632834053455942,0.06048610219859371
12.05898689,-0.8834412934611413,0.24602417147745603,0.12928777833774852
12.06374152,-0.7746130877419891,0.22820332673397634,0.19482837906114717
12.0684961,-0.657313127240507,0.20974053153996058,0.2564204439945187
12.07325069,-0.5321295456080207,0.19053297841458958,0.3134134589507232
12.07800527,-0.3997020818337597,0.17045546612863247,0.36520037098022984
12.08275985,-0.26071860801990765,0.1493607971357253,0.4112237214899795
12.08751444,-0.11591136587571343,0.12708050953362046,0.4509813220893351
12.09226907,0.033947065238497505,0.10342595234119992,0.48403140126287386
12.09702366,0.18804804367464276,0.07818971004167709,0.5099971543678653
12.10177824,0.3455513573690877,0.051147379115841315,0.5285706348999372
12.10653282,0.5055899038747651,0.02205969567552994,0.5395159315430365
12.11128741,0.6672745291993766,-0.009324990666391291,0.5426715832671549
12.11604204,0.8296989955545152,-0.0432679058503073,0.5379521936502198
12.12079662,0.9919450480172257,-0.08003671708813169,0.5253492155922831
12.12555121,1.1530875503768974,-0.1199020937933311,0.5049308884978161
12.13030579,1.3121996610167104,-0.16313398722983585,0.47684132160854525
12.13506038,1.4683580204987068,-0.20999765738898127,0.4412987292232306
12.13981496,1.6206479235040367,-0.2607494805137316,0.3985928357635871
12.14456954,1.768168448792888,-0.3156325753647364,0.34908148074438294
12.14932418,1.9100375217280978,-0.37487229063769706,0.29318646540075705
12.15407876,2.04539688452239,-0.4386715998139878,0.23138869377651455
12.15883334,2.173416949677059,-0.5072064531329198,0.164222671291425
12.16358793,2.293301512118158,-0.5806211393429683,0.09227043303450641
12.16834251,2.404292295382969,-0.6590237124731325,0.016154982164666966
12.17309715,2.5056733069391424,-0.7424815411038872,-0.06346667422730508
12.17785173,2.5967749773850652,-0.8310170395064499,-0.14591079865539927
12.18260631,2.676978057920737,-0.9246036414989383,-0.2304744084246247
12.1873609,2.7457172501274045,-1.0231620788275366,-0.3164428712584657
12.19211548,2.8024845417836874,-1.1265570261834008,-0.4030975078304415
12.19687006,2.8468322222103684,-1.2345941744809017,-0.4897230965225173
12.2016247,2.8783755505530526,-1.3470177926600964,-0.575615176198671
12.20637928,2.8967950507116917,-1.4635088360359025,-0.6600870461758975
12.21113386,2.901838407763369,-1.58368365620931,-0.742476371105707
12.21588845,2.893321943178283,-1.707093363905083,-0.822151313515148
12.22064303,2.8711316499388784,-1.833223891755433,-0.8985161365162911
12.22539761,2.8352237732097,-1.9614967987305292,-0.9710162389869079
12.23015225,2.785624926546622,-2.0912708512881,-1.03914260096241
12.23490683,2.722431737185474,-2.2218444081938085,-1.1024356266136626
12.23966142,2.6458100167183605,-2.352458626374754,-1.1604883772365062
12.244416,2.5559934558868087,-2.482301494261697,-1.212949189296716
12.24917058,2.453281844885609,-2.610512687055735,-1.2595236747382972
12.25392517,2.3380388240388057,-2.7361892254523856,-1.2999761039873852
12.2586798,2.210689174345776,-2.85839190582345,-1.3341301771959415
12.26343438,2.0717156632303597,-2.9761524559743546,-1.3618691961192442
12.26818897,1.921655467546165,-3.0884813566744436,-1.383135656539807
12.27294355,1.761096203022098,-3.1943762555463846,-1.397930287936031
12.27769814,1.590671596473877,-3.2928308869719762,-1.4063105721469598
12.28245272,1.4110568440461602,-3.3828443998162965,-1.4083887758868199
12.28720735,1.2229637054048763,-3.4634309843881796,-1.4043295335613573
12.29196194,1.0271353900933609,-3.5336296815268713,-1.394347017652403
12.29671652,0.8243412980301501,-3.592514250366374,-1.3787017345880708
12.3014711,0.6153716810787095,-3.639202967422428,-1.357696984839398
12.30622569,0.4010322964045989,-3.672868228306148,-1.3316750270338464
12.31098027,0.18213912461256154,-3.6927458246384846,-1.3010129870170208
12.31573485,-0.04048677378786597,-3.6981437726024295,-1.2661185538107345
12.32048949,-0.2660241912143068,-3.6884505759374724,-1.2274255051023863
12.32524407,-0.49365642550855426,-3.663142814873679,-1.185389105107924
12.32999866,-0.7225755865472011,-3.621791963246884,-1.1404814172727342
12.33475324,-0.9519864966494079,-3.5640703484901874,-1.0931865732156902
12.33950782,-1.1811101307455432,-3.489756182976421,-1.0439960374981305
12.34426246,-1.4091865495532707,-3.39873760987506,-0.9934039052055663
12.34901704,-1.6354772873289072,-3.291015721841185,-0.9419022661502815
12.35377162,-1.8592671652914197,-3.166706526015614,-0.8899766662478993
12.35852621,-2.07986551285672,-3.026041843536589,-0.8381016941488896
12.36328079,-2.296606791614235,-2.8693691456434314,-0.786736720417003
12.36803538,-2.5088506313806516,-2.6971503411810773,-0.736321817771202
12.37278996,-2.7159813029606075,-2.509959541710528,-0.6872738934735255
12.37754459,-2.917406667330785,-2.3084798404597917,-0.6399830674160009
12.38229918,-3.112556654792006,-2.0934991501058127,-0.5948093304181173
12.38705376,-3.300881339544647,-1.8659051520340275,-0.5520795159742933
12.39180834,-3.481848684925657,-1.6266794164842358,-0.5120846152831204
12.39656293,-3.6549420422798926,-1.3768907590529704,-0.47507746042464905
12.40131751,-3.8196574922874977,-1.1176879045192214,-0.4412707947194163
12.40607209,-3.975501121643742,-0.8502915339323089,-0.4108357432277001
12.41082673,-4.121986330308279,-0.5759857952862956,-0.38390069055497816
12.41558131,-4.258631265065965,-0.2961093617667889,-0.36055056803856483
12.4203359,-4.384956473821785,-0.012046124320502003,-0.340826548276036
12.42509048,-4.500482871870207,0.27478439299910823,-0.32472614190119836
12.42984506,-4.604730106364863,0.562936805935452,-0.3122036893881347
12.4345997,-4.697215398451497,0.8509497429232618,-0.30317123916510547
12.43935428,-4.777452934149633,1.1373557316574439,-0.2974998020763926
12.44410886,-4.844953865250109,1.4206910161112605,-0.29502097093021457
12.44886345,-4.899226970437221,1.6995052248905076,-0.2955288923420169
12.45361803,-4.939780014761336,1.972370816778174,-0.29878257628331734
12.45837261,-4.966121832696837,2.2378922349626564,-0.30450852670818324
12.46312725,-4.977765146525819,2.4947147075575073,-0.3124036744077131
12.46788183,-4.974230117883806,2.74153263842599,-0.3221385909033791
12.47263642,-4.955048616185417,2.9770975388604057,-0.33336095981266683
12.477391,-4.919769173524038,3.200225457206053,-0.3456992797921352
12.48214558,-4.867962581730338,3.4098038699543594,-0.3587667709536508
12.48690017,-4.799228073806426,3.604798004060093,-0.37216545459378725
12.49165475,-4.713200019163934,3.784256566176304,-0.38549037418543564
12.49640933,-4.609555050237359,3.9473168600793826,-0.3983339238694296
12.50116397,-4.488019527361176,4.093209278725928,-0.4102902491798944
12.50591855,-4.3483772394842015,4.221261162106239,-0.42095968346656204
12.51067314,-4.1904772304696225,4.330900016308063,-0.4299531824518293
12.51542772,-4.014241634450372,4.421656092962888,-0.43689671857244045
12.5201823,-3.8196733989876135,4.4931643315183445,-0.44143559618445927
12.52493688,-3.6068637716023066,4.545165669590938,-0.44323864833340215
12.52969147,-3.375999423601421,4.577507729052967,-0.4420022755987876
12.5344461,-3.127369085000009,4.590144887564582,-0.4374542875225509
12.53920069,-2.8613695657668807,4.583137747053493,-0.4293575073487578
12.54395527,-2.578511041631167,4.5566520122434175,-0.4175131012677725
12.54870985,-2.279421487323743,4.5109567937976465,-0.4017635940928741
12.55346444,-1.9648501464279504,4.446422352025176,-0.3819955343092052
12.55821902,-1.6356699349943007,4.363517298437954,-0.35814177272579806
12.56297366,-1.2928786857225074,4.262805273789182,-0.33018332054110155
12.56772824,-0.9375991507932642,4.144941122601547,-0.298150754530152
12.57248282,-0.57107769427682,4.010666585649103,-0.26212513932933457
12.57723741,-0.1946816193576358,3.860805533431257,-0.22223843950433259
12.58199199,0.19010490874999786,3.696258765414201,-0.1786733973212404
12.58674657,0.5816863665493747,3.517998401740607,-0.13166285597587035
12.59150116,0.9783628073143756,3.3270618962307283,-0.08148851251886222
12.59625579,1.3783382135985487,3.124545701819754,-0.028479089852899046
12.60101038,1.7797302342016816,2.9115986221020416,0.02699207704512797
12.60576496,2.1805812529259154,2.6894148853815394,0.08451003913457521
12.61051954,2.578870716473068,2.4592269805345675,0.14362180702309055
12.61527413,2.972528628861319,2.222298297012235,0.20384048424997292
12.62002871,3.3594501001999464,1.9799156143329648,0.26464993575138546
12.62478334,3.737510819044427,1.7333814892878263,0.3255099581170278
12.62953793,4.104583300315169,1.4840065916340486,0.38586190843164425
12.63429251,4.458553745230094,1.2331020411278668,0.44513473787536617
12.63904709,4.797339336069924,0.9819718002077136,0.5027513650123744
12.64380168,5.118905777015023,0.7319051773504284,0.5581353121984322
12.64855626,5.421284882974691,0.4841694959550503,0.6107175173037397
12.65331084,5.702592011593441,0.24000298245117124,0.6599432225914736
12.65806548,5.9610431298474,0.000607925142172467,0.7052788338379631
12.66282006,6.1949713061746055,-0.23285584783798935,0.7462186365426395
12.66757464,6.402842422102325,-0.4592771269304428,0.7822912534790369
12.67232923,6.583269903848984,-0.6775990756882734,0.8130657300242982
12.67708381,6.735028284291651,-0.8868245457582326,0.8381571414078512
12.6818384,6.857065418945667,-1.0860209214775685,0.8572316290748702
12.68659298,6.948513196247274,-1.2743244687232878,0.870010790456319
12.69134756,7.008696602462599,-1.450944169071838,0.8762753653924438
12.6961022,7.037141024630031,-1.6151650278340448,0.8758681809902548
12.70085678,7.033577700259903,-1.766350852902361,0.868696333260427
12.70561136,6.997947248973426,-1.9039465100514983,0.8547325979827997
12.71036595,6.930401247928267,-2.0274796686797285,0.8340160751487435
12.71512053,6.8313018392761125,-2.136562059290103,0.8066520815008837
12.71987511,6.7012193839461665,-2.230890269758053,0.7728113144956538
12.72462975,6.540928201730762,-2.310246111306769,0.732728318614723
12.72938433,6.351400462721466,-2.3744965870169343,0.6866992913844884
12.73413892,6.133798319063845,-2.423593495651102,0.6350792717553708
12.7388935,5.889464388024674,-2.457572701615109,0.5782787577499071
12.74364808,5.619910716705102,-2.4765530980569173,0.5167598037154172
12.74840267,5.326806374692592,-2.480735284531081,0.4510316503708299
12.75315725,5.011963833066727,-2.470399973565458,0.38164594334901997
12.75791188,4.677324296333819,-2.445906132191709,0.3091915982449276
12.76266647,4.32494215827152,-2.4076888554468368,0.23428937231091304
12.76742105,3.956968753786829,-2.3562569594982135,0.15758620482347854
12.77217564,3.5756355773485478,-2.2921902729898,0.07974938963883663
12.77693022,3.183237134979038,-2.216136597189913,0.0014606443118444009
12.7816848,2.78211359166083,-2.1288082993514217,-0.07658986015097409
12.78643939,2.374633369562987,-2.0309785001444265,-0.1537094472315744
12.79119402,1.9631758448070302,-1.9234768156971314,-0.22920880425279122
12.7959486,1.5501142818050577,-1.80718461801466,-0.3024077250431521
12.80070319,1.1377991350293848,-1.68302978436284,-0.3726406869211294
12.80545777,0.7285418389536624,-1.551980916434246,-0.43926223045689605
12.81021235,0.32459919804825704,-1.4150410235507727,-0.5016521145895164
12.81496694,-0.07184151999759068,-1.2732406805762102,-0.5592202205294151
12.81972152,-0.45867669331422983,-1.1276306901609117,-0.6114111770180595
12.8244761,-0.8338995711056357,-0.9792742994024913,-0.6577086791312096
12.82923069,-1.195612537172215,-0.8292390412754025,-0.6976394744526371
12.83398532,-1.5420383416379575,-0.67858828928083,-0.7307769940462425
12.83873991,-1.8715302389552568,-0.5283726282224939,-0.7567446097952236
12.84349449,-2.1825809790161914,-0.3796211543065815,-0.7752185028882893
12.84824907,-2.473830607528058,-0.23333282413073345,-0.7859301299542314
12.85300366,-2.7440730414028263,-0.09046797505226702,-0.7886682738923725
12.85775824,-2.9922613945141916,0.048059860690531406,-0.7832806665512901
12.86251282,-3.217512038784971,0.1813917286366221,-0.7696751708783105
12.86726746,-3.4191073953682944,0.30873049758971893,-0.7478205116412348
12.87202204,-3.596497460844199,0.4293474719011744,-0.7177465465755033
12.87677663,-3.7493000837975208,0.5425882745124581,-0.6795440736252764
12.88153121,-3.87730001752927,0.6478779163849095,-0.6333641743135521
12.88628579,-3.9804467845392226,0.7447249808441193,-0.5794170977073265
12.89104038,-4.058851397469744,0.8327248651536133,-0.5179706936802727
12.89579501,-4.11278198927096,0.9115620360652902,-0.44934840815613325
12.90054959,-4.1426584124227,0.9810112709996922,-0.37392685674736464
12.90530418,-4.14904587319931,1.0409378717391384,-0.29213299667883524
12.91005876,-4.132647672321503,1.0912968529231488,-0.2044409200785528
12.91481334,-4.094297128066154,1.1321311230650246,-0.11136829460626464
12.91956793,-4.034948762137824,1.1635686910946375,-0.013472479984307213
12.92432251,-3.955668832423704,1.1858189463759838,0.08865364867580784
12.92907709,-3.8576253001656067,1.1991680744883677,0.19438613776221977
12.93383168,-3.7420773220095205,1.2039736844620972,0.30307461739877495
12.93858631,-3.6103643596574715,1.2006587352358076,0.4140471524823128
12.9433409,-3.463895001212496,1.1897048594694595,0.5266152444731572
12.94809548,-3.3041355885639097,1.171645191183143,0.6400789445280503
12.95285006,-3.132598744184169,1.1470568097657696,0.753732037307964
12.95760464,-2.9508318884896942,1.1165529165715762,0.8668672536315253
12.96235923,-2.7604058355578176,1.0807748615497592,0.9787814691114617
12.96711381,-2.562903550689216,1.0403841361747304,1.0887808450991037
12.97186845,-2.359909148306493,0.9960544454736487,1.196185867814844
12.97662303,-2.152997203205314,0.9484639663439289,1.3003362416173587
12.98137761,-1.943722442366283,0.8982878918124669,1.4005955930762393
12.9861322,-1.7336098784641898,0.8461913516498304,1.4963559439146026
12.99088678,-1.5241454399201653,0.7928227891118975,1.5870419130137359
12.99564136,-1.3167671458828452,0.7388078618905561,1.672114610579649
13.00039595,-1.1128568679585,0.684743923001684,1.7510751913204603
13.00515053,-0.9137327138918186,0.63119512471071,1.8234680380650492
13.00990517,-0.7206420617638772,0.5786881760585909,1.8888835525541487
13.01465975,-0.5347552666499875,0.5277087724379514,1.9469605359495312
13.01941433,-0.35716005511443133,0.4786987042694591,1.9973881476768356
13.02416892,-0.18885661648883212,0.43205364136313773,2.039907437273971
13.0289235,-0.03075339368621807,0.3881215801564713,2.0743124497046557
13.03367808,0.11633642954237326,0.34720193275838335,2.1004509098838233
13.03843267,0.25169775337512373,0.30954522958827224,2.1182244967588035
13.0431873,0.37471571195781733,0.2753534013333789,2.1275887210811315
13.04794188,0.48487716604719366,0.24478060088561485,2.128552423968191
13.05269647,0.5817715589118234,0.2179345217801323,2.1211769155596083
13.05745105,0.665091158655895,0.1948781663602504,2.1055747746393636
13.06220564,0.7346307118452016,0.1756320143649304,2.081908331148133
13.06696022,0.7902865342910292,0.1601765408210328,2.050387854164331
13.0717148,0.8320550652009878,0.1484550309790121,2.011269468279567
13.07646939,0.8600309107896992,0.1403766395131704,1.9648528213904495
13.08122402,0.8744044030249222,0.13581964126790588,1.9114785267706098
13.0859786,0.8754586986179619,0.13463482141903194,1.8515254018296625
13.09073319,0.8635664427658333,0.13664895398443203,1.785407525189449
13.09548777,0.839186021596027,0.1416683191200648,1.7135711326676455
13.10024235,0.8028574268061244,0.14948221155332828,1.6364913715635563
13.10499694,0.7551977556612128,0.15986639483471043,1.5546689313884274
13.10975152,0.6968963693367288,0.17258645884314894,1.4686265679416501
13.1145061,0.6287097326235868,0.18740104117596082,1.3789055365098941
13.11926069,0.5514559583243653,0.2040648766955258,1.2860619491588572
13.12401532,0.4660090802997541,0.22233164357210625,1.1906630708231831
13.12876991,0.37329307999265343,0.2419565785996989,1.0932835692701002
13.13352449,0.2742756921965815,0.2626988392804016,0.9945017348984669
13.13827907,0.1699620167065357,0.2843235950668096,0.8948956874996722
13.14303366,0.06138796325393719,0.3066038351243233,0.7950395883282185
13.14778824,-0.050386442182392854,0.3293218849535049,0.6954998769648768
13.15254282,-0.16428386093120656,0.35227062914194335,0.5968315534369144
13.15729741,-0.27921652562571597,0.3752544423339039,0.49957452687240395
13.16205204,-0.3940931745566968,0.39808983512955554,0.4042500526162708
13.16680663,-0.5078260056567921,0.4206058259535787,0.3113572802299685
13.17156121,-0.6193376187894173,0.44264405387068534,0.22136993513001135
13.17631579,-0.7275679144539583,0.46405865079441777,0.13473315678559417
13.18107038,-0.831480916483975,0.48471589446821967,0.0518605163854298
13.18582496,-0.9300714857872026,0.5044936659354049,-0.026868763312693684
13.19057954,-1.022371891641643,0.523280736916987,-0.10111236363567565
13.19533412,-1.1074582065179217,0.5409759135686244,-0.170567179453235
13.20008871,-1.1844564898478707,0.5574870634925191,-0.2349713615760667
13.20484334,-1.2525487256106518,0.5727300526463572,-0.2941060722824784
13.20959793,-1.3109784780768947,0.5866276179411648,-0.3477969354259407
13.21435251,-1.3590562295725153,0.5991081999016261,-0.3959151640341048
13.21910709,-1.3961643637573868,0.6101047578583495,-0.43837834993652186
13.22386168,-1.421761757743602,0.6195535878666755,-0.47515090172998964
13.22861626,-1.4353879464930823,0.6273931610425432,-0.5062441192973894
13.23337084,-1.436666823411304,0.6335629974309523,-0.5317158951467001
13.23812543,-1.4253098419557706,0.6380025880351085,-0.5516700350527887
13.24288006,-1.4011186844664718,0.6406503753729496,-0.5662551928860037
13.24763465,-1.363987366363526,0.6414428009945173,-0.5756634171083634
13.25238923,-1.3139037463881256,0.6403134268472538,-0.580128309211409
13.25714381,-1.2509504166899708,0.6371921362352078,-0.5799227973584206
13.2618984,-1.175304950250782,0.6320044193708253,-0.5753565316722705
13.26665298,-1.087239487323396,0.6246707481374807,-0.5667729109620653
13.27140756,-0.9871196472070553,0.6151060446372357,-0.5545457541808931
13.27616214,-0.875402756733918,0.6032192483597505,-0.5390756335380711
13.28091673,-0.7526353922919988,0.5889129873320696,-0.5207858900022854
13.28567131,-0.6194502380756927,0.572083359338095,-0.5001183561515972
13.29042595,-0.4765622696026662,0.5526198301670622,-0.4775288164305656
13.29518053,-0.3247642784073084,0.5304052567899201,-0.4534822413986356
13.29993511,-0.1649217610877369,0.5053160442739927,-0.4284478405458891
13.3046897,0.0020327968142385367,0.4772224460123246,-0.40289398686431876
13.30944428,0.17510620471115076,0.4459890173729674,-0.37728307415828566
13.31419886,0.35325137498248455,0.41147523313902107,-0.352066373874099
13.31895345,0.5353746057733308,0.3735362791303107,-0.3276789616633717
13.32370803,0.7203432840375333,0.33202402817156357,-0.3045347852962703
13.32846267,0.906993949411243,0.2867882100481279,-0.2830219454378974
13.33321725,1.0941406549792072,0.23767778418546992,-0.2634982595679961
13.33797183,1.2805835569276547,0.18454252242096744,-0.24628717710754489
13.34272642,1.465117661610866,0.12723480733909523,-0.23167411061453916
13.347481,1.6465416558318313,0.06561164916349775,-0.21990324366286537
13.35223558,1.8236667442594683,-0.00046307889080819486,-0.21117487064552196
13.35699017,1.9953254169550954,-0.07111619061180428,-0.20564331718324919
13.36174475,2.1603800700132343,-0.14646253023800315,-0.20341548204743853
13.36649933,2.3177314033584078,-0.22660212228417356,-0.20455003255125356
13.37125397,2.466326521757495,-0.311617145902793,-0.2090572753125301
13.37600855,2.6051666680338514,-0.40156875746211645,-0.21689971328986382
13.38076314,2.7333145211906573,-0.49649379070667093,-0.22799328822870726
13.38551772,2.8499009965253883,-0.596401369586687,-0.24220929535003188
13.3902723,2.954131489694134,-0.7012694744789003,-0.2593769445285979
13.39502688,3.045291511929524,-0.8110415079459345,-0.27928652964715994
13.39978147,3.122751669137864,-0.9256229112452187,-0.3016931556266892
13.40453605,3.1859719433551024,-1.0448778873173863,-0.3263209611866334
13.40929064,3.2345052410027533,-1.1686262897473623,-0.35286776502959877
13.41404522,3.268000178515924,-1.2966407399802695,-0.38101005416324873
13.41879985,3.286203082148769,-1.4286440366857749,-0.4104082256698068
13.42355444,3.288959185007751,-1.5643069214374488,-0.4407119875084161
13.42830902,3.276213010535289,-1.7032462637252184,-0.4715658199898836
13.4330636,3.248007937737235,-1.8450237257845985,-0.502614397865754
13.43781819,3.204484949507743,-1.9891449639790642,-0.5335078747696794
13.44257277,3.1458805716822567,-2.1350594187787237,-0.5639069386546168
13.44732735,3.0725240171987145,-2.2821607399755957,-0.5934875592488982
13.45208194,2.9848335570397766,-2.429787887735004,-0.6219453642482293
13.45683652,2.883312147230659,-2.5772269432930983,-0.6489995962965734
13.46159116,2.768542348660449,-2.723713655392477,-0.674396615066694
13.46634574,2.6411805835488606,-2.8684367397799027,-0.6979129174600621
13.47110032,2.50195077892944,-3.010541939258311,-0.7193576552453181
13.47585491,2.3516374537333085,-3.1491368409652316,-0.7385746348852228
13.48060949,2.191078312175031,-3.2832964358654184,-0.7554437900675229
13.48536407,2.0211564123094514,-3.412069393041102,-0.7698821241213374
13.49011866,1.842791984806646,-3.534485008409568,-0.7818441269441615
13.49487324,1.6569339829768281,-3.6495607742191463,-0.7913216786744366
13.49962782,1.4645514505953163,-3.7563105023671133,-0.7983434593933181
13.50438241,1.2666247988823507,-3.853752921607391,-0.8029738901027227
13.50913704,1.0641370878892107,-3.940920656474783,-0.8053116349053352
13.51389163,0.8580654103648812,-4.016869484660289,-0.8054876977747011
13.51864621,0.6493724777603321,-4.080687760030868,-0.8036631497621761
13.52340079,0.43899850819898234,-4.131505880867372,-0.8000265241895971
13.52815538,0.22785351485440017,-4.168505677513431,-0.7947909185351839
13.53290996,0.016810090161406777,-4.190929590725158,-0.7881908424783847
13.53766454,-0.19330322329524605,-4.198089511731543,-0.7804788519957351
13.54241912,-0.40170789033240706,-4.189375157412077,-0.7719220095197855
13.54717371,-0.6076805913719527,-4.164261859049355,-0.7627982100242772
13.55192829,-0.8105576115141379,-4.122317650740201,-0.7533924125626641
13.55668293,-1.0097383494858063,-4.063209553625542,-0.7439928163452062
13.56143751,-1.204687895002461,-3.98670896445269,-0.7348870198751104
13.56619209,-1.3949386334012752,-3.8926960713561196,-0.7263582008120094
13.57094668,-1.580090847567097,-3.7811632357635094,-0.7186813528403024
13.57570126,-1.7598122992521266,-3.65221729652148,-0.7121196136946768
13.58045584,-1.9338367849746665,-3.506080770117106,-0.7069207157008052
13.58521043,-2.101961675917019,-3.3430919385965945,-0.7033135872944326
13.58996501,-2.2640444667511246,-3.16370383375907,-0.7015051320837684
13.59471959,-2.4199983749829395,-2.9684821417836385,-0.70167721219397
13.59947418,-2.569787049644467,-2.7581020661593856,-0.7039838650096478
13.60422876,-2.71341846503413,-2.5333441984399996,-0.7085487858021907
13.6089834,-2.8509380908353994,-2.2950894560390083,-0.7154631112116411
13.61373798,-2.9824214438914654,-2.0443131543206654,-0.7247835387069455
13.61849256,-3.107966139161701,-1.7820782869957243,-0.7365308145491358
13.62324714,-3.227683568040555,-1.509528094615221,-0.7506886178405335
13.62800173,-3.341690341270694,-1.2278780059477186,-0.767202861723656
13.63275631,-3.4500996409555795,-0.9384070412603167,-0.7859814254336677
13.6375109,-3.5530126313986674,-0.6424487699368381,-0.8068943232394373
13.64226548,-3.6505100813523823,-0.34138191734917067,-0.8297743086378221
13.64702006,-3.7426443504408144,-0.03662071733224058,-0.8544179046802842
13.65177465,-3.8294318898013433,0.2703948931113655,-0.8805868442547683
13.65652928,-3.910846401303358,0.578209141234321,-0.9080098979739815
13.66128386,-3.986812791121164,0.8853602547698756,-0.9363850626952039
13.66603845,-4.057202042120234,1.1903901773091874,-0.9653820812520866
13.67079303,-4.1218271156930335,1.4918540781526421,-0.9946452639444197
13.67554761,-4.180439977693147,1.7883295780751398,-1.0237965842521863
13.6803022,-4.232729825407976,2.0784256194803974,-1.0524390240673658
13.68505678,-4.2783225735671335,2.3607909171024244,-1.0801601462803163
13.68981136,-4.316781637669494,2.634121933478911,-1.1065358739678852
13.69456595,-4.347610032828588,2.897170331650121,-1.1311344554082883
13.69932053,-4.370253786200829,3.1487498657661583,-1.1535205928453032
13.70407517,-4.3841066411053395,3.387742678397622,-1.173259710713354
13.70882975,-4.388516011345424,3.6131049812338065,-1.1899223363159686
13.71358433,-4.382790125174899,3.823872103402276,-1.2030885630580876
13.71833892,-4.36620628003277,4.019162898728896,-1.212352563511247
13.7230935,-4.3380201118685076,4.198183509760453,-1.217327116993344
13.72784808,-4.297475766909228,4.3602304921933,-1.2176481140544309
13.73260267,-4.243816849382469,4.504693308416559,-1.2129789983189505
13.73735725,-4.176298006240465,4.63105620314726,-1.2030151045725397
13.74211183,-4.094196999480351,4.7388994776107785,-1.1874878508293465
13.74686642,-3.996827108289327,4.827900181445009,-1.1661687414040869
13.751621,-3.8835496969844967,4.897832243549459,-1.1388731377588905
13.75637558,-3.7537867805537557,4.948566064547811,-1.1054637540956918
13.76113022,-3.607033417509516,4.9800675944882125,-1.0658538353045455
13.7658848,-3.44286975970544,4.992396919983135,-1.020009975936752
13.77063938,-3.260972590700408,4.985706385299359,-0.9679545403262372
13.77539397,-3.0611261881528566,4.960238272041773,-0.9097676458028073
13.78014855,-2.8432323515691893,4.916322062106766,-0.8455886730858974
13.78490314,-2.6073194444847183,4.854371308572402,-0.7756172703706647
13.78965772,-2.353550309778067,4.774880139200101,-0.7001138202825253
13.7944123,-2.0822289282349717,4.678419417305071,-0.6193993417792764
13.79916688,-1.793805703574705,4.56563258496159,-0.5338548022769929
13.80392147,-1.4888812717872744,4.4372312138711,-0.44391981887465254
13.80867605,-1.1682087486450774,4.293990289732918,-0.35009073167317256
13.81343064,-0.8326943465110919,4.136743256599824,-0.25291803690996534
13.81818527,-0.48339630995795435,3.966376848455568,-0.15300317298392518
13.82293985,-0.12152213913178223,3.783825736105761,-0.05099465840931298
13.82769444,0.25157590989880096,3.5900670184122414,0.05241641272309815
13.83244902,0.6344070375557903,3.386114587903175,0.1565015051159388
13.8372036,1.0253497941557892,3.1730134018446803,0.26050038619799926
13.84195819,1.4226616007024433,2.9518336909684852,0.3636274512035773
13.84671277,1.824489821522564,2.723665139216273,0.46507859221016656
13.85146735,2.2288842914076095,2.489611069051605,0.5640385644096261
13.85622194,2.6338111786489553,2.250782668013083,0.6596887924372086
13.86097652,3.0371680450813954,2.0082932930954147,0.7512155481382818
13.8657311,3.4367999454795233,1.7632528900911801,0.8378184187887298
13.87048569,3.830516391822531,1.516762565071303,0.9187189717841145
13.87524032,4.216108993401896,1.2699093446262664,0.9931695086631449
13.87999491,4.591369571815517,1.0237611602547025,1.0604617886972025
13.88474949,4.95410854094067,0.7793620903123637,1.1199355910132793
13.88950407,5.302173336408499,0.5377278902181643,1.1709869754726714
13.89425866,5.633466677212041,0.2998418382679567,1.2130760978648902
13.89901324,5.945964443906987,0.06665092068530651,1.245734436220635
13.90376782,6.237732963217766,-0.16093762427413716,1.2685712936512008
13.90852241,6.506945497580674,-0.3820593871756319,1.281279459318287
13.91327699,6.7518977503425255,-0.5958954813712399,1.2836399315541687
13.91803157,6.971022213243201,-0.8016748432823392,1.2755256331770055
13.92278616,7.162901202454438,-0.9986761386994367,1.2569040756345233
13.92754079,7.326278452260712,-1.1862292829191696,1.227838953099189
13.93229538,7.460069160307909,-1.3637165919334873,1.1884906683780652
13.93704996,7.563368403821668,-1.5305735917678813,1.1391158090727234
13.94180454,7.635457871150807,-1.6862895224367032,1.0800656053320623
13.94655912,7.675810876821162,-1.830407580911468,1.011783410618585
13.95131371,7.684095650911574,-1.9625249533189204,0.9348012548781005
13.95606829,7.660176915089822,-2.0822926899775926,0.849735525841231
13.96082288,7.604115778015666,-2.189415477798222,0.7572818392064885
13.96557746,7.516168001722904,-2.2836513631081385,0.65820916242653
13.97033204,7.39678070761436,-2.364811474243648,0.5533532600055174
13.97508663,7.246587605490164,-2.4327597874249847,0.44360953084938937
13.97984121,7.066402841363705,-2.487412971634613,0.32992531046184675
13.98459579,6.857213569609434,-2.5287403386314087,0.21329171275552558
13.98935038,6.62017136223229,-2.5567639130476043,0.0947350880239013
13.99410501,6.35658257280441,-2.571558624963959,-0.024691824749906312
13.99885959,6.067897774956823,-2.573252613722095,-0.1439189715585012
14.00361418,5.755700395344356,-2.562027617370554,-0.26186820194737614
14.00836876,5.421694658915637,-2.538119407543932,-0.3774625502905597
14.01312334,5.067692960497566,-2.5018182154344832,-0.4896354967644276
14.01787793,4.695602771729358,-2.4534690817435365,-0.5973401247948268
14.02263251,4.307413186916274,-2.393472053114649,-0.6995580923792376
14.02738709,3.9051812059595647,-2.322282140476615,-0.7953083365610651
14.03214168,3.4910178474909093,-2.240408951632224,-0.8836554337823389
14.03689626,3.0670741808914403,-2.1484159116734602,-0.9637175436882042
14.04165084,2.6355273621377373,-2.0469189904569047,-1.0346738692719977
14.04640543,2.1985667554174055,-1.9365848663339573,-1.095771570744643
14.05116006,1.7583802200716938,-1.8181284694623767,-1.146332073426318
14.05591465,1.3171406404841155,-1.6923098661643428,-1.1857567119411543
14.06066923,0.8769927750153174,-1.5599304675107912,-1.213531656482726
14.06542381,0.44004049908100573,-1.4218285694796662,-1.2292320751091834
14.0701784,0.00833451688584336,-1.2788742566150226,-1.232525500277807
14.07493298,-0.416139384378581,-1.1319637235974114,-1.2231743857912216
14.07968756,-0.8314714656867408,-0.9820130875662422,-1.2010378573150842
14.08444214,-1.2358384836268366,-0.8299517777160567,-1.1660726718874244
14.08919673,-1.6275133898296736,-0.6767155980089128,-1.1183334084040795
14.09395131,-2.0048742241441646,-0.5232395645867352,-1.05797191323663
14.0987059,-2.366412150312942,-0.37045062230729575,-0.985236025045024
14.10346048,-2.71073859039774,-0.21926034524143237,-0.9004676023077961
14.10821506,-3.0365914219098826,-0.0705577243188683,-0.8040998771647964
14.11296965,-3.3428402093394105,0.07479785810239693,-0.6966541602117569
14.11772428,-3.628490449473635,0.21598337190184838,-0.5787359228552313
14.12247886,-3.8926868175428595,0.35221851252543157,-0.4510302865156082
14.12723345,-4.134715408846215,0.482771622842349,-0.3142969510971927
14.13198803,-4.3540049781034815,0.6069650908100923,-0.16936459848550123
14.13674261,-4.550127186306375,0.7241801594197286,-0.017124810188963255
14.1414972,-4.722795872204956,0.8338610951818846,0.14147445852020288
14.14625178,-4.871865372659549,0.935518671674602,0.30543580257218234
14.15100636,-4.997327922863023,1.0287329353243102,0.47371964096796
14.15576095,-5.099310173886036,1.1131552315474644,0.6452517897608572
14.16051553,-5.178068871119023,1.1885094805222665,0.8189312810045317
14.16527011,-5.233985742957011,1.2545927030184154,0.9936383724103792
14.1700247,-5.267561654447091,1.3112748076871572,1.168242690630913
14.17477928,-5.279410085512287,1.3584976617927738,1.3416114495763847
14.17953386,-5.2702499976607315,1.3962734773397958,1.5126176839930146
14.1842885,-5.240898156664088,1.4246825537205667,1.6801484376698936
14.18904303,-5.1922609815076495,1.4438704262131212,1.8431128450609875
14.19379767,-5.1253259920825975,1.45404447678064,2.000450044776277
14.19855225,-5.041152929794154,1.4554700695573068,2.1511368633469683
14.20330683,-4.940864626594056,1.4484662780213342,2.2941952080528716
14.20806142,-4.825637698803334,1.433401274001543,2.4286991086352128
14.212816,-4.696693142232811,1.4106874502323694,2.5537813495722905
14.21757058,-4.555286904342154,1.380776348172447,2.66863963728733
14.22232517,-4.402700507437453,1.344153461358107,2.772542250079217
14.22707975,-4.240231794203164,1.3013329818619734,2.8648331225953183
14.23183433,-4.069185863226707,1.2528525536788362,2.944936321268383
14.23658892,-3.8908662576530157,1.199268092284659,3.0123598723879406
14.2413435,-3.7065664648046086,1.1411487244095024,3.066698910470873
14.24609808,-3.5175617786969933,1.0790718963843708,3.1076381213680926
14.25085272,-3.3251015711027443,1.013618693381971,3.1349534620143946
14.2556073,-3.1304020104152324,0.9453694055865967,3.148513146719885
14.26036188,-2.9346392612518906,0.8748993709268739,3.1482778981684847
14.26511647,-2.738943191682875,0.8027751176215054,3.1343004695360457
14.26987105,-2.5443916092696033,0.7295508235581919,3.106724452058381
14.27462564,-2.352005041772688,0.6557651035848086,3.065782389711327
14.27938022,-2.162742073428826,0.5819381302679992,3.011793229255069
14.2841348,-1.9774952431033672,0.5085690886811711,2.9451591396793746
14.28888939,-1.797087506430985,0.436133961410434,2.8663617400493058
14.29364397,-1.6222692603018463,0.3650836362622644,2.7759577789012657
14.29839855,-1.4537159247609548,0.295842326117982,2.6745743117189122
14.30315314,-1.2920260745673617,0.2288062879580319,2.5629034257079972
14.30790772,-1.137720110289961,0.16434282619417862,2.4416965631843244
14.3126623,-0.9912394568598647,0.10278956400756753,2.3117584964645435
14.31741688,-0.8529462758997715,0.04445396529974968,2.1739410082365604
14.32217152,-0.723123676837499,-0.010386910971804225,2.029136331967775
14.3269261,-0.6019764107051222,-0.061486442970524274,1.878270406929749
14.33168069,-0.4896320295504552,-0.10862828414317975,1.72229600181078
14.33643527,-0.38614249348135277,-0.15162602738076272,1.5621857596142468
14.34118985,-0.29148620648255935,-0.1903227157185309,1.3989252146211286
14.34594444,-0.20557046126066297,-0.22459022061681966,1.2335058297218915
14.35069902,-0.128234272457192,-0.2543285092805228,1.0669180995513716
14.3554536,-0.059251576590191264,-0.2794648227225991,0.9001447617843903
14.36020819,0.0016652239878845372,-0.2999527862675071,0.7341541558691389
14.36496277,0.05486139700183653,-0.3157714738483936,0.5698937655621196
14.36971735,0.10073572117279421,-0.3269244467225562,0.4082839790003517
14.37447194,0.13973605855817914,-0.33343878608284105,0.25021209775391623
14.37922652,0.17235468595552392,-0.3353641374695243,0.09652662433766578
14.3839811,0.1991234141400239,-0.3327717828977326,-0.0519681440139183
14.38873569,0.22060852470495923,-0.32575375423932224,-0.1945171889411366
14.39349027,0.23740555514269227,-0.3144219986868159,-0.33041948681092925
14.39824485,0.2501339635380003,-0.2989076041522243,-0.4590323428562068
14.40299944,0.25943170482907496,-0.279360089304841,-0.5797753207315043
14.40775407,0.2659497510019263,-0.2559467597323971,-0.6921337457282829
14.41250866,0.27034658780277643,-0.2288521285255153,-0.7956617610541037
14.41726324,0.27328272057490277,-0.19827739653372317,-0.8899849177905598
14.42201782,0.275415221663351,-0.16443998470650956,-0.9748022803979999
14.42677241,0.27739235151240255,-0.1275731083898716,-1.0498880309328091
14.43152699,0.2798482851492956,-0.08792538127109958,-1.1150925565053238
14.43628157,0.2833979752500183,-0.045760434928872766,-1.1703430059634685
14.44103616,0.2886321824569669,-0.0013565387250455642,-1.2156433033663516
14.44579074,0.2961127030856932,0.04499379587487296,-1.251073607534578
14.45054532,0.3063678238258482,0.09298424251150107,-1.2767892088512651
14.45529991,0.3198880325049793,0.14229513407038877,-1.2930188565654686
14.46005449,0.33712201342659764,0.19259399801908011,-1.3000625121461473
14.46480907,0.3584729551877467,0.24353616559663302,-1.2982885267792406
14.46956366,0.3842951981858083,0.29476546553366567,-1.2881302439467026
14.47431829,0.41489124817367945,0.34591501079080006,-1.2700820313803172
14.47907288,0.45050918108563287,0.39660808454955276,-1.2446947512006692
14.48382746,0.4913404626991493,0.44645912951474975,-1.2125706839876504
14.48858204,0.537518204242381,0.495074842621995,-1.1743579330309006
14.49333663,0.5891158716742291,0.5420553755936287,-1.1307443486863389
14.49809121,0.6461464622487264,0.5869956404997868,-1.0824510271802295
14.50284579,0.708562157581307,0.6294867185189548,-1.030225450342632
14.50760038,0.7762544582033519,0.669117369352451,-0.9748343410139626
14.51235496,0.8490548007286147,0.7054756381329005,-0.9170563135016075
14.51710954,0.9267356552174165,0.7381505561393875,-0.8576744005753952
14.52186412,1.0090120969532865,0.7667339312048759,-0.7974685390575206
14.52661871,1.0955438434991291,0.7908222233985603,-0.7372080956325258
14.53137329,1.185937744499082,0.8100185013911061,-0.6776445133161584
14.53612788,1.2797507082125503,0.8239344748458859,-0.6195041571785614
14.54088246,1.3764930452070476,0.8321925981970909,-0.5634814354690851
14.54563704,1.4756322060067244,0.834428241249193,-0.5102322692669773
14.55039163,1.5765968858131219,0.8302919221320328,-0.46036798019777775
14.55514621,1.6787814657088105,0.8194515982308903,-0.41444966161601554
14.55990079,1.7815507560523143,0.8015950107273799,-0.3729830939717458
14.56465538,1.8842450041150438,0.7764320782767407,-0.3364142598693676
14.56941001,1.9861851244636959,0.7436973350609082,-0.30512550861018894
14.57416459,2.086678107251834,0.7031524079606195,-0.2794324137952322
14.57891918,2.1850225565741006,0.6545885268550671,-0.25958136084627087
14.58367376,2.2805143084874286,0.597829061042473,-0.24574789405589284
14.58842834,2.37245207634005,0.5327320734169673,-0.23803584496191857
14.59318293,2.460143069774321,0.4591928822686917,-0.23647725542345266
14.59793751,2.542908533259109,0.37714661835058144,-0.24103309975271703
14.60269209,2.6200891503107515,0.28657076217562083,-0.25159480067616047
14.60744668,2.6910502607023634,0.18748764341844854,-0.2679865238591747
14.61220126,2.75518683993546,0.0799668808838057,-0.2899682253687195
14.61695584,2.8119281930207642,-0.03587226210248076,-0.31723941592681193
14.62171043,2.8607423181220666,-0.1598586356759991,-0.3494435952970356
14.62646501,2.9011398997648286,-0.291767107128517,-0.3861732998318075
14.63121959,2.9326778959795674,-0.4313166459502743,-0.42697569629543014
14.63597418,2.9549626888034886,-0.5781686287935458,-0.47135864579026543
14.64072876,2.967652772869311,-0.7319254054202674,-0.518797153181869
14.64548334,2.970460962246143,-0.8921291686497141,-0.5687401100693218
14.65023793,2.9631561011520287,-1.0582611726446467,-0.6206172332913329
14.65499251,2.9455642695253395,-1.2297413444637444,-0.6738460964529787
14.65974714,2.91756947961846,-1.4059283335797021,-0.7278391495708044
14.66450173,2.8791138646659076,-1.5861200429897007,-0.7820106229371464
14.66925631,2.830197365228442,-1.7695546836718805,-0.8357832174119976
14.6740109,2.770876923073024,-1.9554123915161583,-0.8885944951850405
14.67876548,2.701265196559281,-2.1428174424335076,-0.9399029006245092
14.68352006,2.6215288155962275,-2.3308410969674633,-0.989193356279016
14.68827465,2.5318861983107745,-2.5185051002193766,-1.0359823913209942
14.69302923,2.4326049555213243,-2.704785856153405,-1.0798227680509864
14.69778381,2.3239989128307723,-2.8886192873576078,-1.1203075776963103
14.7025384,2.2064247836322592,-3.0689063821524925,-1.1570737812429537
14.70729298,2.0802785296303066,-3.2445194206391035,-1.1898051756962487
14.71204756,1.9459914487037049,-3.4143088599752764,-1.2182347716865272
14.71680214,1.8040260330960192,-3.577110847014016,-1.2421465747968257
14.72155673,1.654871643943493,-3.731755313643302,-1.2613767698608083
14.72631131,1.4990400509188921,-3.877074597005384,-1.2758143139517246
14.7310659,1.337060888202543,-4.0119125135744484,-1.2854009492648435
14.73582048,1.1694770800892524,-4.1351338032102625,-1.2901306515109505
14.74057506,0.9968402913419558,-4.245633847197251,-1.2900485331611642
14.74532965,0.8197064589102357,-4.342348553361482,-1.2852492244544957
14.75008423,0.6386314627555595,-4.424264292062752,-1.275874758939277
14.75483881,0.45416699408776057,-4.490427759579654,-1.2621119946426484
14.75959345,0.2668566790959822,-4.539955640484859,-1.2441896066032518
14.76434803,0.07723251505045584,-4.572043938322589,-1.222374691071774
14.76910261,-0.11418832666244642,-4.585976844438934,-1.1969690257346008
14.7738572,-0.3069062794448705,-4.581135018258474,-1.168305033517325
14.77861178,-0.5004416956738426,-4.557003158619187,-1.1367414997245333
14.78336636,-0.6943366548602918,-4.513176754848325,-1.1026590934568445
14.78812095,-0.8881562305472517,-4.44936791787981,-1.0664557444789886
14.79287553,-1.0814891874307673,-4.365410205597898,-1.0285419260857103
14.79763011,-1.2739480875604658,-4.261262372386177,-0.9893358931246675
14.8023847,-1.4651687926098365,-4.137010990133134,-0.9492589223129662
14.80713928,-1.6548093582670287,-3.992871906173491,-0.908730599536878
14.81189386,-1.8425483270029908,-3.8291905222022344,-0.8681641963075675
14.81664845,-2.0280824370272654,-3.6464408963764448,-0.8279621754373847
14.82140303,-2.2111237781446214,-3.4452236879088076,-0.7885118647190497
14.82615761,-2.391396439066589,-3.226262978864101,-0.7501813370022273
14.8309122,-2.568632704678155,-2.9904020212337183,-0.7133155351265209
14.83566678,-2.7425688748369756,-2.738597968600356,-0.678232679882479
14.84042136,-2.9129407877364804,-2.471915660970187,-0.6452209977317167
14.84517595,-3.079479140335419,-2.191520538930096,-0.6145358019484762
14.84993053,-3.2419047058009904,-1.8986707694916927,-0.5863969561162167
14.85468511,-3.39992355340581,-1.5947086710636393,-0.560986742864265
14.8594397,-3.5532223799008933,-1.2810515291014646,-0.5384481539148176
14.86419428,-3.7014640630234394,-0.9591818971666478,-0.5188836105471084
14.86894892,-3.844283547426549,-0.6306374803518778,-0.5023541170522432
14.87370345,-3.981284170903653,-0.2970006992303454,-0.4888788441208976
14.87845803,-4.112034534343982,0.04011196739456136,-0.478435134689098
14.88321267,-4.236066012473847,0.37906076365803404,-0.4709589216763353
14.88796725,-4.352870994234329,0.7181934665538088,-0.4663455451702512
14.89272183,-4.46190193177369,1.0558561326437403,-0.4644509556139562
14.89747642,-4.5625712656662705,1.390403693824121,-0.465093288979557
14.902231,-4.65425228128938,1.7202103195562606,-0.4680547993292976
14.90698558,-4.736280937475678,2.0436794688739814,-0.4730841332853657
14.91174017,-4.8079586937944105,2.3592535619765616,-0.47989892964261
14.91649475,-4.86855634729764,2.6654232081189537,-0.4881887256901158
14.92124933,-4.917318873508155,2.9607359336547896,-0.4976181498492241
14.92600392,-4.953471250045455,3.243804361338285,-0.5078303780962721
14.9307585,-4.976225224824649,3.5133137992500965,-0.5184508294167413
14.93551308,-4.984786974485025,3.7680292049046997,-0.5290910733080825
14.94026767,-4.978365582892384,4.006801497153041,-0.5393529201594263
14.94502225,-4.956182254497858,4.228573195330554,-0.5488326632194129
14.94977683,-4.9174801633099685,4.432383371615527,-0.5571254388482201
14.95453142,-4.8615348255209545,4.617371908651759,-0.5638296698705342
14.959286,-4.787664872663334,4.782783060070536,-0.5685515551389264
14.96404058,-4.695243092734955,4.927968316577168,-0.5709095669181175
14.96879517,-4.583707599124256,5.052388584739942,-0.5705389164424681
14.97354975,-4.4525729814377994,5.155615689550537,-0.5670959470044751
14.97830433,-4.3014412884900395,5.2373332152410645,-0.5602624132144588
14.98305892,-4.130012691754253,5.297336701781032,-0.549749604641993
14.9878135,-3.9380956774833633,5.335533216987649,-0.5353022719209315
14.99256808,-3.7256166174808096,5.351940326324261,-0.5167023135865046
14.99732267,-3.492628572119399,5.346684484289397,-0.4937721824297656
15.00207725,-3.2393191846385117,5.319998872858124,-0.4663779710182686
15.00683188,-2.966017532949105,5.272220713766968,-0.4344321372604016
15.01158647,-2.673199814086484,5.203788082567841,-0.3978958324979001
15.01634105,-2.361493747009245,5.11523625334111,-0.35678079659748807
15.02109558,-2.031681591563729,5.00719360377304,-0.3111507868730085
15.02585022,-1.6847016950055773,4.8803771109873235,-0.2611225104225181
15.0306048,-1.3216484923754097,4.7355874690933275,-0.20686603267698755
15.03535939,-0.9437709031592194,4.573703859890221,-0.14860463871839996
15.04011397,-0.5524690839298928,4.395678408559219,-0.0866141282870886
15.04486855,-0.14928951495790427,4.202530356502885,-0.02122153033665054
15.04962314,0.2640815820314296,3.9953399837779884,0.04719677157118457
15.05437772,0.6858264778416073,3.7752423138517943,0.11821750589641057
15.0591323,1.1140057839133195,3.5434206337301033,0.19137356844177708
15.06388688,1.5465698560702188,3.3010998628995574,0.2661576564821864
15.06864147,1.9813716744043885,3.0495398050348292,0.3420264648757159
15.07339605,2.416181098947381,2.790028317064294,0.41840541992118147
15.07815064,2.848700380485143,2.523874430950076,0.49469391879036595
15.08290522,3.276580786685909,2.2524014643601227,0.5702710338545401
15.0876598,3.697440186148573,1.9769401572042182,0.6445016321190968
15.09241439,4.108881417438539,1.6988218716827006,0.7167428502825878
15.09716897,4.5085112568813654,1.4193718939680675,0.7863508557365569
15.10192355,4.8939597879605365,1.1399028758055612,0.8526878133681892
15.10667814,5.26289996674036,0.8617084540612636,0.9151289677978218
15.11143272,5.613067171958671,0.5860570854527266,0.9730697414458856
15.1161873,5.9422785254400345,0.31418613231265236,1.0259327416486574
15.12094188,6.248451768313541,0.047296233314390465,1.073174566194602
15.12569647,6.52962348110284,-0.21345400921848776,1.114292297310739
15.13045105,6.783966440968888,-0.46695299634762294,1.148829579978106
15.13520564,7.009805917235123,-0.712140727653839,1.1763821913531187
15.13996022,7.205634717054744,-0.9480130015893724,1.196603022944662
15.1447148,7.370126807074393,-1.1736252024962976,1.2092064142348182
15.14946939,7.502149354439442,-1.38809566139192,1.2139717935360745
15.15422397,7.600773051232092,-1.5906085846900595,1.2107465972882123
15.15897855,7.665280609612994,-1.7804165532241496,1.19944845182333
15.16373314,7.695173339405456,-1.9568426026571248,1.1800666119398044
15.16848772,7.690175744646888,-2.119281904849408,1.1526626590767923
15.17324235,7.650238100293538,-2.267203077286702,1.1173704691898838
15.17799688,7.575536994833921,-2.400149153672541,1.0743954670639242
15.18275152,7.466473849191208,-2.5177382529065957,1.0240131899086096
15.1875061,7.323671446908505,-2.619663985738882,0.9665671885965025
15.19226069,7.147968534832265,-2.7056956383762634,0.9024662996966892
15.19701527,6.940412576737949,-2.7756781702327626,0.8321813254762195
15.20176985,6.702250763912469,-2.829532058898959,0.7562411623589147
15.20652444,6.434919405993739,-2.867253019340619,0.6752284211402108
15.21127902,6.140031841823787,-2.888911616463239,0.5897745848080866
15.2160336,5.819365023259172,-2.8946527807156057,0.5005547523336704
15.22078819,5.4748449345192025,-2.884695225669848,0.4082820193879045
15.22554277,5.108531015679764,-2.8593307549281706,0.3137015496007762
15.23029735,4.7225997615431,-2.8189234337844935,0.21758439259023918
15.23505194,4.3193276667931295,-2.763908589449605,0.12072110737731226
15.23980652,3.9010736857350885,-2.6947915931175284,0.02391525177040547
15.2445611,3.4702613707210315,-2.6121463685884323,-0.07202320044490555
15.24931569,3.0293608481345826,-2.5166135663919644,-0.1662844526442423
15.25407027,2.58087078483355,-2.4088983399990265,-0.2580654288347186
15.25882485,2.127300491333613,-2.2897676621350618,-0.3465762115352785
15.26357944,1.6711523009085723,-2.160047124513085,-0.4310463236472931
15.26833402,1.2149043564235227,-2.020617173368037,-0.510730809043938
15.2730886,0.7609939292418745,-1.8724087457596712,-0.584916069720778
15.27784319,0.31180138683025205,-1.716398287449363,-0.6529254180316021
15.28259777,-0.1303650825370648,-1.553602151863959,-0.7141243020653327
15.28735235,-0.563283888448824,-1.385070400478578,-0.7679251630593894
15.29210694,-0.9848335103350744,-1.2118800464981108,-0.8137918881150588
15.29686152,-1.3930049425503277,-1.0351278041152294,-0.851243829647688
15.3016161,-1.7859130425285783,-0.8559224231169875,-0.8798593728722882
15.30637069,-2.1618067224507116,-0.6753767022235332,-0.8992790412863501
15.31112527,-2.5190779356255275,-0.4945992841726053,-0.9092081357685688
15.31587985,-2.8562694197118845,-0.31468634159907927,-0.9094189054949695
15.32063444,-3.172081169819674,-0.13671326566923148,-0.899752249434498
15.32538902,-3.4653756252745347,0.03827353037782627,-0.880118947006528
15.3301436,-3.7351815643318016,0.20926458279244214,-0.8505004165028318
15.33489819,-3.98069671132365,0.3752950181758415,-0.8109490005471436
15.33965277,-4.201289070558878,0.5354517637493683,-0.7615877792530907
15.34440735,-4.396497010698271,0.6888802345511568,-0.7026099136858844
15.34916194,-4.566028132238313,0.8347904138084622,-0.6342775244810915
15.35391652,-4.7097569590988435,0.9724622526161116,-0.5569201127848619
15.3586711,-4.827721503057583,1.1012503259080995,-0.47093253289489806
15.36342569,-4.920118756814745,1.2205876933469006,-0.37677252803327554
15.36818027,-4.987299177733152,1.3299889259897386,-0.27495784256948513
15.37293485,-5.029760229786424,1.4290522722620438,-0.16606292577456608
15.37768944,-5.0481390560393855,1.5174609497302896,-0.05071524389992575
15.38244402,-5.043204358191323,1.594983562274123,0.07040878086111033
15.3871986,-5.015847563425908,1.6614736553506955,0.1965881840571954
15.39195319,-4.96707336206745,1.7168684349246495,0.3270622027178616
15.39670777,-4.897989702299825,1.7611866880471228,0.4610353242366798
15.40146235,-4.809797330347907,1.794525954688105,0.5976826130125987
15.40621699,-4.7037789659106,1.81705901092372,0.7361552848913382
15.41097152,-4.58128820315226,1.829029732663261,0.8755864968230588
15.4157261,-4.443738227124857,1.8307484165601284,1.0150973164933617
15.42048074,-4.292590434050644,1.8225866404600757,1.1538028340021373
15.42523532,-4.12934304141941,1.8049717496501743,1.290818374979388
15.42998985,-3.955519770385468,1.77838105730203,1.425265771879277
15.43474449,-3.7726586786241247,1.7433358479265408,1.5562796476395884
15.43949907,-3.5823012168683306,1.7003952714801198,1.683013663502531
15.44425366,-3.385981577101233,1.6501502130976402,1.8046466806564863
15.44900824,-3.185216395094785,1.5932172193829155,1.9203887836072049
15.45376282,-2.981494864765603,1.5302325568627302,2.029487111984413
15.45851741,-2.77626931660822,1.4618464717083361,2.1312314470005376
15.46327199,-2.570946307164206,1.3887177122762697,2.224959499145155
15.46802657,-2.3668782610897696,1.3115083675848076,2.3100618450531067
15.47278116,-2.1653557020026115,1.2308790657233668,2.385986463953608
15.47753574,-1.967600103056475,1.1474845666043827,2.4522428277758093
15.48229032,-1.7747573831872543,1.061969773630443,2.508405503829458
15.48704491,-1.5878920701937227,0.974966178995646,2.554117234834644
15.49179949,-1.407982147192432,0.8870887477209177,2.589091467652777
15.49655407,-1.2359145944264456,0.7989332363988978,2.613114309006336
15.50130866,-1.072481633836377,0.7110739342348946,2.6260458934135236
15.50606324,-0.918377679214485,0.6240618065053826,2.627821155258821
15.51081782,-0.7741969902494973,0.538423014141282,2.6184500032682454
15.51557241,-0.6404320244871216,0.45465777785317224,2.598016901649473
15.52032699,-0.5174724773246284,0.3732395510812411,2.5666798677912004
15.52508157,-0.4056049967129135,0.2946144630654792,2.524668901654768
15.52983616,-0.30501355628736904,0.2192009914428285,2.472283866767125
15.53459074,-0.21578046818660346,0.14738982291040348,2.409891846972987
15.53934532,-0.1378880148029952,0.07954386055575173,2.3379240067873126
15.54409991,-0.07122067705539206,0.01599833734589294,2.256871986308207
15.54885449,-0.015567935377598855,-0.042939003121799484,2.1672838642467225
15.55360907,0.029372381612714393,-0.09698769528168043,2.0697597247768136
15.55836366,0.06399022691579595,-0.14589434361588766,1.9649468656958948
15.56311824,0.08875897058872259,-0.18943244879735083,1.8535346868986307
15.56787282,0.10423056888506672,-0.2274022951799287,1.736249299457715
15.57262741,0.11103029592107125,-0.25963092294139933,1.6138478966951026
15.57738199,0.10985106733569137,-0.2859722039179966,1.4871129295204317
15.58213657,0.101447385987369,-0.30630703556373884,1.3568461290167533
15.58689116,0.08662894032272736,-0.3205436625587742,1.2238624197724213
15.59164574,0.06625388675587053,-0.3286181304364771,1.0889837677892333
15.59640032,0.04122184830065751,-0.3304948702745578,0.9530330069353343
15.60115491,0.01246666286705478,-0.3261674080948139,0.816827687860687
15.60590949,-0.019051083911718465,-0.3156591872603615,0.6811739930652848
15.61066407,-0.05235170473915139,-0.2990244869925265,0.5468607614147707
15.61541866,-0.08644419710772244,-0.2763494152945722,0.41465366483722327
15.62017324,-0.12033412961642828,-0.24775295018405866,0.285289579212746
15.62492782,-0.15303158555199145,-0.21338799929279148,0.15947119059438378
15.62968241,-0.18355911908114536,-0.17344244467069997,0.03786187688597757
15.63443699,-0.2109596774254665,-0.12814013709089503,-0.07891909604381186
15.63919157,-0.2343044405381996,-0.07774180234171497,-0.1903010261127563
15.64394616,-0.25270052813105665,-0.02254582093703846,-0.29576583836723025
15.64870074,-0.2652985224681474,0.037111157593855144,-0.39485172522860845
15.65345532,-0.2712997542044936,0.10085380413125142,-0.48715633074100895
15.65820991,-0.26996329773018773,0.16826794002174586,-0.5723394479362907
15.66296449,-0.26061262200159224,0.23890064247921758,-0.6501252007131963
15.66771907,-0.24264184270140046,0.31226065704277406,-0.720303684171428
15.67247366,-0.21552152177901873,0.38781914506490245,-0.782732040124566
15.67722824,-0.178803961008997,0.46501078980545635,-0.8373349475067633
15.68198282,-0.13212793721721636,0.543235279763797,-0.8841045105676342
15.68673741,-0.07522282833307725,0.6218591825375115,-0.9230995311214355
15.69149199,-0.007912081522024826,0.7002182169256144,-0.9544441547074705
15.69624657,0.06988402256253762,0.7776199253839284,-0.9783258843842996
15.70100116,0.15814635178256306,0.8533467434657162,-0.9949929602054418
15.70575574,0.25675568856030645,0.926659457690542,-1.0047511078786022
15.71051032,0.36549231175925645,0.9968010385030949,-1.0079596682164444
15.71526491,0.4840364183112871,1.0630008306999423,-1.0050271314727999
15.72001949,0.6119693986499463,1.124479079924607,-0.9964061175005047
15.72477407,0.7487759689454745,1.180451770458887,-0.9825878609380553
15.72952866,0.8938471521314473,1.230135746408654,-0.9640962762041
15.73428324,1.046484089757823,1.2727540853752763,-0.9414816875439841
15.73903782,1.2059026580564,1.307541690809676,-0.9153143149640642
15.74379241,1.3712388539832066,1.3337510665509502,-0.8861776091260082
15.74854699,1.5415549100264212,1.350658234673399,-0.8546615284687046
15.75330157,1.7158460899870676,1.3575687557987386,-0.8213558506582438
15.75805616,1.8930481116339672,1.3538238095209598,-0.7868436082095567
15.76281074,2.0720451360518313,1.3388062915376864,-0.7516947349067014
15.76756532,2.251678257630889,1.3119468834426298,-0.7164600055661768
15.77231991,2.430754423033502,1.2727300508438197,-0.68166534680641
15.77707449,2.6080557022277455,1.220699925459633,-0.6478065908378261
15.78182907,2.7823488299514687,1.1554660270379746,-0.6153447378678227
15.78658366,2.952394931920569,1.0767087812683576,-0.5847017854954153
15.79133824,3.1169593468699723,0.9841847902235179,-0.5562571754055816
15.79609282,3.274821453259863,0.8777318121679176,-0.5303448986988223
15.80084741,3.4247844083421746,0.7572734076816461,-0.5072512912286763
15.80560199,3.5656847074003486,0.6228232088563849,-0.48721353930735906
15.81035657,3.6964014724408503,0.47448876776004756,-0.4704189040871504
15.81511116,3.8158653824494344,0.3124749394553751,-0.4570046599596922
15.81986574,3.9230671614739623,0.1370867537073115,-0.44705872869612673
15.82462032,4.017065546127231,-0.05126827167465467,-0.4406209771658707
15.82937491,4.096994660415897,-0.25207842387067636,-0.43768513282538885
15.83412949,4.162070732846956,-0.46472674289954696,-0.4382012583364347
15.83888407,4.211598098282819,-0.6884906723423211,-0.4420787152260066
15.84363866,4.244974434770604,-0.9225424596314548,-0.44918953704110737
15.84839324,4.26169519336408,-1.1659503501918778,-0.4593721259559468
15.85314782,4.261357186662569,-1.4176806163874147,-0.4724351848717954
15.85790241,4.2436613093886395,-1.6766004581588128,-0.48816180114206725
15.86265699,4.208414371887695,-1.9414818075716225,-0.5063136075600385
15.86741157,4.155530035052688,-2.2110060641587124,-0.5266349578662279
15.87216616,4.085028842888849,-2.4837697816806577,-0.5488570637706681
15.87692074,3.9970373566973434,-2.7582913194108603,-0.5727020463814365
15.88167532,3.891786402644823,-3.033018462036746,-0.5978868577531181
15.88642991,3.769608452374811,-3.30633700166417,-0.6241270301972321
15.89118449,3.630934164482261,-3.576580263276467,-0.6511402140869483
15.89593907,3.4762881232529437,-3.8420395414772845,-0.678649470201023
15.90069366,3.3062838199936,-4.100975401608183,-0.7063862899551349
15.90544824,3.12161793121392,-4.351629782561404,-0.7340933248973883
15.91020282,2.9230639564115903,-4.5922388220462595,-0.7615268140807631
15.91495741,2.711465285911224,-4.82104630807329,-0.7884587034256691
15.91971199,2.4877277760107805,-5.036317643493571,-0.8146784548915168
15.92446657,2.252811914653422,-5.23635419417697,-0.8399945457401651
15.92922116,2.0077246659924346,-5.419507876473176,-0.8642356600886687
15.93397574,1.7535110864043355,-5.584195826581841,-0.8872515768261431
15.93873032,1.4912458074547743,-5.728914983897273,-0.9089137600628779
15.94348491,1.2220244828022133,-5.852256412713265,-0.9291156606473501
15.94823949,0.946955295999073,-5.952919182159354,-0.947772739866487
15.95299407,0.6671506248031897,-6.029723623034028,-0.9648222290804167
15.95774866,0.38371895524620475,-6.081623782361712,-0.9802226415065326
15.96250324,0.09775713557366932,-6.107718902083507,-0.9939530544342695
15.96725782,-0.18965694363302346,-6.107263757377107,-1.0060121817005336
15.97201241,-0.4774711613639214,-6.079677702737556,-1.0164172572919774
15.97676699,-0.7646653936427471,-6.024552290067626,-1.0252027515201823
15.98152157,-1.0502570862347558,-5.941657342391978,-1.0324189413720173
15.98627616,-1.3333061093641314,-5.830945389035769,-1.0381303563728441
15.99103074,-1.6129188392669598,-5.69255439269927,-1.0424141205818727
15.99578532,-1.8882514205361618,-5.52680872525601,-1.0453582100544254
16.00053991,-2.1585121734621384,-5.334218376668921,-1.047059643069033
16.00529449,-2.422963121977006,-5.115476409370909,-1.0476226175011454
16.01004907,-2.680920630455283,-4.871454697815047,-1.0471566061306516
16.01480366,-2.931755151643396,-4.603198018564324,-1.0457744173139887
16.01955824,-3.174890103460704,-4.311916579176461,-1.0435902271362045
16.02431282,-3.4097999091173357,-3.9989770933539295,-1.0407175917736917
16.02906741,-3.636007252192056,-3.6658925248965097,-1.037267455610413
16.03382199,-3.85307961487705,-3.3143106340204143,-1.033346179410598
16.03857657,-4.060625182534145,-2.946001467225368,-1.0290536200725344
16.04333116,-4.258288210593362,-2.562843936950235,-1.0244812966787533
16.04808574,-4.445743960698788,-2.1668116404865994,-1.0197106762654442
16.05284032,-4.622693321968863,-1.7599580694444341,-1.0148116080238723
16.05759491,-4.788857240216198,-1.3444013616359438,-1.0098409280944538
16.06234949,-4.943971082764346,-0.9223087465672686,-1.0048412501417432
16.06710407,-5.087779068902566,-0.495880833771484,-0.9998399505574331
16.07185866,-5.220028895912672,-0.06733588996107967,-0.9948483521431234
16.07661324,-5.340466687972849,0.36110575357827734,-0.9898611069220462
16.08136782,-5.448832390184809,0.7872370277829857,-0.9848557774767532
16.08612241,-5.544855722648422,1.2088790583627917,-0.9797926166995261
16.09087699,-5.628252800123738,1.623895584061111,-0.9746145475070204
16.09563157,-5.698723511588574,2.030206750122912,-0.9692473461492492
16.10038616,-5.7559497411319835,2.425802177014736,-0.9636000345273018
16.10514074,-5.799594497318284,2.8087532157710133,-0.9575654879509741
16.10989532,-5.8293020026002464,3.1772243132054685,-0.9510212648095125
16.11464991,-5.844698777750267,3.529483422373218,-0.94383066368299
16.11940449,-5.845395738847196,3.86391140586147,-0.9358440115967189
16.12415907,-5.830991306375687,4.179010391517846,-0.926900184597725
16.12891366,-5.801075507755531,4.473411051928157,-0.9168283588088246
16.13366824,-5.755235036408258,4.7458787902049036,-0.9054499867510035
16.13842282,-5.693059212568884,4.995318825348089,-0.8925809901234819
16.14317741,-5.614146773753197,5.220780180505013,-0.8780341564754276
16.14793199,-5.518113406410125,5.421458586801,-0.8616217233821755
16.15268657,-5.404599915163452,5.5966983239653905,-0.8431581299367747
16.15744116,-5.273280912518158,5.745993026684275,-0.8224629116391212
16.16219574,-5.12387390027931,5.868985492437717,-0.7993637111320607
16.16695032,-4.956148604439938,5.965466532497061,-0.7736993737122939
16.17170485,-4.7699364180813335,6.035372912750999,-0.745323093165773
16.17645949,-4.5651398019400515,6.0787844351068205,-0.7141055702971718
16.18121402,-4.341741489690442,6.095920213421907,-0.6799381436161352
16.1859686,-4.099813344587632,6.087134200342161,-0.6427358491043582
16.19072319,-3.8395247158355965,6.052910023161638,-0.6024403639307432
16.19547777,-3.561150146827599,5.9938551879745585,-0.5590227875312167
16.20023235,-3.265076293191024,5.910694712056985,-0.5124862127384308
16.20498694,-2.951807916281049,5.804264244665216,-0.4628680397072679
16.20974152,-2.6219728273200467,5.6755027363371235,-0.41024198624983643
16.2144961,-2.2763256686712063,5.525444716394581,-0.35471974983265625
16.21925069,-1.9157504316517677,5.355212237732275,-0.29645227883574626
16.22400527,-1.541261624708366,5.166006547198731,-0.23563061366474913
16.22875985,-1.1540040215573713,4.959099538980188,-0.1724862619000294
16.23351444,-0.7552509358838906,4.735825047429475,-0.10729107584354877
16.23826902,-0.34640098722373,4.497570034772113,-0.04035660558039573
16.2430236,0.07102665845774041,4.245765728089554,0.02796709400240955
16.24777819,0.49539857040090446,3.9818787589354825,0.09729321791724642
16.25253277,0.924974833705961,3.7074023578912874,0.1672005367508025
16.25728735,1.3579182853305058,3.4238476553043453,0.23723629559477016
16.26204194,1.7923051411374644,3.1327351383408346,0.3069196809706677
16.26679652,2.2261369293217306,2.8355863132510457,0.37574584230400665
16.2715511,2.6573536258955714,2.533915620295644,0.44319044555368525
16.27630569,3.0838478694652,2.229222647024285,0.5087147267084587
16.28106027,3.503480115611382,1.9229846834552897,0.5717710018561758
16.28581485,3.9140945759733756,1.6166496601035656,0.6318085783620904
16.29056944,4.313535773742773,1.3116295066593222,0.6882799985176011
16.29532402,4.699665535845356,1.0092939653373418,0.7406475332474713
16.3000786,5.0703802328401,0.710964888421063,0.7883898297737717
16.30483319,5.423628070766059,0.41791104432419873,0.8310086045526194
16.30958777,5.757426235076046,0.1313434507411911,0.8680352627679713
16.31434235,6.06987768555973,-0.14758875251339437,0.8990373199641032
16.31909694,6.359187402788218,-0.41780188415785585,0.9236245017394404
16.32385152,6.623677891077693,-0.6782807540923497,0.941454404824032
16.3286061,6.8618037503800675,-0.9280811514914382,0.9522376171081119
16.33336069,7.072165140210551,-1.1663317968071933,0.9557422137060492
16.33811527,7.253519973170676,-1.392235771859265,0.9517975682844811
16.34286985,7.404794694022107,-1.6050714490265667,0.94029744059104
16.34762444,7.5250935221633455,-1.8041929485133075,0.9212023198279088
16.35237902,7.613706059583295,-1.9890301612298338,0.894541017963453
16.3571336,7.6701131914174905,-2.1590883831711776,0.8604115174277325
16.36188819,7.693991230918683,-2.313947614392998,0.8189810848755574
16.36664277,7.685214284433699,-2.453261581011486,0.7704856679061198
16.37139735,7.643854834867036,-2.576756541587412,0.7152285956408352
16.37615194,7.570182564299341,-2.684229939612524,0.6535786074663886
16.38090652,7.464661457947974,-2.7755489617015145,0.5859672374445306
16.3856611,7.327945252268027,-2.8506490567600054,0.512885585115096
16.39041564,7.160871309269331,-2.909532465112232,0.4348805067845708
16.39517022,6.9644530166054315,-2.9522667985334494,0.3525502649196945
16.3999248,6.739870828275802,-2.97898370249259,0.26653967694041547
16.40467938,6.488462073553228,-2.989877620815272,0.1775348085368327
16.40943397,6.211709671740148,-2.985204670611214,0.08625726067149017
16.41418855,5.911229897359542,-2.965281621932433,-0.006541896270426961
16.41894314,5.588759344274874,-2.930484962589284,-0.10008848316050088
16.42369772,5.246141238038686,-2.8812500143102646,-0.19359180491415987
16.4284523,4.885311243739864,-2.8180700526034053,-0.2862514080544403
16.43320688,4.508282912254245,-2.741495370071963,-0.3772639315291588
16.43796147,4.117132901759591,-2.6521322125149047,-0.4658299760216205
16.44271605,3.7139861042369247,-2.5506415098686324,-0.5511609157753623
16.44747064,3.301000798745921,-2.4377373207278987,-0.6324855793431202
16.45222522,2.8803539446423376,-2.3141849103237537,-0.7090567327145957
16.4569798,2.4542267188656908,-2.180798387505538,-0.7801573088671203
16.46173438,2.0247903925015027,-2.0384378361251607,-0.8451063385832316
16.46648897,1.5941926335084369,-1.8880058897305856,-0.9032645449325566
16.47124355,1.1645443149578445,-1.7304437152030154,-0.9540395667127527
16.47599814,0.7379069012868031,-1.5667263905490414,-0.996890775420621
16.48075272,0.3162804788732078,-1.3978576838522814,-1.0313336485471287
16.4855073,-0.0984075082394529,-1.2248642631357232,-1.05694366202198
16.49026189,-0.5043127614523133,-1.048789388706723,-1.0733596682975535
16.49501647,-0.8996838180368033,-0.870686158535153,-1.0802867337127786
16.49977105,-1.2828708821237051,-0.6916103921328771,-1.0774984176443092
16.50452564,-1.6523337550656014,-0.5126132489726449,-1.0648384845225898
16.50928022,-2.0066488305684107,-0.3347336840117778,-1.0422220469347918
16.5140348,-2.3445151275074063,-0.1589908458744944,-1.0096361436156387
16.51878938,-2.6647593414757216,0.013623476721533582,-0.9671397604461845
16.52354397,-2.966339904430162,0.1821522569795306,-0.914863305932554
16.52829855,-3.2483500499055706,0.3456803811054503,-0.8530075552549444
16.53305314,-3.5100198889058207,0.5033414542237209,-0.7818420791599019
16.53780772,-3.7507175086331523,0.6543241729733399,-0.7017031760525554
16.54256225,-3.9699491126731146,0.7978781835646485,-0.6129913278522358
16.54731683,-4.167358227148246,0.9333193518674731,-0.5161682025383048
16.55207142,-4.342724002746781,1.0600343807548025,-0.41175322874243203
16.556826,-4.49595864746969,1.1774847193922942,-0.30031977013157135
16.56158058,-4.627104029453921,1.2852097193253325,-0.18249092960523833
16.56633517,-4.736327493376562,1.3828290029286734,-0.05893501546696212
16.57108975,-4.823916937831135,1.470044020924104,0.0696392963078416
16.57584433,-4.890275204828668,1.5466387871399694,0.20248806783866274
16.58059892,-4.935913836301391,1.6124797903854806,0.33883743578944814
16.5853535,-4.961446256155671,1.6675150951174282,0.4778891399583828
16.59010808,-4.967580439899942,1.7117726543132923,0.61882620453564
16.59486267,-4.9551111369680365,1.7453578694037089,0.7608187317845492
16.59961725,-4.92491171338227,1.7684504429913954,0.9030297671633705
16.60437183,-4.877925684226793,1.7813005801205473,1.044621194125219
16.60912642,-4.815158006481982,1.7842246028165223,1.184759616002434
16.613881,-4.737666203140913,1.777600050291144,1.322622181538148
16.61863558,-4.646551389292947,1.7618603434409361,1.4574023098684572
16.62339017,-4.542949270116559,1.7374890969062806,1.5883152702525496
16.62814475,-4.428021179474913,1.7050141648789194,1.7146035717969352
16.63289933,-4.3029452259500935,1.6650015079705458,1.835542118970962
16.63765392,-4.168907610579123,1.6180489678086012,1.9504430899121434
16.6424085,-4.027094177255006,1.5647800337170357,2.0586604963514494
16.64716308,-3.8786822528127085,1.5058376820303017,2.1595943864194127
16.65191767,-3.724832829347294,1.4418783634645085,2.2526946546221787
16.65667225,-3.5666831363953726,1.3735662077309054,2.337464426943471
16.66142683,-3.405339645309266,1.3015675074124442,2.4134629933825553
16.66618142,-3.2418715425455455,1.2265455351831005,2.4803082652647506
16.67093595,-3.077304702819551,1.1491557398524368,2.537678740240309
16.67569053,-2.912616187333383,1.070041357602795,2.5853149638265
16.68044511,-2.748729286738871,0.9898294653389798,2.6230204824469885
16.6851997,-2.5865091232601314,0.9091274935142265,2.6506622890151044
16.68995428,-2.426758821512107,0.8285202063720516,2.6681707680445705
16.69470886,-2.2702162529931016,0.7485671484917883,2.675539152890034
16.69946345,-2.1175513549492124,0.6698005480740604,2.672822512848839
16.70421803,-1.969364020252321,0.5927236597511921,2.660136292364036
16.70897261,-1.8261825510646814,0.5178095230097483,2.6376544284076275
16.7137272,-1.6884626653719543,0.4455001066606555,2.6056070753177014
16.71848178,-1.556587041971239,0.37620580522263547,2.5642779689676742
16.72323636,-1.4308653862484517,0.31030524959364036,2.5140014642016864
16.72799095,-1.3115349961445886,0.24814539194560978,2.4551592809963494
16.73274553,-1.1987618051833846,0.1900418233451917,2.3881769958165533
16.73750011,-1.0926418773877098,0.13627928211139662,2.313520315132473
16.7422547,-0.9932033273645005,0.08711231128207143,2.231691168059916
16.74700928,-0.9004086377336279,0.042766024671508564,2.1432236545707144
16.75176386,-0.8141573453208493,0.0034369427591556386,2.04867988469219
16.75651845,-0.7342890670381957,-0.03070613803437251,1.9486457426024204
16.76127303,-0.6605868360758523,-0.059521276322532804,1.8437266076098766
16.76602756,-0.5927807189004667,-0.08289254737917798,1.734543061813174
16.7707822,-0.5305516835876805,-0.10072926220193934,1.6217266119313787
16.77553678,-0.4735356902015251,-0.11296526688688131,1.505915450537565
16.78029131,-0.4213279742498243,-0.11955834107262413,1.3877502798455086
16.7850459,-0.37348749466895964,-0.12048970998279523,1.2678702193678864
16.78980048,-0.329541518300219,-0.11576368032735951,1.146908817207463
16.79455506,-0.28899031338512476,-0.10540740607706724,1.0254901834428156
16.79930964,-0.2513119251908397,-0.08947078595794285,0.9042252629872672
16.80406423,-0.2159670074374501,-0.0680264904812815,0.7837082643877508
16.80881881,-0.18240368369792734,-0.041170112485657294,0.6645132602427636
16.8135734,-0.1500624133477878,-0.00902043157570879,0.5471909742055702
16.81832798,-0.11838083694112331,0.028280220454213023,0.4322657688465059
16.82308256,-0.0867985760946409,0.07056550908970849,0.32023284792851353
16.82783714,-0.054761963101876365,0.11764457995152046,0.2115556858726389
16.83259173,-0.02172867560827257,0.169301495778915,0.10666369634481301
16.83734631,0.012827748215136615,0.22529465016573716,0.00595015098463071
16.8421009,0.04941353841963651,0.28535618218532127,-0.09022964166973162
16.84685548,0.08851049014855736,0.34919141718389524,-0.18155988801735815
16.85161006,0.13057195249255216,0.4164783598044573,-0.26776558399486994
16.85636464,0.17601903271462568,0.48686726573565053,-0.3486135055245485
16.86111923,0.22523703859155292,0.5599803187703808,-0.4239129090076323
16.86587381,0.27857218081613694,0.6354114395000523,-0.4935159372096767
16.8706284,0.33632855643495346,0.7127262513415223,-0.5573177270695945
16.87538293,0.39876543315338103,0.7914622285756626,-0.6152562171795025
16.88013751,0.4660948530118126,0.8711290496663242,-0.6673116539192449
16.88489209,0.5384795724045457,0.9512091773433784,-0.7135057964736672
16.88964668,0.6160313536519623,1.0311586848039547,-0.7539008221970633
16.89440126,0.6988096213251294,1.1104083449558821,-0.7885979350051135
16.89915584,0.7868204942468267,1.1883649969574952,-0.8177356806673197
16.90391043,0.8800162015551485,1.2644132014749128,-0.8414879740582694
16.90866501,0.9782948884319379,1.3379171931647977,-0.8600618446417376
16.91341959,1.0815008140981623,1.408223135976576,-0.873694907758286
16.91817418,1.1894249414952396,1.4746616840183475,-0.88265257072582
16.92292876,1.3018059147387897,1.536550847981803,-0.8872249845147656
16.92768334,1.41833141702633,1.5931991644592713,-0.8877237544090409
16.93243793,1.5386398984073828,1.6439091628330906,-0.8844784278074526
16.93719251,1.6623226600024859,1.6879811216697358,-0.8778327852928719
16.94194709,1.7889262790947886,1.7247171036724072,-0.868140971902945
16.94670168,1.9179553578561868,1.7534252553296152,-0.8557635167237528
16.95145626,2.048875576840743,1.7734243546009099,-0.841063297546065
16.95621084,2.1811170323614824,1.7840485873951935,-0.8244015119666953
16.96096538,2.31407783436693,1.7846525311984278,-0.8061337174802514
16.96571996,2.447127938644745,1.7746163219117583,-0.7866060020441373
16.97047454,2.579613184394161,1.753350977685876,-0.7661513442873926
16.97522913,2.710859505687579,1.7203038512220576,-0.7450862194266629
16.97998371,2.840177283277424,1.6749641796121604,-0.7237075031745788
16.98473829,2.9668658017251874,1.616868698277371,-0.7022897214693636
16.98949288,3.0902177760146166,1.545607282912403,-0.6810826886800471
16.99424746,3.2095239117083953,1.4608285805277261,-0.6603095710161497
16.99900204,3.324077463337006,1.362245587701921,-0.6401654051780723
17.00375662,3.4331787570475356,1.249641131026144,-0.6208160948262723
17.00851121,3.5361396455134484,1.122873201483338,-0.6023978992482524
17.01326579,3.6322878655808073,0.9818800912221166,-0.585017419726301
17.01802038,3.7209712719103263,0.8266852779592418,-0.568752079676651
17.02277496,3.8015619227234034,0.6574019992209765,-0.5536510848244631
17.02752954,3.873459996401533,0.474237456000194,-0.5397368397283263
17.03228412,3.936097519870175,0.27749658335600946,-0.5270067871250083
17.03703871,3.988941891254197,0.06758532415241877,-0.5154356270824955
17.04179329,4.031499180203815,-0.15498665843981713,-0.5049778640646131
17.04654788,4.063317189702894,-0.38960389391208333,-0.49557062193825
17.05130241,4.083988263337972,-0.6355437062966209,-0.4871366598848997
17.05605699,4.0931518221810395,-0.8919755669565903,-0.4795875163107179
17.06081157,4.0904966157799585,-1.1579612581528071,-0.472826703588662
17.06556616,4.075762672265927,-1.432455904340931,-0.4667528748765023
17.07032074,4.048742933166065,-1.7143099244346671,-0.4612628872012119
17.07507532,4.009284559051714,-2.002271953748223,-0.45625469394372
17.07982991,3.9572898927276765,-2.2949927789275435,-0.45163001378186207
17.08458449,3.892717067522815,-2.591030322647,-0.4472967382367396
17.08933907,3.815580249647693,-2.888855706833243,-0.4431710521989232
17.09409366,3.725949505684821,-3.186860413390194,-0.4391792498066925
17.09884824,3.6239502891033943,-3.483364549721823,-0.4352592332355538
17.10360282,3.509762543251683,-3.776626212835252,-0.4313616866356652
17.10835741,3.3836194225683043,-4.064851930613599,-0.4274509230524779
17.11311199,3.2458056386521568,-4.3462081421786065,-0.4235054087011253
17.11786657,3.0966554430604294,-4.618833661345423,-0.41951797543974967
17.12262116,2.936550263909942,-4.880853048285186,-0.4154957375532899
17.12737569,2.7659160182861156,-5.130390795028809,-0.4114597324488479
17.13213027,2.5852201270716955,-5.365586210855723,-0.40744430674545595
17.13688485,2.394968263205731,-5.584608874500252,-0.4034962700957197
17.14163944,2.1957008686892094,-5.785674502120296,-0.3996738395042318
