"Time (s)","Gyroscope x (rad/s)","Gyroscope y (rad/s)","Gyroscope z (rad/s)"
1.663532700E-2,-8.384118974E-2,-1.894444376E-1,-2.568686306E-1
2.148548300E-2,-1.394298822E-1,-1.680641770E-1,-2.660316229E-1
2.633563900E-2,-1.650862098E-1,-1.204167232E-1,-2.715294063E-1
3.118584800E-2,-1.705839932E-1,-9.964732081E-2,-2.819140851E-1
3.603600400E-2,-1.632536054E-1,-8.804088831E-2,-2.861901522E-1
4.088616000E-2,-1.418733448E-1,-1.069776937E-1,-2.629773021E-1
4.573636800E-2,-1.107192412E-1,-1.338557452E-1,-2.342666388E-1
5.058652500E-2,-6.307178736E-2,-1.876118481E-1,-2.006690800E-1
5.543668100E-2,-5.039634649E-3,-2.480874658E-1,-1.676823795E-1
6.028683700E-2,5.054906011E-2,-3.018435538E-1,-1.481347084E-1
6.513704500E-2,9.880737960E-2,-3.464366794E-1,-1.414151937E-1
6.998720200E-2,1.366809905E-1,-3.855320215E-1,-1.456912458E-1
7.483735800E-2,1.653916389E-1,-4.240165055E-1,-1.585194170E-1
7.968756600E-2,1.818849891E-1,-4.545597434E-1,-1.780670881E-1
8.453772300E-2,1.837175786E-1,-4.716639817E-1,-2.018908113E-1
8.938787900E-2,1.708894223E-1,-4.753291607E-1,-2.257145345E-1
9.423808700E-2,1.446222365E-1,-4.759400189E-1,-2.532034516E-1
9.908824300E-2,1.073594838E-1,-4.802160859E-1,-2.813032269E-1
1.039384000E-1,6.704241037E-2,-4.967094362E-1,-3.094030023E-1
1.087885560E-1,2.428187430E-2,-5.205331445E-1,-3.344484568E-1
1.136387640E-1,-1.359174121E-2,-5.535198450E-1,-3.552178741E-1
1.184889200E-1,-4.169152305E-2,-5.956695080E-1,-3.723220825E-1
1.233390770E-1,-5.757400393E-2,-6.347648501E-1,-3.833176494E-1
1.281892850E-1,-6.307178736E-2,-6.689732671E-1,-3.888154328E-1
1.330394410E-1,-5.574141070E-2,-6.982948184E-1,-3.894262910E-1
1.378895980E-1,-3.619373962E-2,-7.062360644E-1,-3.820959330E-1
1.427397540E-1,-6.261364091E-3,-7.117338181E-1,-3.656025827E-1
1.475899620E-1,3.161225095E-2,-6.897426844E-1,-3.399462402E-1
1.524401180E-1,7.620538026E-2,-6.677515507E-1,-3.075704277E-1
1.572902750E-1,1.275180280E-1,-6.298779249E-1,-2.703076601E-1
1.621404830E-1,1.800523996E-1,-5.852848291E-1,-2.324340492E-1
1.669906390E-1,2.319758981E-1,-5.547415614E-1,-1.994473487E-1
1.718407950E-1,2.802342176E-1,-5.303069949E-1,-1.744018942E-1
1.766910040E-1,3.229947388E-1,-5.101484656E-1,-1.597411335E-1
1.815411600E-1,3.553705812E-1,-4.844921231E-1,-1.548542231E-1
1.863913160E-1,3.785834610E-1,-4.484511018E-1,-1.542433500E-1
1.912415250E-1,3.926333487E-1,-4.099666178E-1,-1.499672979E-1
1.960916810E-1,3.981311321E-1,-3.922515512E-1,-1.316413581E-1
2.009418370E-1,3.932442069E-1,-3.775908053E-1,-9.621120244E-2
2.057919930E-1,3.718639314E-1,-3.678169549E-1,-5.467239767E-2
2.106422020E-1,3.272708058E-1,-3.720930219E-1,-1.863137633E-2
2.154923580E-1,2.686277926E-1,-3.934732676E-1,3.359756200E-3
2.203425140E-1,2.075413018E-1,-4.227947891E-1,4.581485875E-3
2.251927230E-1,1.574503928E-1,-4.368446767E-1,-1.191186346E-2
2.300428790E-1,1.177441850E-1,-4.521162808E-1,-3.756818548E-2
2.348930350E-1,8.475748450E-2,-4.765508771E-1,-6.444623321E-2
2.397432430E-1,6.398808211E-2,-4.673879147E-1,-8.643736690E-2
2.445934000E-1,5.910116807E-2,-4.142426848E-1,-9.743293375E-2
2.493504310E-1,6.093376130E-2,-3.714821339E-1,-9.926552325E-2
2.541055870E-1,5.604684353E-2,-3.519344628E-1,-8.949168772E-2
2.588606910E-1,5.115992576E-2,-3.458258212E-1,-7.299833745E-2
2.636157950E-1,3.588830680E-2,-3.928624094E-1,-5.345066637E-2
2.683709520E-1,2.306014486E-2,-4.117992222E-1,-4.245510325E-2
2.731260560E-1,2.672533318E-2,-3.904189467E-1,-4.306596518E-2
2.778811600E-1,4.260781780E-2,-3.488801420E-1,-5.772672221E-2
2.826362640E-1,6.337722391E-2,-3.048978746E-1,-9.132428467E-2
2.873914200E-1,8.781181276E-2,-2.688568532E-1,-1.426369250E-1
2.921465250E-1,1.171333194E-1,-2.401462197E-1,-2.104429156E-1
2.969016810E-1,1.513417512E-1,-2.438113987E-1,-2.874118686E-1
3.016567850E-1,1.782197952E-1,-2.994000912E-1,-3.576613367E-1
3.064118890E-1,1.959348768E-1,-3.898080885E-1,-4.132500291E-1
3.111669930E-1,2.148716897E-1,-4.973202944E-1,-4.450149834E-1
3.159221500E-1,2.405280024E-1,-6.042216420E-1,-4.535670877E-1
3.206772540E-1,2.729038298E-1,-7.172316313E-1,-4.364628792E-1
3.254323580E-1,3.095557392E-1,-8.510109782E-1,-3.943132162E-1
3.301875140E-1,3.449858725E-1,-9.420298338E-1,-3.619373739E-1
3.349426180E-1,3.736965358E-1,-1.035492182E0,-3.430005610E-1
3.396977230E-1,3.938550651E-1,-1.202258229E0,-3.289506733E-1
3.444528790E-1,4.085158110E-1,-1.400178432E0,-3.234528899E-1
3.492079830E-1,4.341721535E-1,-1.579772711E0,-3.362810612E-1
3.539630870E-1,4.757109582E-1,-1.720882416E0,-3.674351573E-1
3.587182430E-1,5.337430835E-1,-1.824729443E0,-4.101957083E-1
3.634733480E-1,6.009382010E-1,-1.906585336E0,-4.566214085E-1
3.682284520E-1,6.772963405E-1,-1.962174058E0,-5.085449219E-1
3.729836080E-1,7.628173828E-1,-2.012264967E0,-5.506945848E-1
3.777387120E-1,8.458949924E-1,-2.090455532E0,-5.763509274E-1
3.824938160E-1,9.234748483E-1,-2.213239431E0,-5.861247778E-1
3.872489730E-1,9.931133986E-1,-2.377562046E0,-5.922334194E-1
3.920040770E-1,1.064584613E0,-2.595640898E0,-5.983420610E-1
3.967591810E-1,1.148883939E0,-2.856480122E0,-6.172788739E-1
4.015143370E-1,1.219744205E0,-3.169853687E0,-6.447677612E-1
4.062694410E-1,1.260061383E0,-3.566915751E0,-6.899717450E-1
4.110245450E-1,1.293048024E0,-4.000019073E0,-7.742711306E-1
4.157797020E-1,1.319926023E0,-4.450837135E0,-8.830050230E-1
4.205348060E-1,1.337641120E0,-4.891881466E0,-1.004567146E0
4.252899100E-1,1.341306329E0,-5.274282932E0,-1.123685718E0
4.300450660E-1,1.329699874E0,-5.546117783E0,-1.207985044E0
4.348001700E-1,1.301600099E0,-5.681118965E0,-1.236695766E0
4.395552750E-1,1.262504816E0,-5.671956062E0,-1.203098178E0
4.443104310E-1,1.216079116E0,-5.541230679E0,-1.120631456E0
4.490655350E-1,1.153159976E0,-5.321930408E0,-1.005177975E0
4.538206390E-1,1.066417217E0,-5.043375969E0,-8.701768517E-1
4.585757950E-1,9.601266980E-1,-4.741608620E0,-7.345649004E-1
4.633309000E-1,8.416189551E-1,-4.463665485E0,-6.221657991E-1
4.680860040E-1,7.127264738E-1,-4.223595619E0,-5.421425104E-1
4.728411600E-1,5.911644101E-1,-4.013457775E0,-4.877755344E-1
4.775962640E-1,4.934260249E-1,-3.865628719E0,-4.541779757E-1
4.823514200E-1,4.256200492E-1,-3.788048744E0,-4.450149834E-1
4.871065250E-1,3.926333487E-1,-3.791103125E0,-4.639517963E-1
4.918616290E-1,3.926333487E-1,-3.861352682E0,-5.140427351E-1
4.966167850E-1,4.219548404E-1,-3.979249477E0,-5.916225314E-1
5.013718890E-1,4.775435328E-1,-4.109363556E0,-6.887500286E-1
5.061269930E-1,5.532907844E-1,-4.228482246E0,-7.901535630E-1
5.108821500E-1,6.485856771E-1,-4.312170982E0,-8.805615902E-1
5.156372540E-1,7.597630620E-1,-4.369592190E0,-9.495893121E-1
5.203923580E-1,8.697187304E-1,-4.397691727E0,-9.862411618E-1
5.251475140E-1,9.735657573E-1,-4.421515465E0,-9.844086170E-1
5.299026180E-1,1.057254195E0,-4.445339203E0,-9.324851036E-1
5.346577230E-1,1.104290843E0,-4.463054657E0,-8.261946440E-1
5.394128790E-1,1.112842917E0,-4.469773769E0,-6.624828577E-1
5.441679830E-1,1.092073560E0,-4.467330456E0,-4.505127668E-1
5.489230870E-1,1.056643367E0,-4.449615479E0,-2.104429156E-1
5.536782430E-1,9.931133986E-1,-4.406243801E0,1.252272818E-2
5.584333480E-1,8.923207521E-1,-4.355542183E0,1.597411335E-1
5.631885040E-1,7.628173828E-1,-4.303008080E0,2.391535640E-1
5.679436080E-1,6.278162599E-1,-4.230926037E0,2.929096520E-1
5.726987120E-1,5.141954422E-1,-4.125246048E0,3.503309488E-1
5.774538680E-1,4.231765866E-1,-4.018955708E0,4.144717455E-1
5.822089730E-1,3.388772309E-1,-3.947484493E0,4.822777510E-1
5.869640770E-1,2.722929716E-1,-3.875402451E0,5.280926228E-1
5.917192330E-1,2.301433086E-1,-3.778275013E0,5.311469436E-1
5.964743370E-1,1.831067204E-1,-3.744066477E0,5.238165259E-1
6.012294930E-1,1.183550507E-1,-3.753229618E0,5.140427351E-1
6.059845980E-1,5.910116807E-2,-3.711079836E0,5.018253922E-1
6.107397020E-1,4.123337101E-3,-3.657934666E0,4.999928176E-1
6.154948060E-1,-5.024362728E-2,-3.554087639E0,5.140427351E-1
6.202499620E-1,-9.911280870E-2,-3.401371479E0,5.476402640E-1
6.250050660E-1,-1.430950761E-1,-3.216890335E0,6.056724191E-1
6.297602230E-1,-1.803578287E-1,-3.027522087E0,6.850848794E-1
6.345153270E-1,-2.011272311E-1,-2.847316980E0,7.791580558E-1
6.392704310E-1,-1.980729103E-1,-2.682994366E0,8.933897614E-1
6.440255870E-1,-1.663079411E-1,-2.555934668E0,1.022893071E0
6.487806910E-1,-1.113301069E-1,-2.437426805E0,1.168278933E0
6.535357950E-1,-1.603520103E-2,-2.345797062E0,1.317329884E0
6.582909520E-1,1.122464016E-1,-2.296927929E0,1.463937402E0
6.630460560E-1,2.350302190E-1,-2.301203966E0,1.575114846E0
6.678012120E-1,3.107774556E-1,-2.340910196E0,1.614821076E0
6.725563160E-1,3.260490894E-1,-2.415435791E0,1.608712435E0
6.773114200E-1,2.961167097E-1,-2.472246170E0,1.602603793E0
6.820665770E-1,2.503018379E-1,-2.436205149E0,1.624594927E0
6.868216810E-1,2.118173689E-1,-2.290208340E0,1.681405306E0
6.915768370E-1,1.879936308E-1,-2.086179495E0,1.765093803E0
6.963319410E-1,1.721111536E-1,-1.876652956E0,1.854890943E0
7.010870450E-1,1.592829973E-1,-1.686673999E0,1.941633701E0
7.058422020E-1,1.482874304E-1,-1.513188362E0,2.017991781E0
7.105973060E-1,1.440113783E-1,-1.356196165E0,2.083965302E0
7.153524100E-1,1.470656991E-1,-1.223027706E0,2.141386509E0
7.201075660E-1,1.635590494E-1,-1.121624112E0,2.195753336E0
7.248626700E-1,1.916588247E-1,-1.050152898E0,2.247066021E0
7.296178270E-1,2.331976295E-1,-1.004948974E0,2.287994146E0
7.343729310E-1,2.826776803E-1,-9.854012728E-1,2.325256824E0
7.391280870E-1,3.339903057E-1,-9.658535719E-1,2.346026182E0
7.438831910E-1,3.749182522E-1,-9.408081174E-1,2.349080563E0
7.486382950E-1,3.877464235E-1,-9.206495881E-1,2.353356600E0
7.533934520E-1,3.755291104E-1,-9.047670960E-1,2.357632637E0
7.581485560E-1,3.517054021E-1,-8.705586791E-1,2.347247839E0
7.629036600E-1,3.260490894E-1,-8.094722033E-1,2.326478481E0
7.676588160E-1,2.973384261E-1,-7.441096306E-1,2.294713497E0
7.724139200E-1,2.661843300E-1,-6.976839304E-1,2.264170408E0
7.771690770E-1,2.405280024E-1,-6.469821334E-1,2.247066021E0
7.819241810E-1,2.264781147E-1,-5.834522247E-1,2.245844364E0
7.866792850E-1,2.246455252E-1,-5.138136148E-1,2.257450819E0
7.914344410E-1,2.301433086E-1,-4.533380270E-1,2.261726856E0
7.961895450E-1,2.344193608E-1,-3.898080885E-1,2.252563953E0
8.009447020E-1,2.313650399E-1,-3.317759335E-1,2.229961872E0
8.056998060E-1,2.142608166E-1,-2.914588451E-1,2.196975231E0
8.104549100E-1,1.947131455E-1,-2.706894577E-1,2.150549412E0
8.152100660E-1,1.800523996E-1,-2.645808160E-1,2.095571518E0
8.199651700E-1,1.769980639E-1,-2.737437785E-1,2.035095930E0
8.247203270E-1,1.855501831E-1,-2.774089575E-1,1.974620342E0
8.294754310E-1,2.014326602E-1,-2.694677114E-1,1.916588187E0
8.342305350E-1,2.222020626E-1,-2.578612864E-1,1.870773435E0
8.389856910E-1,2.478583902E-1,-2.407570779E-1,1.838397503E0
8.437407950E-1,2.790125012E-1,-2.169333547E-1,1.819460750E0
8.484959520E-1,3.095557392E-1,-1.882227063E-1,1.812130332E0
8.532510560E-1,3.364337683E-1,-1.595120728E-1,1.817017317E0
8.580062120E-1,3.590357602E-1,-1.417969912E-1,1.829845428E0
8.627613160E-1,3.749182522E-1,-1.381317973E-1,1.839008451E0
8.675164200E-1,3.828594983E-1,-1.479056329E-1,1.841451883E0
8.722715770E-1,3.743073940E-1,-1.961639524E-1,1.829845428E0
8.770266810E-1,3.688096106E-1,-1.961639524E-1,1.820682526E0
8.817818370E-1,3.517054021E-1,-1.619555205E-1,1.834121466E0
8.865369410E-1,3.266599476E-1,-1.631772518E-1,1.828623772E0
8.912920450E-1,3.107774556E-1,-1.735619605E-1,1.781587124E0
8.960472020E-1,3.101665974E-1,-1.747836918E-1,1.712559462E0
9.008023060E-1,3.181078434E-1,-1.558468789E-1,1.638033867E0
9.055574620E-1,3.187187016E-1,-1.320231557E-1,1.558010578E0
9.103125660E-1,3.205513060E-1,-5.261072889E-2,1.488982916E0
9.150677230E-1,3.046688139E-1,3.291033953E-2,1.450498462E0
9.198228270E-1,2.796233594E-1,1.049923822E-1,1.418122530E0
9.245779310E-1,2.582430840E-1,1.886808574E-1,1.398574948E0
9.293330870E-1,2.448040545E-1,2.754236460E-1,1.404072642E0
9.340881910E-1,2.386954129E-1,3.646099269E-1,1.433394194E0
9.388433480E-1,2.380845547E-1,4.458549321E-1,1.473711252E0
9.435984520E-1,2.478583902E-1,5.014436245E-1,1.505476236E0
9.483535560E-1,2.692386508E-1,5.246564746E-1,1.514639258E0
9.531087120E-1,3.028362095E-1,5.307651162E-1,1.503032804E0
9.578638160E-1,3.443750143E-1,5.338194370E-1,1.481041670E0
9.626189730E-1,3.908007443E-1,5.344303250E-1,1.460883141E0
9.673740770E-1,4.372264743E-1,5.240456462E-1,1.446833253E0
9.721292330E-1,4.824304581E-1,5.069414377E-1,1.437670231E0
9.768843370E-1,5.294670463E-1,4.849502742E-1,1.419955134E0
9.816394410E-1,5.752819180E-1,4.605156779E-1,1.382081509E0
9.863945980E-1,6.180424690E-1,4.428006113E-1,1.322827697E0
9.911497020E-1,6.491965652E-1,4.385245442E-1,1.255021691E0
9.959048580E-1,6.540834904E-1,4.238637984E-1,1.186604857E0
1.000659962E0,6.479747891E-1,4.024835229E-1,1.118188024E0
1.005415118E0,6.534726024E-1,4.434114695E-1,1.065042734E0
1.010170223E0,6.571378112E-1,4.886154532E-1,1.044273376E0
1.014925327E0,6.589703560E-1,5.167152286E-1,1.020449638E0
1.019680483E0,6.614138484E-1,5.393172503E-1,9.899063706E-1
1.024435587E0,6.876810193E-1,5.765799880E-1,9.819651246E-1
1.029190743E0,7.353284955E-1,6.394990683E-1,1.008232355E0
1.033945848E0,7.786998749E-1,7.140245438E-1,1.056490660E0
1.038701004E0,7.958040833E-1,7.732784748E-1,1.096807718E0
1.043456108E0,7.872520089E-1,8.245911002E-1,1.112690210E0
1.048211212E0,7.402154207E-1,8.948405385E-1,1.079092622E0
1.052966368E0,6.724094152E-1,9.424880147E-1,1.021060467E0
1.057721473E0,6.302597523E-1,9.302706718E-1,9.801325202E-1
1.062476629E0,6.308705807E-1,8.710168004E-1,9.428697824E-1
1.067231733E0,6.162098646E-1,8.337540627E-1,8.817833066E-1
1.071986889E0,6.033816934E-1,7.824414372E-1,8.005383015E-1
1.076741993E0,5.746710300E-1,7.360156775E-1,6.960803866E-1
1.081497150E0,4.983129501E-1,7.256309986E-1,5.800161362E-1
1.086252254E0,3.853029609E-1,7.537307739E-1,4.731147587E-1
1.091007358E0,2.503018379E-1,8.123738170E-1,3.845393658E-1
1.095762514E0,1.024725661E-1,8.801797628E-1,3.112356067E-1
1.100517618E0,-4.046979174E-2,9.143882394E-1,2.532034516E-1
1.105272775E0,-1.669187993E-1,9.217185974E-1,2.128863782E-1
1.110027879E0,-2.762635946E-1,9.156099558E-1,1.829539984E-1
1.114783035E0,-3.660607338E-1,8.923971057E-1,1.579085439E-1
1.119538139E0,-4.387536347E-1,8.716276884E-1,1.383608729E-1
1.124293295E0,-4.967857897E-1,7.977130413E-1,1.194240674E-1
1.129048400E0,-5.175551772E-1,6.364447474E-1,1.017089859E-1
1.133803556E0,-4.723511934E-1,4.684569240E-1,8.093958348E-2
1.138558660E0,-3.843866587E-1,3.829358518E-1,7.483093441E-2
1.143313764E0,-3.006981909E-1,3.780489266E-1,7.238747925E-2
1.148068920E0,-2.603811026E-1,3.291797638E-1,2.779434808E-2
1.152824025E0,-2.573267817E-1,2.430478185E-1,-5.039634556E-2
1.157579181E0,-2.530507445E-1,1.954003721E-1,-1.194240674E-1
1.162334285E0,-2.371682525E-1,1.960112303E-1,-1.695149690E-1
1.167089441E0,-2.145662606E-1,2.210566849E-1,-2.147189677E-1
1.171844545E0,-1.956294477E-1,2.277761996E-1,-2.605338395E-1
1.176599702E0,-1.815795600E-1,2.070067972E-1,-3.026835024E-1
1.181354806E0,-1.681405306E-1,1.868482679E-1,-3.326158822E-1
1.186109910E0,-1.614210159E-1,1.844048053E-1,-3.405571282E-1
1.190865066E0,-1.742491722E-1,2.008981556E-1,-3.271180987E-1
1.195620223E0,-2.109010667E-1,2.320522517E-1,-2.965748608E-1
1.200375327E0,-2.732092738E-1,2.821431756E-1,-2.525925934E-1
1.205130431E0,-3.477347791E-1,3.328449428E-1,-2.134972364E-1
1.209885587E0,-4.075995386E-1,3.731620312E-1,-1.878409237E-1
1.214640691E0,-4.314232469E-1,3.481165767E-1,-1.939495653E-1
1.219395848E0,-4.002691507E-1,2.870301008E-1,-2.177732885E-1
1.224150952E0,-3.367392123E-1,2.454912812E-1,-2.739728391E-1
1.228906108E0,-2.793179154E-1,2.436586916E-1,-2.941313982E-1
1.233661212E0,-2.713766694E-1,2.577085793E-1,-2.690859437E-1
1.238416368E0,-3.049742281E-1,2.906952798E-1,-2.348775119E-1
1.243171473E0,-3.055851161E-1,3.701077104E-1,-2.196058929E-1
1.247926629E0,-2.096793354E-1,4.244746566E-1,-2.299905866E-1
1.252681733E0,-1.094975099E-1,4.256964028E-1,-2.654207349E-1
1.257436889E0,-5.268708616E-2,4.244746566E-1,-2.745837271E-1
1.262191993E0,1.084284950E-2,4.195877314E-1,-2.373209596E-1
1.266947150E0,9.086613357E-2,4.153116941E-1,-1.927278340E-1
1.271702254E0,1.330158114E-1,4.183660150E-1,-1.475238502E-1
1.276457410E0,1.354592592E-1,4.128682315E-1,-8.765909821E-2
1.281212514E0,1.275180280E-1,4.006509483E-1,-1.435532235E-2
1.285967618E0,1.055268943E-1,4.281398654E-1,7.116574794E-2
1.290722775E0,7.742711157E-2,4.458549321E-1,1.682932526E-1
1.295477879E0,4.199695215E-2,4.275289774E-1,2.458730787E-1
1.300233035E0,8.399390616E-3,4.458549321E-1,3.094030023E-1
1.304988139E0,-4.046979174E-2,4.605156779E-1,3.588830531E-1
1.309743295E0,-8.933897316E-2,4.495201111E-1,3.949240744E-1
1.314498400E0,-1.162170246E-1,4.299724400E-1,4.101957083E-1
1.319253556E0,-1.284343153E-1,4.012618065E-1,4.260781705E-1
1.324008660E0,-1.076649204E-1,3.853793144E-1,4.645626545E-1
1.328763816E0,-6.307178736E-2,3.603338599E-1,5.122101307E-1
1.333518920E0,2.916879393E-2,2.735910714E-1,5.867356062E-1
1.338274077E0,1.440113783E-1,1.966221035E-1,6.520981789E-1
1.343029181E0,2.014326602E-1,2.198349684E-1,6.514872909E-1
1.347784337E0,1.953240186E-1,2.754236460E-1,6.166679859E-1
1.352539441E0,1.427896470E-1,3.261254430E-1,6.062833071E-1
1.357294598E0,7.254019380E-2,3.627773225E-1,6.380482912E-1
1.362049702E0,-1.374445739E-3,3.969857395E-1,6.991347671E-1
1.366804858E0,-6.795870513E-2,4.373028278E-1,7.596103549E-1
1.371559962E0,-1.290451884E-1,4.690677822E-1,8.194751143E-1
1.376315118E0,-1.785252392E-1,4.898371994E-1,8.933897614E-1
1.381070223E0,-2.029598206E-1,4.928915203E-1,9.673043489E-1
1.385825379E0,-2.133445293E-1,4.873937368E-1,1.042440772E0
1.390580483E0,-2.127336562E-1,4.745655656E-1,1.147509456E0
1.395335639E0,-2.078467458E-1,4.562396407E-1,1.294117093E0
1.400090743E0,-2.017380893E-1,4.293615818E-1,1.461493969E0
1.404845900E0,-1.986837685E-1,4.201986194E-1,1.613599300E0
1.409601004E0,-1.895207912E-1,4.348593652E-1,1.713170290E0
1.414356160E0,-1.681405306E-1,4.855611324E-1,1.774256706E0
1.419111264E0,-1.461493969E-1,5.600866675E-1,1.812130332E0
1.423866420E0,-1.296560466E-1,6.346121430E-1,1.818238974E0
1.428621525E0,-1.162170246E-1,6.908116937E-1,1.787695765E0
1.433376681E0,-9.911280870E-2,7.347939610E-1,1.727220178E0
1.438131785E0,-6.307178736E-2,7.775545120E-1,1.639866471E0
1.442886941E0,-1.420260593E-2,8.416953087E-1,1.551901937E0
1.447642045E0,3.222311661E-2,8.850666881E-1,1.470046043E0
1.452397202E0,6.765327603E-2,9.033926725E-1,1.402850986E0
1.457152306E0,9.269873053E-2,9.247729182E-1,1.361312151E0
1.461907462E0,1.030834317E-1,9.235512018E-1,1.363144755E0
1.466662566E0,1.043051630E-1,8.972840309E-1,1.418733478E0
1.471417723E0,1.116355360E-1,8.386409879E-1,1.482263446E0
1.476172827E0,1.189659163E-1,7.598394156E-1,1.563508391E0
1.480927983E0,1.269071549E-1,6.566032767E-1,1.703396440E0
1.485683087E0,1.256854236E-1,5.063305497E-1,1.888488412E0
1.490438243E0,1.635590494E-1,4.037052691E-1,2.132223606E0
1.495193348E0,2.246455252E-1,3.609447181E-1,2.437045097E0
1.499948504E0,2.704603672E-1,3.224602342E-1,2.775464058E0
1.504703608E0,2.771798968E-1,2.711476088E-1,3.118159294E0
1.509458764E0,2.374736816E-1,2.186132371E-1,3.471849918E0
1.514213868E0,1.647807807E-1,1.446985900E-1,3.804771185E0
1.518969025E0,7.437278330E-2,7.628174126E-2,4.058279991E0
1.523724129E0,-1.175914705E-2,2.557996288E-2,4.260476589E0
1.528479285E0,-6.795870513E-2,-1.168278884E-2,4.431518555E0
1.533234389E0,-7.467821985E-2,-2.267835476E-2,4.568352222E0
1.537989545E0,-4.718930274E-2,-2.206749097E-2,4.655705929E0
1.542744650E0,2.901607659E-3,-9.850194678E-3,4.697855473E0
1.547499806E0,6.582067907E-2,6.032289471E-3,4.708851337E0
1.552254910E0,1.397353113E-1,1.947131567E-2,4.683194637E0
1.557010066E0,2.228129357E-1,3.718639165E-2,4.609890938E0
1.561765170E0,2.985601723E-1,5.917752534E-2,4.473668098E0
1.566520327E0,3.627009690E-1,6.284271181E-2,4.278802395E0
1.571275431E0,4.121810198E-1,2.863428742E-2,4.036289215E0
1.576030587E0,4.402807951E-1,-2.573267929E-2,3.757123709E0
1.580785691E0,4.421133697E-1,-6.788235158E-2,3.441306829E0
1.585540848E0,4.335612655E-1,-8.009964228E-2,3.100444078E0
1.590295952E0,4.152353406E-1,-5.505418777E-2,2.769355536E0
1.595051108E0,3.681987524E-1,-3.130682046E-3,2.488357782E0
1.599806212E0,2.948949635E-1,3.596466407E-2,2.286161423E0
1.604561368E0,2.301433086E-1,4.879282415E-2,2.141997337E0
1.609316525E0,1.617264450E-1,1.824958436E-2,2.076024055E0
1.614071629E0,7.192932814E-2,-5.749764666E-2,2.061974049E0
1.618826785E0,-3.802633286E-2,-1.735619605E-1,2.091295481E0
1.623581889E0,-1.583666950E-1,-3.055087626E-1,2.164599419E0
1.628337045E0,-2.835939825E-1,-4.374555349E-1,2.291048288E0
1.633092150E0,-3.996582925E-1,-5.681806207E-1,2.458425283E0
1.637847306E0,-4.986183643E-1,-6.909644008E-1,2.638630390E0
1.642602410E0,-5.755873322E-1,-8.174134493E-1,2.810894251E0
1.647357566E0,-6.226239204E-1,-9.420298338E-1,2.934288979E0
1.652112670E0,-6.317868829E-1,-1.036713839E0,3.002705812E0
1.656867827E0,-5.981893539E-1,-1.119791508E0,3.013090611E0
1.661622931E0,-5.224421024E-1,-1.169882417E0,2.953836679E0
1.666378087E0,-4.057669342E-1,-1.212642908E0,2.832274437E0
1.671133191E0,-2.597702444E-1,-1.191262722E0,2.688721418E0
1.675888348E0,-1.156061590E-1,-1.109406829E0,2.524398804E0
1.680643504E0,1.572976820E-2,-9.597449303E-1,2.351523876E0
1.685398608E0,1.293506175E-1,-7.612138987E-1,2.188423157E0
1.690153764E0,2.063195854E-1,-5.009855032E-1,2.052200317E0
1.694908868E0,2.264781147E-1,-2.205985487E-1,1.939801097E0
1.699664025E0,1.971566081E-1,4.024071619E-2,1.852447391E0
1.704419129E0,1.354592592E-1,2.473238707E-1,1.793193579E0
1.709174285E0,4.688387364E-2,3.902662396E-1,1.760206819E0
1.713929389E0,-6.856957078E-2,5.252673626E-1,1.755319953E0
1.718684545E0,-2.054032832E-1,6.834813356E-1,1.781587124E0
1.723439650E0,-3.544542789E-1,8.649081588E-1,1.835954070E0
1.728194806E0,-5.028944016E-1,1.035950303E0,1.908647060E0
1.732949910E0,-6.372846961E-1,1.174005747E0,1.989281178E0
1.737705066E0,-7.441860437E-1,1.250363827E0,2.076024055E0
1.742460223E0,-8.162680864E-1,1.233870506E0,2.168875456E0
1.747215327E0,-8.474221826E-1,1.130634308E0,2.260505199E0
1.751970483E0,-8.370374441E-1,9.663116932E-1,2.348469734E0
1.756725587E0,-7.857248187E-1,7.360156775E-1,2.429103851E0
1.761480743E0,-7.050906420E-1,4.757873118E-1,2.507905245E0
1.766235848E0,-6.055197120E-1,2.387717664E-1,2.581209183E0
1.770991004E0,-4.937314689E-1,2.557996288E-2,2.645960808E0
1.775746108E0,-3.831649423E-1,-1.155297980E-1,2.697884321E0
1.780501264E0,-2.671006322E-1,-2.395353466E-1,2.732703686E0
1.785256420E0,-1.589775532E-1,-3.165042996E-1,2.747975111E0
1.790011525E0,-6.001746282E-2,-3.623191714E-1,2.733925343E0
1.794766681E0,1.878409274E-2,-3.470475674E-1,2.696662664E0
1.799521785E0,7.803797722E-2,-2.737437785E-1,2.631910801E0
1.804276941E0,1.281288862E-1,-1.760054082E-1,2.542113781E0
1.809032045E0,1.623373181E-1,-5.627591908E-2,2.432769060E0
1.813787202E0,1.824958473E-1,6.223184988E-2,2.311817646E0
1.818542358E0,1.867718995E-1,1.752418280E-1,2.188423157E0
1.823297462E0,1.751654744E-1,2.943604589E-1,2.066250086E0
1.828052618E0,1.513417512E-1,4.269181192E-1,1.952629209E0
1.832807723E0,1.226311028E-1,5.710822344E-1,1.846338749E0
1.837562879E0,9.392046183E-2,7.170788646E-1,1.747989535E0
1.842317983E0,7.498364896E-2,8.520799875E-1,1.659414172E0
1.847073139E0,7.254019380E-2,9.730312228E-1,1.587332129E0
1.851828295E0,9.636391699E-2,1.074434757E0,1.536019444E0
1.856583400E0,1.379027218E-1,1.150182009E0,1.511584878E0
1.861338556E0,1.892153621E-1,1.195386052E0,1.514028311E0
1.866093660E0,2.435823381E-1,1.196607709E0,1.537241220E0
1.870848816E0,2.918406427E-1,1.159955859E0,1.574504018E0
1.875603973E0,3.217730224E-1,1.108032346E0,1.611155868E0
1.880359077E0,3.217730224E-1,1.045724154E0,1.642920852E0
1.885114233E0,2.869537175E-1,9.779181480E-1,1.657581568E0
1.889869337E0,2.228129357E-1,8.966731429E-1,1.660025001E0
1.894624493E0,1.342375278E-1,8.013782501E-1,1.648418665E0
1.899379650E0,2.977965772E-2,7.042507529E-1,1.630092621E0
1.904134754E0,-8.261945844E-2,6.101775765E-1,1.606879830E0
1.908889910E0,-2.096793354E-1,5.075522661E-1,1.575725675E0
1.913645014E0,-3.428478539E-1,4.495201111E-1,1.541517258E0
1.918400170E0,-4.784598351E-1,4.189768732E-1,1.507308841E0
1.923155327E0,-6.097957492E-1,3.994292021E-1,1.472489595E0
1.927910431E0,-7.331904769E-1,3.762163520E-1,1.429118156E0
1.932665587E0,-8.419243693E-1,3.713294268E-1,1.351538301E0
1.937420691E0,-9.463822842E-1,4.373028278E-1,1.189048290E0
1.942175848E0,-1.069166064E0,5.894081593E-1,8.775072694E-1
1.946931004E0,-1.226769209E0,7.946587205E-1,4.694495797E-1
1.951686108E0,-1.399033070E0,9.962440729E-1,4.795288667E-2
1.956441264E0,-1.547473192E0,1.133077860E0,-3.252854943E-1
1.961196420E0,-1.643378973E0,1.149571180E0,-6.093376279E-1
1.965951525E0,-1.669646144E0,1.024954796E0,-8.060360551E-1
1.970706681E0,-1.631161690E0,7.848848701E-1,-9.318742156E-1
1.975461785E0,-1.551138401E0,4.922806621E-1,-1.003345370E0
1.980216941E0,-1.452789187E0,2.271653414E-1,-1.055268884E0
1.984972098E0,-1.351385593E0,7.254019380E-3,-1.072983980E0
1.989727202E0,-1.253036380E0,-1.546251476E-1,-1.066875339E0
1.994482358E0,-1.149800181E0,-2.444222718E-1,-1.034499526E0
1.999237462E0,-1.044120669E0,-2.633590698E-1,-9.550870657E-1
2.003992618E0,-9.421061873E-1,-2.205985487E-1,-8.976657987E-1
2.008747775E0,-8.516982198E-1,-1.277471036E-1,-8.426879644E-1
2.013502879E0,-7.759509683E-1,-1.908952487E-3,-8.304706812E-1
2.018258035E0,-7.221949100E-1,1.538615674E-1,-8.927788734E-1
2.023013191E0,-6.733257174E-1,3.279580176E-1,-1.034499526E0
2.027768295E0,-6.177369952E-1,5.344303250E-1,-1.192102671E0
2.032523452E0,-5.572614074E-1,7.207440734E-1,-1.303279996E0
2.037278556E0,-5.028944016E-1,8.868992925E-1,-1.338710189E0
2.042033712E0,-4.717403352E-1,1.035950303E0,-1.305723429E0
2.046788868E0,-4.686860144E-1,1.167897105E0,-1.197600365E0
2.051543973E0,-5.071704984E-1,1.274798393E0,-1.032666922E0
2.056299129E0,-6.006327868E-1,1.338939190E0,-8.402445316E-1
2.061054285E0,-7.570141554E-1,1.323056698E0,-6.472112536E-1
2.065809389E0,-9.854776263E-1,1.227761865E0,-4.773908257E-1
2.070564545E0,-1.306181669E0,1.081765175E0,-3.368919194E-1
2.075319702E0,-1.687972069E0,9.406554103E-1,-2.202167511E-1
2.080074806E0,-2.039830208E0,8.001564741E-1,-1.291978955E-1
2.084829962E0,-2.286619663E0,6.217839718E-1,-8.582650125E-2
2.089585066E0,-2.421009779E0,4.745655656E-1,-1.059850380E-1
2.094340223E0,-2.490648508E0,3.071886301E-1,-2.049451321E-1
2.099095379E0,-2.488815784E0,5.306887627E-2,-3.875937164E-1
2.103850483E0,-2.439335823E0,-2.138790339E-1,-6.441569328E-1
2.108605639E0,-2.341597319E0,-3.030653000E-1,-9.514219165E-1
2.113360795E0,-2.061821461E0,-3.488801420E-1,-1.294117093E0
2.118115952E0,-1.476001978E0,-5.803979039E-1,-1.669798851E0
2.122871056E0,-8.828523159E-1,-6.243801713E-1,-2.065028429E0
2.127626212E0,-4.057669342E-1,-3.635408878E-1,-2.408945322E0
2.132381368E0,-5.940660089E-2,1.239291951E-1,-2.663675785E0
2.137136473E0,1.996000707E-1,6.712640524E-1,-2.772409916E0
2.141891629E0,4.066832364E-1,1.056719661E0,-2.696051598E0
2.146646733E0,5.630646348E-1,1.184390426E0,-2.509737968E0
2.151401889E0,6.626355648E-1,1.141019106E0,-2.287383080E0
2.156157045E0,6.931788325E-1,1.037172079E0,-2.077856541E0
2.160912202E0,6.614138484E-1,9.382119179E-1,-1.898873210E0
2.165667306E0,6.235402226E-1,8.038216829E-1,-1.744324327E0
2.170422462E0,6.131555438E-1,5.802451968E-1,-1.614210129E0
2.175177618E0,5.893318057E-1,3.365101218E-1,-1.503032804E0
2.179932723E0,3.407098353E-1,5.442041755E-1,-1.412013888E0
2.184687879E0,2.900080681E-1,2.809214294E-1,-1.348484039E0
2.189443035E0,2.203694731E-1,2.977965865E-3,-1.344818830E0
2.194198139E0,1.226311028E-1,-2.383136153E-1,-1.380859852E0
2.198953295E0,4.627300799E-2,-5.217548609E-1,-1.422398686E0
2.203708452E0,-1.908952370E-2,-7.752637863E-1,-1.468824387E0
2.208463556E0,-6.062832847E-2,-9.536362886E-1,-1.504865408E0
2.213218712E0,-6.185005978E-2,-1.068478823E0,-1.518304467E0
2.217973868E0,-2.886336111E-2,-1.123456717E0,-1.499367595E0
2.222728973E0,2.794706449E-2,-1.145447850E0,-1.448665857E0
2.227484129E0,9.636391699E-2,-1.146669507E0,-1.372918606E0
2.232239285E0,1.629481763E-1,-1.143004417E0,-1.272125959E0
2.236994389E0,2.209803313E-1,-1.147891283E0,-1.140179157E0
2.241749545E0,2.649625838E-1,-1.166217208E0,-9.813542962E-1
2.246504702E0,2.961167097E-1,-1.197982192E0,-8.115338683E-1
2.251259858E0,3.254382014E-1,-1.266399026E0,-6.563742161E-1
2.256014962E0,3.419315517E-1,-1.306716084E0,-5.323686600E-1
2.260770118E0,3.394880891E-1,-1.268231630E0,-4.395172000E-1
2.265525275E0,3.297142684E-1,-1.202258229E0,-3.613265157E-1
2.270280379E0,3.162752390E-1,-1.122845769E0,-2.916879356E-1
2.275035535E0,2.973384261E-1,-1.022663951E0,-2.287688553E-1
2.279790691E0,2.710712552E-1,-9.090431333E-1,-1.682932526E-1
2.284545848E0,2.417497337E-1,-7.874810696E-1,-1.078176349E-1
2.289300952E0,2.130390853E-1,-6.640864015E-1,-4.184423760E-2
2.294056108E0,1.928805560E-1,-5.413025618E-1,2.901607752E-2
2.298811264E0,1.843284518E-1,-4.246273935E-1,1.047633067E-1
2.303566368E0,1.910479665E-1,-3.189477623E-1,1.811214089E-1
2.308321525E0,2.148716897E-1,-2.279289216E-1,2.568686306E-1
2.313076681E0,2.503018379E-1,-1.534034163E-1,3.350593448E-1
2.317831785E0,2.955058515E-1,-8.743002266E-2,4.175260663E-1
2.322586941E0,3.480401933E-1,-1.473711245E-2,5.054906011E-1
2.327342098E0,3.999637067E-1,6.162098423E-2,6.013963819E-1
2.332097254E0,4.457785785E-1,1.392008066E-1,7.064651251E-1
2.336852358E0,4.805978537E-1,2.192240953E-1,8.219185472E-1
2.341607514E0,5.001455545E-1,2.931387424E-1,9.398154616E-1
2.346362670E0,5.038107038E-1,3.487274349E-1,1.058323264E0
2.351117775E0,4.897608459E-1,3.768272102E-1,1.177441835E0
2.355872931E0,4.561632872E-1,3.694968224E-1,1.297782183E0
2.360628087E0,3.987419903E-1,3.206276596E-1,1.417511702E0
2.365383243E0,3.119991720E-1,2.198349684E-1,1.538462996E0
2.370138400E0,1.776089370E-1,5.306887627E-2,1.659414172E0
2.374893504E0,-4.230238497E-2,-2.120464295E-1,1.775478482E0
2.379648660E0,-3.856084049E-1,-5.987238288E-1,1.876882076E0
2.384403816E0,-8.242093325E-1,-1.050763726E0,1.953850985E0
2.389158920E0,-1.301294684E0,-1.485088587E0,1.988670230E0
2.393914077E0,-1.754556417E0,-1.825340271E0,1.967900872E0
2.398669233E0,-2.110690594E0,-2.003102064E0,1.869551659E0
2.403424389E0,-2.261574030E0,-1.961563110E0,1.649640322E0
2.408179493E0,-2.110079765E0,-1.674456716E0,1.285564899E0
2.412934650E0,-1.595120668E0,-1.194316983E0,8.341358304E-1
2.417689806E0,-7.173079848E-1,-7.306706309E-1,3.649916947E-1
2.422444962E0,3.730856776E-1,-5.211440325E-1,-1.487455666E-1
2.427200066E0,1.472031355E0,-6.866883636E-1,-7.797688842E-1
2.431955223E0,2.432921648E0,-1.191262722E0,-1.580001712E0
2.436710379E0,3.112203360E0,-1.786855817E0,-2.527452946E0
2.441465535E0,3.335169077E0,-1.780136347E0,-3.548818827E0
2.446220639E0,3.056614637E0,-1.062370181E0,-4.587900162E0
2.450975795E0,2.445138931E0,-4.405862093E-2,-5.526799202E0
2.455730952E0,1.738979340E0,1.015791774E0,-6.228682518E0
2.460486108E0,1.092684388E0,2.012723207E0,-6.622079849E0
2.465241264E0,5.783362389E-1,2.762254238E0,-6.620246887E0
2.469996368E0,1.849393100E-1,3.286376238E0,-6.207302570E0
2.474751525E0,-6.612611562E-2,3.792172194E0,-5.368585110E0
2.479506681E0,-1.852447391E-1,4.376770020E0,-4.106538296E0
2.484261837E0,-2.109010667E-1,4.923493862E0,-2.573267937E0
2.489016941E0,-1.840230078E-1,5.275962830E0,-1.110246778E0
2.493772098E0,-1.113301069E-1,5.547797680E0,-8.338304609E-2
2.498527254E0,2.428187430E-2,5.806193352E0,4.792234302E-1
2.503282410E0,2.075413018E-1,5.956466198E0,7.412844300E-1
2.508037514E0,4.140135944E-1,5.977235317E0,8.445205688E-1
2.512792670E0,6.101012230E-1,5.872166634E0,8.744529486E-1
2.517547827E0,7.499892116E-1,5.658364296E0,8.830050230E-1
2.522302983E0,7.469348907E-1,5.355375290E0,9.153808951E-1
2.527058087E0,5.178605914E-1,4.875846386E0,9.886846542E-1
2.531813243E0,9.453132749E-2,4.072559357E0,1.082757831E0
2.536568400E0,-3.776671588E-1,2.927187681E0,1.168278933E0
2.541323556E0,-6.549997330E-1,1.564348340E0,1.201876402E0
2.546078712E0,-5.328267813E-1,6.772962958E-2,1.142622590E0
2.550833816E0,-8.017600328E-2,-1.456988811E0,9.899063706E-1
2.555588973E0,4.195113778E-1,-2.860145330E0,7.699950337E-1
2.560344129E0,7.695369124E-1,-4.032394886E0,5.244274139E-1
2.565099285E0,9.393573403E-1,-4.905320644E0,2.788597643E-1
2.569854441E0,9.124792814E-1,-5.425777435E0,2.168569900E-2
2.574609545E0,5.850557685E-1,-5.417836189E0,-2.733619809E-1
2.579364702E0,9.330959618E-2,-4.932198524E0,-6.001746655E-1
2.584119858E0,-3.184132576E-1,-4.276740551E0,-8.872811198E-1
2.588875014E0,-5.242747068E-1,-3.596848249E0,-1.015562654E0
2.593630118E0,-5.627591610E-1,-2.986594200E0,-9.575305581E-1
2.598385275E0,-5.151117444E-1,-2.492404699E0,-7.748819590E-1
2.603140431E0,-4.503600597E-1,-2.126496553E0,-5.409207344E-1
2.607895587E0,-3.996582925E-1,-1.826562047E0,-3.032943606E-1
2.612650743E0,-3.636172712E-1,-1.500360250E0,-8.765909821E-2
2.617405900E0,-3.367392123E-1,-1.113682866E0,1.023198515E-1
2.622161004E0,-3.214675784E-1,-7.166207433E-1,2.678641975E-1
2.626916160E0,-3.275762498E-1,-3.501018882E-1,4.101957083E-1
2.631671316E0,-3.483456373E-1,-8.628465235E-3,5.287034512E-1
2.636426473E0,-3.703367710E-1,3.157407343E-1,6.258309484E-1
2.641181629E0,-3.917170465E-1,6.022363305E-1,7.119628787E-1
2.645936733E0,-4.137081802E-1,8.569669127E-1,7.846558094E-1
2.650691889E0,-4.350884259E-1,1.086652040E0,8.396336436E-1
2.655447045E0,-4.650208056E-1,1.281517982E0,8.817833066E-1
2.660202202E0,-5.053378940E-1,1.442786217E0,9.068287611E-1
2.664957358E0,-5.603157282E-1,1.568624377E0,9.159917235E-1
2.669712462E0,-6.250674129E-1,1.667584538E0,9.104939699E-1
2.674467618E0,-6.959276795E-1,1.743942618E0,8.897245526E-1
2.679222775E0,-7.722858191E-1,1.797698736E0,8.567378521E-1
2.683977931E0,-8.486438990E-1,1.830685377E0,8.151990771E-1
2.688733087E0,-9.237802625E-1,1.842291832E0,7.699950337E-1
2.693488191E0,-9.976949096E-1,1.838626623E0,7.247910500E-1
2.698243348E0,-1.069776893E0,1.822744131E0,6.856957078E-1
2.702998504E0,-1.136361241E0,1.794644356E0,6.569850445E-1
2.707753660E0,-1.195004225E0,1.748218656E0,6.453786492E-1
2.712508816E0,-1.244484305E0,1.676747441E0,6.478220820E-1
2.717263973E0,-1.284190536E0,1.575343966E0,6.594285369E-1
2.722019077E0,-1.316566348E0,1.439121008E0,6.679806113E-1
2.726774233E0,-1.344055176E0,1.255861640E0,6.661480665E-1
2.731529389E0,-1.352607369E0,1.023733020E0,6.569850445E-1
2.736284545E0,-1.326951027E0,7.421243787E-1,6.453786492E-1
2.741039702E0,-1.259755850E0,4.256964028E-1,6.282744408E-1
2.745794858E0,-1.137582898E0,9.338594973E-2,6.423243284E-1
2.750549962E0,-9.793689847E-1,-2.505309284E-1,7.101303339E-1
2.755305118E0,-7.942769527E-1,-5.871174335E-1,8.237511516E-1
2.760060275E0,-5.841394663E-1,-8.894954920E-1,9.862411618E-1
2.764815431E0,-3.507890999E-1,-1.142393470E0,1.198211312E0
2.769570587E0,-1.046105921E-1,-1.324431181E0,1.448054910E0
2.774325743E0,1.415679157E-1,-1.431332588E0,1.713170290E0
2.779080848E0,3.743073940E-1,-1.491808176E0,1.967900872E0
2.783836004E0,5.948295593E-1,-1.518075347E0,2.197586060E0
2.788591160E0,8.006910086E-1,-1.516853571E0,2.392452002E0
2.793346316E0,9.894482493E-1,-1.525405765E0,2.542113781E0
2.798101473E0,1.159879446E0,-1.571831465E0,2.636797905E0
2.802856629E0,1.307097912E0,-1.651243806E0,2.681391001E0
2.807611785E0,1.425605655E0,-1.751425624E0,2.685667038E0
2.812366889E0,1.513570189E0,-1.861992240E0,2.658788919E0
2.817122045E0,1.564882874E0,-1.966450095E0,2.609308958E0
2.821877202E0,1.580765367E0,-2.055025578E0,2.546389818E0
2.826632358E0,1.565493703E0,-2.119777203E0,2.477972984E0
2.831387514E0,1.523344040E0,-2.146044254E0,2.411999464E0
2.836142670E0,1.456148863E0,-2.131994486E0,2.358854294E0
2.840897775E0,1.370627880E0,-2.070908070E0,2.322202444E0
2.845652931E0,1.272889495E0,-1.962784886E0,2.304487467E0
2.850408087E0,1.169042468E0,-1.813122988E0,2.305098295E0
2.855163243E0,1.067638874E0,-1.633528829E0,2.325256824E0
2.859918400E0,9.729548693E-1,-1.437441230E0,2.357021809E0
2.864673556E0,8.917098641E-1,-1.242575288E0,2.402836561E0
2.869428712E0,8.263473511E-1,-1.054428935E0,2.454760075E0
2.874183868E0,7.719803452E-1,-8.754456043E-1,2.508516312E0
2.878938973E0,7.261655331E-1,-7.062360644E-1,2.560439825E0
2.883694129E0,6.882919073E-1,-5.516872406E-1,2.606865406E0
2.888449285E0,6.577486396E-1,-4.154644012E-1,2.645349979E0
2.893204441E0,6.339249015E-1,-2.957349122E-1,2.672227859E0
2.897959598E0,6.149880886E-1,-1.845575273E-1,2.686888695E0
2.902714754E0,5.966621637E-1,-7.154753804E-2,2.687499523E0
2.907469910E0,5.734493136E-1,4.940368980E-2,2.679558277E0
2.912225066E0,5.447386503E-1,1.862373948E-1,2.659399748E0
2.916980170E0,5.111411214E-1,3.444513679E-1,2.625802279E0
2.921735327E0,4.714348912E-1,5.289325118E-1,2.580598354E0
2.926490483E0,4.268417656E-1,7.317396402E-1,2.525620461E0
2.931245639E0,3.810268939E-1,9.479857683E-1,2.463312149E0
2.936000795E0,3.419315517E-1,1.155679822E0,2.397338867E0
2.940755952E0,3.162752390E-1,1.329165459E0,2.327700138E0
2.945511108E0,3.003927469E-1,1.467831731E0,2.255618095E0
2.950266264E0,2.845102847E-1,1.608941436E0,2.182314396E0
2.955021368E0,2.637408674E-1,1.816635489E0,2.105956316E0
2.959776525E0,2.258672565E-1,2.157498121E0,2.018602610E0
2.964531681E0,1.605047137E-1,2.679176569E0,1.909868717E0
2.969286837E0,2.672533318E-2,3.387168884E0,1.765704632E0
2.974041993E0,-2.335030586E-1,4.222831726E0,1.567173600E0
2.978797150E0,-6.134609580E-1,4.952204227E0,1.320384264E0
2.983552306E0,-9.824233055E-1,5.231980324E0,1.104748964E0
2.988307462E0,-1.253647208E0,5.004127979E0,9.642500281E-1
2.993062618E0,-1.412472129E0,4.428082466E0,8.909462690E-1
2.997817775E0,-1.458897829E0,3.692601204E0,8.610138893E-1
3.002572879E0,-1.357494235E0,2.967504740E0,8.561269641E-1
3.007328035E0,-1.129641652E0,2.314490318E0,8.500183225E-1
3.012083191E0,-8.462004066E-1,1.721951485E0,8.072578311E-1
3.016838348E0,-5.743656158E-1,1.200883746E0,7.168498039E-1
3.021593504E0,-3.660607338E-1,7.683915496E-1,5.830704570E-1
3.026348660E0,-2.591593862E-1,4.446332157E-1,4.095848203E-1
3.031103816E0,-2.579376400E-1,2.528216541E-1,2.031125426E-1
3.035858973E0,-3.520108163E-1,1.947895139E-1,-2.351829410E-2
3.040614129E0,-5.169443488E-1,2.656498253E-1,-2.556469142E-1
3.045369233E0,-7.032580972E-1,4.269181192E-1,-4.676169753E-1
3.050124389E0,-8.657481074E-1,6.126210093E-1,-6.484329700E-1
3.054879545E0,-9.738711715E-1,7.409026027E-1,-8.017600179E-1
3.059634702E0,-1.027627230E0,7.824414372E-1,-9.385937452E-1
3.064389858E0,-1.045953274E0,7.555633783E-1,-1.066264510E0
3.069145014E0,-1.056948781E0,6.828704476E-1,-1.179274440E0
3.073900170E0,-1.079550743E0,5.723039508E-1,-1.280678034E0
3.078655327E0,-1.127198219E0,4.482983947E-1,-1.375972867E0
3.083410483E0,-1.199891090E0,3.383427262E-1,-1.463937402E0
3.088165639E0,-1.287244797E0,2.509890795E-1,-1.543960690E0
3.092920795E0,-1.365435481E0,2.027307451E-1,-1.616653681E0
3.097675900E0,-1.381317973E0,1.618028134E-1,-1.708283305E0
3.102431056E0,-1.296407819E0,5.917752534E-2,-1.838397503E0
3.107186212E0,-1.150411129E0,-1.466839015E-1,-2.001498461E0
3.111941368E0,-1.015409946E0,-4.533380270E-1,-2.177427530E0
3.116696525E0,-9.359975457E-1,-8.558979034E-1,-2.356410980E0
3.121451681E0,-8.999565244E-1,-1.326263785E0,-2.528674841E0
3.126206837E0,-8.419243693E-1,-1.801516652E0,-2.681391001E0
3.130961993E0,-7.234166265E-1,-2.204076529E0,-2.806007385E0
3.135717150E0,-5.535961986E-1,-2.485685110E0,-2.901302338E0
3.140472306E0,-3.691150546E-1,-2.645120859E0,-2.983768940E0
3.145227462E0,-1.992946416E-1,-2.706818104E0,-3.065014124E0
3.149982618E0,-6.734783947E-2,-2.696433544E0,-3.137096167E0
3.154737775E0,2.489273995E-2,-2.641455650E0,-3.190852165E0
3.159492931E0,7.742711157E-2,-2.535776138E0,-3.221395493E0
3.164248035E0,9.392046183E-2,-2.342131853E0,-3.234223604E0
3.169003191E0,7.803797722E-2,-2.072740555E0,-3.243997335E0
3.173758348E0,3.344484791E-2,-1.763032079E0,-3.258047342E0
3.178513504E0,-4.413498193E-2,-1.389182925E0,-3.284314394E0
3.183268660E0,-1.467602700E-1,-9.585232139E-1,-3.335016251E0
3.188023816E0,-2.579376400E-1,-5.107592940E-1,-3.421759129E0
3.192778973E0,-3.801106215E-1,-6.910407543E-2,-3.569588423E0
3.197534129E0,-5.102248192E-1,3.927097023E-1,-3.727802277E0
3.202289285E0,-6.287325621E-1,8.649081588E-1,-3.879907608E0
3.207044441E0,-7.215840220E-1,1.349323988E0,-3.991085052E0
3.211799598E0,-7.942769527E-1,1.858785152E0,-4.064388752E0
3.216554754E0,-8.419243693E-1,2.387183189E0,-4.110203743E0
3.221309910E0,-8.584177494E-1,2.935739756E0,-4.139525414E0
3.226065066E0,-8.248201609E-1,3.480631113E0,-4.154796600E0
3.230820170E0,-7.136427760E-1,4.004753113E0,-4.155407429E0
3.235575327E0,-5.248855352E-1,4.462290764E0,-4.104705811E0
3.240330483E0,-2.695440948E-1,4.803764343E0,-3.985587358E0
3.245085639E0,3.512472380E-3,4.999240875E0,-3.793775797E0
3.249840795E0,1.550069451E-1,4.869737625E0,-3.524384260E0
3.254595952E0,-5.650499370E-3,4.129369736E0,-3.178634882E0
3.259351108E0,-4.149298966E-1,2.859992504E0,-2.795622587E0
3.264106264E0,-6.934842467E-1,1.584506869E0,-2.444986343E0
3.268861420E0,-5.688678026E-1,6.046797633E-1,-2.168875456E0
3.273616577E0,-1.693622619E-1,-3.672824427E-2,-1.944688082E0
3.278371733E0,3.309359848E-1,-3.898080885E-1,-1.733328819E0
3.283126889E0,8.061888218E-1,-5.700132251E-1,-1.529910803E0
3.287882045E0,1.172096848E0,-6.842449307E-1,-1.340542793E0
3.292637202E0,1.393840671E0,-7.752637863E-1,-1.180496216E0
3.297392358E0,1.464701056E0,-8.418480158E-1,-1.052825451E0
3.302147514E0,1.405447125E0,-8.723912835E-1,-9.544762373E-1
3.306902670E0,1.260672212E0,-8.253546953E-1,-8.787289858E-1
3.311657827E0,1.093906045E0,-6.927970052E-1,-8.182533979E-1
3.316412983E0,9.619593024E-1,-5.272526741E-1,-7.632755637E-1
3.321168139E0,8.752164841E-1,-3.702604175E-1,-7.211259007E-1
3.325923243E0,8.324559927E-1,-2.438113987E-1,-6.911935210E-1
3.330678400E0,8.226821423E-1,-1.589011997E-1,-6.692023873E-1
3.335433556E0,8.324559927E-1,-1.204167232E-1,-6.630937457E-1
3.340188712E0,8.458949924E-1,-1.228601784E-1,-6.679806113E-1
3.344943868E0,8.581122756E-1,-1.613446623E-1,-6.850848794E-1
3.349699025E0,8.642209172E-1,-2.254854590E-1,-7.113520503E-1
3.354454181E0,8.684970140E-1,-3.073413372E-1,-7.418952584E-1
3.359209337E0,8.678861260E-1,-3.977493346E-1,-7.754928470E-1
3.363964493E0,8.654426932E-1,-4.954876900E-1,-8.048143387E-1
3.368719650E0,8.636100888E-1,-5.975021124E-1,-8.249728680E-1
3.373474806E0,8.629992008E-1,-6.860775352E-1,-8.341358304E-1
3.378229962E0,8.623883724E-1,-7.434988022E-1,-8.243620396E-1
3.382985118E0,8.532254100E-1,-7.618247271E-1,-7.870992422E-1
3.387740275E0,8.397863507E-1,-7.502183318E-1,-7.192932963E-1
3.392495431E0,8.239038587E-1,-7.123447061E-1,-6.227766275E-1
3.397250587E0,8.037453294E-1,-6.445387006E-1,-5.024362803E-1
3.402005743E0,7.884737253E-1,-5.620719790E-1,-3.692677617E-1
3.406760900E0,7.823650837E-1,-4.777726233E-1,-2.391535640E-1
3.411516056E0,7.878628373E-1,-4.001927972E-1,-1.261435747E-1
3.416271212E0,8.043562174E-1,-3.232238293E-1,-3.084867075E-2
3.421026368E0,8.263473511E-1,-2.468657345E-1,4.734202102E-2
3.425781525E0,8.513928056E-1,-1.705076247E-1,1.127045527E-1
3.430536681E0,8.739947677E-1,-9.292780608E-2,1.725693047E-1
3.435291837E0,8.935424685E-1,-1.290451828E-2,2.354883701E-1
3.440046993E0,9.045380354E-1,6.528617442E-2,3.075704277E-1
3.444802150E0,9.014837146E-1,1.324812919E-1,3.906480372E-1
3.449557306E0,8.886555433E-1,1.807396114E-1,4.828886092E-1
3.454312462E0,8.642209172E-1,2.051742077E-1,5.861247778E-1
3.459067618E0,8.269581795E-1,2.015090138E-1,7.009673119E-1
3.463822775E0,7.793107629E-1,1.673005968E-1,8.286380768E-1
3.468577931E0,7.255546451E-1,1.037706509E-1,9.648609161E-1
3.473333087E0,6.681333780E-1,1.153007243E-2,1.102305532E0
3.478088243E0,6.058251262E-1,-1.100320220E-1,1.246469617E0
3.482843400E0,5.343539715E-1,-2.621373534E-1,1.397353172E0
3.487598556E0,4.561632872E-1,-4.350120723E-1,1.555567145E0
3.492353712E0,3.706422150E-1,-6.133846045E-1,1.727831006E0
3.497108868E0,2.784016132E-1,-7.813724279E-1,1.898873210E0
3.501864025E0,1.898262352E-1,-9.212604165E-1,2.041815519E0
3.506619181E0,1.012508348E-1,-1.031216145E0,2.140775681E0
3.511374337E0,7.788525894E-3,-1.117958903E0,2.203083754E0
3.516129493E0,-1.009454057E-1,-1.183321476E0,2.236070633E0
3.520884650E0,-2.420551628E-1,-1.221195102E0,2.247066021E0
3.525639806E0,-4.259254634E-1,-1.216308117E0,2.236681461E0
3.530394962E0,-6.488910913E-1,-1.145447850E0,2.195753336E0
3.535150118E0,-8.816305995E-1,-9.951750636E-1,2.106567144E0
3.539905275E0,-1.068555236E0,-8.174134493E-1,1.949574947E0
3.544660431E0,-1.122922182E0,-7.441096306E-1,1.720500708E0
3.549415587E0,-9.537126422E-1,-9.102649093E-1,1.452331066E0
3.554170743E0,-5.254964232E-1,-1.351309299E0,1.176831007E0
3.558925900E0,1.049160287E-1,-2.011043310E0,8.903354406E-1
3.563681056E0,7.890845537E-1,-2.748357058E0,5.690205693E-1
3.568436212E0,1.418886185E0,-3.459403515E0,2.556469142E-1
3.573191368E0,1.933845162E0,-3.940765142E0,2.290742844E-2
3.577946525E0,2.261879444E0,-3.983525515E0,-9.926552325E-2
3.582701681E0,2.320522547E0,-3.757505655E0,-5.039634556E-2
3.587456837E0,2.086561441E0,-3.498498917E0,2.293797284E-1
3.592211993E0,1.668729901E0,-3.050734997E0,7.809906006E-1
3.596967150E0,1.191033602E0,-2.373896837E0,1.517082691E0
3.601722306E0,7.646499872E-1,-1.693393469E0,2.223242283E0
3.606477462E0,4.940368831E-1,-1.078863502E0,2.677725792E0
3.611232618E0,4.298960865E-1,-2.474765927E-1,2.828609467E0
3.615987775E0,5.300779343E-1,1.074434757E0,2.721097231E0
3.620742931E0,6.980656981E-1,2.663294077E0,2.432769060E0
3.625498087E0,9.185879230E-1,4.191066742E0,2.008828878E0
3.630253243E0,1.151938200E0,5.416461468E0,1.482874274E0
3.635008400E0,1.320536971E0,6.204477310E0,8.811724186E-1
3.639763556E0,1.353523612E0,6.578937531E0,2.635881603E-1
3.644518712E0,1.178816319E0,6.734097004E0,-2.990183234E-1
3.649273868E0,7.860302329E-1,6.844052792E0,-7.528908253E-1
3.654029025E0,3.236056268E-1,6.703553677E0,-1.101694584E0
3.658784181E0,-2.703076601E-2,6.040154457E0,-1.410181284E0
3.663539337E0,-2.457203567E-1,4.864239693E0,-1.702174664E0
3.668294493E0,-3.764454126E-1,3.357847452E0,-1.947131515E0
3.673049650E0,-4.210385382E-1,1.785481334E0,-2.123060465E0
3.677804806E0,-3.452913165E-1,3.499491513E-1,-2.262948513E0
3.682560014E0,2.306014486E-2,-7.325032353E-1,-2.430936337E0
3.687315118E0,7.896954417E-1,-1.312213898E0,-2.622137070E0
3.692070275E0,8.281798959E-1,-1.648189545E0,-2.746142626E0
3.696825483E0,1.794415265E-1,-1.974391341E0,-2.743699074E0
3.701580639E0,-1.522580534E-1,-2.565097570E0,-2.643517256E0
3.706335795E0,-2.499964088E-1,-3.272479057E0,-2.515235662E0
3.711090952E0,-2.597702444E-1,-3.982303858E0,-2.391230106E0
3.715846108E0,-2.756527364E-1,-4.526584148E0,-2.278831005E0
3.720601264E0,-3.373500705E-1,-4.784980297E0,-2.197586060E0
3.725356420E0,-4.668534100E-1,-4.689074516E0,-2.174373150E0
3.730111577E0,-6.305651665E-1,-4.308505535E0,-2.217744589E0
3.734866733E0,-8.101593852E-1,-3.740401506E0,-2.283717871E0
3.739621889E0,-9.952514172E-1,-3.109378099E0,-2.349691391E0
3.744377045E0,-1.179121733E0,-2.509508848E0,-2.407723427E0
3.749132202E0,-1.373987556E0,-1.940182924E0,-2.441931963E0
3.753887358E0,-1.570686102E0,-1.380630732E0,-2.432769060E0
3.758642514E0,-1.743560791E0,-7.996983528E-1,-2.359465122E0
3.763397670E0,-1.884059668E0,-1.705076247E-1,-2.217133760E0
3.768152827E0,-1.990961075E0,5.026653409E-1,-2.024711370E0
3.772907983E0,-2.053880215E0,1.204548955E0,-1.779143691E0
3.777663139E0,-2.083812475E0,1.903989196E0,-1.473711252E0
3.782418295E0,-2.096640587E0,2.552116632E0,-1.130405307E0
3.787173504E0,-2.103360176E0,3.095175505E0,-7.724385262E-1
3.791928660E0,-2.104581833E0,3.513006926E0,-4.211912751E-1
3.796683816E0,-2.101527452E0,3.809276342E0,-7.910698652E-2
3.801438973E0,-2.102138519E0,4.007807255E0,2.495382577E-1
3.806194129E0,-2.106414557E0,4.131202221E0,5.537489057E-1
3.810949285E0,-2.106414557E0,4.165410519E0,8.115338683E-1
3.815704441E0,-2.089310169E0,4.093328476E0,1.002123713E0
3.820459598E0,-2.056323528E0,3.908847332E0,1.121853113E0
3.825214754E0,-2.009897947E0,3.635179996E0,1.185383081E0
3.829969910E0,-1.951254845E0,3.283932686E0,1.207374215E0
3.834725066E0,-1.879783630E0,2.858160019E0,1.218980670E0
3.839480223E0,-1.800371170E0,2.360915899E0,1.240360975E0
3.844235379E0,-1.706297994E0,1.797087789E0,1.280067086E0
3.848990535E0,-1.588401198E0,1.173394918E0,1.347262263E0
3.853745691E0,-1.439960957E0,5.075522661E-1,1.444389820E0
3.858500848E0,-1.264031887E0,-1.876118481E-1,1.572671413E0
3.863256056E0,-1.064279199E0,-9.108757377E-1,1.722944140E0
3.868011212E0,-8.516982198E-1,-1.651854753E0,1.890321016E0
3.872766368E0,-6.342303753E-1,-2.367177486E0,2.069304466E0
3.877521525E0,-4.185950756E-1,-3.003087521E0,2.250120401E0
3.882276681E0,-2.060141414E-1,-3.547368050E0,2.424216986E0
3.887031837E0,2.290742937E-3,-4.023842812E0,2.595869780E0
3.891786993E0,2.105956376E-1,-4.447172165E0,2.763246775E0
3.896542150E0,4.231765866E-1,-4.811858177E0,2.922682524E0
3.901297306E0,6.461422443E-1,-5.109349251E0,3.066846609E0
3.906052462E0,8.788816929E-1,-5.350640774E0,3.175580502E0
3.910807618E0,1.115286350E0,-5.548561096E0,3.244608164E0
3.915562775E0,1.354745388E0,-5.720214367E0,3.273929834E0
3.920317983E0,1.591760874E0,-5.875373840E0,3.265377760E0
3.925073139E0,1.818391681E0,-6.006098747E0,3.228114843E0
3.929828295E0,2.027307510E0,-6.120330811E0,3.171304464E0
3.934583452E0,2.210566998E0,-6.213792801E0,3.108996391E0
3.939338608E0,2.368170023E0,-6.266938210E0,3.050353289E0
3.944093764E0,2.502560377E0,-6.260829449E0,3.000873327E0
3.948848920E0,2.617402792E0,-6.190579891E0,2.965443134E0
3.953604077E0,2.718806505E0,-6.051302910E0,2.945284605E0
3.958359233E0,2.803105831E0,-5.836278439E0,2.940397501E0
3.963114389E0,2.867857456E0,-5.534511089E0,2.948338747E0
3.967869545E0,2.912450552E0,-5.153331757E0,2.962388754E0
3.972624754E0,2.933830738E0,-4.704957008E0,2.982547283E0
3.977379910E0,2.929554701E0,-4.211988926E0,3.009425402E0
3.982135066E0,2.903898478E0,-3.698251724E0,3.033249140E0
3.986890223E0,2.865413904E0,-3.180849314E0,3.043633699E0
3.991645379E0,2.822653532E0,-2.675664186E0,3.036303282E0
3.996400535E0,2.779282093E0,-2.185750484E0,3.000262260E0
4.001155691E0,2.737743139E0,-1.696447849E0,2.934288979E0
4.005910848E0,2.699258804E0,-1.198593020E0,2.845102787E0
4.010666004E0,2.616791964E0,-5.687914491E-1,2.739423037E0
4.015421160E0,2.391382933E0,4.000400603E-1,2.643517256E0
4.020176368E0,1.988212109E0,1.720729709E0,2.586096048E0
4.024931525E0,1.471420527E0,3.167257547E0,2.545778990E0
4.029686681E0,8.367320299E-1,4.680980682E0,2.472475290E0
4.034441837E0,1.519526094E-1,6.035878658E0,2.348469734E0
4.039196993E0,-3.752236962E-1,6.764029503E0,2.205527306E0
4.043952150E0,-7.185297012E-1,6.927741051E0,2.069304466E0
4.048707306E0,-9.488257170E-1,6.754255295E0,1.951407552E0
4.053462462E0,-1.106428862E0,6.371243477E0,1.854279995E0
4.058217670E0,-1.205999732E0,5.855062485E0,1.778532863E0
4.062972827E0,-1.251814604E0,5.254582405E0,1.719278932E0
4.067727983E0,-1.223714828E0,4.624780655E0,1.670409799E0
4.072483139E0,-1.044120669E0,4.066450596E0,1.612988472E0
4.077238295E0,-7.148644924E-1,3.577758551E0,1.541517258E0
4.081993452E0,-3.385718167E-1,3.067075729E0,1.465159178E0
4.086748608E0,3.512472380E-3,2.484310627E0,1.402240157E0
4.091503764E0,2.619082630E-1,1.826409340E0,1.355203509E0
4.096258973E0,4.103484154E-1,1.127580047E0,1.316108227E0
4.101014129E0,4.311178327E-1,4.428006113E-1,1.266017199E0
4.105769285E0,3.077231348E-1,-1.760054082E-1,1.183550477E0
4.110524441E0,7.131846249E-2,-6.714167595E-1,1.057101488E0
4.115279598E0,-2.084576041E-1,-9.957859516E-1,9.080504775E-1
4.120034754E0,-4.637990892E-1,-1.134452224E0,7.559451461E-1
4.124789910E0,-6.537780166E-1,-1.090469956E0,6.221657991E-1
4.129545066E0,-7.710640430E-1,-8.931606412E-1,5.164861679E-1
4.134300223E0,-8.309288025E-1,-5.810087919E-1,4.358520210E-1
4.139055431E0,-8.486438990E-1,-1.778380126E-1,3.704894781E-1
4.143810587E0,-8.431460857E-1,2.680932879E-1,3.142899275E-1
4.148565743E0,-8.266527653E-1,7.115811110E-1,2.593120933E-1
4.153320900E0,-8.095485568E-1,1.123304009E0,1.988364905E-1
4.158076056E0,-8.077159524E-1,1.481881618E0,1.322522312E-1
4.162831212E0,-8.370374441E-1,1.758603334E0,6.688969582E-2
4.167586420E0,-9.188933372E-1,1.924758554E0,8.246674202E-3
4.172341577E0,-1.058781385E0,1.973016858E0,-3.695731983E-2
4.177096733E0,-1.227380037E0,1.911930442E0,-7.299833745E-2
4.181851889E0,-1.367878914E0,1.757381558E0,-1.096502244E-1
4.186607045E0,-1.424078465E0,1.523420453E0,-1.548542231E-1
4.191362202E0,-1.381317973E0,1.228983521E0,-2.073885947E-1
4.196117358E0,-1.279914379E0,9.070578218E-1,-2.556469142E-1
4.200872566E0,-1.174845695E0,5.857429504E-1,-2.947422564E-1
4.205627723E0,-1.099098444E0,3.053560257E-1,-3.472766280E-1
4.210382879E0,-1.063057423E0,9.705114365E-2,-4.370737374E-1
4.215138035E0,-1.064890027E0,-1.962403022E-2,-5.830704570E-1
4.219893191E0,-1.091768026E0,-2.878700197E-2,-7.834340930E-1
4.224648348E0,-1.116202712E0,5.490147322E-2,-1.032056093E0
4.229403504E0,-1.100931048E0,1.734092385E-1,-1.306945205E0
4.234158712E0,-1.036179423E0,2.564868629E-1,-1.596495152E0
4.238913868E0,-9.476040006E-1,2.589302957E-1,-1.893375397E0
4.243669025E0,-8.681915402E-1,1.837939471E-1,-2.202472925E0
4.248424181E0,-8.168789148E-1,3.840812296E-2,-2.524398804E0
4.253179337E0,-7.808378935E-1,-1.729510874E-1,-2.847546101E0
4.257934493E0,-7.295252681E-1,-4.447859228E-1,-3.153589487E0
4.262689702E0,-6.281217337E-1,-7.661007643E-1,-3.413817883E0
4.267444858E0,-4.692968726E-1,-1.094745994E0,-3.606240273E0
4.272200014E0,-2.689332068E-1,-1.375132918E0,-3.728413105E0
4.276955170E0,-5.085449293E-2,-1.576107502E0,-3.794997454E0
4.281710327E0,1.647807807E-1,-1.712941170E0,-3.816377640E0
4.286465483E0,3.517054021E-1,-1.788688421E0,-3.799273491E0
4.291220691E0,4.842630625E-1,-1.781968951E0,-3.748571634E0
4.295975848E0,5.484038591E-1,-1.653076410E0,-3.680765629E0
4.300731004E0,5.416843295E-1,-1.398956656E0,-3.621511936E0
4.305486160E0,4.751000702E-1,-1.028161764E0,-3.594022989E0
4.310241316E0,3.669770062E-1,-5.522981286E-1,-3.639837742E0
4.314996473E0,2.588539422E-1,-5.322159454E-2,-3.774228096E0
4.319751681E0,1.501200199E-1,4.458549321E-1,-3.977035046E0
4.324506837E0,4.871646687E-2,8.972840309E-1,-4.228100777E0
4.329261993E0,-6.001746282E-2,1.316337228E0,-4.486496449E0
4.334017150E0,-1.559232324E-1,1.703014612E0,-4.713127136E0
4.338772306E0,-2.212857604E-1,2.076864004E0,-4.853015423E0
4.343527462E0,-2.628245652E-1,2.447047949E0,-4.867675781E0
4.348282670E0,-3.104720116E-1,2.839833975E0,-4.749779224E0
4.353037827E0,-3.532325625E-1,3.255832911E0,-4.525591850E0
4.357792983E0,-3.593412042E-1,3.663890600E0,-4.197557449E0
4.362548139E0,-3.465130329E-1,4.000477314E0,-3.770562887E0
4.367303295E0,-3.287979662E-1,4.221610069E0,-3.344789982E0
4.372058452E0,-2.927569449E-1,4.351724148E0,-2.991710186E0
4.376813660E0,-2.139553875E-1,4.408534527E0,-2.713155985E0
4.381568816E0,-7.712167501E-2,4.373715401E0,-2.476140499E0
4.386323973E0,1.189659163E-1,4.206949234E0,-2.250120401E0
4.391079129E0,3.627009690E-1,3.909458160E0,-2.027154684E0
4.395834285E0,6.302597523E-1,3.478798628E0,-1.810297728E0
4.400589493E0,8.758273721E-1,2.920468092E0,-1.609934092E0
4.405344650E0,1.084743142E0,2.251571178E0,-1.436448574E0
4.410099806E0,1.272278666E0,1.487379432E0,-1.289230108E0
4.414854962E0,1.433546901E0,7.066941857E-1,-1.164613724E0
4.419610118E0,1.563050270E0,1.275180187E-2,-1.050992846E0
4.424365275E0,1.649793029E0,-5.223657489E-1,-9.489784241E-1
4.429120483E0,1.694997072E0,-8.723912835E-1,-8.640682101E-1
4.433875639E0,1.707825184E0,-1.046487689E0,-8.048143387E-1
4.438630795E0,1.685223222E0,-1.102687240E0,-7.663298845E-1
4.443385952E0,1.625358462E0,-1.116737127E0,-7.461713552E-1
4.448141160E0,1.543502569E0,-1.114904523E0,-7.437278628E-1
4.452896316E0,1.462257624E0,-1.110017657E0,-7.467821836E-1
4.457651473E0,1.392008066E0,-1.094745994E0,-7.498365045E-1
4.462406629E0,1.339473724E0,-1.050763726E0,-7.437278628E-1
4.467161785E0,1.305876136E0,-9.725731015E-1,-7.241802216E-1
4.471916993E0,1.287550211E0,-8.650608659E-1,-6.960803866E-1
4.476672150E0,1.269835114E0,-7.465531230E-1,-6.673697829E-1
4.481427306E0,1.245400548E0,-6.408734918E-1,-6.374374032E-1
4.486182462E0,1.213635564E0,-5.565741658E-1,-6.044507027E-1
4.490937618E0,1.180038095E0,-4.912116528E-1,-5.708531141E-1
4.495692827E0,1.146440506E0,-4.460076392E-1,-5.348120928E-1
4.500447983E0,1.110399485E0,-4.282925725E-1,-4.981602132E-1
4.505203139E0,1.072525859E0,-4.307360351E-1,-4.590648711E-1
4.509958295E0,1.029154420E0,-4.368446767E-1,-4.193586707E-1
4.514713452E0,9.863939285E-1,-4.362338185E-1,-3.747655451E-1
4.519468660E0,9.503529072E-1,-4.209621847E-1,-3.246746361E-1
4.524223816E0,9.191987514E-1,-3.861429095E-1,-2.696968019E-1
4.528978973E0,8.959859014E-1,-3.250564337E-1,-2.116646469E-1
4.533734129E0,8.856012225E-1,-2.328158319E-1,-1.505781710E-1
4.538489285E0,8.837686181E-1,-1.222493127E-1,-8.765909821E-2
4.543244493E0,8.862120509E-1,-1.412624773E-2,-2.351829410E-2
4.547999650E0,8.910989761E-1,9.460768104E-2,4.550942779E-2
4.552754806E0,8.935424685E-1,2.015090138E-1,1.194240674E-1
4.557509962E0,8.917098641E-1,3.053560257E-1,2.025016695E-1
4.562265170E0,8.764382601E-1,4.012618065E-1,2.965748608E-1
4.567020327E0,8.465058804E-1,4.880045950E-1,3.985892832E-1
4.571775483E0,8.000801206E-1,5.545888543E-1,5.073232055E-1
4.576530639E0,7.371610999E-1,5.949059129E-1,6.227766275E-1
4.581285795E0,6.656898856E-1,6.065123677E-1,7.388409376E-1
4.586041004E0,5.905535221E-1,5.875755548E-1,8.555161357E-1
4.590796160E0,5.172497630E-1,5.405389667E-1,9.715804458E-1
4.595551316E0,4.482220411E-1,4.709003866E-1,1.083979607E0
4.600306473E0,3.840812445E-1,3.902662396E-1,1.202487350E0
4.605061681E0,3.181078434E-1,3.071886301E-1,1.332601547E0
4.609816837E0,2.405280024E-1,2.241110206E-1,1.472489595E0
4.614571993E0,1.342375278E-1,1.446985900E-1,1.601992846E0
4.619327150E0,-1.298087649E-2,8.605557680E-2,1.708283305E0
4.624082306E0,-2.072358727E-1,7.872519642E-2,1.785863161E0
4.628837514E0,-4.302015305E-1,1.434768587E-1,1.839008451E0
4.633592670E0,-6.452259421E-1,2.742019296E-1,1.864053845E0
4.638347827E0,-8.645263910E-1,4.519635737E-1,1.860999584E0
4.643102983E0,-1.117424369E0,6.364447474E-1,1.829845428E0
4.647858191E0,-1.353218198E0,7.690023780E-1,1.745546103E0
4.652613348E0,-1.461952090E0,7.427352071E-1,1.588553905E0
4.657368504E0,-1.326340199E0,3.951531649E-1,1.375362039E0
4.662123660E0,-8.840740323E-1,-4.050796926E-1,1.156061649E0
4.666878868E0,-2.292270064E-1,-1.655519962E0,9.330959320E-1
4.671634025E0,5.306887627E-1,-3.423973560E0,7.247910500E-1
4.676389181E0,1.250287533E0,-5.486863613E0,5.549706817E-1
4.681144337E0,1.792124510E0,-7.362218857E0,5.012145638E-1
4.685899545E0,2.130543709E0,-8.416571617E0,6.630937457E-1
4.690654702E0,2.373667717E0,-7.744619846E0,1.121853113E0
4.695409858E0,2.415817499E0,-5.821617603E0,1.837175846E0
4.700165014E0,2.348011494E0,-3.885176420E0,2.645960808E0
4.704920223E0,2.236834049E0,-2.387336016E0,3.259268999E0
4.709675379E0,2.119548082E0,-1.300607443E0,3.571420908E0
4.714430535E0,1.986379504E0,-4.496728480E-1,3.595244646E0
4.719185691E0,1.844658971E0,3.444513679E-1,3.375333309E0
4.723940900E0,1.679725409E0,1.122082233E0,2.990488529E0
4.728696056E0,1.497687697E0,1.815413713E0,2.527452946E0
4.733451212E0,1.326034665E0,2.420169830E0,2.060752392E0
4.738206368E0,1.198974848E0,3.005989313E0,1.633147001E0
4.742961577E0,1.134223223E0,3.663890600E0,1.260519505E0
4.747716733E0,1.144607902E0,4.475729942E0,9.373720288E-1
4.752471889E0,1.175151110E0,5.337049007E0,6.258309484E-1
4.757227045E0,1.073747516E0,5.851397514E0,1.902843714E-1
4.761982254E0,7.683151960E-1,5.945470333E0,-4.193586707E-1
4.766737410E0,2.790125012E-1,5.849564552E0,-1.080314398E0
4.771492566E0,-3.275762498E-1,5.618047237E0,-1.703396440E0
4.776247723E0,-9.225585461E-1,5.167839527E0,-2.276998520E0
4.781002931E0,-1.359937668E0,4.578966141E0,-2.796844482E0
4.785758087E0,-1.506545305E0,4.101269722E0,-3.237277985E0
4.790513243E0,-1.391091824E0,3.713370562E0,-3.558592796E0
4.795268452E0,-1.077718139E0,3.332801819E0,-3.733300209E0
4.800023608E0,-6.788234711E-1,2.875874996E0,-3.746128321E0
4.804778764E0,-3.709476292E-1,2.124511242E0,-3.580583811E0
4.809533920E0,-2.603811026E-1,1.038393736E0,-3.284925461E0
4.814289129E0,-2.707658112E-1,-1.271362305E-1,-2.925736904E0
4.819044285E0,-3.581194878E-1,-1.265788198E0,-2.545168161E0
4.823799441E0,-4.790706933E-1,-2.313421249E0,-2.212246895E0
4.828554598E0,-6.055197120E-1,-3.204062223E0,-1.964846611E0
4.833309806E0,-7.331904769E-1,-3.870515585E0,-1.813352108E0
4.838064962E0,-8.449786901E-1,-4.299953461E0,-1.755319953E0
4.842820118E0,-9.488257170E-1,-4.495430470E0,-1.762650371E0
4.847575327E0,-1.069776893E0,-4.505204201E0,-1.797469616E0
4.852330483E0,-1.222493172E0,-4.395248413E0,-1.831067204E0
4.857085639E0,-1.411250353E0,-4.220541000E0,-1.843895316E0
4.861840795E0,-1.623220444E0,-4.000019073E0,-1.816406369E0
4.866596004E0,-1.833357930E0,-3.735514402E0,-1.742491841E0
4.871351160E0,-2.014784813E0,-3.418475628E0,-1.622151375E0
4.876106316E0,-2.158338070E0,-3.031798363E0,-1.457217932E0
4.880861473E0,-2.265239239E0,-2.561432362E0,-1.251356483E0
4.885616681E0,-2.348316908E0,-2.027536631E0,-1.010675788E0
4.890371837E0,-2.416122913E0,-1.460654020E0,-7.431169748E-1
4.895126993E0,-2.481485367E0,-8.901063204E-1,-4.670061171E-1
4.899882150E0,-2.539517641E0,-3.226129711E-1,-1.945604384E-1
4.904637358E0,-2.582889080E0,2.485456020E-1,7.483093441E-2
4.909392514E0,-2.608545303E0,8.178715706E-1,3.295615613E-1
4.914147670E0,-2.609766960E0,1.374980211E0,5.641336441E-1
4.918902879E0,-2.582278252E0,1.912541270E0,7.785471678E-1
4.923658035E0,-2.528522015E0,2.428111076E0,9.703587294E-1
4.928413191E0,-2.455218315E0,2.892979145E0,1.134070516E0
4.933168400E0,-2.366032124E0,3.260108948E0,1.264795542E0
4.937923556E0,-2.246302605E0,3.473911524E0,1.363755584E0
4.942678712E0,-2.086256027E0,3.507509232E0,1.435226798E0
4.947433868E0,-1.885892272E0,3.350517035E0,1.469435215E0
4.952189077E0,-1.647044182E0,3.026147842E0,1.455385327E0
4.956944233E0,-1.380096197E0,2.570442677E0,1.409570456E0
4.961699389E0,-1.101541877E0,2.005392790E0,1.357646942E0
4.966454598E0,-8.193224072E-1,1.372536778E0,1.317329884E0
4.971209754E0,-5.303833485E-1,7.543416619E-1,1.299614787E0
4.975964910E0,-2.420551628E-1,1.752418280E-1,1.317329884E0
4.980720118E0,3.588830680E-2,-3.549887836E-1,1.374140263E0
4.985475275E0,2.967275679E-1,-8.247438073E-1,1.463326573E0
4.990230431E0,5.258018374E-1,-1.228525400E0,1.580001712E0
4.994985587E0,7.163916826E-1,-1.571220517E0,1.719889760E0
4.999740795E0,8.837686181E-1,-1.860770464E0,1.876271129E0
5.004495952E0,1.038317442E0,-2.097175121E0,2.031430721E0
5.009251108E0,1.176372886E0,-2.285321474E0,2.163377523E0
5.014006316E0,1.299156666E0,-2.421544313E0,2.267835379E0
5.018761473E0,1.415220976E0,-2.507065296E0,2.344193697E0
5.023516629E0,1.523344040E0,-2.540052176E0,2.386954069E0
5.028271837E0,1.619860649E0,-2.532721758E0,2.391840935E0
5.033026993E0,1.694997072E0,-2.515006542E0,2.364352226E0
5.037782150E0,1.742033601E0,-2.505232811E0,2.311206818E0
5.042537358E0,1.759748697E0,-2.493015528E0,2.239735603E0
5.047292514E0,1.749364018E0,-2.460639715E0,2.158490658E0
5.052047670E0,1.718209863E0,-2.399553299E0,2.079078197E0
5.056802827E0,1.673005939E0,-2.314642906E0,2.008828878E0
5.061558035E0,1.618638992E0,-2.219348192E0,1.955072761E0
5.066313191E0,1.551443815E0,-2.100229502E0,1.920864344E0
5.071068348E0,1.469587922E0,-1.948124170E0,1.902538300E0
5.075823556E0,1.384677768E0,-1.785023212E0,1.906814456E0
5.080578712E0,1.308319688E0,-1.632307053E0,1.936746836E0
5.085333868E0,1.241735339E0,-1.492419004E0,1.993557215E0
5.090089077E0,1.189811826E0,-1.355585337E0,2.075412989E0
5.094844233E0,1.150105715E0,-1.219973326E0,2.178649187E0
5.099599389E0,1.125671029E0,-1.078252673E0,2.297157049E0
5.104354598E0,1.118340731E0,-9.389755130E-1,2.426049471E0
5.109109754E0,1.126892805E0,-8.088613153E-1,2.557996273E0
5.113864910E0,1.154381752E0,-6.946296096E-1,2.685667038E0
5.118620118E0,1.196531415E0,-5.926151872E-1,2.797455311E0
5.123375275E0,1.249065757E0,-4.991528690E-1,2.884809017E0
5.128130431E0,1.305876136E0,-4.063014388E-1,2.936732531E0
5.132885639E0,1.362075686E0,-3.055087626E-1,2.955058336E0
5.137640795E0,1.412166595E0,-1.894444376E-1,2.937954187E0
5.142395952E0,1.459203243E0,-6.116283685E-2,2.895193577E0
5.147151160E0,1.502574682E0,8.361211419E-2,2.831052780E0
5.151906316E0,1.552054644E0,2.613737583E-1,2.754694700E0
5.156661473E0,1.602145553E0,5.112174749E-1,2.671006203E0
5.161416681E0,1.592982650E0,9.589813352E-1,2.564715862E0
5.166171837E0,1.458592415E0,1.707290649E0,2.424216986E0
5.170926993E0,1.192866206E0,2.693226337E0,2.266002893E0
5.175682202E0,9.112575054E-1,3.633347273E0,2.133445263E0
5.180437358E0,6.504182816E-1,4.374937057E0,2.020435333E0
5.185192566E0,2.527453005E-1,5.046888351E0,1.864053845E0
5.189947723E0,-3.037525117E-1,5.565512657E0,1.657581568E0
5.194702879E0,-7.930551767E-1,5.714563847E0,1.501200199E0
5.199458035E0,-1.086881161E0,5.489765644E0,1.452941895E0
5.204213243E0,-1.197447658E0,4.984580040E0,1.485317707E0
5.208968400E0,-1.172402263E0,4.294913769E0,1.547015071E0
5.213723556E0,-1.074053049E0,3.492237568E0,1.597716808E0
5.218478764E0,-9.451605082E-1,2.626031399E0,1.607490659E0
5.223233920E0,-8.150463104E-1,1.751883864E0,1.558621526E0
5.227989129E0,-7.002037764E-1,9.479857683E-1,1.440724611E0
5.232744285E0,-6.085740328E-1,3.108538091E-1,1.257465124E0
5.237499441E0,-5.456549525E-1,-1.051450968E-1,1.025336504E0
5.242254650E0,-5.181660652E-1,-2.810741663E-1,7.644972801E-1
5.247009806E0,-5.273290277E-1,-2.236528695E-1,4.902189970E-1
5.251764962E0,-5.621483326E-1,4.696023092E-2,2.189950198E-1
5.256520170E0,-6.061306000E-1,4.763981700E-1,-2.107483521E-2
5.261275327E0,-6.415607333E-1,9.718095064E-1,-2.049451321E-1
5.266030483E0,-6.476693749E-1,1.405523539E0,-3.271180987E-1
5.270785691E0,-6.159043908E-1,1.676747441E0,-3.967566788E-1
5.275540848E0,-5.725330114E-1,1.795866132E0,-4.272999167E-1
5.280296056E0,-5.847502947E-1,1.795866132E0,-4.272999167E-1
5.285051212E0,-7.093667388E-1,1.697516918E0,-4.046979249E-1
5.289806368E0,-9.140064120E-1,1.509370565E0,-3.723220825E-1
5.294561577E0,-1.083215952E0,1.220431447E0,-3.362810612E-1
5.299316733E0,-1.129030824E0,8.759037256E-1,-2.990183234E-1
5.304071889E0,-1.068555236E0,5.759691000E-1,-2.580903769E-1
5.308827098E0,-9.671516418E-1,3.578903973E-1,-2.110537887E-1
5.313582254E0,-8.822414875E-1,2.100611329E-1,-1.676823795E-1
5.318337410E0,-8.400917649E-1,1.031597927E-1,-1.426369250E-1
5.323092618E0,-8.437569737E-1,5.345066893E-4,-1.572976857E-1
5.327847775E0,-8.797979951E-1,-1.014799103E-1,-2.196058929E-1
5.332602983E0,-9.274454713E-1,-1.839466542E-1,-3.203985691E-1
5.337358139E0,-9.781472087E-1,-2.218202800E-1,-4.401280880E-1
5.342113295E0,-1.023351192E0,-2.059377879E-1,-5.708531141E-1
5.346868504E0,-1.052672744E0,-1.558468789E-1,-7.095194459E-1
5.351623660E0,-1.045342326E0,-1.106428802E-1,-8.604030609E-1
5.356378816E0,-9.903645515E-1,-1.063668281E-1,-1.030834317E0
5.361134025E0,-9.127846956E-1,-1.705076247E-1,-1.233030558E0
5.365889181E0,-8.419243693E-1,-2.865719497E-1,-1.471267819E0
5.370644389E0,-8.083268404E-1,-4.392881393E-1,-1.726609349E0
5.375399545E0,-8.132137656E-1,-6.231584549E-1,-1.988670230E0
5.380154702E0,-8.205441236E-1,-8.546761870E-1,-2.234237909E0
5.384909910E0,-7.814487815E-1,-1.153999925E0,-2.439488411E0
5.389665066E0,-6.751583219E-1,-1.514410138E0,-2.601978540E0
5.394420275E0,-5.108356476E-1,-1.899254918E0,-2.743088245E0
5.399175431E0,-3.287979662E-1,-2.252945662E0,-2.890306711E0
5.403930587E0,-1.626427472E-1,-2.513784885E0,-3.052185774E0
5.408685795E0,-3.741546720E-2,-2.650007725E0,-3.214675903E0
5.413440952E0,3.161225095E-2,-2.659170628E0,-3.362505198E0
5.418196108E0,2.855792828E-2,-2.535776138E0,-3.490175962E0
5.422951316E0,-5.268708616E-2,-2.287765026E0,-3.605629444E0
5.427706473E0,-2.011272311E-1,-1.938961148E0,-3.714974165E0
5.432461681E0,-3.935496211E-1,-1.507690668E0,-3.826151609E0
5.437216837E0,-6.042979956E-1,-1.018387914E0,-3.954433203E0
5.441971993E0,-7.881683111E-1,-5.309178233E-1,-4.113257885E0
5.446727202E0,-9.237802625E-1,-6.482802331E-2,-4.295295715E0
5.451482358E0,-1.017853379E0,4.006509483E-1,-4.493216038E0
5.456237566E0,-1.077107310E0,8.881210089E-1,-4.706407547E0
5.460992723E0,-1.092989802E0,1.412853837E0,-4.889667034E0
5.465747879E0,-1.065500855E0,1.986455917E0,-5.006342411E0
5.470503087E0,-9.903645515E-1,2.611370564E0,-5.063763618E0
5.475258243E0,-8.706350327E-1,3.241172075E0,-5.090030670E0
5.480013452E0,-7.044798136E-1,3.848982573E0,-5.093696117E0
5.484768608E0,-5.242747068E-1,4.447629929E0,-5.076591969E0
5.489523816E0,-3.294088244E-1,5.002295494E0,-5.002676964E0
5.494278973E0,-1.253799945E-1,5.436009407E0,-4.848739147E0
5.499034129E0,7.254019380E-2,5.723726749E0,-4.627605915E0
5.503789337E0,1.110246703E-1,5.686463833E0,-4.308734894E0
5.508544493E0,-1.779143661E-1,5.062770844E0,-3.872577190E0
5.513299702E0,-5.456549525E-1,4.038350582E0,-3.406487465E0
5.518054858E0,-6.543889046E-1,3.013930559E0,-3.015533924E0
5.522810014E0,-4.302015305E-1,2.241797447E0,-2.710101604E0
5.527565223E0,-6.872228812E-3,1.703625560E0,-2.437045097E0
5.532320379E0,4.757109582E-1,1.277241945E0,-2.158490658E0
5.537075587E0,9.320269227E-1,8.795689344E-1,-1.877492905E0
5.541830743E0,1.316871762E0,4.525744319E-1,-1.606879830E0
5.546585900E0,1.599702120E0,-1.718057133E-2,-1.354592681E0
5.551341108E0,1.767689943E0,-4.973202944E-1,-1.127961874E0
5.556096264E0,1.828776479E0,-9.560797215E-1,-9.300416112E-1
5.560851473E0,1.803120136E0,-1.354363561E0,-7.602212429E-1
5.565606629E0,1.716988206E0,-1.647578716E0,-6.068941355E-1
5.570361785E0,1.583819628E0,-1.786855817E0,-4.663952589E-1
5.575116993E0,1.421940446E0,-1.780136347E0,-3.436114490E-1
5.579872150E0,1.266780853E0,-1.685452342E0,-2.489273995E-1
5.584627358E0,1.133612275E0,-1.545564294E0,-1.860083193E-1
5.589382514E0,1.024267554E0,-1.375743866E0,-1.542433500E-1
5.594137723E0,9.338595271E-1,-1.185764909E0,-1.456912458E-1
5.598892879E0,8.672752976E-1,-1.003727198E0,-1.524107605E-1
5.603648035E0,8.281798959E-1,-8.467349410E-1,-1.701258421E-1
5.608403243E0,8.135191798E-1,-7.221185565E-1,-1.951712966E-1
5.613158400E0,8.141300082E-1,-6.408734918E-1,-2.385426909E-1
5.617913608E0,8.214604259E-1,-5.913934708E-1,-2.971857190E-1
5.622668764E0,8.300125003E-1,-5.565741658E-1,-3.631591201E-1
5.627423973E0,8.403972387E-1,-5.254200697E-1,-4.321868420E-1
5.632179129E0,8.501710296E-1,-4.936550856E-1,-4.981602132E-1
5.636934285E0,8.575014472E-1,-4.508945644E-1,-5.537489057E-1
5.641689493E0,8.636100888E-1,-3.788125217E-1,-5.891790986E-1
5.646444650E0,8.642209172E-1,-2.596938908E-1,-5.897899270E-1
5.651199858E0,8.587231636E-1,-8.804088831E-2,-5.482511520E-1
5.655955014E0,8.520036340E-1,1.086575761E-1,-4.767799675E-1
5.660710223E0,8.520036340E-1,2.906952798E-1,-3.894262910E-1
5.665465379E0,8.550579548E-1,4.354702234E-1,-3.032943606E-1
5.670220535E0,8.562797308E-1,5.350412130E-1,-2.281579971E-1
5.674975743E0,8.556688428E-1,5.924624801E-1,-1.676823795E-1
5.679730900E0,8.471167088E-1,6.187296510E-1,-1.133154184E-1
5.684486108E0,8.287907839E-1,6.168970466E-1,-5.589412898E-2
5.689241264E0,7.958040833E-1,5.973494053E-1,1.374445762E-2
5.693996473E0,7.457131743E-1,5.551997423E-1,1.017089859E-1
5.698751629E0,6.797397733E-1,4.812850952E-1,2.104429156E-1
5.703506837E0,6.082686186E-1,3.713294268E-1,3.362810612E-1
5.708261993E0,5.410735011E-1,2.357174456E-1,4.761691093E-1
5.713017150E0,4.867065251E-1,8.849903196E-2,6.172788739E-1
5.717772358E0,4.463894367E-1,-5.322159454E-2,7.577777505E-1
5.722527514E0,4.164570570E-1,-1.778380126E-1,9.025527239E-1
5.727282723E0,3.901898861E-1,-2.737437785E-1,1.049160242E0
5.732037879E0,3.681987524E-1,-3.299433291E-1,1.196378708E0
5.736793087E0,3.449858725E-1,-3.452149630E-1,1.341764450E0
5.741548243E0,3.138317764E-1,-3.305542171E-1,1.480430841E0
5.746303452E0,2.674060464E-1,-3.024544120E-1,1.608101487E0
5.751058608E0,1.965457499E-1,-2.780198455E-1,1.716224551E0
5.755813764E0,8.597921580E-2,-2.609156072E-1,1.802967429E0
5.760568973E0,-7.773254067E-2,-2.193768173E-1,1.865886450E0
5.765324129E0,-2.921460867E-1,-1.179732606E-1,1.897040606E0
5.770079337E0,-5.603157282E-1,3.535379842E-2,1.898262262E0
5.774834493E0,-8.590285778E-1,1.899025887E-1,1.875049472E0
5.779589702E0,-1.129641652E0,2.888626754E-1,1.825569391E0
5.784344858E0,-1.304959893E0,2.961930633E-1,1.748600483E0
5.789100066E0,-1.337946534E0,1.850156635E-1,1.636201262E0
5.793855223E0,-1.191949844E0,-7.338013500E-2,1.486539483E0
5.798610431E0,-8.449786901E-1,-5.113701820E-1,1.299003959E0
5.803365587E0,-3.245218992E-1,-1.219973326E0,1.085812092E0
5.808120795E0,2.924515009E-1,-2.307312727E0,8.854485154E-1
5.812875952E0,8.972076178E-1,-3.723907948E0,7.357866168E-1
5.817631108E0,1.421940446E0,-5.117901325E0,6.801979542E-1
5.822386316E0,1.862373948E0,-5.940736294E0,8.066469431E-1
5.827141473E0,2.149480343E0,-5.844219685E0,1.159726739E0
5.831896681E0,2.214232206E0,-4.962131023E0,1.721722364E0
5.836651837E0,2.140928268E0,-3.818592072E0,2.409556150E0
5.841407045E0,2.027918339E0,-2.758741617E0,2.995375395E0
5.846162202E0,1.883754253E0,-1.831448913E0,3.291644812E0
5.850917410E0,1.724929452E0,-9.316451550E-1,3.299586058E0
5.855672566E0,1.560606837E0,3.107774630E-2,3.084561586E0
5.860427775E0,1.415220976E0,1.018235207E0,2.719264507E0
5.865182931E0,1.268002510E0,1.914984703E0,2.273944139E0
5.869938139E0,1.118951559E0,2.652298450E0,1.810297728E0
5.874693295E0,9.692896605E-1,3.250946045E0,1.399185777E0
5.879448504E0,8.617774844E-1,3.783009291E0,1.055268884E0
5.884203660E0,8.165735006E-1,4.328511238E0,7.779362798E-1
5.888958868E0,8.239038587E-1,4.862407207E0,5.439751148E-1
5.893714025E0,7.841976881E-1,5.153789997E0,3.094030023E-1
5.898469233E0,6.418661475E-1,5.099422932E0,-2.596175298E-2
5.903224389E0,4.079049528E-1,4.877068043E0,-4.981602132E-1
5.907979598E0,9.147699922E-2,4.666319847E0,-1.035110354E0
5.912734754E0,-2.970330119E-1,4.487946987E0,-1.549458504E0
5.917489910E0,-6.953168511E-1,4.242990494E0,-2.002720118E0
5.922245118E0,-1.012355685E0,3.878304243E0,-2.383288860E0
5.927000275E0,-1.117424369E0,3.451920509E0,-2.673449755E0
5.931755483E0,-8.785762787E-1,3.057301760E0,-2.873202562E0
5.936510639E0,-4.002691507E-1,2.695669889E0,-2.986212492E0
5.941265848E0,-1.420260593E-2,2.338924885E0,-2.994764566E0
5.946021004E0,-7.483093534E-3,1.861228585E0,-2.869537354E0
5.950776212E0,-2.328922004E-1,1.169118881E0,-2.628856659E0
5.955531368E0,-4.320341051E-1,2.180023640E-1,-2.350913048E0
5.960286577E0,-5.218312144E-1,-9.304234385E-1,-2.101680279E0
5.965041733E0,-5.511527658E-1,-2.100840330E0,-1.876271129E0
5.969796941E0,-5.871937871E-1,-3.136256218E0,-1.671020627E0
5.974552098E0,-6.354520917E-1,-3.928547859E0,-1.499367595E0
5.979307306E0,-7.014254928E-1,-4.420293808E0,-1.380859852E0
5.984062462E0,-7.967203856E-1,-4.631042480E0,-1.309999466E0
5.988817670E0,-9.170607328E-1,-4.614548683E0,-1.259908557E0
5.993572827E0,-1.047174931E0,-4.444728374E0,-1.222645879E0
5.998328035E0,-1.178510904E0,-4.175948143E0,-1.197600365E0
6.003083191E0,-1.310457706E0,-3.853411436E0,-1.168278933E0
6.007838400E0,-1.454010844E0,-3.520490170E0,-1.129183531E0
6.012593556E0,-1.613446593E0,-3.171686411E0,-1.060766697E0
6.017348764E0,-1.778380036E0,-2.803334713E0,-9.605848789E-1
6.022103920E0,-1.929263711E0,-2.416657448E0,-8.170316219E-1
6.026859129E0,-2.053269148E0,-2.006156206E0,-6.301070452E-1
6.031614285E0,-2.149174929E0,-1.575496674E0,-4.034761786E-1
6.036369493E0,-2.217591763E0,-1.144226074E0,-1.432477981E-1
6.041124650E0,-2.264017582E0,-7.422770858E-1,1.426369250E-1
6.045879858E0,-2.295782566E0,-3.818668425E-1,4.450149834E-1
6.050635014E0,-2.316551924E0,-5.749764666E-2,7.425061464E-1
6.055390223E0,-2.327547550E0,2.564868629E-1,1.005788803E0
6.060145379E0,-2.326936722E0,5.790234804E-1,1.214093804E0
6.064900587E0,-2.311665058E0,8.923971057E-1,1.363755584E0
6.069655743E0,-2.289062977E0,1.170951366E0,1.455996156E0
6.074410952E0,-2.257909060E0,1.395138741E0,1.500589371E0
6.079166108E0,-2.212704897E0,1.542968035E0,1.510974050E0
6.083921316E0,-2.137568474E0,1.593058944E0,1.502421975E0
6.088676525E0,-2.023947716E0,1.524642110E0,1.493258953E0
6.093431681E0,-1.884059668E0,1.340160966E0,1.492037177E0
6.098186889E0,-1.721569657E0,1.060384870E0,1.493258953E0
6.102942045E0,-1.534645081E0,6.908116937E-1,1.500589371E0
6.107697254E0,-1.325729251E0,2.375500351E-1,1.512806654E0
6.112452410E0,-1.099098444E0,-2.987892330E-1,1.532354355E0
6.117207618E0,-8.578068614E-1,-8.882737756E-1,1.554345489E0
6.121962775E0,-6.036871076E-1,-1.481423497E0,1.576947451E0
6.126717983E0,-3.434587121E-1,-2.015930176E0,1.603825450E0
6.131473139E0,-7.528908551E-2,-2.453309298E0,1.641088247E0
6.136228348E0,2.032652497E-1,-2.764850378E0,1.692400813E0
6.140983504E0,4.909825623E-1,-2.962770462E0,1.755930781E0
6.145738712E0,7.829759121E-1,-3.072726250E0,1.820071578E0
6.150493868E0,1.072525859E0,-3.113043308E0,1.870773435E0
6.155249077E0,1.352301955E0,-3.078834772E0,1.885434151E0
6.160004233E0,1.611919403E0,-2.977431297E0,1.860999584E0
6.164759441E0,1.851989269E0,-2.798447847E0,1.811519504E0
6.169514598E0,2.063348532E0,-2.549215078E0,1.746156931E0
6.174269806E0,2.225838423E0,-2.266384602E0,1.669188023E0
6.179024962E0,2.326631308E0,-1.991495490E0,1.583056092E0
6.183780170E0,2.361450434E0,-1.750814795E0,1.498145819E0
6.188535379E0,2.336405039E0,-1.546175122E0,1.419955134E0
6.193290535E0,2.260657787E0,-1.368413448E0,1.360090375E0
6.198045743E0,2.153145552E0,-1.191873550E0,1.330768943E0
6.202800900E0,2.026085854E0,-9.951750636E-1,1.324049354E0
6.207556108E0,1.885586858E0,-8.051961660E-1,1.341153622E0
6.212311264E0,1.740811944E0,-6.310997009E-1,1.380859852E0
6.217066473E0,1.596647859E0,-4.686096311E-1,1.436448574E0
6.221821629E0,1.459814072E0,-3.244455457E-1,1.498756766E0
6.226576837E0,1.341917157E0,-1.967748106E-1,1.562286615E0
6.231331993E0,1.241735339E0,-7.521272451E-2,1.623373151E0
6.236087202E0,1.167820692E0,4.390590638E-2,1.680183530E0
6.240842410E0,1.126892805E0,1.642462611E-1,1.727220178E0
6.245597566E0,1.123227596E0,2.772562504E-1,1.760817766E0
6.250352775E0,1.137277484E0,3.951531649E-1,1.787695765E0
6.255107931E0,1.158657789E0,5.264890790E-1,1.815795541E0
6.259863139E0,1.189811826E0,6.621010900E-1,1.845117092E0
6.264618295E0,1.230739832E0,7.909935117E-1,1.872606039E0
6.269373504E0,1.282663345E0,9.095013142E-1,1.894597173E0
6.274128660E0,1.337641120E0,1.012126565E0,1.912312150E0
6.278883868E0,1.396284223E0,1.097647667E0,1.923307776E0
6.283639025E0,1.446985960E0,1.162399292E0,1.929416418E0
6.288394233E0,1.490968227E0,1.206381559E0,1.923307776E0
6.293149441E0,1.536172152E0,1.226540089E0,1.916588187E0
6.297904598E0,1.596036911E0,1.231427073E0,1.911090493E0
6.302659806E0,1.663232088E0,1.230816126E0,1.906203508E0
6.307414962E0,1.721875072E0,1.224707484E0,1.900094867E0
6.312170170E0,1.764635682E0,1.206381559E0,1.893375397E0
6.316925327E0,1.790291905E0,1.177060127E0,1.884212375E0
6.321680535E0,1.803730965E0,1.181946993E0,1.873216867E0
6.326435743E0,1.478750944E0,1.167897105E0,1.843284488E0
6.331190900E0,1.385135949E-1,7.476221323E-1,1.738826632E0
6.335946108E0,-1.021518588E0,4.605156779E-1,1.598938584E0
6.340701264E0,-1.223714828E0,6.217839718E-1,1.507919669E0
6.345456473E0,-9.152281284E-1,9.278272390E-1,1.511584878E0
6.350211629E0,-5.316050649E-1,1.176449180E0,1.570227861E0
6.354966837E0,-2.292270064E-1,1.328554511E0,1.616653681E0
6.359722045E0,-4.718930274E-2,1.370704174E0,1.638644814E0
6.364477202E0,-6.261364091E-3,1.263802886E0,1.634368658E0
6.369232410E0,-8.384118974E-2,1.011515737E0,1.605658054E0
6.373987566E0,-2.451094985E-1,6.559923887E-1,1.558010578E0
6.378742775E0,-4.479165971E-1,2.796997130E-1,1.493258953E0
6.383497931E0,-6.519454122E-1,-3.428478539E-2,1.410181284E0
6.388253139E0,-8.358157277E-1,-2.126573026E-1,1.307556033E0
6.393008348E0,-9.952514172E-1,-2.370918989E-1,1.194546103E0
6.397763504E0,-1.130252600E0,-1.185841262E-1,1.075427413E0
6.402518712E0,-1.232267022E0,1.208748668E-1,9.605848789E-1
6.407273868E0,-1.278692722E0,4.428006113E-1,8.542944193E-1
6.412029077E0,-1.235932112E0,7.751110196E-1,7.644972801E-1
6.416784233E0,-1.088713765E0,1.040837169E0,6.966912746E-1
6.421539441E0,-8.504765034E-1,1.200272918E0,6.453786492E-1
6.426294650E0,-5.584831238E-1,1.258915901E0,6.068941355E-1
6.431049806E0,-2.622137070E-1,1.229594469E0,5.610793233E-1
6.435805014E0,-1.603520103E-2,1.133077860E0,4.963276386E-1
6.440560170E0,1.360701323E-1,1.001741886E0,4.114174247E-1
6.445315379E0,1.488982886E-1,8.765146136E-1,3.081812859E-1
6.450070587E0,-5.940660089E-2,7.671698332E-1,1.744018942E-1
6.454825743E0,-4.857902229E-1,6.627119184E-1,3.359756200E-3
6.459580952E0,-9.604321718E-1,5.460367799E-1,-1.756236255E-1
6.464336108E0,-1.265864491E0,4.171442986E-1,-3.289506733E-1
6.469091316E0,-1.334281445E0,3.181841969E-1,-4.291325212E-1
6.473846473E0,-1.242040753E0,2.754236460E-1,-4.822777510E-1
6.478601681E0,-1.080161691E0,2.668715417E-1,-5.128209591E-1
6.483356889E0,-9.213368297E-1,2.473238707E-1,-5.513054729E-1
6.488112045E0,-8.168789148E-1,1.941786408E-1,-6.233875155E-1
6.492867254E0,-7.936660647E-1,1.184314117E-1,-7.394518256E-1
6.497622462E0,-8.462004066E-1,3.657552972E-2,-9.037744403E-1
6.502377618E0,-9.078977704E-1,-5.077813566E-2,-1.107803226E0
6.507132827E0,-9.140064120E-1,-1.705076247E-1,-1.331990600E0
6.511887983E0,-8.724676371E-1,-3.311650753E-1,-1.562286615E0
6.516643191E0,-8.187115192E-1,-5.217548609E-1,-1.785863161E0
6.521398348E0,-7.948877811E-1,-7.318923473E-1,-2.004552841E0
6.526153556E0,-8.156571984E-1,-9.499710798E-1,-2.217744589E0
6.530908764E0,-8.400917649E-1,-1.174158454E0,-2.407112598E0
6.535663920E0,-8.107702732E-1,-1.405065298E0,-2.551276684E0
6.540419129E0,-7.087558508E-1,-1.642080903E0,-2.643517256E0
6.545174285E0,-5.474875569E-1,-1.858937860E0,-2.711934090E0
6.549929493E0,-3.691150546E-1,-2.023871422E0,-2.785238028E0
6.554684702E0,-2.109010667E-1,-2.112446785E0,-2.873813391E0
6.559439858E0,-9.239330143E-2,-2.118555307E0,-2.970940828E0
6.564195066E0,-2.947422490E-2,-2.045251608E0,-3.065624952E0
6.568950223E0,-3.497200832E-2,-1.883372426E0,-3.139539480E0
6.573705431E0,-1.113301069E-1,-1.623754978E0,-3.198793411E0
6.578460639E0,-2.432768941E-1,-1.278005481E0,-3.256825686E0
6.583215795E0,-4.051560760E-1,-8.730021119E-1,-3.324631453E0
6.587971004E0,-5.700895786E-1,-4.429533184E-1,-3.417483091E0
6.592726212E0,-7.276926637E-1,-8.628465235E-3,-3.545764685E0
6.597481368E0,-8.626937866E-1,4.134790897E-1,-3.718028545E0
6.602236577E0,-9.598212838E-1,8.080977201E-1,-3.929387808E0
6.606991785E0,-1.023351192E0,1.185612202E0,-4.157851219E0
6.611746941E0,-1.061224818E0,1.566791773E0,-4.366156101E0
6.616502150E0,-1.072831273E0,1.969351649E0,-4.534143925E0
6.621257306E0,-1.028849006E0,2.439106703E0,-4.677086353E0
6.626012514E0,-9.396627545E-1,2.951622248E0,-4.807811260E0
6.630767723E0,-8.046616316E-1,3.500789642E0,-4.901884556E0
6.635522879E0,-6.226239204E-1,4.064618111E0,-4.934260368E0
6.640278087E0,-4.082103968E-1,4.600346088E0,-4.864010811E0
6.645033295E0,-1.711948514E-1,5.056662083E0,-4.686249256E0
6.649788452E0,1.328630932E-2,5.320555687E0,-4.405862331E0
6.654543660E0,-8.445205539E-2,5.063381672E0,-4.005135059E0
6.659298816E0,-4.381427765E-1,4.287583351E0,-3.536601543E0
6.664054025E0,-7.386882305E-1,3.362734318E0,-3.115104914E0
6.668809233E0,-7.515164018E-1,2.648633242E0,-2.807839870E0
6.673564389E0,-4.857902229E-1,2.224693060E0,-2.583041668E0
6.678319598E0,-7.712167501E-2,1.987677693E0,-2.375958443E0
6.683074806E0,3.633118272E-1,1.813581228E0,-2.172540665E0
6.687829962E0,7.609847784E-1,1.604054570E0,-1.955072761E0
6.692585170E0,1.085353971E0,1.307785153E0,-1.721722364E0
6.697340327E0,1.304043531E0,9.082795978E-1,-1.490204573E0
6.702095535E0,1.418275356E0,4.318050444E-1,-1.268460751E0
6.706850743E0,1.454316378E0,-6.055197120E-2,-1.060766697E0
6.711605900E0,1.445764184E0,-5.144245028E-1,-8.701768517E-1
6.716361108E0,1.410334110E0,-8.888846040E-1,-6.948586702E-1
6.721116316E0,1.357799649E0,-1.124067545E0,-5.366446972E-1
6.725871473E0,1.296713233E0,-1.235855818E0,-3.992001414E-1
6.730626681E0,1.237459302E0,-1.256625175E0,-2.941313982E-1
6.735381889E0,1.169653296E0,-1.213253856E0,-2.269362658E-1
6.740137045E0,1.097571254E0,-1.124678373E0,-1.970038861E-1
6.744892254E0,1.026100159E0,-1.021442294E0,-1.970038861E-1
6.749647410E0,9.723440409E-1,-9.310342669E-1,-2.159406990E-1
6.754402618E0,9.399681687E-1,-8.565087914E-1,-2.428187430E-1
6.759157827E0,9.191987514E-1,-8.003092408E-1,-2.788597643E-1
6.763912983E0,9.088140726E-1,-7.691551447E-1,-3.210094273E-1
6.768668191E0,9.002619982E-1,-7.715985775E-1,-3.674351573E-1
6.773423400E0,8.904881477E-1,-8.021417856E-1,-4.144717455E-1
6.778178556E0,8.752164841E-1,-8.436806202E-1,-4.590648711E-1
6.782933764E0,8.575014472E-1,-8.852193952E-1,-4.981602132E-1
6.787688973E0,8.403972387E-1,-9.120974541E-1,-5.305360556E-1
6.792444129E0,8.208495378E-1,-9.041562080E-1,-5.506945848E-1
6.797199337E0,7.988584042E-1,-8.235220909E-1,-5.415316224E-1
6.801954545E0,7.713695168E-1,-6.634755135E-1,-5.067123175E-1
6.806709702E0,7.402154207E-1,-4.686096311E-1,-4.584540129E-1
6.811464910E0,7.090612650E-1,-2.896262705E-1,-4.053087831E-1
6.816220118E0,6.779071689E-1,-1.417969912E-1,-3.497200906E-1
6.820975275E0,6.491965652E-1,-1.534797717E-2,-2.904661894E-1
6.825730483E0,6.241511106E-1,1.086575761E-1,-2.214384824E-1
6.830485639E0,6.027708054E-1,2.326631248E-1,-1.426369250E-1
6.835240848E0,5.789470673E-1,3.310123384E-1,-5.222893879E-2
6.839996056E0,5.532907844E-1,3.908770978E-1,4.917461425E-2
6.844751264E0,5.312996507E-1,4.195877314E-1,1.646280587E-1
6.849506420E0,5.135845542E-1,4.165334105E-1,2.953531146E-1
6.854261629E0,4.958694875E-1,3.743837476E-1,4.315759540E-1
6.859016785E0,4.854847789E-1,3.023017049E-1,5.690205693E-1
6.863771993E0,4.744892120E-1,2.015090138E-1,7.009673119E-1
6.868527202E0,4.622719288E-1,8.177952468E-2,8.280271888E-1
6.873282358E0,4.415025115E-1,-4.405862093E-2,9.465349913E-1
6.878037566E0,4.127918780E-1,-1.619555205E-1,1.058934093E0
6.882792775E0,3.669770062E-1,-2.584721744E-1,1.177441835E0
6.887547931E0,3.052796721E-1,-3.293324709E-1,1.302058220E0
6.892303139E0,2.215912044E-1,-3.824777007E-1,1.419344306E0
6.897058348E0,1.183550507E-1,-4.331794977E-1,1.513417482E0
6.901813504E0,-5.039634649E-3,-4.808269441E-1,1.581223488E0
6.906568712E0,-1.467602700E-1,-5.040398240E-1,1.622762322E0
6.911323920E0,-2.970330119E-1,-4.875464439E-1,1.631314397E0
6.916079077E0,-4.399753511E-1,-4.515054226E-1,1.608712435E0
6.920834285E0,-5.700895786E-1,-4.313468933E-1,1.558010578E0
6.925589493E0,-6.940951347E-1,-4.698313773E-1,1.476765633E0
6.930344702E0,-7.997747064E-1,-6.188823581E-1,1.370475173E0
6.935099858E0,-8.413135409E-1,-8.943824172E-1,1.223256707E0
6.939855066E0,-7.631227970E-1,-1.271286011E0,1.026558280E0
6.944610223E0,-5.401571989E-1,-1.731267095E0,7.864884138E-1
6.949365431E0,-1.882990748E-1,-2.270049810E0,5.042688847E-1
6.954120639E0,2.368628234E-1,-2.898018837E0,2.214384824E-1
6.958875795E0,6.614138484E-1,-3.529653072E0,-3.756818548E-2
6.963631004E0,1.067028046E0,-3.788048744E0,-2.018908113E-1
6.968386212E0,1.398116708E0,-3.384267330E0,-1.676823795E-1
6.973141420E0,1.581376195E0,-2.686048746E0,1.120936871E-1
6.977896577E0,1.623525858E0,-1.958508849E0,6.233875155E-1
6.982651785E0,1.537393928E0,-1.273729444E0,1.273958445E0
6.987406993E0,1.379179955E0,-6.750819683E-1,1.881768942E0
6.992162150E0,1.218522549E0,-1.069776937E-1,2.261726856E0
6.996917358E0,1.071915030E0,5.154935122E-1,2.369849920E0
7.001672566E0,9.570723772E-1,1.194164276E0,2.255618095E0
7.006427723E0,8.727730513E-1,1.860006928E0,1.981950760E0
7.011182931E0,8.061888218E-1,2.443993568E0,1.622151375E0
7.015938139E0,7.548761368E-1,2.925354958E0,1.240360975E0
7.020693295E0,7.225003242E-1,3.306534767E0,8.756746650E-1
7.025448504E0,7.341067195E-1,3.595473766E0,5.549706817E-1
7.030203712E0,8.147408962E-1,3.812330723E0,2.721402645E-1
7.034958920E0,9.796743989E-1,3.971155643E0,1.679878123E-2
7.039714077E0,1.149494767E0,4.032853127E0,-2.281579971E-1
7.044469285E0,1.186146736E0,4.032241821E0,-4.865537882E-1
7.049224493E0,9.906699657E-1,4.127536774E0,-7.858775258E-1
7.053979650E0,5.563451052E-1,4.373715401E0,-1.131626964E0
7.058734858E0,2.916879393E-2,4.528264046E0,-1.508530617E0
7.063490066E0,-4.112647176E-1,4.251542568E0,-1.878714681E0
7.068245223E0,-6.537780166E-1,3.407938242E0,-2.207970858E0
7.073000431E0,-6.971494555E-1,2.144058943E0,-2.451705694E0
7.077755639E0,-5.316050649E-1,6.706531644E-1,-2.552498579E0
7.082510795E0,-9.178243577E-2,-7.544943690E-1,-2.481638193E0
7.087266004E0,4.928151667E-1,-1.950567603E0,-2.274554968E0
7.092021212E0,9.509637356E-1,-2.772791624E0,-2.030819893E0
7.096776368E0,8.556688428E-1,-3.158858061E0,-1.791971803E0
7.101531577E0,5.703949928E-1,-2.962159634E0,-1.554345489E0
7.106286785E0,3.651444316E-1,-2.404440165E0,-1.334434152E0
7.111041993E0,1.110246703E-1,-1.909639716E0,-1.116355419E0
7.115797150E0,-1.492037177E-1,-1.766086459E0,-8.952223063E-1
7.120552358E0,-3.440696001E-1,-1.887648582E0,-7.009673119E-1
7.125307566E0,-4.809032977E-1,-2.042808294E0,-5.610793233E-1
7.130062723E0,-6.030762792E-1,-2.097785950E0,-4.969384968E-1
7.134817931E0,-7.350230217E-1,-2.031201839E0,-4.841103256E-1
7.139573139E0,-8.749110699E-1,-1.867489934E0,-4.975493550E-1
7.144328348E0,-9.995275140E-1,-1.634139657E0,-5.219839811E-1
7.149083504E0,-1.114980936E0,-1.347033143E0,-5.378664136E-1
7.153838712E0,-1.220049739E0,-1.018387914E0,-5.403099060E-1
7.158593920E0,-1.311679363E0,-6.750819683E-1,-5.280926228E-1
7.163349077E0,-1.395978689E0,-3.372737169E-1,-4.914407134E-1
7.168104285E0,-1.469282508E0,-1.107192412E-2,-4.266890585E-1
7.172859493E0,-1.529758096E0,2.900844216E-1,-3.203985691E-1
7.177614650E0,-1.571907759E0,5.631409883E-1,-1.725693047E-1
7.182369858E0,-1.598174930E0,8.099303246E-1,-5.192350596E-3
7.187125066E0,-1.612224817E0,1.032896042E0,1.646280587E-1
7.191880223E0,-1.624442220E0,1.225318432E0,3.222311735E-1
7.196635431E0,-1.642768145E0,1.378034592E0,4.621191919E-1
7.201390639E0,-1.669035316E0,1.487379432E0,5.849030018E-1
7.206145848E0,-1.697135091E0,1.549687624E0,6.893609166E-1
7.210901004E0,-1.730732679E0,1.562515736E0,7.791580558E-1
7.215656212E0,-1.768606305E0,1.518533468E0,8.567378521E-1
7.220411420E0,-1.808923364E0,1.414075613E0,9.221003652E-1
7.225166577E0,-1.846796989E0,1.261359453E0,9.752455950E-1
7.229921785E0,-1.875507593E0,1.062217474E0,1.036942959E0
7.234676993E0,-1.894444346E0,8.300888538E-1,1.121242285E0
7.239432202E0,-1.895666122E0,5.997928381E-1,1.232419729E0
7.244187358E0,-1.874285817E0,3.786598146E-1,1.373529434E0
7.248942566E0,-1.837633967E0,1.434768587E-1,1.542739034E0
7.253697775E0,-1.786321282E0,-1.369100660E-1,1.732717991E0
7.258452983E0,-1.725845695E0,-4.783834815E-1,1.928805590E0
7.263208139E0,-1.653763652E0,-8.797216415E-1,2.109010696E0
7.267963348E0,-1.562133908E0,-1.320765972E0,2.255618095E0
7.272718556E0,-1.436906695E0,-1.763643026E0,2.361297846E0
7.277473712E0,-1.266475439E0,-2.172922373E0,2.427271128E0
7.282228920E0,-1.052672744E0,-2.530278206E0,2.459646940E0
7.286984129E0,-8.064942360E-1,-2.835710764E0,2.465755701E0
7.291739285E0,-5.389354229E-1,-3.086165190E0,2.452316761E0
7.296494493E0,-2.640463114E-1,-3.287750483E0,2.421162605E0
7.301249702E0,9.621120058E-3,-3.457571030E0,2.372293472E0
7.306004910E0,2.759581506E-1,-3.606621981E0,2.313039541E0
7.310760066E0,5.245801210E-1,-3.739179611E0,2.240957499E0
7.315515275E0,7.548761368E-1,-3.861963511E0,2.162766695E0
7.320270483E0,9.705114365E-1,-3.963366985E0,2.084576130E0
7.325025691E0,1.167820692E0,-4.014679909E0,2.013715744E0
7.329780848E0,1.340695500E0,-4.008571148E0,1.955072761E0
7.334536056E0,1.487303019E0,-3.949928045E0,1.909868717E0
7.339291264E0,1.603978157E0,-3.846691847E0,1.877492905E0
7.344046420E0,1.683390617E0,-3.707414627E0,1.858556032E0
7.348801629E0,1.727372885E0,-3.526598692E0,1.854890943E0
7.353556837E0,1.737757564E0,-3.303022146E0,1.860388637E0
7.358312045E0,1.712712169E0,-3.048291683E0,1.873216867E0
7.363067202E0,1.655290842E0,-2.778900146E0,1.889099360E0
7.367822410E0,1.569769740E0,-2.511341572E0,1.910479546E0
7.372577618E0,1.459814072E0,-2.250502110E0,1.939801097E0
7.377332827E0,1.339473724E0,-2.000658512E0,1.979507327E0
7.382087983E0,1.219744205E0,-1.768529892E0,2.025933027E0
7.386843191E0,1.112842917E0,-1.542509913E0,2.074191332E0
7.391598400E0,1.026100159E0,-1.321987748E0,2.115730047E0
7.396353608E0,9.662353396E-1,-1.102687240E0,2.146273375E0
7.401108764E0,9.381355643E-1,-8.809433579E-1,2.159101486E0
7.405863973E0,9.387464523E-1,-6.524799466E-1,2.145051718E0
7.410619181E0,9.650136232E-1,-4.160752594E-1,2.107789040E0
7.415374389E0,1.010828495E0,-1.729510874E-1,2.049756765E0
7.420129545E0,1.069471478E0,7.628174126E-2,1.978896499E0
7.424884754E0,1.133001447E0,3.242928386E-1,1.900094867E0
7.429639962E0,1.197753072E0,5.619192123E-1,1.820682526E0
7.434395118E0,1.258839607E0,7.861065865E-1,1.747378707E0
7.439150327E0,1.314428329E0,9.974658489E-1,1.686292171E0
7.443905535E0,1.359632254E0,1.202716351E0,1.634368658E0
7.448660743E0,1.388953805E0,1.401247501E0,1.586721301E0
7.453415900E0,1.410334110E0,1.577787399E0,1.545793295E0
7.458171108E0,1.420107841E0,1.737833977E0,1.518915296E0
7.462926316E0,1.424994826E0,1.881998062E0,1.500589371E0
7.467681525E0,1.423162222E0,2.004781961E0,1.482263446E0
7.472436681E0,1.418886185E0,2.108017921E0,1.457828760E0
7.477191889E0,1.415831804E0,2.205145597E0,1.422398686E0
7.481947098E0,1.422551394E0,2.305327415E0,1.375972867E0
7.486702306E0,1.437212110E0,2.411006927E0,1.322216868E0
7.491457462E0,1.453094602E0,2.518519163E0,1.264795542E0
7.496212670E0,1.470198750E0,2.637637854E0,1.209817648E0
7.500967879E0,1.488524795E0,2.788521290E0,1.161559343E0
7.505723087E0,1.472031355E0,3.016984701E0,1.124296665E0
7.510478243E0,1.263726473E0,3.357236385E0,1.093753338E0
7.515233452E0,2.741255760E-1,3.663279772E0,1.024725676E0
7.519988660E0,-1.122922182E0,3.779954910E0,9.306524992E-1
7.524743868E0,-1.791819096E0,3.644342899E0,8.573487401E-1
7.529499025E0,-1.734397769E0,3.343797445E0,8.054252267E-1
7.534254233E0,-1.386815786E0,2.933296204E0,7.589994669E-1
7.539009441E0,-1.012355685E0,2.428111076E0,6.991347671E-1
7.543764650E0,-7.301361561E-1,1.869169831E0,6.325504780E-1
7.548519806E0,-5.670352578E-1,1.321224213E0,5.732966065E-1
7.553275014E0,-5.199986696E-1,8.276454210E-1,5.274817348E-1
7.558030223E0,-5.645917654E-1,4.140899479E-1,4.944950342E-1
7.562785431E0,-6.598866582E-1,1.031597927E-1,4.749473631E-1
7.567540587E0,-7.728966475E-1,-8.009964228E-2,4.657844007E-1
7.572295795E0,-8.773545623E-1,-1.295796931E-1,4.517345130E-1
7.577051004E0,-9.439387918E-1,-6.666062027E-2,4.254673123E-1
7.581806212E0,-9.598212838E-1,7.444914430E-2,3.851502538E-1
7.586561368E0,-9.176716208E-1,2.491564751E-1,3.417788446E-1
7.591316577E0,-8.223767281E-1,3.896553814E-1,3.008508980E-1
7.596071785E0,-6.806560755E-1,4.476875365E-1,2.660316229E-1
7.600826993E0,-5.016726851E-1,4.293615818E-1,2.458730787E-1
7.605582150E0,-3.068068326E-1,3.621664643E-1,2.342666388E-1
7.610337358E0,-1.363755614E-1,2.900844216E-1,2.165515572E-1
7.615092566E0,-8.872810751E-2,2.344957143E-1,1.627954692E-1
7.619847775E0,-2.805396616E-1,2.143371850E-1,4.550942779E-2
7.624602931E0,-6.983711720E-1,2.479347438E-1,-1.340848207E-1
7.629358139E0,-1.138804674E0,3.145190179E-1,-3.222311735E-1
7.634113348E0,-1.380707145E0,3.866010606E-1,-4.749473631E-1
7.638868556E0,-1.408806920E0,4.489092529E-1,-5.751292109E-1
7.643623712E0,-1.326340199E0,4.812850952E-1,-6.362156868E-1
7.648378920E0,-1.226158381E0,4.709003866E-1,-6.918043494E-1
7.653134129E0,-1.164461017E0,4.330267608E-1,-7.730493546E-1
7.657889337E0,-1.166904449E0,3.927097023E-1,-8.860593438E-1
7.662644493E0,-1.207832336E0,3.609447181E-1,-1.029612541E0
7.667399702E0,-1.226158381E0,3.016908467E-1,-1.191491723E0
7.672154910E0,-1.194393396E0,1.868482679E-1,-1.372307777E0
7.676910118E0,-1.136972070E0,2.367100911E-3,-1.572060466E0
7.681665275E0,-1.092378974E0,-2.432005405E-1,-1.781587124E0
7.686420483E0,-1.073442101E0,-5.345830321E-1,-1.991113782E0
7.691175691E0,-1.043509722E0,-8.687260747E-1,-2.181703568E0
7.695930900E0,-9.604321718E-1,-1.230358005E0,-2.335641384E0
7.700686056E0,-8.101593852E-1,-1.590768218E0,-2.452316761E0
7.705441264E0,-6.097957492E-1,-1.921856999E0,-2.543946266E0
7.710196473E0,-4.014908671E-1,-2.184528828E0,-2.627023935E0
7.714951681E0,-2.170097083E-1,-2.351905823E0,-2.720486403E0
7.719706889E0,-7.834340632E-2,-2.436205149E0,-2.827998400E0
7.724462045E0,4.123337101E-3,-2.449644089E0,-2.944673777E0
7.729217254E0,2.916879393E-2,-2.395277262E0,-3.057683706E0
7.733972462E0,-5.039634649E-3,-2.256610870E0,-3.150535107E0
7.738727670E0,-1.021671370E-1,-2.002490997E0,-3.228725910E0
7.743482827E0,-2.597702444E-1,-1.616424561E0,-3.312414169E0
7.748238035E0,-4.570795596E-1,-1.137506604E0,-3.423591614E0
7.752993243E0,-6.714931130E-1,-6.152172089E-1,-3.565923214E0
7.757748452E0,-8.730784655E-1,-1.198058575E-1,-3.760178089E0
7.762503660E0,-1.030681610E0,2.851974964E-1,-3.995361090E0
7.767258816E0,-1.136361241E0,6.199513674E-1,-4.238485336E0
7.772014025E0,-1.184008718E0,9.314924479E-1,-4.445568562E0
7.776769233E0,-1.177289128E0,1.283350587E0,-4.606836796E0
7.781524441E0,-1.135139465E0,1.779983640E0,-4.729620457E0
7.786279598E0,-1.028849006E0,2.411617756E0,-4.805978775E0
7.791034806E0,-8.510873318E-1,3.104949236E0,-4.841408730E0
7.795790014E0,-6.275108457E-1,3.806222200E0,-4.837743759E0
7.800545223E0,-3.685041666E-1,4.472675323E0,-4.763828754E0
7.805300431E0,-9.483675659E-2,5.071322918E0,-4.576293468E0
7.810055587E0,1.831067204E-1,5.548408508E0,-4.289186954E0
7.814810795E0,4.482220411E-1,5.870334148E0,-3.942215919E0
7.819566004E0,6.412553191E-1,5.959520340E0,-3.559203625E0
7.824321212E0,4.848739207E-1,5.382253170E0,-3.145648241E0
7.829076368E0,5.726857483E-2,4.151971340E0,-2.759581566E0
7.833831577E0,-2.335030586E-1,2.795851707E0,-2.456592798E0
7.838586785E0,-1.956294477E-1,1.760435939E0,-2.222020626E0
7.843341993E0,1.110246703E-1,1.097036839E0,-1.996611476E0
7.848097150E0,5.514581800E-1,6.511055231E-1,-1.743713498E0
7.852852358E0,1.018158913E0,2.876409590E-1,-1.476765633E0
7.857607566E0,1.422551394E0,-5.810851231E-2,-1.222645879E0
7.862362775E0,1.713322997E0,-4.215730429E-1,-1.000901937E0
7.867117983E0,1.865428329E0,-8.058069944E-1,-8.145881891E-1
7.871873139E0,1.881921649E0,-1.171104193E0,-6.637045741E-1
7.876628348E0,1.782350659E0,-1.442938924E0,-5.445859432E-1
7.881383556E0,1.616806388E0,-1.567555428E0,-4.523453712E-1
7.886138764E0,1.437212110E0,-1.573053122E0,-3.784307241E-1
7.890893973E0,1.283885002E0,-1.503414631E0,-3.234528899E-1
7.895649129E0,1.174540281E0,-1.390404582E0,-2.831358314E-1
7.900404337E0,1.102458239E0,-1.262122989E0,-2.519817352E-1
7.905159545E0,1.059086800E0,-1.136284828E0,-2.312123179E-1
7.909914754E0,1.040760875E0,-1.022663951E0,-2.244928032E-1
7.914669910E0,1.035874009E0,-9.255365133E-1,-2.318231910E-1
7.919425118E0,1.038928270E0,-8.406262994E-1,-2.513708472E-1
7.924180327E0,1.042593479E0,-7.722094655E-1,-2.831358314E-1
7.928935535E0,1.045036912E0,-7.202859521E-1,-3.265072107E-1
7.933690691E0,1.043204308E0,-6.836340427E-1,-3.753764033E-1
7.938445900E0,1.045036912E0,-6.604211926E-1,-4.297433794E-1
7.943201108E0,1.051145554E0,-6.341540217E-1,-4.871646762E-1
7.947956316E0,1.067638874E0,-5.926151872E-1,-5.458076596E-1
7.952711525E0,1.084132314E0,-5.211440325E-1,-5.940660238E-1
7.957466733E0,1.094516993E0,-4.087449014E-1,-6.185005903E-1
7.962221889E0,1.095738649E0,-2.517526448E-1,-6.142245531E-1
7.966977098E0,1.090851784E0,-6.666062027E-2,-5.897899270E-1
7.971732306E0,1.080467105E0,1.153770834E-1,-5.506945848E-1
7.976487514E0,1.063973784E0,2.772562504E-1,-5.091558099E-1
7.981242670E0,1.046869516E0,4.214203358E-1,-4.688387215E-1
7.985997879E0,1.029765248E0,5.497019291E-1,-4.254673123E-1
7.990753087E0,1.008995891E0,6.443859935E-1,-3.674351573E-1
7.995508295E0,9.723440409E-1,6.871465445E-1,-2.898553312E-1
8.000263504E0,9.088140726E-1,6.669879556E-1,-1.866191924E-1
8.005018660E0,8.251255751E-1,5.912407637E-1,-6.017018110E-2
8.009773868E0,7.396045327E-1,4.806742370E-1,8.155044913E-2
8.014529077E0,6.608029604E-1,3.523926139E-1,2.287688553E-1
8.019284285E0,5.966621637E-1,2.155589163E-1,3.741546869E-1
8.024039493E0,5.459604263E-1,8.239039034E-2,5.164861679E-1
8.028794650E0,5.099193454E-1,-4.100430012E-2,6.563742161E-1
8.033549858E0,4.805978537E-1,-1.509599537E-1,8.011491299E-1
8.038305066E0,4.561632872E-1,-2.419788092E-1,9.556979537E-1
8.043060275E0,4.347830117E-1,-3.085630834E-1,1.112079382E0
8.047815431E0,4.134027362E-1,-3.562105298E-1,1.262352109E0
8.052570639E0,3.853029609E-1,-3.867537677E-1,1.399185777E0
8.057325848E0,3.474293351E-1,-4.105774760E-1,1.514028311E0
8.062081056E0,2.912297845E-1,-4.362338185E-1,1.608712435E0
8.066836264E0,2.081521749E-1,-4.649444520E-1,1.686292171E0
8.071591420E0,9.269873053E-2,-4.826595485E-1,1.749822140E0
8.076346629E0,-5.513054505E-2,-4.789943397E-1,1.795637012E0
8.081101837E0,-2.273944169E-1,-4.405098557E-1,1.816406369E0
8.085857045E0,-4.283689260E-1,-3.635408878E-1,1.804800034E0
8.090612254E0,-6.690496206E-1,-2.603047490E-1,1.752265573E0
8.095367410E0,-9.359975457E-1,-1.466839015E-1,1.644142509E0
8.100122618E0,-1.162017584E0,-7.887791097E-2,1.470656991E0
8.104877827E0,-1.267086267E0,-1.497382224E-1,1.242804408E0
8.109633035E0,-1.170569658E0,-4.997637570E-1,1.000291109E0
8.114388243E0,-8.199332356E-1,-1.301218390E0,8.341358304E-1
8.119143400E0,-2.603811026E-1,-2.553491116E0,7.864884138E-1
8.123898608E0,3.914116025E-1,-3.979249477E0,8.292489648E-1
8.128653816E0,1.037706494E0,-5.144168854E0,9.569196701E-1
8.133409025E0,1.607643366E0,-5.667679787E0,1.200043917E0
8.138164233E0,1.985157847E0,-5.454487801E0,1.564730167E0
8.142919389E0,2.137874126E0,-4.691517830E0,2.016770124E0
8.147674598E0,2.123824120E0,-3.800877094E0,2.507294416E0
8.152429806E0,2.001651049E0,-2.996978998E0,2.897637129E0
8.157185014E0,1.797622323E0,-2.270660639E0,3.077842236E0
8.161940170E0,1.556330800E0,-1.566944480E0,3.058294535E0
8.166695379E0,1.306487083E0,-8.332959414E-1,2.867704630E0
8.171450587E0,1.077412724E0,-5.810851231E-2,2.536005020E0
8.176205795E0,8.746056557E-1,6.871465445E-1,2.112065077E0
8.180961004E0,7.029526234E-1,1.343826175E0,1.649029493E0
8.185716212E0,5.758927464E-1,1.909486890E0,1.179885268E0
8.190471368E0,5.074759126E-1,2.411617756E0,7.345649004E-1
8.195226577E0,5.099193454E-1,2.874042511E0,3.320049942E-1
8.199981785E0,5.789470673E-1,3.315697670E0,-2.596175298E-2
8.204736993E0,6.809614897E-1,3.721922636E0,-3.509418070E-1
8.209492202E0,7.298306823E-1,4.015137672E0,-6.960803866E-1
8.214247358E0,6.320923567E-1,4.202062607E0,-1.080925226E0
8.219002566E0,3.327685893E-1,4.426249981E0,-1.449887514E0
8.223757775E0,-1.614210159E-1,4.718243122E0,-1.773035049E0
8.228512983E0,-7.002037764E-1,4.812316418E0,-2.105956316E0
8.233268191E0,-1.100931048E0,4.489169121E0,-2.459646940E0
8.238023348E0,-1.279303551E0,3.914345264E0,-2.807229042E0
8.242778556E0,-1.155908823E0,3.352960348E0,-3.123656988E0
8.247533764E0,-7.741183639E-1,2.883205414E0,-3.357618332E0
8.252288973E0,-2.811505198E-1,2.468428135E0,-3.457189322E0
8.257044181E0,2.136499584E-1,2.117181063E0,-3.346011877E0
8.261799389E0,6.052142978E-1,1.796476960E0,-3.019199133E0
8.266554545E0,7.866411209E-1,1.279685378E0,-2.542113781E0
8.271309754E0,6.876810193E-1,4.666243196E-1,-2.008828878E0
8.276064962E0,4.421133697E-1,-3.635408878E-1,-1.536019444E0
8.280820170E0,1.910479665E-1,-1.105741620E0,-1.187215686E0
8.285575379E0,-1.420260593E-2,-1.739819288E0,-9.630283117E-1
8.290330535E0,-2.005163580E-1,-2.299371481E0,-8.396336436E-1
8.295085743E0,-3.721693754E-1,-2.763017654E0,-7.901535630E-1
8.299840952E0,-5.175551772E-1,-3.080667496E0,-7.779362798E-1
8.304596160E0,-6.397281289E-1,-3.250487804E0,-7.822123766E-1
8.309351368E0,-7.545707226E-1,-3.292637587E0,-7.822123766E-1
8.314106525E0,-8.859066367E-1,-3.227885962E0,-7.596103549E-1
8.318861733E0,-1.034346819E0,-3.077613115E0,-7.070759535E-1
8.323616941E0,-1.198058605E0,-2.858312607E0,-6.191114783E-1
8.328372150E0,-1.364213824E0,-2.572427988E0,-4.981602132E-1
8.333127358E0,-1.519984245E0,-2.259665251E0,-3.515526950E-1
8.337882514E0,-1.658039689E0,-1.946902394E0,-1.780670881E-1
8.342637723E0,-1.778380036E0,-1.646967769E0,2.107483521E-2
8.347392931E0,-1.881005406E0,-1.365359187E0,2.409861535E-1
8.352148139E0,-1.970191598E0,-1.110628486E0,4.657844007E-1
8.356903348E0,-2.049603939E0,-8.809433579E-1,6.826413870E-1
8.361658556E0,-2.121075153E0,-6.555342674E-1,8.726203442E-1
8.366413712E0,-2.181550741E0,-4.295142889E-1,1.022282243E0
8.371168920E0,-2.228587389E0,-2.053269297E-1,1.128572702E0
8.375924129E0,-2.259130716E0,1.458439697E-2,1.190270066E0
8.380679337E0,-2.273791313E0,2.241110206E-1,1.219591498E0
8.385434545E0,-2.271958828E0,4.201986194E-1,1.227532744E0
8.390189702E0,-2.254243851E0,5.912407637E-1,1.221424103E0
8.394944910E0,-2.220035315E0,7.244092822E-1,1.209817648E0
8.399700118E0,-2.170555353E0,8.123738170E-1,1.203098178E0
8.404455327E0,-2.099084139E0,8.514691591E-1,1.210428596E0
8.409210535E0,-1.996458769E0,8.380300999E-1,1.242804408E0
8.413965691E0,-1.864511967E0,7.292962074E-1,1.300225735E0
8.418720900E0,-1.704465508E0,4.770090282E-1,1.386357665E0
8.423476108E0,-1.494938850E0,7.994692773E-2,1.492648125E0
8.428231316E0,-1.237764716E0,-4.258491099E-1,1.596495152E0
8.432986525E0,-9.512691498E-1,-1.001894593E0,1.671631455E0
8.437741733E0,-6.519454122E-1,-1.587103009E0,1.716224551E0
8.442496889E0,-3.556760252E-1,-2.097785950E0,1.746767879E0
8.447252098E0,-6.368265301E-2,-2.477743864E0,1.789528370E0
8.452007306E0,2.124282271E-1,-2.749578714E0,1.853058338E0
8.456762514E0,4.702131748E-1,-2.956051111E0,1.931859851E0
8.461517723E0,7.139481902E-1,-3.107545376E0,2.014937401E0
8.466272931E0,9.521854520E-1,-3.188790560E0,2.095571518E0
8.471028087E0,1.192255378E0,-3.188790560E0,2.161545038E0
8.475783295E0,1.433546901E0,-3.105102062E0,2.212246895E0
8.480538504E0,1.667508125E0,-2.961548805E0,2.246455193E0
8.485293712E0,1.885586858E0,-2.783176184E0,2.255618095E0
8.490048920E0,2.071900606E0,-2.594419003E0,2.236681461E0
8.494804077E0,2.220340729E0,-2.409327030E0,2.192088366E0
8.499559285E0,2.326631308E0,-2.232787132E0,2.127336502E0
8.504314493E0,2.387717724E0,-2.056247234E0,2.046702385E0
8.509069702E0,2.402378559E0,-1.857105255E0,1.962403059E0
8.513824910E0,2.374278784E0,-1.607872486E0,1.886044979E0
8.518580118E0,2.303418398E0,-1.303050876E0,1.826791167E0
8.523335275E0,2.196516991E0,-9.817360640E-1,1.781587124E0
8.528090483E0,2.063959360E0,-6.872992516E-1,1.758374214E0
8.532845691E0,1.920406103E0,-4.374555349E-1,1.755319953E0
8.537600900E0,1.776852965E0,-2.389244884E-1,1.768148065E0
8.542356108E0,1.643073559E0,-9.109520912E-2,1.791971803E0
8.547111264E0,1.523954868E0,2.130390890E-2,1.818849921E0
8.551866473E0,1.418886185E0,1.104901657E-1,1.846338749E0
8.556621681E0,1.327256441E0,1.752418280E-1,1.874438524E0
8.561376889E0,1.249065757E0,2.283870727E-1,1.904981852E0
8.566132098E0,1.188590169E0,2.748127878E-1,1.936746836E0
8.570887306E0,1.147662163E0,3.273471594E-1,1.966679215E0
8.575642462E0,1.126281977E0,3.908770978E-1,1.991113782E0
8.580397670E0,1.123838425E0,4.611265361E-1,2.008828878E0
8.585152879E0,1.135444880E0,5.368737578E-1,2.017380953E0
8.589908087E0,1.155603409E0,6.230056882E-1,2.021656990E0
8.594663295E0,1.184924960E0,7.250201106E-1,2.005163670E0
8.599418504E0,1.240513682E0,8.374192715E-1,1.979507327E0
8.604173660E0,1.329699874E0,9.614248276E-1,1.951407552E0
8.608928868E0,1.429881692E0,1.098869324E0,1.920864344E0
8.613684077E0,1.542280793E0,1.270522356E0,1.890321016E0
8.618439285E0,1.745087981E0,1.561293960E0,1.856112599E0
8.623194493E0,2.051131248E0,2.029216528E0,1.817628145E0
8.627949650E0,1.943619013E0,2.564333916E0,1.755319953E0
8.632704858E0,5.080868006E-1,2.558836222E0,1.632536173E0
8.637460066E0,-8.834632039E-1,2.202091217E0,1.485317707E0
8.642215275E0,-1.278692722E0,2.059148788E0,1.377805471E0
8.646970483E0,-1.100931048E0,2.078085661E0,1.361922979E0
8.651725691E0,-8.187115192E-1,2.097022533E0,1.426674724E0
8.656480848E0,-6.055197120E-1,2.035325050E0,1.509141445E0
8.661236056E0,-5.059487820E-1,1.861839533E0,1.569617033E0
8.665991264E0,-5.187768936E-1,1.563126564E0,1.596495152E0
8.670746473E0,-6.256782413E-1,1.152014613E0,1.587332129E0
8.675501681E0,-7.918334603E-1,6.566032767E-1,1.550680280E0
8.680256889E0,-9.799798131E-1,1.471420527E-1,1.496313334E0
8.685012045E0,-1.152854562E0,-3.000109792E-1,1.424231291E0
8.689767254E0,-1.284190536E0,-6.017781496E-1,1.334434152E0
8.694522462E0,-1.345276952E0,-6.940187216E-1,1.236695766E0
8.699277670E0,-1.316566348E0,-5.687914491E-1,1.140179157E0
8.704032879E0,-1.191339016E0,-2.578612864E-1,1.046716809E0
8.708788035E0,-9.866993427E-1,1.691331863E-1,9.556979537E-1
8.713543243E0,-7.289143801E-1,6.266708970E-1,8.567378521E-1
8.718298452E0,-4.546361268E-1,1.008461356E0,7.547234297E-1
8.723053660E0,-1.937968582E-1,1.238757372E0,6.478220820E-1
8.727808868E0,2.611446939E-2,1.296789527E0,5.366446972E-1
8.732564077E0,1.922696829E-1,1.211879373E0,4.224129915E-1
8.737319233E0,2.814559340E-1,1.057330608E0,3.124573231E-1
8.742074441E0,2.735147178E-1,9.357684851E-1,2.104429156E-1
8.746829650E0,1.256854236E-1,9.082795978E-1,1.133154184E-1
8.751584858E0,-2.524398565E-1,9.711986184E-1,-3.359756200E-3
8.756340066E0,-7.845031023E-1,1.050611019E0,-1.511890292E-1
8.761095275E0,-1.226158381E0,1.037172079E0,-3.094030023E-1
8.765850431E0,-1.423467636E0,8.911753297E-1,-4.621191919E-1
8.770605639E0,-1.400254846E0,6.584358811E-1,-6.001746655E-1
8.775360848E0,-1.264031887E0,4.055378437E-1,-7.247910500E-1
8.780116056E0,-1.095433235E0,1.837939471E-1,-8.426879644E-1
8.784871264E0,-9.537126422E-1,3.352120519E-2,-9.654718041E-1
8.789626420E0,-8.779653907E-1,-3.123046272E-2,-1.102305532E0
8.794381629E0,-8.797979951E-1,-3.061959706E-2,-1.250134826E0
8.799136837E0,-9.133955836E-1,-1.351538301E-2,-1.410792232E0
8.803892045E0,-9.262236953E-1,-3.917170316E-2,-1.592218995E0
8.808647254E0,-9.121738076E-1,-1.411861181E-1,-1.799913049E0
8.813402462E0,-8.938478827E-1,-2.994000912E-1,-2.022267818E0
8.818157618E0,-9.072869420E-1,-4.906007648E-1,-2.241568327E0
8.822912827E0,-9.390518665E-1,-7.001274228E-1,-2.441931963E0
8.827668035E0,-9.329432249E-1,-9.334777594E-1,-2.601367712E0
8.832423243E0,-8.547525406E-1,-1.182099700E0,-2.708268881E0
8.837178452E0,-7.020363212E-1,-1.428278208E0,-2.773020744E0
8.841933660E0,-5.108356476E-1,-1.641470075E0,-2.820668221E0
8.846688816E0,-3.251327872E-1,-1.786244988E0,-2.875645876E0
8.851444025E0,-1.705839932E-1,-1.862603068E0,-2.941008568E0
8.856199233E0,-5.635227636E-2,-1.892535448E0,-3.021031857E0
8.860954441E0,4.734201822E-3,-1.883372426E0,-3.096779108E0
8.865709650E0,2.901607659E-3,-1.818009973E0,-3.163974047E0
8.870464858E0,-5.818486959E-2,-1.672624111E0,-3.233612776E0
8.875220014E0,-1.736383140E-1,-1.432554245E0,-3.308138132E0
8.879975223E0,-3.287979662E-1,-1.095967770E0,-3.392437458E0
8.884730431E0,-4.992292523E-1,-6.903535724E-1,-3.493230343E0
8.889485639E0,-6.745474339E-1,-2.163224965E-1,-3.619068384E0
8.894240848E0,-8.211549520E-1,2.656498253E-1,-3.792553902E0
8.898996056E0,-9.146173000E-1,6.920334101E-1,-3.973980904E0
8.903751212E0,-9.622647166E-1,1.077489138E0,-4.129140377E0
8.908506420E0,-9.836450219E-1,1.478827238E0,-4.257421970E0
8.913261629E0,-9.720385671E-1,1.930867195E0,-4.358214855E0
8.918016837E0,-9.024000168E-1,2.447658777E0,-4.446179390E0
8.922772045E0,-7.680097222E-1,3.038365126E0,-4.532311440E0
8.927527254E0,-5.664243698E-1,3.648618937E0,-4.596452236E0
8.932282410E0,-3.159697950E-1,4.226497173E0,-4.605615139E0
8.937037618E0,-5.757400393E-2,4.728016853E0,-4.515818119E0
8.941792827E0,1.183550507E-1,5.030395031E0,-4.313621521E0
8.946548035E0,3.100138716E-2,4.853244305E0,-3.994750261E0
8.951303243E0,-2.402225733E-1,4.283307552E0,-3.600742340E0
8.956058400E0,-4.650208056E-1,3.583867311E0,-3.220784664E0
8.960813608E0,-4.857902229E-1,2.996826172E0,-2.892139196E0
8.965568816E0,-2.805396616E-1,2.585714340E0,-2.600145817E0
8.970324025E0,6.643154472E-2,2.271118879E0,-2.323424101E0
8.975079233E0,4.610501826E-1,1.976071239E0,-2.054032803E0
8.979834441E0,8.336777091E-1,1.664530158E0,-1.803578258E0
8.984589598E0,1.139110088E0,1.327332854E0,-1.576947451E0
8.989344806E0,1.365740895E0,9.602030516E-1,-1.377194643E0
8.994100014E0,1.510515928E0,5.570323467E-1,-1.203709006E0
8.998855223E0,1.583208799E0,1.227074638E-1,-1.056490660E0
9.003610431E0,1.596036911E0,-3.122282624E-1,-9.282090068E-1
9.008365639E0,1.574045777E0,-6.604211926E-1,-8.090903759E-1
9.013120795E0,1.531285286E0,-8.455132246E-1,-6.905826330E-1
9.017876004E0,1.486081243E0,-9.090431333E-1,-5.818486810E-1
9.022631212E0,1.424994826E0,-9.481384754E-1,-5.018253922E-1
9.027386420E0,1.355967045E0,-9.792925715E-1,-4.523453712E-1
9.032141629E0,1.282663345E0,-9.792925715E-1,-4.224129915E-1
9.036896785E0,1.209970355E0,-9.365320802E-1,-4.071413875E-1
9.041651993E0,1.150716543E0,-8.632283211E-1,-3.998109996E-1
9.046407202E0,1.111621141E0,-7.807615399E-1,-3.973675370E-1
9.051162410E0,1.089630008E0,-7.080686092E-1,-3.998109996E-1
9.055917618E0,1.080467105E0,-6.524799466E-1,-4.077522457E-1
9.060672827E0,1.074969292E0,-6.243801713E-1,-4.163043499E-1
9.065427983E0,1.067028046E0,-6.182715297E-1,-4.272999167E-1
9.070183191E0,1.057865024E0,-6.237692833E-1,-4.395172000E-1
9.074938400E0,1.047480345E0,-6.298779249E-1,-4.499019086E-1
9.079693608E0,1.044426084E0,-6.304888129E-1,-4.602866173E-1
9.084448816E0,1.046258688E0,-6.176606417E-1,-4.633409381E-1
9.089204025E0,1.053588986E0,-5.828413367E-1,-4.553996921E-1
9.093959181E0,1.058475971E0,-5.205331445E-1,-4.352411628E-1
9.098714389E0,1.056643367E0,-4.301251769E-1,-4.010327160E-1
9.103469598E0,1.046258688E0,-3.281107545E-1,-3.539961278E-1
9.108224806E0,1.030376196E0,-2.346484363E-1,-2.965748608E-1
9.112980014E0,1.006552458E0,-1.631772518E-1,-2.318231910E-1
9.117735170E0,9.741765857E-1,-1.094211563E-1,-1.634063274E-1
9.122490379E0,9.332486391E-1,-6.666062027E-2,-9.560033679E-2
9.127245587E0,8.874338269E-1,-2.695440874E-2,-2.657261863E-2
9.132000795E0,8.361211419E-1,1.519526169E-2,4.734202102E-2
9.136756004E0,7.793107629E-1,5.795579776E-2,1.365282834E-1
9.141511212E0,7.188351154E-1,9.460768104E-2,2.428187430E-1
9.146266368E0,6.638572812E-1,1.288161129E-1,3.680460155E-1
9.151021577E0,6.192641854E-1,1.416442692E-1,5.061014891E-1
9.155776785E0,5.844448805E-1,1.300378442E-1,6.435460448E-1
9.160531993E0,5.593994260E-1,1.007163301E-1,7.687733173E-1
9.165287202E0,5.398517251E-1,6.101011857E-2,8.872811198E-1
9.170042410E0,5.239692926E-1,1.275180187E-2,9.972367287E-1
9.174797566E0,5.093085170E-1,-3.733910993E-2,1.096807718E0
9.179552775E0,4.983129501E-1,-8.254310489E-2,1.193324327E0
9.184307983E0,4.830413163E-1,-1.222493127E-1,1.291062713E0
9.189063191E0,4.634936452E-1,-1.491273642E-1,1.395520568E0
9.193818400E0,4.396699369E-1,-1.705076247E-1,1.505476236E0
9.198573608E0,4.103484154E-1,-1.986074150E-1,1.603214622E0
9.203328764E0,3.675878942E-1,-2.548069656E-1,1.680183530E0
9.208083973E0,2.893971801E-1,-3.458258212E-1,1.735161424E0
9.212839181E0,1.543960720E-1,-4.502837062E-1,1.769980669E0
9.217594389E0,-2.092211880E-2,-5.315287113E-1,1.781587124E0
9.222349598E0,-2.066250145E-1,-5.608502030E-1,1.769980669E0
9.227104754E0,-3.917170465E-1,-5.461894870E-1,1.729663610E0
9.231859962E0,-5.780308247E-1,-5.296961069E-1,1.656359792E0
9.236615170E0,-7.368556261E-1,-5.846739411E-1,1.556177974E0
9.241370379E0,-8.083268404E-1,-8.064178824E-1,1.435226798E0
9.246125587E0,-7.240274549E-1,-1.243797064E0,1.279456258E0
9.250880795E0,-4.448622763E-1,-1.934685111E0,1.103527188E0
9.255635952E0,-6.872228812E-3,-2.923064232E0,9.587522745E-1
9.260391160E0,4.793761373E-1,-4.108752728E0,8.579595685E-1
9.265146368E0,9.008728266E-1,-5.263898373E0,7.816014886E-1
9.269901577E0,1.193477035E0,-6.066574574E0,7.547234297E-1
9.274656785E0,1.374293089E0,-5.981053352E0,8.445205688E-1
9.279411941E0,1.403614521E0,-4.926700592E0,1.076649189E0
9.284167150E0,1.329089046E0,-3.596848249E0,1.479819894E0
9.288922358E0,1.220965981E0,-2.347629786E0,1.979507327E0
9.293677566E0,1.101236463E0,-1.317711711E0,2.395506144E0
9.298432775E0,9.900590777E-1,-5.162571073E-1,2.616028309E0
9.303187983E0,8.898772597E-1,1.654679924E-1,2.645349979E0
9.307943139E0,8.202387094E-1,8.380300999E-1,2.537837744E0
9.312698348E0,7.854194045E-1,1.545411587E0,2.341139317E0
9.317453556E0,7.695369124E-1,2.230801821E0,2.075412989E0
9.322208764E0,7.573196292E-1,2.854494810E0,1.766315460E0
9.326963973E0,7.469348907E-1,3.393277407E0,1.428507328E0
9.331719181E0,7.353284955E-1,3.835543633E0,1.085812092E0
9.336474337E0,7.499892116E-1,4.207560062E0,7.541125417E-1
9.341229545E0,8.116865754E-1,4.496499062E0,4.419606626E-1
9.345984754E0,9.369138479E-1,4.661432743E0,1.493564397E-1
9.350739962E0,1.111010313E0,4.672428131E0,-1.261435747E-1
9.355495170E0,1.272889495E0,4.501386166E0,-3.924806118E-1
9.360250379E0,1.291826248E0,4.159912586E0,-6.783653498E-1
9.365005535E0,1.078023672E0,3.781787395E0,-1.017395258E0
9.369760743E0,6.070469022E-1,3.577147722E0,-1.382081509E0
9.374515952E0,-8.872810751E-2,3.605247498E0,-1.686903119E0
9.379271160E0,-7.893900275E-1,3.507509232E0,-1.930027246E0
9.384026368E0,-1.238375664E0,2.949789762E0,-2.195142508E0
9.388781525E0,-1.363602877E0,2.063424826E0,-2.432769060E0
9.393536733E0,-1.118646145E0,1.133688688E0,-2.545168161E0
9.398291941E0,-5.212203860E-1,3.242928386E-1,-2.484692574E0
9.403047150E0,2.356410921E-1,-3.507127464E-1,-2.287383080E0
9.407802358E0,8.666644096E-1,-8.168025613E-1,-2.017380953E0
9.412557566E0,1.136055827E0,-8.461240530E-1,-1.726609349E0
9.417312723E0,9.393573403E-1,-5.266417861E-1,-1.443778872E0
9.422067931E0,5.294670463E-1,-4.197404683E-1,-1.197600365E0
9.426823139E0,2.454149276E-1,-8.021417856E-1,-1.017395258E0
9.431578348E0,6.398808211E-2,-1.505247116E0,-9.153808951E-1
9.436333556E0,-1.162170246E-1,-2.229121923E0,-8.481857181E-1
9.441088712E0,-3.006981909E-1,-2.810665131E0,-8.084795475E-1
9.445843920E0,-4.967857897E-1,-3.171075344E0,-7.974839807E-1
9.450599129E0,-7.154753804E-1,-3.307909250E0,-8.121446967E-1
9.455354337E0,-9.280562997E-1,-3.261483431E0,-8.536835313E-1
9.460109545E0,-1.111315727E0,-3.089830399E0,-9.153808951E-1
9.464864754E0,-1.251814604E0,-2.863199472E0,-9.844086170E-1
9.469619910E0,-1.360548615E0,-2.617021084E0,-1.038164735E0
9.474375118E0,-1.466228127E0,-2.356792688E0,-1.060155869E0
9.479130327E0,-1.577405572E0,-2.084957838E0,-1.041218996E0
9.483885535E0,-1.689193845E0,-1.811901331E0,-9.740238786E-1
9.488640743E0,-1.796706080E0,-1.529681802E0,-8.683443069E-1
9.493395900E0,-1.892000914E0,-1.238299251E0,-7.284562588E-1
9.498151108E0,-1.968358994E0,-9.426407218E-1,-5.610793233E-1
9.502906316E0,-2.030667305E0,-6.585885882E-1,-3.723220825E-1
9.507661525E0,-2.083201647E0,-4.008036554E-1,-1.640172005E-1
9.512416733E0,-2.129627228E0,-1.705076247E-1,4.856374860E-2
9.517171941E0,-2.172387838E0,3.229947388E-2,2.587012351E-1
9.521927098E0,-2.210872412E0,2.125045806E-1,4.529562294E-1
9.526682306E0,-2.243248224E0,3.798815310E-1,6.197223067E-1
9.531437514E0,-2.273180485E0,5.435932875E-1,7.608320713E-1
9.536192723E0,-2.301280260E0,7.054724693E-1,8.756746650E-1
9.540947931E0,-2.324493170E0,8.600212336E-1,9.740238786E-1
9.545703139E0,-2.336099625E0,1.004185319E0,1.054047227E0
9.550458295E0,-2.329991102E0,1.136742949E0,1.100472927E0
9.555213504E0,-2.284786940E0,1.264413714E0,1.124907494E0
9.559968712E0,-2.191935539E0,1.376201987E0,1.146898627E0
9.564723920E0,-2.061210394E0,1.419573426E0,1.177441835E0
9.569479129E0,-1.896276951E0,1.351156592E0,1.223867536E0
9.574234285E0,-1.700189352E0,1.125747442E0,1.286175847E0
9.578989493E0,-1.473558545E0,7.573959827E-1,1.352149248E0
9.583744702E0,-1.223104000E0,2.900844216E-1,1.417511702E0
9.588499910E0,-9.543235302E-1,-2.389244884E-1,1.479209065E0
9.593255118E0,-6.776017547E-1,-7.777072191E-1,1.529910803E0
9.598010275E0,-4.045451880E-1,-1.272507668E0,1.566562772E0
9.602765483E0,-1.424842030E-1,-1.701945662E0,1.596495152E0
9.607520691E0,1.189659163E-1,-2.052582026E0,1.636201262E0
9.612275900E0,3.804160357E-1,-2.329303741E0,1.689957380E0
9.617031108E0,6.375901103E-1,-2.550436735E0,1.744935274E0
9.621786264E0,8.794925809E-1,-2.704374790E0,1.795026183E0
9.626541473E0,1.101236463E0,-2.777067661E0,1.840841055E0
9.631296681E0,1.300989270E0,-2.769126415E0,1.875660300E0
9.636051889E0,1.478139997E0,-2.690935612E0,1.897040606E0
9.640807098E0,1.622304082E0,-2.558988810E0,1.901927471E0
9.645562254E0,1.734703302E0,-2.376951218E0,1.893375397E0
9.650317462E0,1.810450435E0,-2.162537575E0,1.871384263E0
9.655072670E0,1.843437195E0,-1.956065416E0,1.839008451E0
9.659827879E0,1.834885120E0,-1.768529892E0,1.801134825E0
9.664583087E0,1.786626816E0,-1.598709464E0,1.765704632E0
