Time (s),Acceleration x (m/s^2),Acceleration y (m/s^2),Acceleration z (m/s^2)
9.002347626,2.1683393386886105,-0.02795306800022273,0.2642618942317775
9.007110595,2.3153477620161995,0.2186627994695432,0.05413196513244787
9.011900178,2.455107541982429,0.4710905156311463,-0.15038797454271577
9.016676481,2.587403034571838,0.7263096479623817,-0.3473994381072751
9.021439449,2.712457889686479,0.9809416224910296,-0.5351397208351331
9.026229033,2.8309573468037517,1.2312579455906465,-0.7120013855980475
9.031005283,2.94405471137882,1.4732022538919,-0.8765493455158225
9.035781585,3.0533606235179174,1.7024273583521212,-1.027535389568445
9.040557835,3.1609142313041225,1.9143477524189854,-1.1639100030379357
9.045334137,3.269135962855541,2.104207314647679,-1.2848313426992064
9.050097106,3.380762231860547,2.2671612050927252,-1.3896712383069658
9.054886689,3.498763082725602,2.3983702785042293,-1.4780181064569275
9.059662939,3.626244451695457,2.49310575063854,-1.5496766787628025
9.064425908,3.766337357077922,2.5468613784221708,-1.6046644634162581
9.069215491,3.9220769062628706,2.5554700604920524,-1.6432048801124035
9.073991793,4.096274496826993,2.515221533917155,-1.6657170371618792
9.078754762,4.291386976888163,2.422977732604812,-1.672802160454519
9.083544345,4.509386803499041,2.27628237682284,-1.6652267399347298
9.088320595,4.751637387303917,2.07346147370854,-1.643902532536372
9.093083564,5.018777828678723,1.8137116172313241,-1.609863652095553
9.097873147,5.310621128971264,1.497173273883857,-1.564241086113488
9.102649449,5.626069698093604,1.1249866175390668,-1.5082351043973419
9.107412418,5.9630515808767415,0.6993279228411705,-1.4430861621508566
9.112201949,6.318480301366957,0.22342503035268943,-1.3700450444906298
9.116978251,6.688240595579258,-0.2984490534889969,-1.2903431413818098
9.12174122,7.067201592014791,-0.8610047780624336,-1.2051638672026264
9.126530803,7.449258229836471,-1.4579866570314355,-1.1156163291407277
9.131307053,7.827400902687632,-2.082245049005785,-1.0227123854243112
9.136070022,8.193812509564674,-2.72582774936406,-0.9273482047453974
9.140859606,8.53999131215496,-3.380089537644992,-0.8302913346139675
9.145635908,8.856897269395128,-4.035817397309741,-0.7321741062639124
9.150398876,9.135118871093454,-4.683368776139937,-0.6334939499076747
9.15518846,9.365056945842452,-5.312819995982261,-0.5346208758790966
9.15996471,9.537121492174702,-5.914121758135146,-0.4358120108539741
9.164727678,9.641937287552338,-6.477258630768552,-0.3372326873080471
9.169517262,9.67055386601261,-6.992409447261938,-0.23898319797779305
9.174293564,9.614655401788083,-7.450105681366731,-0.1411299763967577
9.179056533,9.466766057053288,-7.841385081406688,-0.04373967674392545
9.183846116,9.22044640943415,-8.157938120751222,0.05308557866261749
9.188622366,8.870476645662121,-8.392245130603795,0.14917362562991965
9.193398668,8.413022291547792,-8.537702294962273,0.24425021096311345
9.198174918,7.8457783657415625,-8.58873497753455,0.33791124523409233
9.20295122,7.168088027173737,-8.540897094699256,0.4296009744860543
9.207714189,6.381032066564725,-8.390955438337755,0.5185974810867586
9.212503772,5.487485996345687,-8.136957991061367,0.6040066748800054
9.217280022,4.49214203162544,-7.778285375784397,0.6847656449938129
9.222042991,3.4014939229979544,-7.315684658015661,0.7596558933454052
9.226832574,2.223783386120439,-6.751284791731949,0.8273265491989792
9.231608876,0.9689077574227185,-6.088593089471333,0.8863271831997078
9.236371793,-0.3517105238293711,-5.332472226276916,0.9351493458581526
9.241161376,-1.7252909635549427,-4.489097474102899,0.9722755094151512
9.245937678,-3.1378958516802578,-3.5658941185186466,0.9962337334897481
9.250700647,-4.574661037898062,-2.571455332066092,1.0056561051865949
9.255490231,-6.020051707939812,-1.5154411584957277,0.9993387968573123
9.260266481,-7.458137238030625,-0.4084596848928835,0.9763014160195821
9.265029449,-8.872878382915221,0.7380680715414151,0.9358431940786266
9.269819033,-10.248419449976254,1.9120575758915201,0.8775934980000465
9.274595335,-11.569377766805298,3.100922051319904,0.8015541822604111
9.279358303,-12.821122685767385,4.291742762988936,0.7081314513605971
9.284147887,-13.990036598061273,5.471445085453371,0.5981551887368299
9.288924137,-15.06375094766234,6.626976832426072,0.4728841241311334
9.293687106,-16.031351021289773,7.7454851366837065,0.33399574075031613
9.298476689,-16.88354430911328,8.814488122516748,0.183560436880265
9.303252991,-17.612788438520255,9.822037748177724,0.024000122465385867
9.30801596,-18.213376033410263,10.756870524322132,-0.14196787799115354
9.312805543,-18.68147529833324,11.60854332310265,-0.3114000551350033
9.317581793,-19.01512661920595,12.367552146634806,-0.4812068617611657
9.322344762,-19.214196943165064,13.025432473314375,-0.6482409897969793
9.327134345,-19.28029506690096,13.574840586176464,-0.809390550646472
9.331910595,-19.2166521455542,14.009616045529732,-0.9616736633122938
9.336673564,-19.027972674829293,14.324826139251096,-1.1023308688634215
9.341463147,-18.720261867117692,14.51679368126462,-1.2289118749097476
9.346239449,-18.300635731273584,14.583109901995837,-1.3393533630553969
9.351002418,-17.777120287177173,14.522634373419939,-1.4320449373487973
9.355792001,-17.158446227336082,14.335483943146912,-1.5058807297999395
9.360568251,-16.45384501482953,14.02301253810712,-1.5602946933766482
9.36533122,-15.67285191900717,13.587783468333797,-1.595278189352783
9.370120803,-14.825120874021252,13.033535547256951,-1.6113790991701284
9.374897106,-13.9202553308953,12.365143977500257,-1.6096823420913051
9.379660074,-12.967658486201831,11.588576557761263,-1.5917723360991343
9.384449658,-11.976405432780634,10.710845371069368,-1.5596785766283017
9.389225908,-10.955138914602912,9.739953738931268,-1.515806102185144
9.393988876,-9.911989503495931,8.6848378885546,-1.4628531452368463
9.39877846,-8.854520174046824,7.555302498580619,-1.4037187115775398
9.403554762,-7.789694458134537,6.361949078318504,-1.3414031780509854
9.408317731,-6.723866634079032,5.116096010722761,-1.2789052389751019
9.413107314,-5.6627917658290565,3.8296890628201354,-1.2191186612263754
9.417883564,-4.611652869580397,2.5152012492133458,-1.1647323239252212
9.422646533,-3.5751020603852623,1.1855211316463583,-1.1181369200483018
9.427436116,-2.5573122295129576,-0.14617104739773581,-1.081341486043438
9.432212418,-1.5620356331968281,-1.4665395700777504,-1.0559026081986458
9.436975387,-0.5926657417606959,-2.7622414271411344,-1.0428687427394565
9.44176497,0.3477011918796678,-4.0200854983084175,-1.0427415949010277
9.44654122,1.2562081361272863,-5.227201060210098,-1.0554559444856935
9.451304189,2.130185769234889,-6.371213231177934,-1.0803786936653572
9.456093772,2.9671098690313324,-7.440422240482909,-1.1163272590607243
9.460870074,3.7645694272291252,-8.423982726485914,-1.1616067500435883
9.465632991,4.5202466448017375,-9.312078663789642,-1.2140646910054236
9.470422574,5.231909256668066,-10.09608903455333,-1.2711613874848342
9.475198876,5.897414926026991,-10.76873903472768,-1.3300534416644243
9.479961845,6.514726788076256,-11.324231484614199,-1.387687428285906
9.484751428,7.081938655465502,-11.758353240658876,-1.4409003714605657
9.489527678,7.597307964563159,-12.068551829973773,-1.4865234230352184
9.494290647,8.05929427422121,-12.253978290880926,-1.5214850406476887
9.499080231,8.466601040699457,-12.315493311983996,-1.542910028044907
9.503856533,8.818218468173724,-12.255635178456357,-1.5482110715370228
9.508619501,9.113465427418205,-12.078549663071694,-1.5351698829185012
9.513409085,9.352028682329797,-11.789883707789159,-1.5020056699070181
9.518185335,9.533997908675198,-11.396646380129669,-1.4474292950604246
9.522948303,9.659895204476703,-10.907042016808477,-1.3706820705493012
9.527737887,9.730697983873565,-10.330281577397026,-1.2715586360359745
9.532514189,9.747854342800393,-9.676378961352862,-1.1504137909306573
9.537277158,9.71329020817463,-8.95593937557637,-1.0081535339812224
9.542066741,9.629407836829945,-8.179946794931025,-0.8462109351921575
9.546842991,9.499075504214247,-7.359557176742237,-0.666507840989128
9.55160596,9.325608497972302,-6.505903427147386,-0.4714037818740341
9.556395543,9.112741791736651,-5.629917232918733,-0.26363378508302143
9.561171845,8.864595007982018,-4.742171829173915,-0.046237066743905
9.565934814,8.585630478080677,-3.8527486325673412,0.17752122312480362
9.570724397,8.280605366810638,-2.9711294899900964,0.40423289996528156
9.575500647,7.954518940339235,-2.10611513044948,0.6304319141562966
9.580263616,7.612556112941925,-1.2657693152948144,0.8526793938511544
9.585053199,7.260028403505537,-0.45738720545380307,1.0676461901546421
9.589829501,6.90231337165095,0.3125143610062621,1.2721906361475182
9.59459247,6.544793498726204,1.0381876386106175,1.4634293820297868
9.599382053,6.192795351331517,1.7146292117586153,1.6387993933491927
9.604158303,5.851529733511829,2.337543388560175,1.796109494606556
9.608921272,5.52603340880868,2.903297518765312,1.9335801983504157
9.613710856,5.221112857097297,3.408872904455756,2.0498709718769743
9.618487158,4.941290423507697,3.8518147158097897,2.144094549542153
9.623250126,4.690753120549482,4.230183935542908,2.215818380345452
9.62803971,4.473304265729449,4.542513864456835,2.2650537800361845
9.63281596,4.292318082032072,4.787773161061664,2.292233801720243
9.637578928,4.150697362153232,4.9653367962722195,2.298181218334554
9.642368512,4.050834299627678,5.07496571279375,2.284068302288962
9.647144814,3.99457461620432,5.116795415102908,2.2513702811012
9.651907783,3.9831851573549835,5.091333200215634,2.2018144419952272
9.656697366,4.017325180167883,4.999463285374652,2.1373268587848164
9.661473616,4.097021616501827,4.842458703274993,2.059978630301662
9.666236585,4.221648656758825,4.621998519491069,1.971933362772564
9.671026168,4.389912062873738,4.340188678633687,1.8753974114042058
9.67580247,4.599838679369563,3.999584604708619,1.7725741314621353
9.680565439,4.84877166458115,3.6032135691740304,1.6656230893850896
9.685355022,5.1333720060295365,3.154594801304924,1.556624864861355
9.690131272,5.449626910216856,2.6577553536979948,1.4475517522994834
9.694894241,5.792865664835003,2.117239853013369,1.340244363338979
9.699683824,6.157783558649937,1.5381124605769882,1.2363938604437914
9.704460126,6.538474408680408,0.9259496333572885,1.1375293333039382
9.709223095,6.928472182104361,0.2868226037976429,1.0450096766207753
9.714012678,7.3208021092091995,-0.37273112481020987,0.9600192402544524
9.718788928,7.708041565254975,-1.045747557283217,0.88356648922308
9.723551897,8.082390857908868,-1.724887120843466,0.8164849160162956
9.728341481,8.435753896936095,-2.4024961560596094,0.7594354813689232
9.733117783,8.759828545682645,-3.070678041190479,0.7129099213947617
9.737880751,9.046206259335726,-3.7213726803905542,0.6772343514508403
9.742670335,9.2864804026325,-4.346442835877372,0.6525727183217822
9.747446585,9.472362410548907,-4.937765621250949,0.6389297936296008
9.752209553,9.595804711272825,-5.487327402750813,0.6361535520608547
9.756999137,9.649129071251464,-5.98732037565953,0.6439369301138006
9.761775439,9.625158743538545,-6.430239185519301,0.6618191085211489
9.766538408,9.517352499013457,-6.808976132645318,0.6891865960399733
9.771327991,9.319938298279533,-7.116913713177895,0.7252745039485881
9.776104241,9.028044035595133,-7.3480134884221595,0.7691684828156736
9.78086721,8.63782248212793,-7.496900513320371,0.8198078452251812
9.785656793,8.146567307432317,-7.558942769292589,0.8759904229357499
9.790433095,7.552816898689873,-7.530325209576298,0.9363797076506843
9.795196012,6.856442654104731,-7.408118112569284,0.9995148020792556
9.799985647,6.058718513848217,-7.190339434962013,1.0638236585927727
9.804761897,5.162368707384805,-6.876010758637275,1.127640000226972
9.809524866,4.1715910306265735,-6.465206243820288,1.1892241995209287
9.814314449,3.0920534150181527,-5.9590937572699145,1.2467882355238828
9.819090699,1.9308621148133776,-5.359967067799845,1.2985246603306273
9.823853668,0.6965005197425939,-4.671267727731154,1.3426392880972782
9.828643251,-0.6012616069068003,-3.8975950293198345,1.3773870868453193
9.833419553,-1.9514877739875316,-3.0447022842174642,1.4011105358625138
9.838182522,-3.3422216418486754,-2.1194776620276974,1.4122795380120152
9.842972106,-4.760658509387266,-1.129907967666032,1.4095318542062847
9.847748356,-6.19333785835743,-0.0850240428062474,1.3917129411492748
9.852511324,-7.626352594541792,1.005173069766576,1.3579140039643074
9.857300908,-9.045569972067176,2.1298054876365136,1.307507015775589
9.86207721,-10.436858712853436,3.2772310113395844,1.2401754119509147
9.866840178,-11.78631655446377,4.435173750600954,1.15593914611028
9.871629762,-13.080492397131211,5.590871106567398,1.0551728055307579
9.876406012,-14.306597392177776,6.731234712814051,0.9386155344981777
9.881168981,-15.452699716458248,7.843022362305917,0.807371621359211
9.885958564,-16.50789837928142,8.91301747737861,0.6629007885742093
9.890734866,-17.462472159848076,9.928212349397901,0.5069974984886517
9.895497835,-18.308000623866103,10.875991219401898,0.3417589481925581
9.900287418,-19.037455075906472,11.74430931514264,0.1695418578126539
9.905063668,-19.64525824035854,12.521864202882448,-0.007091362033038072
9.909826637,-20.127312413745624,13.19825622572956,-0.18543596287971076
9.91461622,-20.480996787114602,13.764135337722868,-0.36271610147418915
9.919392522,-20.7051355826019,14.211332250351488,-0.5361618325817212
9.924155491,-20.799939545049476,14.532972430630489,-0.7030892640720071
9.928945074,-20.766924122389874,14.723572075149226,-0.8609809560348146
9.933721324,-20.608808301955502,14.779115687690306,-1.0075634720668778
9.938484293,-20.32939850410261,14.697115276411187,-1.1408789914373896
9.943273876,-19.93346215194069,14.476651445241595,-1.259348057628523
9.948050178,-19.426595540433457,14.118396787438774,-1.361820848518849
9.952813147,-18.815090441031348,13.624622016393717,-1.4476147782763995
9.957602731,-18.105803531176818,12.999185216821887,-1.5165367539664565
9.962378981,-17.306032266283275,12.247504497471684,-1.5688889864008888
9.967141949,-16.423400247911708,11.376514202079314,-1.6054578720167285
9.971931533,-15.465754515162512,10.394604713061849,-1.62748609859997
9.976707835,-14.441076522740723,9.311545783467707,-1.6366287600847425
9.981470803,-13.357407891180488,8.138393274574867,-1.6348948705728776
9.986260387,-12.222791340014389,6.887379173317775,-1.624576221026043
9.991036637,-11.045226555520204,5.571784826190621,-1.6081660026790427
9.995799606,-9.832640110537229,4.205797461994463,-1.5882700128875809
10.00058919,-8.59286795626283,2.8043502892893284,-1.5675135498964867
10.00536549,-7.333648461038209,1.3829467476485495,-1.5484472838133136
10.01012846,-6.0626234988790095,-0.042530135477415056,-1.5334554546732602
10.01491804,-4.787344714072485,-1.4560218817043096,-1.524669688862132
10.01969429,-3.5152818330206017,-2.841510275073439,-1.523891537765028
10.02445726,-2.253829784804426,-4.183242162956619,-1.5325265265411545
10.02924685,-1.0103114464174288,-5.465960248103362,-1.5515320636987888
10.03402315,0.2080269407632025,-6.6751361555075555,-1.5813810225762706
10.03878612,1.3940302254977608,-7.797201453947472,-1.622042193562182
10.0435757,2.540660628995376,-8.819771757477119,-1.6729781563725485
10.04835195,3.641037073451135,-9.731858564500966,-1.7331604716282976
10.05311492,4.688487921925313,-10.524063153240238,-1.8011014768817504
10.0579045,5.67661657844654,-11.188746688135794,-1.8749014300745968
10.0626808,6.599378477059141,-11.720170749268812,-1.952309300213544
10.06744377,7.451167120646886,-12.114602817485055,-2.03079515575249
10.07223336,8.22690606240055,-12.370381859374701,-2.1076317912241267
10.07700961,8.922143100873576,-12.487940076507815,-2.1799828953159013
10.08177257,9.533142544036426,-12.46977812999244,-2.244994708638193
10.08656216,10.056971263096733,-12.3203927342503,-2.2998878664455136
10.09133846,10.491574457501073,-12.046157401179354,-2.342046102124452
10.09610143,10.835837575617347,-11.655159196798207,-2.3690987208052645
10.10089101,11.089631587438614,-11.156996450230308,-2.3789941464542226
10.10566726,11.253839650838565,-10.562544191643724,-2.370062296236363
10.11043023,11.330364034958727,-9.883695491600097,-2.3410639944586236
10.11521981,11.322112901854458,-9.133087726436665,-2.291226103486531
10.11999612,11.232967189684668,-8.32382309944974,-2.2202615340088663
10.12475908,11.067728401434112,-7.469192562799331,-2.128373811700706
10.12954867,10.832048601743915,-6.582411687656505,-2.016246419901957
10.13432492,10.532344378756326,-5.676376097847789,-1.8850176896735766
10.13908789,10.175696949703868,-4.763442888706303,-1.7362425324288677
10.14387747,9.769740976901957,-3.855243068655813,-1.5718427596143376
10.14865377,9.322544995374907,-2.9625285551592166,-1.3940480724750628
10.15341674,8.842486598442632,-2.0950556974275174,-1.2053300231758621
10.15820632,8.338125640218767,-1.2615057549975408,-1.0083313592998076
10.16298257,7.818078660525954,-0.46944130361483655,-0.8057931846518298
10.16774554,7.290897508567458,0.27470376704734717,-0.6004823116671535
10.17253513,6.7649547550470075,0.9656041015717551,-0.3951210515335719
10.17731143,6.248337977058599,1.5989968696519372,-0.19232149586909628
10.1820744,5.74875442336866,2.1716147898567644,0.005473900252473181
10.18686398,5.273446966775804,2.681103398894431,0.19604390856322895
10.19164023,4.82912166889188,3.1259278407587345,0.3774310811424934
10.1964032,4.421886760703161,3.505274274874093,0.5479743957741612
10.20119278,4.057202411268839,3.818950622353948,0.7063314765141698
10.20596909,3.7398403362557398,4.067290823298602,0.8514902370298815
10.21073205,3.4738520959245034,4.251066109525339,0.9827701586812497
10.21552164,3.262544848210394,4.371406053978408,1.0998137675087067
10.22029789,3.10846334703242,4.429731387899501,1.202569199711758
10.22506086,3.0133770906152884,4.4276998212566125,1.2912650300025907
10.22985044,2.9782717070737794,4.367165392373692,1.3663787700847174
10.23462674,3.0033438938584447,4.250151230033232,1.4286006165637934
10.23938971,3.087999486514917,4.078835047627712,1.4787941319531783
10.24417929,3.230854505223743,3.855546209140223,1.5179555747529305
10.24895554,3.4297392997052447,3.5827728104797374,1.5471735537225308
10.25371851,3.6817061698937237,3.263176905410014,1.5675905689778882
10.2585081,3.9830410684736295,2.8996157745750355,1.5803678222112938
10.2632844,4.329280180386637,2.495166993776827,1.586654437334012
10.26804737,4.715232312941968,2.0531550075430527,1.587561943208585
10.27283695,5.135008108273154,1.577176955075178,1.584144548476558
10.2776132,5.582057099498891,1.0711256213781795,1.5773854038457193
10.2823895,6.0492135684267945,0.5392075864600362,1.5681887187039358
10.28716575,6.528752026797733,-0.014045092387122305,1.5573772939051684
10.29194205,7.012452942518503,-0.5837710198008647,1.5456947642561105
10.29670502,7.491679080755696,-1.1647844340072635,1.5338116199858969
10.30149461,7.957462543769803,-1.7515896609594908,1.5223339002306036
10.30627086,8.400602288882602,-2.33840533848318,1.5118133294427776
10.31103382,8.811771594287116,-2.919198348101967,1.5027576100668567
10.31582341,9.181634637683201,-3.4877270671652276,1.495639602717408
10.32059971,9.500971060310741,-4.037593264183447,1.4909042254653946
10.32536268,9.760807115120006,-4.5623017160474255,1.4889720880349042
10.33015226,9.952551749419934,-5.055326437098303,1.4902391386574392
10.33492851,10.068135755067724,-5.510182284774586,1.4950719243719297
10.33969153,10.100151932643348,-5.920500647730061,1.5037984225052055
10.34448112,10.041994050562884,-6.280107926332572,1.5166947607948724
10.34925737,9.887992220766058,-6.583105572920877,1.5339684792362738
10.35402034,9.633542148307878,-6.823950556606044,1.5557392778703987
10.35880992,9.275225544420824,-6.997535238311743,1.5820184251640013
10.36358622,8.810918837596894,-7.099265766555217,1.6126881594904094
10.36834914,8.239887200151198,-7.125138210518612,1.647482496792711
10.37313877,7.562860855416856,-7.071811711957172,1.6859708621923286
10.37791502,6.7820906681032085,-6.936677945475948,1.7275458947677522
10.38267799,5.90138016814537,-6.717926121875866,1.771416635200445
10.38746757,4.926091427879072,-6.414602655404982,1.816608099376783
10.39224388,3.8631226020761478,-6.0266644536123035,1.861967973976665
10.39700679,2.720855441128483,-5.5550245941623695,1.9061808505162134
10.40179638,1.509071691639046,-5.00158894797934,1.9477900502318257
10.40657268,0.23883800435071856,-4.36928212091087,1.9852266951327586
10.41133565,-1.0776402178617777,-3.6620609529867845,2.016845275862117
10.41612523,-2.4271946732431324,-2.884913776219561,2.0409645992384604
10.42090148,-3.7958973273761503,-2.0438437253327026,2.055912715559209
10.42566445,-5.1692874108000755,-1.1458346422950667,2.06007425046922
10.43045409,-6.532617677452341,-0.19879851620123049,2.0519384822336093
10.43523034,-7.8711143478393595,0.788496062365967,2.0301464746480895
10.4399933,-9.17024431258294,1.8065143095980254,1.9935355694258503
10.44478289,-10.415982542671136,2.845063686528247,1.9411795564647696
10.44955919,-11.595072294022241,3.893418802491771,1.8724228926903828
10.45432216,-12.695270648073992,4.94046050976069,1.7869074512681817
10.45911174,-13.705572220432389,5.974826265895368,1.68459046779217
10.46388799,-14.616404486858636,6.985068287862757,1.5657526141866713
10.46865096,-15.419789075317945,7.959815606444166,1.4309954712036663
10.47344054,-16.1094644894368,8.887935897030946,1.2812280773926075
10.47821684,-16.68096699791423,9.758692954834707,1.1176426955427265
10.48297981,-17.131667792122514,10.561895917820566,0.9416804433121528
10.4877694,-17.460765933553922,11.288036806860926,0.7549879579182025
10.49254565,-17.669238034449418,11.928413609622877,0.5593667645582671
10.49730862,-17.75974697944823,12.475236924126559,0.3567174472474845
10.5020982,-17.736513240464227,12.92171903084492,0.14898103803684748
10.5068745,-17.60515341062788,13.262145105497424,-0.06191978091997513
10.51163747,-17.372491454439388,13.491927047479042,-0.27413703902958475
10.51642705,-17.046348821950406,13.607641020266877,-0.4859488954878909
10.5212033,-16.635319995959776,13.607050237392022,-0.6958038530777976
10.52596627,-16.14854023490101,13.489114762560586,-0.9023558614036153
10.53075586,-15.59545225235884,13.253990133273623,-1.1044888435305193
10.53553216,-14.98557835492061,12.903016492809858,-1.301329681130629
10.54029513,-14.32830416373885,12.438699666320106,-1.492249230802386
10.54508471,-13.632679493072144,11.86468528583359,-1.6768514936237042
10.54986096,-12.907241273383951,11.185726694507913,-1.8549515966415253
10.55462393,-12.159862610451974,10.407646973907555,-2.026543743845966
10.55941351,-11.397631188848212,9.53729506533063,-2.1917607310996363
10.56418981,-10.626759281338291,8.582495619715901,-2.3508269751370445
10.56895278,-9.852526637934442,7.551991930261902,-2.504007269160208
10.57374237,-9.07925652172647,6.455381093997445,-2.6515536413608007
10.57851862,-8.310324155396685,5.303040425613249,-2.793652756921481
10.58328158,-7.548195865214638,4.106044117537989,-2.9303762705471192
10.58807117,-6.7944962824496065,2.8760692097268805,-3.061636409092423
10.59284747,-6.0501001125391545,1.6252901028078108,-3.187148847826186
10.59761044,-5.315244240402707,0.3662611175343791,-3.3064046473565223
10.60240002,-4.589655338724766,-0.8882130330307797,-3.418652653182769
10.60717627,-3.8726877181088604,-2.125218542731206,-3.5228933423238926
10.61193924,-3.163465933926428,-3.3318847436267385,-3.617884649875498
10.61672882,-2.4610266645402668,-4.495545850087873,-3.7021598397964732
10.62150513,-1.764454601707187,-5.603910183950231,-3.774057011953812
10.6262681,-1.0730075292722834,-6.645234234220427,-3.831759371839815
10.63105768,-0.3862263798526406,-7.6084983206892405,-3.873344942571688
10.63583393,0.2959731870640107,-8.483580110926262,-3.8968439897654386
10.6405969,0.9732302910401186,-9.261421818226799,-3.9003020865003775
10.64538648,1.6446911231367378,-9.934186617958282,-3.8818465016168977
10.65016278,2.3089848157514306,-10.495399692912365,-3.8397534808832656
10.65492575,2.9642227938271133,-10.940069378740311,-3.7725140222846107
10.65971534,3.60802067054679,-11.264784140232893,-3.6788959122830094
10.66449158,4.237540969085735,-11.467781567284947,-3.558000049182288
10.66925455,4.849554246440489,-11.548986225975963,-3.4093093765049827
10.67404414,5.440515599434414,-11.51001402213403,-3.232729037823998
10.67882044,6.006653097872755,-11.354141719124454,-3.028616632554714
10.68358341,6.544064461394518,-11.086241381164465,-2.797801716162058
10.68837299,7.04881828726721,-10.712680753882799,-2.5415939651016606
10.69314924,7.517056318735435,-10.241191881477166,-2.261779716474736
10.69791221,7.945093566071736,-9.68071150048202,-1.960606882489402
10.70270179,8.329513498194322,-9.041197835292833,-1.6407585168084882
10.7074781,8.667255960738716,-8.33342925678676,-1.3053155652860853
10.71224106,8.955695909818397,-7.568790799757188,-0.9577095675128398
10.71703065,9.192711460894142,-6.759054760041548,-0.6016662948536011
10.72180695,9.376740136584054,-5.9161615325331525,-0.24114152032325256
10.72656987,9.506822560362838,-5.052006545854373,0.11974968906821114
10.7313595,9.582633189051986,-4.178238642327038,0.4768085993316145
10.73613575,9.604498007491088,-3.306074587563331,0.8258316704137787
10.74089872,9.573399423243416,-2.4461336141880725,1.1626908814480974
10.7456883,9.490968894082476,-1.6082950451732807,1.4834137032938848
10.75046461,9.359468088542664,-0.8015811358706637,1.784260882803664
10.75522757,9.18175960753835,-0.034066351417402295,2.0618002128733077
10.76001716,8.961268467840338,0.6871866080763106,2.3129745059831697
10.76479341,8.701935654172429,1.3561645717693582,2.5351620739605125
10.76955638,8.408165083898995,1.9679167497409484,2.726228148125691
10.77434596,8.084765304913875,2.5185446158774316,2.8845658542507424
10.77912226,7.736887174874761,3.0051712815907856,3.009125586196821
10.78388523,7.3699586576676515,3.425893199956895,3.099431898570845
10.78867481,6.989617729470966,3.77971728459234,3.155587356881382
10.79345106,6.601644222863311,4.066486641446401,3.1782631348829313
10.79821403,6.211891265302965,4.2867981027542665,3.1686765217969315
10.80300362,5.826216799042745,4.441914633875943,3.1285558833305873
10.80777992,5.450415512599343,4.533675474294805,3.060093995132585
10.81254289,5.090151378275013,4.5644065952714765,2.965891021301862
10.81733247,4.750890886373512,4.536833729455635,2.8488887302516432
10.82210877,4.437837007202502,4.453999870583841,2.712297811861764
10.82687174,4.155863906799617,4.3191887706543515,2.5595203706279457
10.83166127,3.9094524929037884,4.135855592860999,2.3940698101660662
10.83643757,3.70262696648369,3.9075655247254453,2.2194903899928353
10.84120054,3.5388926899841158,3.6379408283623844,2.039278724333174
10.84599013,3.421175845695936,3.330616511693105,1.8568094055510063
10.85076643,3.351765536613691,2.9892045513734775,1.6752667744908267
10.8555294,3.332259167746106,2.6172663894727854,1.4975846314570007
10.86031898,3.36351212645668,2.218293264107563,1.3263953921095215
10.86509523,3.445592942718191,1.7956938188068958,1.1639898525952164
10.8698582,3.5777452400256893,1.3527883619714882,1.0122883510636211
10.87464778,3.7583578719540527,0.8928091090371412,0.8728237134521111
10.87942408,3.984944667947356,0.41890572735167836,0.7467359655946249
10.88418705,4.254135178997614,-0.06584449124610736,0.6347783961008848
10.88897664,4.561677716913716,-0.558422490887564,0.5373341780324107
10.89375289,4.902455820365943,-1.055849989984373,0.4544424131364568
10.89851586,5.270519061773976,-1.5551693311520842,0.3858321613045828
10.90330544,5.659128842634907,-2.0534212757675214,0.33096277360559995
10.90808174,6.060819527540047,-2.5476213899251907,0.2890686750845515
10.91284471,6.467474956263408,-3.034735699504231,0.25920665618526323
10.91763429,6.870420062512231,-3.511656341636757,0.2403037349750279
10.92241054,7.260527024561006,-3.9751780087960844,0.23120374445339587
10.92717351,7.628335077609792,-4.421976069881131,0.23071097215341782
10.9319631,7.9641828251980655,-4.848587357938795,0.23762942105353616
10.9367394,8.258351589567155,-5.251394731026006,0.2507965565306108
10.94150237,8.50121803133709,-5.626616631285377,0.269110735120702
10.94629195,8.683413943199776,-5.970302972755113,0.2915518551549185
10.9510682,8.79599078303322,-6.278338761140585,0.31719510438777776
10.9558445,8.830586172002473,-6.546456866063373,0.3452179872852941
10.9606208,8.779589266041453,-6.77026130575506,0.3749010838463511
10.96539705,8.636301642045423,-6.9452622479900645,0.40562321903478377
10.97016002,8.395090149838692,-7.0669236703548695,0.4368519076573193
10.97494961,8.051528091138955,-7.130724259331071,0.4681300849281869
10.97972591,7.6025211135942286,-7.1322316709043205,0.49906023728317545
10.98448888,7.046414356045152,-7.067189740438726,0.5292871087436775
10.98927846,6.38307764427459,-6.93161763610441,0.5584801731094358
10.99405471,5.6139659019353445,-6.7219193230786125,0.5863170311779508
10.99881768,4.742152393835454,-6.435001073202054,0.6124688154551927
11.00360726,3.7723329454745227,-6.068394145435775,0.6365885618336514
11.00838356,2.7107998760401415,-5.620379204700502,0.6583033381292833
11.01314653,1.5653850363354074,-5.09010857007667,0.6772107062971515
11.01793612,0.34537205032820234,-4.477722020578928,0.6928798467371409
11.02271237,-0.9386213923051764,-3.784451672823491,0.7048574020914787
11.02747534,-2.274789571140252,-3.0127114126382284,0.7126778204529366
11.03226492,-3.650310698739858,-2.1661665368622915,0.7158777126251317
11.03704122,-5.051541662643521,-1.2497796558474912,0.7140135056791039
11.04180419,-6.464231699590232,-0.2698295210721143,0.7066814926928584
11.04659377,-7.873750543242218,0.766099744012817,0.6935392491569008
11.05137002,-9.265326074965296,1.8491605612186952,0.6743272989083454
11.05613299,-10.624286110947102,2.9693154477726167,0.6488898578256083
11.06092257,-11.93629869777539,4.115441587283096,0.617193465028463
11.06569888,-13.18760519077865,5.27546473855497,0.5793423350684627
11.07046184,-14.365240485428885,6.436519797192151,0.5355893313578615
11.07525143,-15.457235084088568,7.58513442562369,0.48634156957059266
11.08002768,-16.452794212295515,8.707431404904998,0.4321598084556675
11.08479065,-17.342449928121205,9.789344774059833,0.37375096930500973
11.08958023,-18.11818304492674,10.816844445679024,0.3119533390662281
11.09435653,-18.773512647794533,11.776163844158495,0.2477142624457278
11.0991195,-19.30355196991146,12.65402520986187,0.18206043617145548
11.10390909,-19.70503037149342,13.437857531927344,0.11606130240525056
11.10868534,-19.976282113949914,14.116002581091196,0.05078649418014055
11.1134483,-20.117203532543993,14.677905167979228,-0.012741218337122214
11.11823789,-20.129181055916533,15.1142845008526,-0.07359554859437452
11.12301419,-20.01499326305991,15.417284302255363,-0.13099653903342676
11.12777716,-19.778690774457292,15.580600104924104,-0.18435800493904075
11.13256674,-19.425458227237673,15.599582826739667,-0.23332982770217156
11.13734299,-18.96146288220142,15.471318281279517,-0.2778324021663812
11.14210596,-18.393694557890157,15.194682696132045,-0.31808077647736993
11.14689554,-17.72980158842359,14.770374588838287,-0.35459642933606145
11.15167185,-16.977927362791537,14.20092350937131,-0.38820518756607303
11.15643481,-16.14655173392907,13.490676226102735,-0.4200204606857675
11.1612244,-15.244341204842405,12.645760938086733,-0.4514117125596506
11.1660007,-14.280011329132344,11.674030065457933,-0.48395885289873536
11.17076367,-13.262204223002332,10.58498212276792,-0.5193939655477926
11.17555325,-12.199383485032818,9.389663136364453,-0.5595324561021283
11.1803295,-11.099748163157244,8.100548045953438,-0.6061962674485267
11.18509247,-9.97116670219544,6.73140255135388,-0.6611322532267117
11.18988205,-8.82113106496918,5.29712594428426,-0.7259290935251764
11.19465836,-7.656730470159887,3.8135756132738274,-0.8019362661196198
11.19942132,-6.484643462897059,2.297374134441286,-0.8901885422487584
11.20421091,-5.3111463638215355,0.7657001655230505,-0.9913392652533267
11.20898716,-4.142135558637897,-0.7639352542033082,-1.1056053133869814
11.21375013,-2.9831606150998287,-2.2739249332449236,-1.2327261711432733
11.21853971,-1.8394648656528463,-3.746811692561826,-1.3719389639882889
11.22331601,-0.7160298893657349,-5.16554129337929,-1.5219706767394123
11.22807898,0.38237971471907867,-6.513718353211178,-1.6810481037770162
11.23286856,1.4511747330248628,-7.775860879161062,-1.8469253982724996
11.23764481,2.485906070182612,-8.937648494890485,-2.016928426678909
11.24240778,3.4822384665770887,-9.986158968962027,-2.1880145234173654
11.24719737,4.435935234324356,-10.910087310851807,-2.3568457081113214
11.25197367,5.342855339527975,-11.699941530685495,-2.5198729988567545
11.25673664,6.198963423388263,-12.348209199907407,-2.6734291410268067
11.26152622,7.000352632128444,-12.849489233251466,-2.813826853687442
11.26630247,7.743279444276401,-13.200583858764528,-2.937459526765895
11.27106544,8.424209067930395,-13.400546575288796,-3.04090115048563
11.27585507,9.039869465800576,-13.450683047170356,-3.1210021765577998
11.28063132,9.587311698533481,-13.354503371417975,-3.174978120951218
11.28539429,10.063974087140567,-13.117625932465478,-3.2004880933064648
11.29018388,10.467747668077306,-12.747635012111896,-3.195701007975855
11.29496018,10.79704049458059,-12.253896266692896,-3.159347838788494
11.29972315,11.050838466453946,-11.647335931455647,-3.0907588064834477
11.30451273,11.228760516603867,-10.940191011804291,-2.9898848129955584
11.30928898,11.331106149262963,-10.14573868172808,-2.857302804664249
11.31405195,11.358893535730935,-9.27801360232227,-2.69420511630734
11.31884153,11.313886651809893,-8.351521915744403,-2.5023732573501802
11.32361784,11.198610290438921,-7.380960308530637,-2.28413704553808
11.3283808,11.016352182774352,-6.380947834266384,-2.042320432538059
11.33317039,10.771151877357077,-5.3657772076414325,-1.780175749046312
11.33794664,10.46777642556065,-4.349191101296978,-1.5013083921505
11.34270961,10.111683273430577,-3.3441876653030786,-1.2095941773590833
11.34749919,9.708971045720492,-2.3628581159146504,-0.9090916930267501
11.35227549,9.26631911812748,-1.4162578705863516,-0.6039520442947853
11.35703846,8.790917007438846,-0.5143114010278084,-0.2983283724372104
11.36182804,8.2903846722222,0.3342502095872706,0.003712511806948711
11.36660434,7.772684821063191,1.1219210406622198,0.29827414216889186
11.37136731,7.2460282883819165,1.842424301087229,0.5817079808560168
11.3761569,6.718773479809165,2.490691963261147,0.8506827213219618
11.38093315,6.199320833477215,3.062823930909469,1.1022437420229458
11.38569612,5.696003214280037,3.556030785101565,1.3338614721065527
11.3904857,5.2169731712290695,3.9685641339556197,1.5434677897579232
11.395262,4.770088048070552,4.299638405519491,1.7294799497306788
11.40002497,4.362794043227541,4.549347607748853,1.8908119124832932
11.40481455,4.002010463608977,4.718580174584084,2.026873309045947
11.4095908,3.694015598096983,4.808934560015971,2.137556613613424
11.41435377,3.4443358316774533,4.822637762704926,2.2232134043108958
11.41914336,3.2576398070239367,4.762468484126548,2.284620866840622
11.42391966,3.137639596116253,4.63168615911242,2.3229399295961906
11.42868263,3.087000955396311,4.433966660802092,2.33966660474973
11.43347221,3.1072647952942005,4.173345081655489,2.3365782400953625
11.43824851,3.1987819938789857,3.8541656361749896,2.3156764548985422
11.44301148,3.360663621680513,3.4810384264062724,2.279128536554213
11.44780106,3.5907485172551294,3.0588025635877605,2.2292090143214214
11.45257731,3.8855899571127637,2.5924949514082205,2.168243006113847
11.45734028,4.240462895748496,2.087323908648559,2.09855276109983
11.46212987,4.649392910634624,1.548646739918288,2.022408603674449
11.46690617,5.105207576148534,0.9819503486922518,1.9419852346400797
11.47168242,5.59961051815077,0.39283401937653323,1.8593240763579142
11.47645872,6.123277882366519,-0.2130064366517408,1.7763020730482377
11.48123497,6.665976404602553,-0.8297938858081757,1.6946070863111515
11.48599794,7.216701719912283,-1.4516850434135165,1.615719768883661
11.49078752,7.7638350113563765,-2.072786128928784,1.5409015659036376
11.49556382,8.295315597798705,-2.6871694341807766,1.4711882923244013
11.50032679,8.798826616055694,-3.288891158743056,1.4073885788657137
11.50511638,9.261990587304092,-3.8720108104321396,1.3500863794975737
11.50989268,9.672571390712942,-4.430612434839123,1.2996467021030707
11.5146556,10.018679014640524,-4.958827928808507,1.2562237666323646
11.51944518,10.288973425314495,-5.450862710233244,1.219770908791627
11.52422148,10.472863978644115,-5.901024059296669,1.190051717387376
11.52898445,10.5607009782226,-6.303752508779958,1.1666520938678797
11.53377403,10.543956210584987,-6.653656731459633,1.148993121944335
11.53855034,10.415389520532715,-6.945552432608579,1.1363448051513871
11.5433133,10.169198690129827,-7.174505782326865,1.127840852212058
11.54810289,9.801150048146743,-7.335881892206776,1.1224947576534903
11.55287914,9.308687384071568,-7.425398734038352,1.119217442289077
11.55764211,8.691016905125515,-7.439186703981805,1.1168366941312289
11.56243169,7.949166180126994,-7.373853753778719,1.1141185936345968
11.56720799,7.0860152700901775,-7.226555650448607,1.1097910239359283
11.57197096,6.10629855317621,-6.995070503527737,1.1025692626347727
11.57676054,5.016576111156315,-6.677876234858272,1.0911835336585636
11.58153679,3.82517395958013,-6.274229183898952,1.0744082710134497
11.58629976,2.542092881463771,-5.784241567200946,1.0510927085318094
11.59108934,1.1788861689369814,-5.208955072271685,1.0201922536149584
11.59586565,-0.2514928136283602,-4.550407497265486,0.9807999320750863
11.60062862,-1.7348716607654742,-3.811689090853691,0.9321770373898227
11.6054182,-3.2560662315701236,-2.996985147573019,0.8737820280714619
11.61019445,-4.799111113874345,-2.1116015113729363,0.8052967088828511
11.61495747,-6.347509306683358,-1.1619699528116514,0.7266487690487178
11.61974705,-7.88449638832257,-0.15563090904786317,0.6380297775894582
11.6245233,-9.393313739676481,0.8988082140342428,0.5399077305317997
11.62928627,-10.857484833715661,1.9917401213759103,0.43303323343095945
11.63407586,-12.261088218368341,3.1126500800640686,0.3184384327365249
11.63885216,-13.589020647255316,4.250232735606263,0.19742791622271277
11.64361513,-14.827243893620683,5.3925312995580414,0.07156099488813053
11.64840471,-15.963009147548185,6.527096191792362,-0.057374955638473335
11.65318096,-16.98505354894597,7.641159418250486,-0.18740009918076378
11.65794393,-17.883764316462173,8.721820341993618,-0.3163863514762375
11.66273351,-18.651307023201944,9.75623811129824,-0.4421095221627216
11.66750981,-19.28171574221715,10.731825868312905,-0.5623083813977577
11.67227278,-19.77094393988132,11.636441968295717,-0.6747493333551062
11.67706237,-20.11687607334575,12.458573761182437,-0.7772950621539015
11.68183862,-20.31930083396901,13.187509983746779,-0.8679751798827223
11.68660158,-20.379847878360035,13.813498441600016,-0.9450565596722798
11.69139117,-20.30189070479981,14.327886383977798,-1.007110723232269
11.69616747,-20.090419054233198,14.723241742411968,-1.0530754378993439
11.70093044,-19.751884823127252,14.993454161230474,-1.082307621073174
11.70572002,-19.29402595330417,15.133815435861028,-1.0946247802002964
11.71049627,-18.725673099816348,15.141079545671802,-1.0903325378550783
11.71525924,-18.056544065553343,15.013502892058368,-1.0702362895543174
11.72004888,-17.29703103069967,14.750865622467758,-1.0356356864837288
11.72482513,-16.457985506854556,14.354475048924389,-0.9883013790762687
11.7295881,-15.55050573145568,13.827152180214267,-0.9304342411817939
11.73437768,-14.585730918004321,13.173202311615853,-0.8646080592379805
11.73915398,-13.574646423092663,12.398370487821955,-0.7936973685005752
11.74391695,-12.527903508026881,11.509782504280318,-0.7207927177594026
11.74870653,-11.455656973954481,10.515871966072751,-0.6491061303276621
11.75348278,-10.367423534549882,9.426293802651834,-0.5818699002574558
11.75824575,-9.271963351850738,8.2518245567695,-0.5222321225536107
11.76303534,-8.177186690671714,7.004249737837104,-0.4731525079035032
11.76781164,-7.090087139401513,5.696238561668868,-0.43730207442054475
11.77257461,-6.016702295877921,4.341206495325399,-0.41697023360620644
11.77736419,-4.962102223836163,2.9531661898754593,-0.4139825853679957
11.78214044,-3.9304053488038546,1.5465676142820934,-0.4296324024917403
11.78690341,-2.924820787153288,0.1361284957052537,-0.46462832527643994
11.79169299,-1.947715395648125,-1.263343482975085,-0.5190602233835601
11.79646929,-1.0007031011398164,-2.6371348908989996,-0.5923845460395527
11.80123226,-0.08475333884571963,-3.9708149136015995,-0.6834298056693837
11.80602184,0.7996852758997472,-5.250425212000325,-0.790422146099259
11.81079815,1.6525505483902287,-6.462668225540372,-0.9110302456037911
11.81556106,2.4740265871993605,-7.595090535936245,-1.0424281072846897
11.8203507,3.2644032964414853,-8.636257660499489,-1.1813736179373604
11.82512695,4.023940890381615,-9.575916510220551,-1.3243001550765132
11.82988992,4.752744673433207,-10.405141752074963,-1.4674180463000537
11.8346795,5.450654918425537,-11.116462476476212,-1.606822384978295
11.8394558,6.117156068117113,-11.703965898971008,-1.7386036005182552
11.84421877,6.7513087327328325,-12.163375317531173,-1.8589572482423384
11.84900836,7.351707108627683,-12.492100189218368,-1.964289675734117
11.85378461,7.916463538386895,-12.689256957535417,-2.0513165003337153
11.85854757,8.44322100077184,-12.755660114132155,-2.1171511860905943
11.86333716,8.929193383749466,-12.693783859594074,-2.1593814401141342
11.86811346,9.371232470490177,-12.507695577259463,-2.1761316397171178
11.87287643,9.765919662383137,-12.202963102841052,-2.16611000670473
11.87766601,10.1096795822584,-11.786538432890328,-2.128639714392921
11.88244231,10.398911872036392,-11.266621056168903,-2.063673520669441
11.88720528,10.63013677292513,-10.652504511651347,-1.9717918690558083
11.89199487,10.800149509470161,-9.954410072117035,-1.8541847108539555
11.89677112,10.906178126184054,-9.183311614575103,-1.712617605502397
11.90153409,10.94603925024725,-8.35075575762357,-1.5493829825587486
11.90632367,10.918286259348383,-7.468681217221133,-1.3672378154940479
11.91109997,10.822344502055333,-6.549241065348799,-1.1693293638827527
11.91586294,10.658628537726393,-5.604631193948603,-0.9591110625949226
11.92065252,10.428636827330617,-4.64692782242744,-0.7402510297642515
11.92542882,10.13501991025422,-3.6879363764999775,-0.5165359769399238
11.93019174,9.781618839397096,-2.739053540341356,-0.29177349218788223
11.93498138,9.373471509947477,-1.811143765753842,-0.0696957103875444
11.93975763,8.916785491672274,-0.9144310265091007,0.14613271150238516
11.9445206,8.41887703142766,-0.05840614458491112,0.35239961472842446
11.94931018,7.8880769842025265,0.7482504006390676,0.5461209725731218
11.95408648,7.333605494690816,1.497730624818899,0.7247051497760546
11.95884945,6.765418221463998,2.1831468773922937,0.8860042474311738
11.96363903,6.194027719452287,2.798566283816193,1.0283514709431485
11.96841528,5.630304244862484,3.3390328112448997,1.1505839430055664
11.97317825,5.085260715541083,3.800578001245889,1.2520508556577281
11.97796789,4.569826862065529,4.180221378470693,1.332607301107435
11.98274414,4.094617762837673,4.4759614760471536,1.3925945291979116
11.98750711,3.669701995553343,4.686758339810265,1.432807742396927
11.99229669,3.30437458013244,4.81250830126868,1.4544528534668046
11.99707294,3.0069397493005865,4.854011752265329,1.4590938958262933
12.00183596,2.7845083687849184,4.812934614457927,1.4485929908123276
12.00662554,2.64281454124151,4.691764172705631,1.425044936225126
12.01140179,2.586055568464832,4.493759932169575,1.390708582468607
12.01616476,2.616759018650735,4.222900163702024,1.3479372028052716
12.02095435,2.7356801541242146,3.8838248187936646,1.299110039735645
12.02573065,2.9417324262038327,3.4817755201236404,1.2465671165668581
12.03049362,3.231953145513872,3.0225333617309875,1.1925492377731843
12.0352832,3.6015057947190803,2.5123552777809386,1.1391448623151894
12.04005945,4.043719769444375,1.9579097527214022,1.088245225501908
12.04482242,4.550167613985901,1.3662126396116157,1.0415087194869754
12.049612,5.110779067763836,0.7445638208770259,1.0003351376403107
12.0543883,5.7139904698718675,0.10048538326482326,0.9658499637929595
12.05915127,6.346927300640529,-0.5583381148792916,0.9388984639053651
12.06394086,6.995616889654824,-1.224116831093966,0.920048933888112
12.06871716,7.645227606622182,-1.8890099844022235,0.9096040902675557
12.07348013,8.280330190451368,-2.5451772473855176,0.9076192769095126
12.07826971,8.885176277484604,-3.1848272816160508,0.913925917691859
12.08304596,9.443988679294598,-3.8002637369429064,0.9281584853620948
12.08780893,9.94125755879285,-4.383929262359118,0.9497831888316637
12.09259851,10.362036394056384,-4.92844829345086,0.9781266108979292
12.09737481,10.692231535571844,-5.426669573645875,1.01240266604784
12.10213778,10.918879272715253,-5.871709515828536,1.0517365043207263
12.10692737,11.030404622274686,-6.256997595475632,1.0951843574728628
12.11170362,11.016856506524645,-6.576324962873629,1.1417487755437334
12.11647992,10.8701145607875,-6.823897351944327,1.1903891817399237
12.12125622,10.584063458543044,-6.994393139051255,1.2400281250476137
12.12603247,10.154731325458572,-7.083027070445705,1.289553989264851
12.13079544,9.580389498807447,-7.085619744662022,1.3378211985723754
12.13558502,8.861611559796659,-6.998672427491564,1.383649136735971
12.14036132,8.00129023107393,-6.819446221744102,1.4258210794907336
12.14512429,7.004611414276177,-6.546044047644815,1.4630844465050552
12.14991388,5.87898536795367,-6.177493348919675,1.494153627437426
12.15469013,4.633935808203791,-5.713826955426516,1.517716532424527
12.1594531,3.280948552304875,-5.1561591286962045,1.5324458548775661
12.16424268,1.8332822099485697,-4.506753509609235,1.537015797648449
12.16901898,0.30574434419673696,-3.769079494158095,1.5301246819344587
12.17378195,-1.285562544268733,-2.94785350235096,1.5105234223110136
12.17857153,-2.9235199463857646,-2.0490616999771802,1.477049339119454
12.18334778,-4.590291093656896,-1.0799610117111105,1.428664267677304
12.1881108,-6.2676307475828406,-0.04905575189666413,1.3644955026263301
12.19290039,-7.937199759820911,1.0339521011607187,1.2838778301246465
12.19767664,-9.580876858152378,2.1582400837327773,1.186394731039103
12.20243961,-11.181060057474927,3.3119699802477274,1.0719167412565072
12.20722919,-12.720950268217734,4.4824191737702375,0.9406349123665094
12.21200549,-14.184810101532314,5.656136650491703,0.793087344063553
12.21676846,-15.558191579112426,6.819120737147556,0.6301768863008207
12.22155804,-16.8281274513313,7.957014805038724,0.4531783473858478
12.22633429,-17.983282074557597,9.055316489402237,0.2637338869040666
12.23109726,-19.014059222775646,10.099595494698331,0.0638357064386616
12.23588685,-19.912665722491663,11.075714821409711,-0.14420432975468622
12.24066315,-20.673131328101196,11.970050274832095,-0.3577979099328964
12.24542612,-21.291286743190884,12.769703393885466,-0.5741354197066578
12.2502157,-21.764703098491438,13.46270343869722,-0.7902514056303701
12.25499195,-22.092597468807508,14.038194750522972,-1.0030980783820642
12.25975497,-22.27571008078975,14.486606580119826,-1.209624037538101
12.26454455,-22.316159653157058,14.799803291120044,-1.4068550734425749
12.2693208,-22.21728375601683,14.9712135985943,-1.5919738178139713
12.27408377,-21.983471145700527,14.995938126231529,-1.7623951406677467
12.27887336,-21.619992741765525,14.870835014176553,-1.915834463622902
12.28364966,-21.132837323295703,14.594583577756111,-2.0503665256843124
12.28841263,-20.528557217468812,14.167726130943516,-2.1644725682588675
12.29320221,-19.814128318889964,13.592688088887513,-2.257074386986458
12.29797846,-18.996827779999183,12.87377639436638,-2.327554216915544
12.30274143,-18.084131697544784,12.017156212278936,-2.375759960421288
12.30753101,-17.083634119614004,11.030805736681051,-2.401995816864031
12.31230731,-16.00298773456834,9.924448881882382,-2.4069989087089962
12.31707028,-14.849865693826514,8.709465601347683,-2.3919029977668855
12.32185987,-13.631943178101679,7.398779609264722,-2.358190826194442
12.32663617,-12.356896555610149,6.006723380727249,-2.307636984677875
12.33139914,-11.032417317986853,4.548880486972756,-2.2422434960691078
12.33618872,-9.66623743308258,3.0419055894421185,-2.16417050215999
12.34096497,-8.266162338823182,1.5033227753980238,-2.0756645525068693
12.34572794,-6.840107530823824,-0.04869663031047744,-1.9789870179981388
12.35051752,-5.396134578345923,-1.5955751017210345,-1.8763450909039512
12.35529382,-3.9424824462166446,-3.1185865002686044,-1.769827691446889
12.36005679,-2.4875902076180156,-4.599127234810381,-1.6613483837448098
12.36484638,-1.0401075997410372,-6.01899728667369,-1.5525971181361327
12.36962263,0.3911096118648073,-7.360686654036277,-1.4450022708741728
12.3743856,1.7970218532695454,-8.607662051886315,-1.3397040565910947
12.37917523,3.1684471923194986,-9.744648046063388,-1.2375399579101298
12.38395148,4.496122831801566,-10.75789624441746,-1.1390423687173903
12.38871445,5.770786560174327,-11.635435757952221,-1.0444482055492004
12.39350403,6.983277136097572,-12.36729792437561,-0.9537198297244613
12.39828034,8.124651637069597,-12.945708302738156,-0.8665762577114552
12.4030433,9.186316889959988,-13.365239247991973,-0.7825333071671151
12.40783289,10.160171276613388,-13.622917001314505,-0.7009509877683135
12.41260914,11.038752546840012,-13.718278224261148,-0.6210860742048557
12.41737211,11.815386862966523,-13.653372294833101,-0.5421474521536629
12.42216169,12.484334206081211,-13.432707479677001,-0.46335162990748974
12.42693799,13.040925481295215,-13.063141244496936,-0.3839758407081736
12.43170096,13.481687079046559,-12.553717315474675,-0.3034063987087638
12.43649054,13.804449165127766,-11.91545442523062,-0.22118032142241778
12.44126685,14.008434491502816,-11.161093714628132,-0.13701860634766744
12.44602981,14.094325001036138,-10.304813325508567,-0.050849909342907985
12.4508194,14.064303949109568,-9.361919723640227,0.03717627151346997
12.45559565,13.92207171872714,-8.348525739395262,0.12668741024510316
12.46035862,13.672833998232072,-7.281225256071094,0.21709680892677316
12.4651482,13.323261541123832,-6.176773979267532,0.30762301850816337
12.4699245,12.881421336827557,-5.051784859474791,0.39731881493798604
12.47468747,12.356679677753153,-3.9224455935977005,0.4851082374233114
12.47947705,11.75957829184355,-2.8042642814538525,0.5698298099200182
12.48425336,11.10168539760503,-1.711847839537358,0.6502838046731421
12.48901632,10.39542420383126,-0.6587162499355912,0.725281276861842
12.49380591,9.653881986070166,0.34284578388722015,0.793692601907696
12.49858216,8.890603387512668,1.281899624432428,0.8544933729316012
12.50334513,8.11937197906168,2.1489270571086947,0.9068057465668152
12.50813471,7.353984355626251,2.935870426240251,0.9499336349890739
12.51291101,6.608021146842978,3.6361416192566294,0.9833905032023644
12.51767398,5.894619293721919,4.244603593723975,1.0069189184603324
12.52246356,5.226249805106424,4.757528537871612,1.020501391250341
12.52723987,4.614504983481711,5.172536936938204,1.0243624255000727
12.53200284,4.069898828944117,5.488521808019648,1.018962045705091
12.53679242,3.601684019742193,5.70556219458658,1.0049813830066645
12.54156867,3.21768854335772,5.824829712640868,0.9833011773142225
12.54633164,2.9241747185012,5.848491549062517,0.9549742852285148
12.55112122,2.725723003370761,5.7796128614768785,0.9211934695071864
12.55589752,2.625142623976352,5.622061044572539,0.8832558801289845
12.56066049,2.623410674367792,5.380413830889551,0.84252571481279
12.56545007,2.7196409370424006,5.059872700732082,0.8003965636211784
12.57022632,2.911083247651013,4.666182599038541,0.7582548935298221
12.57498929,3.193153785484352,4.2055585076779884,0.7174460108525663
12.57977888,3.559496211158129,3.684619008572207,0.6792436518587736
12.58455518,4.002073093136316,3.1103266025377647,0.6448241006734944
12.58931815,4.511286561261266,2.4899342250972434,0.61524543118043
12.59410773,5.076126599143148,1.8309371288112548,0.5914321338508599
12.59888403,5.684344849461726,1.1410290904249432,0.5741650411196074
12.603647,6.322651277915887,0.42806176063930756,0.5640761330012074
12.60843659,6.97693054706861,-0.2999940884193009,0.5616475189940685
12.61321284,7.6324745124631725,-1.0350866480783327,0.567213682267183
12.6179758,8.274226886836198,-1.7691216349050742,0.5809659576668986
12.62276539,8.887035836334208,-2.4940023297686027,0.6029582022400513
12.62754169,9.455910084742122,-3.2016719069086452,0.6331126975937695
12.63230466,9.966274013986787,-3.884158652026415,0.6712254781404671
12.63709424,10.404217263395353,-4.533624446496021,0.7169704830916563
12.64187054,10.756734444491874,-5.142416680806307,0.7699021596169758
12.64663351,11.01195079740152,-5.703123566191972,0.8294563839802656
12.6514231,11.159329908590129,-6.208632645413597,0.8949498085104686
12.65619935,11.189859969106717,-6.65219216323045,0.9655779780981733
12.66096231,11.096215452383893,-7.027474842398722,1.0404127766588005
12.6657519,10.872891504452676,-7.328643517088434,1.1183999395509652
12.6705282,10.516308747571783,-7.550417993953292,1.198357481522827
12.67529117,10.024886596051768,-7.688142431023836,1.2789759338704383
12.68008075,9.399083583987352,-7.7378524366022665,1.3588212672343574
12.68485705,8.641403635114523,-7.696340988477063,1.4363413124476738
12.68961997,7.75636769088738,-7.561222155546987,1.5098763901400072
12.69440961,6.750450665602096,-7.330991469334288,1.5776747193820075
12.69918586,5.631984309495689,-7.0050816448988025,1.6379129920108975
12.70394882,4.411027211695448,-6.583912197428705,1.6887222754930744
12.70873841,3.0992038419512817,-6.068931356919142,1.7282191589130556
12.71351471,1.709515196314066,-5.462648569161982,1.7545418064394747
12.71827768,0.2561242659522993,-4.768655809774122,1.7658903487792084
12.72306726,-1.2458798217185798,-3.9916359515300712,1.760570832090319
12.72784351,-2.780734550129324,-3.137356532514672,1.737041748853104
12.73260648,-4.332268677098604,-2.2126474862781356,1.693961982618525
12.73739612,-5.884173389522225,-1.2253617207293617,1.630238800021092
12.74217237,-7.420274172126224,-0.18431786722277346,1.5450743267206326
12.74693534,-8.924797383064723,0.9007749475693401,1.4380087741330567
12.75172492,-10.382625434820577,2.0194098521509014,1.3089585753669795
12.75650122,-11.779534537003526,3.160391414274524,1.1582475727666994
12.76126419,-13.10240919629518,4.311959555418372,0.9866294919147863
12.76605377,-14.33942812279812,5.461925951998995,0.795300135561702
12.77083002,-15.480216887500331,6.597820257540792,0.5858980203762083
12.77559299,-16.515963615160125,7.707043200724028,0.3604925378741934
12.78038257,-17.43949515262557,8.77702348123614,0.121559125693775
12.78515888,-18.245312466183524,9.79537538980484,-0.1280586303346098
12.78992184,-18.929585412404222,10.750054209990436,-0.3851995850282659
12.79471143,-19.490108407876725,11.62950670829195,-0.6464474511218141
12.79948768,-19.926219819091067,12.422814373705215,-0.9082036710996592
12.80425065,-20.23868905195152,13.119827505330385,-1.1667688445497462
12.80904028,-20.429576307715866,13.711288731341906,-1.418430306105302
12.81381653,-20.502070763814295,14.188945031061285,-1.6595530109849854
12.8185795,-20.460313508667646,14.545647780513766,-1.8866705683588008
12.82336909,-20.309211881876706,14.77544071302174,-2.0965731116606703
12.82814539,-20.05425192370489,14.873635951963005,-2.2863887320696707
12.83290836,-19.701315417620474,14.836878418433214,-2.453655422428887
12.83769794,-19.256507538239756,14.6631989443304,-2.5963808583173824
12.84247419,-18.726000436290953,14.352056347161085,-2.7130878447900937
12.84723716,-18.115897254136616,13.904368568822647,-2.8028438439457974
12.85202674,-17.432120120302528,13.322532769070305,-2.8652736357090967
12.85680304,-16.680324660829875,12.610434016438418,-2.9005548227992537
12.86156601,-15.865842521120431,11.773441956424907,-2.9093965464654374
12.8663556,-14.99365234097586,10.818394580933978,-2.8930024099833096
12.8711319,-14.068378593509326,9.75356799607207,-2.8530191881605877
12.87589487,-13.094316711843984,8.588630907854228,-2.7914734065360904
12.88068445,-12.075482011402565,7.334582436749269,-2.7106982785302414
12.8854607,-11.015679093707735,6.003671850944944,-2.613253775730006
12.89022367,-9.918587712944031,4.609298890862157,-2.501842770683229
12.89501325,-8.787860520930156,3.16589355551237,-2.37922623732161
12.89978955,-7.627227696394539,1.688774541784419,-2.248140430383855
12.90455252,-6.440603220123624,0.1939859731739234,-2.1112188031302335
12.90934211,-5.2321874833723765,-1.3018873778157993,-1.9709211751117364
12.91411841,-4.006561015378064,-2.781925488235929,-1.8294723420354677
12.91888138,-2.7687643873504117,-4.229097439966026,-1.6888119393566285
12.92367096,-1.5243597927518295,-5.626502213446623,-1.5505569391992524
12.92844721,-0.2794704121551576,-6.95762250222018,-1.4159776843454341
12.93321018,0.9592055629768826,-8.206587222269562,-1.2859878520438082
12.93799976,2.1844084644998167,-9.358437514279538,-1.1611482074707742
12.94277606,3.388359430330836,-10.399390237798062,-1.041683473801135
12.94753903,4.5628315191592845,-11.317092280036231,-0.9275111453861566
12.95232862,5.699248597992305,-12.100858498298509,-0.8182806416556845
12.95710492,6.788809810828999,-12.741885838851786,-0.71342087827372
12.96186789,7.822636352465225,-13.233436187677794,-0.6121941338169639
12.96665747,8.791936272601177,-13.570980874269601,-0.5137539895116979
12.97143372,9.68818218228431,-13.752300526952483,-0.41720506203829405
12.97619669,10.503296127617029,-13.777535207544314,-0.32166220705369164
12.98098627,11.229835641313349,-13.649181442097012,-0.22630688274866786
12.98576257,11.861175113586965,-13.372034864526983,-0.1304384960067222
12.99052554,12.391677051265267,-12.953079566221142,-0.03351882999719244
12.99531513,12.81684835890086,-12.401327668035584,0.06479197406413008
13.00009143,13.133477351061028,-11.727614828161224,0.16460900918704507
13.0048544,13.339747752433578,-10.944359144471136,0.26580652713833564
13.00964398,13.435326491368782,-10.06529209073773,0.36801262513908334
13.01442023,13.421422688131987,-9.105170737806663,0.4706148104969591
13.0191832,13.300815906883734,-8.079480606850595,0.57277621806167
13.02397278,13.077852477796364,-7.004138153099552,0.673461866995602
13.02874909,12.75840947879321,-5.895201160244619,0.7714739224426218
13.03351205,12.349826762580102,-4.768594317344191,0.8654945168226635
13.03830164,11.860808198134782,-3.639856033109532,0.9541343343027017
13.04307794,11.301294052182353,-2.5239111970238315,1.0359849081998127
13.04784091,10.682307148685688,-1.4348731995433703,1.109672442847538
13.05263049,10.015776078985612,-0.38587714814673196,1.1739109517314505
13.05740674,9.314339246104126,0.6110550684413633,1.2275525963298688
13.06216971,8.591133879583715,1.5451183496652345,1.2696333010783574
13.06695929,7.8595743466421855,2.406798011271022,1.299411987612666
13.0717356,7.133124131117071,3.1879156317994277,1.3164020905533727
13.07649856,6.425065783275375,3.8816498041777336,1.3203943637131084
13.08128815,5.748272989348317,4.482534812213133,1.3114703414955775
13.08606445,5.114988692264384,4.986440411721764,1.2900061750829679
13.09082742,4.536612931652537,5.3905359087415645,1.2566669128299501
13.095617,4.0235037777943985,5.693241620991732,1.2123916357294036
13.10039325,3.584794429030149,5.894170610684283,1.1583701840149672
13.10515622,3.228229241512381,5.994063310979387,1.0960125077134437
13.1099458,2.960021171842035,5.994717355231222,1.0269119290641477
13.11472211,2.784732835284919,5.898914575288718,0.9528038062383167
13.11948507,2.7051831085559224,5.710346778246333,0.8755212252956361
13.12427466,2.7223809290584535,5.433541554429929,0.7969494119024232
13.12905096,2.8354876535129847,5.07378902514328,0.7189805395325954
13.13381393,3.0418090282584007,4.637070116268346,0.6434705141049574
13.13860351,3.336817480790222,4.129986650989297,0.5721991387794129
13.14337976,3.7142050577075123,3.559693299032629,0.506834815340239
13.14814273,4.165966900191857,2.9338312075552455,0.44890463502679834
13.15293231,4.682514659600859,2.2604629748369978,0.3997703720682855
13.15770862,5.252818715087062,1.5480085143268825,0.36061054052378655
13.16248487,5.864577476160888,0.8051812936236357,0.33240833260967884
13.16726117,6.504411459741339,0.04092441993765944,0.3159449472342028
13.17203747,7.158079250645725,-0.7356539215447446,0.31179756219327115
13.17680044,7.810711911716321,-1.5153460917840114,0.3203410198080272
13.18159002,8.447061927774689,-2.2889119863190097,0.3417521948258971
13.18636627,9.051762368474106,-3.047147551672127,0.37601599897594984
13.19112924,9.609591659078983,-3.780954843060565,0.422932044988312
13.19591882,10.105739170405737,-4.481413487378571,0.4821211335853115
13.20069513,10.526066787022375,-5.139853280394534,0.5530309248296482
13.2054581,10.857361684286516,-5.747927539022123,0.6349403935290906
13.21024768,11.08757572754799,-6.297686757324305,0.7269629293290572
13.21502398,11.206047178618661,-6.781652079827262,0.8280482053745514
13.21978695,11.203700726744232,-7.192888099218559,0.9369831824870986
13.22457653,11.073222225877467,-7.525074491620392,1.0523928182401643
13.22935278,10.809204898341186,-7.772576002895593,1.1727412001970894
13.23411575,10.408264153041259,-7.930510277363089,1.2963339198335544
13.23890534,9.869118575039606,-7.994812965116511,1.4213225563022418
13.24368164,9.19263509257026,-7.96229945372697,1.5457121552965027
13.24845794,8.38183683838067,-7.830722450583999,1.6673725703758944
13.25323419,7.441872808093008,-7.598824503419725,1.7840544772230649
13.25801049,6.3799490796621745,-7.2663843974603335,1.8934107632982329
13.26278674,5.205222082554305,-6.834256214836415,1.9930238225012435
13.26756304,3.9286551737173614,-6.304399693991608,2.0804390418058327
13.27233929,2.5628405722256127,-5.6799003996371304,2.15320446599077
13.27710226,1.1217895141720995,-4.96497813094019,2.2089162930101165
13.28189184,-0.3793056959576257,-4.164981983305725,2.245269513483825
13.28666815,-1.9243332581485704,-3.2863705591288865,2.260112680730096
13.29143112,-3.496541829489876,-2.3366760091265983,2.2515054884275485
13.2962207,-5.0788329194028945,-1.3244508847985452,2.2177775426803246
13.300997,-6.654059211052566,-0.2591971949262853,2.1575864501299056
13.30575997,-8.205321868169309,0.8487224212568669,2.0699731199085782
13.31054955,-9.716259651203213,1.988190881835244,1.954412020348286
13.3153258,-11.171322648961395,3.147459022564541,1.8108540718702735
13.32008877,-12.55602366291158,4.314282269424753,1.6397599211612262
13.32487836,-13.857160792734932,5.4760691423857715,1.4421215399575829
13.32965466,-15.063005575592339,6.6200385928642405,1.2194704183132337
13.33441763,-16.163452102341747,7.733382805676168,0.9738710572535731
13.33920721,-17.15012381077366,8.803431897250066,0.7078989828176411
13.34398346,-18.01643606283909,9.817816930513668,0.42460307691466764
13.34874643,-18.75761408009432,10.76462784513728,0.1274526285502599
13.35353606,-19.370667285142158,11.632563256794066,-0.17972986689670828
13.35831231,-19.854322531917678,12.411069581864941,-0.4928485123753778
13.36307528,-20.208920053960394,13.090467552457387,-0.8076241808662346
13.36786487,-20.436277153645353,13.662064849966372,-1.1196922991617546
13.37264117,-20.53952562741195,14.118254246364362,-1.4247050889540451
13.37740414,-20.52292961422696,14.452597239792867,-1.7184348683904436
13.38219372,-20.391690932572043,14.659893648510483,-1.9968749507335348
13.38696997,-20.151749028863378,14.736237946005863,-2.256334777047866
13.39173299,-19.809582418490475,14.679063267813182,-2.4935261598827663
13.39652257,-19.372018003356892,14.487174011109902,-2.7056378636510283
13.40129882,-18.84605395257596,14.16076781225245,-2.890396179759471
13.40606179,-18.238700990752495,13.701447461014054,-3.046109653431015
13.41085138,-17.556845998283073,13.112223027210804,-3.1716966721999977
13.41562768,-16.80714082963001,12.397504164874421,-3.266695220582818
13.42039065,-15.99591823160928,11.56308224604867,-3.3312547239376533
13.42518023,-15.129135721691972,10.616101682119051,-3.3661105232394792
13.42995653,-14.212347288177437,9.565019534694756,-3.372542113713478
13.43471945,-13.250701818607205,8.419552318773253,-3.352316816939449
13.43950909,-12.248966268857904,7.1906087753375125,-3.3076210155914727
13.44428534,-11.21157077447039,5.890207353347522,-3.2409814456493815
13.4490483,-10.142672201290498,4.531377203720086,-3.1551793013286336
13.45383789,-9.046232056822861,3.1280416586963007,-3.053160057218799
13.45861419,-7.926104255985087,1.6948834543966032,-2.937941951326968
13.46337716,-6.7861279698755155,0.2471913538547135,-2.8125260113660775
13.46816674,-5.630220692780398,-1.1993116614668746,-2.6798103609120547
13.47294299,-4.462466742511448,-2.6286578513167242,-2.542511329696907
13.47770601,-3.287196655360929,-4.02484034772946,-2.4030936268346985
13.4824956,-2.109053336853246,-5.372032711270228,-2.263711524476467
13.48727184,-0.9330413701147263,-6.654819358433586,-2.126162645391871
13.49203481,0.2354434458296341,-7.858432989767093,-1.9918555533605238
13.4968244,1.3906064674681629,-8.968994361143942,-1.8617919130236062
13.5016007,2.5262697416082056,-9.973749024208669,-1.736563521470963
13.50636367,3.6359110041040945,-10.86129505992138,-1.6163640272210151
13.51115325,4.712725462223829,-11.621795386295332,-1.501014658844262
13.5159295,5.749708713999532,-12.24716798473829,-1.390002803046037
13.52069252,6.73975824723975,-12.73124740913483,-1.2825318109197665
13.52548211,7.675790152599636,-13.069911271415439,-1.1775799701952203
13.53025836,8.550867043827045,-13.26116608828691,-1.0739661711555997
13.53502132,9.358332785279194,-13.305187964683366,-0.9704194718841033
13.53981091,10.091949544579407,-13.204315090836122,-0.8656496271849384
13.54458721,10.746032908242237,-12.96299090315678,-0.7584157414681753
13.54935018,11.315581223304177,-12.58765889277737,-0.6475905048760928
13.55413976,11.796395818990492,-12.08661224556849,-0.5322178700411966
13.55891606,12.185189210806987,-11.469803521502007,-0.4115624170487446
13.56367903,12.479678760094782,-10.748621215791701,-0.28514897980762294
13.56846862,12.678663582216142,-9.93564117159787,-0.1527913773792287
13.57324487,12.782082816554256,-9.044361418226213,-0.014609363520912199
13.57800784,12.791053732813984,-8.088929132299302,0.12896676333298288
13.58279742,12.707888569545638,-7.083868122503904,0.27720402905806235
13.58757372,12.536089477613444,-6.0438145850981515,0.4290867752485586
13.59233669,12.280321451281852,-4.9832679367304715,0.5833478865692362
13.59712627,11.946363644069928,-3.916362379474953,0.7385098589258048
13.60190257,11.541039960864651,-2.856663570352037,0.8929338752032153
13.60666554,11.072130275098578,-1.8169934323699768,1.0448747216296994
13.61145513,10.548264027755469,-0.8092848276638375,1.1925391658266504
13.61623143,9.978798310444976,0.1555334235150588,1.3341453307936673
13.62099435,9.37368280313853,1.0676218020906596,1.467980631561716
13.62578398,8.743314118137961,1.9182871927866019,1.5924559821616602
13.63056023,8.098382195184564,2.7000141427549975,1.7061542164672892
13.6353232,7.449711406788126,3.4064731301759514,1.8078709808701356
13.64011278,6.808098980378386,4.032509033174561,1.896646729497325
13.64488908,6.184153238279352,4.5741131355778935,1.9717888631448945
13.64965205,5.588134011657275,5.028381986563648,2.032883484956364
13.65444164,5.029797416120782,5.39346627621673,2.0797966876711085
13.65921794,4.518247002852179,5.6685126306427,2.112665727500793
13.66398091,4.061793137535968,5.853600900857884,2.1318808624689316
13.66877049,3.667822320495837,5.949679149363825,2.1380590187755337
13.67354674,3.3426780460406507,5.958498152645846,2.1320107779953776
13.67830971,3.0915547008667956,5.882546855925139,2.1147024343530116
13.68309929,2.9184059132233573,5.72498985124406,2.0872150425677862
13.6878756,2.8258686812258444,5.489607609910294,2.0507024543409806
13.69263856,2.8152045260000884,5.180739891635431,2.0063503207320705
13.69742815,2.886258827549935,4.803232480318823,1.9553379177549608
13.70220445,3.037439398890736,4.36238716444798,1.8988044377687587
13.70696742,3.2657152225326245,3.8639146917268676,1.837821089823599
13.711757,3.566636095450548,3.3138902848238514,1.7733699844375015
13.71653325,3.9343736902446445,2.7187112086463747,1.7063303636834433
13.72129622,4.361784236869025,2.0850558285696956,1.6374722997841198
13.72608586,4.8404926684266725,1.4198435916255767,1.5674575490862441
13.73086211,5.3609976725965955,0.7301953950960746,1.4968468380533138
13.73562507,5.912796667467988,0.02339387272120666,1.4261124981235611
13.74041466,6.484529295845597,-0.6931567819561014,1.3556550785405341
13.74519096,7.064137621776696,-1.4119717345876681,1.2858223671757798
13.74995393,7.639040832597498,-2.125527350172447,1.2169291500631096
13.75474351,8.196321915435945,-2.826304043438291,1.1492760468186
13.75951976,8.722923504611503,-3.5068301581029586,1.0831658710751682
13.76428273,9.205849897389093,-4.159726848346038,1.0189161740981805
13.76907237,9.63237211429389,-4.777753918908555,0.9568669192779798
13.77384862,9.990232832629287,-5.353856593187753,0.8973825835127374
13.77861158,10.267848036870973,-5.881213220965878,0.8408483652668427
13.78340117,10.454502290650737,-6.3532840038921545,0.7876605741180372
13.78817747,10.540534621245367,-6.763860895246348,0.7382116569167619
13.79294044,10.51751209712508,-7.10711890246493,0.692870655707285
13.79773002,10.378388257724634,-7.377669065553883,0.6519601737305806
13.80250632,10.117643624040088,-7.570613381903979,0.615731140955899
13.80726929,9.731405599021851,-7.681601882601177,0.5843368203234125
13.81205888,9.217545187978805,-7.706891928886666,0.5578075815632214
13.81683513,8.57574815731925,-7.6434095887928715,0.5360279894788199
13.8215981,7.807558516822618,-7.488812676398968,0.5187177039221493
13.82638768,6.916392554564349,-7.241554696685538,0.5054175656918732
13.83116398,5.907522068311028,-6.900948550573139,0.49548204717206246
13.83592695,4.788025919779495,-6.467228437953302,0.48807898644580583
13.84071653,3.566709590649658,-5.941607979707344,0.48219721128001086
13.84549284,2.2539930459213666,-5.326332198319449,0.4766623101507509
13.8502558,0.8617679132423837,-4.624720691572761,0.47016044205992036
13.85504539,-0.5967742403221095,-3.841199147458583,0.46126972028172913
13.85982164,-2.1073399305073726,-2.9813163190077367,0.4484983776756104
13.86458461,-3.6547546359185175,-2.0517437321392147,0.4303286316987579
13.86937419,-5.223202284715186,-1.0602557475948793,0.4052649162244959
13.87415049,-6.796478362786904,-0.015688130295074335,0.3718849323527633
13.87891346,-8.35825104899001,1.072126030252983,0.3288917892281997
13.88370304,-9.892324338552504,2.1924433967427124,0.27516536011082054
13.88847934,-11.382896868498317,3.3337199322359683,0.20981087888854938
13.89324231,-12.814810138071634,4.483741512513301,0.13220276676647366
13.8980319,-14.173780043865532,5.629773362994938,0.04202173026095155
13.90280815,-15.446606125099365,6.758725343651983,-0.06071667258874927
13.90757112,-16.621353617317585,7.857329499999848,-0.17564353643158875
13.9123607,-17.687504304168286,8.912325853872844,-0.30202936137726777
13.917137,-18.636073187785616,9.910652147851458,-0.43878880120728286
13.92189997,-19.459689112601414,10.839633198473805,-0.5844976817245026
13.92668955,-20.152638622090667,11.687165662494376,-0.737422077022561
13.93146586,-20.710873466833558,12.441894370082213,-0.895558746758193
13.93622882,-21.131983297956644,13.093376903157454,-1.0566857642433765
13.94101841,-21.415136158081737,13.63223375202287,-1.2184217139191793
13.94579466,-21.560990388952778,14.050282110532335,-1.3782914298097328
13.95055763,-21.571582446065836,14.34065209854528,-1.5337959196927407
13.95534726,-21.450195760062037,14.497884851431643,-1.6824839096798194
13.96012351,-21.201216141006366,14.518012418619731,-1.822022368974216
13.96488648,-20.82997926550203,14.398619728191404,-1.9502634270230015
13.96967606,-20.342615557237103,14.138889009946235,-2.065305251895849
13.97445237,-19.745897339570842,13.739627066075524,-2.165544696315857
13.97921534,-19.047092572025484,13.203275685652393,-2.2497198206754287
13.98400492,-18.25382883081712,12.533905357821787,-2.3169407616042648
13.98878117,-17.37397049052829,11.737192280238727,-2.366707823192594
13.99354414,-16.41551133467076,10.820378508524902,-2.398916116395925
13.99833372,-15.386484088506494,9.792214968782453,-2.4138465483520264
14.00311002,-14.2948876460882,8.662886973294771,-2.41214345563099
14.00787299,-13.148632067564263,7.443921850697375,-2.394779673886848
14.01266257,-11.95550076032517,6.148078335795064,-2.3630103293927354
14.01743888,-10.723128637448802,4.789217469911361,-2.3183171072812265
14.02220185,-9.458994482929052,3.3821549481536266,-2.2623451713059373
14.02699143,-8.170425262567324,1.94249512111249,-2.1968352522942833
14.03176768,-6.864609719848859,0.486447217857257,-2.123553662558291
14.03653065,-5.548618304602016,-0.9693751971311981,-2.0442231141196316
14.04132028,-4.22942631355889,-2.408169994712591,-1.960457210382892
14.04609653,-2.9139370860520137,-3.8131753467569323,-1.8737013415790114
14.0508595,-1.6090021986150445,-5.16790890762728,-1.7851824477163092
14.05564908,-0.3214358368541044,-6.456413856597286,-1.6958697288170417
14.06042539,0.9419791157493148,-7.663507668825073,-1.6064478977298264
14.06518836,2.1744952556840365,-8.77502883506705,-1.5173040101818778
14.06997794,3.3694165097589552,-9.778076168107594,-1.4285283012248462
14.07475424,4.520126404668859,-10.66123485553816,-1.3399288432554706
14.07951721,5.620128790149182,-11.414783086558565,-1.2510592566151384
14.08430679,6.663100322855573,-12.030872941103366,-1.1612581799627224
14.08908304,7.642953322072216,-12.503679331854416,-1.0696987498034387
14.09384601,8.553906996900837,-12.829511185519873,-0.9754459225957014
14.0986356,9.390564581300863,-13.006879794786148,-0.8775190821435273
14.1034119,10.147993664257678,-13.03652041890126,-0.7749570558022962
14.10817487,10.821807002591456,-12.92136478053325,-0.6668825172708697
14.11296445,11.40824131811354,-12.666464047309193,-0.5525628530900634
14.11774075,11.904231904115317,-12.278864045219724,-0.4314648883989332
14.12250372,12.307481179096376,-11.76743659495735,-0.30330130412081496
14.1272933,12.616519556184176,-11.142672748182239,-0.16806702838270687
14.13206955,12.830757139966185,-10.416445152817321,-0.026064294208789657
14.13683252,12.950524858548045,-9.601747721005069,0.1220845708550563
14.14162216,12.977103739434781,-8.712421219035647,0.27543717338431034
14.14639841,12.91274118418633,-7.762873395241523,0.43274401083496933
14.15116138,12.76065330925113,-6.767801872235713,0.5924739604393664
14.15595096,12.525012698207396,-5.741927320216783,0.7528513669781234
14.16072726,12.210921236943419,-4.699743467488651,0.9119032829721169
14.16549023,11.824368055221326,-3.6552893646369493,1.0675149764574652
14.17027981,11.372172956747011,-2.6219480718452437,1.2174914916518076
14.17505612,10.861916071866524,-1.6122746522408784,1.359622842064216
14.17981908,10.301854796362683,-0.6378550890810217,1.4917503335811615
14.18460867,9.700829362907598,0.2908034434595102,1.6118315460680597
14.18938492,9.06815860449249,1.1643515883050486,1.7180016325480771
14.19414789,8.413527598660572,1.9746476239828235,1.8086288120449998
14.19893752,7.746868928528166,2.7147803411498947,1.8823622210371094
14.20371377,7.078239271311805,3.3790677527762933,1.938170630996518
14.20847674,6.417692943071038,3.9630347617061332,1.9753709163586304
14.21326632,5.775153910481409,4.463373092844326,1.9936455521817436
14.21804263,5.160287648979409,4.87788683660402,1.9930488225462673
14.2228056,4.582374100169009,5.205426869487006,1.9740018217482314
14.22759518,4.050182875470325,5.445817242841912,1.9372767219868943
14.23237148,3.5718517836316415,5.599776387937547,1.8839711504449395
14.23713445,3.1547697400328913,5.66883569798693,1.8154738489181972
14.24192403,2.805465147444275,5.655257734908708,1.7334230654759968
14.24670028,2.529500909946161,5.561955984786878,1.6396593404000532
14.25146325,2.3313773380994403,5.392417761190327,1.5361744936365551
14.25625289,2.2144443109100127,5.150631536574265,1.425058696851024
14.26102914,2.1808241684583236,4.84101967374309,1.308447518985528
14.26579211,2.231346907828562,4.46837723549844,1.1884707691667853
14.27058169,2.365499330664382,4.037817274091677,1.067204826018141
14.27535799,2.581389824578681,3.5547227452089865,0.946629942710794
14.28012096,2.8757304299455066,3.0247049558806576,0.8285937607837839
14.28491054,3.2438377301727734,2.4535682448579883,0.7147819630107535
14.28968679,3.67965390494354,1.8472804124554305,0.6066966569504177
14.29444981,4.17578901498023,1.2119482694500077,0.5056427180094066
14.2992394,4.723585259052585,0.5537975621142833,0.41272194905322496
14.30401565,5.313203567373667,-0.12084355267561049,0.32883455164939923
14.30877862,5.933732473083158,-0.8055583712189764,0.254687071234533
14.3135682,6.57331874009386,-1.493853785210711,0.1908056918633103
14.3183445,7.219318733025297,-2.1791716843424616,0.13755353061898667
14.32310747,7.85846901304149,-2.854900636627975,0.09515043130287047
14.32789705,8.477074156758192,-3.5143888925415543,0.06369369416262756
14.33267336,9.061209346904807,-4.150959780958715,0.04317821089727682
14.33743632,9.59693488791041,-4.7579305781319245,0.03351460125094024
14.34222591,10.070519461616318,-5.328635931339738,0.03454415824617798
14.34700216,10.468668655168612,-5.856456899859075,0.0460496844613577
14.35176513,10.778755059232967,-6.334856628227495,0.06776161955432194
14.35655471,10.989046043901402,-6.7574235779890515,0.09935919809140033
14.36133101,11.088925165914203,-7.117923100149154,0.1404667166870152
14.36609398,11.069103040792946,-7.410357918660118,0.19064531237279075
14.37088356,10.92181343279311,-7.62903780721107,0.24938094633981647
14.37565987,10.64099029244387,-7.768658376234359,0.31606954134298343
14.38042284,10.222421532789632,-7.824388451600702,0.39000043400325307
14.38521242,9.66387550785809,-7.791965035833278,0.47033947180878116
14.38998872,8.965196457559081,-7.6677943167343905,0.5561132015654787
14.39475169,8.128365615197575,-7.4490566494406965,0.6461956484104001
14.39954127,7.157525228326933,-7.133812909574375,0.7392991564329271
14.40431752,6.058963408372929,-6.721109121972826,0.8339706416286115
14.40909382,4.841058490095334,-6.21107583890122,0.9285943934397529
14.41387007,3.5141824436712734,-5.605018406336882,1.021402263275338
14.41864638,2.0905638363719126,-4.9054940545937535,1.1104917220607122
14.42340935,0.5841118792591501,-4.116371717860688,1.193851889334172
14.42819893,-0.9897958038365897,-3.2428706559437743,1.2693972657222032
14.43297523,-2.6145579238495413,-2.291574337010626,1.3350085538618703
14.4377382,-4.272621944812189,-1.2704166431640596,1.388579627761814
14.44252778,-5.945778350200595,-0.18863826545887857,1.428069399112416
14.44730403,-7.615470119696805,0.9432878705227979,1.4515570304609928
14.452067,-9.263110160771111,2.113762209708522,1.4572986739396436
14.45685658,-10.870399041902148,3.310194101951196,1.4437836978812644
14.46163289,-12.419635220329843,4.519165005052424,1.409788231728269
14.46639586,-13.894010069283857,5.726616010061141,1.35442383190895
14.47118544,-15.277880401011119,6.918055397046803,1.2771791521604372
14.47596174,-16.557011849331797,8.078781176378897,1.1779526822027853
14.48072471,-17.718787394029388,9.194113042409386,1.0570748840034618
14.48551429,-18.752376432830967,10.249627876867487,0.9153183911259121
14.49029054,-19.648861075516376,11.231392888833753,0.7538953323579428
14.49505351,-20.40131768919846,12.126190663229194,0.5744412866735227
14.49984315,-21.004853114078156,12.92173080635829,0.37898586646891225
14.5046194,-21.456596356868133,13.60684351558088,0.16991045716268688
14.50938237,-21.755647923154633,14.171651235183472,-0.050105792382880696
14.51417195,-21.9029902330912,14.607715543389029,-0.27815005638863854
14.51894825,-21.90136371994677,14.908157472909236,-0.5111477864675864
14.52371122,-21.755114158724833,15.067750505142907,-0.7459398985595804
14.5285008,-21.470017429975883,15.082986394711927,-0.9793622986650237
14.53327711,-21.05308824124202,14.952114696453979,-1.2083247787202458
14.53804007,-20.512379311575767,14.675157349856503,-1.429886402275491
14.54282966,-19.856777231821788,14.253899946189934,-1.6413247158207085
14.54760591,-19.095800724426667,13.691861409412356,-1.8401964339241592
14.55236888,-18.239406410457764,12.994243813213096,-2.02438763136324
14.55715846,-17.297806494715058,12.16786397311465,-2.1921519160106455
14.56193476,-16.281302031362767,11.221068324047913,-2.3421355385228244
14.56669773,-15.200134653490718,10.163632442419518,-2.473388904913229
14.57148731,-14.064358859081777,9.00664641345955,-2.585364479731873
14.57626362,-12.88373615941584,7.7623870917440065,-2.677901583396112
14.58102658,-11.667651626487809,6.444178167483621,-2.751199080288097
14.58581617,-10.425052633299632,5.0662388485147485,-2.805777406914014
14.59059242,-9.164408876320437,3.6435219144374984,-2.8424317807710024
14.59535544,-7.893692119644242,2.1915419092202,-2.8621787375322003
14.60014502,-6.620373526621963,0.7261943210460758,-2.866198347422337
14.60492127,-5.351435968716107,-0.7364332428801256,-2.855774551439307
14.60968424,-4.093398340808456,-2.1802566439703917,-2.8322360357338066
14.61447382,-2.8523486780714142,-3.5893960133348015,-2.7968999382734947
14.61925013,-1.6339827652511614,-4.9483798481449455,-2.751020471935915
14.6240131,-0.44364495376151514,-6.2423500676330415,-2.695744271590081
14.62880268,0.7136319458200131,-7.4572652480047825,-2.632073949216669
14.63357898,1.8330905485095548,-8.580098809144108,-2.5608409873718827
14.63834195,2.910219004523271,-9.59902850852608,-2.4826887284096366
14.64313153,3.940729260872276,-10.503613242280327,-2.398065831483827
14.64790778,4.920544789169282,-11.28495289523873,-2.3072301776589184
14.65267075,5.84579842691289,-11.935826859018148,-2.2102628118619148
14.65746039,6.7128403098824805,-12.45080689085459,-2.1070911196934934
14.66223664,7.518255260141928,-12.826340259511605,-1.9975200416062497
14.66699961,8.258888499935566,-13.060799658610598,-1.8812697347118907
14.67178919,8.931878241314374,-13.15449718693807,-1.7580177512139064
14.67656549,9.53469357458602,-13.109660790574624,-1.6274435866790173
14.68132846,10.06517610379295,-12.930372876154156,-1.489273408179758
14.68611804,10.521583864127287,-12.622472235608983,-1.3433228869645257
14.69089434,10.902636120195888,-12.193421842321264,-1.1895362756862005
14.69565731,11.20755764982211,-11.652146362124757,-1.0280201256659287
14.7004469,11.436121077088304,-11.008844275143764,-0.8590702946949851
14.70522315,11.588685764766977,-10.27478027399729,-0.6831911420032107
14.70998612,11.666231747606359,-9.462064077028781,-0.5011060667749274
14.71477575,11.670387212873809,-8.583421981802235,-0.31375885137854803
14.719552,11.603448127297696,-7.651967403989708,-0.12230563205225785
14.72431497,11.46838877167694,-6.680976325171669,0.07190227881049478
14.72910455,11.268862168536605,-5.6836730414330905,0.2673440865906557
14.73388086,11.009189657373282,-4.673030901613282,0.4623627124362885
14.73864382,10.694339161762205,-3.6615918938291645,0.6552041616313273
14.74343341,10.329891980335248,-2.661308027457061,0.8440614884260175
14.74820971,9.921998207006393,-1.6834065096379833,1.0271216346300738
14.75297268,9.477321140733498,-0.7382797718369416,1.2026133571111235
14.75776226,9.002971278238675,0.16459949938565693,1.3688544694200773
14.76253856,8.506430688399476,1.0167389982273853,1.5242966904432456
14.76730153,7.9954687388787065,1.8106644908431941,1.6675665092647411
14.77209112,7.478050282996065,2.5399365363496105,1.7975006360148318
14.77686737,6.962237520111182,3.1991486497711934,1.9131748099307502
14.78163034,6.456086816837646,3.783909603937865,2.013924974271783
14.78641992,5.967541819329264,4.290812705373438,2.0993600995066504
14.79119622,5.5043242036636935,4.7173948847022995,2.1693662374457396
14.79595919,5.07382341505447,5.062088334626669,2.2241017135514354
14.80074877,4.682986755153186,5.324167230752789,2.263983702396279
14.80552507,4.3382112048496415,5.503691806748317,2.2896667680670255
14.81028804,4.04523842042762,5.601451749121143,2.3020142711630407
14.81507763,3.8090544022249304,5.61891054816631,2.302063831274918
14.81985393,3.6337953904851528,5.558152104465677,2.290988274520701
14.82461685,3.5226615823673355,5.4218305538901,2.2700536779221623
14.82940648,3.477840285302711,5.213123945261601,2.240576236035242
14.83418273,3.500440126392834,4.935692090969176,2.203879711829429
14.8389457,3.590437923447444,4.5936386199228565,2.161255187173611
14.84373528,3.7466397832911,4.191477001814589,2.113924696783582
14.84851158,3.966657916187792,3.734100088467378,2.0630101182023686
14.85327455,4.246904529964359,3.226752538899804,2.009508411206578
14.85806414,4.582603983925931,2.6750053661214737,1.954273969635012
14.86284044,4.967824135520378,2.084731769242936,1.8980084864204425
14.86761669,5.395527502467638,1.4620833924889796,1.8412583593673275
14.87239299,5.857642496824468,0.8134661759758138,1.7844193013461727
14.87716924,6.34515457801503,0.14551502115241327,1.7277474816377552
14.88193221,6.8482167350517384,-0.5349334245777602,1.671376228716751
14.88672184,7.356278259525296,-1.2208704641920902,1.6153370795462034
14.8914981,7.8582303243500515,-1.9051480270620282,1.5595837766461138
14.89626106,8.342566452331036,-2.5805147214738864,1.5040177023101917
14.90105065,8.797555558557935,-3.239655561824968,1.448513208426733
14.90582695,9.211424898115618,-3.8752355753540866,1.3929413549419658
14.91058992,9.572549961404048,-4.479947407096631,1.3371907081841954
14.9153795,9.869648144368051,-5.046562965369085,1.281184063664631
14.9201558,10.09197288181694,-5.5679890861455315,1.2248902322544353
14.92491877,10.22950485943137,-6.03732714339351,1.1683303439878394
14.92970836,10.273136897969106,-6.447936489564309,1.111578456600401
14.93448461,10.21484911765001,-6.793501566492328,1.054756583148707
14.93924763,10.047871036434225,-7.068102467795571,0.9980245570404388
14.94403721,9.766827337334202,-7.266288644321555,0.9415654238039178
14.94881346,9.36786416916158,-7.383155313724592,0.8855672826487253
14.95357643,8.848753038102263,-7.4144219607357975,0.8302026931270431
14.95836601,8.208969617393695,-7.356512098355134,0.7756069054050468
14.96314231,7.449745153390267,-7.206633207038536,0.7218562569239749
14.96790528,6.574088572805229,-6.962855486416526,0.6689480955391691
14.97269487,5.586777887562273,-6.624187753416279,0.6167835358070108
14.97747117,4.494320041935599,-6.190648518225056,0.565154230047875
14.98224742,3.3048789475221416,-5.663329987440258,0.5137341403600819
14.98702372,2.0281721049256576,-5.044452509817041,0.4620770411026053
14.99179997,0.6753369184418582,-4.337406826707454,0.40962018904443
14.99656299,-0.7412314291831407,-3.5467814505261654,0.35569430839263677
15.00135257,-2.208067870200534,-2.6783726000761683,0.29953978033435097
15.00612882,-3.7108476188672355,-1.7391743900607934,0.24032870522034097
15.01089179,-5.234614321232829,-0.7373474061589196,0.17719229997917949
15.01568138,-6.7640211851865155,0.3178356186790403,0.10925288015904865
15.02045768,-8.283579516110885,1.416067607225013,0.035659446770069776
15.02522065,-9.777908693382438,2.5461082180815464,-0.04437433637185469
15.03001023,-11.23198144443271,3.69590718451513,-0.13153120684517072
15.03478653,-12.631358325656516,4.852748089935967,-0.2263520167896015
15.0395495,-13.962405611079538,6.003410010974321,-0.32919980828025774
15.04433908,-15.212491312478331,7.134343809184486,-0.44022797514950013
15.04911534,-16.370154784300546,8.231859334142738,-0.5593541374431134
15.0538783,-17.425246266887232,9.282319441400372,-0.6862411521825988
15.05866794,-18.369033747821405,10.272336547942784,-0.8202863988005602
15.06344419,-19.19427562523522,11.18896745772789,-0.9606201382456494
15.06820716,-19.895258792139995,12.019902394079354,-1.1061133764371136
15.07299674,-20.467802887822927,12.75364456374728,-1.2553952809406965
15.07777304,-20.909232548585702,13.379677119599394,-1.4068798104471565
15.08253601,-21.218320505784213,13.888615036843085,-1.5588008236282556
15.0873256,-21.395205288213543,14.27234011049639,-1.7092545500589107
15.0921019,-21.44128803600626,14.524117952035894,-1.856247958741817
15.09686487,-21.359113458333415,14.638696442626243,-1.997751283168705
15.10165445,-21.152240211833558,14.612385532807513,-2.1317527789783157
15.1064307,-20.82510592702421,14.443118537944978,-2.256313704832555
15.11119367,-20.38289180308253,14.130495178496554,-2.3696215185512126
15.11598325,-19.831391193607804,13.675806595572524,-2.4700393545523838
15.12075955,-19.17688598229929,13.082042482536536,-2.556149984682678
15.12552252,-18.426033846734157,12.35388035094425,-2.6267926579319827
15.13031211,-17.5857687648946,11.497656821724362,-2.681091463979077
15.13508841,-16.6632163594099,10.521320720962612,-2.7184741679279147
15.13985138,-15.66562492347786,9.434367680206535,-2.7386808110658047
15.14464096,-14.600312254339824,8.24775590635428,-2.741761753498112
15.14941726,-13.474627753871346,6.973802805827645,-2.7280652370609797
15.15418023,-12.295928651788122,5.626062231024965,-2.698214959766787
15.15896981,-11.071568672581414,4.219182272934959,-2.6530785642551655
15.16374606,-9.808897012895478,2.768743759323342,-2.593728336748818
15.16850903,-8.51526513433543,1.2910799364173973,-2.521395769491142
15.17329867,-7.198038621085444,-0.19692178735583651,-2.4374219354999664
15.17807492,-5.864611215194584,-1.6780346793208276,-2.3432058372069995
15.18283789,-4.522418132933137,-3.1349222006482234,-2.2401530008862376
15.18762747,-3.17894588206288,-4.550379703884327,-2.1296265837628217
15.19240377,-1.8417360327290244,-5.907585173423103,-2.0129031370725707
15.19716674,-0.5183807297316906,-7.190355220824256,-1.891134933214332
15.20195632,0.7834918449862046,-8.383401904627345,-1.765320433464171
15.20673263,2.0562433597840064,-9.47258534149116,-1.6362840646570533
15.2114956,3.2922633243365937,-10.44515654673493,-1.5046660134873047
15.21628518,4.484019348613811,-11.289984525855461,-1.3709222649864772
15.22106143,5.624119215866626,-11.99776137528595,-1.2353346385769919
15.2258244,6.70538368620451,-12.561179084328362,-1.098030134767982
15.23061403,7.720928334244108,-12.975071907962832,-0.9590085021915951
15.23539028,8.664252172592422,-13.236518652777667,-0.8181765570436211
15.24015325,9.529330389932781,-13.3449000372726,-0.6753874435943825
15.24494284,10.31070831238177,-13.3019074939626,-0.530482771434603
15.24971914,11.00359371924063,-13.11150137733764,-0.38333547214946967
15.25448211,11.603944875691909,-12.779818464230807,-0.23389130137302366
15.25927169,12.108551984026825,-12.315030736447506,-0.08220711959900845
15.26404799,12.515110084961849,-11.727159514666154,0.07151565982090721
15.26881096,12.822281687799418,-11.027850854700445,0.2269038246709813
15.27360054,13.029747566611332,-10.230119561460079,0.3833924868303122
15.27837679,13.138244275166914,-9.348070146562206,0.5402135665141993
15.28313981,13.149587067036878,-8.396603550592648,0.6963934365344213
15.2879294,13.066677102936984,-7.3911185084690745,0.8507602596830492
15.29270565,12.893492096546044,-6.347216108982232,1.0019611873176142
15.29746862,12.63505987675911,-5.28041544747001,1.1484891373928046
15.3022582,12.297414703407652,-4.20588735951356,1.2887183841600633
15.3070345,11.887536547937374,-3.138212120479002,1.4209477290437027
15.31179747,11.413273934378187,-2.0911657642706207,1.5434496313526231
15.31658705,10.88325132347181,-1.0775383746617633,1.6545233856791495
15.32136336,10.306762397637474,-0.10898639134034702,1.7525502467249623
15.32612632,9.69365093847512,0.8040802949964017,1.8360483161612058
15.33091591,9.054181252184076,1.6525768580771236,1.9037250121435196
15.33569221,8.398900274347305,2.42878909869771,1.9545250362720195
15.34045518,7.7384935746320815,3.126388360528944,1.9876719334708328
15.34524476,7.083637495656381,3.740418789089987,2.0027016024752236
15.35002101,6.444849611350212,4.2672604167310855,1.9994864456711592
15.35478398,5.832339592246978,4.704571861707257,1.9782492264130387
15.35957362,5.255862438668929,5.051216559843843,1.9395661055609177
15.36434987,4.724575913942813,5.307176423619025,1.88435873593784
15.36911284,4.246903900504522,5.4734566713992105,1.813875690771028
15.37390242,3.8304073214743877,5.551985316520417,1.729663883872947
15.37867872,3.4816642171285004,5.545510478575026,1.633531000603811
15.38344169,3.2061605320744935,5.457498301513433,1.5275002911390885
15.38823127,3.0081931454029625,5.292033854887343,1.4137593681229148
15.39300757,2.890786653079133,5.053726971532111,1.2946048840805109
15.39777054,2.8556253807747662,4.747624549985966,1.172385125420886
15.40256013,2.903002058246145,4.37913043429739,1.0494426366146183
15.40733643,3.031784514162923,3.9539335879243915,0.9280589690044719
15.4120994,3.2394016418851375,3.4779449106060563,0.8104035265096311
15.41688898,3.5218497307056142,2.9572427135675587,0.698488256358793
15.42166523,3.8737200448914155,2.3980265745739175,0.5941296183250592
15.4264282,4.288248259998942,1.8065790455159019,0.4989188798156977
15.43121778,4.7573860329808495,1.1892344848870013,0.4142013496324956
15.43599408,5.271894597813873,0.5523541351632446,0.34106470542604345
15.44075705,5.82145985808724,-0.09769354371933017,0.2803361155755633
15.44554664,6.394828010440623,-0.7545483455983646,0.2325874329908596
15.45032294,6.9799602915516745,-1.4118706974632573,0.19814737252725403
15.45508591,7.564205006699812,-2.0633520705800747,0.17711929757200734
15.45987549,8.134484581631611,-2.7027245501471175,0.16940305074969492
15.46465179,8.67749499630328,-3.3237706799759628,0.17471917710536847
15.46941476,9.179914624135,-3.9203346764425118,0.19263390590158758
15.47420434,9.628619226525885,-4.4863360717101575,0.22258337094527367
15.4789806,10.010899648193185,-5.015786799109012,0.26389574366453444
15.48374356,10.31467862677765,-5.502812671452272,0.3158102092253522
15.4885332,10.528723065416246,-5.94168012095239,0.37749201530811166
15.49330945,10.642848109285124,-6.326828958668504,0.44804314878288043
15.49807242,10.648109403590897,-6.652911762370002,0.5265085313327533
15.502862,10.536979980081862,-6.914840307231615,0.6118779542866181
15.5076383,10.303508316945049,-7.107839210877532,0.7030842773043534
15.51241461,9.94345424757778,-7.227506673576395,0.7989986780176549
15.51719086,9.454399572645173,-7.269881860390236,0.8984239489724096
15.52196716,8.835830478503675,-7.231518104123156,1.0000869898650349
15.52674341,8.08918919976751,-7.1095607189085595,1.1026317359011368
15.53151971,7.217892788447692,-6.90182781798355,1.2046137954965421
15.53629601,6.227317362536764,-6.606892139173461,1.3044980397690524
15.54105898,5.124746799095907,-6.224161512740876,1.400660288799582
15.54584856,3.9192855088931284,-5.753955277468993,1.4913940717278844
15.55062481,2.621735678930624,-5.19757368713447,1.5749231989979056
15.55538778,1.244440191040886,-4.557357181826775,1.649420586106532
15.56017737,-0.19890668959172952,-3.8367323607451316,1.7130334360910864
15.56495367,-1.6934778308539993,-3.0402416158867718,1.7639145582232238
15.56971664,-3.2235569873134224,-2.1735536891019316,1.8002592966448243
15.57450622,-4.772802919297615,-1.2434528997796195,1.8203472636187192
15.57928252,-6.324528196879953,-0.2578054371360378,1.8225877994917252
15.58404549,-7.861986345426822,0.7744981181578122,1.8055678015825938
15.58883507,-9.368660512351498,1.8436240306802287,1.768100283349943
15.59361132,-10.82854657349457,2.9388995160013023,1.7092717707448997
15.59837435,-12.226423574667601,4.048937964052313,1.6284864530438858
15.60316393,-13.548104632771,5.1617827249442305,1.5255049190954537
15.60794018,-14.780661902510301,6.265066201825818,1.400475357237797
15.61270315,-15.912619936402804,7.346180442380567,1.2539552927580753
15.61749278,-16.93411270189927,8.392455049832938,1.0869222711770796
15.62226903,-17.837000631420747,9.391338067313784,0.9007723336094451
15.627032,-18.614945317806225,10.330575534124552,0.6973056231751178
15.63182158,-19.26344077483232,11.198385664376348,0.4786989686942098
15.63659789,-19.779801519822893,11.983624039309227,0.24746579816111075
15.64136086,-20.163109082896774,12.675936801549216,0.006404245658612041
15.64615044,-20.414119888001252,13.265899548694087,-0.24146516223432216
15.65092674,-20.535138741425072,13.745140392266633,-0.49297033772920174
15.65568971,-20.52986331897502,14.106446411879716,-0.7448646143918859
15.66047929,-20.40320595154216,14.343853416398959,-0.9939071644975275
15.66525554,-20.16109957561373,14.452719449022865,-1.2369439408555287
15.67001851,-19.81029490698518,14.429782796536976,-1.47098620274845
15.67480815,-19.35815574809708,14.273205386484092,-1.693283799277245
15.6795844,-18.812458924513987,13.982602418070211,-1.9013906119189736
15.68434737,-18.181204735783332,13.559058922929143,-2.0932198765581123
15.68913695,-17.472443055741625,13.0051337337096,-2.267087495127801
15.69391325,-16.694119368674713,12.324851085545745,-2.421741893763235
15.69867622,-15.85394411294426,11.523679814862577,-2.556379474155711
15.7034658,-14.959287749211972,10.608499873916477,-2.670645222163425
15.70824211,-14.017102998863175,9.587555665796215,-2.7646185656420634
15.71300507,-13.033874729856063,8.470395537519419,-2.8387850952902562
15.71779466,-12.015597021238744,7.267796660855588,-2.893995264399174
15.72257096,-10.96777603434746,5.9916744939667055,-2.931411655057313
15.72733393,-9.895456480902482,4.65497606403156,-2.9524468280019565
15.73212351,-8.80326872967647,3.271556451813175,-2.958694144339338
15.73689976,-7.6954929567264765,1.856038099347062,-2.951854238709604
15.74166273,-6.576136239423477,0.42365290168646363,-2.93366001447249
15.74645231,-5.449018139261379,-1.0099325217657895,-2.9058031067071415
15.75122862,-4.31786012714916,-2.428807459353936,-2.869864710259541
15.75599158,-3.1863741864733406,-3.817022128333926,-2.827253497397406
15.76078117,-2.0583460845438513,-5.158804912719701,-2.779153059784693
15.76555747,-0.9377091247947213,-6.438788947774981,-2.7264809157971377
15.77032044,0.17139533372836566,-7.6422444705665455,-2.6698606449654565
15.77511002,1.2645736954671432,-8.755312663696571,-2.6096081682212664
15.77988632,2.3371546727676376,-9.765236079775107,-2.5457326088054293
15.78464929,3.384184135149581,-10.660580184686253,-2.4779515672229193
15.78943888,4.400440974238353,-11.431440137678868,-2.405720047243331
15.79421513,5.380473798113671,-12.069626677246113,-2.3282717009670546
15.7989781,6.318657385362071,-12.568824949253768,-2.2446705383453276
15.80376773,7.209267007826193,-12.924720350352414,-2.1538707851738903
15.80854398,8.04656802347313,-13.135086022778337,-2.054782196549348
15.81330695,8.824917598119528,-13.199827575918444,-1.9463378871380728
15.81809653,9.538875078348859,-13.12098194367873,-1.8275616835786537
15.82287284,10.183317419700586,-12.902668975759678,-1.6976321618174242
15.8276358,10.753556140905,-12.550996296562827,-1.5559408620991837
15.83242539,11.245452456918901,-12.073919978171467,-1.4021425894134296
15.83720169,11.655527465186502,-11.481065465584832,-1.2361961202506933
15.84196466,11.981064471070722,-10.78351478483507,-1.0583939997808607
15.84675424,12.220200730750415,-9.99356724249219,-0.8693804347308153
15.85153054,12.372006088444826,-9.124481548068438,-0.6701566136899398
15.85629351,12.43654622894107,-8.190207573791618,-0.4620731652992888
15.8610831,12.414928586764843,-7.205115851846771,-0.24680990828453223
15.86585934,12.309329356944707,-6.183732451889825,-0.026343529027193578
15.87062237,12.123000521364956,-5.140486141817586,0.19709570293515008
15.87541195,11.860256308567688,-4.089473776882129,0.42107664362061004
15.8801882,11.526439014507773,-3.044248752947711,0.643027513697547
15.88495117,11.1278646062472,-2.0176361652495554,0.8603015014433656
15.8897408,10.671748995375511,-1.021577096822077,1.070245381508895
15.89451705,10.166116290409054,-0.06700327667216482,1.2702687192351012
15.89928002,9.619690704423721,0.8362577550935083,1.457911253318253
15.90406961,9.041774094505149,1.679547820274508,1.6309061766651274
15.90884591,8.442111339098922,2.455415291785692,1.7872372553668243
15.91360888,7.8307459230464715,3.157626644052482,1.925188018542819
15.91839846,7.2178682081075705,3.781155205506633,2.043381592050796
15.92317476,6.6136589282209775,4.322150284229963,2.140810115035238
15.92793773,6.028130470290094,4.77789001451661,2.216853058479762
15.93272731,5.470968488997716,5.146721312122813,2.271284155604378
15.93750362,4.95137636414449,5.427990248104913,2.3042670510047696
15.94226658,4.4779249465935385,5.621965974862291,2.3163401689222978
15.94705617,4.0584099576469885,5.729761082473764,2.308391675671533
15.95183242,3.6997193068129097,5.753250947649514,2.2816257500230708
15.95659539,3.40771247131968,5.69499428063069,2.2375216625622336
15.96138502,3.1871139336562937,5.558156695612895,2.17778738773757
15.96616127,3.0414224992270666,5.346438744518902,2.104309620660626
15.97092424,2.972838115694263,5.06400947569019,2.019102137879914
15.97571382,2.9822075902788656,4.7154462174177025,1.9242544226565854
15.98049013,3.0689903516466,4.305680947417937,1.8218823682336134
15.9852531,3.231245128047176,3.839953300128823,1.714082678588297
15.99004268,3.4656381116993895,3.323769992350402,1.6028923122516128
15.99481898,3.7674728505412545,2.762870221121206,1.4902539745683014
15.99959523,4.130741755001973,2.1631964079607715,1.3779882774372685
16.00437153,4.54819873788936,1.530869528209029,1.2677727786317918
16.00914784,5.011452134321236,0.8721681676081918,1.1611277134679816
16.0139108,5.51107669211614,0.19351038300650197,1.059407867876312
16.01870039,6.036743094340927,-0.4985625976840971,0.9637997390710661
16.02347664,6.57736318349227,-1.1974018246884648,0.8753229082572366
16.02823961,7.121248806859743,-1.8962662200037692,0.794834422817694
16.03302924,7.656281999724049,-2.588339300407965,0.7230349589045247
16.03780549,8.170094071741921,-3.2667479871883307,0.6604756056962964
16.04256846,8.650251065432187,-3.924584416114811,0.6075642662235706
16.04735804,9.084443013005405,-4.5549316021356985,0.564570884604312
16.05213435,9.46067442045885,-5.150893739363233,0.5316309592351277
16.05689731,9.767453439940391,-5.705631828348565,0.508747060408013
16.0616869,9.99397723248778,-6.212405219335939,0.49578831955188823
16.0664632,10.13031105314904,-6.664619540255248,0.4924880848559289
16.07122617,10.167558593267094,-7.055881337277877,0.49844014009223125
16.07601575,10.098021083333588,-7.380059588262836,0.5130940581102409
16.08079205,9.915342601779441,-7.631354050330535,0.5357504052487153
16.08555502,9.61463897463619,-7.804370168832691,0.5655566251501568
16.09034461,9.192607622961159,-7.894200005438015,0.6015045087348992
16.09512086,8.64761575254361,-7.896508339429526,0.6424301993606163
16.09988388,7.97976440577382,-7.807622761304427,0.687017681782539
16.10467346,7.190926117239814,-7.624626216006842,0.7338066492221179
16.10944971,6.284754231978366,-7.345450073656773,0.7812055245007925
16.11421268,5.266662355335237,-6.9689654240810235,0.8275102248595411
16.11900226,4.143772906122657,-6.495069931298126,0.8709290103424506
16.12377856,2.9248343454065893,-5.924767277236118,0.9096134581422456
16.12854153,1.6201073596496902,-5.260236008065824,0.9416952871067773
16.13333112,0.24122109133024328,-4.504884508226157,0.9653284476914631
16.13810742,-1.1989985814691722,-3.6633888943958697,0.9787356126367427
16.14287039,-2.6867257500191752,-2.7417108592853894,0.9802579547989283
16.14765997,-4.20735223688637,-1.7470929043239722,0.9684068703439592
16.15243627,-5.745721604688453,-0.6880289695073496,0.9419160871977609
16.15719924,-7.28637386909895,0.4257908239841905,0.8997923918122579
16.16198882,-8.81379484547492,1.5835617871116494,0.8413630300775724
16.16676507,-10.312663767668775,2.7734722142004653,0.7663177193261307
16.1715281,-11.768092779786546,3.982835540528208,0.6747431772361948
16.17631768,-13.165852119159906,5.198244884127325,0.5671481530087684
16.18109393,-14.492575273644691,6.405746934380907,0.44447714957023066
16.1858569,-15.735939092247051,7.591031463923533,0.3081113534656632
16.19064648,-16.88481472746545,8.739632234947903,0.15985572812508453
16.19542278,-17.92938634866077,9.837134785311886,0.0019117503418873065
16.20018575,-18.861235736501143,10.869386528473893,-0.16316415410479126
16.20497534,-19.67339209849123,11.822704770433958,-0.3325158259797901
16.20975164,-20.360347692092578,12.684078601814896,-0.5030550088385577
16.21451461,-20.91804106534699,13.441361120296383,-0.6715396328884705
16.21930419,-21.343810878444053,14.083449031986637,-0.834660489056811
16.22408049,-21.636324295068416,14.60044732099589,-0.9891336295495612
16.22884346,-21.795484761721372,14.983817307705351,-1.1317955244180484
16.23363304,-21.822324556543506,15.226506974199507,-1.2596978151194087
16.23840929,-21.71888773570535,15.323062862928818,-1.370198443160521
16.24317226,-21.4881090301575,15.269723122566717,-1.461045989241391
16.2479619,-21.133693892966917,15.064491391772245,-1.530454224619524
16.25273815,-20.660004336297344,14.707191213196333,-1.577164141350252
16.25750112,-20.07195449157371,14.199500600369925,-1.6004910839507385
16.2622907,-19.374919025921177,13.544966277342173,-1.6003550458731077
16.267067,-18.57465669069933,12.74899700458619,-1.5772927130465362
16.27182997,-17.677250395595564,11.81883531736915,-1.5324504222318824
16.27661955,-16.68906432213847,10.763506952620538,-1.4675578359664003
16.28139586,-15.616717738902613,9.593747241960436,-1.384882795416186
16.28615882,-14.46707437940433,8.321903813272355,-1.2871684734556395
16.29094841,-13.247245510027687,6.961815080006372,-1.1775545901221562
16.29572471,-11.964604161618327,5.528664214624035,-1.059485049317225
16.30048768,-10.626807436699906,4.03880860830959,-0.9366048868096609
16.30527726,-9.241823351282182,2.5095852193577355,-0.8126498629356926
16.31005351,-7.81795834685701,0.9590927093005042,-0.6913323683325444
16.31481653,-6.363881435191904,-0.5940481450763887,-0.5762275202672835
16.31960612,-4.888640932749373,-2.1309536040927988,-0.4706633977512521
16.32438237,-3.4016699135389508,-3.6327527837619455,-0.3776192877229653
16.32914534,-1.9127768613925742,-5.08087645842182,-0.2996355888486445
16.33393497,-0.4321185284568986,-6.457354362118199,-0.2387386453534727
16.33871122,1.0298473088917715,-7.745115712414944,-0.19638326783548848
16.34347419,2.462430684313746,-8.928286935659237,-0.17341505498747858
16.34826377,3.8548004221005483,-9.992479910752056,-0.17005388114433317
16.35304007,5.1960968079734915,-10.925063507272712,-0.18589909065129331
16.35780304,6.4755644335703755,-11.715410814039412,-0.21995608163940714
16.36259263,7.6827026269186325,-12.355114280402764,-0.27068311246056065
16.36736893,8.807429842344696,-12.838161075493137,-0.33605635752408153
16.3721319,9.840257432678156,-13.161061371052199,-0.41365049123715486
16.37692148,10.772467449473368,-13.322923047554886,-0.5007314031744289
16.38169778,11.596288631772584,-13.325467603322402,-0.5943570938572791
16.38646075,12.305064657723824,-13.172983896538858,-0.6914824628130481
16.39125034,12.893409059473921,-12.872218779441894,-0.7890636629665319
16.39602658,13.35734182281558,-12.432206543125737,-0.8841579551530537
16.40078961,13.694403428757596,-11.86404205783911,-0.9740154522921537
16.40557919,13.90374281318349,-11.180605176935426,-1.0561596682342624
16.41035544,13.98617639045676,-10.39624607285437,-1.1284543138428378
16.41511841,13.944215942865126,-9.526442565733584,-1.1891543231677941
16.41990799,13.782063871945297,-8.587441206824982,-1.2369396976357918
16.42468429,13.505575074894393,-7.595893968527992,-1.2709314701586472
16.42944726,13.12218555451372,-6.568501957569228,-1.2906899114008656
16.43423684,12.640808769953006,-5.521676691237184,-1.296195963724277
16.43901315,12.071701645457408,-4.471228242911944,-1.2878176934720218
16.44377612,11.42630303170117,-3.4320880574997643,-1.2662642069835808
16.4485657,10.717048223846767,-2.4180725403110914,-1.2325299292492597
16.453342,9.95716385036382,-1.4416917075702058,-1.1878323863681726
16.45810497,9.160448017160286,-0.5140053230191411,-1.1335466762425936
16.46289455,8.341040974380768,0.35547289410838917,-1.0711396796572505
16.46767086,7.513191726889766,1.158824142057659,-1.0021067899267426
16.47243382,6.691025918586934,1.8897292034998896,-0.9279135651349376
16.47722341,5.888320003055518,2.543432939556829,-0.8499442727446703
16.48199971,5.118286211145311,3.1166736798260652,-0.7694588329485179
16.48676263,4.393372192048223,3.6075833090303404,-0.6875591953619331
16.49155226,3.725078489592516,4.0155642800145515,-0.6051657183112233
16.49632851,3.123796267855184,4.341149927099483,-0.5230036735091267
16.50109148,2.598666964159833,4.585854342772905,-0.44159958222545226
16.50588112,2.157464863556514,4.752017752370225,-0.36128671154629327
16.51065737,1.8065029929368528,4.84265281972436,-0.28221873014945187
16.51542034,1.5505622514788082,4.861296689003273,-0.20439025155797524
16.52020992,1.3928433354319116,4.811872860748923,-0.12766278665071576
16.52498622,1.3349407675383005,4.698566253928304,-0.05179449020078344
16.52974919,1.3768381818033781,4.52571405021937,0.023527980689201675
16.53453877,1.516923919993726,4.297714170222019,0.09865717509897613
16.53931507,1.7520259486918588,4.018952504699103,0.17395372952977234
16.54407804,2.0774650901443503,3.6937493254172638,0.24975788731381438
16.54886763,2.487125563248239,3.3263246391449974,0.3263649197179947
16.55364393,2.9735418397303937,2.9207816377906,0.4040054571160514
16.55842018,3.5280008220067787,2.4811068519831476,0.48283144018844093
16.56319648,4.140658332038535,2.0111851461885717,0.5629080709293318
16.56797278,4.800668856188015,1.5148273070442153,0.6442117954613091
16.57274903,5.496327414615225,0.9958076753732937,0.7266340029015345
16.57752534,6.2152223145882735,0.4579090567546576,0.8099897967653021
16.58230158,6.944397409923003,-0.09502798542255086,0.8940309075281425
16.58706461,7.6705223332297345,-0.6590543994574867,0.9784615845843604
16.59185419,8.380069006147828,-1.2300633933601814,1.0629561467361948
16.59663044,9.059492577050504,-1.803745474621695,1.1471767916703035
16.60139341,9.695414793397125,-2.3755504228695132,1.2307902709360505
16.60618299,10.274807689869366,-2.9406585997862473,1.3134821276558968
16.61095929,10.785175366284701,-3.493963704699785,1.3949673658484558
16.61572226,11.214731549028105,-4.030068735470013,1.4749966654046287
16.62051184,11.552570589533985,-4.543296520290678,1.5533575624097133
16.62528815,11.788829564612103,-5.027715756153858,1.6298703599967446
16.63005112,11.914839207580766,-5.477183034779632,1.704378893669836
16.6348407,11.923261504306716,-5.8854008669778395,1.7767366209959035
16.639617,11.808211914065698,-6.245991239423951,1.8467888198317735
16.64437997,11.565364302640367,-6.552583759869105,1.914351951046764
16.64916955,11.192036793554317,-6.798916975325201,1.9791914632926062
16.65394586,10.687256854094143,-6.978950993146712,2.040999479491334
16.65870882,10.051804050511599,-7.08698910945406,2.099373897454308
16.66349841,9.288229053631703,-7.117805765103579,2.153800452639889
16.66827466,8.400847668704992,-7.066777816642029,2.2036392232749575
16.67303763,7.395708906678803,-6.9300158357304,2.2481169019136784
16.67782726,6.280536408601184,-6.7044919399924305,2.2863259138350616
16.68260351,5.064642885682982,-6.388160514876152,2.3172311424579863
16.68736648,3.7588176523197387,-5.980068115356648,2.3396846444151116
16.69215606,2.375187811213982,-5.480448847675658,2.352448325598187
16.69693237,0.927054197317165,-4.8908016406297925,2.354224131794555
16.70169534,-0.5712961996121659,-4.213946045880836,2.343690915665157
16.70648492,-2.1047989354494114,-3.4540535825904723,2.3195468075072254
16.71126122,-3.657838803198708,-2.6166521816582,2.2805556594878498
16.71602419,-5.214490627775073,-1.7086019903475091,2.2255959489355712
16.72081377,-6.758769551535529,-0.7380416480982427,2.1537103958439605
16.72559007,-8.274885561806313,0.28569490318589513,2.064154452212696
16.73035304,-9.747496511449967,1.3521900105269427,1.9564417493197233
16.73514263,-11.161953557239837,2.4500802450337265,1.8303845539233528
16.73991888,-12.504532824078318,3.567217682068678,1.6861273088559885
16.7446819,-13.76264723002304,4.690850680225769,1.5241714464434901
16.74947148,-14.925032801829596,5.807819599502375,1.3453898892555722
16.75424773,-15.98190447568245,6.904762363269958,1.1510299982477137
16.7590107,-16.925077287197936,7.968324452095383,0.9427041733895918
16.76380034,-17.748049957995356,8.985367851509544,0.7223678167962876
16.76857658,-18.44604911822528,9.943173674765225,0.4922848917589813
16.77333955,-19.01603370084185,10.829633637179047,0.25498182412362297
16.77812914,-19.456660353169767,11.633426237950871,0.013190981488160662
16.78290544,-19.768211998998485,12.344174356222416,-0.23021457446638466
16.78766841,-19.952492916552988,12.952581928572348,-0.47229294383058185
16.79245799,-20.012694824289675,13.45054837912562,-0.710109369101225
16.79723429,-19.953239413671703,13.831260450226743,-0.9408135925525035
16.80199726,-19.77960345120516,14.089261954764508,-1.1617157210342421
16.80678684,-19.49813292565956,14.220502667294543,-1.3703577672700187
16.81156315,-19.11585272316634,14.222368039380878,-1.5645782152678958
16.81632612,-18.640278009615027,14.09369165456666,-1.7425672407187915
16.8211157,-18.07923295673911,13.834752359063728,-1.9029105763315148
16.82589195,-17.440681739352662,13.447257865925579,-2.0446204295448696
16.83065497,-16.732575916293882,12.934316384985003,-2.167152324311005
16.83544455,-15.962721431739713,12.300397521800381,-2.270407239144597
16.8402208,-15.138667571730734,11.551283350676444,-2.3547189388588667
16.84498377,-14.26761931178266,10.694010226581318,-2.4208269328584975
16.84977341,-13.35637361976874,9.736801579839165,-2.4698360197681963
16.85454966,-12.41127945393261,8.688991652903535,-2.5031638745545792
16.85931263,-11.438220433639403,7.560939904727315,-2.5224785786971906
16.86410221,-10.442618470022953,6.363935638603088,-2.5296283695999486
16.86887851,-9.429456032671748,5.11009231684331,-2.526566180635372
16.87364148,-8.403314206096654,3.8122310223029294,-2.5152717479474873
16.87843106,-7.368423269007277,2.4837526220897184,-2.4976741636975244
16.88320737,-6.328722226667005,1.1384983883723214,-2.475577748781269
16.88797034,-5.287923557498566,-0.20940086482576847,-2.4505939982303584
16.89275992,-4.24957941032354,-1.5456866669917944,-2.4240821247494657
16.89753622,-3.2171456108616465,-2.8561448453123552,-2.3971004020511133
16.90229919,-2.194040099770344,-4.126786029530922,-2.3703701050514754
16.90708877,-1.183692818247767,-5.344032571605462,-2.3442533738370317
16.91186502,-0.18958456832405607,-6.4949091000183135,-2.3187458062821023
16.91662804,0.7847270090538148,-7.567233289622201,-2.2934840232483147
16.92141763,1.735595490287305,-8.549802830514633,-2.2677678659021017
16.92619388,2.65928814484502,-9.432574063705157,-2.2405962999212816
16.93095684,3.552002426929141,-10.206827362535469,-2.2107155503151503
16.93574648,4.409895323103959,-10.865314129750493,-2.1766775104134304
16.94052273,5.2291237354890265,-11.402380309952694,-2.1369060779750786
16.9452857,6.005893586312902,-11.814061641198,-2.089768762300123
16.95007528,6.73651506536502,-12.098146521544173,-2.033650675932352
16.95485158,7.417461432396161,-12.25420334422706,-1.9670279117050922
16.95961455,8.045428992322059,-12.283570417166144,-1.8885373681975144
16.96440414,8.617396186796983,-12.189308051699067,-1.7970403399402137
16.96918044,9.130680090055955,-11.976113973952605,-1.691677587340183
16.97394341,9.582988902806408,-11.65020474902502,-1.571914073814108
16.97873299,9.972469299204166,-11.219167278832446,-1.437572044219098
16.98350929,10.297747715886679,-10.691785531275796,-1.2888515842609245
16.98827226,10.55796489729858,-10.07784842140405,-1.1263382345925455
16.99306184,10.752803239756346,-9.387945180852435,-0.9509976433846811
16.99783815,10.882506705289861,-8.633254636214414,-0.7641576402675656
17.00260112,10.947893288534448,-7.8253346021337435,-0.5674785077792561
17.0073907,10.95036019859476,-6.975917122472286,-0.36291260474262554
17.012167,10.891882055699227,-6.096714612114547,-0.152654839902959
17.01692997,10.775002498090597,-5.199241117728711,0.060914216600882636
17.02171955,10.602819643999887,-4.29465198649581,0.2752905755275806
17.0264958,10.378965850506026,-3.393604266094129,0.4879122697540265
17.03125882,10.107582153993048,-2.506139211582734,0.696225768880493
17.03604841,9.79328767563055,-1.6415873904848326,0.8977511465731518
17.04082466,9.441144150722184,-0.8084960886380173,1.0901438603139963
17.04558763,9.056615615451948,-0.01457804592462403,1.271251157999537
17.05037721,8.645523174299566,0.733319996386354,1.439161351196472
17.05515351,8.213994686612823,1.4292308705139478,1.5922444826997997
17.05991648,7.768409161928873,2.068064895365533,1.7291832554156294
17.06470606,7.31533565151683,2.645594498045128,1.8489934689953935
17.06948237,6.861466476216299,3.1584279518488323,1.9510336177224512
17.07424534,6.413544740544087,3.603974580744441,2.035003722895545
17.07903492,5.978286247642056,3.980403648340076,2.100933886976377
17.08381122,5.562296142508133,4.28659896593971,2.1491634441613763
17.08857419,5.171980861765267,4.522111038953978,2.1803119218497353
17.09336377,4.813456241844152,4.687108338728716,2.1952433022746747
17.09814007,4.492452915731162,4.782329048300558,2.1950252718663847
17.10290304,4.214220394934379,4.809034392565235,2.1808852623049813
17.10769263,3.983431476375522,4.768964430094308,2.15416512134119
17.11246893,3.804088825286851,4.664296957975758,2.1162762069640886
17.1172319,3.679435756653451,4.4976099647262595,2.0686565818342975
17.12202148,3.6118733584133778,4.271847862366273,2.0127318044602216
17.12679778,3.602886155532165,3.990291541102062,1.9498805795793928
17.13156075,3.652978490857785,3.6565321228792946,1.8814062540153258
17.13635034,3.761623687172661,3.2744481465615203,1.808514836578659
17.14112659,3.927227856596163,2.8481857998045985,1.732299890579227
17.14588955,4.147109951682047,2.3821417225897115,1.653734305810261
17.15067919,4.417499326576408,1.8809478460290772,1.5736686191366458
17.15545544,4.733551713948606,1.3494576969919223,1.4928352396124012
17.16021841,5.089384137240067,0.792733591322019,1.411857666412071
17.16500804,5.478128881312761,0.21603415050815422,1.331263582721888
17.16978429,5.8920062538338485,-0.37519839876624766,1.2515005771187553
17.17454726,6.322415499290663,-0.9753516545095684,1.1729531915180234
17.17933684,6.7600428853648165,-1.5786576879557823,1.0959600220508146
17.18411315,7.194985669367394,-2.179209388771892,1.02082970052218
17.18887612,7.616890370399839,-2.770978988595134,0.9478547465471272
17.1936657,8.015103521103509,-3.347839261904582,0.8773224854157198
17.198442,8.378832851005882,-3.9035879308759855,0.809522453297233
17.20320497,8.697316658190008,-4.431975834927514,0.7447499412031101
17.20799455,8.959998949775688,-4.926739461438311,0.6833055506546427
17.21277086,9.156707764873937,-5.38163846356721,0.625490842849084
17.21753382,9.277833927813397,-5.79049880160744,0.5716003571947199
17.22232341,9.314507310674916,-6.1472621204565305,0.5219104497541981
17.22709971,9.258767518524863,-6.446041901724493,0.47666555116101755
17.23187596,9.103725768180027,-6.681186790426983,0.43606256353537737
17.23665226,8.843714640908685,-6.847351282834071,0.40023420769336143
17.24142856,8.474422376894072,-6.939573670264676,0.36923219825851195
17.24620481,7.993008458621844,-6.9533607676648295,0.3430111667395488
17.25098112,7.398197405567796,-6.8847785274082085,0.32141426987760857
17.25575737,6.690347973519712,-6.730547166091924,0.3041614078445436
17.26052034,5.871495317841089,-6.488138938588533,0.2908409273418909
17.26530997,4.945364139681866,-6.1558762066486254,0.2809055923909382
17.27008622,3.917351385036786,-5.733026999150927,0.2736734683002125
17.27484919,2.794477705078152,-5.219894880125235,0.26833418398541026
17.27963877,1.5853076072197956,-4.617899663366942,0.26396082266694926
17.28441507,0.29983901919782213,-3.9296453736607746,0.2595274581227178
17.28917804,-1.0506361700208524,-3.1589718850067756,0.25393212390969
17.29396763,-2.4536981767744535,-2.3109868857069773,0.246024785730753
17.29874393,-3.895988765228798,-1.3920752325480077,0.23463967424684318
17.3035069,-5.363420097053999,-0.4098833476710372,0.21863111576253938
17.30829648,-6.841398389196489,0.6267229474736258,0.19691177521605735
