"Time (s)","Acceleration x (m/s^2)","Acceleration y (m/s^2)","Acceleration z (m/s^2)"
4.885449000E-3,-1.113260746E0,6.022136211E0,9.043074608E0
9.661959000E-3,-8.955138922E-1,6.099305153E0,8.950352669E0
1.443847000E-2,-8.446664214E-1,6.162116528E0,8.743971825E0
1.921492800E-2,-9.409775138E-1,6.205785751E0,8.533403397E0
2.399143800E-2,-1.066002488E0,6.200401783E0,8.355736732E0
2.876789700E-2,-1.133001566E0,6.118447304E0,8.231907845E0
3.354440700E-2,-1.170688510E0,5.993422508E0,8.193622589E0
3.832091800E-2,-1.194018483E0,5.776273727E0,8.212765694E0
4.309737600E-2,-1.274178028E0,5.636891842E0,8.199007034E0
4.787388600E-2,-1.406979680E0,5.612365723E0,8.224131584E0
5.265034500E-2,-1.467996716E0,5.592624664E0,8.368897438E0
5.742685500E-2,-1.471585870E0,5.534598827E0,8.570492744E0
6.220336500E-2,-1.517049551E0,5.471189022E0,8.800801277E0
6.697982400E-2,-1.578664780E0,5.322235584E0,8.868398666E0
7.175633400E-2,-1.575075507E0,5.268995285E0,8.700303078E0
7.653279300E-2,-1.694716692E0,5.235496044E0,8.542975426E0
8.130930300E-2,-1.813161373E0,5.148158073E0,8.534002304E0
8.608581300E-2,-1.869392633E0,5.037489891E0,8.601598740E0
9.086227200E-2,-1.903490424E0,4.911866665E0,8.472386360E0
9.563878200E-2,-1.758126378E0,4.898108006E0,8.134998322E0
1.004152400E-1,-1.463809252E0,4.802993298E0,7.869993687E0
1.051917510E-1,-1.248455167E0,4.745565414E0,8.017151833E0
1.099682090E-1,-1.213161111E0,4.764708042E0,8.372486115E0
1.147447200E-1,-1.331007600E0,4.691727161E0,8.483752251E0
1.195212300E-1,-1.365105271E0,4.663012981E0,8.344370842E0
1.242976880E-1,-1.403988719E0,4.716253281E0,8.224729538E0
1.290741990E-1,-1.514058471E0,4.754538536E0,8.129016876E0
1.338506570E-1,-1.529013634E0,4.840680122E0,8.129016876E0
1.386271680E-1,-1.524826288E0,4.783252239E0,8.009375572E0
1.434036780E-1,-1.677966833E0,4.575675011E0,7.832904816E0
1.481801360E-1,-1.896311998E0,4.367499352E0,7.752147198E0
1.529566470E-1,-2.042274237E0,4.135993958E0,7.877770424E0
1.577331050E-1,-2.025524378E0,3.929014683E0,8.185248375E0
1.625096150E-1,-1.903490424E0,3.712464333E0,8.583054543E0
1.672860740E-1,-1.697109461E0,3.553939819E0,8.827122688E0
1.720625840E-1,-1.491326690E0,3.472583771E0,8.849854469E0
1.768390950E-1,-1.282552958E0,3.511467218E0,8.867800713E0
1.816155530E-1,-1.122233868E0,3.824927092E0,8.809176445E0
1.863920630E-1,-1.100100160E0,4.272983074E0,8.741579056E0
1.911685220E-1,-1.183848977E0,4.147359848E0,8.982057571E0
1.959450320E-1,-1.404586911E0,3.857828379E0,9.232706070E0
2.007215430E-1,-1.691725612E0,3.659822226E0,9.729216576E0
2.054980010E-1,-1.579861164E0,3.607180119E0,9.382855415E0
2.102745110E-1,-1.756929994E0,3.332005501E0,9.009575844E0
2.150509700E-1,-1.821536183E0,3.008974552E0,9.216554642E0
2.198274800E-1,-2.395813704E0,3.151347399E0,1.019820976E1
2.246039380E-1,-2.559721947E0,3.479762316E0,8.404789925E0
2.293671150E-1,-2.136790514E0,4.219144344E0,5.651846886E0
2.341569590E-1,-1.813161373E0,4.461417675E0,5.011766911E0
2.389334180E-1,-1.783251047E0,4.190430641E0,5.928217888E0
2.437099280E-1,-1.725225091E0,3.554538012E0,7.296314240E0
2.484863860E-1,-1.552941918E0,2.966501951E0,8.649456024E0
2.532628970E-1,-1.329213023E0,2.557329178E0,9.209376335E0
2.580393550E-1,-8.536394835E-1,2.467000246E0,9.178269386E0
2.628158650E-1,-4.402793646E-1,2.410170555E0,9.027522087E0
2.675923760E-1,-1.932204217E-1,2.410768747E0,9.040681839E0
2.723688340E-1,-1.974078640E-2,2.353341103E0,9.342177391E0
2.771453450E-1,3.349951655E-2,2.367697954E0,9.476176262E0
2.819218030E-1,-4.366901144E-2,2.656631231E0,9.461818695E0
2.866983130E-1,-1.788634956E-1,3.278167009E0,9.423533440E0
2.914748240E-1,-1.375873089E-1,3.995415688E0,9.562915802E0
2.962512820E-1,-1.728814393E-1,4.742574692E0,9.716055870E0
3.010144590E-1,-1.668993831E-1,5.474180222E0,9.489934921E0
3.058042510E-1,-4.067798331E-2,5.846263885E0,9.286544800E0
3.105807610E-1,1.944168359E-1,5.914459229E0,8.964112282E0
3.153439380E-1,4.354937077E-1,5.852245808E0,8.636893272E0
3.201337300E-1,4.815555513E-1,5.790032387E0,8.377870560E0
3.249102400E-1,3.194418252E-1,5.683551788E0,8.258229256E0
3.296866990E-1,1.806581169E-1,5.625525951E0,8.109873772E0
3.344632090E-1,2.781656384E-1,5.770890236E0,7.768897057E0
3.392396680E-1,-2.751746029E-2,5.861218929E0,7.588238716E0
3.440161780E-1,-2.099701911E-1,5.991029739E0,7.348956585E0
3.487926880E-1,-2.620140910E-1,6.019743443E0,7.378268719E0
3.535691470E-1,3.291327477E0,6.896114826E0,6.245865345E0
3.583323240E-1,3.658027649E0,7.152745247E0,5.653043270E0
3.631221150E-1,2.795415163E0,7.131209850E0,5.484947681E0
3.678986260E-1,1.974676847E0,7.071389198E0,5.757729530E0
3.726750840E-1,1.268794179E0,6.915855408E0,6.212964058E0
3.774515950E-1,1.315454245E0,7.007380962E0,6.053841114E0
3.822280530E-1,1.387238979E0,6.964310169E0,6.101697922E0
3.870045630E-1,1.322034478E0,6.805187702E0,6.232106686E0
3.917810740E-1,1.300499082E0,6.486343861E0,6.457630157E0
3.965575320E-1,1.482951880E0,6.250650883E0,6.601199627E0
4.013340430E-1,1.216750264E0,6.101099491E0,6.554539204E0
4.061105010E-1,1.570289850E0,5.899504185E0,6.701697826E0
4.108870110E-1,2.123031855E0,5.813961029E0,6.799205780E0
4.156635220E-1,2.604587555E0,5.680561066E0,6.964908600E0
4.204399800E-1,2.848655462E0,5.439484119E0,7.045068264E0
4.252164900E-1,2.761915445E0,5.218147755E0,6.729215622E0
4.299929490E-1,2.673979282E0,4.986642361E0,6.269793510E0
4.347694590E-1,2.639283419E0,4.678566456E0,5.803791523E0
4.395459180E-1,2.760719061E0,4.438685894E0,5.371886730E0
4.443090950E-1,2.589034081E0,4.124628067E0,5.123631477E0
4.490989380E-1,1.789233088E0,3.876971006E0,5.717649937E0
4.538753970E-1,1.506281853E0,3.924229145E0,6.132206440E0
4.586519070E-1,2.055434704E0,3.814757586E0,5.534598827E0
4.634283650E-1,2.876770973E0,3.427120209E0,5.108078003E0
4.682048760E-1,3.335594654E0,3.085544825E0,5.230710506E0
4.729680530E-1,3.488735437E0,2.811566591E0,5.973681927E0
4.777578450E-1,2.812762976E0,2.857030153E0,7.618747234E0
4.825343550E-1,3.089133978E0,2.703889608E0,7.487740040E0
4.872975320E-1,3.971487284E0,2.566900492E0,6.340980053E0
4.920873240E-1,4.898705959E0,2.134995937E0,5.986244202E0
4.968637820E-1,5.384449005E0,1.621137381E0,6.526423931E0
5.016269590E-1,5.622535229E0,1.211964726E0,7.076773167E0
5.064167510E-1,5.796014786E0,8.410771489E-1,7.302296638E0
5.111932610E-1,5.930012703E0,6.053841114E-1,7.292127132E0
5.159564380E-1,5.763113499E0,4.797609448E-1,7.197012424E0
5.207462300E-1,5.633302689E0,4.893322289E-1,6.900302410E0
5.255227400E-1,5.455037594E0,4.504488707E-1,6.503093719E0
5.302859180E-1,5.277370453E0,3.780659735E-1,6.177670002E0
5.350757090E-1,5.225924492E0,4.307080805E-1,5.563312531E0
5.398521680E-1,5.131408215E0,4.983053207E-1,5.084149837E0
5.446153450E-1,4.898108006E0,3.918247223E-1,4.965106964E0
5.494051880E-1,4.754538536E0,1.651047617E-1,4.706682205E0
5.541816470E-1,4.462614059E0,-7.657032460E-2,5.020740032E0
5.589581570E-1,4.081557274E0,-2.853440940E-1,5.569892883E0
5.637346150E-1,3.863212109E0,-9.553344250E-1,6.205187321E0
5.685111260E-1,4.221537113E0,-1.359123230E0,6.131608009E0
5.732743030E-1,4.671986103E0,-1.743171334E0,5.721239090E0
5.780640950E-1,5.141577721E0,-2.030908108E0,5.330610752E0
5.828406050E-1,5.666802406E0,-2.154736757E0,4.813760757E0
5.876037820E-1,6.190232277E0,-1.979462504E0,4.192225456E0
5.923935740E-1,6.863811970E0,-1.462014675E0,2.474776745E0
5.971700320E-1,7.216155052E0,-9.547362328E-1,2.036292076E0
6.019332090E-1,7.031309128E0,-1.027717352E0,2.910868645E0
6.067230010E-1,6.711867332E0,-1.791027784E0,4.654638290E0
6.114995110E-1,6.795018196E0,-2.494517565E0,5.528616905E0
6.162626880E-1,7.009773731E0,-2.927618504E0,6.185446739E0
6.210524800E-1,7.168298244E0,-2.946761131E0,6.424130440E0
6.258289900E-1,7.186842918E0,-2.739781857E0,6.486343861E0
6.306054490E-1,7.209574699E0,-2.489133835E0,6.375676155E0
6.353819590E-1,7.259823799E0,-2.286342144E0,6.212365627E0
6.401584180E-1,7.290930748E0,-2.184647083E0,5.890531063E0
6.449349280E-1,7.231110096E0,-2.170290232E0,5.415555954E0
6.497113860E-1,7.057032108E0,-2.261815548E0,4.869394302E0
6.544878970E-1,6.835696220E0,-2.422134638E0,4.386044025E0
6.592644070E-1,6.667002201E0,-2.556730986E0,3.998406649E0
6.640408650E-1,6.628118515E0,-2.657827854E0,3.748954773E0
6.688173760E-1,6.655636311E0,-2.782852650E0,3.552145243E0
6.735805530E-1,6.669394970E0,-2.912663460E0,3.384049416E0
6.783703450E-1,6.693323135E0,-3.023331404E0,3.293122053E0
6.831468030E-1,6.403791428E0,-3.004786968E0,3.390629768E0
6.879233130E-1,6.540182590E0,-3.101098061E0,3.884747505E0
6.926998240E-1,6.920641422E0,-3.105285645E0,3.925425529E0
6.974762820E-1,7.221538544E0,-3.157329559E0,4.140181541E0
7.022527930E-1,7.493722439E0,-3.156731367E0,4.201198578E0
7.070292510E-1,7.721638680E0,-3.185445070E0,4.185645103E0
7.118057610E-1,8.201997757E0,-3.198605776E0,4.130012035E0
7.165689380E-1,8.985647202E0,-3.167499065E0,3.890729666E0
7.213587300E-1,1.002114105E1,-3.025125980E0,3.678964853E0
7.261352400E-1,1.112782192E1,-2.781656265E0,3.514458179E0
7.308984180E-1,1.201555920E1,-2.452044964E0,3.389433384E0
7.356882090E-1,1.265563869E1,-2.146361828E0,3.251846075E0
7.404646680E-1,1.304088306E1,-1.938784599E0,3.215953588E0
7.452278450E-1,1.325444317E1,-1.817947030E0,3.253042459E0
7.500176360E-1,1.330768299E1,-1.783849239E0,3.425923824E0
7.547941470E-1,1.327179050E1,-1.750349760E0,3.737588882E0
7.595573240E-1,1.310728455E1,-1.707877159E0,4.103690624E0
7.643471150E-1,1.286082363E1,-1.640878081E0,4.373481750E0
7.691236260E-1,1.252881908E1,-1.598405480E0,4.514060020E0
7.739000840E-1,1.208674526E1,-1.599601984E0,4.526023865E0
7.786765950E-1,1.155793190E1,-1.600798368E0,4.471587181E0
7.834530530E-1,1.099083233E1,-1.578066587E0,4.311268330E0
7.882295630E-1,1.043749237E1,-1.560120344E0,4.150949001E0
7.930060220E-1,1.008933640E1,-1.618744493E0,3.975076675E0
7.977825320E-1,9.917651176E0,-1.773081541E0,3.735794306E0
8.025589900E-1,9.950552940E0,-2.008774519E0,3.587439299E0
8.073355010E-1,1.015932655E1,-2.268395901E0,3.403790236E0
8.121120110E-1,1.054457092E1,-2.528017044E0,3.244069338E0
8.168884700E-1,1.084487057E1,-2.652443886E0,3.184846878E0
8.216649800E-1,1.110688496E1,-2.748156786E0,3.260220766E0
8.264414380E-1,1.155494022E1,-2.824128866E0,3.363710403E0
8.312046150E-1,1.223629665E1,-2.812762976E0,3.455834150E0
8.359944070E-1,1.295952702E1,-2.647658348E0,3.696911097E0
8.407709180E-1,1.359422398E1,-2.410170555E0,4.015156269E0
8.455340950E-1,1.408953762E1,-2.158325911E0,4.329214573E0
8.503238860E-1,1.445683575E1,-1.916650891E0,4.576273441E0
8.551003970E-1,1.475713539E1,-1.660618901E0,4.804787636E0
8.598635740E-1,1.498983765E1,-1.438684583E0,4.904089928E0
8.646533650E-1,1.505564022E1,-1.327418327E0,4.779065132E0
8.694298240E-1,1.498684597E1,-1.303490162E0,4.491926193E0
8.741930010E-1,1.480798340E1,-1.337587833E0,3.974478483E0
8.789828450E-1,1.460459328E1,-1.386042476E0,3.279363394E0
8.837593030E-1,1.446162224E1,-1.395613790E0,2.469393015E0
8.885224800E-1,1.448016644E1,-1.390229940E0,1.614557028E0
8.933122720E-1,1.463689613E1,-1.432702541E0,8.129615188E-1
8.980887820E-1,1.425165176E1,-1.245464206E0,8.015955985E-2
9.028519590E-1,1.356670666E1,-9.720842242E-1,-4.773681164E-1
9.076417510E-1,1.329452229E1,-9.337990284E-1,-6.496513486E-1
9.124182090E-1,1.305464172E1,-9.972088337E-1,-2.829512656E-1
9.171813860E-1,1.369771290E1,-1.367498159E0,-2.763710022E-1
9.219712300E-1,1.394118309E1,-1.670190215E0,-2.584248483E-1
9.267476880E-1,1.413799286E1,-2.001596212E0,-1.489532143E-1
9.315241990E-1,1.413021564E1,-2.257030010E0,-9.571290575E-3
9.363006570E-1,1.410868073E1,-2.450250387E0,2.500499785E-1
9.410771680E-1,1.404885960E1,-2.523231506E0,5.192425251E-1
9.458536260E-1,1.382273865E1,-2.495115757E0,9.332008362E-1
9.506301360E-1,1.354935837E1,-2.437688112E0,1.356730461E0
9.554065950E-1,1.314257812E1,-2.414956331E0,1.767099500E0
9.601831050E-1,1.278784275E1,-2.386840582E0,2.181057930E0
9.649596150E-1,1.243848991E1,-2.431705952E0,2.499303341E0
9.697360740E-1,1.220638657E1,-2.456232548E0,2.668595552E0
9.745125840E-1,1.205922794E1,-2.461616278E0,2.698505640E0
9.792890430E-1,1.195872974E1,-2.509472847E0,2.593221426E0
9.840655530E-1,1.187617683E1,-2.635095835E0,2.377867460E0
9.888420110E-1,1.178943729E1,-2.837289333E0,2.071586132E0
9.936185220E-1,1.169791126E1,-3.063411236E0,1.703091502E0
9.983949800E-1,1.161057377E1,-3.261417150E0,1.352542996E0
1.003171490E0,1.150469112E1,-3.449253798E0,1.060618639E0
1.007948001E0,1.138504982E1,-3.613760471E0,8.410771489E-1
1.012724459E0,1.125105190E1,-3.719642878E0,6.257231236E-1
1.017500970E0,1.109312534E1,-3.801596880E0,3.960121572E-1
1.022277428E0,1.097288609E1,-3.859622955E0,1.328016520E-1
1.027053938E0,1.092861938E1,-3.898506403E0,-1.405783296E-1
1.031817115E0,1.100818062E1,-3.960719585E0,-3.996013701E-1
1.036606907E0,1.112124157E1,-4.037290096E0,-6.113662124E-1
1.041383365E0,1.112064362E1,-4.100101471E0,-7.363911867E-1
1.046159876E0,1.093519974E1,-4.148556232E0,-7.645068169E-1
1.050936334E0,1.051167011E1,-4.101297855E0,-6.281159520E-1
1.055712845E0,1.035494041E1,-4.226921082E0,-7.136593461E-1
1.060489355E0,1.019581699E1,-4.212564468E0,-1.019342422E0
1.065265813E0,1.002951622E1,-4.299902439E0,-1.095314622E0
1.070042324E0,1.002353382E1,-4.415356159E0,-1.335195065E0
1.074818782E0,9.884750366E0,-4.506881237E0,-1.540379524E0
1.079595293E0,9.626923561E0,-4.594817638E0,-1.639681697E0
1.084371751E0,9.379266739E0,-4.633700848E0,-1.744965911E0
1.089148261E0,9.184251785E0,-4.663012981E0,-1.810768485E0
1.093924720E0,9.074181557E0,-4.682754040E0,-1.867598057E0
1.098701230E0,9.021539688E0,-4.673182487E0,-1.939382792E0
1.103477740E0,9.025727272E0,-4.668396950E0,-2.006381750E0
1.108254199E0,9.111269951E0,-4.682754040E0,-2.088335991E0
1.113030709E0,9.177671432E0,-4.716253281E0,-2.146361828E0
1.117807168E0,9.196813583E0,-4.778466702E0,-2.141576290E0
1.122583678E0,9.168698311E0,-4.807778835E0,-2.055434704E0
1.127360136E0,9.198010445E0,-4.773681164E0,-1.925624013E0
1.132136647E0,9.360123634E0,-4.715655327E0,-1.792224169E0
1.136913105E0,9.641280174E0,-4.590032101E0,-1.601396561E0
1.141689615E0,9.970891953E0,-4.434498787E0,-1.406979680E0
1.146466074E0,1.023769188E1,-4.294518471E0,-1.220937729E0
1.151242584E0,1.041894817E1,-4.173680782E0,-1.083350420E0
1.156019095E0,1.053320503E1,-4.077369690E0,-9.972088337E-1
1.160795553E0,1.062831974E1,-3.985246181E0,-9.690931439E-1
1.165572063E0,1.084247780E1,-3.908077478E0,-1.018146038E0
1.170348522E0,1.120738316E1,-3.810570002E0,-1.111466169E0
1.175111699E0,1.155374432E1,-3.693919897E0,-1.228714466E0
1.179901490E0,1.176132107E1,-3.539582968E0,-1.459621787E0
1.184678001E0,1.184447193E1,-3.350549936E0,-1.714457393E0
1.189454459E0,1.196172047E1,-3.128615618E0,-1.931606054E0
1.194230970E0,1.216810131E1,-2.892324448E0,-2.316850424E0
1.199007480E0,1.245942783E1,-2.617149830E0,-2.706880569E0
1.203770605E0,1.279860973E1,-2.350948334E0,-3.126821041E0
1.208560449E0,1.302832127E1,-2.123630047E0,-3.588635683E0
1.213336907E0,1.313958740E1,-1.949552298E0,-4.036093712E0
1.218100084E0,1.308036518E1,-1.824527264E0,-4.323830605E0
1.222889876E0,1.290209961E1,-1.709073544E0,-4.552943230E0
1.227666386E0,1.267597771E1,-1.646860242E0,-4.969294548E0
1.232429563E0,1.249232864E1,-1.657029629E0,-5.462814331E0
1.237219355E0,1.223928738E1,-1.810768485E0,-6.425925255E0
1.241995813E0,1.191565895E1,-1.960918188E0,-6.630511761E0
1.246758990E0,1.162971592E1,-2.111067772E0,-5.933003902E0
1.251548834E0,1.128455162E1,-2.257030010E0,-4.851448059E0
1.256325293E0,1.096810055E1,-2.379063845E0,-3.798605919E0
1.261088470E0,1.076949692E1,-2.486142635E0,-2.732005358E0
1.265878261E0,1.055234814E1,-2.655434847E0,-1.866999865E0
1.270654772E0,1.020419216E1,-2.830111027E0,-1.341775298E0
1.275417949E0,9.860223770E0,-2.951546669E0,-8.602197170E-1
1.280207740E0,9.567103386E0,-3.029313564E0,-4.935196638E-1
1.284984199E0,9.298508644E0,-3.044866800E0,-1.519442350E-1
1.289747376E0,9.032905579E0,-3.088535786E0,2.991028363E-3
1.294537168E0,8.814560890E0,-3.161516905E0,-1.974078640E-2
1.299313678E0,8.562117577E0,-3.287140131E0,-8.554340899E-2
1.304076855E0,8.385048866E0,-3.398406267E0,-2.620140910E-1
1.308866647E0,8.198408127E0,-3.490530014E0,-5.150550604E-1
1.313643105E0,7.934599876E0,-3.530011654E0,-9.409775138E-1
1.318406334E0,8.069794655E0,-3.654438496E0,-1.411765337E0
1.323196126E0,8.235497475E0,-3.653840065E0,-1.585245013E0
1.327972584E0,7.922037601E0,-3.683750391E0,-1.482951880E0
1.332735761E0,7.476374149E0,-3.751945972E0,-1.341775298E0
1.337525553E0,7.497311592E0,-3.934996843E0,-1.067797065E0
1.342302063E0,7.334001541E0,-4.301696777E0,-7.070791125E-1
1.347065240E0,6.828517437E0,-4.727619171E0,-3.487538993E-1
1.351855032E0,6.638886452E0,-5.146961689E0,2.662015259E-1
1.356631543E0,6.375077724E0,-5.528018475E0,4.648058116E-1
1.361394668E0,5.968895912E0,-5.813961029E0,8.799605370E-1
1.366184511E0,5.938985825E0,-5.862415314E0,1.393819213E0
1.370960970E0,5.998806477E0,-5.795416355E0,1.911865234E0
1.375724147E0,6.147759438E0,-5.606383324E0,2.261217356E0
1.380513938E0,6.457630157E0,-5.283352375E0,2.436491728E0
1.385290449E0,6.844669342E0,-5.104488850E0,2.876172781E0
1.390053626E0,7.613961697E0,-5.088337421E0,3.357130051E0
1.394843418E0,8.480761528E0,-5.052444935E0,3.687937975E0
1.399619876E0,9.461818695E0,-4.944169998E0,3.879961967E0
1.404383053E0,1.020957565E1,-4.807778835E0,4.010370731E0
1.409172845E0,1.066421223E1,-4.700700283E0,3.810570002E0
1.413949355E0,1.087178993E1,-4.574478626E0,3.464209080E0
1.418712532E0,1.083529949E1,-4.472783566E0,3.023331404E0
1.423502324E0,1.062712383E1,-4.396213531E0,2.495713949E0
1.428278834E0,1.033280659E1,-4.348356724E0,1.883749604E0
1.433055293E0,9.991230965E0,-4.305884361E0,1.213161111E0
1.437831803E0,9.677771568E0,-4.253242016E0,5.623133183E-1
1.442608261E0,9.459425926E0,-4.181457520E0,-9.451649338E-2
1.447371438E0,9.360722542E0,-4.118646145E0,-6.221339107E-1
1.452161230E0,9.343374252E0,-3.997808456E0,-1.019940615E0
1.456937740E0,9.294321060E0,-3.916452408E0,-1.274178028E0
1.461700918E0,9.212367058E0,-3.906881094E0,-1.475175142E0
1.466490709E0,9.101698875E0,-3.960121393E0,-1.642672777E0
1.471267168E0,8.968298912E0,-4.089931965E0,-1.819741607E0
1.476030345E0,8.654839516E0,-4.529015064E0,-1.980658889E0
1.480820136E0,8.449654579E0,-4.515256405E0,-1.969891191E0
1.485596647E0,8.239685059E0,-4.260420799E0,-1.983649969E0
1.490373157E0,8.073383331E0,-4.130609989E0,-1.886740685E0
1.495149615E0,8.002197266E0,-4.020540237E0,-1.761715651E0
1.499926126E0,8.108079910E0,-3.948157310E0,-1.521835208E0
1.504702584E0,8.489734650E0,-3.923032761E0,-1.284347534E0
1.509479095E0,8.867800713E0,-3.932005882E0,-9.936196208E-1
1.514255553E0,9.150154114E0,-3.907479286E0,-6.975077987E-1
1.519032063E0,9.275776863E0,-3.844667673E0,-3.571287692E-1
1.523808522E0,9.354740143E0,-3.723830223E0,1.938186288E-1
1.528585032E0,9.601201057E0,-3.579662561E0,9.511470199E-1
1.533348209E0,9.939187050E0,-3.477967739E0,1.731207132E0
1.538138001E0,1.026760197E1,-3.385245800E0,2.617149830E0
1.542914459E0,1.053380394E1,-3.284149170E0,3.402593851E0
1.547677688E0,1.070369434E1,-3.163311481E0,4.059423447E0
1.552467428E0,1.070010471E1,-2.932404041E0,4.347160339E0
1.557243938E0,1.064207840E1,-2.624328136E0,4.380660057E0
1.562007115E0,1.062652493E1,-2.426920414E0,4.227519512E0
1.566796907E0,1.063729286E1,-2.271985054E0,3.795016766E0
1.571573418E0,1.070010471E1,-2.141576290E0,3.257229805E0
1.576349876E0,1.067198944E1,-1.972882271E0,2.585444927E0
1.581126386E0,1.090469074E1,-2.520838737E0,6.173482537E-1
1.585902845E0,1.083051395E1,-2.505883455E0,-1.398006678E0
1.590666022E0,1.042612648E1,-2.929413080E0,-3.982853174E0
1.595455813E0,9.828518867E0,-2.014756680E0,-4.800600529E0
1.600232324E0,9.136993408E0,-9.960124493E-1,-3.674777269E0
1.604995501E0,8.123632431E0,-3.098705411E-1,-2.523231506E0
1.609785293E0,7.971090317E0,-3.529413417E-2,-2.455035925E0
1.614561803E0,8.411968231E0,2.751746029E-2,-1.104287624E0
1.619324928E0,8.804988861E0,-3.092723191E-1,-8.805587292E-1
1.624114772E0,9.075378418E0,-7.908278704E-1,3.320041299E-1
1.628891230E0,9.151947975E0,-1.224527001E0,1.013958573E0
1.633654407E0,9.131011009E0,-1.744965911E0,1.225125194E0
1.638444199E0,9.000003815E0,-2.327618122E0,4.103690982E-1
1.643220709E0,8.737391472E0,-2.024926186E0,4.450650215E-1
1.647983886E0,8.106883049E0,-1.752742529E0,1.782652855E0
1.652773678E0,7.512266636E0,-1.715055585E0,9.846464992E-1
1.657550136E0,6.991827965E0,-1.523629785E0,8.333004713E-1
1.662313313E0,6.419344902E0,-1.462612867E0,1.296909928E0
1.667103105E0,6.052644730E0,-1.636690736E0,4.396811724E-1
1.671879615E0,5.580660820E0,-1.877767563E0,-6.711867452E-1
1.676642793E0,5.026124001E0,-1.960918188E0,-1.032503009E0
1.681432584E0,4.917848587E0,-1.672582984E0,-7.878368497E-1
1.686209043E0,4.742574692E0,-1.354935765E0,-4.695914388E-1
1.690972220E0,4.845465660E0,-1.012163997E0,-6.000002623E-1
1.695762011E0,5.359922886E0,-6.305087805E-1,-1.102493048E0
1.700538522E0,5.666203976E0,-4.366901219E-1,-1.492523074E0
1.705301699E0,6.632904530E0,-4.342973232E-1,-2.083550215E0
1.710091490E0,7.960920811E0,-6.765705943E-1,-2.142772675E0
1.714868001E0,8.277970314E0,-7.818548083E-1,-1.659422517E0
1.719631178E0,8.667402267E0,-8.153542876E-1,-1.037886858E0
1.724420970E0,9.131011009E0,-7.758727670E-1,-5.940182209E-1
1.729197428E0,9.579067230E0,-7.938188910E-1,-4.761717021E-1
1.733960605E0,9.651450157E0,-7.884350419E-1,-1.062413216E0
1.738750397E0,1.002652550E1,-1.317847013E0,-7.615157962E-1
1.743526907E0,9.963115692E0,-1.776072621E0,2.997010350E-1
1.748290084E0,9.887143135E0,-1.410568953E0,5.012963414E-1
1.753079876E0,9.904491425E0,-1.275374413E0,3.427718580E-1
1.757856334E0,9.759127617E0,-1.632503271E0,1.222134113E0
1.762619511E0,9.589237213E0,-1.666600943E0,1.491326690E0
1.767409355E0,9.445069313E0,-1.773081541E0,2.044667006E0
1.772185813E0,8.640482903E0,-1.196411371E0,5.706881881E-1
1.776962272E0,8.918647766E0,-2.385644197E0,3.152543902E-1
1.781738782E0,9.466604233E0,-2.939582586E0,2.553740025E0
1.786515240E0,9.043074608E0,-3.341576815E0,5.421537876E0
1.791278470E0,8.602197647E0,-3.390629768E0,5.668596745E0
1.796068261E0,8.423932076E0,-3.357728481E0,6.936194420E0
1.800844720E0,7.825128078E0,-3.340978622E0,8.605188370E0
1.805607897E0,7.643871784E0,-3.582653761E0,8.375477791E0
1.810397688E0,7.692326546E0,-3.822534084E0,6.830312252E0
1.815174199E0,6.714260101E0,-3.387040377E0,-1.194018483E0
1.819937376E0,6.859025955E0,-4.512265205E0,-6.165107727E0
1.824727168E0,6.540182590E0,-4.073780537E0,-8.347361565E0
1.829503626E0,6.326025009E0,-3.437887907E0,-8.059026718E0
1.834266803E0,5.730810165E0,-2.361117840E0,-8.258229256E0
1.839056595E0,6.280561447E0,-1.916052699E0,-8.381459236E0
1.843833105E0,8.178069115E0,-1.680359721E0,-8.391629219E0
1.848596282E0,1.009412193E1,-1.666002750E0,-8.665607452E0
1.853386074E0,1.154178047E1,-1.889133453E0,-7.722835064E0
1.858162532E0,1.225962639E1,-2.292922258E0,-4.870590687E0
1.862925709E0,1.227637672E1,-2.269592285E0,-2.908475876E0
1.867715553E0,1.237567902E1,-1.705484390E0,-4.281357765E0
1.872492011E0,1.277827072E1,-1.555334687E0,-4.461417675E0
1.877255188E0,1.314915848E1,-1.689931035E0,-3.057429075E0
1.882044980E0,1.376590824E1,-9.942178130E-1,-2.892922640E0
1.886821490E0,1.426182079E1,-6.083751321E-1,-1.849651933E0
1.891584668E0,1.448136234E1,-4.977070987E-1,-9.391828626E-2
1.896374459E0,1.489173126E1,-5.383851007E-3,4.217349887E-1
1.901150918E0,1.533081436E1,6.311069727E-1,2.027917206E-1
1.905914095E0,1.541037560E1,6.987041831E-1,7.932206988E-1
1.910703886E0,1.514417458E1,6.011967063E-1,1.648654819E0
1.915480397E0,1.542832184E1,1.127617717E0,8.309076428E-1
1.920243574E0,1.572024632E1,1.808375716E0,-8.560323119E-1
1.925033365E0,1.602772522E1,2.170888424E0,-1.740778446E0
1.929809824E0,1.579083443E1,2.257628202E0,-2.291127682E0
1.934573001E0,1.481815243E1,2.066800594E0,-1.916650891E0
1.939362793E0,1.355234909E1,1.663609982E0,-1.496710539E0
1.944139303E0,1.244148159E1,1.164706469E0,-1.346560955E0
1.948902480E0,1.224108219E1,5.665007830E-1,-9.708877802E-1
1.953692272E0,1.264367485E1,2.638086975E-1,-5.647061467E-1
1.958468782E0,1.257847023E1,3.068794906E-1,-3.439682424E-1
1.963245240E0,1.220279694E1,5.324030519E-1,-2.410768867E-1
1.968021751E0,1.174457169E1,7.190431952E-1,-2.919243574E-1
1.972798209E0,1.146820068E1,8.721838593E-1,-3.337987661E-1
1.977574720E0,1.174576855E1,1.095314622E0,7.716853172E-2
1.982351178E0,1.193599796E1,1.667797327E0,1.098305583E0
1.987127688E0,1.050987530E1,2.011765718E0,-2.273181453E-2
1.991890865E0,9.354142189E0,1.961516380E0,-1.594816327E0
1.996680657E0,9.374481201E0,2.115853310E0,-2.128415823E0
2.001457115E0,9.029914856E0,1.436890006E0,-3.560520172E0
2.006220293E0,9.394820213E0,1.192223907E0,-3.927220106E0
2.011010084E0,9.596415520E0,1.274776220E0,-3.616153240E0
2.015786595E0,9.276374817E0,1.162911773E0,-3.130410194E0
2.020549772E0,9.199206352E0,9.110672474E-1,-2.606382132E0
2.025339563E0,9.063413620E0,4.630111754E-1,-1.693520188E0
2.030116022E0,8.857631683E0,-6.281159073E-2,-1.442273855E0
2.034879199E0,8.296514511E0,-5.700899959E-1,-1.563709617E0
2.039668990E0,7.373483181E0,-8.709874153E-1,-9.595218897E-1
2.044445501E0,6.581458569E0,-1.292722464E0,-8.207381964E-1
2.049208678E0,6.074180126E0,-1.554138303E0,-6.640082598E-1
2.053998470E0,5.603392601E0,-1.959721804E0,-8.871390224E-1
2.058774980E0,5.280959606E0,-2.408974171E0,-9.906286001E-1
2.063538105E0,5.273781300E0,-3.078366280E0,-9.661021233E-1
2.068327949E0,4.768297195E0,-4.317250252E0,-9.864411354E-1
2.073104407E0,4.912465096E0,-4.817948341E0,-1.769492388E0
2.077867584E0,4.881358147E0,-4.062414646E0,-2.338984162E-1
2.082657376E0,5.264808178E0,-3.179463148E0,-1.160518974E-1
2.087433886E0,6.391827583E0,-1.222732425E0,2.429313183E0
2.092197063E0,5.932405472E0,-3.712464333E0,-9.068797827E-1
2.096986855E0,6.148357868E0,-4.895715237E0,-4.295116425E0
2.101763313E0,7.314260483E0,-4.301098585E-1,2.837289333E0
2.106539824E0,5.544169903E0,-2.504687071E0,8.793623000E-2
2.111316282E0,5.919843197E0,-5.215157032E0,-2.143370867E0
2.116092793E0,5.697310925E0,-6.477969170E0,-1.920838356E0
2.120855970E0,4.832305431E0,-6.706483841E0,-1.047458172E0
2.125645761E0,4.970490932E0,-6.909275532E0,-1.095912814E0
2.130422220E0,4.378865242E0,-6.925426960E0,1.016949639E-1
2.135185397E0,3.588635683E0,-6.629314899E0,1.819143414E0
2.139975188E0,5.665007591E0,-6.680760860E0,-1.100100160E0
2.144751699E0,6.985247612E0,-6.570092678E0,-3.745963812E0
2.149514876E0,5.971887112E0,-5.931807518E0,-4.945964336E0
2.154304668E0,4.340580463E0,-5.583651543E0,-4.702494621E0
2.159081126E0,3.853640795E0,-6.130411625E0,-2.856431961E0
2.163844303E0,3.411566973E0,-6.363711834E0,-6.137589812E-1
2.168634095E0,2.847458839E0,-6.531209469E0,5.167898655E0
2.173410605E0,8.456833839E0,-7.362117290E0,7.855636597E0
2.178173782E0,1.063848972E1,-8.190033913E0,7.100701332E0
2.182963574E0,1.364746380E1,-7.738986492E0,6.850052834E0
2.187740032E0,1.514716530E1,-6.907480717E0,6.716653347E0
2.192503209E0,1.523270893E1,-6.053841114E0,6.403791428E0
2.197293001E0,1.466261864E1,-5.861817360E0,4.971687317E0
2.202069511E0,1.709552193E1,-4.689932346E0,3.604787350E0
2.206832688E0,1.609292793E1,-3.660420418E0,2.030309916E0
2.211622480E0,1.557488251E1,-2.750549555E0,9.720842242E-1
2.216398990E0,1.456929874E1,-2.241476536E0,1.800599098E-1
2.221162115E0,1.618505287E1,-1.952543259E0,-1.517647743E0
2.225951959E0,2.109871292E1,-1.005583763E0,-2.805584431E0
2.230728418E0,2.596870613E1,1.633101404E-1,-4.031906128E0
2.235491595E0,2.737149811E1,1.250249863E0,-3.507279873E0
2.240281386E0,2.834178734E1,2.046461582E0,-2.375474691E0
2.245057845E0,2.698625374E1,1.864607096E0,-1.648056626E0
2.249821074E0,2.579103851E1,1.520040631E0,-1.205384374E0
2.254610865E0,2.411606216E1,1.197607756E0,-5.527420044E-1
2.259387324E0,2.113699913E1,-7.471588850E-1,4.905286431E-1
2.264150501E0,2.064886284E1,-5.941977024E0,1.259821177E0
2.268940293E0,1.080060291E1,-5.069792747E0,1.641476393E0
2.273716803E0,7.085746288E0,-3.652643681E0,2.919243574E-1
2.278479980E0,6.870990276E0,-3.681955814E0,9.553344250E-1
2.283269772E0,1.096152020E1,-3.315854073E0,1.730608940E0
2.288046230E0,1.205623722E1,-3.876372576E0,6.556333899E-1
2.292809407E0,1.210828114E1,-4.661816597E0,2.715853751E-1
2.297599199E0,9.457033157E0,-5.472385406E0,3.912265003E-1
2.302375657E0,8.274978638E0,-5.957530022E0,5.611169338E-1
2.307138886E0,8.154739380E0,-6.569494724E0,8.691928387E-1
2.311928678E0,8.011768341E0,-7.369295597E0,3.954139352E-1
2.316705136E0,9.068199158E0,-1.052722359E1,-4.761717021E-1
2.321468313E0,8.146963120E0,-9.468997002E0,-1.197009563E0
2.326258105E0,7.557730198E0,-7.644470215E0,-9.170492887E-1
2.331034615E0,6.057430744E0,-4.506881237E0,-2.584248483E-1
2.335797793E0,5.312066078E0,-2.404188633E0,-5.006981492E-1
2.340587532E0,4.401597023E0,-1.171884894E0,-9.433703423E-1
2.345364043E0,3.715455294E0,2.955136001E-1,-1.031904817E0
2.350127220E0,2.955734253E0,1.113260746E0,-1.201795220E0
2.354917011E0,2.423331022E0,1.983051777E0,-1.405783296E0
2.359693522E0,3.834498405E0,1.003789067E0,-1.484148264E0
2.364456699E0,3.913461447E0,-1.279561877E0,-1.401595831E0
2.369246490E0,3.339184046E0,-1.381855130E0,-2.051247120E0
2.374022949E0,3.206382275E0,-9.337990284E-1,-2.506481647E0
2.378786126E0,2.809772015E0,-1.189831018E0,-2.922234535E0
2.383575918E0,2.889931440E0,-9.098708034E-1,-2.831307411E0
2.388352428E0,3.551547050E0,1.196411345E-2,-3.123830080E0
2.393115553E0,3.180061340E0,2.231307179E-1,-3.102892876E0
2.397905397E0,2.251646042E0,-4.588237405E-1,-2.818745136E0
2.402681855E0,2.003988981E0,-1.283151150E0,-3.258426189E0
2.407445032E0,4.255635262E0,-5.599204898E-1,-3.501297712E0
2.412234824E0,4.256831646E0,-6.131607890E-1,-2.517249346E0
2.417011334E0,4.604987144E0,-2.145165443E0,-8.482556343E-1
2.421774511E0,5.584847927E0,-3.020340443E0,2.368894368E-1
2.426564303E0,6.106483459E0,-2.797807932E0,1.679163337E0
2.431340761E0,6.231508255E0,-2.161317110E0,1.423131227E0
2.436103938E0,6.243472576E0,-1.396211982E0,2.219342947E0
2.440893730E0,6.253043652E0,-4.229314029E-1,1.993221283E0
2.445670240E0,6.425925255E0,3.008974493E-1,1.051047325E0
2.450433418E0,6.808776855E0,7.357929349E-1,7.417750359E-2
2.455223209E0,7.578667641E0,9.355936646E-1,-7.555337548E-1
2.459999668E0,7.791030407E0,1.062413216E0,-1.754537225E0
2.464762845E0,8.448458672E0,1.054636598E0,-2.309672117E0
2.469552636E0,8.084749222E0,2.632105052E-1,-2.379063845E0
2.474329147E0,5.377869129E0,-2.345564365E0,-1.412961721E0
2.479092324E0,7.249056339E0,-1.569691658E0,-2.268395901E0
2.483882115E0,9.311669350E0,-9.427721500E-1,-3.109472990E0
2.488658574E0,1.120140076E1,3.672982752E-1,-3.043670416E0
2.493421751E0,1.172243786E1,1.563111424E0,-2.734996319E0
2.498211543E0,1.198804188E1,2.812164783E0,-3.111865759E0
2.502988053E0,1.166919804E1,3.379862070E0,-3.465405464E0
2.507751230E0,1.110090256E1,3.171088219E0,-3.217748165E0
2.512541022E0,1.122233772E1,3.002992392E0,-3.702893019E0
2.517317480E0,1.100937653E1,2.781058073E0,-4.378267288E0
2.522080657E0,1.017248726E1,2.519642353E0,-5.261816978E0
2.526870449E0,9.249456406E0,2.262413740E0,-5.362315655E0
2.531646959E0,8.624331474E0,2.009372711E0,-5.056034088E0
2.536410136E0,7.600203037E0,1.356730461E0,-4.081557274E0
2.541199928E0,6.393023968E0,3.026920557E-1,-2.845664263E0
2.545976386E0,5.352146149E0,-1.420140266E0,-2.013560295E0
2.550739563E0,5.403591633E0,-3.303889751E0,-8.273184299E-1
2.555529355E0,5.279763222E0,-5.049454212E0,5.904290080E-1
2.560305865E0,4.885545731E0,-6.240481377E0,1.649253011E0
2.565069043E0,4.671986103E0,-6.993622303E0,2.908475876E0
2.569858834E0,4.731806755E0,-7.566703320E0,3.819543123E0
2.574635293E0,4.847260475E0,-7.711469173E0,4.798207760E0
2.579398470E0,5.694319725E0,-6.978068829E0,5.954539299E0
2.584188261E0,8.052446365E0,-3.873381615E0,4.241876125E0
2.588964772E0,1.346860027E1,-4.065405846E0,-2.590230405E-1
2.593727949E0,1.498325729E1,-6.267998695E0,-3.086741269E-1
2.598517740E0,1.394118309E1,-5.258825779E0,-1.354935765E0
2.603294199E0,1.474457359E1,-4.272384644E0,-4.147958279E0
2.608057376E0,1.399980736E1,-5.145765305E0,-5.030909538E0
2.612847168E0,1.340758324E1,-6.486343861E0,-6.159723759E0
2.617623678E0,1.313001633E1,-8.124829292E0,-6.483951092E0
2.622386855E0,1.266042423E1,-9.624530792E0,-6.264409542E0
2.627176647E0,1.174756241E1,-1.032084274E1,-5.730810165E0
2.631953105E0,1.082871914E1,-1.052064323E1,-5.203192711E0
2.636716282E0,1.031007481E1,-1.075334454E1,-4.475774765E0
2.641506074E0,1.025324535E1,-1.074915791E1,-3.649652719E0
2.646282584E0,1.026341438E1,-1.027238750E1,-3.381656647E0
2.651045761E0,1.023111153E1,-9.568898201E0,-3.544966698E0
2.655835553E0,1.021974564E1,-8.740383148E0,-3.434896946E0
2.660612011E0,9.666405678E0,-7.667201996E0,-3.188436270E0
2.665375188E0,7.047461033E0,-5.549553871E0,-1.587637782E0
2.670164980E0,6.631708145E0,-4.741976261E0,-1.494915962E0
2.674941490E0,7.214958668E0,-4.156930923E0,-1.426122308E0
2.679704668E0,7.109674454E0,-2.032104731E0,-2.751745939E0
2.684494459E0,7.217351437E0,-1.299302697E0,-3.410370588E0
2.689270918E0,7.615158081E0,-1.925025821E0,-2.586641312E0
2.694034095E0,7.917850018E0,-2.964707375E0,-2.563311338E0
2.698823886E0,7.804789066E0,-4.188037872E0,-3.804588079E0
2.703600397E0,7.951349735E0,-5.695516109E0,-4.754538536E0
2.708363574E0,8.154739380E0,-6.601199627E0,-3.876971006E0
2.713153365E0,8.605786324E0,-7.110870838E0,-3.547957659E0
2.717929824E0,9.333803177E0,-7.591229916E0,-3.028715372E0
2.722693001E0,9.928419113E0,-7.768298626E0,-2.340180635E0
2.727482793E0,1.044646549E1,-7.646264553E0,-2.289931297E0
2.732259303E0,1.070788097E1,-7.530212879E0,-2.272583246E0
2.737022480E0,1.085922718E1,-7.399804115E0,-2.446063042E0
2.741812272E0,1.043450165E1,-7.073183537E0,-2.438884497E0
2.746588730E0,1.029272652E1,-6.890730858E0,-2.145763636E0
2.751365240E0,9.868000984E0,-6.655636311E0,-1.495514154E0
2.756141699E0,9.329017639E0,-6.585047722E0,-9.032905698E-1
2.760918209E0,8.855237961E0,-6.557530403E0,-6.227321029E-1
2.765681334E0,8.385048866E0,-6.607181549E0,-4.181457460E-1
2.770471178E0,7.639086246E0,-6.757929325E0,-3.852444589E-1
2.775247636E0,6.678368092E0,-6.924828529E0,-4.331009090E-1
2.780010813E0,5.775077343E0,-7.186842918E0,-3.990031779E-1
2.784800605E0,4.995615482E0,-7.400402069E0,-3.708875179E-1
2.789577115E0,4.542773724E0,-7.560721397E0,-6.083751321E-1
2.794340240E0,5.204987526E0,-7.014559746E0,-1.020538807E0
2.799130032E0,6.276373863E0,-6.495915413E0,-2.053640127E0
2.803906543E0,5.873183250E0,-6.862615108E0,-3.668197155E0
2.808669720E0,7.661220074E0,-5.681757450E0,-4.810770035E0
2.813459511E0,8.458627701E0,-5.328217983E0,-4.057030678E0
2.818236022E0,1.007438183E1,-5.012365341E0,-2.650051117E0
2.822999147E0,1.232303619E1,-4.877170563E0,-2.138585329E0
2.827788990E0,1.380838108E1,-4.628317356E0,-9.804590940E-1
2.832565449E0,1.540080452E1,-4.841876507E0,1.393819153E-1
2.837328626E0,1.698066521E1,-5.440082073E0,7.316055298E-1
2.842118418E0,1.812264061E1,-6.131608009E0,1.182054400E0
2.846894876E0,1.895354843E1,-7.092924595E0,1.144367456E0
2.851658053E0,1.931845284E1,-8.315656662E0,2.841476798E-1
2.856447845E0,1.959661865E1,-9.672985077E0,-8.536394835E-1
2.861224355E0,1.925504303E1,-1.104586792E1,-2.208575249E0
2.865987532E0,1.841934967E1,-1.221296692E1,-3.393620729E0
2.870777324E0,1.728276062E1,-1.315514088E1,-3.756731510E0
2.875553782E0,1.603071594E1,-1.374138260E1,-4.210769653E0
2.880316959E0,1.492224026E1,-1.392682552E1,-4.329214573E0
2.885106751E0,1.363011551E1,-1.360319710E1,-3.857230186E0
2.889883261E0,1.231585789E1,-1.343749332E1,-3.164507866E0
2.894646438E0,1.078804111E1,-1.255992603E1,-2.806182861E0
2.899436230E0,9.900303841E0,-1.122233772E1,-2.514856577E0
2.904212688E0,1.072463131E1,-9.327820778E0,-2.036292076E0
2.908975865E0,1.208854008E1,-6.602396011E0,-1.733001828E0
2.913765657E0,1.346201992E1,-4.382454872E0,-1.588235974E0
2.918542168E0,1.480738449E1,-2.486142635E0,-2.263610125E0
2.923305345E0,1.397288799E1,-1.651047617E-1,-4.435096741E0
2.928095136E0,1.081974602E1,8.386843204E-1,-3.799802303E0
2.932871595E0,1.048056316E1,4.277170599E-1,-1.830509305E0
2.937634772E0,1.066122150E1,6.496513486E-1,-1.673181176E0
2.942424563E0,1.054038334E1,2.691925466E-1,-2.257628202E0
2.947201074E0,9.682557106E0,-4.749752879E-1,-2.147558212E0
2.951964251E0,8.859425545E0,-9.296116233E-1,-2.401795626E0
2.956754043E0,8.000402451E0,-1.466800332E0,-2.252842426E0
2.961530501E0,7.289135933E0,-2.103889227E0,-2.162513494E0
2.966293678E0,6.063412666E0,-2.102692842E0,-1.901695848E0
2.971083470E0,5.406582832E0,-5.623133183E-1,-2.024327993E0
2.975859980E0,5.209773064E0,4.486542344E-1,-1.769492388E0
2.980623157E0,5.252843857E0,1.070189953E0,-1.366899967E0
2.985412949E0,4.667798996E0,1.121635556E0,-1.282552958E0
2.990189407E0,4.400999069E0,1.150349498E0,-1.333998680E0
2.994952584E0,2.614158630E0,1.030110121E0,-1.055832982E0
2.999742376E0,1.110867858E0,4.821537733E-1,-1.373480201E0
3.004518834E0,2.859423161E-1,-3.966103494E-1,-2.088934183E0
3.009282011E0,1.058823988E-1,-1.037288666E0,-2.298306227E0
3.014071855E0,-8.799605370E-1,-2.263610125E0,-2.302493572E0
3.018848313E0,-6.000002623E-1,-3.187838078E0,-2.163709879E0
3.023611490E0,-8.739784956E-1,-3.522234917E0,-1.216750264E0
3.028401282E0,-2.093719877E-2,-4.415356159E0,-1.493719578E0
3.033177740E0,4.187439568E-3,-4.482953072E0,-5.581258535E-1
3.037940918E0,-7.411768436E-1,-4.996213913E0,2.949153781E-1
3.042730709E0,-1.797009826E0,-6.950551510E0,8.973084688E-1
3.047507220E0,-4.348955154E-1,-5.911468506E0,1.536790371E0
3.052270397E0,-8.434699476E-2,-9.379864931E-1,3.948157281E-2
3.057060188E0,-1.088734269E0,6.783652306E-1,-6.717849374E-1
3.061836647E0,-1.264008522E0,1.232901812E0,-1.117448211E0
3.066599824E0,-1.068395257E0,1.541576028E0,-1.631905079E0
3.071389615E0,-1.274776220E0,2.456830740E0,-2.221735716E0
3.076166126E0,-8.865407705E-1,2.423929453E0,-2.492722988E0
3.080929303E0,-6.783652306E-1,2.463410854E0,-2.685345173E0
3.085719095E0,-4.253242314E-1,2.589034081E0,-2.485544443E0
3.090495553E0,3.014956415E-1,3.139383316E0,-2.374278307E0
3.095258730E0,4.959124923E-1,3.415156126E0,-2.251047850E0
3.100048522E0,1.709671736E0,3.909274101E0,-1.936391711E0
3.104825032E0,7.034898400E-1,4.065405846E0,-1.494317770E0
3.109588209E0,-6.813562512E-1,3.464807272E0,-1.025922656E0
3.114378001E0,-7.986045480E-1,2.962912560E0,-3.002992272E-1
3.119154459E0,-7.070791125E-1,2.269592285E0,-4.390829504E-1
3.123930970E0,-9.050851464E-1,1.989632010E0,-1.091127157E0
3.128707428E0,-9.427721500E-1,1.859821439E0,-1.930409670E0
3.133483938E0,-1.159322619E0,1.926820397E0,-2.260619164E0
3.138247115E0,-8.410771489E-1,1.643869162E0,-3.265006542E0
3.143036907E0,-5.060819983E-1,1.274178028E0,-3.861417532E0
3.147813365E0,-2.560320199E-1,1.193420291E0,-5.100899696E0
3.152576543E0,-7.812566161E-1,1.086341500E0,-5.414957523E0
3.157366334E0,-1.677966833E0,9.822536707E-1,-5.073980331E0
3.162142845E0,-2.286342144E0,1.275374413E0,-4.898108006E0
3.166906022E0,-1.949552298E0,1.040279627E0,-5.173880577E0
3.171695813E0,-1.417149186E0,-3.224328458E-1,-4.402793884E0
3.176472272E0,-1.222732425E0,-1.830509305E0,-3.778865099E0
3.181235449E0,-1.618744493E0,-2.323430777E0,-1.002592683E0
3.186025240E0,-1.351944804E0,-3.635894060E0,2.980260611E0
3.190801751E0,-4.618147612E-1,-5.913262844E0,4.258625984E0
3.195564928E0,2.245664120E0,-8.766105652E0,4.498506486E-1
3.200354720E0,3.670589924E0,-1.135872936E1,-2.161317110E0
3.205131178E0,4.268197536E0,-1.422353554E1,-2.402393818E0
3.209894355E0,3.540779352E0,-1.567657757E1,7.992027402E-1
3.214684147E0,5.650650501E0,-1.763749504E1,1.710868239E0
3.219460657E0,8.184649467E0,-1.908634949E1,1.424925923E0
3.224223834E0,8.611170769E0,-1.956192398E1,8.231309652E-1
3.229013626E0,8.710473061E0,-2.005723763E1,-2.470589429E-1
3.233790084E0,9.105886459E0,-2.080858421E1,2.165504545E-1
3.238553261E0,1.015095139E1,-2.166820526E1,2.979064286E-1
3.243343053E0,1.138086224E1,-2.254098701E1,-2.184048891E0
3.248119563E0,1.206939697E1,-2.302493668E1,-4.994419098E0
3.252882740E0,1.236790180E1,-2.344188499E1,-7.774280548E0
3.257672532E0,1.240857983E1,-2.368774796E1,-8.225327492E0
3.262448990E0,1.252762318E1,-2.307099724E1,-7.137191772E0
3.267212168E0,1.264666557E1,-2.126441574E1,-5.325226784E0
3.272001959E0,1.310548973E1,-1.888894272E1,-3.754936934E0
3.276778470E0,1.378864002E1,-1.658465385E1,-2.752344131E0
3.281541647E0,1.486421394E1,-1.488694572E1,-2.600399971E0
3.286331438E0,1.531645775E1,-1.408594894E1,-2.181656122E0
3.291107897E0,1.532184124E1,-1.414875984E1,-2.161915302E0
3.295871074E0,1.456271839E1,-1.469492245E1,-2.834298372E0
3.300660865E0,1.218305683E1,-1.509512138E1,-3.244069338E0
3.305437324E0,1.000080204E1,-1.538405514E1,-3.909274101E0
3.310200501E0,8.854042053E0,-1.539123344E1,-4.670789719E0
3.314990293E0,7.697710514E0,-1.545225048E1,-3.949951887E0
3.319766803E0,7.487142086E0,-1.549173164E1,-3.435495138E0
3.324529980E0,7.368099213E0,-1.537209129E1,-2.518445730E0
3.329319772E0,7.140182972E0,-1.505982780E1,-1.533201098E0
3.334096230E0,7.109076023E0,-1.449631786E1,-8.763712645E-1
3.338859407E0,7.262216568E0,-1.391845131E1,-4.115654826E-1
3.343649199E0,6.939185619E0,-1.317248821E1,6.879365444E-2
3.348425709E0,7.463811874E0,-1.249711418E1,-2.458625287E-1
3.353188886E0,8.161917686E0,-1.209033489E1,-1.393819153E-1
3.357978678E0,8.575876236E0,-1.163689518E1,-2.991028363E-3
3.362755136E0,8.665607452E0,-1.113978577E1,2.027917206E-1
3.367518313E0,8.377870560E0,-1.039920712E1,2.805584669E-1
3.372308105E0,7.962715626E0,-9.716055870E0,4.689932466E-1
3.377084615E0,8.042277336E0,-8.988039970E0,5.647061467E-1
3.381847793E0,7.447660446E0,-8.339585304E0,8.739784956E-1
3.386637584E0,7.758727551E0,-7.929215908E0,1.418943882E0
3.391414043E0,8.079963684E0,-7.475776196E0,1.354935765E0
3.396177220E0,9.071190834E0,-6.967899323E0,1.046859860E0
3.400967011E0,1.004985523E1,-6.964908600E0,8.835497499E-1
3.405743522E0,9.861420631E0,-6.734001160E0,1.249053478E0
3.410506699E0,9.153742790E0,-6.485745907E0,1.621735573E0
3.415296490E0,8.839086533E0,-6.346364021E0,1.527817249E0
3.420072949E0,8.704490662E0,-6.221937180E0,1.355534077E0
3.424836126E0,8.892925262E0,-6.201598167E0,1.104885817E0
3.429625918E0,9.271589279E0,-6.417550564E0,7.531409264E-1
3.434402428E0,9.317651749E0,-6.614359856E0,3.158525825E-1
3.439178886E0,9.244669914E0,-6.744768620E0,-9.571290575E-3
3.443955345E0,9.220144272E0,-7.106084824E0,-3.164508045E-1
3.448731855E0,9.025727272E0,-7.636095047E0,-5.306084156E-1
3.453508313E0,8.892925262E0,-8.128418922E0,-7.268198729E-1
3.458284824E0,8.717651367E0,-8.590831757E0,-8.745766878E-1
3.463061282E0,8.361120224E0,-9.058628082E0,-9.732806087E-1
3.467824459E0,8.045268059E0,-9.604191780E0,-8.368897438E-1
3.472614251E0,7.759325504E0,-1.013958549E1,-4.360919297E-1
3.477390761E0,7.225726128E0,-1.063789082E1,8.015955985E-2
3.482153938E0,7.107879639E0,-1.118225861E1,7.052844763E-1
3.486943730E0,7.369295597E0,-1.181336498E1,1.131206870E0
3.491720188E0,7.719843864E0,-1.226082325E1,1.398604870E0
3.496483365E0,7.942376614E0,-1.269870949E1,1.738385677E0
3.501273157E0,8.441280365E0,-1.291944790E1,1.601396561E0
3.506049668E0,8.947959900E0,-1.295175076E1,1.143171072E0
3.510812845E0,9.615557671E0,-1.316172123E1,5.401797295E-1
3.515602636E0,1.024187946E1,-1.340040493E1,1.046859920E-1
3.520379095E0,1.089811039E1,-1.348056412E1,-9.990034252E-2
3.525142272E0,1.135274696E1,-1.359063435E1,-4.761717021E-1
3.529932063E0,1.216092300E1,-1.384846115E1,-6.825526357E-1
3.534708574E0,1.265623760E1,-1.394836140E1,-1.409372568E0
3.539471751E0,1.320180035E1,-1.352722454E1,-2.324028969E0
3.544261543E0,1.366301727E1,-1.332383442E1,-2.192423820E0
3.549038001E0,1.447597885E1,-1.311446285E1,-2.191825628E0
3.553801178E0,1.525304794E1,-1.343091393E1,-2.070987940E0
3.558590970E0,1.504367638E1,-1.394178104E1,-2.367099762E0
3.563367428E0,1.430608845E1,-1.421815205E1,-2.545365095E0
3.568130605E0,1.324846077E1,-1.431685638E1,-2.866601467E0
3.572920397E0,1.234397411E1,-1.437189102E1,-2.943171740E0
3.577696907E0,1.223031521E1,-1.452144241E1,-2.923431158E0
3.582473365E0,1.228953743E1,-1.479183102E1,-2.721835852E0
3.587249876E0,1.191266727E1,-1.482174206E1,-2.124826431E0
3.592026334E0,1.070847988E1,-1.453579903E1,-1.231107235E0
3.596789511E0,9.138189316E0,-1.401954746E1,-1.069591761E0
3.601579303E0,7.652844906E0,-1.343510056E1,-9.421738982E-1
3.606355813E0,6.519245148E0,-1.275434303E1,-7.597211599E-1
3.611118990E0,5.754738331E0,-1.198983574E1,-9.044869542E-1
3.615908782E0,4.852046013E0,-1.105723381E1,-9.487541914E-1
3.620685240E0,3.684946775E0,-1.002413273E1,-5.832505226E-1
3.625448418E0,1.837687731E0,-8.882157326E0,-3.152543902E-1
3.630238209E0,2.267199457E-1,-7.566703320E0,-5.982056609E-4
3.635014720E0,-7.190431952E-1,-6.056233883E0,2.093719840E-1
3.639777897E0,-1.944766641E0,-4.604389191E0,4.689932466E-1
3.644567688E0,-2.599801779E0,-3.517449379E0,4.331009090E-1
3.649344147E0,-3.338585854E0,-2.352742910E0,1.004985496E-1
3.654107324E0,-3.778865099E0,-9.661021233E-1,3.798605800E-1
3.658897115E0,-3.912863255E0,3.002992272E-1,1.032503009E0
3.663673626E0,-4.459623337E0,1.975275040E0,1.192822099E0
3.668436751E0,-4.881358147E0,3.674777269E0,1.462014675E0
3.673226595E0,-4.832305431E0,4.840680122E0,2.401795626E0
3.678003053E0,-4.620540619E0,5.866602898E0,3.360121250E0
3.682766230E0,-4.537988186E0,6.463612080E0,3.945166349E0
3.687556022E0,-5.222933769E0,7.319644451E0,4.470390797E0
3.692332480E0,-5.467001438E0,7.616952896E0,5.110470772E0
3.697095657E0,-5.541179180E0,7.390830994E0,5.312066078E0
3.701885449E0,-6.115456581E0,6.879364967E0,4.604987144E0
3.706661959E0,-6.837490559E0,6.463014126E0,3.731008768E0
3.711425136E0,-6.355935097E0,5.872584820E0,2.788834810E0
3.716214928E0,-5.862415314E0,5.102694511E0,2.114656925E0
3.720991386E0,-5.436492920E0,4.362115860E0,1.402194023E0
3.725754563E0,-4.398007870E0,3.907479286E0,5.868397355E-1
3.730544355E0,-3.722633839E0,3.476173162E0,2.518445849E-1
3.735320865E0,-3.284149170E0,3.067000389E0,2.117647976E-1
3.740084043E0,-3.168695450E0,2.653640270E0,1.824527234E-1
3.744873834E0,-3.203391314E0,2.273181438E0,-1.962114573E-1
3.749650293E0,-2.872583628E0,1.816152334E0,-7.639086246E-1
3.754413470E0,-2.364108801E0,1.311864972E0,-1.183848977E0
3.759203261E0,-1.789233088E0,8.027920127E-1,-1.531406522E0
3.763979720E0,-1.104287624E0,3.134597540E-1,-1.875972986E0
3.768742897E0,-2.943171859E-1,-2.249253243E-1,-2.033301115E0
3.773532688E0,4.683950245E-1,-7.812566161E-1,-2.022533417E0
3.778309199E0,1.128814101E0,-1.430309772E0,-1.766501307E0
3.783072376E0,1.594816327E0,-2.069791555E0,-1.355534077E0
3.787862168E0,2.074577332E0,-2.662015200E0,-1.040877819E0
3.792638626E0,2.248655081E0,-3.292523861E0,-8.446664214E-1
3.797401803E0,2.711666346E0,-3.922434568E0,-9.571290612E-1
3.802191595E0,2.649452925E0,-4.490729809E0,-1.282552958E0
3.806968105E0,2.674577475E0,-5.073980331E0,-1.421336651E0
3.811731282E0,2.658426046E0,-5.763113499E0,-1.252642632E0
3.816521074E0,2.458027124E0,-6.476174355E0,-9.487541914E-1
3.821297532E0,2.249253273E0,-7.301100254E0,-5.629115105E-1
3.826060709E0,2.236092806E0,-8.197810173E0,-6.340979785E-2
3.830850501E0,2.389233351E0,-9.136993408E0,3.726821244E-1
3.835627011E0,2.634497643E0,-1.004626560E1,3.242274821E-1
3.840390188E0,3.153740168E0,-1.086879826E1,-4.187439568E-3
3.845179980E0,3.735794306E0,-1.156152058E1,-9.182456732E-1
3.849956438E0,3.926023722E0,-1.175294685E1,-1.725225091E0
3.854719615E0,4.270590305E0,-1.222433281E1,-1.785045743E0
3.859509407E0,4.292723656E0,-1.232542896E1,-1.280758262E0
3.864285865E0,5.051248550E0,-1.265145111E1,-1.030110121E0
3.869049043E0,6.047859192E0,-1.338126278E1,-3.050848842E-1
3.873838834E0,6.993622303E0,-1.466142273E1,1.226321578E0
3.878615345E0,7.862216949E0,-1.654876137E1,2.974876642E0
3.883378522E0,8.406583786E0,-1.889372826E1,3.655036688E0
3.888168313E0,8.676374435E0,-2.145643997E1,2.714657307E0
3.892944772E0,9.289535522E0,-2.365006065E1,-2.691925503E-2
3.897707949E0,9.956535339E0,-2.532922363E1,-2.328216314E0
3.902497740E0,1.138385391E1,-2.666382027E1,-3.860221148E0
3.907274251E0,1.224108219E1,-2.702214622E1,-5.510670662E0
3.912037376E0,1.207418346E1,-2.636711121E1,-6.777669907E0
3.916827220E0,1.318983650E1,-2.456711006E1,-6.981060028E0
3.921603678E0,1.458604908E1,-2.223231316E1,-6.111867428E0
3.926366855E0,1.529073524E1,-2.004886246E1,-4.888536453E0
3.931156647E0,1.538465309E1,-1.789113426E1,-3.235096216E0
3.935933105E0,1.551147270E1,-1.575195122E1,-2.296511650E0
3.940696282E0,1.550907993E1,-1.363789272E1,-1.529611826E0
3.945486074E0,1.495215034E1,-1.202991581E1,-7.507480979E-1
3.950262584E0,1.400399494E1,-1.071745300E1,-2.667997181E-1
3.955025761E0,1.246062374E1,-9.704689980E0,4.187439568E-3
3.959815553E0,1.098006535E1,-9.130413055E0,4.067798331E-2
3.964592011E0,9.738189697E0,-8.694919586E0,3.296113312E-1
3.969355188E0,9.169894218E0,-8.474779129E0,1.118644550E-1
3.974144980E0,8.995218277E0,-8.638688087E0,2.039881349E-1
3.978921490E0,8.895318031E0,-8.706285477E0,-5.629115105E-1
3.983684668E0,8.645866394E0,-8.879764557E0,-1.099501967E0
3.988474459E0,8.809774399E0,-9.207581520E0,-8.602197170E-1
3.993250918E0,8.711071014E0,-9.680164337E0,-1.872383654E-1
3.998014095E0,8.809176445E0,-9.896714211E0,2.679961324E-1
4.002803886E0,9.297910690E0,-1.014138031E1,7.459624410E-1
4.007580345E0,9.727422714E0,-1.041535854E1,7.148557901E-1
4.012343522E0,1.027358437E1,-1.053978539E1,1.369292736E0
4.017133313E0,1.066241741E1,-1.054816055E1,1.977069736E0
4.021909824E0,1.072582722E1,-1.021137047E1,2.374876499E0
4.026673001E0,1.084128094E1,-9.757930756E0,2.709871531E0
4.031462793E0,1.071984577E1,-9.238688469E0,3.430111170E0
4.036239251E0,1.118704414E1,-8.794221878E0,3.767499208E0
4.041002428E0,1.166620636E1,-8.446065903E0,3.798605919E0
4.045792220E0,1.172243786E1,-8.210372925E0,3.812364578E0
4.050568730E0,1.127079296E1,-8.095517159E0,3.867399693E0
4.055331855E0,1.105184937E1,-8.110472679E0,3.806382656E0
4.060121699E0,1.071266651E1,-8.159524918E0,3.659224033E0
4.064898157E0,9.970293999E0,-8.132605553E0,3.591626883E0
4.069674668E0,1.017846966E1,-8.309675217E0,3.288336515E0
4.074451126E0,9.933204651E0,-8.455039024E0,2.804986238E0
4.079227584E0,9.727422714E0,-8.782257080E0,2.417349100E0
4.083990761E0,9.122037888E0,-9.135796547E0,2.027318954E0
4.088780553E0,8.093124390E0,-9.523433685E0,1.615155339E0
4.093557063E0,7.522436142E0,-1.003011417E1,1.383649707E0
4.098320240E0,6.999604225E0,-1.040279675E1,1.319043517E0
4.103110032E0,6.257231236E0,-1.043868923E1,1.241874933E0
4.107886490E0,6.200999737E0,-1.070369434E1,1.319043517E0
4.112649668E0,6.734001160E0,-1.114038372E1,1.796411633E0
4.117439459E0,7.280761242E0,-1.150588799E1,2.331207514E0
4.122215970E0,7.759923935E0,-1.179900837E1,2.717648268E0
4.126979147E0,8.033902168E0,-1.198624706E1,3.157927752E0
4.131768886E0,8.249854088E0,-1.225543976E1,3.339184046E0
4.136545397E0,8.824729919E0,-1.277468204E1,3.653241873E0
4.141308574E0,9.266803741E0,-1.270648670E1,3.636492252E0
4.146098365E0,9.847063065E0,-1.251685524E1,3.695714474E0
4.150874824E0,1.068395329E1,-1.241815090E1,3.691527128E0
4.155638001E0,1.124447155E1,-1.247019482E1,3.520440340E0
4.160427793E0,1.198026466E1,-1.241934776E1,3.176471949E0
4.165204303E0,1.278006554E1,-1.226800156E1,2.638685226E0
4.169967480E0,1.367139244E1,-1.214058399E1,2.188236237E0
4.174757272E0,1.441974735E1,-1.215793228E1,1.627119422E0
4.179533730E0,1.497368622E1,-1.224287701E1,1.154536963E0
4.184296907E0,1.547318745E1,-1.228953743E1,1.041476011E0
4.189086699E0,1.537089443E1,-1.259880924E1,4.803591371E-1
4.193863157E0,1.500598907E1,-1.270050430E1,-6.580262445E-3
4.198626334E0,1.401655674E1,-1.292423344E1,-1.214357466E-1
4.203416126E0,1.249890900E1,-1.337528038E1,-3.912265003E-1
4.208192636E0,1.107159042E1,-1.367318726E1,-5.898307562E-1
4.212955813E0,1.062413216E1,-1.383290768E1,-6.113662124E-1
4.217745605E0,1.105783176E1,-1.398126316E1,-6.382854581E-1
4.222522063E0,1.050389290E1,-1.400160217E1,-9.086744189E-1
4.227285240E0,9.351749420E0,-1.377847099E1,-9.655039310E-1
4.232075032E0,8.770293236E0,-1.345663643E1,-9.720842242E-1
4.236851543E0,8.303094864E0,-1.313958740E1,-9.505487680E-1
4.241614720E0,6.845865726E0,-1.253181076E1,-9.002995491E-1
4.246404511E0,5.788836002E0,-1.172004509E1,-5.880361795E-1
4.251180970E0,4.959125042E0,-1.061934662E1,-2.344966233E-1
4.255944147E0,3.598805189E0,-9.476176262E0,3.810569942E-1
4.260733938E0,2.338385820E0,-8.091927528E0,1.173679471E0
4.265510397E0,1.092323542E0,-6.500700951E0,2.076970100E0
4.270273574E0,-2.219343036E-1,-5.155336380E0,2.586641312E0
4.275063365E0,-1.826321840E0,-3.684946775E0,3.241676569E0
4.279839876E0,-3.172882795E0,-2.050050735E0,3.309871912E0
4.284603053E0,-5.285147190E0,-4.510470629E-1,3.358326674E0
4.289392845E0,-7.474579811E0,1.658226132E0,3.612564087E0
4.294169303E0,-8.603992462E0,3.958326817E0,3.713062525E0
4.298932480E0,-8.211568832E0,5.915655613E0,3.498306751E0
4.303722272E0,-7.439285755E0,6.934400082E0,3.570689678E0
4.308498782E0,-7.465606689E0,6.808776855E0,3.882952929E0
4.313261907E0,-6.925426960E0,6.164509296E0,3.894917011E0
4.318051699E0,-6.206982136E0,5.193023205E0,3.445664644E0
4.322828209E0,-6.247660160E0,4.133601189E0,2.433500528E0
4.327591386E0,-6.347560406E0,3.285943747E0,1.264008522E0
4.332381178E0,-6.247061729E0,2.843271494E0,2.943171859E-1
4.337157636E0,-6.126822472E0,2.992822886E0,-2.051845491E-1
4.341920813E0,-5.714658737E0,3.317050457E0,-2.943171859E-1
4.346710605E0,-5.471189022E0,3.620938778E0,-2.691925503E-2
4.351487115E0,-5.335994720E0,3.789632797E0,4.325026870E-1
4.356250293E0,-5.014758110E0,3.819543123E0,8.153542876E-1
4.361040084E0,-4.542175770E0,3.695116282E0,9.858429432E-1
4.365816543E0,-3.646661758E0,3.360121250E0,9.523434043E-1
4.370579720E0,-3.000001431E0,2.918645382E0,7.238288522E-1
4.375369511E0,-3.010170937E0,2.726023197E0,4.935196638E-1
4.380145970E0,-2.299502611E0,2.333002090E0,-2.297109663E-1
4.384909147E0,-1.752742529E0,1.818545222E0,-4.576273263E-1
4.389698938E0,-1.185045362E0,1.266401410E0,-5.850451589E-1
4.394475449E0,-5.252245665E-1,6.077769399E-1,-3.236292601E-1
4.399238626E0,-1.591227055E-1,-1.292124242E-1,-4.247260094E-2
4.404028418E0,-1.854437590E-2,-7.836494446E-1,2.931207791E-2
4.408804876E0,-3.469592705E-2,-1.444068432E0,1.208375469E-1
4.413568053E0,-1.471585929E-1,-2.113460541E0,5.982056633E-2
4.418357845E0,-8.973085321E-3,-2.768495798E0,-1.950150430E-1
4.423134355E0,1.292124242E-1,-3.370290756E0,-4.588237405E-1
4.427897480E0,4.019941986E-1,-3.952344894E0,-5.078766346E-1
4.432687324E0,9.182456732E-1,-4.557728767E0,-5.102694035E-1
4.437463782E0,1.444068432E0,-5.096712112E0,-3.876372576E-1
4.442226959E0,1.447059512E0,-5.650650501E0,-1.668993831E-1
4.447016751E0,1.878365755E0,-6.261418819E0,1.854437590E-2
4.451793209E0,2.301297188E0,-6.969096184E0,3.619144261E-1
4.456556386E0,2.438884497E0,-7.686344624E0,6.598208547E-1
4.461346178E0,2.639283419E0,-8.495717049E0,1.115055323E0
4.466122688E0,2.638685226E0,-9.204590797E0,1.489532113E0
4.470885865E0,3.042474031E0,-1.001755238E1,1.671386600E0
4.475675605E0,3.434298754E0,-1.083529949E1,1.568495274E0
4.480452115E0,3.868596077E0,-1.187019539E1,1.216750264E0
4.485215293E0,4.293920040E0,-1.261137199E1,1.061216831E0
4.490005084E0,5.081159115E0,-1.366002655E1,1.739582062E0
4.494781543E0,6.253642082E0,-1.504487228E1,2.962912560E0
4.499544720E0,7.692326546E0,-1.694058609E1,4.540380955E0
4.504334511E0,9.212965012E0,-1.927897263E1,5.316852093E0
4.509111022E0,1.093938732E1,-2.171725845E1,5.510670662E0
4.513874199E0,1.260419369E1,-2.435295296E1,4.884947300E0
4.518663990E0,1.448554993E1,-2.688156700E1,3.014956474E0
4.523440449E0,1.634357643E1,-2.903391266E1,1.196411345E-2
4.528203626E0,1.826082611E1,-2.975534821E1,-2.723032236E0
4.532993418E0,1.749272919E1,-2.980440140E1,-5.459224701E0
4.537769928E0,1.522852135E1,-2.816112900E1,-7.632505894E0
4.542533053E0,1.358345604E1,-2.539921379E1,-8.426922798E0
4.547322845E0,1.185344505E1,-2.199303055E1,-7.772486210E0
4.552099355E0,1.204247856E1,-1.843310928E1,-6.230910301E0
4.556862532E0,1.401296806E1,-1.521595955E1,-3.450450182E0
4.561652324E0,1.545464325E1,-1.275673580E1,-7.148557901E-1
4.566428782E0,1.527099419E1,-1.069591713E1,7.728816867E-1
4.571191959E0,1.517169189E1,-8.879764557E0,1.103091240E0
4.575981751E0,1.411167145E1,-7.643871784E0,1.174875975E0
4.580758261E0,1.294696522E1,-6.822535515E0,9.499505758E-1
4.585521386E0,1.253001595E1,-6.327819347E0,6.735795736E-1
4.590311178E0,1.209093285E1,-6.270989895E0,4.115654826E-1
4.595087688E0,1.111884880E1,-6.412764549E0,1.292124242E-1
4.599850865E0,1.115115166E1,-6.739983082E0,-2.213360965E-1
4.604640657E0,1.105244732E1,-7.164111137E0,-2.727817893E-1
4.609417115E0,1.042373371E1,-7.844869137E0,4.725824669E-2
4.614180293E0,9.909874916E0,-8.425128937E0,4.869394004E-1
4.618970084E0,9.857831001E0,-9.065806389E0,1.001396298E0
4.623746595E0,1.007318497E1,-9.778867722E0,1.624128342E0
4.628509772E0,1.015214825E1,-1.011565781E1,1.922034740E0
4.633299563E0,1.047398281E1,-1.043330479E1,2.304288149E0
4.638076022E0,1.086760235E1,-1.067797089E1,2.685943365E0
4.642839199E0,1.129711437E1,-1.072522926E1,2.934198856E0
4.647628990E0,1.179661560E1,-1.038724327E1,3.156731367E0
4.652405449E0,1.193958664E1,-9.866206169E0,3.366701365E0
4.657168626E0,1.169611740E1,-9.327820778E0,3.535395384E0
4.661958418E0,1.114816093E1,-8.851649284E0,3.628715515E0
4.666734928E0,1.074975586E1,-8.400003433E0,3.371487141E0
4.671498105E0,1.019521904E1,-8.015955925E0,3.081955671E0
4.676287897E0,1.020957565E1,-7.721638680E0,2.486142635E0
4.681064355E0,9.359525681E0,-7.487142086E0,2.096710920E0
4.685827532E0,8.715258598E0,-7.291528702E0,1.817348838E0
4.690617324E0,9.101698875E0,-7.256234646E0,1.301097274E0
4.695393834E0,8.434102058E0,-7.258029461E0,1.026520967E0
4.700156959E0,7.933403492E0,-7.316653252E0,7.992027402E-1
4.704946751E0,7.562515736E0,-7.500900745E0,6.909275651E-1
4.709723261E0,7.286743164E0,-7.746763229E0,7.016952634E-1
4.714486438E0,7.250252724E0,-8.007580757E0,7.453642488E-1
4.719276230E0,7.072585583E0,-8.297112465E0,1.096511006E0
4.724052688E0,7.990831375E0,-8.733204842E0,1.629512191E0
4.728829199E0,8.237292290E0,-9.074779510E0,2.108675003E0
4.733605657E0,8.517251968E0,-9.450452805E0,2.654238462E0
4.738382168E0,9.102895737E0,-9.859027863E0,3.223132133E0
4.743145293E0,9.993623734E0,-1.005942631E1,4.077369690E0
4.747935084E0,1.093280697E1,-1.073659515E1,4.725824833E0
4.752711595E0,1.143589783E1,-1.150170040E1,5.026124001E0
4.757474772E0,1.222552872E1,-1.237627697E1,5.295914650E0
4.762264563E0,1.267597771E1,-1.342552948E1,5.280361176E0
4.767041022E0,1.297687531E1,-1.433061504E1,4.962115765E0
4.771804199E0,1.309352589E1,-1.473500156E1,4.333401680E0
4.776593990E0,1.270469189E1,-1.474038601E1,3.001197815E0
4.781370501E0,1.268913841E1,-1.499522114E1,1.869392633E0
4.786133626E0,1.401177120E1,-1.508315754E1,1.843071699E0
4.790923470E0,1.443530083E1,-1.503888988E1,1.845464468E0
4.795699928E0,1.422891998E1,-1.481815243E1,1.654636860E0
4.800463105E0,1.382513142E1,-1.468355656E1,1.133599758E0
4.805252897E0,1.395195103E1,-1.468295765E1,8.015955687E-1
4.810029355E0,1.344885921E1,-1.444307709E1,3.816552162E-1
4.814792532E0,1.313240910E1,-1.403928852E1,1.573280841E-1
4.819582324E0,1.335613823E1,-1.353739452E1,4.199403822E-1
4.824358834E0,1.257368469E1,-1.282134151E1,-3.152543902E-1
4.829122011E0,1.307797241E1,-1.277169132E1,-1.138983607E0
4.833911751E0,1.301575851E1,-1.319103336E1,-4.851447940E-1
4.838688261E0,1.257009602E1,-1.358345604E1,2.512463629E-1
4.843451438E0,1.131386375E1,-1.400519085E1,8.147560954E-1
4.848241230E0,1.147238827E1,-1.408235931E1,1.020538807E0
4.853017688E0,1.032502937E1,-1.373779297E1,3.110669553E-1
4.857780865E0,9.139386177E0,-1.300798225E1,-3.260220885E-1
4.862570657E0,8.124829292E0,-1.242233849E1,-1.292124242E-1
4.867347168E0,6.206982136E0,-1.159920788E1,2.398804724E-1
4.872110345E0,6.221338749E0,-1.105962658E1,5.371887088E-1
4.876900136E0,5.011766911E0,-1.015155029E1,8.596215248E-1
4.881676595E0,4.724030018E0,-9.145966530E0,9.607182741E-1
4.886439772E0,2.564507723E0,-7.667201996E0,1.844866276E0
4.891229563E0,5.766702294E-1,-6.126224041E0,2.842673302E0
4.896006022E0,-2.245065928E0,-4.683351994E0,3.494119167E0
4.900769199E0,-5.653043270E0,-3.448655605E0,3.846462488E0
4.905558990E0,-8.647661209E0,-2.005783558E0,4.326821327E0
4.910335501E0,-1.112782192E1,5.982056633E-2,4.400999069E0
4.915098678E0,-1.231825066E1,3.034099102E0,4.280161381E0
4.919888470E0,-1.057866859E1,6.829713821E0,4.426722050E0
4.924664928E0,-9.068798065E0,9.212965012E0,5.904888153E0
4.929428105E0,-9.577870369E0,1.003489971E1,7.965706348E0
4.934217897E0,-9.908080101E0,1.000498962E1,8.376075745E0
4.938994355E0,-1.011924744E1,9.011968613E0,7.614559650E0
4.943757532E0,-1.039741230E1,7.166503906E0,6.249454498E0
4.948547324E0,-9.113663673E0,4.718048096E0,4.819144726E0
4.953323834E0,-9.489336014E0,2.973680258E0,3.954139471E0
4.958087011E0,-9.940383911E0,2.635694027E0,3.063411236E0
4.962876803E0,-1.014676476E1,3.256631613E0,2.301297188E0
4.967653261E0,-9.332008362E0,3.741178274E0,2.013560295E0
4.972416438E0,-9.182456970E0,4.059423447E0,1.681556106E0
4.977206230E0,-8.505288124E0,4.214957237E0,1.327418327E0
4.981982688E0,-7.192824841E0,4.011567116E0,1.095314622E0
4.986745865E0,-5.935396671E0,3.509074450E0,1.036092162E0
4.991535657E0,-5.360520840E0,3.033500910E0,6.400800347E-1
4.996312168E0,-5.170291424E0,2.508874655E0,3.607180119E-1
5.001075293E0,-5.336592674E0,1.963909149E0,8.374879509E-2
5.005865084E0,-4.119842529E0,1.365105271E0,-3.774677813E-1
5.010641595E0,-3.211168051E0,7.220342159E-1,-7.471588850E-1
5.015404772E0,-2.200798512E0,-7.776673418E-3,-8.237292171E-1
5.020194563E0,-1.222134113E0,-7.525427341E-1,-7.657032609E-1
5.024971022E0,-7.663014531E-1,-1.478764415E0,-3.834498227E-1
5.029734199E0,-2.452643216E-1,-2.234298229E0,2.620140910E-1
5.034523990E0,3.798605800E-1,-3.100499868E0,9.553344250E-1
5.039300501E0,1.080957651E0,-3.898506403E0,1.575673699E0
5.044063678E0,1.783251047E0,-4.527818680E0,1.837089539E0
5.048853470E0,2.550748825E0,-5.032105923E0,1.737189293E0
5.053629928E0,3.311666489E0,-5.540580750E0,1.368694544E0
5.058393105E0,3.785445452E0,-6.040680885E0,8.482556343E-1
5.063182897E0,4.057030678E0,-6.579065800E0,5.210371017E-1
5.067959355E0,3.977469444E0,-7.253841877E0,5.413761139E-1
5.072722532E0,3.663411379E0,-8.040482521E0,8.171489239E-1
5.077512324E0,4.450051785E0,-9.175876617E0,1.259821177E0
5.082288834E0,5.322235584E0,-1.051765156E1,1.529611826E0
5.087052011E0,6.080162525E0,-1.166261768E1,1.234098315E0
5.091841803E0,6.878767014E0,-1.328375530E1,9.816554785E-1
5.096618261E0,7.400402069E0,-1.545045567E1,1.239482164E0
5.101381438E0,9.053842545E0,-1.808794403E1,2.542374134E0
5.106171230E0,1.156929779E1,-2.104487610E1,3.899702787E0
5.110947688E0,1.461894989E1,-2.427997208E1,4.442275047E0
5.115710865E0,1.604447365E1,-2.731167793E1,4.106083870E0
5.120500657E0,1.574238014E1,-2.949931526E1,2.563909531E0
5.125277168E0,1.420259857E1,-3.036372375E1,3.349951655E-2
5.130040345E0,1.483849144E1,-3.172942734E1,-2.502294302E0
5.134830136E0,1.695733643E1,-3.217150116E1,-4.006183147E0
5.139606595E0,1.855394745E1,-3.006701279E1,-4.821537495E0
5.144369772E0,1.727976799E1,-2.572882462E1,-4.645066738E0
5.149159563E0,1.628136253E1,-2.038445663E1,-4.019941807E0
5.153936022E0,1.680778503E1,-1.556112385E1,-2.609971285E0
5.158699199E0,1.710927963E1,-1.185165024E1,-1.131805062E0
5.163488990E0,1.703928947E1,-9.496515274E0,3.547359705E-1
5.168265501E0,1.586919975E1,-8.516654015E0,9.361918569E-1
5.173028678E0,1.504606915E1,-7.424928665E0,7.094719410E-1
5.177818470E0,1.434317684E1,-6.116054535E0,7.746763229E-1
5.182594928E0,1.394895935E1,-5.462215900E0,1.322632670E0
5.187358105E0,1.284945774E1,-5.353940487E0,1.333400369E0
5.192147897E0,1.213699436E1,-5.177470207E0,1.548156261E0
5.196924355E0,1.069172955E1,-5.479563713E0,1.608574986E0
5.201687532E0,1.000917721E1,-5.886343479E0,1.776072621E0
5.206477324E0,9.678369522E0,-6.026922226E0,2.041675806E0
5.211253834E0,9.647262573E0,-6.923632145E0,1.984846354E0
5.216017011E0,9.799206734E0,-8.021339417E0,2.051845312E0
5.220806803E0,9.869196892E0,-8.989236832E0,2.167299032E0
5.225583261E0,9.955338478E0,-9.929018021E0,2.508276224E0
5.230346438E0,9.690333366E0,-1.054158020E1,3.210569859E0
5.235136230E0,9.966106415E0,-1.090229797E1,3.799802303E0
5.239912688E0,1.037468052E1,-1.108475113E1,4.417150497E0
5.244675865E0,1.090588760E1,-1.098245811E1,4.865206718E0
5.249465657E0,1.126361465E1,-1.060140038E1,5.266602516E0
5.254242168E0,1.177687454E1,-1.000738239E1,5.556134224E0
5.259005345E0,1.213340569E1,-9.299106598E0,5.803193092E0
5.263795136E0,1.216451168E1,-8.566305161E0,5.874379635E0
5.268571595E0,1.205683517E1,-7.819744587E0,5.730212212E0
5.273334772E0,1.180558872E1,-7.242475986E0,5.448457241E0
5.278124563E0,1.142094231E1,-6.775277138E0,5.037489891E0
5.282901074E0,1.184207916E1,-6.354738712E0,4.084548473E0
5.287664199E0,1.146221828E1,-5.965905190E0,3.687339783E0
5.292453990E0,1.111286640E1,-5.749952793E0,3.382254839E0
5.297230501E0,1.087178993E1,-5.566303730E0,2.985046148E0
5.301993678E0,1.127139091E1,-5.569892883E0,2.210369825E0
5.306783470E0,1.059781170E1,-5.494519234E0,1.772483349E0
5.311559928E0,1.003609657E1,-5.664409637E0,1.655833244E0
5.316323105E0,9.618548393E0,-5.979065418E0,1.706082582E0
5.321112897E0,9.444471359E0,-6.369693756E0,1.851446509E0
5.325889407E0,9.358927727E0,-6.900302410E0,2.264208317E0
5.330665865E0,9.506684303E0,-7.487142086E0,2.797209740E0
5.335442324E0,9.754940033E0,-8.113463402E0,3.347558975E0
5.340218834E0,1.014676476E1,-8.782257080E0,4.100101471E0
5.344982011E0,1.059063339E1,-9.407979965E0,4.783850670E0
5.349771803E0,1.070010471E1,-1.001515961E1,5.307280540E0
5.354548261E0,1.098604679E1,-1.070847988E1,5.704489231E0
5.359311438E0,1.148076344E1,-1.148315620E1,6.105287075E0
5.364101230E0,1.178345490E1,-1.213220882E1,6.291927338E0
5.368877740E0,1.229910851E1,-1.270947742E1,6.208178520E0
5.373640865E0,1.304207993E1,-1.296790218E1,6.156134605E0
5.378430657E0,1.273579884E1,-1.360439301E1,5.639883041E0
5.383207168E0,1.201735306E1,-1.393819237E1,4.631308079E0
5.387970345E0,1.216451168E1,-1.392742443E1,3.742374659E0
5.392760136E0,1.289851093E1,-1.373779297E1,3.397808075E0
5.397536595E0,1.265384388E1,-1.355474186E1,3.125624657E0
5.402299772E0,1.275673580E1,-1.335733414E1,2.899502754E0
5.407089563E0,1.341894913E1,-1.309531975E1,2.382055044E0
5.411866022E0,1.401296806E1,-1.284826088E1,2.455634356E0
5.416629199E0,1.486780357E1,-1.287039471E1,2.926422119E0
5.421418990E0,1.531944847E1,-1.273460197E1,2.919243574E0
5.426195501E0,1.536132336E1,-1.261376476E1,2.832503796E0
5.430958678E0,1.551685619E1,-1.243490124E1,2.739781857E0
5.435748470E0,1.555813313E1,-1.230927753E1,2.480758905E0
5.440524928E0,1.544148254E1,-1.255573845E1,1.963310957E0
5.445301438E0,1.511366558E1,-1.292243862E1,1.883749604E0
5.450077897E0,1.481695557E1,-1.326999664E1,2.158924341E0
5.454854355E0,1.442214012E1,-1.338126278E1,2.118246317E0
5.459630865E0,1.309232903E1,-1.345663643E1,1.640279889E0
5.464407324E0,1.141436195E1,-1.335972691E1,1.264606714E0
5.469183834E0,9.879366875E0,-1.321376514E1,7.692924738E-1
5.473947011E0,7.426723480E0,-1.264188004E1,6.903293133E-1
5.478736803E0,6.082555294E0,-1.188395405E1,7.351947427E-1
5.483513261E0,4.956732273E0,-1.049432182E1,9.990034699E-1
5.488276438E0,3.099303484E0,-9.102297783E0,1.348355532E0
5.493066230E0,1.034297585E0,-7.560721397E0,2.159522533E0
5.497842688E0,-7.884350419E-1,-6.862017155E0,2.427518606E0
5.502605865E0,-2.100300074E0,-5.491528034E0,2.567498684E0
5.507395657E0,-3.707678795E0,-4.190430641E0,2.570489645E0
5.512172168E0,-5.145166874E0,-3.307479143E0,2.966501951E0
5.516935345E0,-7.511070251E0,-2.248056889E0,3.308675528E0
5.521725136E0,-9.568898201E0,-8.081758618E-1,3.740580082E0
5.526501595E0,-1.131984615E1,1.027717352E0,3.786641836E0
5.531264772E0,-1.237747288E1,3.086741209E0,3.920639992E0
5.536054563E0,-1.243549919E1,5.544169903E0,4.250251293E0
5.540831022E0,-1.120080280E1,7.150950432E0,4.808975220E0
5.545594199E0,-1.140838051E1,7.935796261E0,5.438287735E0
5.550383990E0,-1.137906837E1,7.844270706E0,5.543571949E0
5.555160501E0,-1.032084274E1,6.362515450E0,5.026124001E0
5.559923626E0,-9.483354568E0,4.867001057E0,4.341178417E0
5.564713418E0,-9.098708153E0,3.793820381E0,3.648456335E0
5.569489928E0,-8.885746956E0,3.235096216E0,3.139383316E0
5.574253105E0,-8.767900467E0,3.071786165E0,2.870190859E0
5.579042897E0,-8.917451859E0,3.467200041E0,2.784647465E0
5.583819355E0,-8.854042053E0,3.689134359E0,2.370688915E0
5.588582532E0,-8.823533058E0,3.540181160E0,1.819143414E0
5.593372324E0,-8.768498421E0,3.106482029E0,1.228714466E0
5.598148782E0,-8.476573944E0,2.779861689E0,6.418746710E-1
5.602911959E0,-8.483154297E0,2.515454769E0,1.046859920E-1
5.607701751E0,-8.255836487E0,2.130210400E0,-3.421736360E-1
5.612478261E0,-6.893722057E0,1.700698733E0,-1.021137118E0
5.617241438E0,-6.299703598E0,1.205982566E0,-1.354935765E0
5.622031230E0,-5.756533146E0,6.484549642E-1,-1.611566067E0
5.626807688E0,-5.093122959E0,-1.914258115E-2,-1.561915040E0
5.631570865E0,-4.503890514E0,-6.155536175E-1,-1.300499082E0
5.636360657E0,-3.500699520E0,-1.418345571E0,-9.744769931E-1
5.641137115E0,-2.428714991E0,-2.157129526E0,-4.271188378E-1
5.645900293E0,-1.036690354E0,-2.877369165E0,5.162515044E-1
5.650690084E0,2.476571500E-1,-3.501297712E0,1.738385677E0
5.655466595E0,1.235294700E0,-4.072584152E0,2.683550596E0
5.660229772E0,2.048256159E0,-4.634299278E0,3.040081263E0
5.665019563E0,2.885145903E0,-5.195415974E0,2.685345173E0
5.669796022E0,3.790829182E0,-5.872584820E0,1.841875196E0
5.674559199E0,4.450051785E0,-6.684350014E0,9.990034699E-1
5.679348990E0,4.909473896E0,-7.786244869E0,1.381855011E-1
5.684125449E0,5.242674351E0,-9.095717430E0,-6.209374666E-1
5.688888626E0,5.521438122E0,-1.062233829E1,-9.571290612E-1
5.693678418E0,5.803791523E0,-1.262572861E1,-9.236295223E-1
5.698454928E0,6.099305153E0,-1.550608921E1,-8.273184299E-1
5.703218105E0,7.906484127E0,-1.891765594E1,-4.259224236E-1
5.708007897E0,1.034118080E1,-2.283949280E1,2.764906645E0
5.712784355E0,1.336032486E1,-2.652025223E1,7.555935860E0
5.717547532E0,1.764048767E1,-3.094278526E1,8.803194046E0
5.722337324E0,2.078884315E1,-3.527439499E1,5.584249973E0
5.727113782E0,2.105504417E1,-3.837968063E1,2.221137524E0
5.731876959E0,2.000638962E1,-3.937808228E1,-1.770688742E-1
5.736666751E0,1.950030899E1,-3.730290985E1,-1.658824325E0
5.741443261E0,1.724925995E1,-3.101636505E1,-7.926225066E-1
5.746206438E0,1.732822418E1,-2.406940269E1,3.104687333E-1
5.750996230E0,1.924547195E1,-1.850549126E1,8.584251404E-1
5.755772688E0,2.110469627E1,-1.400578880E1,6.490531564E-1
5.760535865E0,2.173161507E1,-1.049192905E1,7.178468257E-2
5.765325657E0,2.048076630E1,-7.935796261E0,-8.542376757E-1
5.770102115E0,1.874118423E1,-5.989234924E0,-1.134796143E0
5.774865293E0,1.732583046E1,-4.263411522E0,1.914258152E-1
5.779655084E0,1.646680641E1,-3.181855917E0,1.125823021E0
5.784431595E0,1.530210114E1,-2.602194548E0,1.491326690E0
5.789194772E0,1.463211060E1,-2.319243431E0,1.840678811E0
5.793984511E0,1.370130253E1,-2.331207514E0,2.147558212E0
5.798761022E0,1.242054367E1,-2.691327333E0,2.600399971E0
5.803524199E0,1.159860992E1,-3.353540897E0,3.205185890E0
5.808313990E0,1.050150013E1,-4.344169617E0,3.758526087E0
5.813090449E0,1.040937710E1,-5.688337803E0,3.601796389E0
5.817853626E0,1.010309505E1,-6.942176819E0,3.340380430E0
5.822643418E0,9.735198975E0,-8.248658180E0,3.156133175E0
5.827419928E0,1.030588722E1,-9.625128746E0,3.197409153E0
5.832183053E0,1.000379372E1,-1.072403336E1,3.794418573E0
5.836972897E0,9.727422714E0,-1.147179031E1,4.103690624E0
5.841749355E0,9.290133476E0,-1.188754272E1,4.777868748E0
5.846516208E0,9.217751503E0,-1.198445225E1,5.311468124E0
5.851306000E0,9.635896683E0,-1.164168072E1,5.505885124E0
5.856082458E0,1.001216793E1,-1.093220806E1,5.891727448E0
5.860845635E0,1.109791183E1,-9.932008743E0,5.751149178E0
5.865635427E0,1.174995518E1,-8.764909744E0,5.679962635E0
5.870411937E0,1.220698452E1,-7.655237675E0,5.475376606E0
5.875175114E0,1.258624744E1,-6.642475605E0,5.103292465E0
5.879964854E0,1.262393379E1,-5.794818401E0,4.703691006E0
5.884741364E0,1.260060406E1,-5.187639713E0,4.252644062E0
5.889504541E0,1.262871933E1,-4.773082733E0,3.685544968E0
5.894294333E0,1.260538960E1,-4.507479668E0,3.067000389E0
5.899070791E0,1.240738392E1,-4.401597023E0,2.615953445E0
5.903833969E0,1.213878918E1,-4.435695171E0,2.267199516E0
5.908623760E0,1.170509052E1,-4.576273441E0,2.068595171E0
5.913400271E0,1.147657585E1,-4.803591251E0,1.939980984E0
5.918163448E0,1.127258778E1,-5.069194794E0,1.907677889E0
5.922953187E0,1.101834965E1,-5.402395248E0,2.149353027E0
5.927732414E0,1.086939716E1,-5.788238049E0,2.476571321E0
5.932508872E0,1.079701424E1,-6.212365627E0,2.827718258E0
5.937285382E0,1.082991505E1,-6.684350014E0,3.278765202E0
5.942061841E0,1.087358475E1,-7.186244488E0,3.908077478E0
5.946825018E0,1.104646587E1,-7.788039684E0,4.651049137E0
5.951614810E0,1.139880848E1,-8.361120224E0,5.249852657E0
5.956391320E0,1.128993511E1,-8.938986778E0,5.763711452E0
5.961154445E0,1.161835003E1,-9.560523033E0,6.338587284E0
5.965944237E0,1.262692547E1,-1.015992451E1,6.784848690E0
5.970720747E0,1.322513103E1,-1.066481018E1,7.007380962E0
5.975483924E0,1.403031540E1,-1.118764210E1,7.018148899E0
5.980273716E0,1.426301765E1,-1.157767200E1,6.609574318E0
5.985050174E0,1.462971783E1,-1.187976646E1,5.753541946E0
5.989813351E0,1.450708580E1,-1.200479126E1,5.058426857E0
5.994603143E0,1.502273846E1,-1.216750336E1,4.546961308E0
5.999379601E0,1.555693626E1,-1.237268734E1,3.862613916E0
6.004142778E0,1.551087475E1,-1.257547951E1,3.181855917E0
6.008932570E0,1.645424461E1,-1.305942822E1,3.105285645E0
6.013709080E0,1.677428436E1,-1.363669586E1,3.056232691E0
6.018472257E0,1.694417572E1,-1.401177120E1,2.657229662E0
6.023261997E0,1.672822380E1,-1.418584919E1,3.042474031E0
6.028038507E0,1.648295784E1,-1.420618820E1,3.326621771E0
6.032801685E0,1.683051682E1,-1.409910965E1,3.492922783E0
6.037591476E0,1.620718575E1,-1.405783272E1,4.287938118E0
6.042367935E0,1.505683613E1,-1.402194023E1,3.674777269E0
6.047131112E0,1.452263927E1,-1.434497166E1,2.477767944E0
6.051920903E0,1.327358532E1,-1.460339642E1,1.942373753E0
6.056697414E0,1.255932808E1,-1.463869095E1,1.850250125E0
6.061460591E0,1.188514996E1,-1.452921867E1,1.406979680E0
6.066250382E0,1.154895878E1,-1.393759346E1,3.619144261E-1
6.071026841E0,9.284749985E0,-1.268076324E1,2.865405083E-1
6.075790018E0,5.907280922E0,-1.179302597E1,1.705484390E0
6.080579810E0,4.695914268E0,-1.069771194E1,1.787438512E0
6.085356268E0,3.019742250E0,-9.593423843E0,1.267597795E0
6.090119445E0,1.452443361E0,-8.263014793E0,1.663609982E0
6.094909237E0,1.304088384E-1,-7.235297680E0,2.370090723E0
6.099685695E0,-7.920243144E-1,-6.683752060E0,3.550350666E0
6.104448872E0,-3.944568157E0,-5.825326920E0,4.286143780E0
6.109238664E0,-7.303493023E0,-4.676771641E0,4.086941242E0
6.114015174E0,-9.549157143E0,-2.923431158E0,4.260420799E0
6.118778351E0,-1.274776268E1,-6.191428304E-1,4.390829563E0
6.123568143E0,-1.492104340E1,1.110269666E0,4.649852753E0
6.128344601E0,-1.619282913E1,2.946761131E0,5.475974560E0
6.133107778E0,-1.620299911E1,5.485546112E0,5.949155331E0
6.137897570E0,-1.537448406E1,7.621738434E0,6.447460651E0
6.142674028E0,-1.399023533E1,8.636295319E0,6.929016113E0
6.147437205E0,-1.241037464E1,8.790034294E0,6.239883423E0
6.152226997E0,-1.055892849E1,8.144570351E0,5.237290382E0
6.157003507E0,-9.459425926E0,6.933801651E0,4.679762840E0
6.161766632E0,-8.941379547E0,5.518447399E0,4.587040901E0
6.166556424E0,-9.457631111E0,4.481756687E0,4.509274483E0
6.171332935E0,-9.647860527E0,3.729812384E0,4.103092670E0
6.176096112E0,-9.779465675E0,3.132204771E0,3.192025423E0
6.180885903E0,-9.711270332E0,2.501696110E0,2.390429735E0
6.185662362E0,-9.515657425E0,1.919641972E0,1.429711580E0
6.190425539E0,-9.043673515E0,1.381855130E0,4.247260094E-1
6.195215330E0,-8.190631866E0,8.105686903E-1,-4.857429862E-1
6.199991789E0,-7.344769001E0,3.361915946E-1,-8.213363886E-1
6.204754966E0,-6.567101955E0,-1.345962733E-1,-7.052844763E-1
6.209544757E0,-6.193821430E0,-6.969096065E-1,-6.101697683E-1
6.214321268E0,-6.287739754E0,-1.183848977E0,-6.580262184E-1
6.219084445E0,-6.183053493E0,-1.790429592E0,-1.036690354E0
6.223874237E0,-5.588437080E0,-2.313859463E0,-1.389631748E0
6.228650695E0,-4.161118507E0,-2.768495798E0,-1.517049551E0
6.233413872E0,-2.855235577E0,-3.034697294E0,-1.331605792E0
6.238203664E0,-2.131406784E0,-3.264408350E0,-5.335994363E-1
6.242980122E0,-1.338784218E0,-3.677768469E0,4.504488707E-1
6.247743299E0,-4.821537733E-1,-3.999004841E0,1.142572761E0
6.252533091E0,4.983053207E-1,-4.454239368E0,1.791027784E0
6.257309601E0,1.441077471E0,-4.943571568E0,2.385644197E0
6.262072726E0,2.553740025E0,-5.634499073E0,2.740380049E0
6.266862570E0,3.680161238E0,-6.504290104E0,2.864806890E0
6.271639028E0,4.353142738E0,-7.494918823E0,2.641077995E0
6.276402205E0,5.641079426E0,-8.551349640E0,1.867598057E0
6.281191997E0,6.897311211E0,-9.838688850E0,4.408775866E-1
6.285968455E0,7.670791149E0,-1.134018517E1,-7.950153351E-1
6.290731632E0,8.056633949E0,-1.354517078E1,-1.001994491E0
6.295521424E0,8.904889107E0,-1.668395615E1,-8.937192559E-1
6.300297882E0,1.184447193E1,-2.090728760E1,-1.094716340E-1
6.305061060E0,1.683530235E1,-2.508336067E1,2.353341103E0
6.309850851E0,2.231067848E1,-2.748994255E1,4.826921463E0
6.314627362E0,2.566780853E1,-2.975534821E1,4.950151920E0
6.319390539E0,2.642812729E1,-3.159782028E1,1.496710539E0
6.324180330E0,2.350649071E1,-3.202254868E1,-1.189232826E0
6.328956789E0,2.037069702E1,-2.956272507E1,-2.268994093E0
6.333719966E0,1.915454483E1,-2.593341255E1,-1.688734531E0
6.338509757E0,1.874238205E1,-2.227777672E1,-1.003190875E0
6.343286216E0,1.913779640E1,-1.890030861E1,1.633101404E-1
6.348049393E0,2.081396866E1,-1.585185146E1,4.450650215E-1
6.352839185E0,2.145943260E1,-1.266521072E1,2.715853751E-1
6.357615695E0,2.083610153E1,-9.655637741E0,3.589234054E-1
6.362378872E0,1.919701767E1,-6.986443996E0,1.354337573E0
6.367168664E0,1.750648880E1,-4.827519894E0,2.321636200E0
6.371945122E0,1.584886074E1,-3.488137245E0,2.587837696E0
6.376708299E0,1.421875000E1,-2.658426046E0,2.485544443E0
6.381498091E0,1.304746342E1,-2.516651154E0,2.462812662E0
6.386274549E0,1.160339546E1,-3.522234917E0,2.370090723E0
6.391037726E0,1.215733337E1,-3.598206997E0,2.602792740E0
6.395827518E0,1.219143105E1,-4.007379532E0,2.492124796E0
6.400604028E0,1.163569832E1,-4.952544689E0,2.212762833E0
6.405367205E0,1.152742290E1,-5.993422508E0,1.892722726E0
6.410156997E0,1.165484047E1,-7.173682213E0,1.816152334E0
6.414933455E0,1.139043427E1,-8.321041107E0,2.303091764E0
6.419696632E0,1.145803165E1,-9.289535522E0,2.759522676E0
6.424486424E0,1.127797127E1,-1.005105114E1,3.259622574E0
6.429262882E0,1.131206894E1,-1.068275642E1,3.778266907E0
6.434026060E0,1.130608654E1,-1.098604679E1,4.263411522E0
6.438815851E0,1.146640587E1,-1.099561787E1,4.751547337E0
6.443592362E0,1.130309582E1,-1.081316566E1,5.443671703E0
6.448355539E0,1.148495007E1,-1.048534870E1,5.744568825E0
6.453145330E0,1.169910812E1,-1.006062317E1,6.045466423E0
6.457921789E0,1.165244770E1,-9.579665184E0,6.473183632E0
6.462684966E0,1.182772255E1,-9.044271469E0,6.572485447E0
6.467474757E0,1.182592773E1,-8.408378601E0,6.629314899E0
6.472251216E0,1.186122227E1,-7.825128078E0,6.509075642E0
6.477014393E0,1.173500061E1,-7.377670288E0,6.355935097E0
6.481804185E0,1.162313557E1,-6.896114826E0,6.174080849E0
6.486580643E0,1.163988590E1,-6.529414654E0,5.966503143E0
6.491343820E0,1.143769264E1,-6.294320107E0,5.737390518E0
6.496133612E0,1.140658569E1,-6.058028698E0,5.392225742E0
6.500910122E0,1.126899815E1,-5.913861275E0,4.758726120E0
6.505673299E0,1.085264683E1,-5.803791523E0,4.353142738E0
6.510463091E0,1.051286602E1,-5.862415314E0,4.048057556E0
6.515239549E0,1.005942631E1,-5.886941910E0,3.790829182E0
6.520002726E0,9.492327690E0,-6.056832314E0,3.558725595E0
6.524792518E0,9.278169632E0,-6.423532486E0,3.411566973E0
6.529568976E0,9.108877182E0,-6.925426960E0,3.460619688E0
6.534332153E0,8.926424980E0,-7.498507977E0,3.610769272E0
6.539121945E0,9.136395454E0,-8.149355888E0,4.152743816E0
6.543898455E0,9.443274498E0,-8.870791435E0,4.942973614E0
6.548661580E0,9.535398483E0,-9.473783493E0,5.768496990E0
6.553451424E0,1.025145054E1,-1.033938694E1,6.413362980E0
6.558227882E0,1.070967579E1,-1.124387360E1,6.978068829E0
6.562991060E0,1.101356411E1,-1.205324554E1,7.178467751E0
6.567780851E0,1.191446209E1,-1.281236839E1,7.077969551E0
6.572557310E0,1.187677479E1,-1.349611759E1,6.872784615E0
6.577320487E0,1.247019482E1,-1.390888023E1,6.303891182E0
6.582110278E0,1.282134151E1,-1.447597885E1,5.908477306E0
6.586886737E0,1.364447308E1,-1.497069454E1,5.621338367E0
6.591649914E0,1.418405437E1,-1.509392548E1,5.024329185E0
6.596439705E0,1.500539112E1,-1.518365574E1,4.794020176E0
6.601216216E0,1.575135326E1,-1.540798283E1,4.521836758E0
6.605979393E0,1.605344772E1,-1.547438431E1,4.088137627E0
6.610769185E0,1.607139397E1,-1.525723553E1,3.262613773E0
6.615545643E0,1.502453327E1,-1.492224026E1,2.595614433E0
6.620308820E0,1.529731560E1,-1.477209091E1,2.109871387E0
6.625098612E0,1.524407482E1,-1.456451321E1,2.133799553E0
6.629875070E0,1.500897980E1,-1.420917892E1,2.000399828E0
6.634638247E0,1.408893967E1,-1.391246891E1,1.870589137E0
6.639428039E0,1.319222927E1,-1.349013615E1,1.664208174E0
6.644204549E0,1.211486149E1,-1.295354557E1,1.543968797E0
6.648967674E0,1.123849010E1,-1.236730385E1,9.487541914E-1
6.653757466E0,1.068694401E1,-1.179063320E1,6.538388133E-1
6.658533976E0,8.498109818E0,-1.088973618E1,2.799602449E-1
6.663297153E0,7.102495670E0,-9.838089943E0,-2.554338276E-1
6.668086945E0,5.961717606E0,-8.877371788E0,-3.655036688E-1
6.672863403E0,4.121038914E0,-8.207381248E0,2.751746029E-2
6.677626580E0,2.067398787E0,-7.499704361E0,7.142575383E-1
6.682416372E0,-7.417750359E-1,-6.836892605E0,7.812566161E-1
6.687192830E0,-1.928016901E0,-5.476572990E0,1.952543259E0
6.691956007E0,-7.242475986E0,-3.981656790E0,2.032104731E0
6.696745799E0,-1.117866898E1,-1.987239242E0,1.940579176E0
6.701522310E0,-1.442273808E1,5.264209956E-2,2.435893536E0
6.706285435E0,-1.590030670E1,2.534597397E0,3.243471146E0
6.711075226E0,-1.479242992E1,5.263611794E0,3.825525284E0
6.715851737E0,-1.465902996E1,6.800402164E0,4.649254322E0
6.720614914E0,-1.460818195E1,7.161718369E0,4.610371113E0
6.725404705E0,-1.392144203E1,6.224329948E0,3.623929977E0
6.730181164E0,-1.260359478E1,4.628915310E0,1.972284079E0
6.734944341E0,-1.192881870E1,3.180659533E0,1.082154036E0
6.739734132E0,-1.169851017E1,2.545365095E0,1.066600680E0
6.744510591E0,-1.158485126E1,2.724228621E0,1.061216831E0
6.749273768E0,-1.123430252E1,2.956332445E0,9.248259664E-1
6.754063560E0,-1.049013424E1,3.136392355E0,4.983053207E-1
6.758840070E0,-9.292527199E0,3.095714331E0,3.242274821E-1
6.763603247E0,-7.931010723E0,2.824727058E0,2.883351147E-1
6.768393039E0,-6.682555676E0,2.490928411E0,4.211367965E-1
6.773169497E0,-5.670989513E0,2.006381750E0,6.329016089E-1
6.777932674E0,-4.970490932E0,1.536192179E0,6.729813814E-1
6.782722466E0,-4.312464714E0,1.065404296E0,6.652047038E-1
6.787498924E0,-3.705285788E0,4.648058116E-1,7.914260626E-1
6.792262101E0,-3.213560820E0,-7.357929647E-2,8.087740541E-1
6.797051893E0,-2.641077995E0,-6.891329288E-1,6.382854581E-1
6.801828351E0,-1.952543259E0,-1.323230863E0,2.027917206E-1
6.806591528E0,-1.201196909E0,-1.817348838E0,-1.986042857E-1
6.811381320E0,-3.026920557E-1,-2.339582443E0,-5.868397355E-1
6.816157830E0,3.708875179E-2,-2.763111830E0,-5.018945336E-1
6.820921007E0,-5.982056726E-3,-3.240479946E0,4.546362907E-2
6.825710799E0,2.135594189E-1,-3.587439299E0,7.788637877E-1
6.830487257E0,5.808576941E-1,-3.856631994E0,1.530210137E0
6.835250435E0,8.039883971E-1,-4.159922123E0,2.053041935E0
6.840040226E0,1.269392371E0,-4.616951466E0,2.516052961E0
6.844816685E0,1.968694806E0,-5.115854740E0,2.930609465E0
6.849579862E0,2.737389088E0,-5.576473236E0,3.257827997E0
6.854369653E0,3.341576815E0,-6.163312912E0,3.614956856E0
6.859146164E0,3.765704632E0,-7.010372162E0,4.127020836E0
6.863909289E0,4.287340164E0,-8.079365730E0,4.738985062E0
6.868699132E0,4.889732838E0,-9.431908607E0,5.404190063E0
6.873475591E0,5.807380676E0,-1.095194912E1,5.199005604E0
6.878238768E0,6.947560310E0,-1.268794250E1,4.037888050E0
6.883028560E0,7.719245911E0,-1.517587948E1,2.888735056E0
6.887805018E0,9.250652313E0,-1.832304001E1,1.941775560E0
6.892568195E0,1.251446247E1,-2.149532318E1,2.565105915E0
6.897357987E0,1.436590862E1,-2.469452858E1,4.055834293E0
6.902134445E0,1.626042557E1,-2.742713165E1,4.398007870E0
6.906897622E0,1.857727623E1,-3.005564690E1,2.165504456E0
6.911687414E0,1.913659859E1,-3.154757118E1,9.738788009E-1
6.916463924E0,1.882134438E1,-3.143690300E1,8.506484628E-1
6.921227101E0,1.924248123E1,-2.927319336E1,1.686939955E0
6.926016893E0,1.918206215E1,-2.528017044E1,2.485544443E0
6.930793351E0,1.871426582E1,-2.092642975E1,3.679563046E0
6.935556528E0,1.893620110E1,-1.705245018E1,3.181855917E0
6.940346320E0,1.889312935E1,-1.348654652E1,2.636890650E0
6.945122778E0,1.913420677E1,-1.027298546E1,2.523231506E0
6.949885955E0,1.933819389E1,-7.646862984E0,3.144168854E0
6.954675747E0,1.983051682E1,-5.477769375E0,3.792623997E0
6.959452257E0,1.992682838E1,-3.926621914E0,3.988237143E0
6.964215435E0,1.912164307E1,-3.181257725E0,3.463610888E0
6.969005174E0,1.767697716E1,-3.604189157E0,2.684148788E0
6.973781685E0,1.694357681E1,-4.039084435E0,2.386242390E0
6.978544862E0,1.518545055E1,-5.339583874E0,2.866601467E0
6.983334653E0,1.392921925E1,-6.421737671E0,3.061018467E0
6.988111112E0,1.342074394E1,-7.107281685E0,2.751745939E0
6.992874289E0,1.243490124E1,-7.528418064E0,3.127419233E0
6.997664080E0,1.258684540E1,-7.923233986E0,3.654438496E0
7.002440539E0,1.255334568E1,-8.169694901E0,4.302893162E0
7.007203716E0,1.240379429E1,-8.285746574E0,4.673182487E0
7.011993507E0,1.201496029E1,-8.286943436E0,4.809573650E0
7.016770018E0,1.208674526E1,-8.214560509E0,4.957928658E0
7.021533195E0,1.216391373E1,-8.084749222E0,5.231308460E0
7.026322987E0,1.212682533E1,-7.828717709E0,5.552545071E0
7.031099445E0,1.196650600E1,-7.569694519E0,5.860022545E0
7.035862622E0,1.177747345E1,-7.363313675E0,6.259624004E0
7.040652414E0,1.167876911E1,-7.108478069E0,6.610172749E0
7.045428872E0,1.158006477E1,-6.920641422E0,6.888936520E0
7.050192049E0,1.147597694E1,-6.954739094E0,6.994818687E0
7.054981841E0,1.133300591E1,-7.022336483E0,6.904489517E0
7.059758351E0,1.121815109E1,-7.109674454E0,6.689135551E0
7.064534810E0,1.129172993E1,-7.123433113E0,6.271588326E0
7.069311320E0,1.117866898E1,-7.104290485E0,5.705685616E0
7.074087778E0,1.103749275E1,-7.142575741E0,5.097310543E0
7.078864237E0,1.092502975E1,-7.200601578E0,4.550550461E0
7.083640747E0,1.073659515E1,-7.321439266E0,4.076771736E0
7.088417205E0,1.063490009E1,-7.484749317E0,3.687937975E0
7.093180382E0,1.060020447E1,-7.697112083E0,3.424727440E0
7.097970174E0,1.052423191E1,-7.986643791E0,3.214159012E0
7.102746632E0,1.054935646E1,-8.318648338E0,3.296113253E0
7.107523143E0,1.067139053E1,-8.723034859E0,3.592823267E0
7.112299601E0,1.085563850E1,-9.185447693E0,3.860819340E0
7.117076112E0,1.106142044E1,-9.643074989E0,4.599603176E0
7.121839289E0,1.124148083E1,-1.011446095E1,5.050052166E0
7.126629080E0,1.188993549E1,-1.059541893E1,5.833701611E0
7.131405539E0,1.257607746E1,-1.119601727E1,6.468996048E0
7.136168716E0,1.267059422E1,-1.177926731E1,6.862615108E0
7.140958507E0,1.240259838E1,-1.234816170E1,6.969694138E0
7.145734966E0,1.256411362E1,-1.287278748E1,6.695715904E0
7.150498143E0,1.305284786E1,-1.328076363E1,6.271588326E0
7.155287935E0,1.348953724E1,-1.367498112E1,5.856433392E0
7.160064393E0,1.298285770E1,-1.406620789E1,5.336592674E0
7.164827570E0,1.383470249E1,-1.455972767E1,5.106881618E0
7.169617362E0,1.328674603E1,-1.473500156E1,4.764110088E0
7.174393872E0,1.371446323E1,-1.469552040E1,4.833501816E0
7.179157049E0,1.348774338E1,-1.469611835E1,5.027320385E0
7.183946841E0,1.376949787E1,-1.442991734E1,5.404788017E0
7.188723299E0,1.400698566E1,-1.448734474E1,5.336592674E0
7.193486476E0,1.412363529E1,-1.466022587E1,4.879563808E0
7.198276268E0,1.353260803E1,-1.468056488E1,4.604389191E0
7.203052726E0,1.341655636E1,-1.463749409E1,4.293322086E0
7.207829237E0,1.320838070E1,-1.446461296E1,3.818944931E0
7.212605695E0,1.331306744E1,-1.428574944E1,3.160918713E0
7.217382205E0,1.271904850E1,-1.390170097E1,2.683550596E0
7.222145330E0,1.195454216E1,-1.333460236E1,2.370688915E0
7.226935122E0,1.172602749E1,-1.262752342E1,2.069193363E0
7.231711632E0,1.040818024E1,-1.210947704E1,1.547558069E0
7.236474810E0,8.447261810E0,-1.138684464E1,9.864411354E-1
7.241264601E0,6.615556240E0,-1.062532902E1,6.161518097E-1
7.246041060E0,4.516452789E0,-1.014317513E1,7.226324677E-1
7.250804237E0,2.219342947E0,-9.229117393E0,1.285543919E0
7.255594028E0,-8.255237937E-1,-8.268398285E0,1.099501967E0
7.260370487E0,-4.898705959E0,-6.938587666E0,8.512466550E-1
7.265133664E0,-9.463613510E0,-5.248656273E0,7.106683254E-1
7.269923455E0,-1.371147156E1,-3.433102369E0,8.608179688E-1
7.274699966E0,-1.642373657E1,-1.001994491E0,1.415354609E0
7.279463091E0,-1.755374718E1,1.976471543E0,2.599203587E0
7.284252882E0,-1.756271935E1,5.396413326E0,4.478765965E0
7.289029393E0,-1.696451378E1,8.085946083E0,5.682953835E0
7.293792570E0,-1.749930954E1,9.794421196E0,5.545366287E0
7.298582362E0,-1.755015755E1,1.078744221E1,3.980460405E0
7.303358820E0,-1.636571121E1,1.045902824E1,2.203789711E0
7.308121997E0,-1.485105419E1,9.008378983E0,1.649851203E0
7.312911789E0,-1.391845131E1,7.092326164E0,2.260619164E0
7.317688247E0,-1.335793209E1,5.537590027E0,2.858824968E0
7.322451424E0,-1.265863037E1,4.585246563E0,3.057429075E0
7.327241216E0,-1.183071327E1,3.927220106E0,2.775076151E0
7.332017726E0,-1.082453156E1,3.390629768E0,2.054836512E0
7.336780851E0,-9.528818130E0,2.806182861E0,1.218544960E0
7.341570643E0,-8.460422516E0,2.192423820E0,5.898307562E-1
7.346347153E0,-7.655237675E0,1.447657704E0,3.122633696E-1
7.351110330E0,-6.677769661E0,7.028916478E-1,3.122633696E-1
7.355900122E0,-5.989234924E0,-3.649054468E-2,4.534398913E-1
7.360676580E0,-5.401198864E0,-8.303094506E-1,5.234299302E-1
7.365439757E0,-4.779663086E0,-1.494317770E0,6.017948985E-1
7.370229549E0,-4.185046673E0,-2.099103689E0,3.206382394E-1
7.375006007E0,-3.239881754E0,-2.853441000E0,-3.266202807E-1
7.379769185E0,-2.155334949E0,-3.394817114E0,-6.777670383E-1
7.384558976E0,-1.597209096E0,-3.731008768E0,-5.551348329E-1
7.389335487E0,-1.246660590E0,-3.884149313E0,-1.298106313E-1
7.394098664E0,-5.473581553E-1,-4.234697819E0,4.995017350E-1
7.398888403E0,1.561316848E-1,-4.507479668E0,1.024726272E0
7.403664914E0,8.129615188E-1,-4.838885784E0,1.587637782E0
7.408428091E0,1.353739381E0,-5.189434052E0,1.950150490E0
7.413217882E0,2.185245275E0,-5.615954876E0,2.319841623E0
7.417994341E0,2.837887764E0,-6.174080849E0,3.003590584E0
7.422757518E0,3.209373474E0,-7.031309128E0,4.077369690E0
7.427547310E0,4.328018188E0,-8.180462837E0,5.146961689E0
7.432323768E0,6.132804394E0,-9.587442398E0,5.532206059E0
7.437086945E0,7.740182877E0,-1.126481056E1,5.203791142E0
7.441876737E0,9.215956688E0,-1.357867050E1,4.208974838E0
7.446653247E0,1.049970531E1,-1.667737579E1,3.230310678E0
7.451416424E0,1.225484085E1,-2.017089653E1,3.559323788E0
7.456206216E0,1.419900990E1,-2.420459747E1,5.850451469E0
7.460982674E0,1.670309830E1,-2.772563553E1,6.531209469E0
7.465745851E0,1.959841347E1,-3.174497986E1,3.399602890E0
7.470535643E0,1.940399742E1,-3.440340424E1,4.941178858E-1
7.475312101E0,1.791147423E1,-3.485923767E1,-3.326023519E-1
7.480075278E0,1.754178238E1,-3.271706390E1,1.764706671E-1
7.484865070E0,1.699442482E1,-2.937548637E1,1.995614052E0
7.489641580E0,1.631366730E1,-2.530649185E1,3.345165968E0
7.494404705E0,1.697647858E1,-2.158146477E1,3.920041800E0
7.499194497E0,1.926521301E1,-1.830449486E1,4.164707661E0
7.503971007E0,2.136371803E1,-1.509033585E1,3.570689678E0
7.508734185E0,2.223889351E1,-1.180678558E1,2.944966555E0
7.513523976E0,2.225325012E1,-8.684749603E0,3.077169895E0
7.518300435E0,2.222932243E1,-6.281159401E0,3.512065411E0
7.523063612E0,2.156172562E1,-4.317250252E0,3.595814228E0
7.527853403E0,2.075893211E1,-3.148356438E0,3.652045488E0
7.532629862E0,1.964387703E1,-3.266801119E0,4.123431683E0
7.537393039E0,1.784267998E1,-4.177269936E0,4.642076015E0
7.542182830E0,1.654397583E1,-5.476572990E0,4.783850670E0
7.546959341E0,1.554916000E1,-6.582056999E0,4.856831551E0
7.551722466E0,1.505743504E1,-7.489534855E0,4.917848587E0
7.556512310E0,1.508854103E1,-8.163712502E0,5.048257351E0
7.561288768E0,1.472363567E1,-8.578866959E0,5.016552448E0
7.566051945E0,1.411167145E1,-8.883952141E0,5.193023205E0
7.570841737E0,1.372283745E1,-9.005388260E0,5.257031441E0
7.575618195E0,1.333340645E1,-8.934201241E0,5.364708424E0
7.580381372E0,1.311027527E1,-8.785248756E0,5.557928562E0
7.585171164E0,1.344766331E1,-8.437690735E0,5.699703693E0
7.589947622E0,1.329093361E1,-7.990831375E0,5.992824078E0
7.594710799E0,1.292782211E1,-7.456633568E0,6.061617851E0
7.599500591E0,1.246600819E1,-6.976274490E0,6.256034851E0
7.604277101E0,1.210110188E1,-6.591628075E0,6.607779503E0
7.609040278E0,1.181157112E1,-6.317649841E0,6.954140663E0
7.613830070E0,1.170748329E1,-5.952146530E0,7.232904434E0
7.618606528E0,1.146401310E1,-5.706283569E0,7.176074982E0
7.623369705E0,1.111944675E1,-5.591428280E0,6.914061069E0
7.628159497E0,1.072702408E1,-5.602196217E0,6.575476646E0
7.632935955E0,1.024845982E1,-5.656034470E0,6.088537216E0
7.637699132E0,9.827920914E0,-5.787639618E0,5.697310925E0
7.642488924E0,9.521639824E0,-6.091528416E0,5.271986485E0
7.647265382E0,9.220144272E0,-6.462415695E0,4.798805714E0
7.652028560E0,9.029914856E0,-6.891927242E0,4.473979950E0
7.656818351E0,9.001798630E0,-7.378268719E0,4.349553585E0
7.661594862E0,8.979664803E0,-7.903493404E0,4.335794449E0
7.666358039E0,9.082556725E0,-8.462217331E0,4.555934429E0
7.671147830E0,9.020941734E0,-8.973084450E0,5.065605640E0
7.675924289E0,9.249456406E0,-9.517452240E0,5.635695457E0
7.680687466E0,1.003131104E1,-1.027717304E1,6.227919102E0
7.685477257E0,1.083470058E1,-1.113260746E1,6.425326824E0
7.690253716E0,1.146102238E1,-1.187797165E1,6.556932449E0
7.695016893E0,1.156331539E1,-1.250907898E1,6.595217228E0
7.699806685E0,1.218844032E1,-1.310967731E1,6.616752625E0
7.704583143E0,1.253300667E1,-1.351765347E1,5.943173409E0
7.709346320E0,1.324487114E1,-1.379581928E1,5.431109428E0
7.714136112E0,1.411884975E1,-1.400040531E1,4.423730850E0
7.718912622E0,1.512204075E1,-1.441675663E1,4.087539196E0
7.723675799E0,1.586381626E1,-1.481994724E1,3.728615999E0
7.728465591E0,1.640698624E1,-1.511665726E1,2.857628345E0
7.733242049E0,1.678206253E1,-1.531765461E1,2.706880569E0
7.738005226E0,1.717986870E1,-1.522074509E1,3.213560820E0
7.742795018E0,1.560180187E1,-1.524407482E1,3.466601849E0
7.747571476E0,1.521536064E1,-1.546600914E1,3.209373474E0
7.752334653E0,1.421456337E1,-1.582553101E1,3.401995659E0
7.757124445E0,1.369711494E1,-1.628435516E1,2.675175667E0
7.761900903E0,1.370190048E1,-1.653440475E1,1.764108539E0
7.766664080E0,1.400220013E1,-1.643211174E1,1.124028444E0
7.771453872E0,1.415653706E1,-1.621496201E1,7.633104324E-1
7.776230382E0,1.392443275E1,-1.553540134E1,5.581258535E-1
7.780993560E0,1.288774300E1,-1.457468319E1,3.511467278E-1
7.785783299E0,1.150708389E1,-1.330110264E1,5.503492057E-2
7.790559810E0,9.058628082E0,-1.204487133E1,2.392822653E-1
7.795322987E0,5.609374523E0,-1.066122150E1,9.810572863E-1
7.800112778E0,1.882553220E0,-9.504889488E0,1.263410330E0
7.804889237E0,-2.148754835E0,-8.353343964E0,9.002995491E-1
7.809652414E0,-6.236892223E0,-7.250252724E0,5.557330847E-1
7.814442205E0,-1.131685448E1,-6.130411625E0,4.947160780E-1
7.819218716E0,-1.590628815E1,-3.934996843E0,1.184447169E0
7.823981841E0,-1.881476402E1,-8.542376757E-1,2.589034081E0
7.828771632E0,-1.978206253E1,3.445066452E0,3.819543123E0
7.833548143E0,-2.045025826E1,8.448458672E0,5.374279499E0
7.838311320E0,-2.037668037E1,1.194556904E1,6.787241459E0
7.843101060E0,-2.005903244E1,1.380060482E1,7.614559650E0
7.847877570E0,-2.004048729E1,1.442214012E1,7.834699631E0
7.852640747E0,-2.057289124E1,1.324547005E1,7.272386074E0
7.857430539E0,-2.011586189E1,1.040997505E1,5.846263885E0
7.862206997E0,-1.832962036E1,7.027719975E0,4.404588223E0
7.866970174E0,-1.686222076E1,5.105087280E0,2.925225735E0
7.871759966E0,-1.638305855E1,4.374079704E0,1.516451359E0
7.876536424E0,-1.595175171E1,4.024129391E0,2.524427772E-1
7.881299601E0,-1.562872124E1,3.731606960E0,-7.328019142E-1
7.886089393E0,-1.507538128E1,3.420539856E0,-1.387837172E0
7.890865903E0,-1.420080376E1,3.032304525E0,-1.785643935E0
7.895629080E0,-1.353918839E1,2.629113913E0,-1.995015860E0
7.900418820E0,-1.273161125E1,2.096112728E0,-1.667797327E0
7.905195330E0,-1.143051338E1,1.424925923E0,-8.344969153E-1
7.909958507E0,-9.979267120E0,5.072783828E-1,2.482553422E-1
7.914748299E0,-7.268198967E0,-5.611169338E-1,1.910070658E0
7.919524757E0,-4.557728767E0,-1.548156261E0,3.508476257E0
7.924287935E0,-2.706282377E0,-2.304288149E0,4.022933006E0
7.929077726E0,-9.960124493E-1,-2.950948477E0,3.995415688E0
7.933854185E0,3.643072546E-1,-3.352344513E0,3.791427374E0
7.938617362E0,1.624726534E0,-3.874577999E0,3.463610888E0
7.943407153E0,2.755335331E0,-4.415356159E0,2.911466837E0
7.948183664E0,3.682554007E0,-4.885545731E0,2.546561480E0
7.952946789E0,4.303491592E0,-5.486144066E0,2.601596355E0
7.957736580E0,4.578666210E0,-6.256632805E0,2.850450039E0
7.962513091E0,4.494318962E0,-7.461419106E0,3.221337557E0
7.967276268E0,4.451248169E0,-9.335597992E0,3.649652719E0
7.972066060E0,4.972285271E0,-1.199342537E1,3.533600807E0
7.976842518E0,5.746363640E0,-1.597568035E1,1.901097536E0
7.981605695E0,6.602993965E0,-2.157608223E1,1.271785259E0
7.986395487E0,8.848059654E0,-2.748456001E1,6.725626469E0
7.991171945E0,1.513998699E1,-3.236172867E1,1.235892868E1
7.995935122E0,2.208994102E1,-3.681477356E1,9.763314247E0
8.000724914E0,2.447678185E1,-4.022275162E1,6.163911343E0
8.005501424E0,2.252902412E1,-4.206163406E1,2.479562521E0
8.010264549E0,2.238844490E1,-4.143949890E1,4.666004330E-2
8.015054393E0,2.142772675E1,-3.734179306E1,-7.537391037E-2
8.019830851E0,2.070330048E1,-3.125504875E1,2.251646042E0
8.024594028E0,2.030728722E1,-2.560080910E1,4.289134502E0
8.029383820E0,2.121775627E1,-2.095454597E1,4.669593334E0
8.034160278E0,2.161197472E1,-1.650150299E1,3.824328899E0
8.038923455E0,2.167179489E1,-1.250249863E1,2.425125837E0
8.043713247E0,2.289751816E1,-9.540781975E0,2.167299032E0
8.048489705E0,2.395095825E1,-7.110272408E0,2.227119684E0
8.053252882E0,2.429791832E1,-5.177470207E0,2.372483730E0
8.058042674E0,2.435295296E1,-3.028715372E0,2.400001049E0
8.062819185E0,2.371047974E1,-1.589432478E0,2.416750908E0
8.067582362E0,2.113340950E1,-1.437488198E0,3.480958700E0
8.072372153E0,1.824228096E1,-2.654238462E0,4.691727161E0
8.077148612E0,1.620120430E1,-4.427320004E0,5.298905849E0
8.081911789E0,1.473141289E1,-6.117849350E0,5.988636971E0
8.086701580E0,1.356491184E1,-7.478767395E0,5.933601856E0
8.091478039E0,1.374198055E1,-8.596215248E0,5.568696499E0
8.096241216E0,1.338186073E1,-9.266803741E0,5.412564754E0
8.101031007E0,1.319282722E1,-9.739386559E0,5.303691387E0
8.105807518E0,1.275553894E1,-9.856036186E0,5.416153908E0
8.110570643E0,1.240558910E1,-9.649655342E0,5.772684574E0
8.115360435E0,1.226919842E1,-9.332606316E0,6.267998695E0
8.120136945E0,1.206640625E1,-8.990432739E0,6.662216663E0
8.124900122E0,1.173500061E1,-8.654839516E0,7.162316322E0
8.129689914E0,1.141795158E1,-8.371290207E0,7.634898663E0
8.134466372E0,1.111944675E1,-7.992027760E0,7.942974567E0
8.139229549E0,1.093878841E1,-7.543971539E0,8.279166222E0
8.144019341E0,1.068455124E1,-7.144968510E0,8.222934723E0
8.148795799E0,1.050927734E1,-6.696912289E0,7.734200954E0
8.153558976E0,1.028076267E1,-6.417550564E0,7.086942673E0
8.158348768E0,1.003669453E1,-6.287739754E0,6.138188362E0
8.163125278E0,9.864411354E0,-6.287739754E0,5.093122959E0
8.167888403E0,9.531210899E0,-6.389434814E0,4.298107624E0
8.172678195E0,9.603593826E0,-6.576673031E0,3.664009571E0
8.177454705E0,9.597013474E0,-6.894918442E0,3.189632654E0
8.182217882E0,9.622138023E0,-7.226922512E0,3.223132133E0
8.187007674E0,9.605986595E0,-7.554739475E0,3.530609846E0
8.191784132E0,9.525228500E0,-7.882555962E0,4.155136585E0
8.196560643E0,9.392427444E0,-8.211568832E0,4.827519894E0
8.201337101E0,1.043509960E1,-8.767900467E0,5.365306377E0
8.206113560E0,1.078744221E1,-9.403194427E0,5.790630817E0
8.210876737E0,1.099202919E1,-9.932606697E0,6.361319065E0
8.215666528E0,1.114038372E1,-1.045783138E1,6.955935478E0
8.220442987E0,1.147777176E1,-1.105902767E1,7.386643410E0
8.225206164E0,1.218544960E1,-1.179003525E1,7.618747234E0
8.229995955E0,1.391306686E1,-1.263410378E1,7.289135933E0
8.234772466E0,1.588475323E1,-1.344706535E1,6.396014690E0
8.239535643E0,1.804188347E1,-1.431386471E1,5.435296535E0
8.244325435E0,2.049931145E1,-1.537209129E1,4.491926193E0
8.249101893E0,2.339941216E1,-1.633340645E1,3.642474174E0
8.253865070E0,2.422433853E1,-1.702971840E1,2.871387243E0
8.258654862E0,2.329352951E1,-1.760997772E1,2.708076954E0
8.263431320E0,1.961097527E1,-1.846182251E1,3.131008387E0
8.268194497E0,1.616112328E1,-1.948654938E1,2.506481647E0
8.272984289E0,1.524586964E1,-2.059203339E1,1.552343726E0
8.277760747E0,1.455972767E1,-2.157608223E1,7.986045480E-1
8.282523924E0,1.418345642E1,-2.182732773E1,5.946164131E-1
8.287313716E0,1.420379543E1,-2.134996033E1,1.040279627E0
8.292090226E0,1.356790257E1,-1.993580246E1,1.359123230E0
8.296853403E0,1.281476212E1,-1.797129440E1,1.423729420E0
8.301643143E0,1.035374355E1,-1.528056526E1,2.591426849E0
8.306419653E0,6.304489613E0,-1.287218952E1,3.800998688E0
8.311182830E0,1.391426325E0,-1.096630573E1,3.565903902E0
8.315972622E0,-3.735794306E0,-9.186644554E0,2.291127682E0
8.320749080E0,-9.209974289E0,-8.110472679E0,1.651645780E0
8.325512257E0,-1.388196087E1,-7.047461033E0,1.478166223E0
8.330302049E0,-1.561675739E1,-5.711667538E0,1.654636860E0
8.335078507E0,-1.585424423E1,-3.366701365E0,2.181656122E0
8.339841685E0,-1.751127434E1,9.272187948E-2,3.857828379E0
8.344631476E0,-1.990050697E1,4.489533424E0,5.264209747E0
8.349407987E0,-2.155933189E1,8.517251968E0,6.085546017E0
8.354171112E0,-2.390429878E1,1.193240833E1,6.402595043E0
8.358960903E0,-2.474238396E1,1.429532051E1,6.765107632E0
8.363737414E0,-2.334497643E1,1.494437408E1,6.925426960E0
8.368500591E0,-2.120220375E1,1.346142197E1,7.226922512E0
8.373290382E0,-2.033360863E1,1.113141060E1,7.200003147E0
8.378066841E0,-1.979342842E1,8.868398666E0,6.407381058E0
8.382830018E0,-1.873460579E1,6.911069870E0,5.073980331E0
8.387619810E0,-1.751785469E1,5.382654667E0,3.307479143E0
8.392396268E0,-1.622333717E1,4.167100430E0,1.943570137E0
8.397159445E0,-1.504846191E1,2.980260611E0,1.198804140E0
8.401949237E0,-1.403390503E1,1.937588096E0,9.116654396E-1
8.406725747E0,-1.260359478E1,8.135597110E-1,6.987041831E-1
8.411488872E0,-1.130309582E1,-1.800599098E-1,4.618147612E-1
8.416278664E0,-9.817750931E0,-1.086341500E0,1.764706671E-1
8.421055174E0,-8.730812073E0,-1.691127419E0,2.285145670E-1
8.425818351E0,-7.517650604E0,-2.213361025E0,6.693921089E-1
8.430608143E0,-6.372086525E0,-2.486142635E0,1.133599758E0
8.435384601E0,-5.437091351E0,-2.873780012E0,1.388435364E0
8.440147778E0,-4.649852753E0,-3.257229805E0,1.490130305E0
8.444937570E0,-3.937987804E0,-3.467200041E0,1.150349498E0
8.449714028E0,-3.266801119E0,-3.937987804E0,9.649057388E-1
8.454477205E0,-2.537588358E0,-4.451846600E0,1.623530149E0
8.459266997E0,-2.029113531E0,-5.106283665E0,2.730210543E0
8.464043455E0,-1.471585870E0,-5.707480431E0,4.119842529E0
8.468806632E0,-6.693921089E-1,-6.588038921E0,4.984249592E0
8.473596424E0,9.002995491E-1,-7.701898098E0,5.063810825E0
8.478372935E0,2.818146944E0,-9.277571678E0,4.387838364E0
8.483136112E0,5.059623718E0,-1.158365440E1,2.410170555E0
8.487925903E0,7.633702278E0,-1.505922890E1,-1.017547846E0
8.492702362E0,1.060439205E1,-1.993580246E1,-3.208775282E0
8.497465539E0,1.660678673E1,-2.536212540E1,6.131607890E-1
8.502255330E0,2.251526451E1,-2.975534821E1,9.122636795E0
8.507031789E0,2.365305138E1,-3.268356323E1,1.241575813E1
8.511794966E0,2.611885643E1,-3.694817352E1,7.227520943E0
8.516584757E0,2.935096169E1,-4.235236359E1,-4.606183618E-2
8.521361216E0,2.530649185E1,-4.532544327E1,-1.716850251E-1
8.526124393E0,2.256012917E1,-4.284708023E1,2.465803623E0
8.530914185E0,2.385763741E1,-3.620579910E1,4.316651821E0
8.535690695E0,2.369133759E1,-2.896990395E1,4.983651161E0
8.540453872E0,2.424407959E1,-2.243988991E1,3.224926710E0
8.545243664E0,2.459702110E1,-1.692263985E1,3.108874798E0
8.550020122E0,2.529393005E1,-1.273400402E1,2.641676188E0
8.554783299E0,2.507139778E1,-9.419944763E0,2.213361025E0
8.559573091E0,2.342692947E1,-6.807580471E0,2.210369825E0
8.564349549E0,2.029711723E1,-5.524429321E0,3.046661377E0
8.569112726E0,1.938545227E1,-4.317848682E0,4.015156269E0
8.573902518E0,1.898226166E1,-2.961117983E0,5.671587944E0
8.578679028E0,1.798744583E1,-3.065205812E0,7.150352478E0
8.583442153E0,1.762254143E1,-3.929014683E0,7.695317745E0
8.588231945E0,1.796830368E1,-5.175675392E0,7.564908981E0
8.593008455E0,1.833320808E1,-6.494719028E0,6.690331936E0
8.597771632E0,1.775893211E1,-7.642077446E0,6.248258114E0
8.602561424E0,1.638545036E1,-8.252845764E0,6.226722717E0
8.607337882E0,1.493540096E1,-8.362317085E0,6.277570248E0
8.612101060E0,1.374556923E1,-8.196614265E0,6.360122681E0
8.616890851E0,1.286680603E1,-8.112266541E0,6.633502483E0
8.621667310E0,1.206042480E1,-8.181658745E0,6.930212498E0
8.626430487E0,1.129950714E1,-8.227122307E0,7.006184578E0
8.631220278E0,1.042193890E1,-7.978867054E0,6.775875568E0
8.635996789E0,9.607182503E0,-7.671987534E0,6.726822853E0
8.640759914E0,9.043673515E0,-7.244868755E0,6.614359856E0
8.645549705E0,8.580063820E0,-6.908677101E0,6.415157318E0
8.650326216E0,8.315656662E0,-6.739983082E0,6.142973900E0
8.655089393E0,8.098507881E0,-6.523432732E0,5.740381718E0
8.659879185E0,8.309675217E0,-6.489335060E0,5.259424210E0
8.664655643E0,8.793622971E0,-6.651448727E0,4.892126083E0
8.669418820E0,9.206983566E0,-6.843472958E0,4.770092010E0
8.674208612E0,9.535996437E0,-7.068996429E0,4.807180882E0
8.678985070E0,9.595816612E0,-7.411170006E0,4.989035130E0
8.683761580E0,9.552147865E0,-7.748558044E0,5.479563713E0
8.688538039E0,9.404989243E0,-8.048258781E0,6.166902065E0
8.693314497E0,1.065763187E1,-8.478966713E0,6.909275532E0
8.698077674E0,1.189053345E1,-8.919246674E0,7.622934818E0
8.702867466E0,1.255155087E1,-9.346963882E0,8.046463966E0
8.707643976E0,1.241635704E1,-9.809974670E0,8.311469078E0
8.712407153E0,1.295354557E1,-1.024726295E1,8.827720642E0
8.717196945E0,1.362772274E1,-1.069830990E1,9.064610481E0
8.721973403E0,1.363071442E1,-1.120857906E1,8.532207489E0
8.726736580E0,1.475534058E1,-1.178883934E1,7.730013371E0
8.731526372E0,1.603550148E1,-1.253719425E1,6.620342255E0
8.736302830E0,1.735753632E1,-1.350090313E1,5.222335339E0
8.741066007E0,1.930290031E1,-1.502812290E1,3.504288673E0
8.745855799E0,1.994836426E1,-1.619641876E1,1.856232166E0
8.750632257E0,1.978804588E1,-1.723729706E1,1.540379524E0
8.755395435E0,1.850609016E1,-1.819023705E1,2.291725874E0
8.760185226E0,1.769791412E1,-1.945065689E1,4.734797955E0
8.764961737E0,1.787378693E1,-2.094377899E1,5.512465000E0
8.769724914E0,1.738146400E1,-2.235614204E1,5.276174068E0
8.774514653E0,1.784567070E1,-2.298605347E1,4.482355118E0
8.779291164E0,1.943570137E1,-2.276471710E1,2.520838737E0
8.784054341E0,2.023011971E1,-2.086361885E1,2.835494876E-1
8.788844132E0,1.851147461E1,-1.817947006E1,8.428717852E-1
8.793620591E0,1.309831142E1,-1.609771347E1,2.803789854E0
8.798383768E0,7.213762283E0,-1.442453289E1,7.980063558E-1
8.803173560E0,7.094719410E-1,-1.293200970E1,-9.547362328E-1
8.807950018E0,-4.958526611E0,-1.145683479E1,-1.185045362E0
8.812713195E0,-1.094955635E1,-9.736993790E0,-4.977070987E-1
8.817502987E0,-1.573639774E1,-8.203194618E0,1.052243710E0
8.822279497E0,-1.864607048E1,-5.793023586E0,4.232903481E0
8.827042622E0,-1.872443581E1,-1.583450437E0,6.131010056E0
8.831832414E0,-2.020918274E1,2.368296146E0,6.548557281E0
8.836608924E0,-2.317269325E1,5.555535793E0,6.787241459E0
8.841372101E0,-2.576352119E1,9.075976372E0,5.857629776E0
8.846161893E0,-2.612842751E1,1.118046379E1,5.641677380E0
8.850938351E0,-2.654956436E1,1.238465214E1,4.357329845E0
8.855701528E0,-2.542433929E1,1.208375454E1,3.794418573E0
8.860491320E0,-2.484049034E1,1.088554859E1,4.493122578E0
8.865267778E0,-2.376312256E1,9.375079155E0,4.786243439E0
8.870030955E0,-2.163171577E1,7.810173035E0,3.960719585E0
8.874820747E0,-1.983650017E1,6.403193474E0,2.752344131E0
8.879597205E0,-1.784447479E1,4.944169998E0,1.673181176E0
8.884360382E0,-1.622094536E1,3.556332588E0,1.204786181E0
8.889150174E0,-1.496531105E1,2.123031855E0,1.036092162E0
8.893926685E0,-1.365942764E1,7.387840152E-1,7.423732281E-1
8.898689862E0,-1.272622681E1,-5.252245665E-1,1.621137410E-1
8.903479601E0,-1.155494022E1,-1.582253933E0,-2.171486616E-1
8.908256112E0,-1.036690426E1,-2.379662037E0,-1.316052526E-1
8.913019289E0,-9.393623352E0,-2.988635540E0,2.691925503E-2
8.917809080E0,-8.056633949E0,-3.553939819E0,-2.530409992E-1
8.922585539E0,-7.070790768E0,-4.095914364E0,-3.924229145E-1
8.927348716E0,-6.583253384E0,-4.552345276E0,-2.075773627E-1
8.932138507E0,-5.916254044E0,-4.975276470E0,3.840480447E-1
8.936914966E0,-5.046463013E0,-5.425725460E0,8.506484628E-1
8.941678143E0,-3.985246181E0,-5.977869034E0,1.378265858E0
8.946467935E0,-3.332005501E0,-6.554539204E0,2.133201361E0
8.951244445E0,-2.452044964E0,-7.472784996E0,3.094517946E0
8.956007570E0,-1.521835208E0,-8.670990944E0,4.462614059E0
8.960797362E0,-1.298106313E0,-1.036211872E1,5.959922791E0
8.965573872E0,2.703889608E0,-1.248634720E1,4.956732273E0
8.970337049E0,7.271189690E0,-1.567238998E1,1.677368641E0
8.975126789E0,1.015454102E1,-2.052563286E1,-8.398807645E-1
8.979903299E0,1.387179089E1,-2.627618408E1,4.140779495E0
8.984666476E0,1.800120544E1,-3.124547768E1,9.276374817E0
8.989456268E0,2.404188538E1,-3.470370483E1,8.791828156E0
8.994232726E0,2.742174721E1,-3.756492233E1,3.713062525E0
8.998995903E0,2.860260582E1,-3.947917938E1,2.086541414E0
9.003785695E0,2.601716042E1,-3.925365829E1,1.773679733E0
9.008562205E0,2.742115021E1,-3.735794449E1,3.698705673E0
9.013325330E0,3.283670425E1,-3.313999557E1,6.144170284E0
9.018115122E0,3.508835220E1,-2.640360069E1,5.268995285E0
9.022891632E0,3.054138947E1,-1.916710663E1,2.230110645E0
9.027654810E0,2.759762001E1,-1.389452267E1,2.937788010E0
9.032444601E0,2.750908470E1,-1.007438183E1,4.514060020E0
9.037221060E0,2.639343262E1,-7.009175777E0,4.973481655E0
9.041984237E0,2.454617310E1,-4.990231514E0,5.807380676E0
9.046774028E0,2.303809547E1,-2.667398930E0,7.089933395E0
9.051550487E0,2.036112595E1,-1.292124271E0,8.063214302E0
9.056313664E0,1.778046608E1,-1.890928149E0,8.959924698E0
9.061103455E0,1.566341686E1,-3.616751432E0,9.625128746E0
9.065879966E0,1.524527168E1,-5.723033428E0,9.393025398E0
9.070643091E0,1.565264893E1,-7.710870743E0,8.812167168E0
9.075432882E0,1.674676704E1,-9.312865257E0,7.881359577E0
9.080209393E0,1.665703583E1,-1.006361389E1,7.575078487E0
9.084972570E0,1.560000706E1,-9.864411354E0,7.599604607E0
9.089762362E0,1.456092358E1,-9.096315384E0,7.743772507E0
9.094538820E0,1.376052475E1,-8.351549149E0,7.910073280E0
9.099301997E0,1.320299721E1,-7.837092400E0,8.008777618E0
9.104091789E0,1.269751358E1,-7.525427341E0,8.063812256E0
9.108868247E0,1.186361504E1,-7.392625332E0,7.957930088E0
9.113631424E0,1.139163017E1,-7.340581894E0,7.797012806E0
9.118421216E0,1.107518005E1,-7.264011383E0,7.357331276E0
9.123197726E0,1.047697353E1,-7.063014030E0,6.942774773E0
9.127960851E0,1.004626560E1,-7.010970116E0,6.489335060E0
9.132750643E0,9.752547264E0,-6.929614544E0,5.943173409E0
9.137527153E0,9.668199539E0,-6.832705021E0,5.444868088E0
9.142290330E0,9.603593826E0,-6.750751019E0,5.147559643E0
9.147080122E0,9.756733894E0,-6.837490559E0,5.094319344E0
9.151856580E0,9.844072342E0,-7.092924595E0,5.314459324E0
9.156619757E0,1.004327488E1,-7.381259441E0,5.816951752E0
9.161409549E0,1.013240719E1,-7.665407181E0,6.235097408E0
9.166186007E0,1.035075283E1,-7.964509964E0,6.838088989E0
9.170949185E0,9.681958199E0,-8.294121742E0,7.691728592E0
9.175738976E0,1.054935646E1,-8.758927345E0,8.513064384E0
9.180515435E0,1.169492054E1,-9.426525116E0,8.862417221E0
9.185278612E0,1.248574829E1,-1.012762165E1,8.618947029E0
9.190068403E0,1.320897961E1,-1.074736309E1,8.183453560E0
9.194844914E0,1.444427395E1,-1.128335476E1,7.688138962E0
9.199608091E0,1.494138241E1,-1.174935722E1,7.042675018E0
9.204397830E0,1.571007729E1,-1.209392357E1,6.521039963E0
9.209174341E0,1.686222076E1,-1.265504074E1,6.323033810E0
9.213937518E0,1.822792435E1,-1.367318726E1,5.903691769E0
9.218727310E0,1.988914108E1,-1.538824272E1,5.076373100E0
9.223503768E0,2.140499496E1,-1.764886093E1,4.316053867E0
9.228266945E0,2.202054787E1,-1.959362793E1,4.309473515E0
9.233056737E0,2.093839455E1,-2.173640060E1,5.971887112E0
9.237833195E0,1.956072617E1,-2.340180588E1,7.122834682E0
9.242596372E0,1.732762527E1,-2.407299232E1,8.008178711E0
9.247386164E0,1.483071518E1,-2.439004135E1,4.062414646E0
9.252162622E0,1.435873032E1,-2.458685112E1,-2.255235314E-1
9.256925799E0,1.416012573E1,-2.349153709E1,-4.174877167E0
9.261715591E0,1.082931709E1,-2.093181419E1,-5.176871777E0
9.266492101E0,1.037886858E0,-1.854916191E1,4.127619043E-2
9.271255278E0,-1.615753531E0,-1.536192131E1,1.218544960E0
9.276045070E0,-5.857629776E0,-1.250189972E1,2.909074068E0
9.280821528E0,-9.023932457E0,-9.888937950E0,4.722833633E0
9.285584705E0,-1.246540928E1,-7.849654675E0,5.522036552E0
9.290374497E0,-1.610190201E1,-6.105287075E0,4.642076015E0
9.295150955E0,-1.964208221E1,-3.497708559E0,4.380660057E0
9.299914132E0,-2.153899384E1,2.033899166E-2,4.147958279E0
9.304703924E0,-2.336770821E1,3.686741590E0,4.250849247E0
9.309480382E0,-2.376012993E1,7.390232563E0,4.269393921E0
9.314243560E0,-2.370808601E1,1.089870930E1,2.884547710E0
9.319033351E0,-2.259183502E1,1.324786282E1,1.514058471E0
9.323809862E0,-2.125903320E1,1.342014599E1,1.776072621E0
9.328572987E0,-2.082712746E1,1.211007500E1,2.532802820E0
9.333362778E0,-2.094856453E1,1.011087227E1,1.786242127E0
9.338139289E0,-1.991366768E1,7.917850018E0,-5.832505226E-1
9.342902466E0,-1.746700668E1,5.447858810E0,-2.465803623E0
9.347692257E0,-1.501556015E1,2.934198856E0,-2.827120066E0
9.352468716E0,-1.347338581E1,9.523434043E-1,-2.205584288E0
9.357231893E0,-1.256530952E1,-3.894318938E-1,-1.508674622E0
9.362021685E0,-1.209392357E1,-1.366899967E0,-1.107278705E0
9.366798143E0,-1.189591789E1,-2.035693884E0,-9.972088337E-1
9.371561320E0,-1.180439186E1,-2.729014158E0,-1.160519004E0
9.376351112E0,-1.134736347E1,-3.460021496E0,-1.522433400E0
9.381127570E0,-1.135573769E1,-4.365705013E0,-1.790429592E0
9.385890747E0,-1.076650524E1,-4.908875465E0,-1.423729420E0
9.390680539E0,-1.039980507E1,-5.154139996E0,-8.063812256E-1
9.395457049E0,-9.827920914E0,-5.702096462E0,-6.999006122E-2
9.400220226E0,-9.089137077E0,-6.033502102E0,7.280163169E-1
9.405009966E0,-8.085946083E0,-6.276971817E0,1.313061476E0
9.409786476E0,-6.878168583E0,-6.505486488E0,1.792224169E0
9.414549653E0,-5.793023586E0,-6.879364967E0,2.467598438E0
9.419339445E0,-5.412564754E0,-7.509275436E0,3.714258909E0
9.424115903E0,-4.827519894E0,-8.356932640E0,4.719244480E0
9.428879080E0,-1.628315806E0,-9.283554077E0,3.950550079E0
9.433668872E0,1.454237938E0,-1.082632637E1,2.975475073E0
9.438445330E0,4.376472473E0,-1.321795273E1,1.013360381E0
9.443208507E0,8.966505051E0,-1.704467392E1,-2.726621389E0
9.447998299E0,1.517707539E1,-2.159223366E1,-3.265006542E0
9.452774810E0,2.072124672E1,-2.545664215E1,6.690930367E0
9.457537935E0,2.273839569E1,-2.820001221E1,1.148614693E1
9.462327726E0,2.747439003E1,-3.083152008E1,7.283751965E0
9.467104237E0,3.054198837E1,-3.468097305E1,2.663211584E0
9.471867414E0,2.937907600E1,-3.830131531E1,1.184447169E0
9.476657205E0,2.957229614E1,-4.042613983E1,3.694518089E0
9.481433664E0,3.510390472E1,-3.867100525E1,7.484749317E0
9.486196841E0,3.574458313E1,-3.083092117E1,7.461419106E0
9.490986632E0,3.182274628E1,-2.206002998E1,2.528017044E0
9.495763091E0,2.933241653E1,-1.602652740E1,6.198606968E0
9.500526268E0,2.697369194E1,-1.098843956E1,8.255836487E0
9.505316060E0,2.384567451E1,-6.926024914E0,1.006421185E1
9.510092570E0,2.142234230E1,-4.214957237E0,1.043988514E1
9.514855695E0,2.020379829E1,-2.916252613E0,9.418149948E0
9.519645487E0,2.045205307E1,-1.412961721E0,9.598808289E0
9.524421997E0,1.825125504E1,-2.006381750E0,1.046441174E1
9.529185174E0,1.718465424E1,-4.181457520E0,9.881160736E0
9.533974966E0,1.810289955E1,-6.891927242E0,9.268598557E0
9.538751424E0,1.963969040E1,-9.161520004E0,8.840283394E0
9.543527935E0,1.948236275E1,-1.024128056E1,9.014361382E0
9.548304393E0,1.795334816E1,-9.999007225E0,9.569496155E0
9.553080851E0,1.640279961E1,-9.117252350E0,1.005643559E1
9.557844028E0,1.513819218E1,-8.170890808E0,1.003848934E1
9.562633820E0,1.391964722E1,-7.407580853E0,9.588638306E0
9.567410278E0,1.265324593E1,-6.890132904E0,8.941978455E0
9.572173455E0,1.112124157E1,-6.531807423E0,8.277371407E0
9.576963247E0,1.020957565E1,-6.461817741E0,7.865208149E0
9.581739757E0,9.682557106E0,-6.588038921E0,7.181458950E0
9.586502935E0,9.297312737E0,-6.819544315E0,6.324828625E0
9.591292726E0,8.930612564E0,-6.907480717E0,5.438885689E0
9.596069185E0,8.565108299E0,-7.071389198E0,4.658825874E0
9.600832362E0,8.091329575E0,-7.183253765E0,4.171886444E0
9.605622153E0,8.045268059E0,-7.429116249E0,4.296911240E0
9.610398612E0,7.982456207E0,-7.780860901E0,4.676771641E0
9.615161789E0,7.894520283E0,-8.070990562E0,5.709274769E0
9.619951580E0,7.932805061E0,-8.562715530E0,7.129415035E0
9.624728039E0,9.365508080E0,-9.022137642E0,8.543573380E0
9.629491216E0,1.036331463E1,-9.213563919E0,9.757332802E0
9.634281007E0,1.099143124E1,-9.592825890E0,1.030110168E1
9.639057518E0,1.112303638E1,-1.003549862E1,1.063669491E1
9.643820643E0,1.105065346E1,-1.051286602E1,1.097348499E1
9.648610435E0,1.113739300E1,-1.094596672E1,1.091067314E1
9.653386945E0,1.194138145E1,-1.148375416E1,9.860821724E0
9.658150122E0,1.414875984E1,-1.256172085E1,8.573483467E0
9.662939914E0,1.749811363E1,-1.381496143E1,7.112067223E0
9.667716372E0,2.017329025E1,-1.502214050E1,5.842076302E0
9.672479549E0,2.274078751E1,-1.660080528E1,5.565705299E0
9.677269341E0,2.470768929E1,-1.855215263E1,6.334399700E0
9.682045799E0,2.603092003E1,-2.051067734E1,7.754539967E0
9.686808976E0,2.527717972E1,-2.201576233E1,8.239086151E0
9.691598768E0,2.423809624E1,-2.327020073E1,7.290930748E0
9.696375226E0,2.417349052E1,-2.446003151E1,6.984051228E0
9.701138403E0,2.137867355E1,-2.623311234E1,1.659422517E0
9.705928195E0,1.973719788E1,-2.792065048E1,-3.125624657E0
9.710704705E0,1.556650734E1,-2.816531754E1,-7.715656757E0
9.715467882E0,7.483552933E0,-2.643949318E1,-9.911071777E0
9.720257622E0,6.161518395E-2,-2.398804665E1,-6.121438503E0
9.725034132E0,-5.758925915E0,-2.062254143E1,-7.429714203E-1
9.729797310E0,-1.001156998E1,-1.663071632E1,3.811168194E0
9.734587101E0,-1.336630726E1,-1.207837009E1,7.741977692E0
9.739363560E0,-1.580399513E1,-7.820940971E0,8.888737679E0
9.744126737E0,-1.746102524E1,-4.244867325E0,7.498507977E0
9.748916528E0,-2.145763779E1,-3.996013701E-1,5.548955917E0
9.753692987E0,-2.576412010E1,4.066003799E0,4.632504463E0
9.758456164E0,-2.858944511E1,7.947162151E0,5.330610752E0
9.763245955E0,-2.907339287E1,1.157767200E1,6.693323135E0
9.768022466E0,-2.813959503E1,1.438864040E1,5.995217323E0
9.772785591E0,-2.648196602E1,1.608515167E1,3.336791277E0
9.777575382E0,-2.467837715E1,1.545404530E1,2.315055847E0
9.782351893E0,-2.338027000E1,1.330828094E1,1.806581140E0
9.787115070E0,-2.124946213E1,1.062652493E1,3.140579760E-1
9.791904862E0,-1.896252060E1,7.746165276E0,-7.663014531E-1
9.796681320E0,-1.775235176E1,4.854438782E0,-1.173081279E0
9.801444497E0,-1.749572182E1,2.474776745E0,-9.044869542E-1
9.806234289E0,-1.723789406E1,5.240281820E-1,-2.997010350E-1
9.811010747E0,-1.648176193E1,-7.076773047E-1,-1.345962733E-1
9.815773924E0,-1.517408466E1,-1.634297848E0,-7.459624410E-1
9.820563716E0,-1.410509109E1,-2.392822742E0,-1.398006678E0
9.825340174E0,-1.213161087E1,-2.849851847E0,-1.797009826E0
9.830103351E0,-1.092682457E1,-3.507279873E0,-2.004587173E0
9.834893143E0,-9.930213928E0,-3.976871252E0,-1.870589137E0
9.839669653E0,-9.030512810E0,-4.417748928E0,-1.279561877E0
9.844432778E0,-8.386244774E0,-4.874777794E0,-3.463610709E-1
9.849222570E0,-7.355536938E0,-5.233701229E0,6.897311211E-1
9.853999080E0,-6.996015072E0,-5.493322372E0,1.773081541E0
9.858762257E0,-6.097510338E0,-5.843871117E0,2.295913219E0
9.863552049E0,-5.245067120E0,-6.232106686E0,2.968894720E0
9.868328507E0,-4.913063049E0,-7.016952515E0,3.879363775E0
9.873091685E0,-4.478765965E0,-8.167900085E0,5.096712112E0
9.877881476E0,-1.333998680E0,-9.455837250E0,4.447659016E0
9.882657935E0,2.412563324E0,-1.111286640E1,2.361117840E0
9.887421112E0,4.234697819E0,-1.379641724E1,9.188438654E-1
9.892210903E0,7.419544697E0,-1.781934929E1,-1.719841242E0
9.896987362E0,1.234337521E1,-2.291486549E1,-1.281356573E0
9.901750539E0,1.700339699E1,-2.755634308E1,6.802794933E0
9.906540330E0,2.037129593E1,-3.184787178E1,1.149153042E1
9.911316841E0,2.581735992E1,-3.609692764E1,8.130811691E0
9.916079966E0,3.072922707E1,-4.122773743E1,2.609373093E0
