"Time (s)","Acceleration x (m/s^2)","Acceleration y (m/s^2)","Acceleration z (m/s^2)"
4.014234000E-3,1.914258122E0,4.290330887E0,8.468199730E0
8.674859000E-3,1.964507341E0,4.285545349E0,8.697910309E0
1.343038000E-2,1.990828395E0,4.254438877E0,8.906085968E0
1.818579700E-2,2.000399828E0,4.247260094E0,9.078369141E0
2.294121400E-2,1.966900229E0,4.237689018E0,9.238688469E0
2.769663000E-2,1.816152334E0,4.421936035E0,9.437292099E0
3.245204700E-2,1.823330879E0,4.307080746E0,9.602396965E0
3.720746400E-2,1.890329838E0,4.185046673E0,9.736394882E0
4.196293200E-2,1.947757602E0,4.127619267E0,9.868000984E0
4.671834900E-2,1.964507341E0,4.153940201E0,1.004028416E1
5.147376600E-2,1.897508383E0,4.137190342E0,1.015992451E1
5.622918200E-2,1.773081541E0,4.118047714E0,1.016471100E1
6.098459900E-2,1.629512191E0,4.127619267E0,1.014796066E1
6.574001600E-2,1.531406522E0,4.086941242E0,1.008814049E1
7.049548400E-2,1.414158225E0,4.079762459E0,1.001156998E1
7.525090100E-2,1.325623751E0,4.053441525E0,9.891928673E0
8.000631800E-2,1.268195987E0,4.031906128E0,9.848857880E0
8.476173400E-2,1.225125194E0,3.996013880E0,9.824930191E0
8.951715100E-2,1.141376376E0,4.000799656E0,9.793823242E0
9.427262000E-2,1.131805062E0,3.960121393E0,9.870393753E0
9.902803700E-2,1.153340459E0,3.919443607E0,9.937392235E0
1.037834530E-1,1.170090318E0,3.912265062E0,9.954142570E0
1.085388700E-1,1.215553880E0,3.864408493E0,9.958928108E0
1.132942870E-1,1.234696507E0,3.804588079E0,9.891928673E0
1.180497030E-1,1.155733347E0,3.787838221E0,9.930213928E0
1.228051720E-1,1.127019525E0,3.814159393E0,9.934999466E0
1.275605890E-1,6.675975323E-1,3.895515203E0,1.002831936E1
1.323160050E-1,6.484549642E-1,3.938585997E0,1.004506969E1
1.370714220E-1,7.441678643E-1,3.996013880E0,9.968499184E0
1.418268390E-1,7.752745152E-1,3.969692707E0,9.925428391E0
1.465822550E-1,7.585247755E-1,3.955335855E0,9.891928673E0
1.513376720E-1,6.699903607E-1,3.888336897E0,9.856036186E0
1.560931410E-1,4.546363056E-1,3.921836376E0,9.798608780E0
1.608485570E-1,1.842473447E-1,3.859622955E0,9.683753014E0
1.656039740E-1,6.221338734E-2,3.775874138E0,9.552147865E0
1.703593910E-1,1.196411345E-2,3.653840065E0,9.477970123E0
1.751148070E-1,-1.914258115E-2,3.491128206E0,9.399007797E0
1.798702760E-1,-3.589234129E-2,3.354737282E0,9.377471924E0
1.846256930E-1,-1.196411327E-1,3.235096216E0,9.334401131E0
1.893811090E-1,-2.177468538E-1,3.158525944E0,9.286544800E0
1.941365260E-1,-3.708875179E-1,3.156133175E0,9.200403214E0
1.988919430E-1,-5.264210105E-1,3.184846878E0,9.107083321E0
2.036473590E-1,-6.412764788E-1,3.194418192E0,8.980263710E0
2.084028280E-1,-7.274180651E-1,3.244667530E0,8.803194046E0
2.131582450E-1,-7.633104324E-1,3.302095175E0,8.642875671E0
2.179136620E-1,-7.776673436E-1,3.328416348E0,8.465806961E0
2.226690780E-1,-7.776673436E-1,3.321237803E0,8.317451477E0
2.274244950E-1,-7.776673436E-1,3.321237803E0,8.202595711E0
2.321799120E-1,-8.662018180E-1,3.314059258E0,8.135597229E0
2.369353800E-1,-9.643075466E-1,3.223132133E0,8.003992081E0
2.416907970E-1,-1.067198873E0,3.113062143E0,7.960920811E0
2.464462140E-1,-1.201196909E0,3.010170937E0,7.963313580E0
2.512016300E-1,-1.363908887E0,2.871387243E0,7.936992645E0
2.559570470E-1,-1.543370605E0,2.708675146E0,7.965706348E0
2.607124640E-1,-1.701296926E0,2.584248543E0,8.020741463E0
2.654679320E-1,-1.799402595E0,2.435893536E0,8.035098076E0
2.702233490E-1,-1.837687731E0,2.299502611E0,8.056633949E0
2.749787660E-1,-1.832902193E0,2.175075769E0,8.104490280E0
2.797341820E-1,-1.842473388E0,2.096112728E0,8.126026154E0
2.844895990E-1,-1.651047587E0,2.007578135E0,8.212167740E0
2.892450160E-1,-1.354337573E0,1.887937069E0,8.341380119E0
2.940004840E-1,-1.483550072E0,1.919043779E0,8.386843681E0
2.987559010E-1,-1.552941918E0,2.014756680E0,8.470592499E0
3.035113180E-1,-1.531406522E0,2.115255117E0,8.645268440E0
3.082667340E-1,-1.452443361E0,2.189432621E0,8.877371788E0
3.130221510E-1,-1.296909928E0,2.239681959E0,9.049654961E0
3.177775680E-1,-1.225125194E0,2.189432621E0,9.231510162E0
3.225330370E-1,-1.196411371E0,2.108076811E0,9.375079155E0
3.272884530E-1,-1.246660590E0,2.043470621E0,9.540184021E0
3.320438700E-1,-1.287338614E0,1.954936147E0,9.712467194E0
3.367992870E-1,-1.323230863E0,1.849651933E0,9.860821724E0
3.415547030E-1,-1.337587833E0,1.763510346E0,9.980463028E0
3.463101200E-1,-1.440479279E0,1.655833244E0,1.002592659E1
3.510655370E-1,-1.684547186E0,1.548156261E0,1.066720295E1
3.558210050E-1,-2.081755638E0,1.356730461E0,1.178704453E1
3.605764220E-1,-2.117648125E0,1.275374413E0,1.195693493E1
3.653318390E-1,-1.931007862E0,1.289731383E0,1.123669529E1
3.700872550E-1,-1.957328916E0,1.406979680E0,1.024367332E1
3.748426720E-1,-2.057827473E0,1.464407444E0,9.729216576E0
3.795981410E-1,-1.957328916E0,1.485942841E0,9.477970123E0
3.843535570E-1,-1.921436548E0,1.426122308E0,9.097511292E0
3.891089740E-1,-1.940579176E0,1.356730461E0,8.523234367E0
3.938643910E-1,-1.897508383E0,1.239482164E0,7.910671711E0
3.986198070E-1,-1.787438512E0,1.115055323E0,7.570890903E0
4.033752240E-1,-1.607976794E0,1.050449133E0,7.527820110E0
4.081306930E-1,-1.459621787E0,9.762716293E-1,7.652246952E0
4.128861090E-1,-1.380658627E0,9.451649189E-1,7.925028801E0
4.176415260E-1,-1.354337573E0,9.092726111E-1,8.291130066E0
4.223969430E-1,-1.514656782E0,8.638089895E-1,8.867800713E0
4.271523590E-1,-1.533799291E0,8.350951076E-1,9.451649666E0
4.319077760E-1,-1.397408366E0,7.680960894E-1,9.987641335E0
4.366631930E-1,-1.294517040E0,6.652047038E-1,1.038485050E1
4.414186620E-1,-1.741974831E0,6.675975323E-1,1.076291656E1
4.461740780E-1,-1.978864312E0,7.202396393E-1,1.091844940E1
4.509294950E-1,-2.009970903E0,7.202396393E-1,1.087537861E1
4.556849120E-1,-1.914258122E0,5.575276613E-1,1.096391296E1
4.604403280E-1,-1.737189293E0,3.326023519E-1,1.137069321E1
4.651957450E-1,-1.612762451E0,2.416750938E-1,1.084666538E1
4.699512140E-1,-1.545763373E0,4.642075896E-1,1.030349445E1
4.747066300E-1,-1.435693622E0,6.771687865E-1,1.004028416E1
4.794620470E-1,-1.485942841E0,7.752745152E-1,9.729216576E0
4.842174640E-1,-1.557727575E0,7.704889178E-1,9.475577354E0
4.889728800E-1,-1.591227055E0,6.939185858E-1,9.387042999E0
4.937282970E-1,-1.837687731E0,4.642075896E-1,9.559326172E0
4.984837660E-1,-2.086541414E0,2.416750938E-1,9.784252167E0
5.032391820E-1,-2.234896421E0,1.172483116E-1,9.884750366E0
5.079945990E-1,-2.316252232E0,9.571290575E-3,9.990034103E0
5.127500160E-1,-2.318645239E0,-5.024927482E-2,1.003549862E1
5.175054320E-1,-2.261217356E0,-1.914258115E-2,9.896714211E0
5.222608490E-1,-2.158325911E0,1.124626622E-1,9.681360245E0
5.270163180E-1,-1.998006940E0,3.182454109E-1,9.489934921E0
5.317717340E-1,-1.744367719E0,4.570291340E-1,9.511469841E0
5.365271510E-1,-1.648654819E0,5.551348329E-1,9.485149384E0
5.412825680E-1,-1.605584025E0,7.489534616E-1,9.387042999E0
5.460379840E-1,-1.634297848E0,9.738788009E-1,9.449256897E0
5.507934010E-1,-1.739582062E0,9.690931439E-1,9.497113228E0
5.555488180E-1,-1.828116536E0,9.068797827E-1,9.348757744E0
5.603042870E-1,-2.007578135E0,9.068797827E-1,9.303294182E0
5.650597030E-1,-2.225325108E0,9.212366939E-1,9.178867340E0
5.698151200E-1,-2.423929453E0,8.853443861E-1,9.066405296E0
5.745705370E-1,-2.301895380E0,8.638089895E-1,9.016156197E0
5.793259530E-1,-2.136790514E0,9.810572863E-1,8.999405861E0
5.840813700E-1,-1.844866276E0,1.016949654E0,9.044869423E0
5.888367870E-1,-1.596012712E0,1.052842021E0,8.992227554E0
5.935922550E-1,-1.466800332E0,1.148554921E0,8.853444099E0
5.983476720E-1,-1.421336651E0,1.131805062E0,8.733802795E0
6.031030890E-1,-1.387837172E0,1.136590719E0,8.640482903E0
6.078585050E-1,-1.227517962E0,1.127019525E0,8.578269005E0
6.126139220E-1,-1.064806104E0,1.160519004E0,8.477770805E0
6.173693390E-1,-1.050449133E0,1.289731383E0,8.190631866E0
6.221248070E-1,-1.086341500E0,1.665404558E0,7.769495010E0
6.268802240E-1,-1.665404558E0,2.447857618E0,7.530212879E0
6.316356410E-1,-1.552941918E0,2.555534601E0,7.039684296E0
6.363910570E-1,-1.619940877E0,2.459821701E0,6.683153629E0
6.411464740E-1,-1.816152334E0,2.342573404E0,6.486942291E0
6.459019430E-1,-2.057827473E0,2.273181438E0,6.510870457E0
6.506573590E-1,-2.323430777E0,2.222932339E0,6.726224422E0
6.554127760E-1,-2.500499725E0,2.201396942E0,7.013363361E0
6.601681930E-1,-2.718246460E0,2.177468538E0,7.377072334E0
6.649236090E-1,-2.859423161E0,2.124826431E0,7.688138962E0
6.696790260E-1,-2.845066071E0,2.002792597E0,7.834101200E0
6.744344430E-1,-2.852244616E0,1.847259045E0,8.049455643E0
6.791898590E-1,-2.830709219E0,1.746760488E0,8.118846893E0
6.839453280E-1,-2.651247501E0,1.758724689E0,7.810173035E0
6.887007450E-1,-2.620140791E0,1.710868239E0,7.939385414E0
6.934561620E-1,-2.598605394E0,1.624726534E0,7.831708431E0
6.982115780E-1,-2.423929453E0,1.706082582E0,7.805387497E0
7.029669950E-1,-2.541177750E0,1.679761529E0,7.369893551E0
7.077224120E-1,-2.658426046E0,1.639083505E0,7.467999458E0
7.124778280E-1,-2.541177750E0,1.706082582E0,7.389036179E0
7.172332970E-1,-2.330609322E0,1.720439434E0,7.219145775E0
7.219887140E-1,-2.390429735E0,1.586441398E0,6.790830612E0
7.267441300E-1,-2.364108801E0,1.385444283E0,6.580262184E0
7.314995470E-1,-2.371287346E0,1.189232826E0,6.539584160E0
7.362549640E-1,-2.390429735E0,1.160519004E0,6.527620316E0
7.410103800E-1,-2.773281336E0,1.100698471E0,6.695117950E0
7.457657970E-1,-3.103491068E0,1.031306505E0,7.405786037E0
7.505212660E-1,-2.995813847E0,1.122233868E0,7.755138397E0
7.552766820E-1,-2.809173822E0,1.246660590E0,7.755138397E0
7.600320990E-1,-3.388236761E0,9.690931439E-1,8.161917686E0
7.647875160E-1,-3.486342669E0,9.212366939E-1,8.535198212E0
7.695429320E-1,-3.450450182E0,8.470591903E-1,8.815158844E0
7.742983490E-1,-3.744767427E0,6.221339107E-1,9.353543282E0
7.790537660E-1,-3.828516245E0,5.742774606E-1,9.291330338E0
7.838092340E-1,-3.952943087E0,5.383850932E-1,9.506684303E0
7.885646510E-1,-3.845266104E0,5.072783828E-1,9.796216011E0
7.933200680E-1,-3.775874138E0,4.474578202E-1,9.559326172E0
7.980754840E-1,-3.840480328E0,3.445664644E-1,9.580862045E0
8.028309010E-1,-3.747160196E0,3.014956415E-1,9.458827972E0
8.075863180E-1,-3.608376503E0,3.182454109E-1,9.217152596E0
8.123417870E-1,-3.629911900E0,2.991028428E-1,9.030512810E0
8.170972030E-1,-3.206382275E0,3.637090325E-1,8.784051895E0
8.218526200E-1,-3.156133175E0,3.349951804E-1,8.537590981E0
8.266080370E-1,-3.242274761E0,2.632105052E-1,8.475378036E0
8.313634530E-1,-3.407379389E0,1.962114573E-1,8.394021988E0
8.361188700E-1,-3.708875179E0,1.100698411E-1,8.427521706E0
8.408742870E-1,-3.713660717E0,1.986042857E-1,8.334200859E0
8.456297030E-1,-3.818944931E0,2.679961324E-1,8.166703224E0
8.503851720E-1,-3.972085476E0,3.421736360E-1,8.092526436E0
8.551405890E-1,-4.151547432E0,3.684946895E-1,7.793423176E0
8.598960050E-1,-4.369294167E0,3.493520916E-1,7.647460938E0
8.646514220E-1,-4.539184570E0,3.876372576E-1,7.750352383E0
8.694068390E-1,-4.613361835E0,4.426721931E-1,7.929814339E0
8.741622550E-1,-4.730610371E0,4.713860750E-1,8.267202377E0
8.789176720E-1,-4.867001057E0,4.450650215E-1,8.551948547E0
8.836731410E-1,-5.046463013E0,4.594219327E-1,8.872586250E0
8.884285570E-1,-5.146961689E0,3.469592929E-1,9.052047729E0
8.931839740E-1,-5.245067120E0,2.560320199E-1,9.241081238E0
8.979393910E-1,-5.201996326E0,1.076770201E-1,9.312865257E0
9.026948070E-1,-5.264209747E0,1.435693540E-2,9.188439369E0
9.074502240E-1,-5.314459324E0,-1.818545163E-1,8.831908226E0
9.122056410E-1,-5.417350292E0,-3.684946895E-1,8.683553696E0
9.169610570E-1,-5.309673309E0,-5.838487148E-1,8.659625053E0
9.217165260E-1,-5.326423168E0,-8.398807645E-1,8.236095428E0
9.264719430E-1,-5.369493961E0,-9.858429432E-1,8.051848412E0
9.312273590E-1,-5.328815937E0,-1.225125194E0,7.714460373E0
9.359827760E-1,-5.426921844E0,-1.261017561E0,7.664210796E0
9.407381930E-1,-5.223531723E0,-1.426122308E0,7.728816986E0
9.454936090E-1,-5.221138954E0,-1.543370605E0,7.477570534E0
9.502490260E-1,-5.510670662E0,-1.600798368E0,7.283751965E0
9.550044950E-1,-5.386243820E0,-1.706082582E0,7.312466145E0
9.597599120E-1,-5.527420521E0,-1.610369682E0,7.085147858E0
9.645153280E-1,-5.436492920E0,-1.624726534E0,6.649653912E0
9.692707450E-1,-5.663811207E0,-1.481157184E0,6.740581512E0
9.740261620E-1,-5.673382282E0,-1.433300734E0,6.862615108E0
9.787815780E-1,-5.764309883E0,-1.246660590E0,6.893722057E0
9.835369950E-1,-5.871986866E0,-1.048056364E0,6.972685337E0
9.882924640E-1,-5.958128452E0,-9.499505758E-1,7.015756130E0
9.930478800E-1,-6.001199245E0,-1.007378340E0,6.587440968E0
9.978032970E-1,-6.063412666E0,-1.076770186E0,6.211767673E0
1.002558714E0,-6.159125328E0,-1.265803218E0,5.546562672E0
1.007314130E0,-6.300302029E0,-1.172483087E0,5.723631859E0
1.012069547E0,-6.503692150E0,-1.007378340E0,6.089733601E0
1.016824964E0,-6.869793892E0,-6.915257573E-1,6.455835342E0
1.021580380E0,-6.994220734E0,-4.857429862E-1,6.704689026E0
1.026335849E0,-7.032505512E0,-5.096712112E-1,6.496513367E0
1.031091266E0,-7.008577347E0,-6.364908218E-1,6.252445698E0
1.035846682E0,-7.061219692E0,-7.800601721E-1,5.996413708E0
1.040602099E0,-7.305287361E0,-8.877372146E-1,5.864808083E0
1.045357516E0,-7.501499176E0,-8.757730722E-1,5.769095421E0
1.050112932E0,-7.470392227E0,-8.255237937E-1,5.857629776E0
1.054868349E0,-7.446464062E0,-7.322037220E-1,5.527420521E0
1.059623766E0,-7.673782349E0,-7.920243144E-1,5.309673309E0
1.064379234E0,-7.814958572E0,-7.369893789E-1,5.271388054E0
1.069134651E0,-7.946564198E0,-6.388836503E-1,5.333601475E0
1.073890068E0,-8.082955360E0,-5.838487148E-1,5.436492920E0
1.078645484E0,-8.248059273E0,-5.144568682E-1,5.431707382E0
1.083400901E0,-8.472985268E0,-4.450650215E-1,5.367101192E0
1.088156318E0,-8.717052460E0,-3.230310678E-1,5.307280540E0
1.092911734E0,-8.951549530E0,-2.033899277E-1,5.247459888E0
1.097667151E0,-9.262616158E0,-1.172483116E-1,5.199603558E0
1.102422568E0,-9.425328255E0,-8.135596663E-2,5.173282623E0
1.107178037E0,-9.430113792E0,-8.614161611E-2,5.166104317E0
1.111933453E0,-9.430113792E0,-1.531406492E-1,5.173282623E0
1.116688870E0,-9.442078590E0,-2.392822653E-1,5.221138954E0
1.121444287E0,-9.343972206E0,-3.326023519E-1,5.345565796E0
1.126199703E0,-9.470791817E0,-4.522434771E-1,5.285745144E0
1.130955120E0,-9.611968994E0,-5.910272002E-1,5.151747227E0
1.135710537E0,-9.707681656E0,-7.824530005E-1,4.960321426E0
1.140465953E0,-9.595218658E0,-9.595218897E-1,4.862215519E0
1.145221370E0,-9.389435768E0,-1.105484009E0,4.852644444E0
1.149976839E0,-9.351150513E0,-1.150947690E0,4.910071850E0
1.154732255E0,-9.511469841E0,-1.205982566E0,4.823930264E0
1.159487672E0,-9.475577354E0,-1.112662554E0,4.871787071E0
1.164243089E0,-9.717252731E0,-1.131805062E0,4.575077057E0
1.168998505E0,-9.875179291E0,-1.071984529E0,4.498506546E0
1.173753922E0,-9.863214493E0,-9.547362328E-1,4.366901398E0
1.178509339E0,-1.004746246E1,-8.877372146E-1,4.237689018E0
1.183264755E0,-1.035852909E1,-8.638089895E-1,3.976871252E0
1.188020224E0,-1.063370419E1,-8.446664214E-1,3.766302824E0
1.192775641E0,-1.072223854E1,-8.781659007E-1,3.603590965E0
1.197531057E0,-1.055234814E1,-8.925228715E-1,3.531806231E0
1.202286474E0,-1.050688457E1,-9.020941257E-1,3.359523058E0
1.207041891E0,-1.051884842E1,-9.547362328E-1,3.189632654E0
1.211797307E0,-1.041356373E1,-1.028913736E0,3.125026464E0
1.216552724E0,-1.061934662E1,-1.213161111E0,2.885744095E0
1.221308141E0,-1.075813103E1,-1.418943882E0,2.813959360E0
1.226063609E0,-1.054038334E1,-1.493121386E0,2.900100946E0
1.230818974E0,-1.046620655E1,-1.550549030E0,2.883351326E0
1.235574443E0,-1.060977554E1,-1.552941918E0,2.878565550E0
1.240329859E0,-1.067677498E1,-1.536192179E0,2.859423161E0
1.245085276E0,-1.074377346E1,-1.569691658E0,2.842673302E0
1.249840693E0,-1.075095177E1,-1.584048629E0,2.828316450E0
1.254596109E0,-1.068156052E1,-1.619940877E0,2.866601467E0
1.259351526E0,-1.064088249E1,-1.658226132E0,2.847458839E0
1.264106943E0,-1.064088249E1,-1.691725612E0,2.825923443E0
1.268862359E0,-1.060499001E1,-1.703689694E0,2.785245657E0
1.273617776E0,-1.049970531E1,-1.710868239E0,2.725425005E0
1.278373245E0,-1.049491978E1,-1.761117458E0,2.584248543E0
1.283128662E0,-1.056909752E1,-1.804188251E0,2.431107759E0
1.287884078E0,-1.056670475E1,-1.801795483E0,2.234896421E0
1.292639495E0,-1.055952644E1,-1.811366796E0,1.981257200E0
1.297394912E0,-1.049013424E1,-1.823330879E0,1.820937991E0
1.302150328E0,-1.036570740E1,-1.861616015E0,1.584048629E0
1.306905745E0,-1.031785107E1,-1.890329838E0,1.351944804E0
1.311661162E0,-1.032024384E1,-1.880758643E0,1.167697430E0
1.316416578E0,-1.004028416E1,-1.844866276E0,1.040877819E0
1.321171995E0,-9.973284721E0,-1.830509305E0,9.116654396E-1
1.325927464E0,-1.026281643E1,-1.887937069E0,5.503492355E-1
1.330682880E0,-1.048056316E1,-1.954936147E0,2.847459018E-1
1.335438297E0,-1.056670475E1,-2.062613010E0,5.264209956E-2
1.340193714E0,-1.020778179E1,-2.088934183E0,1.124626622E-1
1.344949130E0,-1.005464077E1,-2.139183521E0,1.483550072E-1
1.349704547E0,-1.014556789E1,-2.227717876E0,1.890329868E-1
1.354459964E0,-1.026520920E1,-2.287538528E0,2.201396823E-1
1.359215380E0,-1.026281643E1,-2.352144718E0,2.488535494E-1
1.363970797E0,-1.021017456E1,-2.421536446E0,2.751746178E-1
1.368726214E0,-1.024845982E1,-2.488535643E0,3.613162339E-1
1.373481682E0,-1.026760197E1,-2.524427891E0,4.091726840E-1
1.378237099E0,-1.039681435E1,-2.519642353E0,4.833501875E-1
1.382992516E0,-1.051884842E1,-2.495713949E0,5.024927258E-1
1.387747932E0,-1.063609695E1,-2.483749866E0,4.929214716E-1
1.392503349E0,-1.068873882E1,-2.426322222E0,4.689932466E-1
1.397258766E0,-1.073420238E1,-2.373680115E0,3.517449200E-1
1.402014182E0,-1.069352436E1,-2.239681959E0,2.273181528E-1
1.406769599E0,-1.063370419E1,-2.153540373E0,2.632104978E-2
1.411525016E0,-1.062652493E1,-2.127219439E0,-1.914258152E-1
1.416280432E0,-1.057149029E1,-2.155933142E0,-3.469592929E-1
1.421035849E0,-1.041595650E1,-2.203789711E0,-5.120640397E-1
1.425791266E0,-1.028913784E1,-2.261217356E0,-7.082754970E-1
1.430546734E0,-1.013599682E1,-2.297109842E0,-9.164510965E-1
1.435302151E0,-9.908679008E0,-2.356930256E0,-1.115055323E0
1.440057568E0,-9.681360245E0,-2.423929453E0,-1.246660590E0
1.444812984E0,-9.568898201E0,-2.548356056E0,-1.339980721E0
1.449568401E0,-9.473184586E0,-2.584248543E0,-1.311266780E0
1.454323818E0,-9.422935486E0,-2.691925526E0,-1.335195065E0
1.459079234E0,-9.401400566E0,-2.725425005E0,-1.306481123E0
1.463834651E0,-9.391828537E0,-2.763710260E0,-1.244267821E0
1.468590068E0,-9.339186668E0,-2.821137905E0,-1.136590719E0
1.473345484E0,-9.394221306E0,-2.823530674E0,-9.499505758E-1
1.478100901E0,-9.504291534E0,-2.876172781E0,-8.685946465E-1
1.482856318E0,-9.590433121E0,-2.988635540E0,-7.441678643E-1
1.487611787E0,-9.676574707E0,-3.062813044E0,-6.340979934E-1
1.492367203E0,-9.779465675E0,-3.081955671E0,-5.527420044E-1
1.497122620E0,-9.875179291E0,-3.069991350E0,-4.761717021E-1
1.501878037E0,-9.923035622E0,-3.079562664E0,-4.235295951E-1
1.506633453E0,-9.980463028E0,-3.091526747E0,-4.091726840E-1
1.511388870E0,-1.001874828E1,-3.144168854E0,-4.426721931E-1
1.516144287E0,-1.002592659E1,-3.172882795E0,-5.120640397E-1
1.520899703E0,-1.010967541E1,-3.148954630E0,-5.455635786E-1
1.525655120E0,-1.022213840E1,-3.093919754E0,-6.269195080E-1
1.530410537E0,-1.028674412E1,-3.031706333E0,-7.034898400E-1
1.535165953E0,-1.028435135E1,-2.962314367E0,-8.398807645E-1
1.539921370E0,-1.022213840E1,-2.967100143E0,-9.906286001E-1
1.544676787E0,-1.013121128E1,-2.986242771E0,-1.182054400E0
1.549432203E0,-1.002114105E1,-3.036491871E0,-1.349551916E0
1.554187672E0,-9.908679008E0,-3.086741209E0,-1.517049551E0
1.558943089E0,-9.822537422E0,-3.074777126E0,-1.703689694E0
1.563698505E0,-9.731609344E0,-3.089133978E0,-1.856830359E0
1.568453922E0,-9.600004196E0,-3.072384357E0,-1.971685886E0
1.573209339E0,-9.494720459E0,-3.110669374E0,-2.065006018E0
1.577964755E0,-9.489934921E0,-3.168097258E0,-2.115255117E0
1.582720172E0,-9.518648148E0,-3.218346357E0,-2.088934183E0
1.587475589E0,-9.568898201E0,-3.275774240E0,-2.060220242E0
1.592231005E0,-9.614361763E0,-3.326023579E0,-1.976471543E0
1.596986422E0,-9.662218094E0,-3.369094372E0,-1.842473388E0
1.601741839E0,-9.688538551E0,-3.404986620E0,-1.655833244E0
1.606497255E0,-9.688538551E0,-3.440878868E0,-1.500299811E0
1.611252672E0,-9.690931320E0,-3.457628727E0,-1.409372568E0
1.616008089E0,-9.662218094E0,-3.414557934E0,-1.371087432E0
1.620763557E0,-9.616754532E0,-3.402593851E0,-1.404586911E0
1.625518974E0,-9.590433121E0,-3.440878868E0,-1.423729420E0
1.630274391E0,-9.506684303E0,-3.474378586E0,-1.538584948E0
1.635029807E0,-9.451649666E0,-3.541377544E0,-1.651047587E0
1.639785224E0,-9.329615593E0,-3.572484255E0,-1.765903115E0
1.644540641E0,-9.257830620E0,-3.584448338E0,-1.854437590E0
1.649296057E0,-9.174081802E0,-3.644268990E0,-1.919043779E0
1.654051474E0,-9.071190834E0,-3.656233072E0,-1.966900229E0
1.658806891E0,-8.977870941E0,-3.696911097E0,-2.057827473E0
1.663562307E0,-8.894122124E0,-3.692125320E0,-2.122433662E0
1.668317724E0,-8.906085968E0,-3.739981890E0,-2.146361828E0
1.673073141E0,-8.968298912E0,-3.761517286E0,-2.143969059E0
1.677828557E0,-9.035298347E0,-3.778266907E0,-2.127219439E0
1.682583974E0,-9.104690552E0,-3.787838221E0,-2.036292076E0
1.687339443E0,-9.253045082E0,-3.768695593E0,-1.964507341E0
1.692094859E0,-9.336793900E0,-3.759124279E0,-1.878365755E0
1.696850276E0,-9.396614075E0,-3.766302824E0,-1.785045743E0
1.701605693E0,-9.432506561E0,-3.773481369E0,-1.682154298E0
1.706361109E0,-9.427721024E0,-3.799802303E0,-1.564906001E0
1.711116526E0,-9.406186104E0,-3.830909014E0,-1.466800332E0
1.715871943E0,-9.384650230E0,-3.902693748E0,-1.392622828E0
1.720627359E0,-9.358329773E0,-3.964907169E0,-1.294517040E0
1.725382776E0,-9.315258980E0,-4.005585194E0,-1.172483087E0
1.730138193E0,-9.212367058E0,-4.051048756E0,-1.009771109E0
1.734893609E0,-9.178867340E0,-4.082155228E0,-8.183453679E-1
1.739649026E0,-9.135796547E0,-4.118047714E0,-6.867401004E-1
1.744404443E0,-9.056833267E0,-4.180261135E0,-5.958128572E-1
1.749159859E0,-8.994620323E0,-4.278367043E0,-5.575276613E-1
1.753915276E0,-8.941978455E0,-4.331008911E0,-5.192425251E-1
1.758670745E0,-8.934800148E0,-4.381258488E0,-5.288137794E-1
1.763426162E0,-8.932407379E0,-4.398007870E0,-6.293123364E-1
1.768181578E0,-8.915657043E0,-4.412364960E0,-7.441678643E-1
1.772936995E0,-8.824729919E0,-4.433900356E0,-9.188438654E-1
1.777692412E0,-8.700303078E0,-4.417150497E0,-1.136590719E0
1.782447828E0,-8.575876236E0,-4.436293125E0,-1.359123230E0
1.787203245E0,-8.506484032E0,-4.479363918E0,-1.579262972E0
1.791958662E0,-8.453842163E0,-4.512863636E0,-1.703689694E0
1.796714078E0,-8.358129501E0,-4.512863636E0,-1.808973908E0
1.801469495E0,-8.317451477E0,-4.479363918E0,-1.871187329E0
1.806224912E0,-8.262416840E0,-4.491328239E0,-1.897508383E0
1.810980328E0,-8.262416840E0,-4.465006828E0,-1.878365755E0
1.815735745E0,-8.262416840E0,-4.429114819E0,-1.849651933E0
1.820491162E0,-8.264809608E0,-4.395615101E0,-1.789831281E0
1.825246578E0,-8.291130066E0,-4.357329845E0,-1.715653777E0
1.830002047E0,-8.341380119E0,-4.350151539E0,-1.679761529E0
1.834757464E0,-8.420342445E0,-4.299902439E0,-1.591227055E0
1.839512880E0,-8.532805443E0,-4.232903481E0,-1.476371527E0
1.844268297E0,-8.614161491E0,-4.206582069E0,-1.344766378E0
1.849023714E0,-8.702695847E0,-4.163511276E0,-1.263410330E0
1.853779130E0,-8.822337151E0,-4.158725739E0,-1.191625714E0
1.858534547E0,-8.944371223E0,-4.177868366E0,-1.143769264E0
1.863289964E0,-9.011369705E0,-4.197010994E0,-1.088734269E0
1.868045380E0,-9.028120041E0,-4.225724697E0,-1.050449133E0
1.872800797E0,-9.099904060E0,-4.268795490E0,-1.004985452E0
1.877556214E0,-9.164510727E0,-4.347758770E0,-9.451649189E-1
1.882311630E0,-9.171689034E0,-4.364508629E0,-8.829515576E-1
1.887067047E0,-9.193224907E0,-4.414757729E0,-8.566305041E-1
1.891822464E0,-9.205188751E0,-4.445864677E0,-8.685946465E-1
1.896577880E0,-9.145368576E0,-4.474578381E0,-9.020941257E-1
1.901333349E0,-9.095118523E0,-4.498506546E0,-9.284151793E-1
1.906088766E0,-9.016156197E0,-4.472185612E0,-9.355936646E-1
1.910844182E0,-8.980263710E0,-4.448257446E0,-9.020941257E-1
1.915599599E0,-9.004191399E0,-4.426722050E0,-8.997012973E-1
1.920355016E0,-9.066405296E0,-4.393222332E0,-9.379864931E-1
1.925110432E0,-9.119047165E0,-4.280759811E0,-1.033699393E0
1.929865849E0,-9.224330902E0,-4.173082829E0,-1.074377418E0
1.934621266E0,-9.293723106E0,-4.051048756E0,-1.136590719E0
1.939376682E0,-9.403793335E0,-3.979264021E0,-1.208375454E0
1.944132099E0,-9.571290970E0,-3.933800459E0,-1.253839016E0
1.948887516E0,-9.717252731E0,-3.859622955E0,-1.332802176E0
1.953642932E0,-9.913464546E0,-3.787838221E0,-1.418943882E0
1.958398349E0,-1.021496010E1,-3.732803345E0,-1.493121386E0
1.963153766E0,-9.169296265E0,-3.474378586E0,-1.134197950E0
1.967909234E0,-9.860821724E0,-3.529413462E0,-1.624726534E0
1.972664651E0,-1.084187984E1,-3.625126362E0,-2.177468538E0
1.977420068E0,-1.151426220E1,-3.591626883E0,-2.443071842E0
1.982175484E0,-1.164586735E1,-3.414557934E0,-2.634497643E0
1.986930901E0,-1.089212894E1,-3.285345554E0,-2.538784742E0
1.991686318E0,-1.021017456E1,-3.314059258E0,-2.502892494E0
1.996441734E0,-1.023649502E1,-3.426522017E0,-2.696711063E0
2.001197151E0,-1.038245773E1,-3.464807272E0,-2.711068153E0
2.005952568E0,-1.033938694E1,-3.393022537E0,-2.854637384E0
2.010707984E0,-1.025085258E1,-3.357130051E0,-3.048455954E0
2.015463401E0,-1.009053326E1,-3.263810158E0,-3.278167009E0
2.020218818E0,-9.994820595E0,-3.299702406E0,-3.328416348E0
2.024974234E0,-9.891928673E0,-3.404986620E0,-3.211168051E0
2.029729651E0,-9.722038269E0,-3.637090445E0,-3.139383316E0
2.034485120E0,-9.494720459E0,-3.871587038E0,-3.203989506E0
2.039240537E0,-9.269794464E0,-4.034298897E0,-3.369094372E0
2.043995953E0,-9.023334503E0,-4.130012035E0,-3.371487141E0
2.048751370E0,-8.915657043E0,-4.086941242E0,-3.455235958E0
2.053506787E0,-8.894122124E0,-4.029513359E0,-3.433700562E0
2.058262203E0,-8.956335068E0,-4.043870449E0,-3.419343472E0
2.063017620E0,-8.918049812E0,-4.103690624E0,-3.314059258E0
2.067773037E0,-8.906085968E0,-4.098905087E0,-3.302095175E0
2.072528453E0,-8.908478737E0,-4.127619267E0,-3.110669374E0
2.077283870E0,-8.846264839E0,-4.244867325E0,-2.914458036E0
2.082039287E0,-8.800801277E0,-4.275974274E0,-2.773281336E0
2.086794703E0,-8.786444664E0,-4.383651257E0,-2.560320139E0
2.091550172E0,-8.779266357E0,-4.575077057E0,-2.347358942E0
2.096305589E0,-8.772088051E0,-4.673182487E0,-2.189432621E0
2.101061005E0,-8.774480820E0,-4.651647091E0,-2.199003935E0
2.105816422E0,-8.688339233E0,-4.675575256E0,-2.153540373E0
2.110571839E0,-8.717052460E0,-4.716253281E0,-2.172683001E0
2.115327255E0,-8.695517540E0,-4.687539577E0,-2.208575249E0
2.120082672E0,-8.803194046E0,-4.529613495E0,-2.323430777E0
2.124838089E0,-8.851051331E0,-4.508078098E0,-2.210968018E0
2.129593505E0,-8.858229637E0,-4.376472473E0,-2.280359983E0
2.134348922E0,-9.008976936E0,-4.048655987E0,-2.478964329E0
2.139104339E0,-9.183652878E0,-3.895515203E0,-2.419143677E0
2.143859755E0,-9.250652313E0,-3.897907972E0,-2.335394859E0
2.148615224E0,-9.176474571E0,-3.890729666E0,-2.251646042E0
2.153370641E0,-9.030512810E0,-3.897907972E0,-2.055434704E0
2.158126057E0,-8.944371223E0,-3.917050600E0,-1.744367719E0
2.162881474E0,-8.913264275E0,-3.981656790E0,-1.483550072E0
2.167636891E0,-8.953942299E0,-4.187439442E0,-1.244267821E0
2.172392307E0,-8.920442581E0,-4.390829563E0,-1.095912814E0
2.177147724E0,-8.932407379E0,-4.443471432E0,-1.086341500E0
2.181903141E0,-9.054440498E0,-4.352544308E0,-1.196411371E0
2.186658557E0,-9.243474007E0,-4.194618225E0,-1.225125194E0
2.191413974E0,-9.343972206E0,-4.063013077E0,-1.301695466E0
2.196169391E0,-9.382257462E0,-3.888336897E0,-1.325623751E0
2.200924807E0,-9.566504478E0,-3.744767427E0,-1.476371527E0
2.205680224E0,-9.602396965E0,-3.739981890E0,-1.564906001E0
2.210435693E0,-9.655039787E0,-3.570091486E0,-1.823330879E0
2.215191109E0,-9.645467758E0,-3.428914785E0,-1.763510346E0
2.219946526E0,-9.528220177E0,-3.385843992E0,-1.706082582E0
2.224701943E0,-9.327222824E0,-3.431307554E0,-1.689332843E0
2.229457359E0,-9.174081802E0,-3.457628727E0,-1.713261008E0
2.234212776E0,-9.123832703E0,-3.364308596E0,-1.801795483E0
2.238968193E0,-9.255437851E0,-3.259024382E0,-1.773081541E0
2.243723609E0,-9.418149948E0,-3.129812002E0,-1.746760488E0
2.248479026E0,-9.274580956E0,-3.127419233E0,-1.794616938E0
2.253234443E0,-9.231510162E0,-3.323630571E0,-1.648654819E0
2.257989859E0,-9.047262192E0,-3.488735437E0,-1.459621787E0
2.262745276E0,-9.205188751E0,-3.481556892E0,-1.239482164E0
2.267500745E0,-9.303294182E0,-3.225524902E0,-1.256231904E0
2.272256162E0,-9.568898201E0,-2.950350285E0,-1.258624673E0
2.277011578E0,-9.698110580E0,-2.914458036E0,-1.253839016E0
2.281766995E0,-9.870393753E0,-2.883351326E0,-1.330409408E0
2.286522412E0,-9.942177773E0,-2.909672260E0,-1.454836130E0
2.291277828E0,-1.015992451E1,-2.770888567E0,-1.679761529E0
2.296033245E0,-1.035852909E1,-2.459821701E0,-1.801795483E0
2.300788662E0,-1.082273674E1,-1.741974831E0,-1.921436548E0
2.305544078E0,-1.240917778E1,-3.732803464E-1,-2.273181438E0
2.310299495E0,-1.334477234E1,-5.838487148E-1,-9.236295223E-1
2.315054912E0,-1.173200989E1,-3.972085714E-1,2.416750938E-1
2.319810380E0,-1.100937653E1,-1.411765337E0,-1.411765367E-1
2.324565797E0,-1.107637596E1,-3.046063185E0,-1.488335729E0
2.329321214E0,-1.010728264E1,-3.270988464E0,-2.043470621E0
2.334076630E0,-8.212167740E0,-2.651247501E0,-1.859223247E0
2.338832047E0,-7.601997375E0,-2.275574446E0,-2.055434704E0
2.343587464E0,-8.056633949E0,-2.017149448E0,-2.160718918E0
2.348342880E0,-8.470592499E0,-2.165504456E0,-2.385644197E0
2.353098297E0,-8.370093346E0,-2.000399828E0,-2.263610125E0
2.357853714E0,-8.941978455E0,-1.761117458E0,-2.268395901E0
2.362609130E0,-9.760323524E0,-1.318445325E0,-1.804188251E0
2.367364547E0,-1.016949654E1,-1.021735311E0,-1.308874011E0
2.372119964E0,-1.032024384E1,-9.140582681E-1,-9.188438654E-1
2.376875432E0,-1.052124119E1,-9.116654396E-1,-6.125625968E-1
2.381630849E0,-1.042074299E1,-1.119840980E0,-5.168496966E-1
2.386386266E0,-1.001396275E1,-1.459621787E0,-6.652047038E-1
2.391141682E0,-9.731609344E0,-1.763510346E0,-6.053841114E-1
2.395897099E0,-8.901300430E0,-2.122433662E0,-7.848458290E-1
2.400652516E0,-8.085348129E0,-2.663211584E0,-1.136590719E0
2.405407932E0,-7.154539585E0,-3.594019651E0,-1.560120344E0
2.410163349E0,-6.671189308E0,-4.242474556E0,-2.122433662E0
2.414918766E0,-6.357729912E0,-4.304687977E0,-2.471785784E0
2.419674234E0,-6.407979012E0,-3.938585997E0,-2.689532757E0
2.424429651E0,-6.668796539E0,-3.309273720E0,-2.790031195E0
2.429185068E0,-7.106683254E0,-2.924029350E0,-3.144168854E0
2.433940484E0,-7.523034573E0,-2.854637384E0,-3.278167009E0
2.438695901E0,-7.659425259E0,-2.687139750E0,-3.366701365E0
2.443451318E0,-7.489534855E0,-2.727817774E0,-3.273381472E0
2.448206734E0,-7.534998417E0,-2.811566591E0,-3.448057413E0
2.452962151E0,-7.695317745E0,-2.924029350E0,-3.553341627E0
2.457717568E0,-8.044670105E0,-2.842673302E0,-3.524627686E0
2.462472984E0,-8.587840080E0,-2.526820660E0,-3.543770313E0
2.467228401E0,-8.848658562E0,-2.404786825E0,-3.359523058E0
2.471983818E0,-9.188439369E0,-2.476571321E0,-3.242274761E0
2.476739287E0,-9.255437851E0,-1.978864312E0,-3.223132133E0
2.481494703E0,-9.748359680E0,-1.686939955E0,-2.974278450E0
2.486250120E0,-1.036092186E1,-1.866401672E0,-2.847458839E0
2.491005537E0,-1.005942631E1,-1.751546144E0,-2.507678032E0
2.495760953E0,-1.011206818E1,-1.533799291E0,-2.428714991E0
2.500516370E0,-1.024128056E1,-1.708475351E0,-2.467000246E0
2.505271787E0,-9.894321442E0,-1.820937991E0,-1.337587833E0
2.510027203E0,-1.003310490E1,-1.844866276E0,-2.237289190E0
2.514782620E0,-1.039681435E1,-1.521835208E0,-2.110469580E0
2.519538037E0,-1.057149029E1,-1.335195065E0,-2.275574446E0
2.524293505E0,-1.061456108E1,-1.275374413E0,-2.438286304E0
2.529048922E0,-1.071266651E1,-1.354337573E0,-2.352144718E0
2.533804339E0,-1.097348499E1,-1.454836130E0,-2.995813847E0
2.538559755E0,-1.081316566E1,-1.670190215E0,-3.239881754E0
2.543315172E0,-1.052363396E1,-1.751546144E0,-3.196810961E0
2.548070589E0,-1.013121128E1,-1.919043779E0,-3.098705292E0
2.552826005E0,-9.595218658E0,-1.916650891E0,-2.718246460E0
2.557581422E0,-9.286544800E0,-2.045863390E0,-2.993421078E0
2.562336839E0,-8.989834785E0,-2.160718918E0,-2.883351326E0
2.567092255E0,-8.609375954E0,-2.428714991E0,-3.117847919E0
2.571847724E0,-8.295916557E0,-2.579462767E0,-3.225524902E0
2.576603141E0,-8.097311974E0,-2.734996319E0,-3.448057413E0
2.581358557E0,-8.008777618E0,-2.778067112E0,-3.672982693E0
2.586113974E0,-7.953742504E0,-2.677568436E0,-3.735196114E0
2.590869391E0,-7.865208149E0,-2.677568436E0,-3.608376503E0
2.595624807E0,-7.795815945E0,-2.778067112E0,-3.361915827E0
2.600380224E0,-7.664210796E0,-2.933600664E0,-3.275774240E0
2.605135641E0,-7.420143127E0,-3.156133175E0,-3.105883837E0
2.609891057E0,-7.257431030E0,-3.292523861E0,-3.127419233E0
2.614646474E0,-7.207181931E0,-3.491128206E0,-3.055634499E0
2.619401891E0,-7.085147858E0,-3.548556089E0,-2.734996319E0
2.624157359E0,-7.089933395E0,-3.448057413E0,-2.304288149E0
2.628912776E0,-6.967899323E0,-3.297309637E0,-2.481357098E0
2.633668193E0,-7.133004189E0,-2.868994236E0,-2.316252232E0
2.638423609E0,-7.044469833E0,-2.883351326E0,-2.976671457E0
2.643179026E0,-6.824330330E0,-2.749353170E0,-3.294916868E0
2.647934443E0,-6.398407936E0,-2.677568436E0,-3.419343472E0
2.652689859E0,-6.211767673E0,-2.675175667E0,-3.665804386E0
2.657445276E0,-6.130411625E0,-2.519642353E0,-3.919443607E0
2.662200693E0,-6.197410583E0,-2.519642353E0,-4.144368649E0
2.666956162E0,-6.302694798E0,-2.354537487E0,-4.165904045E0
2.671711578E0,-6.319444656E0,-2.263610125E0,-3.632304668E0
2.676466995E0,-6.307480335E0,-2.249253273E0,-3.672982693E0
2.681222412E0,-6.269195557E0,-2.622533560E0,-3.912265062E0
2.685977828E0,-6.202196121E0,-2.457428932E0,-2.981456995E0
2.690733245E0,-6.532405853E0,-2.502892494E0,-3.091526747E0
2.695488662E0,-7.140182972E0,-2.873780012E0,-3.754338741E0
2.700244078E0,-7.702496052E0,-2.801995277E0,-2.687139750E0
2.704999495E0,-8.420342445E0,-2.715853691E0,-2.543570518E0
2.709754912E0,-9.075976372E0,-2.426322222E0,-2.074577332E0
2.714510328E0,-9.743574142E0,-2.299502611E0,-2.199003935E0
2.719265797E0,-1.070788097E1,-2.184647083E0,-2.462214470E0
2.724021214E0,-1.115055370E1,-2.433500528E0,-2.404786825E0
2.728776630E0,-1.163151073E1,-2.603390932E0,-2.469393015E0
2.733532047E0,-1.211246777E1,-2.660818815E0,-2.713460922E0
2.738287464E0,-1.257188988E1,-2.617748022E0,-2.775674343E0
2.743042880E0,-1.263649654E1,-2.536391973E0,-3.354737282E0
2.747798297E0,-1.253121185E1,-2.433500528E0,-3.371487141E0
2.752553714E0,-1.203350544E1,-2.517249346E0,-3.505485058E0
2.757309130E0,-1.140180016E1,-2.809173822E0,-3.026920557E0
2.762064547E0,-1.097348499E1,-3.223132133E0,-3.096312523E0
2.766820016E0,-1.086820030E1,-3.548556089E0,-3.103491068E0
2.771575432E0,-1.060499001E1,-3.893122435E0,-3.215953588E0
2.776330849E0,-1.012881851E1,-4.132404804E0,-3.103491068E0
2.781086266E0,-9.690931320E0,-4.316651821E0,-3.031706333E0
2.785841682E0,-9.635896683E0,-4.488935471E0,-3.048455954E0
2.790597099E0,-9.717252731E0,-4.771288395E0,-3.029313564E0
2.795352516E0,-9.676574707E0,-4.883750916E0,-3.062813044E0
2.800107932E0,-9.499505997E0,-4.902893543E0,-3.134597778E0
2.804863349E0,-9.107083321E0,-5.027320385E0,-3.093919754E0
2.809618766E0,-8.798408508E0,-5.158925533E0,-3.278167009E0
2.814374234E0,-8.982656479E0,-6.302694798E0,-4.362115860E0
2.819129651E0,-8.336593628E0,-6.202196121E0,-3.266202927E0
2.823885068E0,-7.879564762E0,-6.025127411E0,-2.947957516E0
2.828640484E0,-7.757531166E0,-5.974878311E0,-2.806781054E0
2.833395901E0,-8.037490845E0,-6.003592014E0,-2.935993433E0
2.838151318E0,-8.394021988E0,-6.025127411E0,-3.048455954E0
2.842906734E0,-8.685946465E0,-5.991627693E0,-3.136990547E0
2.847662151E0,-8.877371788E0,-5.831308842E0,-3.189632654E0
2.852417568E0,-8.657232285E0,-5.601597786E0,-3.139383316E0
2.857172984E0,-8.130811691E0,-5.022534847E0,-2.383251429E0
2.861928453E0,-7.781459332E0,-4.675575256E0,-2.696711063E0
2.866683870E0,-7.939385414E0,-4.754538536E0,-3.242274761E0
2.871439287E0,-8.173882484E0,-5.015356064E0,-3.613162279E0
2.876194703E0,-8.425128937E0,-5.111069202E0,-3.701696634E0
2.880950120E0,-9.090332985E0,-3.842873096E0,-3.893122435E0
2.885705537E0,-8.310273170E0,-4.182653904E0,-3.708875179E0
2.890460953E0,-7.714460373E0,-4.601397991E0,-3.488735437E0
2.895216370E0,-7.384250641E0,-5.290530682E0,-3.397808075E0
2.899971787E0,-7.580461979E0,-6.039484501E0,-3.567698479E0
2.904727255E0,-8.181060791E0,-5.953342915E0,-4.173082829E0
2.909482672E0,-8.779266357E0,-4.773681164E0,-4.192225456E0
2.914238089E0,-8.188239098E0,-4.529613495E0,-3.663411379E0
2.918993505E0,-7.446464062E0,-4.278367043E0,-2.964707375E0
2.923748922E0,-6.912864685E0,-4.493721008E0,-2.519642353E0
2.928504339E0,-7.034898758E0,-4.819144726E0,-2.809173822E0
2.933259755E0,-7.068397999E0,-5.123033047E0,-2.931207657E0
2.938015172E0,-7.271788120E0,-5.242674351E0,-2.316252232E0
2.942770589E0,-7.530212879E0,-5.240281582E0,-2.191825628E0
2.947526005E0,-7.487142086E0,-5.326423168E0,-2.478964329E0
2.952281474E0,-7.367500782E0,-5.314459324E0,-2.682354212E0
2.957036891E0,-7.527820110E0,-5.156532764E0,-2.885744095E0
2.961792307E0,-7.408178806E0,-4.936393261E0,-2.828316450E0
2.966547724E0,-7.566105366E0,-4.778466702E0,-2.696711063E0
2.971303141E0,-7.659425259E0,-4.685146809E0,-2.790031195E0
2.976058557E0,-7.549355507E0,-4.596612453E0,-2.821137905E0
2.980813974E0,-7.508677483E0,-4.455435753E0,-2.950350285E0
2.985569391E0,-7.412964344E0,-4.264009953E0,-3.000599623E0
2.990324807E0,-7.322037220E0,-4.197010994E0,-3.311666489E0
2.995080276E0,-7.015756130E0,-4.185046673E0,-3.488735437E0
2.999835693E0,-6.781259537E0,-4.244867325E0,-3.651447296E0
3.004591109E0,-6.664011002E0,-4.273581028E0,-3.814159393E0
3.009346526E0,-6.611369133E0,-4.543970108E0,-3.996013880E0
3.014101943E0,-6.534798622E0,-4.615755081E0,-3.890729666E0
3.018857359E0,-6.271588326E0,-4.634897232E0,-3.859622955E0
3.023612776E0,-6.262016773E0,-4.924428940E0,-3.986442566E0
3.028368193E0,-6.372086525E0,-5.065605640E0,-3.823730469E0
3.033123609E0,-6.740581512E0,-5.106283665E0,-3.854837179E0
3.037879026E0,-7.144968510E0,-5.230710506E0,-3.795016766E0
3.042634495E0,-7.592426300E0,-5.560919762E0,-3.555734396E0
3.047389912E0,-8.104490280E0,-5.711667538E0,-3.378665686E0
3.052145328E0,-8.671588898E0,-5.869594097E0,-3.290131092E0
3.056900745E0,-9.592825890E0,-5.410171986E0,-3.579662561E0
3.061656162E0,-9.858428955E0,-5.754738331E0,-3.663411379E0
3.066411578E0,-9.686145782E0,-5.958128452E0,-3.567698479E0
3.071166995E0,-9.518648148E0,-6.398407936E0,-3.290131092E0
3.075922412E0,-8.606983185E0,-6.656832695E0,-3.041277647E0
3.080677880E0,-7.707281590E0,-6.652047157E0,-3.125026464E0
3.085433245E0,-7.044469833E0,-6.582654953E0,-3.541377544E0
3.090188714E0,-6.678368092E0,-6.407979012E0,-3.778266907E0
3.094944130E0,-6.463014126E0,-6.252445698E0,-3.720839262E0
3.099699547E0,-6.302694798E0,-6.072983742E0,-3.601198196E0
3.104454964E0,-6.061019897E0,-5.955735683E0,-3.481556892E0
3.109210380E0,-5.864808083E0,-5.800201893E0,-3.510270834E0
3.113965797E0,-5.974878311E0,-5.280959606E0,-3.541377544E0
3.118721214E0,-5.761917114E0,-5.276174068E0,-3.050848961E0
3.123476630E0,-5.393422127E0,-5.472385406E0,-2.866601467E0
3.128232047E0,-5.063212872E0,-5.666203976E0,-2.828316450E0
3.132987516E0,-4.945964336E0,-6.027520180E0,-2.876172781E0
3.137742932E0,-5.003392220E0,-6.259624004E0,-3.053241730E0
3.142498349E0,-5.448457241E0,-6.001199245E0,-3.321237803E0
3.147253766E0,-5.989234924E0,-5.615954876E0,-3.306880951E0
3.152009182E0,-6.063412666E0,-5.757131100E0,-2.971885681E0
3.156764599E0,-6.022734642E0,-5.857629776E0,-2.919243574E0
3.161520016E0,-6.159125328E0,-5.807380676E0,-2.825923443E0
3.166275432E0,-6.384050846E0,-5.778666496E0,-2.730210543E0
3.171030849E0,-6.465406895E0,-5.826523304E0,-2.830709219E0
3.175786318E0,-6.412764549E0,-5.850451469E0,-3.115455151E0
3.180541734E0,-6.290730953E0,-5.938985825E0,-3.383451223E0
3.185297151E0,-6.226124287E0,-5.974878311E0,-3.574877024E0
3.190052568E0,-6.278766632E0,-6.053841114E0,-3.562912941E0
3.194807984E0,-6.329015732E0,-6.187839508E0,-3.519842148E0
3.199563401E0,-6.412764549E0,-6.317051888E0,-3.491128206E0
3.204318818E0,-6.513263226E0,-6.498906136E0,-3.419343472E0
3.209074234E0,-6.597012043E0,-6.668796539E0,-3.421736479E0
3.213829703E0,-6.680760860E0,-6.819544315E0,-3.464807272E0
3.218585120E0,-6.668796539E0,-6.946363926E0,-3.438486099E0
3.223340537E0,-6.659225464E0,-7.073183537E0,-3.412165165E0
3.228095953E0,-6.608976364E0,-7.188039303E0,-3.445664644E0
3.232851370E0,-6.486942291E0,-7.312466145E0,-3.507878065E0
3.237606787E0,-6.391229153E0,-7.453642368E0,-3.603590965E0
3.242362203E0,-6.185446739E0,-7.731209755E0,-3.672982693E0
3.247117620E0,-6.037091732E0,-8.039883614E0,-3.759124279E0
3.251873037E0,-6.001199245E0,-8.286344528E0,-3.885943890E0
3.256628453E0,-6.051448345E0,-8.274380684E0,-3.936193228E0
3.261383922E0,-6.070590973E0,-8.193024635E0,-3.818944931E0
3.266139339E0,-6.027520180E0,-8.181060791E0,-3.799802303E0
3.270894755E0,-5.979663849E0,-8.145168304E0,-3.759124279E0
3.275650172E0,-5.891129494E0,-8.183453560E0,-3.773481369E0
3.280405589E0,-5.828916073E0,-8.233702660E0,-3.783052683E0
3.285161005E0,-5.737988472E0,-8.329415321E0,-3.778266907E0
3.289916422E0,-5.711667538E0,-8.417949677E0,-3.701696634E0
3.294671839E0,-5.709274769E0,-8.595019341E0,-3.668197155E0
3.299427255E0,-5.706882000E0,-8.882157326E0,-3.701696634E0
3.304182672E0,-5.855237007E0,-8.968298912E0,-3.668197155E0
3.308938141E0,-5.958128452E0,-8.906085968E0,-3.739981890E0
3.313693557E0,-6.072983742E0,-8.750552177E0,-3.806980848E0
3.318448974E0,-6.211767673E0,-8.740981102E0,-3.842873096E0
3.323204391E0,-6.156732559E0,-8.695517540E0,-4.017549038E0
3.327959807E0,-5.663811207E0,-7.781459332E0,-3.852444410E0
3.332715224E0,-5.575276852E0,-6.982256413E0,-3.773481369E0
3.337470641E0,-5.773880959E0,-6.776473522E0,-3.917050600E0
3.342226057E0,-5.998806477E0,-6.922435760E0,-3.972085476E0
3.346981474E0,-6.063412666E0,-7.121040344E0,-4.015156269E0
3.351736891E0,-6.022734642E0,-7.228717327E0,-3.996013880E0
3.356492359E0,-5.903093338E0,-7.192824841E0,-3.996013880E0
3.361247776E0,-5.800201893E0,-7.018148899E0,-3.687339783E0
3.366003193E0,-5.802595139E0,-6.530013084E0,-3.572484255E0
3.370758609E0,-5.826523304E0,-6.412764549E0,-3.555734396E0
3.375514026E0,-5.893522263E0,-6.340980053E0,-3.670589924E0
3.380269443E0,-5.883950710E0,-6.369693756E0,-3.617947817E0
3.385024859E0,-5.833701611E0,-6.419943333E0,-3.579662561E0
3.389780276E0,-5.761917114E0,-6.439085960E0,-3.555734396E0
3.394535693E0,-5.752345562E0,-6.362515450E0,-3.543770313E0
3.399291162E0,-5.682953835E0,-6.230910301E0,-3.668197155E0
3.404046578E0,-5.587240696E0,-6.104090691E0,-3.799802303E0
3.408801995E0,-5.601597786E0,-6.003592014E0,-3.852444410E0
3.413557412E0,-5.649454117E0,-5.922235966E0,-3.806980848E0
3.418312828E0,-5.704489231E0,-5.838487148E0,-3.742374659E0
3.423068245E0,-5.781059742E0,-5.778666496E0,-3.663411379E0
3.427823662E0,-5.838487148E0,-5.718846321E0,-3.627519131E0
3.432579078E0,-5.874379635E0,-5.721239090E0,-3.747160196E0
3.437334495E0,-5.900700569E0,-5.666203976E0,-3.790230989E0
3.442089912E0,-5.986842155E0,-5.592026711E0,-3.766302824E0
3.446845380E0,-6.068198204E0,-5.560919762E0,-3.728017569E0
3.451600797E0,-6.082555294E0,-5.580062389E0,-3.706482172E0
3.456356214E0,-6.061019897E0,-5.596812248E0,-3.644268990E0
3.461111630E0,-6.039484501E0,-5.544169903E0,-3.649054527E0
3.465867047E0,-5.955735683E0,-5.508277893E0,-3.646661758E0
3.470622464E0,-5.855237007E0,-5.472385406E0,-3.649054527E0
3.475377880E0,-5.749952793E0,-5.455635548E0,-3.625126362E0
3.480133297E0,-5.635097504E0,-5.508277893E0,-3.704089403E0
3.484888714E0,-5.599205017E0,-5.596812248E0,-3.787838221E0
3.489644130E0,-5.615954876E0,-5.548955917E0,-3.802195072E0
3.494399599E0,-5.515456200E0,-5.572884083E0,-3.795016766E0
3.499155016E0,-5.479563713E0,-5.551348686E0,-3.744767427E0
3.503910432E0,-5.434100151E0,-5.525027275E0,-3.718446493E0
3.508665849E0,-5.395814896E0,-5.515456200E0,-3.718446493E0
3.513421266E0,-5.381458282E0,-5.575276852E0,-3.739981890E0
3.518176682E0,-5.343173027E0,-5.618347645E0,-3.802195072E0
3.522932099E0,-5.359922886E0,-5.656632900E0,-3.778266907E0
3.527687516E0,-5.324030399E0,-5.690132141E0,-3.716053486E0
3.532442932E0,-5.300102234E0,-5.711667538E0,-3.725624800E0
3.537198349E0,-5.259424210E0,-5.726024628E0,-3.735196114E0
3.541953818E0,-5.245067120E0,-5.747560024E0,-3.704089403E0
3.546709234E0,-5.213960648E0,-5.785845280E0,-3.783052683E0
3.551464651E0,-5.170889854E0,-5.843272686E0,-3.790230989E0
3.556220068E0,-5.118247509E0,-5.826523304E0,-3.646661758E0
3.560975484E0,-5.060820103E0,-5.879165173E0,-3.608376503E0
3.565730901E0,-4.967499733E0,-5.948556900E0,-3.708875179E0
3.570486318E0,-4.838287354E0,-6.020341873E0,-3.689732552E0
3.575241734E0,-4.704289436E0,-6.092126369E0,-3.689732552E0
3.579997151E0,-4.567898273E0,-6.139982700E0,-3.500699520E0
3.584752568E0,-4.520041943E0,-6.209374905E0,-3.400201082E0
3.589508037E0,-4.517649174E0,-6.290730953E0,-3.483949661E0
3.594263453E0,-4.491328239E0,-6.398407936E0,-3.565305710E0
3.599018870E0,-4.359723091E0,-6.515655994E0,-3.653840065E0
3.603774287E0,-4.309473515E0,-6.659225464E0,-3.622733593E0
3.608529703E0,-4.240081787E0,-6.766902447E0,-3.728017569E0
3.613285120E0,-4.185046673E0,-6.936792850E0,-3.816552162E0
3.618040537E0,-4.208974838E0,-7.183253765E0,-3.933800459E0
3.622795953E0,-4.266402721E0,-7.408178806E0,-3.859622955E0
3.627551370E0,-4.331008911E0,-7.599604607E0,-3.708875179E0
3.632306787E0,-4.402793884E0,-7.824530125E0,-3.699303865E0
3.637062255E0,-4.512863636E0,-8.066205025E0,-3.716053486E0
3.641817672E0,-4.551148891E0,-8.331808090E0,-3.730410576E0
3.646573089E0,-4.615755081E0,-8.618947029E0,-3.771088600E0
3.651328505E0,-4.680361271E0,-8.877371788E0,-3.806980848E0
3.656083922E0,-4.713860512E0,-9.135796547E0,-3.854837179E0
3.660839339E0,-4.673182487E0,-9.391828537E0,-3.912265062E0
3.665594755E0,-4.644468784E0,-9.607182503E0,-3.914657831E0
3.670350172E0,-4.649254322E0,-9.846465111E0,-3.957728624E0
3.675105589E0,-4.622933388E0,-1.006899738E1,-4.005585194E0
3.679861005E0,-4.599005222E0,-1.026760197E1,-4.053441525E0
3.684616474E0,-4.608576298E0,-1.042792130E1,-4.101297855E0
3.689371891E0,-4.603790760E0,-1.054277611E1,-4.106083870E0
3.694127307E0,-4.622933388E0,-1.069830990E1,-4.206582069E0
3.698882724E0,-4.644468784E0,-1.078445148E1,-4.275974274E0
3.703638141E0,-4.668396950E0,-1.085862923E1,-4.280759811E0
3.708393557E0,-4.694717884E0,-1.092802143E1,-4.326223373E0
3.713148974E0,-4.756931305E0,-1.094237804E1,-4.354937077E0
3.717904391E0,-4.852644444E0,-1.096869946E1,-4.369294167E0
3.722659807E0,-4.934000492E0,-1.097348499E1,-4.345366001E0
3.727415276E0,-5.000999451E0,-1.093998528E1,-4.331008911E0
3.732170693E0,-5.096712112E0,-1.087298584E1,-4.302295208E0
3.736926109E0,-5.197210789E0,-1.074855900E1,-4.268795490E0
3.741681526E0,-5.357530117E0,-1.064327526E1,-4.223331928E0
3.746436943E0,-5.347958565E0,-1.055474091E1,-4.220939159E0
3.751192359E0,-5.309673309E0,-1.037049294E1,-4.321437836E0
3.755947776E0,-5.563312531E0,-9.511469841E0,-4.283152580E0
3.760703193E0,-5.359922886E0,-8.508877754E0,-4.031906128E0
3.765458609E0,-5.000999451E0,-7.953742504E0,-3.835694790E0
3.770214026E0,-4.589433670E0,-7.781459332E0,-3.809373617E0
3.774969495E0,-4.350151539E0,-7.812565804E0,-3.862015724E0
3.779724912E0,-4.347758770E0,-7.819744587E0,-3.895515203E0
3.784480328E0,-4.433900356E0,-7.843672752E0,-3.917050600E0
3.789235745E0,-4.481756687E0,-7.826922894E0,-3.926621914E0
3.793991162E0,-4.462614059E0,-7.893921852E0,-3.893122435E0
3.798746578E0,-4.342973232E0,-7.960920811E0,-3.888336897E0
3.803501995E0,-4.299902439E0,-7.989634991E0,-3.890729666E0
3.808257412E0,-4.297509670E0,-7.994420528E0,-3.905086517E0
3.813012828E0,-4.249652863E0,-7.929814339E0,-3.914657831E0
3.817768245E0,-4.304687977E0,-7.764709473E0,-3.811766386E0
3.822523714E0,-4.335794449E0,-7.881958008E0,-3.773481369E0
3.827279130E0,-4.340580463E0,-7.987242222E0,-3.804588079E0
3.832034547E0,-4.292723656E0,-8.008777618E0,-3.897907972E0
3.836789964E0,-4.287938118E0,-7.994420528E0,-3.964907169E0
3.841545380E0,-4.307080746E0,-7.963313580E0,-4.017549038E0
3.846300797E0,-4.342973232E0,-7.884350777E0,-4.015156269E0
3.851056214E0,-4.450650215E0,-7.724031448E0,-4.039084435E0
3.855811630E0,-4.436293125E0,-7.776673794E0,-4.046263218E0
3.860567047E0,-4.393222332E0,-7.896314621E0,-4.017549038E0
3.865322464E0,-4.510470867E0,-7.824530125E0,-4.010370731E0
3.870077932E0,-4.555934429E0,-7.819744587E0,-3.972085476E0
3.874833349E0,-4.601397991E0,-7.889136314E0,-3.933800459E0
3.879588766E0,-3.885943890E0,-7.393822193E0,-3.483949661E0
3.884344182E0,-4.290330887E0,-7.365108013E0,-3.548556089E0
3.889099599E0,-4.302295208E0,-7.379465103E0,-3.751945972E0
3.893855016E0,-4.247260094E0,-7.398607731E0,-3.790230989E0
3.898610432E0,-4.268795490E0,-7.377072334E0,-3.818944931E0
3.903365849E0,-4.307080746E0,-7.432106972E0,-3.869194269E0
3.908121266E0,-4.333401680E0,-7.484749317E0,-3.888336897E0
3.912876682E0,-4.283152580E0,-7.463213921E0,-3.859622955E0
3.917632151E0,-4.230510235E0,-7.456035137E0,-3.842873096E0
3.922387568E0,-4.201796532E0,-7.448856831E0,-3.804588079E0
3.927142984E0,-4.208974838E0,-7.362715244E0,-3.802195072E0
3.931898401E0,-4.151547432E0,-7.345965385E0,-3.766302824E0
3.936653818E0,-4.070191383E0,-7.338787079E0,-3.744767427E0
3.941409234E0,-3.986442566E0,-7.324429989E0,-3.739981890E0
3.946164651E0,-3.878765583E0,-7.348358154E0,-3.701696634E0
3.950920068E0,-3.775874138E0,-7.379465103E0,-3.680161238E0
3.955675484E0,-3.692125320E0,-7.343572617E0,-3.694518089E0
3.960430901E0,-3.677768469E0,-7.286144733E0,-3.718446493E0
3.965186318E0,-3.661018610E0,-7.252645493E0,-3.754338741E0
3.969941787E0,-3.653840065E0,-7.202396393E0,-3.790230989E0
3.974697203E0,-3.553341627E0,-7.176074982E0,-3.783052683E0
3.979452620E0,-3.491128206E0,-7.156932354E0,-3.751945972E0
3.984208037E0,-3.366701365E0,-7.176074982E0,-3.723232031E0
3.988963453E0,-3.270988464E0,-7.195217609E0,-3.689732552E0
3.993718870E0,-3.110669374E0,-7.250252724E0,-3.649054527E0
3.998474287E0,-3.041277647E0,-7.185646534E0,-3.646661758E0
4.003229703E0,-2.945564747E0,-7.089933395E0,-3.665804386E0
4.007985120E0,-2.900100946E0,-7.015756130E0,-3.649054527E0
4.012740537E0,-2.866601467E0,-6.903293133E0,-3.637090445E0
4.017496005E0,-2.773281336E0,-6.778866768E0,-3.582055569E0
4.022251422E0,-2.754138947E0,-6.642475605E0,-3.577269793E0
4.027006839E0,-2.706282377E0,-6.530013084E0,-3.543770313E0
4.031762255E0,-2.658426046E0,-6.429514408E0,-3.464807272E0
4.036517672E0,-2.648854733E0,-6.352943897E0,-3.457628727E0
4.041273089E0,-2.632104874E0,-6.307480335E0,-3.421736479E0
4.046028505E0,-2.543570518E0,-6.285944939E0,-3.342773199E0
4.050783922E0,-2.467000246E0,-6.293123722E0,-3.297309637E0
4.055539339E0,-2.313859463E0,-6.355337143E0,-3.242274761E0
4.060294755E0,-2.122433662E0,-6.372086525E0,-3.237488985E0
4.065050172E0,-1.974078655E0,-6.391229153E0,-3.211168051E0
4.069805641E0,-1.931007862E0,-6.384050846E0,-3.232703447E0
4.074561057E0,-1.971685886E0,-6.338587284E0,-3.251846075E0
4.079316474E0,-1.919043779E0,-6.340980053E0,-3.275774240E0
4.084071891E0,-1.921436548E0,-6.352943897E0,-3.225524902E0
4.088827307E0,-1.897508383E0,-6.403193474E0,-3.160918713E0
4.093582724E0,-1.883151412E0,-6.522834301E0,-3.046063185E0
4.098338141E0,-1.978864312E0,-6.946363926E0,-2.947957516E0
4.103093557E0,-2.076970100E0,-7.563712597E0,-2.924029350E0
4.107848974E0,-2.048256159E0,-8.571090698E0,-3.053241730E0
4.112604391E0,-2.287538528E0,-9.896714211E0,-3.337987661E0
4.117359807E0,-3.060420275E0,-1.155254745E1,-3.854837179E0
4.122115276E0,-3.876372576E0,-1.335673618E1,-4.273581028E0
4.126870693E0,-4.445864677E0,-1.515613842E1,-4.381258488E0
4.131626109E0,-4.733003139E0,-1.657986832E1,-4.168296814E0
4.136381526E0,-4.785645485E0,-1.753460503E1,-3.675375462E0
4.141136943E0,-4.673182487E0,-1.798206139E1,-3.165704250E0
4.145892359E0,-4.438685894E0,-1.809213257E1,-2.952743053E0
4.150647776E0,-3.799802303E0,-1.777149391E1,-2.880958557E0
4.155403193E0,-2.672782898E0,-1.674975777E1,-2.986242771E0
4.160158609E0,-1.378265858E0,-1.504367638E1,-3.170490026E0
4.164914026E0,-6.484549642E-1,-1.308873940E1,-3.232703447E0
4.169669495E0,-4.163511395E-1,-1.131565857E1,-3.261417150E0
4.174424912E0,-4.354937077E-1,-9.946963310E0,-3.261417150E0
4.179180328E0,-6.077769399E-1,-8.961120605E0,-3.280559778E0
4.183935745E0,-9.068797827E-1,-8.334200859E0,-3.335594654E0
4.188691162E0,-1.265803218E0,-8.049455643E0,-3.419343472E0
4.193446578E0,-1.708475351E0,-7.953742504E0,-3.483949661E0
4.198201995E0,-2.194218397E0,-7.963313580E0,-3.543770313E0
4.202957412E0,-2.605783939E0,-8.023134232E0,-3.550948858E0
4.207712828E0,-2.945564747E0,-8.073383331E0,-3.483949661E0
4.212468245E0,-3.125026464E0,-8.090133667E0,-3.433700562E0
4.217223662E0,-3.177668571E0,-8.094919205E0,-3.378665686E0
4.221979130E0,-3.089133978E0,-8.123632431E0,-3.335594654E0
4.226734547E0,-2.902493954E0,-8.164310455E0,-3.304488182E0
4.231489964E0,-2.713460922E0,-8.279166222E0,-3.294916868E0
4.236245380E0,-2.533999205E0,-8.379665375E0,-3.282952785E0
4.241000797E0,-2.409572363E0,-8.487341881E0,-3.270988464E0
4.245756214E0,-2.354537487E0,-8.630910873E0,-3.247060299E0
4.250511630E0,-2.318645239E0,-8.717052460E0,-3.235096216E0
4.255267047E0,-2.333002090E0,-8.798408508E0,-3.201596737E0
4.260022464E0,-2.390429735E0,-8.846264839E0,-3.177668571E0
4.264777932E0,-2.428714991E0,-8.918049812E0,-3.175275564E0
4.269533349E0,-2.452643156E0,-8.930013657E0,-3.196810961E0
4.274288766E0,-2.467000246E0,-8.918049812E0,-3.218346357E0
4.279044182E0,-2.507678032E0,-8.882157326E0,-3.242274761E0
4.283799599E0,-2.557927370E0,-8.843872070E0,-3.266202927E0
4.288555016E0,-2.596212626E0,-8.781659126E0,-3.280559778E0
4.293310432E0,-2.620140791E0,-8.740981102E0,-3.302095175E0
4.298065849E0,-2.677568436E0,-8.688339233E0,-3.335594654E0
4.302821266E0,-2.739781857E0,-8.652446747E0,-3.316452265E0
4.307576682E0,-2.756531715E0,-8.673981667E0,-3.302095175E0
4.312332099E0,-2.746960402E0,-8.791230202E0,-3.316452265E0
4.317087568E0,-2.701496840E0,-8.906085968E0,-3.311666489E0
4.321842984E0,-2.746960402E0,-8.932407379E0,-3.282952785E0
4.326598401E0,-2.792423964E0,-8.884550095E0,-3.294916868E0
4.331353818E0,-2.804388046E0,-8.877371788E0,-3.318845034E0
4.336109234E0,-2.632104874E0,-9.078369141E0,-3.239881754E0
4.340864651E0,-2.478964329E0,-9.157332420E0,-3.223132133E0
4.345620068E0,-2.354537487E0,-9.231510162E0,-3.337987661E0
4.350375484E0,-2.225325108E0,-9.367900848E0,-3.421736479E0
4.355130901E0,-2.182254314E0,-9.389435768E0,-3.471985579E0
4.359886318E0,-2.390429735E0,-9.209974289E0,-3.474378586E0
4.364641787E0,-2.608176708E0,-9.054440498E0,-3.464807272E0
4.369397203E0,-2.785245657E0,-8.925228119E0,-3.455235958E0
4.374152620E0,-2.873780012E0,-8.843872070E0,-3.448057413E0
4.378908037E0,-2.864208698E0,-8.767302513E0,-3.438486099E0
4.383663453E0,-2.943171740E0,-8.693124771E0,-3.371487141E0
4.388418870E0,-2.959921598E0,-8.604590416E0,-3.354737282E0
4.393174287E0,-2.737389088E0,-8.611768723E0,-3.364308596E0
4.397929703E0,-2.383251429E0,-8.580661774E0,-3.373879910E0
4.402685120E0,-2.141576290E0,-8.568697929E0,-3.361915827E0
4.407440537E0,-1.976471543E0,-8.688339233E0,-3.412165165E0
4.412196005E0,-1.962114573E0,-8.846264839E0,-3.558127165E0
4.416951422E0,-2.134397745E0,-8.913264275E0,-3.639483213E0
4.421706839E0,-2.282752752E0,-8.913264275E0,-3.639483213E0
4.426462255E0,-2.421536446E0,-9.006584167E0,-3.577269793E0
4.431217672E0,-2.548356056E0,-9.121439934E0,-3.507878065E0
4.435973089E0,-2.634497643E0,-9.202795982E0,-3.436093330E0
4.440728505E0,-2.742174864E0,-9.205188751E0,-3.412165165E0
4.445483922E0,-2.830709219E0,-9.162117958E0,-3.366701365E0
4.450239339E0,-2.955136061E0,-9.126225471E0,-3.361915827E0
4.454994807E0,-3.017349243E0,-9.064012527E0,-3.345165968E0
4.459750224E0,-3.091526747E0,-9.006584167E0,-3.314059258E0
4.464505641E0,-3.175275564E0,-8.956335068E0,-3.287738323E0
4.469261057E0,-3.239881754E0,-8.894122124E0,-3.285345554E0
4.474016474E0,-3.282952785E0,-8.855836868E0,-3.280559778E0
4.478771891E0,-3.328416348E0,-8.807980537E0,-3.294916868E0
4.483527307E0,-3.349951744E0,-8.760123253E0,-3.330809116E0
4.488282724E0,-3.359523058E0,-8.743373871E0,-3.366701365E0
4.493038141E0,-3.347558975E0,-8.702695847E0,-3.404986620E0
4.497793557E0,-3.311666489E0,-8.678768158E0,-3.431307554E0
4.502549026E0,-3.318845034E0,-8.659625053E0,-3.483949661E0
4.507304443E0,-3.292523861E0,-8.621339798E0,-3.491128206E0
4.512059859E0,-3.278167009E0,-8.611768723E0,-3.486342669E0
4.516815276E0,-3.275774240E0,-8.599804878E0,-3.467200041E0
4.521570693E0,-3.242274761E0,-8.611768723E0,-3.469592810E0
4.526326109E0,-3.242274761E0,-8.606983185E0,-3.464807272E0
4.531081526E0,-3.232703447E0,-8.597412109E0,-3.469592810E0
4.535836943E0,-3.206382275E0,-8.621339798E0,-3.457628727E0
4.540592359E0,-3.201596737E0,-8.602197647E0,-3.450450182E0
4.545347776E0,-3.211168051E0,-8.611768723E0,-3.445664644E0
4.550103193E0,-3.213560820E0,-8.602197647E0,-3.424129248E0
4.554858662E0,-3.206382275E0,-8.568697929E0,-3.421736479E0
4.559614078E0,-3.225524902E0,-8.559126854E0,-3.419343472E0
4.564369495E0,-3.227917671E0,-8.544769287E0,-3.426522017E0
4.569124912E0,-3.244667530E0,-8.532805443E0,-3.421736479E0
4.573880328E0,-3.259024382E0,-8.520841599E0,-3.419343472E0
4.578635745E0,-3.273381472E0,-8.537590981E0,-3.414557934E0
4.583391162E0,-3.270988464E0,-8.511270523E0,-3.397808075E0
4.588146578E0,-3.290131092E0,-8.508877754E0,-3.373879910E0
4.592901995E0,-3.285345554E0,-8.499305725E0,-3.385843992E0
4.597657464E0,-3.280559778E0,-8.513663292E0,-3.364308596E0
4.602412880E0,-3.290131092E0,-8.520841599E0,-3.361915827E0
4.607168297E0,-3.282952785E0,-8.506484032E0,-3.376272678E0
4.611923714E0,-3.282952785E0,-8.513663292E0,-3.376272678E0
4.616679130E0,-3.278167009E0,-8.523234367E0,-3.373879910E0
4.621434547E0,-3.278167009E0,-8.547162056E0,-3.388236761E0
4.626189964E0,-3.261417150E0,-8.554341316E0,-3.397808075E0
4.630945380E0,-3.282952785E0,-8.539983749E0,-3.414557934E0
4.635700797E0,-3.282952785E0,-8.563912392E0,-3.433700562E0
4.640456266E0,-3.287738323E0,-8.566305161E0,-3.443271875E0
4.645211682E0,-3.290131092E0,-8.580661774E0,-3.457628727E0
4.649967099E0,-3.297309637E0,-8.554341316E0,-3.476771355E0
4.654722516E0,-3.337987661E0,-8.563912392E0,-3.498306751E0
4.659477932E0,-3.335594654E0,-8.585447311E0,-3.493520975E0
4.664233349E0,-3.349951744E0,-8.585447311E0,-3.519842148E0
4.668988766E0,-3.366701365E0,-8.583054543E0,-3.512663603E0
4.673744182E0,-3.357130051E0,-8.580661774E0,-3.519842148E0
4.678499651E0,-3.335594654E0,-8.595019341E0,-3.522234917E0
4.683255068E0,-3.333201885E0,-8.556734085E0,-3.529413462E0
4.688010484E0,-3.297309637E0,-8.566305161E0,-3.529413462E0
4.692765901E0,-3.306880951E0,-8.551948547E0,-3.543770313E0
4.697521318E0,-3.311666489E0,-8.532805443E0,-3.543770313E0
4.702276734E0,-3.302095175E0,-8.520841599E0,-3.536591768E0
4.707032151E0,-3.292523861E0,-8.528019905E0,-3.558127165E0
4.711787568E0,-3.287738323E0,-8.535198212E0,-3.555734396E0
4.716543037E0,-3.263810158E0,-8.554341316E0,-3.519842148E0
4.721298453E0,-3.247060299E0,-8.575876236E0,-3.517449379E0
4.726053870E0,-3.232703447E0,-8.547162056E0,-3.503092289E0
4.730809287E0,-3.244667530E0,-8.535198212E0,-3.495913982E0
4.735564703E0,-3.237488985E0,-8.549555779E0,-3.471985579E0
4.740320120E0,-3.215953588E0,-8.551948547E0,-3.481556892E0
4.745075537E0,-3.189632654E0,-8.530412674E0,-3.455235958E0
4.749830953E0,-3.206382275E0,-8.537590981E0,-3.438486099E0
4.754586370E0,-3.196810961E0,-8.499305725E0,-3.416950703E0
4.759341839E0,-3.201596737E0,-8.528019905E0,-3.409772158E0
4.764097255E0,-3.196810961E0,-8.549555779E0,-3.404986620E0
4.768852672E0,-3.163311481E0,-8.566305161E0,-3.385843992E0
4.773608089E0,-3.182454109E0,-8.578269005E0,-3.381058455E0
4.778363505E0,-3.153740168E0,-8.590232849E0,-3.383451223E0
4.783118922E0,-3.125026464E0,-8.635697365E0,-3.383451223E0
4.787874339E0,-3.093919754E0,-8.628518105E0,-3.371487141E0
4.792629755E0,-3.089133978E0,-8.654839516E0,-3.376272678E0
4.797385224E0,-3.101098061E0,-8.683553696E0,-3.388236761E0
4.802140641E0,-3.117847919E0,-8.736195564E0,-3.393022537E0
4.806896057E0,-3.117847919E0,-8.721838951E0,-3.378665686E0
4.811651474E0,-3.115455151E0,-8.776873589E0,-3.371487141E0
4.816406891E0,-3.108276606E0,-8.796015739E0,-3.381058455E0
4.821162307E0,-3.093919754E0,-8.819944382E0,-3.378665686E0
4.825917724E0,-3.093919754E0,-8.829515457E0,-3.395415306E0
4.830673141E0,-3.098705292E0,-8.800801277E0,-3.402593851E0
4.835428609E0,-3.093919754E0,-8.819944382E0,-3.404986620E0
4.840184026E0,-3.081955671E0,-8.822337151E0,-3.400201082E0
4.844939443E0,-3.091526747E0,-8.784051895E0,-3.404986620E0
4.849694859E0,-3.086741209E0,-8.791230202E0,-3.407379389E0
4.854450276E0,-3.062813044E0,-8.757730484E0,-3.419343472E0
4.859205693E0,-3.096312523E0,-8.750552177E0,-3.412165165E0
4.863961109E0,-3.103491068E0,-8.726624489E0,-3.424129248E0
4.868716578E0,-3.093919754E0,-8.707481384E0,-3.419343472E0
4.873471995E0,-3.103491068E0,-8.733802795E0,-3.414557934E0
4.878227412E0,-3.098705292E0,-8.740981102E0,-3.414557934E0
4.882982828E0,-3.101098061E0,-8.731410027E0,-3.400201082E0
4.887738245E0,-3.062813044E0,-8.760123253E0,-3.385843992E0
4.892493662E0,-3.058027267E0,-8.786444664E0,-3.366701365E0
4.897249078E0,-3.007778168E0,-8.772088051E0,-3.342773199E0
4.902004547E0,-2.957528830E0,-8.788837433E0,-3.328416348E0
4.906759964E0,-2.928814888E0,-8.779266357E0,-3.321237803E0
4.911515380E0,-2.876172781E0,-8.786444664E0,-3.316452265E0
4.916270797E0,-2.871387243E0,-8.817551613E0,-3.314059258E0
4.921026214E0,-2.842673302E0,-8.788837433E0,-3.321237803E0
4.925781630E0,-2.847458839E0,-8.793622971E0,-3.326023579E0
4.930537047E0,-2.847458839E0,-8.796015739E0,-3.318845034E0
4.935292464E0,-2.818745136E0,-8.805587769E0,-3.340380430E0
4.940047932E0,-2.825923443E0,-8.793622971E0,-3.357130051E0
4.944803349E0,-2.823530674E0,-8.798408508E0,-3.371487141E0
4.949558766E0,-2.837887764E0,-8.796015739E0,-3.373879910E0
4.954314182E0,-2.823530674E0,-8.788837433E0,-3.378665686E0
4.959069599E0,-2.792423964E0,-8.784051895E0,-3.390629768E0
4.963825016E0,-2.770888567E0,-8.784051895E0,-3.388236761E0
4.968580484E0,-2.778067112E0,-8.772088051E0,-3.393022537E0
4.973335901E0,-2.770888567E0,-8.769695282E0,-3.378665686E0
4.978091318E0,-2.785245657E0,-8.750552177E0,-3.381058455E0
4.982846734E0,-2.797209740E0,-8.740981102E0,-3.381058455E0
4.987602151E0,-2.797209740E0,-8.745766640E0,-3.381058455E0
4.992357568E0,-2.816352367E0,-8.721838951E0,-3.416950703E0
4.997112984E0,-2.861815929E0,-8.717052460E0,-3.416950703E0
5.001868453E0,-2.895315409E0,-8.702695847E0,-3.426522017E0
5.006623870E0,-2.926422119E0,-8.700303078E0,-3.440878868E0
5.011379287E0,-2.952743053E0,-8.707481384E0,-3.452843189E0
5.016134703E0,-2.957528830E0,-8.717052460E0,-3.462414265E0
5.020890120E0,-2.976671457E0,-8.721838951E0,-3.474378586E0
5.025645537E0,-3.002992392E0,-8.752944946E0,-3.486342669E0
5.030400953E0,-3.029313564E0,-8.774480820E0,-3.460021496E0
5.035156422E0,-3.038884640E0,-8.793622971E0,-3.457628727E0
5.039911839E0,-3.038884640E0,-8.822337151E0,-3.431307554E0
5.044667255E0,-3.050848961E0,-8.824729919E0,-3.424129248E0
5.049422672E0,-3.043670416E0,-8.834300995E0,-3.409772158E0
5.054178089E0,-3.046063185E0,-8.815158844E0,-3.381058455E0
5.058933505E0,-3.065205812E0,-8.800801277E0,-3.347558975E0
5.063688922E0,-3.048455954E0,-8.779266357E0,-3.333201885E0
5.068444391E0,-3.081955671E0,-8.764909744E0,-3.294916868E0
5.073199807E0,-3.079562664E0,-8.738588333E0,-3.287738323E0
5.077955224E0,-3.079562664E0,-8.717052460E0,-3.268595695E0
5.082710641E0,-3.081955671E0,-8.712266922E0,-3.244667530E0
5.087466057E0,-3.086741209E0,-8.714659691E0,-3.230310678E0
5.092221474E0,-3.065205812E0,-8.707481384E0,-3.239881754E0
5.096976943E0,-3.069991350E0,-8.700303078E0,-3.213560820E0
5.101732359E0,-3.077169895E0,-8.721838951E0,-3.215953588E0
5.106487776E0,-3.067598581E0,-8.719446182E0,-3.213560820E0
5.111243193E0,-3.058027267E0,-8.738588333E0,-3.206382275E0
5.115998609E0,-3.058027267E0,-8.757730484E0,-3.189632654E0
5.120754026E0,-3.062813044E0,-8.776873589E0,-3.175275564E0
5.125509495E0,-3.017349243E0,-8.786444664E0,-3.165704250E0
5.130264912E0,-3.010170937E0,-8.819944382E0,-3.165704250E0
5.135020328E0,-2.998206854E0,-8.834300995E0,-3.163311481E0
5.139775745E0,-2.988635540E0,-8.848658562E0,-3.158525944E0
5.144531162E0,-2.943171740E0,-8.843872070E0,-3.160918713E0
5.149286578E0,-2.919243574E0,-8.872586250E0,-3.187239647E0
5.154042047E0,-2.900100946E0,-8.860622406E0,-3.189632654E0
5.158797464E0,-2.883351326E0,-8.860622406E0,-3.215953588E0
5.163552880E0,-2.847458839E0,-8.870193481E0,-3.242274761E0
5.168308297E0,-2.859423161E0,-8.865407944E0,-3.244667530E0
5.173063714E0,-2.852244616E0,-8.865407944E0,-3.268595695E0
5.177819130E0,-2.859423161E0,-8.867800713E0,-3.287738323E0
5.182574599E0,-2.840280533E0,-8.860622406E0,-3.294916868E0
5.187330016E0,-2.835494757E0,-8.870193481E0,-3.297309637E0
5.192085432E0,-2.823530674E0,-8.851051331E0,-3.306880951E0
5.196840849E0,-2.868994236E0,-8.860622406E0,-3.314059258E0
5.201596266E0,-2.878565550E0,-8.863015175E0,-3.330809116E0
5.206351734E0,-2.866601467E0,-8.863015175E0,-3.352344513E0
5.211107151E0,-2.897708178E0,-8.877371788E0,-3.354737282E0
5.215862568E0,-2.914458036E0,-8.870193481E0,-3.361915827E0
5.220617984E0,-2.892922640E0,-8.879764557E0,-3.352344513E0
5.225373401E0,-2.900100946E0,-8.879764557E0,-3.378665686E0
5.230128818E0,-2.888136864E0,-8.872586250E0,-3.385843992E0
5.234884287E0,-2.897708178E0,-8.886942863E0,-3.402593851E0
5.239639703E0,-2.888136864E0,-8.865407944E0,-3.388236761E0
5.244395120E0,-2.873780012E0,-8.829515457E0,-3.400201082E0
5.249150537E0,-2.868994236E0,-8.827122688E0,-3.390629768E0
5.253905953E0,-2.852244616E0,-8.829515457E0,-3.390629768E0
5.258661370E0,-2.859423161E0,-8.829515457E0,-3.402593851E0
5.263416839E0,-2.840280533E0,-8.829515457E0,-3.383451223E0
5.268172255E0,-2.830709219E0,-8.810373306E0,-3.366701365E0
5.272927672E0,-2.837887764E0,-8.800801277E0,-3.361915827E0
5.277683089E0,-2.840280533E0,-8.793622971E0,-3.349951744E0
5.282438505E0,-2.847458839E0,-8.827122688E0,-3.330809116E0
5.287193974E0,-2.859423161E0,-8.829515457E0,-3.326023579E0
5.291949391E0,-2.880958557E0,-8.807980537E0,-3.321237803E0
5.296704807E0,-2.890529871E0,-8.817551613E0,-3.323630571E0
5.301460224E0,-2.909672260E0,-8.817551613E0,-3.326023579E0
5.306215641E0,-2.912065268E0,-8.815158844E0,-3.311666489E0
5.310971057E0,-2.935993433E0,-8.793622971E0,-3.306880951E0
5.315726526E0,-2.991028309E0,-8.793622971E0,-3.302095175E0
5.320481943E0,-3.010170937E0,-8.772088051E0,-3.316452265E0
5.325237359E0,-3.036491871E0,-8.760123253E0,-3.309273720E0
5.329992776E0,-3.093919754E0,-8.760123253E0,-3.294916868E0
5.334748245E0,-3.129812002E0,-8.733802795E0,-3.290131092E0
5.339503662E0,-3.163311481E0,-8.729017258E0,-3.282952785E0
5.344259078E0,-3.165704250E0,-8.702695847E0,-3.275774240E0
5.349014495E0,-3.177668571E0,-8.669196129E0,-3.273381472E0
5.353769912E0,-3.172882795E0,-8.640482903E0,-3.266202927E0
5.358525328E0,-3.196810961E0,-8.590232849E0,-3.278167009E0
5.363280797E0,-3.235096216E0,-8.580661774E0,-3.290131092E0
5.368036214E0,-3.270988464E0,-8.568697929E0,-3.285345554E0
5.372791630E0,-3.316452265E0,-8.549555779E0,-3.290131092E0
5.377547047E0,-3.352344513E0,-8.549555779E0,-3.285345554E0
5.382302464E0,-3.359523058E0,-8.539983749E0,-3.280559778E0
5.387057932E0,-3.364308596E0,-8.523234367E0,-3.275774240E0
5.391813349E0,-3.342773199E0,-8.537590981E0,-3.275774240E0
5.396568766E0,-3.323630571E0,-8.516056061E0,-3.273381472E0
5.401324182E0,-3.321237803E0,-8.523234367E0,-3.266202927E0
5.406079599E0,-3.302095175E0,-8.518448830E0,-3.273381472E0
5.410835068E0,-3.309273720E0,-8.539983749E0,-3.256631613E0
5.415590484E0,-3.268595695E0,-8.554341316E0,-3.259024382E0
5.420345901E0,-3.261417150E0,-8.597412109E0,-3.254238844E0
5.425101318E0,-3.249453068E0,-8.611768723E0,-3.268595695E0
5.429856734E0,-3.218346357E0,-8.642875671E0,-3.266202927E0
5.434612203E0,-3.223132133E0,-8.662017822E0,-3.270988464E0
5.439367620E0,-3.218346357E0,-8.673981667E0,-3.273381472E0
5.444123037E0,-3.218346357E0,-8.683553696E0,-3.294916868E0
5.448878453E0,-3.230310678E0,-8.681160927E0,-3.306880951E0
5.453633922E0,-3.227917671E0,-8.693124771E0,-3.333201885E0
5.458389339E0,-3.235096216E0,-8.705088615E0,-3.337987661E0
5.463144755E0,-3.220739365E0,-8.740981102E0,-3.335594654E0
5.467900172E0,-3.227917671E0,-8.760123253E0,-3.342773199E0
5.472655589E0,-3.223132133E0,-8.750552177E0,-3.359523058E0
5.477411005E0,-3.211168051E0,-8.745766640E0,-3.361915827E0
5.482166474E0,-3.165704250E0,-8.731410027E0,-3.366701365E0
5.486921891E0,-3.163311481E0,-8.731410027E0,-3.361915827E0
5.491677307E0,-3.125026464E0,-8.729017258E0,-3.357130051E0
5.496432724E0,-3.117847919E0,-8.714659691E0,-3.359523058E0
5.501188141E0,-3.122633457E0,-8.705088615E0,-3.342773199E0
5.505943609E0,-3.103491068E0,-8.707481384E0,-3.359523058E0
5.510699026E0,-3.089133978E0,-8.693124771E0,-3.354737282E0
5.515454443E0,-3.069991350E0,-8.697910309E0,-3.364308596E0
5.520209859E0,-3.043670416E0,-8.700303078E0,-3.385843992E0
5.524965328E0,-3.012563705E0,-8.721838951E0,-3.381058455E0
5.529720745E0,-3.005385160E0,-8.717052460E0,-3.376272678E0
5.534476162E0,-2.971885681E0,-8.736195564E0,-3.383451223E0
5.539231578E0,-2.947957516E0,-8.748159409E0,-3.397808075E0
5.543986995E0,-2.952743053E0,-8.736195564E0,-3.400201082E0
5.548742464E0,-2.957528830E0,-8.736195564E0,-3.404986620E0
5.553497880E0,-2.926422119E0,-8.748159409E0,-3.409772158E0
5.558253297E0,-2.943171740E0,-8.757730484E0,-3.416950703E0
5.563008714E0,-2.933600664E0,-8.748159409E0,-3.428914785E0
5.567764182E0,-2.919243574E0,-8.750552177E0,-3.445664644E0
5.572519599E0,-2.926422119E0,-8.762516975E0,-3.436093330E0
5.577275016E0,-2.928814888E0,-8.774480820E0,-3.440878868E0
5.582030432E0,-2.945564747E0,-8.774480820E0,-3.440878868E0
5.586785849E0,-2.957528830E0,-8.788837433E0,-3.455235958E0
5.591541318E0,-2.993421078E0,-8.791230202E0,-3.431307554E0
5.596296734E0,-2.995813847E0,-8.824729919E0,-3.438486099E0
5.601052151E0,-2.983849764E0,-8.803194046E0,-3.433700562E0
5.605807568E0,-2.998206854E0,-8.815158844E0,-3.424129248E0
5.610563037E0,-3.019742250E0,-8.810373306E0,-3.419343472E0
5.615318453E0,-3.005385160E0,-8.781659126E0,-3.395415306E0
5.620073870E0,-3.014956474E0,-8.776873589E0,-3.381058455E0
5.624829287E0,-3.014956474E0,-8.776873589E0,-3.364308596E0
5.629584703E0,-3.017349243E0,-8.752944946E0,-3.385843992E0
5.634340172E0,-3.007778168E0,-8.748159409E0,-3.364308596E0
5.639095589E0,-2.995813847E0,-8.748159409E0,-3.354737282E0
5.643851005E0,-2.983849764E0,-8.729017258E0,-3.342773199E0
5.648606422E0,-2.974278450E0,-8.729017258E0,-3.347558975E0
5.653361891E0,-2.981456995E0,-8.709874153E0,-3.337987661E0
5.658117307E0,-2.967100143E0,-8.714659691E0,-3.335594654E0
5.662872724E0,-2.981456995E0,-8.731410027E0,-3.345165968E0
5.667628141E0,-2.979064226E0,-8.729017258E0,-3.335594654E0
5.672383557E0,-3.034099102E0,-8.738588333E0,-3.345165968E0
5.677139026E0,-3.055634499E0,-8.719446182E0,-3.328416348E0
5.681894443E0,-3.074777126E0,-8.733802795E0,-3.342773199E0
5.686649859E0,-3.096312523E0,-8.731410027E0,-3.323630571E0
5.691405276E0,-3.122633457E0,-8.760123253E0,-3.326023579E0
5.696160745E0,-3.134597778E0,-8.745766640E0,-3.323630571E0
5.700916162E0,-3.158525944E0,-8.736195564E0,-3.309273720E0
5.705671578E0,-3.163311481E0,-8.733802795E0,-3.328416348E0
5.710426995E0,-3.146561861E0,-8.731410027E0,-3.323630571E0
5.715182464E0,-3.172882795E0,-8.690732002E0,-3.314059258E0
5.719937880E0,-3.175275564E0,-8.702695847E0,-3.326023579E0
5.724693297E0,-3.182454109E0,-8.721838951E0,-3.314059258E0
5.729448714E0,-3.153740168E0,-8.695517540E0,-3.330809116E0
5.734204182E0,-3.148954630E0,-8.726624489E0,-3.321237803E0
5.738959599E0,-3.163311481E0,-8.709874153E0,-3.328416348E0
5.743715016E0,-3.136990547E0,-8.731410027E0,-3.323630571E0
5.748470432E0,-3.122633457E0,-8.731410027E0,-3.330809116E0
5.753225901E0,-3.127419233E0,-8.731410027E0,-3.318845034E0
5.757981318E0,-3.103491068E0,-8.717052460E0,-3.347558975E0
5.762736734E0,-3.098705292E0,-8.702695847E0,-3.342773199E0
5.767492151E0,-3.101098061E0,-8.705088615E0,-3.333201885E0
5.772247620E0,-3.108276606E0,-8.688339233E0,-3.349951744E0
5.777003037E0,-3.093919754E0,-8.705088615E0,-3.359523058E0
5.781758453E0,-3.108276606E0,-8.688339233E0,-3.349951744E0
5.786513922E0,-3.108276606E0,-8.683553696E0,-3.364308596E0
5.791269339E0,-3.113062143E0,-8.681160927E0,-3.361915827E0
5.796024755E0,-3.108276606E0,-8.685946465E0,-3.369094372E0
5.800780172E0,-3.113062143E0,-8.676374435E0,-3.385843992E0
5.805535641E0,-3.117847919E0,-8.664410591E0,-3.352344513E0
5.810291057E0,-3.122633457E0,-8.659625053E0,-3.335594654E0
5.815046474E0,-3.120240688E0,-8.669196129E0,-3.342773199E0
5.819801891E0,-3.115455151E0,-8.671588898E0,-3.361915827E0
5.824557307E0,-3.127419233E0,-8.654839516E0,-3.352344513E0
5.829312776E0,-3.132204771E0,-8.662017822E0,-3.345165968E0
5.834068193E0,-3.156133175E0,-8.676374435E0,-3.369094372E0
5.838823609E0,-3.153740168E0,-8.671588898E0,-3.349951744E0
5.843579026E0,-3.134597778E0,-8.676374435E0,-3.371487141E0
5.848334495E0,-3.141776085E0,-8.676374435E0,-3.359523058E0
5.853089912E0,-3.129812002E0,-8.673981667E0,-3.361915827E0
5.857845328E0,-3.136990547E0,-8.690732002E0,-3.364308596E0
5.862600797E0,-3.146561861E0,-8.688339233E0,-3.359523058E0
5.867356214E0,-3.129812002E0,-8.671588898E0,-3.359523058E0
5.872111630E0,-3.113062143E0,-8.683553696E0,-3.357130051E0
5.876867047E0,-3.103491068E0,-8.676374435E0,-3.364308596E0
5.881622516E0,-3.105883837E0,-8.683553696E0,-3.366701365E0
5.886377932E0,-3.081955671E0,-8.683553696E0,-3.371487141E0
5.891133349E0,-3.091526747E0,-8.685946465E0,-3.369094372E0
5.895888766E0,-3.069991350E0,-8.688339233E0,-3.376272678E0
5.900644234E0,-3.086741209E0,-8.683553696E0,-3.378665686E0
5.905399651E0,-3.069991350E0,-8.681160927E0,-3.371487141E0
5.910155068E0,-3.065205812E0,-8.678768158E0,-3.378665686E0
5.914910537E0,-3.048455954E0,-8.693124771E0,-3.390629768E0
5.919665953E0,-3.055634499E0,-8.702695847E0,-3.381058455E0
5.924421370E0,-3.031706333E0,-8.697910309E0,-3.390629768E0
5.929176787E0,-3.038884640E0,-8.707481384E0,-3.390629768E0
5.933932255E0,-3.029313564E0,-8.702695847E0,-3.383451223E0
5.938687672E0,-3.038884640E0,-8.685946465E0,-3.395415306E0
5.943443089E0,-3.005385160E0,-8.700303078E0,-3.390629768E0
5.948198505E0,-3.002992392E0,-8.702695847E0,-3.409772158E0
5.952953974E0,-2.979064226E0,-8.707481384E0,-3.416950703E0
5.957709391E0,-2.988635540E0,-8.709874153E0,-3.421736479E0
5.962464807E0,-2.981456995E0,-8.700303078E0,-3.414557934E0
5.967220224E0,-2.981456995E0,-8.707481384E0,-3.414557934E0
5.971975693E0,-2.957528830E0,-8.719446182E0,-3.428914785E0
5.976731109E0,-2.974278450E0,-8.726624489E0,-3.428914785E0
5.981486526E0,-2.974278450E0,-8.731410027E0,-3.433700562E0
5.986241943E0,-2.969492912E0,-8.738588333E0,-3.440878868E0
5.990997412E0,-2.988635540E0,-8.726624489E0,-3.433700562E0
5.995752828E0,-2.988635540E0,-8.724231720E0,-3.440878868E0
6.000508245E0,-2.988635540E0,-8.717052460E0,-3.450450182E0
6.005263714E0,-3.022135019E0,-8.733802795E0,-3.443271875E0
6.010019130E0,-3.007778168E0,-8.738588333E0,-3.436093330E0
6.014774547E0,-3.038884640E0,-8.724231720E0,-3.433700562E0
6.019530016E0,-3.041277647E0,-8.700303078E0,-3.431307554E0
6.024285432E0,-3.074777126E0,-8.709874153E0,-3.431307554E0
6.029040849E0,-3.103491068E0,-8.712266922E0,-3.440878868E0
6.033796266E0,-3.117847919E0,-8.709874153E0,-3.445664644E0
6.038551734E0,-3.122633457E0,-8.697910309E0,-3.440878868E0
6.043307151E0,-3.115455151E0,-8.683553696E0,-3.452843189E0
6.048062568E0,-3.105883837E0,-8.666803360E0,-3.462414265E0
6.052818037E0,-3.103491068E0,-8.671588898E0,-3.462414265E0
6.057573453E0,-3.098705292E0,-8.664410591E0,-3.474378586E0
6.062328870E0,-3.086741209E0,-8.662017822E0,-3.460021496E0
6.067084287E0,-3.072384357E0,-8.688339233E0,-3.471985579E0
6.071839755E0,-3.086741209E0,-8.697910309E0,-3.474378586E0
6.076595172E0,-3.081955671E0,-8.683553696E0,-3.469592810E0
6.081350589E0,-3.103491068E0,-8.664410591E0,-3.443271875E0
6.086106057E0,-3.101098061E0,-8.640482903E0,-3.448057413E0
6.090861474E0,-3.122633457E0,-8.664410591E0,-3.460021496E0
6.095616891E0,-3.089133978E0,-8.695517540E0,-3.440878868E0
6.100372359E0,-3.091526747E0,-8.685946465E0,-3.438486099E0
6.105127776E0,-3.103491068E0,-8.695517540E0,-3.448057413E0
6.109883193E0,-3.069991350E0,-8.683553696E0,-3.445664644E0
6.114638609E0,-3.093919754E0,-8.673981667E0,-3.445664644E0
6.119394078E0,-3.089133978E0,-8.688339233E0,-3.436093330E0
6.124149495E0,-3.108276606E0,-8.700303078E0,-3.445664644E0
6.128904912E0,-3.117847919E0,-8.724231720E0,-3.426522017E0
6.133660380E0,-3.110669374E0,-8.712266922E0,-3.431307554E0
6.138415797E0,-3.127419233E0,-8.688339233E0,-3.436093330E0
6.143171214E0,-3.120240688E0,-8.697910309E0,-3.443271875E0
6.147926630E0,-3.129812002E0,-8.688339233E0,-3.445664644E0
6.152682099E0,-3.151347399E0,-8.676374435E0,-3.419343472E0
6.157437516E0,-3.134597778E0,-8.659625053E0,-3.436093330E0
6.162192932E0,-3.160918713E0,-8.647661209E0,-3.438486099E0
6.166948401E0,-3.163311481E0,-8.635697365E0,-3.440878868E0
6.171703818E0,-3.158525944E0,-8.606983185E0,-3.431307554E0
6.176459234E0,-3.172882795E0,-8.606983185E0,-3.443271875E0
6.181214703E0,-3.170490026E0,-8.599804878E0,-3.421736479E0
6.185970120E0,-3.218346357E0,-8.633303642E0,-3.436093330E0
6.190725537E0,-3.223132133E0,-8.633303642E0,-3.440878868E0
6.195480953E0,-3.237488985E0,-8.650053978E0,-3.445664644E0
6.200236422E0,-3.235096216E0,-8.647661209E0,-3.431307554E0
6.204991839E0,-3.244667530E0,-8.640482903E0,-3.428914785E0
6.209747255E0,-3.275774240E0,-8.659625053E0,-3.436093330E0
6.214502724E0,-3.309273720E0,-8.659625053E0,-3.431307554E0
6.219258141E0,-3.326023579E0,-8.657232285E0,-3.431307554E0
6.224013557E0,-3.318845034E0,-8.638090134E0,-3.426522017E0
6.228769026E0,-3.330809116E0,-8.618947029E0,-3.445664644E0
6.233524443E0,-3.318845034E0,-8.604590416E0,-3.445664644E0
6.238279859E0,-3.314059258E0,-8.604590416E0,-3.433700562E0
6.243035328E0,-3.287738323E0,-8.566305161E0,-3.445664644E0
6.247790745E0,-3.275774240E0,-8.559126854E0,-3.416950703E0
6.252546162E0,-3.261417150E0,-8.537590981E0,-3.436093330E0
6.257301630E0,-3.251846075E0,-8.556734085E0,-3.436093330E0
6.262057047E0,-3.223132133E0,-8.571090698E0,-3.428914785E0
6.266812464E0,-3.230310678E0,-8.554341316E0,-3.424129248E0
6.271567880E0,-3.220739365E0,-8.566305161E0,-3.426522017E0
6.276323349E0,-3.230310678E0,-8.590232849E0,-3.424129248E0
6.281078766E0,-3.235096216E0,-8.616554260E0,-3.414557934E0
6.285834182E0,-3.230310678E0,-8.616554260E0,-3.421736479E0
6.290589651E0,-3.249453068E0,-8.609375954E0,-3.443271875E0
6.295345068E0,-3.235096216E0,-8.645268440E0,-3.436093330E0
6.300100484E0,-3.256631613E0,-8.642875671E0,-3.452843189E0
6.304855953E0,-3.247060299E0,-8.645268440E0,-3.450450182E0
6.309611370E0,-3.256631613E0,-8.647661209E0,-3.452843189E0
6.314366787E0,-3.247060299E0,-8.633303642E0,-3.443271875E0
6.319122255E0,-3.225524902E0,-8.638090134E0,-3.424129248E0
6.323877672E0,-3.203989506E0,-8.621339798E0,-3.412165165E0
6.328633089E0,-3.189632654E0,-8.647661209E0,-3.404986620E0
6.333388557E0,-3.175275564E0,-8.616554260E0,-3.397808075E0
6.338143974E0,-3.156133175E0,-8.628518105E0,-3.390629768E0
6.342899391E0,-3.125026464E0,-8.638090134E0,-3.390629768E0
6.347654859E0,-3.129812002E0,-8.642875671E0,-3.397808075E0
6.352410276E0,-3.125026464E0,-8.628518105E0,-3.395415306E0
6.357165693E0,-3.108276606E0,-8.642875671E0,-3.373879910E0
6.361921162E0,-3.108276606E0,-8.640482903E0,-3.373879910E0
6.366676578E0,-3.115455151E0,-8.673981667E0,-3.361915827E0
6.371431995E0,-3.129812002E0,-8.669196129E0,-3.378665686E0
6.376187464E0,-3.127419233E0,-8.662017822E0,-3.364308596E0
6.380942880E0,-3.136990547E0,-8.666803360E0,-3.366701365E0
6.385698297E0,-3.132204771E0,-8.676374435E0,-3.361915827E0
6.390453714E0,-3.129812002E0,-8.676374435E0,-3.373879910E0
6.395209182E0,-3.156133175E0,-8.683553696E0,-3.371487141E0
6.399964599E0,-3.163311481E0,-8.671588898E0,-3.390629768E0
6.404720016E0,-3.168097258E0,-8.678768158E0,-3.393022537E0
6.409475484E0,-3.187239647E0,-8.669196129E0,-3.402593851E0
6.414230901E0,-3.203989506E0,-8.678768158E0,-3.412165165E0
6.418986318E0,-3.220739365E0,-8.678768158E0,-3.419343472E0
6.423741787E0,-3.232703447E0,-8.671588898E0,-3.416950703E0
6.428497203E0,-3.227917671E0,-8.669196129E0,-3.416950703E0
6.433252620E0,-3.230310678E0,-8.654839516E0,-3.424129248E0
6.438008089E0,-3.230310678E0,-8.666803360E0,-3.416950703E0
6.442763505E0,-3.244667530E0,-8.664410591E0,-3.414557934E0
6.447518922E0,-3.254238844E0,-8.664410591E0,-3.414557934E0
6.452274391E0,-3.251846075E0,-8.662017822E0,-3.436093330E0
6.457029807E0,-3.244667530E0,-8.671588898E0,-3.431307554E0
6.461785224E0,-3.220739365E0,-8.681160927E0,-3.421736479E0
6.466540693E0,-3.227917671E0,-8.695517540E0,-3.433700562E0
6.471296109E0,-3.194418192E0,-8.666803360E0,-3.436093330E0
6.476051578E0,-3.175275564E0,-8.666803360E0,-3.438486099E0
6.480806995E0,-3.168097258E0,-8.690732002E0,-3.450450182E0
6.485562412E0,-3.144168854E0,-8.688339233E0,-3.464807272E0
6.490317828E0,-3.110669374E0,-8.700303078E0,-3.471985579E0
6.495073297E0,-3.093919754E0,-8.700303078E0,-3.479164124E0
6.499828714E0,-3.065205812E0,-8.697910309E0,-3.479164124E0
6.504584182E0,-3.048455954E0,-8.688339233E0,-3.476771355E0
6.509339599E0,-3.041277647E0,-8.671588898E0,-3.479164124E0
6.514095016E0,-3.036491871E0,-8.669196129E0,-3.476771355E0
6.518850484E0,-3.036491871E0,-8.688339233E0,-3.471985579E0
6.523605901E0,-3.002992392E0,-8.695517540E0,-3.474378586E0
6.528361318E0,-2.993421078E0,-8.712266922E0,-3.464807272E0
6.533116734E0,-2.969492912E0,-8.712266922E0,-3.481556892E0
6.537872203E0,-2.959921598E0,-8.726624489E0,-3.462414265E0
6.542627620E0,-2.969492912E0,-8.702695847E0,-3.462414265E0
6.547383089E0,-2.952743053E0,-8.705088615E0,-3.483949661E0
6.552138505E0,-2.955136061E0,-8.714659691E0,-3.495913982E0
6.556893922E0,-2.962314367E0,-8.729017258E0,-3.488735437E0
6.561649391E0,-2.979064226E0,-8.721838951E0,-3.498306751E0
6.566404807E0,-2.991028309E0,-8.726624489E0,-3.505485058E0
6.571160224E0,-3.005385160E0,-8.714659691E0,-3.493520975E0
6.575915693E0,-3.031706333E0,-8.700303078E0,-3.507878065E0
6.580671109E0,-3.060420275E0,-8.697910309E0,-3.495913982E0
6.585426526E0,-3.103491068E0,-8.681160927E0,-3.507878065E0
6.590181995E0,-3.129812002E0,-8.693124771E0,-3.493520975E0
6.594937412E0,-3.168097258E0,-8.683553696E0,-3.500699520E0
6.599692828E0,-3.182454109E0,-8.695517540E0,-3.471985579E0
6.604448297E0,-3.235096216E0,-8.693124771E0,-3.452843189E0
6.609203714E0,-3.237488985E0,-8.671588898E0,-3.445664644E0
6.613959182E0,-3.244667530E0,-8.671588898E0,-3.450450182E0
6.618714599E0,-3.254238844E0,-8.693124771E0,-3.457628727E0
6.623470016E0,-3.259024382E0,-8.690732002E0,-3.438486099E0
6.628225432E0,-3.254238844E0,-8.688339233E0,-3.467200041E0
6.632980901E0,-3.244667530E0,-8.690732002E0,-3.445664644E0
6.637736318E0,-3.242274761E0,-8.709874153E0,-3.452843189E0
6.642491787E0,-3.263810158E0,-8.717052460E0,-3.438486099E0
6.647247203E0,-3.259024382E0,-8.721838951E0,-3.436093330E0
6.652002620E0,-3.249453068E0,-8.721838951E0,-3.421736479E0
6.656758089E0,-3.273381472E0,-8.673981667E0,-3.397808075E0
6.661513505E0,-3.247060299E0,-8.662017822E0,-3.383451223E0
6.666268974E0,-3.206382275E0,-8.623732567E0,-3.369094372E0
6.671024391E0,-3.182454109E0,-8.614161491E0,-3.352344513E0
6.675779807E0,-3.144168854E0,-8.602197647E0,-3.361915827E0
6.680535276E0,-3.151347399E0,-8.563912392E0,-3.357130051E0
6.685290693E0,-3.086741209E0,-8.580661774E0,-3.337987661E0
6.690046109E0,-3.060420275E0,-8.580661774E0,-3.347558975E0
6.694801578E0,-3.055634499E0,-8.616554260E0,-3.352344513E0
6.699556995E0,-3.022135019E0,-8.640482903E0,-3.364308596E0
6.704312412E0,-3.010170937E0,-8.650053978E0,-3.357130051E0
6.709067880E0,-2.983849764E0,-8.676374435E0,-3.388236761E0
6.713823297E0,-2.967100143E0,-8.700303078E0,-3.390629768E0
6.718578714E0,-2.957528830E0,-8.719446182E0,-3.393022537E0
6.723334182E0,-2.945564747E0,-8.738588333E0,-3.409772158E0
6.728089599E0,-2.924029350E0,-8.748159409E0,-3.409772158E0
6.732845016E0,-2.902493954E0,-8.731410027E0,-3.421736479E0
6.737600484E0,-2.883351326E0,-8.733802795E0,-3.433700562E0
6.742355901E0,-2.890529871E0,-8.750552177E0,-3.402593851E0
6.747111370E0,-2.900100946E0,-8.729017258E0,-3.412165165E0
6.751866787E0,-2.892922640E0,-8.721838951E0,-3.390629768E0
6.756622203E0,-2.904886723E0,-8.752944946E0,-3.369094372E0
6.761377672E0,-2.895315409E0,-8.745766640E0,-3.371487141E0
6.766133089E0,-2.897708178E0,-8.762516975E0,-3.359523058E0
6.770888505E0,-2.912065268E0,-8.779266357E0,-3.352344513E0
6.775643974E0,-2.907279491E0,-8.786444664E0,-3.359523058E0
6.780399391E0,-2.931207657E0,-8.781659126E0,-3.335594654E0
6.785154807E0,-2.921636343E0,-8.793622971E0,-3.330809116E0
6.789910276E0,-2.957528830E0,-8.796015739E0,-3.333201885E0
6.794665693E0,-3.010170937E0,-8.807980537E0,-3.342773199E0
6.799421162E0,-3.036491871E0,-8.786444664E0,-3.347558975E0
6.804176578E0,-3.060420275E0,-8.800801277E0,-3.359523058E0
6.808931995E0,-3.127419233E0,-8.750552177E0,-3.373879910E0
6.813687464E0,-3.170490026E0,-8.738588333E0,-3.369094372E0
6.818442880E0,-3.187239647E0,-8.719446182E0,-3.402593851E0
6.823198297E0,-3.225524902E0,-8.671588898E0,-3.361915827E0
6.827953766E0,-3.254238844E0,-8.654839516E0,-3.354737282E0
6.832709182E0,-3.282952785E0,-8.621339798E0,-3.373879910E0
6.837464651E0,-3.294916868E0,-8.585447311E0,-3.366701365E0
6.842220068E0,-3.304488182E0,-8.578269005E0,-3.371487141E0
6.846975484E0,-3.323630571E0,-8.580661774E0,-3.383451223E0
6.851730953E0,-3.347558975E0,-8.568697929E0,-3.397808075E0
6.856486370E0,-3.357130051E0,-8.561519623E0,-3.378665686E0
6.861241787E0,-3.364308596E0,-8.559126854E0,-3.385843992E0
6.865997255E0,-3.373879910E0,-8.559126854E0,-3.385843992E0
6.870752672E0,-3.366701365E0,-8.583054543E0,-3.395415306E0
6.875508141E0,-3.347558975E0,-8.595019341E0,-3.390629768E0
6.880263557E0,-3.349951744E0,-8.626125336E0,-3.404986620E0
6.885018974E0,-3.340380430E0,-8.652446747E0,-3.404986620E0
6.889774443E0,-3.311666489E0,-8.659625053E0,-3.424129248E0
6.894529859E0,-3.278167009E0,-8.678768158E0,-3.450450182E0
6.899285276E0,-3.268595695E0,-8.688339233E0,-3.462414265E0
6.904040745E0,-3.254238844E0,-8.669196129E0,-3.452843189E0
6.908796162E0,-3.227917671E0,-8.676374435E0,-3.448057413E0
6.913551630E0,-3.218346357E0,-8.678768158E0,-3.440878868E0
6.918307047E0,-3.192025423E0,-8.676374435E0,-3.445664644E0
6.923062464E0,-3.172882795E0,-8.650053978E0,-3.457628727E0
6.927817932E0,-3.158525944E0,-8.664410591E0,-3.445664644E0
6.932573349E0,-3.175275564E0,-8.633303642E0,-3.431307554E0
6.937328818E0,-3.160918713E0,-8.642875671E0,-3.428914785E0
6.942084234E0,-3.177668571E0,-8.616554260E0,-3.448057413E0
6.946839651E0,-3.180061340E0,-8.590232849E0,-3.471985579E0
6.951595120E0,-3.177668571E0,-8.542376518E0,-3.491128206E0
6.956350537E0,-3.218346357E0,-8.511270523E0,-3.505485058E0
6.961105953E0,-3.227917671E0,-8.494520187E0,-3.505485058E0
6.965861422E0,-3.261417150E0,-8.494520187E0,-3.536591768E0
6.970616839E0,-3.280559778E0,-8.492127419E0,-3.522234917E0
6.975372307E0,-3.314059258E0,-8.518448830E0,-3.529413462E0
6.980127724E0,-3.340380430E0,-8.489734650E0,-3.536591768E0
6.984883141E0,-3.349951744E0,-8.511270523E0,-3.524627686E0
6.989638609E0,-3.357130051E0,-8.506484032E0,-3.529413462E0
6.994394026E0,-3.342773199E0,-8.518448830E0,-3.522234917E0
6.999149495E0,-3.328416348E0,-8.523234367E0,-3.538984776E0
7.003904912E0,-3.314059258E0,-8.547162056E0,-3.519842148E0
7.008660328E0,-3.302095175E0,-8.554341316E0,-3.519842148E0
7.013415797E0,-3.266202927E0,-8.568697929E0,-3.515056372E0
7.018171214E0,-3.261417150E0,-8.580661774E0,-3.543770313E0
7.022926682E0,-3.278167009E0,-8.599804878E0,-3.550948858E0
7.027682099E0,-3.259024382E0,-8.611768723E0,-3.565305710E0
7.032437516E0,-3.247060299E0,-8.611768723E0,-3.562912941E0
7.037192984E0,-3.285345554E0,-8.609375954E0,-3.553341627E0
7.041948401E0,-3.297309637E0,-8.611768723E0,-3.548556089E0
7.046703818E0,-3.330809116E0,-8.585447311E0,-3.531806231E0
7.051459287E0,-3.361915827E0,-8.554341316E0,-3.498306751E0
7.056214703E0,-3.373879910E0,-8.568697929E0,-3.486342669E0
7.060970172E0,-3.409772158E0,-8.544769287E0,-3.464807272E0
7.065725589E0,-3.421736479E0,-8.551948547E0,-3.450450182E0
7.070481005E0,-3.457628727E0,-8.537590981E0,-3.419343472E0
7.075236474E0,-3.464807272E0,-8.532805443E0,-3.433700562E0
7.079991891E0,-3.457628727E0,-8.547162056E0,-3.428914785E0
7.084747359E0,-3.471985579E0,-8.520841599E0,-3.455235958E0
7.089502776E0,-3.460021496E0,-8.480163574E0,-3.428914785E0
7.094258193E0,-3.467200041E0,-8.513663292E0,-3.448057413E0
7.099013662E0,-3.436093330E0,-8.472985268E0,-3.426522017E0
7.103769078E0,-3.421736479E0,-8.511270523E0,-3.414557934E0
7.108524547E0,-3.407379389E0,-8.523234367E0,-3.402593851E0
7.113279964E0,-3.373879910E0,-8.537590981E0,-3.400201082E0
7.118035380E0,-3.361915827E0,-8.556734085E0,-3.397808075E0
7.122790849E0,-3.318845034E0,-8.580661774E0,-3.359523058E0
7.127546266E0,-3.287738323E0,-8.606983185E0,-3.342773199E0
7.132301734E0,-3.254238844E0,-8.638090134E0,-3.333201885E0
7.137057151E0,-3.199203968E0,-8.650053978E0,-3.321237803E0
7.141812568E0,-3.168097258E0,-8.688339233E0,-3.328416348E0
7.146568037E0,-3.160918713E0,-8.705088615E0,-3.347558975E0
7.151323453E0,-3.117847919E0,-8.755337715E0,-3.323630571E0
7.156078922E0,-3.103491068E0,-8.784051895E0,-3.354737282E0
7.160834339E0,-3.034099102E0,-8.798408508E0,-3.340380430E0
7.165589755E0,-2.986242771E0,-8.831908226E0,-3.361915827E0
7.170345224E0,-2.950350285E0,-8.848658562E0,-3.381058455E0
7.175100641E0,-2.883351326E0,-8.867800713E0,-3.388236761E0
7.179856109E0,-2.852244616E0,-8.867800713E0,-3.400201082E0
7.184611526E0,-2.797209740E0,-8.884550095E0,-3.404986620E0
7.189366943E0,-2.758924484E0,-8.867800713E0,-3.412165165E0
7.194122412E0,-2.734996319E0,-8.865407944E0,-3.424129248E0
7.198877828E0,-2.706282377E0,-8.843872070E0,-3.421736479E0
7.203633297E0,-2.670390129E0,-8.807980537E0,-3.419343472E0
7.208388714E0,-2.653640270E0,-8.805587769E0,-3.402593851E0
7.213144182E0,-2.639283419E0,-8.793622971E0,-3.397808075E0
7.217899599E0,-2.608176708E0,-8.760123253E0,-3.381058455E0
7.222655016E0,-2.610569477E0,-8.738588333E0,-3.378665686E0
7.227410484E0,-2.615355253E0,-8.695517540E0,-3.364308596E0
7.232165901E0,-2.586641312E0,-8.700303078E0,-3.321237803E0
7.236921370E0,-2.565105915E0,-8.669196129E0,-3.306880951E0
7.241676787E0,-2.560320139E0,-8.640482903E0,-3.292523861E0
7.246432203E0,-2.596212626E0,-8.657232285E0,-3.306880951E0
7.251187672E0,-2.615355253E0,-8.635697365E0,-3.292523861E0
7.255943089E0,-2.667997360E0,-8.642875671E0,-3.299702406E0
7.260698557E0,-2.711068153E0,-8.671588898E0,-3.306880951E0
7.265453974E0,-2.787638426E0,-8.688339233E0,-3.323630571E0
7.270209443E0,-2.847458839E0,-8.717052460E0,-3.304488182E0
7.274964859E0,-2.926422119E0,-8.724231720E0,-3.323630571E0
7.279720276E0,-2.988635540E0,-8.740981102E0,-3.330809116E0
7.284475745E0,-3.031706333E0,-8.784051895E0,-3.335594654E0
7.289231162E0,-3.089133978E0,-8.803194046E0,-3.354737282E0
7.293986578E0,-3.141776085E0,-8.805587769E0,-3.369094372E0
7.298742047E0,-3.220739365E0,-8.831908226E0,-3.388236761E0
7.303497464E0,-3.297309637E0,-8.819944382E0,-3.376272678E0
7.308252932E0,-3.345165968E0,-8.829515457E0,-3.407379389E0
7.313008349E0,-3.404986620E0,-8.824729919E0,-3.407379389E0
7.317763818E0,-3.455235958E0,-8.798408508E0,-3.421736479E0
7.322519234E0,-3.491128206E0,-8.764909744E0,-3.424129248E0
7.327274651E0,-3.507878065E0,-8.740981102E0,-3.407379389E0
7.332030120E0,-3.531806231E0,-8.685946465E0,-3.409772158E0
7.336785537E0,-3.534198999E0,-8.657232285E0,-3.397808075E0
7.341541005E0,-3.560520172E0,-8.623732567E0,-3.388236761E0
7.346296422E0,-3.596412420E0,-8.575876236E0,-3.388236761E0
7.351051891E0,-3.584448338E0,-8.537590981E0,-3.378665686E0
7.355807307E0,-3.570091486E0,-8.511270523E0,-3.381058455E0
7.360562724E0,-3.582055569E0,-8.494520187E0,-3.402593851E0
7.365318193E0,-3.560520172E0,-8.480163574E0,-3.407379389E0
7.370073609E0,-3.543770313E0,-8.480163574E0,-3.416950703E0
7.374829078E0,-3.469592810E0,-8.504091263E0,-3.400201082E0
7.379584495E0,-3.352344513E0,-8.492127419E0,-3.388236761E0
7.384339964E0,-3.225524902E0,-8.528019905E0,-3.366701365E0
7.389095380E0,-3.113062143E0,-8.580661774E0,-3.376272678E0
7.393850797E0,-2.969492912E0,-8.630910873E0,-3.376272678E0
7.398606266E0,-2.909672260E0,-8.666803360E0,-3.373879910E0
7.403361682E0,-2.840280533E0,-8.726624489E0,-3.390629768E0
7.408117151E0,-2.811566591E0,-8.752944946E0,-3.397808075E0
7.412872568E0,-2.775674343E0,-8.776873589E0,-3.407379389E0
7.417627984E0,-2.797209740E0,-8.796015739E0,-3.438486099E0
7.422383453E0,-2.801995277E0,-8.810373306E0,-3.414557934E0
7.427138870E0,-2.806781054E0,-8.822337151E0,-3.424129248E0
7.431894339E0,-2.825923443E0,-8.819944382E0,-3.414557934E0
7.436649755E0,-2.837887764E0,-8.800801277E0,-3.433700562E0
7.441405224E0,-2.866601467E0,-8.796015739E0,-3.438486099E0
7.446160641E0,-2.883351326E0,-8.812766075E0,-3.428914785E0
7.450916057E0,-2.931207657E0,-8.791230202E0,-3.443271875E0
7.455671526E0,-2.962314367E0,-8.793622971E0,-3.457628727E0
7.460426943E0,-2.995813847E0,-8.824729919E0,-3.476771355E0
7.465182412E0,-3.036491871E0,-8.817551613E0,-3.469592810E0
7.469937828E0,-3.079562664E0,-8.858229637E0,-3.471985579E0
7.474693297E0,-3.091526747E0,-8.851051331E0,-3.464807272E0
7.479448714E0,-3.086741209E0,-8.896514893E0,-3.436093330E0
7.484204182E0,-3.084348440E0,-8.882157326E0,-3.428914785E0
7.488959599E0,-3.086741209E0,-8.884550095E0,-3.407379389E0
7.493715016E0,-3.067598581E0,-8.858229637E0,-3.369094372E0
7.498470484E0,-3.058027267E0,-8.848658562E0,-3.352344513E0
7.503225901E0,-3.019742250E0,-8.805587769E0,-3.340380430E0
7.507981370E0,-2.981456995E0,-8.805587769E0,-3.316452265E0
7.512736787E0,-2.995813847E0,-8.779266357E0,-3.290131092E0
7.517492255E0,-2.967100143E0,-8.743373871E0,-3.302095175E0
7.522247672E0,-2.945564747E0,-8.707481384E0,-3.287738323E0
7.527003089E0,-2.928814888E0,-8.697910309E0,-3.292523861E0
7.531758557E0,-2.933600664E0,-8.707481384E0,-3.268595695E0
7.536513974E0,-2.924029350E0,-8.712266922E0,-3.282952785E0
7.541269443E0,-2.945564747E0,-8.693124771E0,-3.285345554E0
7.546024859E0,-2.952743053E0,-8.671588898E0,-3.261417150E0
7.550780328E0,-2.981456995E0,-8.669196129E0,-3.273381472E0
7.555535745E0,-2.998206854E0,-8.654839516E0,-3.263810158E0
7.560291162E0,-3.034099102E0,-8.662017822E0,-3.235096216E0
7.565046630E0,-3.067598581E0,-8.657232285E0,-3.230310678E0
7.569802047E0,-3.096312523E0,-8.676374435E0,-3.208775282E0
7.574557516E0,-3.144168854E0,-8.693124771E0,-3.177668571E0
7.579312932E0,-3.196810961E0,-8.712266922E0,-3.158525944E0
7.584068401E0,-3.203989506E0,-8.731410027E0,-3.117847919E0
7.588823818E0,-3.223132133E0,-8.743373871E0,-3.101098061E0
7.593579287E0,-3.254238844E0,-8.750552177E0,-3.072384357E0
7.598334703E0,-3.244667530E0,-8.769695282E0,-3.079562664E0
7.603090120E0,-3.266202927E0,-8.752944946E0,-3.055634499E0
7.607845589E0,-3.280559778E0,-8.743373871E0,-3.041277647E0
7.612601005E0,-3.268595695E0,-8.733802795E0,-3.058027267E0
7.617356474E0,-3.297309637E0,-8.719446182E0,-3.058027267E0
7.622111891E0,-3.294916868E0,-8.690732002E0,-3.055634499E0
7.626867359E0,-3.292523861E0,-8.664410591E0,-3.093919754E0
7.631622776E0,-3.294916868E0,-8.635697365E0,-3.113062143E0
7.636378245E0,-3.275774240E0,-8.604590416E0,-3.153740168E0
7.641133662E0,-3.299702406E0,-8.587840080E0,-3.196810961E0
7.645889078E0,-3.304488182E0,-8.530412674E0,-3.225524902E0
7.650644547E0,-3.287738323E0,-8.480163574E0,-3.270988464E0
7.655399964E0,-3.318845034E0,-8.444271088E0,-3.333201885E0
7.660155432E0,-3.345165968E0,-8.417949677E0,-3.383451223E0
7.664910849E0,-3.364308596E0,-8.382058144E0,-3.440878868E0
7.669666318E0,-3.397808075E0,-8.360522270E0,-3.491128206E0
7.674421734E0,-3.407379389E0,-8.336593628E0,-3.524627686E0
7.679177203E0,-3.445664644E0,-8.362915039E0,-3.555734396E0
7.683932620E0,-3.486342669E0,-8.379665375E0,-3.589233875E0
7.688688037E0,-3.503092289E0,-8.425128937E0,-3.610769272E0
7.693443505E0,-3.519842148E0,-8.432307243E0,-3.665804386E0
7.698198922E0,-3.527020693E0,-8.453842163E0,-3.665804386E0
7.702954391E0,-3.553341627E0,-8.487341881E0,-3.684946775E0
7.707709807E0,-3.548556089E0,-8.532805443E0,-3.699303865E0
7.712465276E0,-3.531806231E0,-8.547162056E0,-3.720839262E0
7.717220693E0,-3.500699520E0,-8.580661774E0,-3.739981890E0
7.721976162E0,-3.445664644E0,-8.618947029E0,-3.739981890E0
7.726731578E0,-3.395415306E0,-8.654839516E0,-3.737588882E0
7.731486995E0,-3.306880951E0,-8.681160927E0,-3.725624800E0
7.736242464E0,-3.218346357E0,-8.712266922E0,-3.723232031E0
7.740997880E0,-3.132204771E0,-8.750552177E0,-3.701696634E0
7.745753349E0,-3.036491871E0,-8.760123253E0,-3.668197155E0
7.750508766E0,-2.964707375E0,-8.748159409E0,-3.670589924E0
7.755264234E0,-2.876172781E0,-8.786444664E0,-3.632304668E0
7.760019651E0,-2.837887764E0,-8.796015739E0,-3.608376503E0
7.764775120E0,-2.787638426E0,-8.807980537E0,-3.565305710E0
7.769530537E0,-2.730210543E0,-8.798408508E0,-3.562912941E0
7.774286005E0,-2.715853691E0,-8.807980537E0,-3.550948858E0
7.779041422E0,-2.703889608E0,-8.819944382E0,-3.519842148E0
7.783796839E0,-2.691925526E0,-8.824729919E0,-3.527020693E0
7.788552307E0,-2.689532757E0,-8.846264839E0,-3.503092289E0
7.793307724E0,-2.708675146E0,-8.853444099E0,-3.500699520E0
7.798063193E0,-2.701496840E0,-8.860622406E0,-3.486342669E0
7.802818609E0,-2.708675146E0,-8.853444099E0,-3.495913982E0
7.807574078E0,-2.730210543E0,-8.839086533E0,-3.498306751E0
7.812329495E0,-2.763710260E0,-8.831908226E0,-3.498306751E0
7.817084964E0,-2.809173822E0,-8.855836868E0,-3.486342669E0
7.821840380E0,-2.845066071E0,-8.870193481E0,-3.476771355E0
7.826595849E0,-2.861815929E0,-8.846264839E0,-3.471985579E0
7.831351266E0,-2.902493954E0,-8.841479301E0,-3.457628727E0
7.836106682E0,-2.926422119E0,-8.839086533E0,-3.443271875E0
7.840862151E0,-2.962314367E0,-8.839086533E0,-3.426522017E0
7.845617568E0,-2.991028309E0,-8.831908226E0,-3.424129248E0
7.850373037E0,-3.000599623E0,-8.810373306E0,-3.400201082E0
7.855128453E0,-3.000599623E0,-8.798408508E0,-3.402593851E0
7.859883922E0,-3.012563705E0,-8.796015739E0,-3.373879910E0
7.864639339E0,-3.012563705E0,-8.779266357E0,-3.361915827E0
7.869394807E0,-3.010170937E0,-8.776873589E0,-3.354737282E0
7.874150224E0,-3.002992392E0,-8.774480820E0,-3.352344513E0
7.878905693E0,-2.969492912E0,-8.748159409E0,-3.333201885E0
7.883661109E0,-2.962314367E0,-8.757730484E0,-3.314059258E0
7.888416578E0,-2.957528830E0,-8.760123253E0,-3.297309637E0
7.893171995E0,-2.928814888E0,-8.769695282E0,-3.294916868E0
7.897927412E0,-2.919243574E0,-8.757730484E0,-3.268595695E0
7.902682880E0,-2.892922640E0,-8.784051895E0,-3.256631613E0
7.907438297E0,-2.900100946E0,-8.772088051E0,-3.254238844E0
7.912193766E0,-2.888136864E0,-8.784051895E0,-3.237488985E0
7.916949182E0,-2.878565550E0,-8.798408508E0,-3.247060299E0
7.921704651E0,-2.873780012E0,-8.815158844E0,-3.239881754E0
7.926460068E0,-2.885744095E0,-8.827122688E0,-3.247060299E0
7.931215537E0,-2.885744095E0,-8.846264839E0,-3.256631613E0
7.935970953E0,-2.880958557E0,-8.846264839E0,-3.259024382E0
7.940726422E0,-2.871387243E0,-8.831908226E0,-3.266202927E0
7.945481839E0,-2.890529871E0,-8.843872070E0,-3.259024382E0
7.950237307E0,-2.909672260E0,-8.827122688E0,-3.268595695E0
7.954992724E0,-2.883351326E0,-8.834300995E0,-3.261417150E0
7.959748141E0,-2.902493954E0,-8.855836868E0,-3.256631613E0
7.964503609E0,-2.909672260E0,-8.860622406E0,-3.244667530E0
7.969259078E0,-2.914458036E0,-8.829515457E0,-3.259024382E0
7.974014495E0,-2.890529871E0,-8.846264839E0,-3.273381472E0
7.978769912E0,-2.904886723E0,-8.831908226E0,-3.273381472E0
7.983525380E0,-2.892922640E0,-8.843872070E0,-3.270988464E0
7.988280797E0,-2.890529871E0,-8.810373306E0,-3.290131092E0
7.993036266E0,-2.885744095E0,-8.805587769E0,-3.278167009E0
7.997791682E0,-2.904886723E0,-8.793622971E0,-3.292523861E0
8.002547151E0,-2.921636343E0,-8.781659126E0,-3.285345554E0
8.007302568E0,-2.933600664E0,-8.760123253E0,-3.268595695E0
8.012058037E0,-2.945564747E0,-8.755337715E0,-3.287738323E0
8.016813453E0,-2.933600664E0,-8.757730484E0,-3.273381472E0
8.021568922E0,-2.969492912E0,-8.733802795E0,-3.290131092E0
8.026324339E0,-2.986242771E0,-8.721838951E0,-3.273381472E0
8.031079755E0,-3.010170937E0,-8.712266922E0,-3.266202927E0
8.035835224E0,-3.010170937E0,-8.700303078E0,-3.251846075E0
8.040590641E0,-3.031706333E0,-8.681160927E0,-3.244667530E0
8.045346109E0,-3.055634499E0,-8.678768158E0,-3.247060299E0
8.050101526E0,-3.058027267E0,-8.666803360E0,-3.244667530E0
8.054856995E0,-3.091526747E0,-8.678768158E0,-3.242274761E0
8.059612412E0,-3.077169895E0,-8.664410591E0,-3.242274761E0
8.064367880E0,-3.093919754E0,-8.664410591E0,-3.239881754E0
8.069123297E0,-3.127419233E0,-8.671588898E0,-3.227917671E0
8.073878766E0,-3.151347399E0,-8.683553696E0,-3.223132133E0
8.078634182E0,-3.115455151E0,-8.678768158E0,-3.201596737E0
8.083389651E0,-3.151347399E0,-8.681160927E0,-3.213560820E0
8.088145068E0,-3.156133175E0,-8.693124771E0,-3.211168051E0
8.092900537E0,-3.156133175E0,-8.705088615E0,-3.199203968E0
8.097655953E0,-3.151347399E0,-8.707481384E0,-3.206382275E0
8.102411422E0,-3.192025423E0,-8.697910309E0,-3.201596737E0
8.107166839E0,-3.206382275E0,-8.700303078E0,-3.220739365E0
8.111922307E0,-3.203989506E0,-8.697910309E0,-3.220739365E0
8.116677724E0,-3.199203968E0,-8.671588898E0,-3.227917671E0
8.121433193E0,-3.208775282E0,-8.676374435E0,-3.213560820E0
8.126188609E0,-3.201596737E0,-8.666803360E0,-3.232703447E0
8.130944026E0,-3.180061340E0,-8.685946465E0,-3.237488985E0
8.135699495E0,-3.180061340E0,-8.659625053E0,-3.237488985E0
8.140454912E0,-3.184846878E0,-8.688339233E0,-3.247060299E0
8.145210380E0,-3.177668571E0,-8.690732002E0,-3.259024382E0
8.149965797E0,-3.175275564E0,-8.697910309E0,-3.270988464E0
8.154721266E0,-3.165704250E0,-8.731410027E0,-3.273381472E0
8.159476682E0,-3.141776085E0,-8.729017258E0,-3.270988464E0
8.164232151E0,-3.125026464E0,-8.748159409E0,-3.280559778E0
8.168987568E0,-3.108276606E0,-8.750552177E0,-3.282952785E0
8.173743037E0,-3.089133978E0,-8.767302513E0,-3.318845034E0
8.178498453E0,-3.081955671E0,-8.757730484E0,-3.326023579E0
8.183253922E0,-3.069991350E0,-8.752944946E0,-3.345165968E0
8.188009339E0,-3.034099102E0,-8.743373871E0,-3.354737282E0
8.192764807E0,-3.017349243E0,-8.721838951E0,-3.357130051E0
8.197520224E0,-2.991028309E0,-8.714659691E0,-3.378665686E0
8.202275693E0,-2.952743053E0,-8.717052460E0,-3.397808075E0
8.207031109E0,-2.945564747E0,-8.700303078E0,-3.424129248E0
8.211786526E0,-2.938386202E0,-8.702695847E0,-3.416950703E0
8.216541995E0,-2.916850805E0,-8.695517540E0,-3.448057413E0
8.221297412E0,-2.935993433E0,-8.693124771E0,-3.462414265E0
8.226052880E0,-2.912065268E0,-8.702695847E0,-3.476771355E0
8.230808297E0,-2.947957516E0,-8.714659691E0,-3.481556892E0
8.235563766E0,-2.983849764E0,-8.700303078E0,-3.505485058E0
8.240319182E0,-2.974278450E0,-8.697910309E0,-3.503092289E0
8.245074651E0,-2.993421078E0,-8.681160927E0,-3.531806231E0
8.249830068E0,-3.026920557E0,-8.673981667E0,-3.538984776E0
8.254585537E0,-3.067598581E0,-8.659625053E0,-3.558127165E0
8.259340953E0,-3.067598581E0,-8.652446747E0,-3.570091486E0
8.264096422E0,-3.098705292E0,-8.662017822E0,-3.565305710E0
8.268851839E0,-3.113062143E0,-8.645268440E0,-3.596412420E0
8.273607307E0,-3.125026464E0,-8.657232285E0,-3.601198196E0
8.278362724E0,-3.125026464E0,-8.671588898E0,-3.586841106E0
8.283118193E0,-3.122633457E0,-8.685946465E0,-3.598805189E0
8.287873609E0,-3.144168854E0,-8.690732002E0,-3.589233875E0
8.292629078E0,-3.163311481E0,-8.714659691E0,-3.579662561E0
8.297384495E0,-3.151347399E0,-8.745766640E0,-3.570091486E0
8.302139912E0,-3.125026464E0,-8.738588333E0,-3.543770313E0
8.306895380E0,-3.108276606E0,-8.752944946E0,-3.527020693E0
8.311650797E0,-3.120240688E0,-8.784051895E0,-3.529413462E0
8.316406266E0,-3.103491068E0,-8.800801277E0,-3.524627686E0
8.321161682E0,-3.081955671E0,-8.834300995E0,-3.507878065E0
8.325917151E0,-3.046063185E0,-8.817551613E0,-3.493520975E0
8.330672568E0,-3.022135019E0,-8.815158844E0,-3.495913982E0
8.335428037E0,-2.986242771E0,-8.791230202E0,-3.474378586E0
8.340183453E0,-2.945564747E0,-8.784051895E0,-3.476771355E0
8.344938922E0,-2.952743053E0,-8.772088051E0,-3.455235958E0
8.349694339E0,-2.928814888E0,-8.772088051E0,-3.426522017E0
8.354449807E0,-2.959921598E0,-8.748159409E0,-3.404986620E0
8.359205224E0,-2.959921598E0,-8.731410027E0,-3.393022537E0
8.363960693E0,-2.971885681E0,-8.748159409E0,-3.366701365E0
8.368716109E0,-2.959921598E0,-8.740981102E0,-3.340380430E0
8.373471578E0,-2.969492912E0,-8.748159409E0,-3.333201885E0
8.378226995E0,-2.967100143E0,-8.740981102E0,-3.299702406E0
8.382982464E0,-2.955136061E0,-8.750552177E0,-3.304488182E0
8.387737880E0,-2.979064226E0,-8.731410027E0,-3.299702406E0
8.392493349E0,-2.967100143E0,-8.736195564E0,-3.297309637E0
8.397248766E0,-2.943171740E0,-8.740981102E0,-3.278167009E0
8.402004234E0,-2.950350285E0,-8.748159409E0,-3.280559778E0
8.406759651E0,-2.931207657E0,-8.764909744E0,-3.268595695E0
8.411515120E0,-2.902493954E0,-8.781659126E0,-3.266202927E0
8.416270537E0,-2.857030153E0,-8.779266357E0,-3.278167009E0
8.421026005E0,-2.866601467E0,-8.769695282E0,-3.268595695E0
8.425781422E0,-2.866601467E0,-8.798408508E0,-3.287738323E0
8.430536839E0,-2.845066071E0,-8.812766075E0,-3.287738323E0
8.435292307E0,-2.835494757E0,-8.824729919E0,-3.311666489E0
8.440047724E0,-2.837887764E0,-8.824729919E0,-3.323630571E0
8.444803193E0,-2.816352367E0,-8.817551613E0,-3.352344513E0
8.449558609E0,-2.828316450E0,-8.822337151E0,-3.361915827E0
8.454314078E0,-2.852244616E0,-8.824729919E0,-3.359523058E0
8.459069495E0,-2.828316450E0,-8.841479301E0,-3.381058455E0
8.463824964E0,-2.854637384E0,-8.803194046E0,-3.397808075E0
8.468580380E0,-2.864208698E0,-8.803194046E0,-3.419343472E0
8.473335849E0,-2.880958557E0,-8.760123253E0,-3.426522017E0
8.478091266E0,-2.912065268E0,-8.750552177E0,-3.443271875E0
8.482846734E0,-2.914458036E0,-8.729017258E0,-3.440878868E0
8.487602151E0,-2.945564747E0,-8.695517540E0,-3.460021496E0
8.492357620E0,-2.967100143E0,-8.690732002E0,-3.486342669E0
8.497113037E0,-2.983849764E0,-8.693124771E0,-3.493520975E0
8.501868505E0,-2.991028309E0,-8.669196129E0,-3.503092289E0
8.506623922E0,-3.026920557E0,-8.638090134E0,-3.522234917E0
8.511379391E0,-3.046063185E0,-8.664410591E0,-3.527020693E0
8.516134807E0,-3.079562664E0,-8.664410591E0,-3.522234917E0
8.520890276E0,-3.115455151E0,-8.650053978E0,-3.522234917E0
8.525645693E0,-3.146561861E0,-8.662017822E0,-3.510270834E0
8.530401162E0,-3.156133175E0,-8.652446747E0,-3.507878065E0
8.535156578E0,-3.156133175E0,-8.647661209E0,-3.486342669E0
8.539911995E0,-3.184846878E0,-8.618947029E0,-3.491128206E0
8.544667464E0,-3.199203968E0,-8.630910873E0,-3.495913982E0
8.549422880E0,-3.211168051E0,-8.599804878E0,-3.507878065E0
8.554178349E0,-3.211168051E0,-8.587840080E0,-3.512663603E0
8.558933766E0,-3.206382275E0,-8.587840080E0,-3.510270834E0
8.563689234E0,-3.189632654E0,-8.585447311E0,-3.531806231E0
8.568444651E0,-3.192025423E0,-8.595019341E0,-3.517449379E0
8.573200120E0,-3.208775282E0,-8.578269005E0,-3.517449379E0
8.577955537E0,-3.218346357E0,-8.606983185E0,-3.500699520E0
8.582711005E0,-3.223132133E0,-8.604590416E0,-3.495913982E0
8.587466422E0,-3.251846075E0,-8.609375954E0,-3.505485058E0
8.592221891E0,-3.247060299E0,-8.642875671E0,-3.527020693E0
8.596977307E0,-3.266202927E0,-8.633303642E0,-3.531806231E0
8.601732776E0,-3.285345554E0,-8.609375954E0,-3.534198999E0
8.606488193E0,-3.299702406E0,-8.614161491E0,-3.550948858E0
8.611243662E0,-3.292523861E0,-8.604590416E0,-3.555734396E0
8.615999078E0,-3.318845034E0,-8.614161491E0,-3.577269793E0
8.620754547E0,-3.311666489E0,-8.616554260E0,-3.582055569E0
8.625509964E0,-3.318845034E0,-8.609375954E0,-3.591626883E0
8.630265432E0,-3.321237803E0,-8.621339798E0,-3.582055569E0
8.635020849E0,-3.326023579E0,-8.611768723E0,-3.572484255E0
8.639776318E0,-3.318845034E0,-8.597412109E0,-3.560520172E0
8.644531734E0,-3.318845034E0,-8.611768723E0,-3.567698479E0
8.649287203E0,-3.309273720E0,-8.621339798E0,-3.565305710E0
8.654042620E0,-3.297309637E0,-8.633303642E0,-3.534198999E0
8.658798089E0,-3.278167009E0,-8.618947029E0,-3.534198999E0
8.663553505E0,-3.263810158E0,-8.630910873E0,-3.546163082E0
8.668308974E0,-3.247060299E0,-8.635697365E0,-3.558127165E0
8.673064391E0,-3.251846075E0,-8.645268440E0,-3.550948858E0
8.677819807E0,-3.254238844E0,-8.640482903E0,-3.560520172E0
8.682575276E0,-3.270988464E0,-8.654839516E0,-3.562912941E0
8.687330693E0,-3.302095175E0,-8.642875671E0,-3.574877024E0
8.692086162E0,-3.290131092E0,-8.628518105E0,-3.543770313E0
8.696841578E0,-3.275774240E0,-8.604590416E0,-3.531806231E0
8.701597047E0,-3.275774240E0,-8.590232849E0,-3.531806231E0
8.706352464E0,-3.280559778E0,-8.573483467E0,-3.491128206E0
8.711107932E0,-3.249453068E0,-8.563912392E0,-3.481556892E0
8.715863349E0,-3.239881754E0,-8.547162056E0,-3.474378586E0
8.720618818E0,-3.218346357E0,-8.549555779E0,-3.474378586E0
8.725374234E0,-3.194418192E0,-8.532805443E0,-3.469592810E0
8.730129703E0,-3.160918713E0,-8.539983749E0,-3.491128206E0
8.734885120E0,-3.148954630E0,-8.575876236E0,-3.507878065E0
8.739640589E0,-3.117847919E0,-8.575876236E0,-3.493520975E0
8.744396005E0,-3.108276606E0,-8.606983185E0,-3.493520975E0
8.749151474E0,-3.091526747E0,-8.623732567E0,-3.500699520E0
8.753906891E0,-3.093919754E0,-8.635697365E0,-3.498306751E0
8.758662359E0,-3.101098061E0,-8.662017822E0,-3.483949661E0
8.763417776E0,-3.089133978E0,-8.681160927E0,-3.481556892E0
8.768173245E0,-3.079562664E0,-8.702695847E0,-3.457628727E0
8.772928662E0,-3.074777126E0,-8.707481384E0,-3.431307554E0
8.777684130E0,-3.079562664E0,-8.702695847E0,-3.421736479E0
8.782439547E0,-3.103491068E0,-8.688339233E0,-3.409772158E0
8.787194964E0,-3.108276606E0,-8.690732002E0,-3.397808075E0
8.791950432E0,-3.132204771E0,-8.693124771E0,-3.381058455E0
8.796705849E0,-3.120240688E0,-8.685946465E0,-3.397808075E0
8.801461318E0,-3.129812002E0,-8.664410591E0,-3.404986620E0
8.806216734E0,-3.117847919E0,-8.650053978E0,-3.400201082E0
8.810972203E0,-3.101098061E0,-8.621339798E0,-3.395415306E0
8.815727620E0,-3.091526747E0,-8.635697365E0,-3.397808075E0
8.820483089E0,-3.072384357E0,-8.635697365E0,-3.424129248E0
8.825238505E0,-3.069991350E0,-8.633303642E0,-3.421736479E0
8.829993974E0,-3.046063185E0,-8.654839516E0,-3.407379389E0
8.834749391E0,-2.998206854E0,-8.642875671E0,-3.419343472E0
8.839504859E0,-3.014956474E0,-8.642875671E0,-3.400201082E0
8.844260276E0,-2.986242771E0,-8.638090134E0,-3.424129248E0
8.849015745E0,-2.981456995E0,-8.681160927E0,-3.412165165E0
8.853771162E0,-2.952743053E0,-8.688339233E0,-3.412165165E0
8.858526630E0,-2.931207657E0,-8.702695847E0,-3.419343472E0
8.863282047E0,-2.952743053E0,-8.738588333E0,-3.407379389E0
8.868037516E0,-2.926422119E0,-8.733802795E0,-3.419343472E0
8.872792932E0,-2.959921598E0,-8.757730484E0,-3.426522017E0
8.877548401E0,-2.969492912E0,-8.762516975E0,-3.443271875E0
8.882303818E0,-2.998206854E0,-8.769695282E0,-3.448057413E0
8.887059234E0,-3.002992392E0,-8.776873589E0,-3.455235958E0
8.891814703E0,-3.043670416E0,-8.776873589E0,-3.445664644E0
8.896570172E0,-3.086741209E0,-8.755337715E0,-3.445664644E0
8.901325589E0,-3.122633457E0,-8.748159409E0,-3.443271875E0
8.906081005E0,-3.165704250E0,-8.729017258E0,-3.436093330E0
8.910836474E0,-3.182454109E0,-8.695517540E0,-3.404986620E0
8.915591891E0,-3.208775282E0,-8.683553696E0,-3.381058455E0
8.920347359E0,-3.230310678E0,-8.654839516E0,-3.354737282E0
8.925102776E0,-3.239881754E0,-8.630910873E0,-3.340380430E0
8.929858245E0,-3.249453068E0,-8.595019341E0,-3.333201885E0
8.934613662E0,-3.266202927E0,-8.580661774E0,-3.321237803E0
8.939369130E0,-3.259024382E0,-8.544769287E0,-3.321237803E0
8.944124547E0,-3.244667530E0,-8.539983749E0,-3.321237803E0
8.948880016E0,-3.261417150E0,-8.549555779E0,-3.326023579E0
8.953635432E0,-3.275774240E0,-8.523234367E0,-3.314059258E0
8.958390901E0,-3.273381472E0,-8.532805443E0,-3.321237803E0
8.963146318E0,-3.266202927E0,-8.532805443E0,-3.335594654E0
8.967901787E0,-3.280559778E0,-8.563912392E0,-3.328416348E0
8.972657203E0,-3.275774240E0,-8.578269005E0,-3.347558975E0
8.977412672E0,-3.290131092E0,-8.592626572E0,-3.328416348E0
8.982168089E0,-3.290131092E0,-8.626125336E0,-3.326023579E0
8.986923505E0,-3.318845034E0,-8.659625053E0,-3.337987661E0
8.991678974E0,-3.304488182E0,-8.681160927E0,-3.323630571E0
8.996434391E0,-3.294916868E0,-8.666803360E0,-3.316452265E0
9.001189859E0,-3.316452265E0,-8.695517540E0,-3.292523861E0
9.005945276E0,-3.304488182E0,-8.700303078E0,-3.299702406E0
9.010700745E0,-3.299702406E0,-8.714659691E0,-3.311666489E0
9.015456162E0,-3.266202927E0,-8.702695847E0,-3.304488182E0
9.020211630E0,-3.275774240E0,-8.683553696E0,-3.304488182E0
9.024967047E0,-3.247060299E0,-8.705088615E0,-3.314059258E0
9.029722516E0,-3.237488985E0,-8.678768158E0,-3.304488182E0
9.034477932E0,-3.215953588E0,-8.664410591E0,-3.306880951E0
9.039233401E0,-3.160918713E0,-8.676374435E0,-3.299702406E0
9.043988818E0,-3.139383316E0,-8.683553696E0,-3.311666489E0
9.048744287E0,-3.108276606E0,-8.683553696E0,-3.302095175E0
9.053499703E0,-3.079562664E0,-8.702695847E0,-3.299702406E0
9.058255120E0,-3.077169895E0,-8.695517540E0,-3.316452265E0
9.063010589E0,-3.050848961E0,-8.721838951E0,-3.294916868E0
9.067766005E0,-3.050848961E0,-8.712266922E0,-3.309273720E0
9.072521474E0,-3.034099102E0,-8.726624489E0,-3.304488182E0
9.077276891E0,-3.024527788E0,-8.743373871E0,-3.316452265E0
9.082032359E0,-3.053241730E0,-8.745766640E0,-3.299702406E0
9.086787776E0,-3.036491871E0,-8.784051895E0,-3.311666489E0
9.091543245E0,-3.000599623E0,-8.769695282E0,-3.316452265E0
9.096298662E0,-3.017349243E0,-8.805587769E0,-3.328416348E0
9.101054130E0,-3.022135019E0,-8.800801277E0,-3.330809116E0
9.105809547E0,-3.007778168E0,-8.815158844E0,-3.304488182E0
9.110565016E0,-3.017349243E0,-8.827122688E0,-3.316452265E0
9.115320432E0,-3.024527788E0,-8.839086533E0,-3.316452265E0
9.120075901E0,-3.041277647E0,-8.843872070E0,-3.328416348E0
9.124831318E0,-3.022135019E0,-8.843872070E0,-3.337987661E0
9.129586787E0,-3.043670416E0,-8.870193481E0,-3.340380430E0
9.134342203E0,-3.031706333E0,-8.901300430E0,-3.340380430E0
9.139097620E0,-3.048455954E0,-8.930013657E0,-3.347558975E0
9.143853089E0,-3.089133978E0,-8.920442581E0,-3.361915827E0
9.148608505E0,-3.055634499E0,-8.941978455E0,-3.357130051E0
9.153363974E0,-3.084348440E0,-8.939585686E0,-3.345165968E0
9.158119391E0,-3.081955671E0,-8.958727837E0,-3.352344513E0
9.162874859E0,-3.067598581E0,-8.961120605E0,-3.335594654E0
9.167630276E0,-3.074777126E0,-8.946763992E0,-3.357130051E0
9.172385745E0,-3.062813044E0,-8.913264275E0,-3.352344513E0
9.177141162E0,-3.060420275E0,-8.901300430E0,-3.347558975E0
9.181896630E0,-3.062813044E0,-8.901300430E0,-3.345165968E0
9.186652047E0,-3.065205812E0,-8.858229637E0,-3.330809116E0
9.191407516E0,-3.055634499E0,-8.800801277E0,-3.321237803E0
9.196162932E0,-3.060420275E0,-8.776873589E0,-3.306880951E0
9.200918349E0,-3.058027267E0,-8.762516975E0,-3.280559778E0
9.205673818E0,-3.046063185E0,-8.717052460E0,-3.244667530E0
9.210429234E0,-3.012563705E0,-8.695517540E0,-3.192025423E0
9.215184703E0,-3.000599623E0,-8.673981667E0,-3.172882795E0
9.219940120E0,-2.983849764E0,-8.633303642E0,-3.151347399E0
9.224695589E0,-2.957528830E0,-8.623732567E0,-3.122633457E0
9.229451005E0,-2.976671457E0,-8.590232849E0,-3.132204771E0
9.234206474E0,-2.988635540E0,-8.585447311E0,-3.134597778E0
9.238961891E0,-2.988635540E0,-8.568697929E0,-3.136990547E0
9.243717359E0,-2.979064226E0,-8.568697929E0,-3.151347399E0
9.248472776E0,-2.986242771E0,-8.585447311E0,-3.172882795E0
9.253228245E0,-3.002992392E0,-8.578269005E0,-3.201596737E0
9.257983662E0,-2.988635540E0,-8.623732567E0,-3.225524902E0
9.262739078E0,-3.019742250E0,-8.602197647E0,-3.232703447E0
9.267494547E0,-3.050848961E0,-8.614161491E0,-3.244667530E0
9.272249964E0,-3.029313564E0,-8.618947029E0,-3.244667530E0
9.277005432E0,-3.046063185E0,-8.621339798E0,-3.263810158E0
9.281760849E0,-3.062813044E0,-8.630910873E0,-3.254238844E0
9.286516318E0,-3.065205812E0,-8.633303642E0,-3.263810158E0
9.291271734E0,-3.067598581E0,-8.630910873E0,-3.290131092E0
9.296027203E0,-3.086741209E0,-8.638090134E0,-3.309273720E0
9.300782620E0,-3.084348440E0,-8.642875671E0,-3.328416348E0
9.305538089E0,-3.067598581E0,-8.659625053E0,-3.335594654E0
9.310293505E0,-3.072384357E0,-8.635697365E0,-3.357130051E0
9.315048974E0,-3.098705292E0,-8.671588898E0,-3.381058455E0
9.319804391E0,-3.113062143E0,-8.664410591E0,-3.390629768E0
9.324559807E0,-3.105883837E0,-8.681160927E0,-3.400201082E0
9.329315276E0,-3.129812002E0,-8.676374435E0,-3.421736479E0
9.334070693E0,-3.122633457E0,-8.676374435E0,-3.424129248E0
9.338826162E0,-3.136990547E0,-8.654839516E0,-3.414557934E0
9.343581578E0,-3.177668571E0,-8.638090134E0,-3.414557934E0
9.348337047E0,-3.192025423E0,-8.618947029E0,-3.440878868E0
9.353092464E0,-3.220739365E0,-8.604590416E0,-3.443271875E0
9.357847932E0,-3.230310678E0,-8.575876236E0,-3.436093330E0
9.362603349E0,-3.263810158E0,-8.592626572E0,-3.448057413E0
9.367358766E0,-3.268595695E0,-8.580661774E0,-3.428914785E0
9.372114234E0,-3.263810158E0,-8.571090698E0,-3.443271875E0
9.376869651E0,-3.261417150E0,-8.561519623E0,-3.443271875E0
9.381625120E0,-3.256631613E0,-8.585447311E0,-3.443271875E0
9.386380537E0,-3.227917671E0,-8.592626572E0,-3.438486099E0
9.391136005E0,-3.232703447E0,-8.611768723E0,-3.440878868E0
9.395891422E0,-3.203989506E0,-8.614161491E0,-3.460021496E0
9.400646891E0,-3.170490026E0,-8.652446747E0,-3.438486099E0
9.405402307E0,-3.160918713E0,-8.659625053E0,-3.433700562E0
9.410157776E0,-3.125026464E0,-8.657232285E0,-3.426522017E0
9.414913193E0,-3.113062143E0,-8.681160927E0,-3.424129248E0
9.419668609E0,-3.103491068E0,-8.671588898E0,-3.426522017E0
9.424424078E0,-3.086741209E0,-8.676374435E0,-3.400201082E0
9.429179495E0,-3.091526747E0,-8.650053978E0,-3.402593851E0
9.433934964E0,-3.117847919E0,-8.659625053E0,-3.378665686E0
9.438690380E0,-3.108276606E0,-8.614161491E0,-3.383451223E0
9.443445849E0,-3.141776085E0,-8.611768723E0,-3.376272678E0
9.448201266E0,-3.136990547E0,-8.587840080E0,-3.373879910E0
9.452956734E0,-3.151347399E0,-8.571090698E0,-3.369094372E0
9.457712151E0,-3.148954630E0,-8.583054543E0,-3.395415306E0
9.462467568E0,-3.165704250E0,-8.599804878E0,-3.383451223E0
9.467223037E0,-3.170490026E0,-8.616554260E0,-3.402593851E0
9.471978453E0,-3.172882795E0,-8.654839516E0,-3.409772158E0
9.476733922E0,-3.175275564E0,-8.685946465E0,-3.414557934E0
9.481489339E0,-3.163311481E0,-8.707481384E0,-3.416950703E0
9.486244807E0,-3.180061340E0,-8.745766640E0,-3.433700562E0
9.491000224E0,-3.160918713E0,-8.786444664E0,-3.440878868E0
9.495755693E0,-3.141776085E0,-8.815158844E0,-3.460021496E0
9.500511109E0,-3.156133175E0,-8.831908226E0,-3.481556892E0
9.505266578E0,-3.148954630E0,-8.858229637E0,-3.491128206E0
9.510021995E0,-3.156133175E0,-8.841479301E0,-3.505485058E0
9.514777412E0,-3.168097258E0,-8.824729919E0,-3.522234917E0
9.519532880E0,-3.163311481E0,-8.807980537E0,-3.503092289E0
9.524288297E0,-3.153740168E0,-8.769695282E0,-3.488735437E0
9.529043766E0,-3.151347399E0,-8.760123253E0,-3.486342669E0
9.533799182E0,-3.148954630E0,-8.738588333E0,-3.488735437E0
9.538554651E0,-3.122633457E0,-8.738588333E0,-3.476771355E0
9.543310068E0,-3.098705292E0,-8.719446182E0,-3.471985579E0
9.548065537E0,-3.079562664E0,-8.719446182E0,-3.469592810E0
9.552820953E0,-3.065205812E0,-8.709874153E0,-3.481556892E0
9.557576370E0,-3.053241730E0,-8.726624489E0,-3.503092289E0
9.562331839E0,-3.031706333E0,-8.721838951E0,-3.495913982E0
9.567087255E0,-2.993421078E0,-8.764909744E0,-3.500699520E0
9.571842724E0,-2.964707375E0,-8.776873589E0,-3.486342669E0
9.576598141E0,-2.933600664E0,-8.774480820E0,-3.483949661E0
9.581353609E0,-2.904886723E0,-8.788837433E0,-3.495913982E0
9.586109026E0,-2.880958557E0,-8.786444664E0,-3.488735437E0
9.590864443E0,-2.852244616E0,-8.791230202E0,-3.493520975E0
9.595619912E0,-2.821137905E0,-8.784051895E0,-3.488735437E0
9.600375328E0,-2.842673302E0,-8.791230202E0,-3.479164124E0
9.605130797E0,-2.828316450E0,-8.796015739E0,-3.457628727E0
9.609886214E0,-2.823530674E0,-8.776873589E0,-3.464807272E0
9.614641682E0,-2.842673302E0,-8.796015739E0,-3.460021496E0
9.619397099E0,-2.861815929E0,-8.793622971E0,-3.460021496E0
9.624152568E0,-2.868994236E0,-8.779266357E0,-3.462414265E0
9.628907984E0,-2.890529871E0,-8.764909744E0,-3.450450182E0
9.633663401E0,-2.916850805E0,-8.721838951E0,-3.457628727E0
9.638418870E0,-2.950350285E0,-8.733802795E0,-3.462414265E0
9.643174287E0,-2.967100143E0,-8.709874153E0,-3.448057413E0
9.647929755E0,-2.983849764E0,-8.712266922E0,-3.450450182E0
9.652685172E0,-3.022135019E0,-8.695517540E0,-3.443271875E0
9.657440641E0,-3.048455954E0,-8.685946465E0,-3.438486099E0
9.662196057E0,-3.093919754E0,-8.678768158E0,-3.431307554E0
9.666951526E0,-3.108276606E0,-8.659625053E0,-3.438486099E0
9.671706943E0,-3.139383316E0,-8.652446747E0,-3.431307554E0
