"Time (s)","Acceleration x (m/s^2)","Acceleration y (m/s^2)","Acceleration z (m/s^2)"
1.942522000E-2,-8.020575643E-1,5.126285076E0,7.199663639E0
2.142522000E-2,-8.307880163E-1,5.030517101E0,7.192481041E0
2.342522000E-2,-9.074024558E-1,4.881777287E0,7.178115845E0
2.542572000E-2,-1.007958889E0,4.757278919E0,7.173327446E0
2.742205300E-2,-1.058237195E0,4.695029736E0,7.163750648E0
2.941555300E-2,-1.144428372E0,4.618414879E0,7.154173851E0
3.141335300E-2,-1.168370485E0,4.575319290E0,7.142202854E0
3.341351900E-2,-1.185129881E0,4.558559895E0,7.127837658E0
3.541366100E-2,-1.197100878E0,4.548983097E0,7.084742069E0
3.741128600E-2,-1.201889277E0,4.553771496E0,7.065588474E0
3.941139700E-2,-1.225831270E0,4.560954094E0,7.022492886E0
4.141139700E-2,-1.240196466E0,4.553771496E0,6.953061104E0
4.341139700E-2,-1.221042871E0,4.548983097E0,6.919542313E0
4.541139700E-2,-1.185129881E0,4.553771496E0,6.864475727E0
4.741139700E-2,-1.137245774E0,4.548983097E0,6.807014942E0
4.941139700E-2,-1.115697980E0,4.537012100E0,6.773495674E0
5.141139700E-2,-1.079784989E0,4.498704910E0,6.723217487E0
5.341139700E-2,-1.012747288E0,4.472368717E0,6.706458092E0
5.541139700E-2,-9.768342972E-1,4.448426723E0,6.675333500E0
5.741139700E-2,-9.050082564E-1,4.410119534E0,6.629843712E0
5.941139700E-2,-8.140285611E-1,4.350264549E0,6.601113319E0
6.141079700E-2,-7.709329724E-1,4.323928356E0,6.574777126E0
6.341093900E-2,-6.751648784E-1,4.295197964E0,6.519710541E0
6.541093900E-2,-6.512228847E-1,4.288015366E0,6.505345345E0
6.741093900E-2,-5.746083856E-1,4.252102375E0,6.493374348E0
6.941093900E-2,-4.908113480E-1,4.225766182E0,6.481403351E0
7.141097900E-2,-4.501099288E-1,4.223371983E0,6.481403351E0
7.341101700E-2,-3.663128614E-1,4.254496574E0,6.505345345E0
7.541105400E-2,-2.801215947E-1,4.271255970E0,6.543652534E0
7.741108900E-2,-2.394201756E-1,4.271255970E0,6.572382927E0
7.941112300E-2,-1.747767180E-1,4.252102375E0,6.641814709E0
8.141115600E-2,-1.173158810E-1,4.249708176E0,6.708852291E0
8.341118900E-2,-8.379705995E-2,4.225766182E0,6.737582684E0
8.541118900E-2,-3.112462163E-2,4.137180328E0,6.783072472E0
8.741155500E-2,-9.576806799E-3,4.082113743E0,6.807014942E0
8.941242100E-2,8.140286058E-2,3.926490784E0,6.833351135E0
9.141278700E-2,1.436520964E-1,3.749319792E0,6.835745335E0
9.341275300E-2,1.723825186E-1,3.655946016E0,6.826168537E0
9.541271900E-2,2.154781520E-1,3.462015629E0,6.814197540E0
9.741335200E-2,2.681505978E-1,3.299209833E0,6.783072472E0
9.941331800E-2,2.992752194E-1,3.224989653E0,6.773495674E0
1.014133180E-1,3.543418646E-1,3.078943491E0,6.730400085E0
1.034133180E-1,4.118026793E-1,2.980781078E0,6.684910297E0
1.054133180E-1,4.357447028E-1,2.937685490E0,6.656179905E0
1.074133180E-1,4.932055473E-1,2.856282711E0,6.598719120E0
1.094133180E-1,5.458779931E-1,2.806004286E0,6.524498940E0
1.114133180E-1,5.770025849E-1,2.724601507E0,6.495768547E0
1.134133180E-1,6.105214357E-1,2.604891539E0,6.431125164E0
1.154133180E-1,6.177040339E-1,2.545036316E0,6.380846977E0
1.174144180E-1,6.368576288E-1,2.432508945E0,6.287472725E0
1.194144510E-1,7.038952708E-1,2.353500366E0,6.162974358E0
1.214148840E-1,7.422025204E-1,2.319981337E0,6.115090370E0
1.234148170E-1,8.068459630E-1,2.229001760E0,5.997774601E0
1.254148500E-1,8.523358107E-1,2.138022184E0,5.882853031E0
1.274148830E-1,8.786720037E-1,2.097320795E0,5.815814972E0
1.294149160E-1,9.576807022E-1,2.037465572E0,5.655403614E0
1.314149160E-1,1.027112484E0,1.977610588E0,5.540482044E0
1.334149160E-1,1.065419793E0,1.948880196E0,5.473444462E0
1.354148820E-1,1.139639974E0,1.865083098E0,5.380070686E0
1.374148480E-1,1.197100878E0,1.826775908E0,5.329792023E0
1.394148140E-1,1.235408068E0,1.752555609E0,5.236418247E0
1.414147800E-1,1.261744261E0,1.625662923E0,5.143044472E0
1.434147460E-1,1.290474772E0,1.553836942E0,5.087977886E0
1.454147120E-1,1.312022567E0,1.381454349E0,4.992209911E0
1.474147120E-1,1.312022567E0,1.221042871E0,4.901230335E0
1.494147450E-1,1.314416766E0,1.154005170E0,4.857835293E0
1.514147780E-1,1.273715258E0,9.935936928E-1,4.800374508E0
1.534148110E-1,1.242590666E0,8.331822157E-1,4.742913723E0
1.554148440E-1,1.201889277E0,7.709329724E-1,4.707000732E0
1.574148770E-1,1.110909581E0,6.512228847E-1,4.649539471E0
1.594149100E-1,1.010353088E0,5.171475410E-1,4.599261284E0
1.614149430E-1,9.624691010E-1,4.620809257E-1,4.570530891E0
1.634149760E-1,8.307880163E-1,3.711012602E-1,4.510675907E0
1.654149760E-1,7.565677166E-1,3.280056417E-1,4.477157116E0
1.674149760E-1,6.129156351E-1,2.466027737E-1,4.402936935E0
1.694149760E-1,4.381389022E-1,1.771709323E-1,4.307168961E0
1.714149760E-1,3.423708379E-1,1.268926859E-1,4.252102375E0
1.734149760E-1,1.268926859E-1,2.873042040E-2,4.132391930E0
1.754149760E-1,-5.506663769E-2,-1.077390760E-1,4.012681961E0
1.774138760E-1,-1.292868853E-1,-1.771709323E-1,3.952826977E0
1.794138420E-1,-2.825157940E-1,-3.351882398E-1,3.813963413E0
1.814138080E-1,-4.357447028E-1,-5.315127969E-1,3.691859007E0
1.834137740E-1,-4.979939461E-1,-6.464344859E-1,3.643975019E0
1.854137400E-1,-6.224924326E-1,-8.475474119E-1,3.560178041E0
1.874137060E-1,-7.469909191E-1,-1.051054597E0,3.517082214E0
1.894136720E-1,-8.140285611E-1,-1.163581967E0,3.497928619E0
1.914136380E-1,-9.624691010E-1,-1.383848548E0,3.483563423E0
1.934136040E-1,-1.039083481E0,-1.501164436E0,3.488351822E0
1.954136040E-1,-1.175553083E0,-1.752555609E0,3.490746021E0
1.974136370E-1,-1.273715258E0,-1.987187386E0,3.529053211E0
1.994136700E-1,-1.312022567E0,-2.221819162E0,3.591302633E0
2.014137030E-1,-1.350329757E0,-2.329558372E0,3.624821424E0
2.034137360E-1,-1.405396342E0,-2.559401512E0,3.708618402E0
2.054137690E-1,-1.405396342E0,-2.655169725E0,3.751713991E0
2.074138020E-1,-1.429338455E0,-2.853888512E0,3.825934410E0
2.094138020E-1,-1.426944256E0,-3.047818661E0,3.931279182E0
2.114138020E-1,-1.434126854E0,-3.138798475E0,3.986345768E0
2.134135680E-1,-1.470039845E0,-3.318363667E0,4.103661537E0
2.154135340E-1,-1.517923832E0,-3.399766445E0,4.237737179E0
2.174135000E-1,-1.553836942E0,-3.550601006E0,4.314351559E0
2.194134660E-1,-1.625662923E0,-3.672705412E0,4.465186119E0
2.214134320E-1,-1.649604917E0,-3.732560396E0,4.537012100E0
2.234133980E-1,-1.666364431E0,-3.842693806E0,4.716577530E0
2.254133980E-1,-1.654393315E0,-3.902548790E0,4.937143326E0
2.274134310E-1,-1.630451322E0,-3.919308186E0,5.056853294E0
2.294134640E-1,-1.580173135E0,-3.933673382E0,5.313032627E0
2.314134970E-1,-1.493981838E0,-3.931279182E0,5.566818237E0
2.334135300E-1,-1.422155857E0,-3.945644379E0,5.700893402E0
2.354135630E-1,-1.292868972E0,-3.933673382E0,5.957073212E0
2.374135960E-1,-1.115697980E0,-3.928884983E0,6.225223541E0
2.394136290E-1,-1.019929886E0,-3.916913986E0,6.342539787E0
2.414132950E-1,-8.068459630E-1,-3.902548790E0,6.579565525E0
2.434132950E-1,-6.105214357E-1,-3.904942989E0,6.696881294E0
2.454132950E-1,-5.171475410E-1,-3.921702385E0,6.931513309E0
2.474132950E-1,-3.782838583E-1,-3.938461781E0,7.135020256E0
2.494132950E-1,-3.256114423E-1,-3.964797974E0,7.233182430E0
2.514132950E-1,-2.513911724E-1,-4.007893562E0,7.429507256E0
2.534129280E-1,-1.987187415E-1,-4.089296341E0,7.609072208E0
2.554129280E-1,-1.771709323E-1,-4.144362926E0,7.697657585E0
2.574128940E-1,-1.388636976E-1,-4.273650169E0,7.858069420E0
2.594128600E-1,-1.029506698E-1,-4.443638325E0,8.006509781E0
2.614128260E-1,-1.077390760E-1,-4.534617901E0,8.071153641E0
2.634127920E-1,-1.364694983E-1,-4.733336926E0,8.174103737E0
2.654123580E-1,-1.987187415E-1,-4.906018734E0,8.265083313E0
2.674123240E-1,-2.489969730E-1,-4.999392509E0,8.303390503E0
2.694122900E-1,-3.926490843E-1,-5.155015469E0,8.360851288E0
2.714122560E-1,-4.764461517E-1,-5.222053051E0,8.382399559E0
2.734124560E-1,-6.607996821E-1,-5.329792023E0,8.411129951E0
2.754124890E-1,-8.499416113E-1,-5.420772076E0,8.425495148E0
2.774125220E-1,-9.385270476E-1,-5.459079266E0,8.423100471E0
2.794125550E-1,-1.091755986E0,-5.523722649E0,8.418312073E0
2.814125880E-1,-1.252167463E0,-5.585971832E0,8.394370079E0
2.834126210E-1,-1.333570361E0,-5.614702225E0,8.375216484E0
2.854126540E-1,-1.489193439E0,-5.698499203E0,8.303390503E0
2.874126540E-1,-1.618480325E0,-5.755959988E0,8.202834129E0
2.894126540E-1,-1.687912226E0,-5.794267178E0,8.150161743E0
2.914126200E-1,-1.817199111E0,-5.868487835E0,8.018480301E0
2.934121860E-1,-1.941697598E0,-5.913977623E0,7.831733227E0
2.954121520E-1,-2.011129379E0,-5.949890614E0,7.738358974E0
2.974121180E-1,-2.145204782E0,-6.024110794E0,7.549217224E0
2.994120840E-1,-2.281674147E0,-6.083965778E0,7.319374084E0
3.014124170E-1,-2.355894566E0,-6.105513573E0,7.209240437E0
3.034124170E-1,-2.518700123E0,-6.155791759E0,6.986579895E0
3.054124500E-1,-2.616862535E0,-6.182127953E0,6.883629322E0
3.074124830E-1,-2.808398485E0,-6.225223541E0,6.680121899E0
3.094125160E-1,-2.992752075E0,-6.275501728E0,6.510133743E0
3.114125490E-1,-3.090914488E0,-6.294655323E0,6.450278759E0
3.134129490E-1,-3.318363667E0,-6.373664379E0,6.373664379E0
3.154129820E-1,-3.533841610E0,-6.469432354E0,6.356904984E0
3.174130150E-1,-3.670311213E0,-6.524498940E0,6.366481781E0
3.194138810E-1,-3.943250179E0,-6.622661114E0,6.431125164E0
3.214138810E-1,-4.225766182E0,-6.689698696E0,6.526893139E0
3.234138810E-1,-4.352658749E0,-6.840533733E0,6.574777126E0
3.254142810E-1,-4.565742493E0,-6.986579895E0,6.706458092E0
3.274142810E-1,-4.654327869E0,-7.072771072E0,6.783072472E0
3.294142810E-1,-4.817133904E0,-7.269095421E0,6.909965515E0
3.314141810E-1,-4.913201332E0,-7.472602844E0,7.048829079E0
3.334141810E-1,-4.939537525E0,-7.587524414E0,7.103895664E0
3.354141470E-1,-4.973056316E0,-7.817368031E0,7.180510044E0
3.374141130E-1,-4.994604111E0,-7.996932983E0,7.240365028E0
3.394140790E-1,-4.982633114E0,-8.075942039E0,7.259518623E0
3.414140450E-1,-4.946720123E0,-8.245929718E0,7.283460617E0
3.434140110E-1,-4.896441936E0,-8.408735275E0,7.276278019E0
3.454139770E-1,-4.867412090E0,-8.487744331E0,7.269095421E0
3.474139430E-1,-4.872200489E0,-8.624214172E0,7.266701221E0
3.494139090E-1,-4.845864296E0,-8.705616951E0,7.269095421E0
3.514139090E-1,-4.869806290E0,-8.818143845E0,7.295432091E0
3.534143420E-1,-4.917989731E0,-8.913911819E0,7.345710278E0
3.554143750E-1,-4.944325924E0,-8.949825287E0,7.379229069E0
3.574144080E-1,-5.006575108E0,-9.000102997E0,7.489362240E0
3.594144410E-1,-5.111919880E0,-9.002497673E0,7.628225803E0
3.614144740E-1,-5.166986465E0,-9.002497673E0,7.719205379E0
3.634145070E-1,-5.296273232E0,-8.978555679E0,7.908347607E0
3.654145070E-1,-5.437531471E0,-9.000102997E0,8.109460831E0
3.674145070E-1,-5.533299446E0,-9.026439667E0,8.219594002E0
3.694144730E-1,-5.691316605E0,-9.074323654E0,8.473379135E0
3.714144390E-1,-5.806238174E0,-9.172486305E0,8.736741066E0
3.734144050E-1,-5.854122639E0,-9.237129211E0,8.866027832E0
3.754143710E-1,-5.952284813E0,-9.356839180E0,9.110237122E0
3.774143370E-1,-6.007351398E0,-9.421483040E0,9.217975616E0
3.794134700E-1,-6.110301971E0,-9.555558205E0,9.438241959E0
3.814134700E-1,-6.218040943E0,-9.687239647E0,9.636960983E0
3.834134700E-1,-6.261136532E0,-9.754277229E0,9.727940559E0
3.854135030E-1,-6.344933987E0,-9.847650528E0,9.871592522E0
3.874135360E-1,-6.440701962E0,-9.945813179E0,1.000806236E1
3.894135690E-1,-6.514922142E0,-1.000806236E1,1.007509995E1
3.914137020E-1,-6.627449512E0,-1.012537861E1,1.022354031E1
3.934137350E-1,-6.766313076E0,-1.024030018E1,1.036719227E1
3.954137680E-1,-6.862081528E0,-1.028100109E1,1.042704773E1
3.974138010E-1,-7.053617477E0,-1.035043335E1,1.056112289E1
3.994138010E-1,-7.293037415E0,-1.037916374E1,1.069280434E1
4.014135010E-1,-7.427113056E0,-1.039113426E1,1.075265884E1
4.034135010E-1,-7.688080788E0,-1.035522175E1,1.085800362E1
4.054135010E-1,-7.803002834E0,-1.029536629E1,1.089391708E1
4.074135010E-1,-7.992144585E0,-1.017565632E1,1.092504120E1
4.094138010E-1,-8.157344818E0,-1.003439903E1,1.089631081E1
4.114138010E-1,-8.233959198E0,-9.974543571E0,1.087955189E1
4.134137670E-1,-8.341697693E0,-9.857227325E0,1.082927322E1
4.154137330E-1,-8.437465668E0,-9.768642426E0,1.076223564E1
4.174136990E-1,-8.470984459E0,-9.744700432E0,1.072392845E1
4.194136650E-1,-8.523657799E0,-9.718363762E0,1.065210247E1
4.214136310E-1,-8.540416718E0,-9.737517357E0,1.064731407E1
4.234131970E-1,-8.540416718E0,-9.759065628E0,1.064252567E1
4.254127630E-1,-8.523657799E0,-9.840468407E0,1.062816048E1
4.274127290E-1,-8.521263123E0,-9.876380920E0,1.063534355E1
4.294127290E-1,-8.514080048E0,-9.979331970E0,1.063294888E1
4.314127620E-1,-8.497321129E0,-1.012777233E1,1.061858368E1
4.334127950E-1,-8.490138054E0,-1.021156979E1,1.060421848E1
4.354128280E-1,-8.494926453E0,-1.036240387E1,1.057309437E1
4.374128610E-1,-8.538022995E0,-1.050845051E1,1.052042198E1
4.394128940E-1,-8.552388191E0,-1.064252567E1,1.044380665E1
4.414129270E-1,-8.559570312E0,-1.069759274E1,1.038874054E1
4.434129600E-1,-8.624214172E0,-1.081730270E1,1.024030018E1
4.454129600E-1,-8.652944565E0,-1.086997509E1,1.016129112E1
4.474128600E-1,-8.729558945E0,-1.098010826E1,9.993697166E0
4.494128260E-1,-8.854057312E0,-1.104475212E1,9.818920135E0
4.514127920E-1,-8.916306496E0,-1.107108784E1,9.727940559E0
4.534127580E-1,-9.014469147E0,-1.113333702E1,9.560346603E0
4.554127240E-1,-9.091083527E0,-1.115727901E1,9.371204376E0
4.574126900E-1,-9.122207642E0,-1.120037460E1,9.270648003E0
4.594126900E-1,-9.196428299E0,-1.122671127E1,9.091083527E0
4.614129900E-1,-9.232340813E0,-1.126262379E1,8.997709274E0
4.634130230E-1,-9.296984673E0,-1.131290245E1,8.815750122E0
4.654130560E-1,-9.421483040E0,-1.134642124E1,8.693645477E0
4.674130890E-1,-9.500492096E0,-1.135599804E1,8.655338287E0
4.694128220E-1,-9.634567261E0,-1.136318016E1,8.593089104E0
4.714128550E-1,-9.759065628E0,-1.138233376E1,8.561964989E0
4.734128880E-1,-9.811738014E0,-1.140867043E1,8.559570312E0
4.754129210E-1,-9.917082787E0,-1.146852589E1,8.583512306E0
4.774129210E-1,-1.001524544E1,-1.157147598E1,8.619425774E0
4.794129210E-1,-1.008228302E1,-1.165527344E1,8.638579369E0
4.814129210E-1,-1.023551178E1,-1.184920311E1,8.660126686E0
4.834133210E-1,-1.030254936E1,-1.192581749E1,8.669703484E0
4.854137210E-1,-1.042944145E1,-1.205749893E1,8.643367767E0
4.874137210E-1,-1.059703636E1,-1.217481518E1,8.571541786E0
4.894137210E-1,-1.071914005E1,-1.222748756E1,8.528446198E0
4.914136870E-1,-1.100644493E1,-1.233043766E1,8.451830864E0
4.934136530E-1,-1.136557484E1,-1.237832165E1,8.391976357E0
4.954136190E-1,-1.154753399E1,-1.238311005E1,8.351274490E0
4.974135850E-1,-1.190187550E1,-1.235437965E1,8.310573578E0
4.994135510E-1,-1.226818848E1,-1.225382328E1,8.281843185E0
5.014135170E-1,-1.244536018E1,-1.218678570E1,8.262689590E0
5.034134830E-1,-1.275660610E1,-1.202398014E1,8.245929718E0
5.054134490E-1,-1.306545830E1,-1.189229870E1,8.233959198E0
5.074135150E-1,-1.322586918E1,-1.182286739E1,8.238747597E0
5.094135480E-1,-1.354190445E1,-1.169118595E1,8.265083313E0
5.114135810E-1,-1.369034481E1,-1.163133144E1,8.291419983E0
5.134136140E-1,-1.396567822E1,-1.154753399E1,8.358457565E0
5.154136470E-1,-1.418115616E1,-1.148049641E1,8.425495148E0
5.174136800E-1,-1.427213573E1,-1.143021774E1,8.463802338E0
5.194137130E-1,-1.438466263E1,-1.134642124E1,8.538022995E0
5.214137460E-1,-1.449719048E1,-1.127938366E1,8.619425774E0
5.234137460E-1,-1.452831554E1,-1.125065327E1,8.655338287E0
5.254137120E-1,-1.456901646E1,-1.124347019E1,8.724770546E0
5.274136780E-1,-1.455465126E1,-1.123149967E1,8.796596527E0
5.294136440E-1,-1.453310394E1,-1.121713448E1,8.830115318E0
5.314136100E-1,-1.450197887E1,-1.118600941E1,8.877999306E0
5.334135760E-1,-1.447324848E1,-1.110700130E1,8.928277016E0
5.354135420E-1,-1.445409489E1,-1.107348251E1,8.933065414E0
5.374135420E-1,-1.443733597E1,-1.097292614E1,8.913911819E0
5.394135420E-1,-1.441818237E1,-1.085321522E1,8.877999306E0
5.414135750E-1,-1.440381718E1,-1.079096603E1,8.844480515E0
5.434136080E-1,-1.436790371E1,-1.069519806E1,8.787019730E0
5.454141410E-1,-1.433199024E1,-1.065210247E1,8.739135742E0
5.474141740E-1,-1.420988655E1,-1.058027649E1,8.650549889E0
5.494142070E-1,-1.407102299E1,-1.051084518E1,8.561964989E0
5.514142400E-1,-1.390103436E1,-1.041507626E1,8.482955933E0
5.534133730E-1,-1.381963158E1,-1.036001015E1,8.468590736E0
5.554124730E-1,-1.365203762E1,-1.029536629E1,8.451830864E0
5.574115730E-1,-1.358500004E1,-1.013016701E1,8.451830864E0
5.594106730E-1,-1.348204899E1,-9.955389977E0,8.497321129E0
5.614097730E-1,-1.342937660E1,-9.869198799E0,8.518868446E0
5.634089060E-1,-1.332642555E1,-9.711181641E0,8.547599792E0
5.654087720E-1,-1.320192719E1,-9.524434090E0,8.583512306E0
5.674086380E-1,-1.314446640E1,-9.435848236E0,8.588300705E0
5.694081040E-1,-1.300320911E1,-9.265859604E0,8.590695381E0
5.714075700E-1,-1.281646061E1,-9.136572838E0,8.590695381E0
5.734074030E-1,-1.271829891E1,-9.083900452E0,8.597877502E0
5.754068690E-1,-1.250042629E1,-9.007286072E0,8.609848976E0
5.774063350E-1,-1.227537155E1,-8.957007408E0,8.621819496E0
5.794061680E-1,-1.203595161E1,-8.897152901E0,8.619425774E0
5.814056340E-1,-1.192342377E1,-8.882787704E0,8.609848976E0
5.834051000E-1,-1.173667622E1,-8.870816231E0,8.585906982E0
5.854049660E-1,-1.166006184E1,-8.851662636E0,8.554781914E0
5.874044990E-1,-1.151640987E1,-8.870816231E0,8.478167534E0
5.894040320E-1,-1.146613121E1,-8.904335022E0,8.449437141E0
5.914039320E-1,-1.141824722E1,-8.968978882E0,8.377611160E0
5.934034650E-1,-1.140148735E1,-9.007286072E0,8.265083313E0
5.954029980E-1,-1.139909363E1,-9.021651268E0,8.207622528E0
5.974028980E-1,-1.142542934E1,-8.997709274E0,8.037634850E0
5.994024310E-1,-1.146613121E1,-8.954613686E0,7.841310024E0
6.014019310E-1,-1.149246788E1,-8.925883293E0,7.726387978E0
6.034013970E-1,-1.156908226E1,-8.830115318E0,7.489362240E0
6.054003630E-1,-1.164330196E1,-8.729558945E0,7.249941826E0
6.074001960E-1,-1.168879223E1,-8.674491882E0,7.139808655E0
6.093996620E-1,-1.180371380E1,-8.557176590E0,6.929119110E0
6.113991280E-1,-1.190905857E1,-8.504503250E0,6.713640690E0
6.133994940E-1,-1.195933723E1,-8.401553154E0,6.610690117E0
6.153997270E-1,-1.202637482E1,-8.329727173E0,6.409577370E0
6.174006270E-1,-1.206228733E1,-8.300996780E0,6.318597794E0
6.194015270E-1,-1.207904720E1,-8.238747597E0,6.141426563E0
6.214024270E-1,-1.207425880E1,-8.142979622E0,5.990592003E0
6.234032930E-1,-1.207665253E1,-8.087912560E0,5.933131218E0
6.254034260E-1,-1.206947041E1,-7.958625793E0,5.832574844E0
6.274035590E-1,-1.205031681E1,-7.824550629E0,5.772719383E0
6.294040590E-1,-1.205031681E1,-7.738358974E0,5.763142586E0
6.314041590E-1,-1.205271053E1,-7.568370819E0,5.763142586E0
6.334042920E-1,-1.205031681E1,-7.398382664E0,5.779901981E0
6.354048250E-1,-1.204074001E1,-7.321768284E0,5.815814972E0
6.374053580E-1,-1.200243282E1,-7.149385452E0,5.909189224E0
6.394055240E-1,-1.197849083E1,-6.996156693E0,6.007351398E0
6.414060570E-1,-1.195215416E1,-6.933907509E0,6.062417984E0
6.434065900E-1,-1.189229870E1,-6.826168537E0,6.184522152E0
6.454067560E-1,-1.185399151E1,-6.773495674E0,6.249165535E0
6.474072560E-1,-1.179413700E1,-6.675333500E0,6.385635376E0
6.494077220E-1,-1.173188782E1,-6.572382927E0,6.498162746E0
6.514078220E-1,-1.169358063E1,-6.526893139E0,6.543652534E0
6.534082880E-1,-1.162654305E1,-6.421548367E0,6.591536522E0
6.554099880E-1,-1.155950546E1,-6.306626320E0,6.613084316E0
6.574100880E-1,-1.153556347E1,-6.249165535E0,6.617872715E0
6.594105540E-1,-1.152359200E1,-6.129455566E0,6.589142323E0
6.614102870E-1,-1.155232239E1,-6.067206383E0,6.560411930E0
6.634107870E-1,-1.154274559E1,-5.973832607E0,6.500556946E0
6.654113200E-1,-1.150443840E1,-5.897218227E0,6.443096161E0
6.674114860E-1,-1.143740082E1,-5.873276234E0,6.373664379E0
6.694120190E-1,-1.137275696E1,-5.849334240E0,6.332962990E0
6.714125520E-1,-1.123868179E1,-5.846940041E0,6.261136532E0
6.734130850E-1,-1.116685581E1,-5.856516838E0,6.220435143E0
6.754137850E-1,-1.101123333E1,-5.882853031E0,6.124667168E0
6.774138180E-1,-1.085082150E1,-5.918766022E0,6.038475990E0
6.794138510E-1,-1.071195793E1,-5.981015205E0,5.954679012E0
6.814138510E-1,-1.064492035E1,-6.009745598E0,5.918766022E0
6.834138510E-1,-1.051802731E1,-6.069600582E0,5.856516838E0
6.854138510E-1,-1.047253704E1,-6.079177380E0,5.822998047E0
6.874138510E-1,-1.039113426E1,-6.088754177E0,5.753565788E0
6.894138510E-1,-1.032170296E1,-6.076783180E0,5.686528206E0
6.914142510E-1,-1.029057789E1,-6.064812183E0,5.653009415E0
6.934142510E-1,-1.027142429E1,-6.050446987E0,5.581183434E0
6.954142170E-1,-1.024987698E1,-6.038475990E0,5.540482044E0
6.974141830E-1,-1.024987698E1,-6.002563000E0,5.442319870E0
6.994141490E-1,-1.023311710E1,-5.990592003E0,5.358522892E0
7.014141150E-1,-1.020917511E1,-5.983409405E0,5.308244228E0
7.034131810E-1,-1.016129112E1,-5.966650009E0,5.219658852E0
7.054131470E-1,-1.010143661E1,-5.969044209E0,5.155015469E0
7.074131130E-1,-1.007509995E1,-5.981015205E0,5.123890877E0
7.094131130E-1,-1.000327396E1,-5.976226807E0,5.085583687E0
7.114131130E-1,-9.914688110E0,-5.969044209E0,5.049670696E0
7.134131460E-1,-9.881169319E0,-5.971438408E0,5.028122902E0
7.154119460E-1,-9.811738014E0,-5.959467411E0,5.004180908E0
7.174119790E-1,-9.735123634E0,-5.930737019E0,5.013757706E0
7.194120120E-1,-9.680056572E0,-5.921160221E0,5.018546104E0
7.214127780E-1,-9.536404610E0,-5.880458832E0,5.028122902E0
7.234128110E-1,-9.483732224E0,-5.866093636E0,5.030517101E0
7.254128110E-1,-9.344868660E0,-5.837363243E0,5.030517101E0
7.274127770E-1,-9.162909508E0,-5.799055576E0,5.023334503E0
7.294127430E-1,-9.059958458E0,-5.789478779E0,5.018546104E0
7.314127090E-1,-8.846874237E0,-5.811026573E0,5.001786709E0
7.334126750E-1,-8.566753387E0,-5.868487835E0,4.968267918E0
7.354126410E-1,-8.415918350E0,-5.923554420E0,4.946720123E0
7.374126070E-1,-8.078335762E0,-6.016928196E0,4.876988888E0
7.394125730E-1,-7.716811180E0,-6.124667168E0,4.762067318E0
7.414125730E-1,-7.546823025E0,-6.172551155E0,4.683058739E0
7.434126060E-1,-7.228394032E0,-6.256348133E0,4.522646904E0
7.454126390E-1,-6.914753914E0,-6.349722385E0,4.362235546E0
7.474126720E-1,-6.768707275E0,-6.385635376E0,4.268861771E0
7.494127050E-1,-6.467038155E0,-6.450278759E0,4.053383350E0
7.514127380E-1,-6.285078526E0,-6.481403351E0,3.933673382E0
7.534127710E-1,-5.952284813E0,-6.512527943E0,3.706224203E0
7.554128040E-1,-5.660192013E0,-6.524498940E0,3.493140221E0
7.574128370E-1,-5.552453041E0,-6.522104740E0,3.385401249E0
7.594128370E-1,-5.387253284E0,-6.500556946E0,3.148375273E0
7.614128370E-1,-5.269937038E0,-6.447884560E0,2.882618904E0
7.634137370E-1,-5.238812447E0,-6.423942566E0,2.750937700E0
7.654137370E-1,-5.222053051E0,-6.407183170E0,2.475604534E0
7.674137370E-1,-5.234024048E0,-6.416759968E0,2.243366957E0
7.694137370E-1,-5.272331238E0,-6.419154167E0,2.157175779E0
7.714137370E-1,-5.289090633E0,-6.450278759E0,2.011129379E0
7.734137030E-1,-5.178957462E0,-6.459855556E0,1.917755604E0
7.754136690E-1,-5.085583687E0,-6.524498940E0,1.860294700E0
7.774136350E-1,-4.865017891E0,-6.632237911E0,1.769315004E0
7.794136010E-1,-4.592078686E0,-6.775889874E0,1.685518026E0
7.814135670E-1,-4.410119534E0,-6.871658325E0,1.642422318E0
7.834135330E-1,-3.641580820E0,-7.233182430E0,1.592144132E0
7.854134990E-1,-2.978386879E0,-7.551611423E0,1.661576033E0
7.874134990E-1,-1.034295082E0,-8.461407661E0,2.195482969E0
7.894134990E-1,2.406172752E0,-1.001524544E1,3.177105665E0
7.914135320E-1,4.917989731E0,-1.119079781E1,4.029441357E0
7.934135650E-1,1.177977180E1,-1.438705730E1,6.299443722E0
7.954135980E-1,1.928349876E1,-1.757882690E1,8.437465668E0
7.974136310E-1,2.192190933E1,-1.857002640E1,9.079112053E0
7.994128310E-1,2.372474289E1,-1.812470627E1,8.621819496E0
8.014128640E-1,2.131138802E1,-1.690126801E1,7.644985199E0
8.034128640E-1,1.903210831E1,-1.349880886E1,5.272331238E0
8.054128300E-1,1.327375317E1,-9.486125946E0,3.552995205E0
8.074127960E-1,1.008707142E1,-7.599495411E0,3.172317266E0
8.094127620E-1,3.220201254E0,-4.072536945E0,3.155557871E0
8.114127280E-1,-2.947262287E0,-1.256955862E0,1.912967205E0
8.134126940E-1,-5.181351662E0,-3.711012602E-1,7.733271718E-1
8.154126600E-1,-8.068758965E0,3.327940404E-1,-1.695094824E0
8.174119600E-1,-9.232340813E0,9.576806799E-3,-3.703830004E0
8.194119600E-1,-9.337685585E0,-4.285621047E-1,-4.450820923E0
8.214119930E-1,-8.787019730E0,-1.783680320E0,-5.298667431E0
8.234120260E-1,-7.321768284E0,-3.411737442E0,-5.353734493E0
8.254120590E-1,-6.467038155E0,-4.201824188E0,-5.047276497E0
8.274120920E-1,-4.915595531E0,-5.511751652E0,-3.725377798E0
8.294121250E-1,-4.371812344E0,-5.997774601E0,-2.961627483E0
8.314121580E-1,-3.483563423E0,-6.572382927E0,-1.754949808E0
8.334121910E-1,-2.688688517E0,-6.830956936E0,-1.065419793E0
8.354122240E-1,-2.343923569E0,-6.950666904E0,-8.762778044E-1
8.374122240E-1,-1.709460020E0,-7.259518623E0,-7.134721279E-1
8.394121570E-1,-6.153098345E-1,-7.862857819E0,-7.924807668E-1
8.442126140E-1,4.070143029E-2,-8.186075211E0,-7.876923680E-1
8.462126140E-1,1.055842996E0,-8.674491882E0,-4.453215301E-1
8.482126140E-1,1.407790542E0,-8.921094894E0,4.333505034E-1
8.502126140E-1,1.608903527E0,-9.079112053E0,8.236053586E-1
8.522126140E-1,1.860294700E0,-9.383175850E0,1.290474772E0
8.542125800E-1,2.023100376E0,-9.763854027E0,-3.040636182E-1
8.562125460E-1,1.788468719E0,-9.644144058E0,-5.961562395E-1
8.582123120E-1,5.027823448E-1,-8.739135742E0,-1.699883193E-1
8.602113780E-1,-3.040636182E-1,-8.226776123E0,-1.316810995E-1
8.622127780E-1,-2.358288765E0,-7.374440670E0,-8.427590132E-1
8.642127440E-1,-2.954444885E0,-6.660968304E0,-1.074996591E0
8.662127100E-1,-3.476380825E0,-6.431125164E0,-1.388636947E0
8.682120430E-1,-4.620809078E0,-5.990592003E0,-1.582567334E0
8.702120430E-1,-5.734412193E0,-5.739200592E0,-1.355118155E0
8.722111760E-1,-6.201281548E0,-5.667374611E0,-1.192312479E0
8.742105420E-1,-6.993762493E0,-5.638644218E0,-9.409212470E-1
8.762104420E-1,-7.633014202E0,-5.837363243E0,-8.643068075E-1
8.782095750E-1,-7.956231594E0,-5.935525417E0,-8.092401624E-1
8.802093750E-1,-8.617031097E0,-6.151003361E0,-5.817909837E-1
8.822094080E-1,-9.129390717E0,-6.371270180E0,-5.219359994E-1
8.842090740E-1,-9.306561470E0,-6.467038155E0,-5.817909837E-1
8.862090740E-1,-9.507674217E0,-6.668150902E0,-8.164227605E-1
8.882090400E-1,-9.579500198E0,-6.718429089E0,-9.361328483E-1
8.902083400E-1,-9.706393242E0,-6.768707275E0,-1.132457376E0
8.922076400E-1,-9.852438927E0,-6.797437668E0,-1.096544385E0
8.942076060E-1,-1.004876423E1,-6.814197540E0,-1.216254473E0
8.962075720E-1,-1.077899551E1,-6.864475727E0,-1.374271750E0
8.982075380E-1,-1.118361568E1,-6.926724911E0,-1.443703651E0
9.002071380E-1,-1.133205605E1,-6.950666904E0,-1.235408068E0
9.022072380E-1,-1.183244419E1,-6.991368294E0,-1.630451322E0
9.042072710E-1,-1.053718090E1,-7.848492622E0,-4.098873138E0
9.062069040E-1,-1.047014332E1,-7.673715591E0,-4.211400986E0
9.082065370E-1,-1.111657810E1,-6.931513309E0,-3.691859007E0
9.102064370E-1,-1.106390572E1,-6.737582684E0,-3.801992416E0
9.122055700E-1,-1.079575443E1,-6.907571316E0,-4.398148537E0
9.142056030E-1,-1.016368580E1,-7.293037415E0,-4.876988888E0
9.162056360E-1,-9.897929192E0,-7.496544838E0,-5.049670696E0
9.182054360E-1,-9.507674217E0,-7.893982410E0,-5.344157696E0
9.202054360E-1,-9.206005096E0,-8.236352921E0,-5.382464886E0
9.222039360E-1,-9.062353134E0,-8.521263123E0,-5.188534260E0
9.242030360E-1,-8.992920876E0,-8.638579369E0,-5.032911301E0
9.262021360E-1,-8.880393028E0,-8.803778648E0,-4.718971729E0
9.282021360E-1,-8.830115318E0,-8.839692116E0,-4.575319290E0
9.302021360E-1,-8.834903717E0,-8.858845711E0,-4.125209332E0
9.322030020E-1,-8.576330185E0,-8.863634109E0,-3.866635799E0
9.342029680E-1,-8.406341553E0,-8.877999306E0,-3.854664803E0
9.362030680E-1,-8.078335762E0,-8.985737801E0,-3.792415380E0
9.382032680E-1,-7.929895401E0,-9.028834343E0,-3.677493811E0
9.402041340E-1,-7.458237648E0,-9.167697906E0,-3.555389643E0
9.422041000E-1,-6.897994518E0,-9.316138268E0,-3.476380825E0
9.442044000E-1,-6.895600319E0,-9.246706009E0,-3.169923067E0
9.462039660E-1,-6.237194538E0,-9.368810654E0,-3.071760893E0
9.482039660E-1,-5.657797813E0,-9.445425034E0,-3.074155092E0
9.502046660E-1,-5.933131218E0,-9.292196274E0,-2.638410330E0
9.522053660E-1,-5.854122639E0,-9.047987938E0,-2.128445387E0
9.542054990E-1,-5.064035892E0,-9.136572838E0,-2.164358377E0
9.562055320E-1,-4.594472885E0,-9.189245224E0,-2.193088770E0
9.582055650E-1,-3.663128614E0,-9.172486305E0,-2.219424963E0
9.602059980E-1,-3.445256233E0,-8.916306496E0,-2.171540976E0
9.622059980E-1,-3.620033026E0,-8.640973091E0,-1.989581585E0
9.642059980E-1,-4.115632534E0,-7.879617214E0,-5.458779931E-1
9.662063640E-1,-4.216189384E0,-7.599495411E0,4.716577232E-1
9.682067300E-1,-3.864241600E0,-7.417536259E0,1.769315004E0
9.702068300E-1,-4.144362926E0,-7.065588474E0,3.387795448E0
9.722076960E-1,-4.027047157E0,-6.890811920E0,4.333505154E0
9.742076620E-1,-3.711012602E0,-6.524498940E0,5.995380402E0
9.762076280E-1,-3.490746021E0,-6.146214962E0,6.914753914E0
9.782080280E-1,-3.517082214E0,-6.012139797E0,6.984185696E0
9.802089610E-1,-3.545812607E0,-5.995380402E0,5.796661377E0
9.822098940E-1,-3.555389643E0,-6.220435143E0,3.167528868E0
9.842108270E-1,-3.663128614E0,-6.313809395E0,1.915361404E0
9.862117600E-1,-4.098873138E0,-6.467038155E0,-5.267243832E-2
9.882124600E-1,-4.446032524E0,-6.531681538E0,-1.812410712E0
9.902124930E-1,-4.608838081E0,-6.584353924E0,-2.710236311E0
9.922125260E-1,-5.068824291E0,-6.646603107E0,-4.213795185E0
9.942132260E-1,-5.284302235E0,-6.696881294E0,-4.783615112E0
9.962132260E-1,-5.528511047E0,-6.888417721E0,-5.684134007E0
9.982141920E-1,-5.631461620E0,-7.106289864E0,-6.007351398E0
1.000214192E0,-5.636250019E0,-7.211634636E0,-5.966650009E0
1.002214192E0,-5.559635639E0,-7.448660851E0,-5.471050262E0
1.004214192E0,-5.648221016E0,-7.532457829E0,-4.577713490E0
1.006214592E0,-5.796661377E0,-7.561188221E0,-4.003105164E0
1.008214592E0,-5.887641430E0,-7.798214436E0,-2.899378300E0
1.010214558E0,-5.949890614E0,-8.102277756E0,-1.987187386E0
1.012214524E0,-5.997774601E0,-8.224382401E0,-1.570596337E0
1.014214390E0,-6.076783180E0,-8.291419983E0,-7.613561153E-1
1.016214356E0,-6.665756702E0,-8.150161743E0,1.101332754E-1
1.018214322E0,-6.888417721E0,-7.752724171E0,4.213795066E-1
1.020214288E0,-7.003339291E0,-7.721599579E0,7.517793179E-1
1.022214721E0,-7.067982674E0,-7.704840183E0,7.326257229E-1
1.024214687E0,-7.149385452E0,-7.633014202E0,6.775590777E-1
1.026214687E0,-7.312191486E0,-7.455843449E0,4.237737060E-1
1.028214720E0,-7.419930458E0,-7.372046471E0,2.657563984E-1
1.030214753E0,-7.628225803E0,-7.170933247E0,-8.619125932E-2
1.032214786E0,-7.697657585E0,-7.012916088E0,-4.213795066E-1
1.034214186E0,-7.757512569E0,-6.950666904E0,-5.937620401E-1
1.036214219E0,-8.020874977E0,-6.739976883E0,-8.212111592E-1
1.038214252E0,-8.210017204E0,-6.510133743E0,-9.265560508E-1
1.040214252E0,-8.303390503E0,-6.426336765E0,-9.265560508E-1
1.042214252E0,-8.444648743E0,-6.371270180E0,-9.888052940E-1
1.044214218E0,-8.526051521E0,-6.349722385E0,-9.935936928E-1
1.046214184E0,-8.497321129E0,-6.347328186E0,-1.000776291E0
1.048213750E0,-8.459013939E0,-6.330568790E0,-9.983820915E-1
1.050212816E0,-8.470984459E0,-6.313809395E0,-9.385270476E-1
1.052212016E0,-8.370428085E0,-6.330568790E0,-8.738836050E-1
1.054211082E0,-8.260294914E0,-6.421548367E0,-9.121908545E-1
1.056210182E0,-8.178892136E0,-6.500556946E0,-9.481038451E-1
1.058208982E0,-8.004115105E0,-6.653785706E0,-9.768342972E-1
1.060208082E0,-7.951443195E0,-6.641814709E0,-9.121908545E-1
1.062207182E0,-7.920318604E0,-6.639420509E0,-8.762778044E-1
1.064206282E0,-7.853281021E0,-6.639420509E0,-7.996633649E-1
1.066205382E0,-7.805397034E0,-6.680121899E0,-8.140285611E-1
1.068204482E0,-7.779060364E0,-6.787860870E0,-8.475474119E-1
1.070204482E0,-7.747935772E0,-6.864475727E0,-7.972691655E-1
1.072204082E0,-7.712022781E0,-6.890811920E0,-7.469909191E-1
1.074204115E0,-7.604283810E0,-6.979397297E0,-6.847416759E-1
1.076204148E0,-7.520486832E0,-7.056011677E0,-6.560112834E-1
1.078204181E0,-7.513304234E0,-7.072771072E0,-6.129156351E-1
1.080203314E0,-7.472602844E0,-7.058405876E0,-4.908113480E-1
1.082201980E0,-7.293037415E0,-7.135020256E0,-4.453215301E-1
1.084201113E0,-7.249941826E0,-7.127837658E0,-4.357447028E-1
1.086200246E0,-7.249941826E0,-7.039252281E0,-4.237737060E-1
1.088200246E0,-7.187692642E0,-7.005733490E0,-4.501099288E-1
1.090199812E0,-7.123049259E0,-6.998550892E0,-4.644751251E-1
1.092198878E0,-7.017704487E0,-6.960243702E0,-3.998316824E-1
1.094198578E0,-6.969820499E0,-6.931513309E0,-3.327940404E-1
1.096198544E0,-6.890811920E0,-6.883629322E0,-2.226607651E-1
1.098197610E0,-6.862081528E0,-6.857293129E0,-1.388636976E-1
1.100196676E0,-6.830956936E0,-6.859687328E0,-8.379705995E-2
1.102195742E0,-6.737582684E0,-6.869264126E0,1.460463107E-1
1.104194842E0,-6.701669693E0,-6.874052525E0,2.011129409E-1
1.106193975E0,-6.701669693E0,-6.857293129E0,2.753331959E-1
1.108193508E0,-6.663362503E0,-6.854898930E0,5.363011956E-1
1.110194441E0,-6.641814709E0,-6.862081528E0,6.440402865E-1
1.112196707E0,-6.596324921E0,-6.871658325E0,7.445967197E-1
1.114197640E0,-6.469432354E0,-6.909965515E0,9.050082564E-1
1.116198573E0,-6.332962990E0,-6.917148113E0,1.055842996E0
1.118198606E0,-6.134243965E0,-6.897994518E0,1.206677675E0
1.120199539E0,-6.079177380E0,-6.902782917E0,1.295263171E0
1.122200439E0,-5.890035629E0,-6.974608898E0,1.419761658E0
1.124201339E0,-5.794267178E0,-7.024887085E0,1.465251446E0
1.126202239E0,-5.672163010E0,-7.190086842E0,1.517923832E0
1.128202472E0,-5.471050262E0,-7.503727436E0,1.429338455E0
1.130202472E0,-5.358522892E0,-7.666532993E0,1.237802267E0
1.132202872E0,-5.248389244E0,-7.953837395E0,6.919242740E-1
1.134202838E0,-5.238812447E0,-8.066365242E0,4.692635238E-1
1.136202804E0,-5.200505257E0,-8.260294914E0,1.029506698E-1
1.138202104E0,-5.145438671E0,-8.406341553E0,-2.082955539E-1
1.140202304E0,-5.135861874E0,-8.449437141E0,-3.351882398E-1
1.142203170E0,-5.186140060E0,-8.456619263E0,-4.477157295E-1
1.144204036E0,-5.212476254E0,-8.432677269E0,-4.884171486E-1
1.146204902E0,-5.231629848E0,-8.415918350E0,-5.027823448E-1
1.148204868E0,-5.224447250E0,-8.396764755E0,-5.434837937E-1
1.150205268E0,-5.248389244E0,-8.413523674E0,-5.578489900E-1
1.152206201E0,-5.262754440E0,-8.420706749E0,-5.674257874E-1
1.154207134E0,-5.229235649E0,-8.396764755E0,-5.817909837E-1
1.156207167E0,-5.236418247E0,-8.368034363E0,-5.793967843E-1
1.158208100E0,-5.210082054E0,-8.317755699E0,-5.099649429E-1
1.160209033E0,-5.198111057E0,-8.298602104E0,-4.644751251E-1
1.162209966E0,-5.150227070E0,-8.250718117E0,-3.256114423E-1
1.164210899E0,-5.145438671E0,-8.217199326E0,-2.513911724E-1
1.166211799E0,-5.147832870E0,-8.202834129E0,-1.556231081E-1
1.168212665E0,-5.164592266E0,-8.190863609E0,-1.149216816E-1
1.170212631E0,-5.198111057E0,-8.145373344E0,-1.101332754E-1
1.172211131E0,-5.257966042E0,-8.042423248E0,-6.703764945E-2
1.174211097E0,-5.315426826E0,-8.016086578E0,-5.267243832E-2
1.176210397E0,-5.442319870E0,-7.929895401E0,-2.873042040E-2
1.178211263E0,-5.511751652E0,-7.834127426E0,-5.746084079E-2
1.180211229E0,-5.535693645E0,-7.793426037E0,-8.619125932E-2
1.182211229E0,-5.636250019E0,-7.755118370E0,-1.939303428E-1
1.184210929E0,-5.691316605E0,-7.771877766E0,-2.298433632E-1
1.186210962E0,-5.729623795E0,-7.719205379E0,-2.801215947E-1
1.188211662E0,-5.743988991E0,-7.678503990E0,-3.256114423E-1
1.190211762E0,-5.758354187E0,-7.676109791E0,-3.734954596E-1
1.192211795E0,-5.813420773E0,-7.647379398E0,-4.118026793E-1
1.194211828E0,-5.813420773E0,-7.561188221E0,-3.830722570E-1
1.196211861E0,-5.799055576E0,-7.549217224E0,-3.998316824E-1
1.198212561E0,-5.822998047E0,-7.570765018E0,-4.668693244E-1
1.200213227E0,-5.849334240E0,-7.484573841E0,-4.668693244E-1
1.202213227E0,-5.897218227E0,-7.448660851E0,-4.381389022E-1
1.204213227E0,-5.961861610E0,-7.400776863E0,-3.854664862E-1
1.206212893E0,-6.036081791E0,-7.398382664E0,-3.639186621E-1
1.208212959E0,-6.119878769E0,-7.139808655E0,-1.628057212E-1
1.210212959E0,-6.167762756E0,-7.079953671E0,-8.619125932E-2
1.212212925E0,-6.249165535E0,-7.039252281E0,-3.591302410E-2
1.214212891E0,-6.464643955E0,-6.933907509E0,2.633621916E-2
1.216212857E0,-6.711246490E0,-6.787860870E0,1.077390760E-1
1.218212823E0,-6.993762493E0,-6.622661114E0,1.723825186E-1
1.220212789E0,-7.163750648E0,-6.567594528E0,1.891419291E-1
1.222212755E0,-7.453449249E0,-6.423942566E0,2.082955539E-1
1.224212721E0,-7.568370819E0,-6.332962990E0,1.939303428E-1
1.226212687E0,-7.733570576E0,-6.117484570E0,1.029506698E-1
1.228212687E0,-7.779060364E0,-5.894824028E0,-5.267243832E-2
1.230212720E0,-7.779060364E0,-5.791872978E0,-1.292868853E-1
1.232212753E0,-7.714416981E0,-5.590760231E0,-2.657563984E-1
1.234212119E0,-7.666532993E0,-5.485415459E0,-3.519476354E-1
1.236212819E0,-7.491756439E0,-5.253177643E0,-4.908113480E-1
1.238212185E0,-7.360075474E0,-5.164592266E0,-5.865794420E-1
1.240212218E0,-7.314585686E0,-5.155015469E0,-6.512228847E-1
1.242212251E0,-7.101501465E0,-5.011363506E0,-7.565677166E-1
1.244212584E0,-6.471826553E0,-4.410119534E0,-8.283938169E-1
1.246212550E0,-6.031293392E0,-4.007893562E0,-8.667010069E-1
1.248212516E0,-5.408801079E0,-3.648763418E0,-7.517793179E-1
1.250212416E0,-5.341763496E0,-3.622427225E0,-6.607996821E-1
1.252212382E0,-5.317821026E0,-3.701435804E0,-5.746083856E-1
1.254212348E0,-5.284302235E0,-3.986345768E0,-4.285621047E-1
1.256212314E0,-5.186140060E0,-4.108449936E0,-2.968810201E-1
1.258212280E0,-5.095160484E0,-4.393360138E0,-2.178723514E-1
1.260212280E0,-5.056853294E0,-4.520252705E0,-1.819593310E-1
1.262212313E0,-5.061641693E0,-4.771644115E0,-1.604115069E-1
1.264212346E0,-5.040093899E0,-4.876988888E0,-1.364694983E-1
1.266212712E0,-5.016151905E0,-5.092766285E0,-6.464344263E-2
1.268212678E0,-5.064035892E0,-5.348946095E0,0.000000000E0
1.270212711E0,-5.085583687E0,-5.492598057E0,3.591302410E-2
1.272212744E0,-5.195716858E0,-5.684134007E0,1.747767180E-1
1.274212777E0,-5.243600845E0,-5.748777390E0,2.418143749E-1
1.276212810E0,-5.174169064E0,-5.846940041E0,3.663128614E-1
1.278212810E0,-5.205293655E0,-5.957073212E0,4.501099288E-1
1.280212810E0,-5.336975098E0,-6.016928196E0,3.830722570E-1
1.282212810E0,-5.490203857E0,-6.026504993E0,2.681505978E-1
1.284212543E0,-5.590760231E0,-6.074388981E0,1.436520964E-1
1.286212543E0,-5.629067421E0,-6.174945354E0,9.337386489E-2
1.288212543E0,-5.705681801E0,-6.253953934E0,4.309562966E-2
1.290212109E0,-5.734412193E0,-6.270713329E0,4.788403399E-3
1.292212075E0,-5.909189224E0,-6.136638165E0,-1.221042871E-1
1.294212708E0,-6.361693382E0,-5.662586212E0,-2.657563984E-1
1.296212674E0,-6.495768547E0,-5.547664642E0,-2.920926213E-1
1.298213307E0,-6.603507519E0,-5.621884823E0,-3.639186621E-1
1.300213273E0,-6.603507519E0,-5.686528206E0,-3.950432837E-1
1.302213239E0,-6.620266914E0,-5.822998047E0,-3.447650373E-1
1.304213205E0,-6.613084316E0,-5.894824028E0,-2.825157940E-1
1.306213205E0,-6.510133743E0,-6.031293392E0,-1.412578970E-1
1.308213238E0,-6.438307762E0,-6.194098949E0,9.576806799E-3
1.310213271E0,-6.407183170E0,-6.261136532E0,1.149216816E-1
1.312213204E0,-6.292261124E0,-6.423942566E0,3.423708379E-1
1.314213237E0,-6.241982937E0,-6.457461357E0,4.237737060E-1
1.316213270E0,-6.148609161E0,-6.483797550E0,6.296750307E-1
1.318212636E0,-6.026504993E0,-6.495768547E0,7.829039693E-1
1.320212169E0,-5.978621006E0,-6.490980148E0,8.571242094E-1
1.322212169E0,-5.928342819E0,-6.459855556E0,9.911994934E-1
1.324212235E0,-5.894824028E0,-6.419154167E0,1.072602391E0
1.326211535E0,-5.878064632E0,-6.306626320E0,1.192312479E0
1.328210835E0,-5.834969044E0,-6.105513573E0,1.345541358E0
1.330210801E0,-5.815814972E0,-6.016928196E0,1.419761658E0
1.332211134E0,-5.705681801E0,-5.971438408E0,1.491587639E0
1.334211100E0,-5.547664642E0,-6.067206383E0,1.434126854E0
1.336211066E0,-5.437531471E0,-6.139032364E0,1.405396342E0
1.338211066E0,-5.186140060E0,-6.198887348E0,1.264138460E0
1.340211099E0,-5.044882298E0,-6.218040943E0,1.154005170E0
1.342211132E0,-4.850652695E0,-6.206069946E0,8.403648138E-1
1.344211432E0,-4.774038315E0,-6.289866924E0,5.171475410E-1
1.346211465E0,-4.831499100E0,-6.409577370E0,3.423708379E-1
1.348211498E0,-5.073612690E0,-6.840533733E0,-1.149216816E-1
1.350211531E0,-5.243600845E0,-7.010521889E0,-2.657563984E-1
1.352211031E0,-5.468656063E0,-7.194875240E0,-4.429273009E-1
1.354211064E0,-5.892429829E0,-7.460631847E0,-7.852981687E-1
1.356211064E0,-6.246771336E0,-7.642591000E0,-1.103726983E0
1.358211064E0,-6.328174591E0,-7.661744595E0,-1.192312479E0
1.360211064E0,-6.170156956E0,-7.494150639E0,-1.130063176E0
1.362211064E0,-5.468656063E0,-6.886023521E0,-8.044517636E-1
1.364211064E0,-5.054459095E0,-6.541258335E0,-5.985504389E-1
1.366211064E0,-4.256890774E0,-5.930737019E0,-1.436520964E-1
1.368211030E0,-3.579331636E0,-5.516540051E0,2.657563984E-1
1.370210996E0,-3.296815634E0,-5.375282288E0,4.118026793E-1
1.372211062E0,-2.853888512E0,-5.212476254E0,5.961562395E-1
1.374211028E0,-2.715024710E0,-5.157409668E0,6.320692301E-1
1.376210328E0,-2.533065319E0,-5.119102478E0,6.200982332E-1
1.378210294E0,-2.506729126E0,-5.087977886E0,5.315127969E-1
1.380210094E0,-2.492363930E0,-5.071218491E0,4.884171486E-1
1.382210060E0,-2.456450939E0,-5.047276497E0,3.758896589E-1
1.384209960E0,-2.422932148E0,-5.040093899E0,2.226607651E-1
1.386210626E0,-2.408566952E0,-5.025728703E0,1.412578970E-1
1.388211326E0,-2.410961151E0,-4.999392509E0,4.309562966E-2
1.390211359E0,-2.456450939E0,-4.996998310E0,9.576806799E-3
1.392211025E0,-2.475604534E0,-4.985027313E0,-5.027823523E-2
1.394211058E0,-2.513911724E0,-4.958691120E0,-7.661445439E-2
1.396211091E0,-2.521094322E0,-4.953902721E0,-8.619125932E-2
1.398211124E0,-2.513911724E0,-4.980238914E0,-2.130839527E-1
1.400211124E0,-2.513911724E0,-5.025728703E0,-2.346317619E-1
1.402211090E0,-2.518700123E0,-5.068824291E0,-2.202665508E-1
1.404211056E0,-2.475604534E0,-5.128679276E0,-1.316810995E-1
1.406211022E0,-2.449268341E0,-5.171774864E0,0.000000000E0
1.408210988E0,-2.348711967E0,-5.174169064E0,1.101332754E-1
1.410211354E0,-2.274491549E0,-5.171774864E0,9.816227108E-2
1.412211854E0,-2.066195965E0,-5.159803867E0,1.149216816E-1
1.414211820E0,-1.903390408E0,-5.138256073E0,1.532289088E-1
1.416211820E0,-1.443703651E0,-5.076006889E0,1.795651317E-1
1.418211853E0,-1.005564690E0,-5.071218491E0,2.633621991E-1
1.420211886E0,-7.805097699E-1,-5.087977886E0,3.040636182E-1
1.422211919E0,-3.351882398E-1,-5.095160484E0,4.237737060E-1
1.424211952E0,-1.149216816E-1,-5.102343082E0,5.291185975E-1
1.426211985E0,2.968810201E-1,-5.131073475E0,7.326257229E-1
1.428212018E0,6.703764796E-1,-5.073612690E0,7.110779285E-1
1.430212051E0,7.900865674E-1,-5.018546104E0,6.200982332E-1
1.432212084E0,9.624691010E-1,-4.867412090E0,3.591302633E-1
1.434211417E0,1.051054597E0,-4.718971729E0,1.963245422E-1
1.436212083E0,1.039083481E0,-4.642356873E0,1.915361285E-1
1.438212749E0,1.010353088E0,-4.426878929E0,1.005564705E-1
1.440213415E0,9.193734527E-1,-4.098873138E0,-1.244984865E-1
1.442213415E0,8.619126081E-1,-3.928884983E0,-2.633621991E-1
1.444213415E0,7.062895298E-1,-3.572149038E0,-5.003881454E-1
1.446212515E0,6.177040339E-1,-3.383007050E0,-5.698199868E-1
1.448212481E0,3.112462163E-1,-2.827552319E0,-6.057330370E-1
1.450212447E0,2.226607651E-1,-2.669534922E0,-5.985504389E-1
1.452212413E0,1.532289088E-1,-2.542642117E0,-5.937620401E-1
1.454212379E0,3.591302410E-2,-2.317587137E0,-6.081272364E-1
1.456212345E0,-7.900865376E-2,-2.015917778E0,-6.224924326E-1
1.458212311E0,-2.011129409E-1,-1.711854219E0,-5.985504389E-1
1.460212277E0,-2.370259613E-1,-1.608903527E0,-5.698199868E-1
1.462212277E0,-2.513911724E-1,-1.505952835E0,-4.932055473E-1
1.464212277E0,-2.394201756E-1,-1.477222443E0,-4.501099288E-1
1.466212310E0,-2.226607651E-1,-1.448492050E0,-3.830722570E-1
1.468212343E0,-2.346317619E-1,-1.443703651E0,-3.854664862E-1
1.470212376E0,-2.298433632E-1,-1.474828243E0,-4.501099288E-1
1.472212409E0,-2.322375625E-1,-1.544260144E0,-5.746083856E-1
1.474212442E0,-2.226607651E-1,-1.587355733E0,-6.200982332E-1
1.476212475E0,-1.987187415E-1,-1.608903527E0,-6.823474765E-1
1.478212475E0,-1.556231081E-1,-1.642422318E0,-7.781155705E-1
1.480212441E0,-1.316810995E-1,-1.663970232E0,-8.475474119E-1
1.482212007E0,-1.101332754E-1,-1.699883223E0,-9.768342972E-1
1.484211973E0,-8.379705995E-2,-1.793257117E0,-1.079784989E0
1.486211773E0,-5.027823523E-2,-1.795651317E0,-1.120486379E0
1.488211739E0,1.915361360E-2,-1.800439715E0,-1.154005170E0
1.490211705E0,4.548983276E-2,-1.814804912E0,-1.127668977E0
1.492211671E0,6.703764945E-2,-1.826775908E0,-1.130063176E0
1.494212337E0,1.029506698E-1,-1.850717902E0,-1.158793569E0
1.496212370E0,1.053448766E-1,-1.833958507E0,-1.165976286E0
1.498212403E0,1.340752989E-1,-1.764526606E0,-1.125274777E0
1.500212036E0,1.460463107E-1,-1.721431017E0,-1.067813993E0
1.502212069E0,1.532289088E-1,-1.695094824E0,-1.005564690E0
1.504212102E0,1.723825186E-1,-1.632845521E0,-1.027112484E0
1.506213035E0,2.011129409E-1,-1.592144132E0,-1.034295082E0
1.508213068E0,1.364694983E-1,-1.663970232E0,-1.173158884E0
1.510213101E0,-7.182605099E-3,-2.035071373E0,-1.501164436E0
1.512213101E0,-2.059013397E-1,-3.794809580E0,-2.327163935E0
1.514213101E0,-2.178723514E-1,-4.627991676E0,-2.801215887E0
1.516213101E0,-2.394201607E-2,-6.397606373E0,-3.588908434E0
1.518213101E0,5.722141862E-1,-8.322544098E0,-3.926490784E0
1.520213101E0,1.060631394E0,-9.203610420E0,-3.816357613E0
1.522212634E0,1.972822189E0,-1.052999878E1,-3.112462282E0
1.524212634E0,2.255337954E0,-1.102799225E1,-2.698265314E0
1.526212600E0,2.542642117E0,-1.201440334E1,-2.319981337E0
1.528212566E0,2.604891539E0,-1.344853020E1,-2.073378563E0
1.530212532E0,2.636016130E0,-1.437508583E1,-1.752555609E0
1.532212498E0,3.177105665E0,-1.652058983E1,-8.667010069E-1
1.534212464E0,5.959467411E0,-2.371995544E1,1.412578970E-1
1.536212430E0,8.387187958E0,-3.062992096E1,5.746083856E-1
1.538212396E0,1.337670422E1,-5.138585281E1,7.541735172E-1
1.540212029E0,1.354190445E1,-5.566698456E1,8.714894056E-1
1.542212429E0,1.300081444E1,-5.837722015E1,1.082179189E0
1.544212462E0,1.036479855E1,-6.098929596E1,9.648633003E-1
1.546212662E0,6.186916351E0,-6.159981537E1,4.118026793E-1
1.548212695E0,1.855506301E0,-5.988796234E1,2.394201607E-2
1.550212728E0,-2.250549644E-1,-5.882972717E1,-2.250549644E-1
1.552212428E0,-2.138022184E0,-5.777627563E1,-4.285621047E-1
1.554212461E0,-5.076006889E0,-5.506364822E1,-6.727706790E-1
1.556212461E0,-7.130231857E0,-5.119431686E1,-9.648633003E-1
1.558212427E0,-8.360851288E0,-4.718163681E1,-1.467645645E0
1.560212793E0,-8.547599792E0,-4.529021454E1,-1.872265697E0
1.562212759E0,-8.437465668E0,-4.179677582E1,-2.535459518E0
1.564212725E0,-8.174103737E0,-4.011125946E1,-2.801215887E0
1.566212691E0,-7.123049259E0,-3.667797470E1,-3.138798475E0
1.568212657E0,-6.189310551E0,-3.347183609E1,-3.308786631E0
1.570212257E0,-5.751171589E0,-3.199940300E1,-3.208230257E0
1.572212257E0,-5.360917091E0,-2.895158386E1,-2.865859509E0
1.574212257E0,-5.739200592E0,-2.738098907E1,-2.497152328E0
1.576212257E0,-5.918766022E0,-2.424667931E1,-2.272097349E0
1.578212257E0,-5.959467411E0,-2.137603188E1,-1.881842494E0
1.580212257E0,-5.808632374E0,-1.997781754E1,-1.754949808E0
1.582212723E0,-5.245995045E0,-1.726039886E1,-1.565807939E0
1.584212723E0,-4.606443882E0,-1.479915905E1,-1.484405041E0
1.586212723E0,-4.242525578E0,-1.370710373E1,-1.515529633E0
1.588212723E0,-3.004723072E0,-1.084603310E1,-1.896207690E0
1.590212756E0,-2.576161146E0,-1.001524544E1,-2.025494576E0
1.592212789E0,-2.169146776E0,-9.229947090E0,-2.126051188E0
1.594212422E0,-1.395819545E0,-7.788637638E0,-2.238578558E0
1.596212455E0,-7.350199223E-1,-6.541258335E0,-2.293645144E0
1.598212488E0,-1.316810995E-1,-5.478232861E0,-2.329558372E0
1.600212888E0,1.364694983E-1,-4.992209911E0,-2.334346771E0
1.602212821E0,6.871358752E-1,-4.086902142E0,-2.305616140E0
1.604212821E0,9.576807022E-1,-3.677493811E0,-2.284068346E0
1.606212787E0,1.424550056E0,-3.009511471E0,-2.252943754E0
1.608212753E0,1.812410712E0,-2.537853718E0,-2.219424963E0
1.610212719E0,1.972822189E0,-2.358288765E0,-2.231395960E0
1.612213019E0,2.267308950E0,-2.123656988E0,-2.336740971E0
1.614212985E0,2.425326347E0,-2.044648170E0,-2.449268341E0
1.616212951E0,2.705447912E0,-1.939303398E0,-2.738966703E0
1.618212951E0,3.007117271E0,-1.920149803E0,-3.050212860E0
1.620212951E0,3.189076662E0,-1.956062794E0,-3.189076662E0
1.622212984E0,3.502717018E0,-2.049436569E0,-3.404554844E0
1.624212617E0,3.916913986E0,-2.236184359E0,-3.713406801E0
1.626212650E0,4.180276394E0,-2.382230759E0,-3.857059002E0
1.628212683E0,4.747702122E0,-2.705447912E0,-4.194641590E0
1.630213083E0,5.277119637E0,-2.882618904E0,-4.386177540E0
1.632212716E0,5.538087845E0,-3.222595453E0,-4.752490520E0
1.634212082E0,6.055235386E0,-3.620033026E0,-5.126285076E0
1.636212115E0,6.258742332E0,-3.797203779E0,-5.248389244E0
1.638211448E0,6.890811920E0,-4.469974518E0,-5.648221016E0
1.640210781E0,7.130231857E0,-4.695029736E0,-5.818209171E0
1.642210781E0,7.345710278E0,-4.906018734E0,-5.947496414E0
1.644210781E0,7.702445984E0,-5.348946095E0,-6.100725174E0
1.646210781E0,7.999327183E0,-5.727229595E0,-6.194098949E0
1.648210781E0,8.305785179E0,-6.119878769E0,-6.198887348E0
1.650210747E0,8.449437141E0,-6.294655323E0,-6.177339554E0
1.652210713E0,8.700828552E0,-6.593930721E0,-6.131849766E0
1.654211079E0,8.784625053E0,-6.739976883E0,-6.100725174E0
1.656211045E0,8.897152901E0,-6.960243702E0,-5.992986202E0
1.658211011E0,8.964190483E0,-7.158962250E0,-5.834969044E0
1.660210111E0,8.547599792E0,-7.666532993E0,-2.233790159E0
1.662209311E0,8.516474724E0,-7.719205379E0,-1.836352706E0
1.664208411E0,8.516474724E0,-7.719205379E0,-1.836352706E0
1.666207544E0,8.516474724E0,-7.719205379E0,-1.836352706E0
1.668206710E0,8.516474724E0,-7.719205379E0,-1.836352706E0
1.670205876E0,8.516474724E0,-7.719205379E0,-1.836352706E0
1.672205042E0,8.516474724E0,-7.719205379E0,-1.836352706E0
1.674204175E0,8.499714851E0,-7.788637638E0,-1.414973259E0
1.676203375E0,8.499714851E0,-7.788637638E0,-1.414973259E0
1.678203408E0,8.502109528E0,-8.020874977E0,-5.339069963E-1
1.680203441E0,8.530839920E0,-8.169315338E0,-6.224924326E-2
1.682203441E0,8.554781914E0,-8.332120895E0,4.405331016E-1
1.684203807E0,8.605060577E0,-8.681674957E0,1.544260144E0
1.686203773E0,8.617031097E0,-8.861239433E0,2.188300371E0
1.688203739E0,8.669703484E0,-9.435848236E0,4.776432514E0
1.690203705E0,8.633790970E0,-9.617807388E0,5.705681801E0
1.692204071E0,8.549993515E0,-9.790189743E0,6.617872715E0
1.694204871E0,8.269871712E0,-1.004636955E1,8.174103737E0
1.696204837E0,7.838915825E0,-1.019720459E1,9.012074471E0
1.698205503E0,7.336133480E0,-1.024508858E1,9.026439667E0
1.700206203E0,7.072771072E0,-1.024030018E1,8.784625053E0
1.702206236E0,6.555623531E0,-1.016607952E1,7.984961987E0
1.704206269E0,6.292261124E0,-1.012537861E1,7.484573841E0
1.706206302E0,5.784690380E0,-1.000806236E1,6.354510784E0
1.708206335E0,5.415983677E0,-9.859622002E0,5.162198067E0
1.710205535E0,5.257966042E0,-9.799766541E0,4.575319290E0
1.712205568E0,4.977844715E0,-9.644144058E0,3.471592426E0
1.714205601E0,4.853046894E0,-9.581894875E0,2.975992680E0
1.716205601E0,4.659116745E0,-9.474155426E0,2.109291792E0
1.718205601E0,4.474762917E0,-9.409511566E0,1.410184860E0
1.720206467E0,4.407725334E0,-9.392752647E0,1.084573388E0
1.722207333E0,4.261679173E0,-9.352050781E0,5.243301988E-1
1.724208199E0,4.127603531E0,-9.340080261E0,9.576806426E-2
1.726208999E0,4.058171749E0,-9.347262383E0,-6.943184882E-2
1.728209832E0,3.840299606E0,-9.445425034E0,-3.232172430E-1
1.730210665E0,3.768473387E0,-9.584288597E0,-4.812345505E-1
1.732211498E0,3.694253206E0,-9.651326180E0,-5.363011956E-1
1.734212364E0,3.533841610E0,-9.826103210E0,-6.488286853E-1
1.736213164E0,3.361459255E0,-9.929053307E0,-6.991068721E-1
1.738213130E0,3.184288263E0,-1.024269390E1,-8.355764151E-1
1.740214163E0,3.093308687E0,-1.034803867E1,-8.738836050E-1
1.742214129E0,2.810792685E0,-1.058027649E1,-9.911994934E-1
1.744213462E0,2.810792685E0,-1.058027649E1,-9.911994934E-1
1.746213495E0,2.624045134E0,-1.068083286E1,-1.031900883E0
1.748213528E0,2.432508945E0,-1.073111153E1,-1.070208192E0
1.750213561E0,2.336740971E0,-1.075984192E1,-1.079784989E0
1.752213594E0,2.166752577E0,-1.079336071E1,-1.110909581E0
1.754213460E0,2.094926596E0,-1.081251431E1,-1.134851575E0
1.756213493E0,1.948880196E0,-1.081251431E1,-1.156399369E0
1.758213526E0,1.860294700E0,-1.081251431E1,-1.177947283E0
1.760213559E0,1.807622313E0,-1.081251431E1,-1.192312479E0
1.762213525E0,1.721431017E0,-1.078138924E1,-1.228225470E0
1.764213491E0,1.685518026E0,-1.077420712E1,-1.240196466E0
1.766213457E0,1.635239720E0,-1.075026512E1,-1.259350061E0
1.768213423E0,1.596932530E0,-1.072392845E1,-1.302445769E0
1.770214223E0,1.572990537E0,-1.071195793E1,-1.326387763E0
1.772214189E0,1.539471745E0,-1.067843914E1,-1.362300754E0
1.774214155E0,1.491587639E0,-1.063534355E1,-1.388636947E0
1.776214155E0,1.470039845E0,-1.060900688E1,-1.386242747E0
1.778214188E0,1.376665950E0,-1.053718090E1,-1.393425345E0
1.780214221E0,1.328781962E0,-1.049408531E1,-1.395819545E0
1.782214254E0,8.379706144E-1,-1.024030018E1,-1.608903527E0
1.784213420E0,8.379706144E-1,-1.024030018E1,-1.608903527E0
1.786212653E0,8.379706144E-1,-1.024030018E1,-1.608903527E0
1.788211819E0,8.379706144E-1,-1.024030018E1,-1.608903527E0
1.790211385E0,7.637503147E-1,-1.024030018E1,-1.608903527E0
1.792211418E0,7.637503147E-1,-1.021875191E1,-1.692700624E0
1.794211418E0,6.224924326E-1,-1.019002151E1,-1.862688899E0
1.796211418E0,4.884171486E-1,-1.012537861E1,-1.994369984E0
1.798211418E0,3.758896589E-1,-1.008467674E1,-2.106897593E0
1.800210351E0,3.064578176E-1,-1.005834103E1,-2.154781580E0
1.802210351E0,1.963245422E-1,-1.002242756E1,-2.233790159E0
1.804211017E0,1.532289088E-1,-1.000327396E1,-2.248155355E0
1.806210983E0,1.173158810E-1,-9.948206902E0,-2.264914751E0
1.808210949E0,1.292868853E-1,-9.912294388E0,-2.264914751E0
1.810210915E0,1.364694983E-1,-9.900322914E0,-2.257732153E0
1.812210548E0,1.819593310E-1,-9.871592522E0,-2.217030764E0
1.814210514E0,2.777273953E-1,-9.862015724E0,-2.176329374E0
1.816210480E0,3.256114423E-1,-9.852438927E0,-2.157175779E0
1.818210446E0,3.782838583E-1,-9.864410400E0,-2.111685991E0
1.820210412E0,4.189853072E-1,-9.876380920E0,-2.082955360E0
1.822210412E0,4.812345505E-1,-9.866804123E0,-2.011129379E0
1.824210445E0,5.530605912E-1,-9.852438927E0,-1.941697598E0
1.826210478E0,5.746083856E-1,-9.862015724E0,-1.915361404E0
1.828210511E0,6.057330370E-1,-9.828496933E0,-1.838746905E0
1.830210544E0,6.081272364E-1,-9.816526413E0,-1.814804912E0
1.832211477E0,6.033388376E-1,-9.809343338E0,-1.790862918E0
1.834210843E0,5.865794420E-1,-9.785401344E0,-1.764526606E0
1.836210876E0,5.410895944E-1,-9.761459351E0,-1.750161409E0
1.838210209E0,4.501099288E-1,-9.756670952E0,-1.735796213E0
1.840209542E0,4.046200812E-1,-9.763854027E0,-1.742978811E0
1.842209508E0,3.567360640E-1,-9.785401344E0,-1.735796213E0
1.844210008E0,3.303998411E-1,-9.794978142E0,-1.721431017E0
1.846210841E0,3.064578176E-1,-9.809343338E0,-1.714248419E0
1.848211674E0,2.537853718E-1,-9.833285332E0,-1.699883223E0
1.850212107E0,2.274491638E-1,-9.830891609E0,-1.697489023E0
1.852212073E0,1.891419291E-1,-9.842862129E0,-1.678335428E0
1.854212073E0,1.651999205E-1,-9.842862129E0,-1.661576033E0
1.856212106E0,1.197100878E-1,-9.845256805E0,-1.642422318E0
1.858212139E0,9.097966552E-2,-9.854833603E0,-1.604115129E0
1.860212172E0,9.337386489E-2,-9.862015724E0,-1.577778935E0
1.862212205E0,8.858546615E-2,-9.878775597E0,-1.544260144E0
1.864212238E0,7.900865376E-2,-9.883563995E0,-1.493981838E0
1.866212271E0,8.140286058E-2,-9.873987198E0,-1.465251446E0
1.868212304E0,8.140286058E-2,-9.864410400E0,-1.412579060E0
1.870212337E0,9.337386489E-2,-9.857227325E0,-1.383848548E0
1.872212670E0,1.173158810E-1,-9.842862129E0,-1.321599364E0
1.874212670E0,1.149216816E-1,-9.847650528E0,-1.271321058E0
1.876212670E0,1.077390760E-1,-9.835680008E0,-1.233013868E0
1.878212670E0,1.316810995E-1,-9.799766541E0,-1.144428372E0
1.880212636E0,1.484405100E-1,-9.790189743E0,-1.115697980E0
1.882212636E0,1.508347094E-1,-9.790189743E0,-1.094150186E0
1.884212602E0,1.819593310E-1,-9.749488831E0,-1.048660398E0
1.886212568E0,2.226607651E-1,-9.723152161E0,-1.005564690E0
1.888212534E0,2.489969730E-1,-9.680056572E0,-9.624691010E-1
1.890212500E0,2.609679997E-1,-9.660902977E0,-9.433154464E-1
1.892211566E0,3.136404157E-1,-9.634567261E0,-9.002198577E-1
1.894212199E0,3.495534360E-1,-9.627384186E0,-8.762778044E-1
1.896212165E0,3.902548850E-1,-9.610625267E0,-8.523358107E-1
1.898212798E0,4.644751251E-1,-9.615413666E0,-8.379706144E-1
1.900213431E0,5.075707436E-1,-9.608230591E0,-8.283938169E-1
1.902213464E0,5.841852427E-1,-9.615413666E0,-8.259995580E-1
1.904213830E0,6.248866320E-1,-9.622595787E0,-8.212111592E-1
1.906213863E0,7.254431248E-1,-9.624990463E0,-8.236053586E-1
1.908213896E0,8.164227605E-1,-9.641749382E0,-8.331822157E-1
1.910213929E0,8.571242094E-1,-9.651326180E0,-8.403648138E-1
1.912213962E0,9.481038451E-1,-9.670479774E0,-8.499416113E-1
1.914213995E0,1.053448796E0,-9.684844971E0,-8.331822157E-1
1.916213995E0,1.101332784E0,-9.699210167E0,-8.236053586E-1
1.918213961E0,1.161187768E0,-9.703998566E0,-7.972691655E-1
1.920213927E0,1.261744261E0,-9.720758438E0,-7.852981687E-1
1.922213493E0,1.297657371E0,-9.744700432E0,-7.805097699E-1
1.924213459E0,1.355118155E0,-9.761459351E0,-7.565677166E-1
1.926213425E0,1.379060149E0,-9.749488831E0,-7.278373241E-1
1.928213391E0,1.446097851E0,-9.730335236E0,-6.751648784E-1
1.930213357E0,1.472434044E0,-9.718363762E0,-6.607996821E-1
1.932213357E0,1.493981838E0,-9.720758438E0,-6.512228847E-1
1.934213390E0,1.510741234E0,-9.732728958E0,-6.248866320E-1
1.936213423E0,1.527500629E0,-9.725546837E0,-5.985504389E-1
1.938213456E0,1.539471745E0,-9.735123634E0,-5.770025849E-1
1.940213489E0,1.561019540E0,-9.730335236E0,-5.602431893E-1
1.942213522E0,1.575384736E0,-9.725546837E0,-5.554547906E-1
1.944213555E0,1.582567334E0,-9.723152161E0,-5.458779931E-1
1.946213588E0,1.606509328E0,-9.711181641E0,-5.171475410E-1
1.948213621E0,1.635239720E0,-9.711181641E0,-5.099649429E-1
1.950213621E0,1.644816518E0,-9.696816444E0,-5.027823448E-1
1.952213621E0,1.661576033E0,-9.684844971E0,-4.908113480E-1
1.954213621E0,1.671152830E0,-9.689633369E0,-4.979939461E-1
1.956213621E0,1.687912226E0,-9.699210167E0,-4.908113480E-1
1.958213621E0,1.711854219E0,-9.692028046E0,-4.979939461E-1
1.960213487E0,1.719036818E0,-9.694421768E0,-4.979939461E-1
1.962213720E0,1.740584612E0,-9.677662849E0,-4.812345505E-1
1.964213686E0,1.762132406E0,-9.682451248E0,-4.788403511E-1
1.966213652E0,1.781286120E0,-9.687239647E0,-4.884171486E-1
1.968213618E0,1.821987510E0,-9.677662849E0,-4.979939461E-1
1.970213584E0,1.860294700E0,-9.668086052E0,-5.003881454E-1
1.972213550E0,1.881842494E0,-9.665691376E0,-5.051765442E-1
1.974213516E0,1.912967205E0,-9.653720856E0,-5.075707436E-1
1.976213482E0,1.922544003E0,-9.656114578E0,-5.123591423E-1
1.978213482E0,1.951274395E0,-9.632172585E0,-5.267243981E-1
1.980213515E0,1.975216389E0,-9.629778862E0,-5.315127969E-1
1.982213281E0,1.994369984E0,-9.617807388E0,-5.291185975E-1
1.984212647E0,2.001552582E0,-9.603442192E0,-5.339069963E-1
1.986212680E0,2.027888775E0,-9.608230591E0,-5.530605912E-1
1.988212713E0,2.037465572E0,-9.632172585E0,-5.339069963E-1
1.990212746E0,2.047042370E0,-9.627384186E0,-5.339069963E-1
1.992212779E0,2.085349798E0,-9.629778862E0,-5.410895944E-1
1.994212779E0,2.090138197E0,-9.629778862E0,-5.363011956E-1
1.996212745E0,2.092532396E0,-9.636960983E0,-5.506663918E-1
1.998212711E0,2.133233786E0,-9.634567261E0,-5.410895944E-1
2.000212677E0,2.166752577E0,-9.634567261E0,-5.410895944E-1
2.002212643E0,2.176329374E0,-9.646537781E0,-5.482721925E-1
2.004212609E0,2.193088770E0,-9.653720856E0,-5.363011956E-1
2.006212575E0,2.207453966E0,-9.641749382E0,-5.291185975E-1
2.008212541E0,2.197877169E0,-9.622595787E0,-5.243301988E-1
2.010212441E0,2.197877169E0,-9.617807388E0,-5.147533417E-1
2.012212474E0,2.233790159E0,-9.617807388E0,-5.075707436E-1
2.014212507E0,2.245761156E0,-9.624990463E0,-4.955997467E-1
2.016212540E0,2.250549555E0,-9.629778862E0,-4.884171486E-1
2.018212573E0,2.260126352E0,-9.624990463E0,-4.812345505E-1
2.020212739E0,2.260126352E0,-9.601048470E0,-4.740519226E-1
2.022212505E0,2.262520552E0,-9.593865395E0,-4.692635238E-1
2.024212538E0,2.281674147E0,-9.601048470E0,-4.453215301E-1
2.026212571E0,2.291250944E0,-9.605836868E0,-4.141969085E-1
2.028212037E0,2.312798738E0,-9.608230591E0,-3.782838583E-1
2.030212037E0,2.324769735E0,-9.603442192E0,-3.615244627E-1
2.032212037E0,2.348711967E0,-9.598653793E0,-3.471592367E-1
2.034211870E0,2.360682964E0,-9.581894875E0,-3.064578176E-1
2.036211870E0,2.363077164E0,-9.598653793E0,-2.729389966E-1
2.038211870E0,2.387019157E0,-9.589076996E0,-2.130839527E-1
2.040211836E0,2.401384354E0,-9.591471672E0,-1.843535304E-1
2.042211569E0,2.410961151E0,-9.593865395E0,-1.292868853E-1
2.044212202E0,2.425326347E0,-9.596260071E0,-1.053448766E-1
2.046212168E0,2.444479942E0,-9.586683273E0,-4.548983276E-2
2.048212134E0,2.456450939E0,-9.589076996E0,3.591302410E-2
2.050212667E0,2.458845139E0,-9.601048470E0,6.943184882E-2
2.052213667E0,2.468421936E0,-9.598653793E0,1.221042871E-1
2.054213633E0,2.477998734E0,-9.608230591E0,1.915361285E-1
2.056213633E0,2.473210335E0,-9.613018990E0,2.226607651E-1
2.058213666E0,2.482787132E0,-9.598653793E0,2.944868207E-1
2.060213366E0,2.489969730E0,-9.589076996E0,3.232172430E-1
2.062212499E0,2.509123325E0,-9.567529678E0,3.806780577E-1
2.064212532E0,2.480392933E0,-9.560346603E0,4.285621047E-1
2.066211898E0,2.477998734E0,-9.550769806E0,4.453215301E-1
2.068211931E0,2.444479942E0,-9.545981407E0,5.219359994E-1
2.070212064E0,2.449268341E0,-9.536404610E0,5.434837937E-1
2.072212064E0,2.454056740E0,-9.534010887E0,5.602431893E-1
2.074212030E0,2.439691544E0,-9.545981407E0,5.841852427E-1
2.076211996E0,2.420537949E0,-9.534010887E0,5.985504389E-1
2.078211962E0,2.398990154E0,-9.529222488E0,6.177040339E-1
2.080211928E0,2.387019157E0,-9.529222488E0,6.248866320E-1
2.082211894E0,2.384624958E0,-9.534010887E0,6.033388376E-1
2.084211860E0,2.365471363E0,-9.531616211E0,5.746083856E-1
2.086211826E0,2.322375536E0,-9.522039413E0,5.291185975E-1
2.088212359E0,2.296039343E0,-9.541193008E0,4.740519226E-1
2.090212392E0,2.296039343E0,-9.550769806E0,4.477157295E-1
2.092212425E0,2.279279947E0,-9.557952881E0,3.734954596E-1
2.094212625E0,2.262520552E0,-9.567529678E0,3.303998411E-1
2.096212658E0,2.243366957E0,-9.557952881E0,2.346317619E-1
2.098212691E0,2.233790159E0,-9.567529678E0,1.197100878E-1
2.100212724E0,2.231395960E0,-9.574711800E0,6.703764945E-2
2.102213657E0,2.197877169E0,-9.579500198E0,-2.873042040E-2
2.104213690E0,2.161964178E0,-9.572318077E0,-1.053448766E-1
2.106213690E0,2.142810583E0,-9.555558205E0,-1.460463107E-1
2.108213690E0,2.111685991E0,-9.536404610E0,-2.226607651E-1
2.110213123E0,2.090138197E0,-9.543587685E0,-2.633621991E-1
2.112212223E0,2.020706177E0,-9.569923401E0,-3.399766386E-1
2.114212223E0,1.975216389E0,-9.579500198E0,-4.261679053E-1
2.116212223E0,1.946485996E0,-9.586683273E0,-4.620809257E-1
2.118212189E0,1.877054095E0,-9.608230591E0,-5.554547906E-1
2.120212489E0,1.850717902E0,-9.603442192E0,-5.841852427E-1
2.122213355E0,1.831564307E0,-9.610625267E0,-6.105214357E-1
2.124213321E0,1.793257117E0,-9.613018990E0,-6.967126727E-1
2.126213954E0,1.759738207E0,-9.629778862E0,-7.613561153E-1
2.128213920E0,1.750161409E0,-9.636960983E0,-7.948749661E-1
2.130213520E0,1.726219416E0,-9.634567261E0,-8.044517636E-1
2.132213486E0,1.690306425E0,-9.636960983E0,-8.499416113E-1
2.134213486E0,1.678335428E0,-9.634567261E0,-8.714894056E-1
2.136213486E0,1.678335428E0,-9.675268173E0,-9.121908545E-1
2.138213519E0,1.656787634E0,-9.670479774E0,-9.313444495E-1
2.140213552E0,1.647210717E0,-9.672874451E0,-9.409212470E-1
2.142213585E0,1.644816518E0,-9.656114578E0,-9.624691010E-1
2.144213618E0,1.642422318E0,-9.658509254E0,-9.840168953E-1
2.146213651E0,1.623268723E0,-9.648932457E0,-9.959878922E-1
2.148213684E0,1.632845521E0,-9.680056572E0,-1.010353088E0
2.150213684E0,1.640028119E0,-9.677662849E0,-1.022324085E0
2.152213650E0,1.642422318E0,-9.641749382E0,-1.022324085E0
2.154213616E0,1.635239720E0,-9.620202065E0,-1.034295082E0
2.156213582E0,1.635239720E0,-9.624990463E0,-1.036689281E0
2.158213548E0,1.647210717E0,-9.634567261E0,-1.051054597E0
2.160213514E0,1.644816518E0,-9.629778862E0,-1.048660398E0
2.162213480E0,1.632845521E0,-9.620202065E0,-1.053448796E0
2.164213446E0,1.649604917E0,-9.624990463E0,-1.053448796E0
2.166213446E0,1.659181833E0,-9.622595787E0,-1.060631394E0
2.168213479E0,1.666364431E0,-9.627384186E0,-1.055842996E0
2.170213512E0,1.661576033E0,-9.627384186E0,-1.063025594E0
2.172213412E0,1.659181833E0,-9.620202065E0,-1.067813993E0
2.174213445E0,1.663970232E0,-9.620202065E0,-1.063025594E0
2.176213478E0,1.675941229E0,-9.610625267E0,-1.077390790E0
2.178213444E0,1.671152830E0,-9.603442192E0,-1.063025594E0
2.180213477E0,1.678335428E0,-9.598653793E0,-1.060631394E0
2.182213510E0,1.692700624E0,-9.608230591E0,-1.063025594E0
2.184213510E0,1.699883223E0,-9.613018990E0,-1.063025594E0
2.186213510E0,1.714248419E0,-9.615413666E0,-1.063025594E0
2.188213510E0,1.719036818E0,-9.601048470E0,-1.055842996E0
2.190214010E0,1.728613615E0,-9.593865395E0,-1.055842996E0
2.192214010E0,1.723825216E0,-9.596260071E0,-1.065419793E0
2.194214010E0,1.731007814E0,-9.589076996E0,-1.058237195E0
2.196214610E0,1.733402014E0,-9.605836868E0,-1.053448796E0
2.198214576E0,1.752555609E0,-9.610625267E0,-1.048660398E0
2.200214542E0,1.762132406E0,-9.617807388E0,-1.046266198E0
2.202214508E0,1.771709204E0,-9.613018990E0,-1.039083481E0
2.204214474E0,1.786074519E0,-9.603442192E0,-1.053448796E0
2.206214440E0,1.786074519E0,-9.591471672E0,-1.048660398E0
2.208214406E0,1.817199111E0,-9.596260071E0,-1.036689281E0
2.210214372E0,1.817199111E0,-9.586683273E0,-1.027112484E0
2.212214372E0,1.819593310E0,-9.577106476E0,-1.017535686E0
2.214214372E0,1.841141105E0,-9.596260071E0,-1.041477680E0
2.216214405E0,1.845929503E0,-9.608230591E0,-1.039083481E0
2.218214438E0,1.857900500E0,-9.620202065E0,-1.027112484E0
2.220214071E0,1.860294700E0,-9.617807388E0,-1.027112484E0
2.222214104E0,1.879448295E0,-9.620202065E0,-1.017535686E0
2.224214137E0,1.879448295E0,-9.613018990E0,-1.012747288E0
2.226214170E0,1.891419291E0,-9.601048470E0,-1.010353088E0
2.228214170E0,1.908178806E0,-9.591471672E0,-1.017535686E0
2.230214136E0,1.912967205E0,-9.591471672E0,-1.022324085E0
2.232214102E0,1.915361404E0,-9.596260071E0,-1.022324085E0
2.234213402E0,1.922544003E0,-9.601048470E0,-1.007958889E0
2.236213368E0,1.932120800E0,-9.622595787E0,-9.864110947E-1
2.238213401E0,1.951274395E0,-9.613018990E0,-9.816226959E-1
2.240213367E0,1.948880196E0,-9.603442192E0,-9.744400978E-1
2.242213333E0,1.963245392E0,-9.610625267E0,-9.696516991E-1
2.244213333E0,1.958456993E0,-9.605836868E0,-9.744400978E-1
2.246212699E0,1.968033791E0,-9.579500198E0,-9.672574997E-1
2.248212732E0,1.977610588E0,-9.565135002E0,-9.576807022E-1
2.250211965E0,1.984793186E0,-9.560346603E0,-9.600749016E-1
2.252211998E0,1.996764183E0,-9.574711800E0,-9.696516991E-1
2.254211364E0,2.006340981E0,-9.574711800E0,-9.576807022E-1
2.256210797E0,2.018311977E0,-9.574711800E0,-9.576807022E-1
2.258210830E0,2.035071373E0,-9.560346603E0,-9.648633003E-1
2.260210863E0,2.025494576E0,-9.565135002E0,-9.528923035E-1
2.262210863E0,2.018311977E0,-9.569923401E0,-9.528923035E-1
2.264210863E0,2.023100376E0,-9.579500198E0,-9.600749016E-1
2.266210863E0,2.037465572E0,-9.574711800E0,-9.433154464E-1
2.268210863E0,2.035071373E0,-9.550769806E0,-9.504981041E-1
2.270210863E0,2.030282974E0,-9.553164482E0,-9.528923035E-1
2.272210863E0,2.030282974E0,-9.560346603E0,-9.528923035E-1
2.274210863E0,2.030282974E0,-9.534010887E0,-9.552865028E-1
2.276210829E0,2.027888775E0,-9.562741280E0,-9.600749016E-1
2.278210795E0,2.025494576E0,-9.557952881E0,-9.696516991E-1
2.280212561E0,2.032677174E0,-9.545981407E0,-9.624691010E-1
2.282212527E0,2.037465572E0,-9.545981407E0,-9.720458984E-1
2.284212493E0,2.027888775E0,-9.543587685E0,-9.840168953E-1
2.286212459E0,2.013523579E0,-9.526827812E0,-9.840168953E-1
2.288212425E0,2.020706177E0,-9.517251015E0,-9.840168953E-1
2.290212425E0,2.015917778E0,-9.524434090E0,-9.840168953E-1
2.292212425E0,2.006340981E0,-9.526827812E0,-9.744400978E-1
2.294213125E0,2.006340981E0,-9.522039413E0,-9.768342972E-1
2.296213158E0,2.006340981E0,-9.524434090E0,-9.840168953E-1
2.298213191E0,1.999158382E0,-9.526827812E0,-9.864110947E-1
2.300213224E0,1.991975784E0,-9.526827812E0,-9.816226959E-1
2.302213257E0,1.987187386E0,-9.545981407E0,-9.816226959E-1
2.304213057E0,1.975216389E0,-9.548376083E0,-9.672574997E-1
2.306213723E0,1.975216389E0,-9.565135002E0,-9.672574997E-1
2.308213689E0,1.977610588E0,-9.601048470E0,-9.672574997E-1
2.310214322E0,1.972822189E0,-9.601048470E0,-9.720458984E-1
2.312214288E0,1.963245392E0,-9.601048470E0,-9.768342972E-1
2.314214921E0,1.958456993E0,-9.613018990E0,-9.672574997E-1
2.316214887E0,1.951274395E0,-9.615413666E0,-9.481038451E-1
2.318214853E0,1.934514999E0,-9.636960983E0,-9.481038451E-1
2.320214819E0,1.936909199E0,-9.641749382E0,-9.528923035E-1
2.322214819E0,1.927332401E0,-9.651326180E0,-9.385270476E-1
2.324214819E0,1.924938202E0,-9.651326180E0,-9.337386489E-1
2.326214819E0,1.912967205E0,-9.670479774E0,-9.169792533E-1
2.328214819E0,1.924938202E0,-9.675268173E0,-9.145850539E-1
2.330214819E0,1.922544003E0,-9.675268173E0,-9.026140571E-1
2.332214819E0,1.910573006E0,-9.651326180E0,-8.954314590E-1
2.334213919E0,1.910573006E0,-9.646537781E0,-8.930372596E-1
2.336213919E0,1.917755604E0,-9.632172585E0,-8.858546019E-1
2.338213919E0,1.893813491E0,-9.629778862E0,-8.762778044E-1
2.340212552E0,1.884236693E0,-9.627384186E0,-8.667010069E-1
2.342212585E0,1.889025092E0,-9.634567261E0,-8.499416113E-1
2.344212618E0,1.891419291E0,-9.632172585E0,-8.499416113E-1
2.346212651E0,1.881842494E0,-9.629778862E0,-8.475474119E-1
2.348212684E0,1.884236693E0,-9.624990463E0,-8.355764151E-1
2.350212317E0,1.889025092E0,-9.624990463E0,-8.212111592E-1
2.352212417E0,1.900996208E0,-9.598653793E0,-7.972691655E-1
2.354212417E0,1.898601890E0,-9.603442192E0,-7.948749661E-1
2.356212383E0,1.893813491E0,-9.603442192E0,-7.805097699E-1
2.358211949E0,1.910573006E0,-9.608230591E0,-7.709329724E-1
2.360211915E0,1.905784607E0,-9.620202065E0,-7.685387731E-1
2.362211881E0,1.891419291E0,-9.627384186E0,-7.709329724E-1
2.364211714E0,1.891419291E0,-9.620202065E0,-7.613561153E-1
2.366211680E0,1.900996208E0,-9.629778862E0,-7.469909191E-1
2.368211680E0,1.896207690E0,-9.646537781E0,-7.398083210E-1
2.370211680E0,1.898601890E0,-9.641749382E0,-7.350199223E-1
2.372211713E0,1.896207690E0,-9.644144058E0,-7.038952708E-1
2.374211746E0,1.900996208E0,-9.634567261E0,-6.895300746E-1
2.376211779E0,1.915361404E0,-9.641749382E0,-6.847416759E-1
2.378211812E0,1.891419291E0,-9.634567261E0,-6.703764796E-1
2.380211845E0,1.889025092E0,-9.629778862E0,-6.655880809E-1
2.382211878E0,1.886630893E0,-9.639355659E0,-6.631938815E-1
2.384211911E0,1.889025092E0,-9.639355659E0,-6.560112834E-1
2.386211944E0,1.910573006E0,-9.646537781E0,-6.488286853E-1
2.388211944E0,1.915361404E0,-9.622595787E0,-6.344634295E-1
2.390211944E0,1.917755604E0,-9.617807388E0,-6.224924326E-1
2.392211944E0,1.910573006E0,-9.620202065E0,-6.272808313E-1
2.394212444E0,1.927332401E0,-9.624990463E0,-6.081272364E-1
2.396212444E0,1.932120800E0,-9.615413666E0,-5.961562395E-1
2.398212444E0,1.946485996E0,-9.581894875E0,-5.913678408E-1
2.400212044E0,1.956062794E0,-9.567529678E0,-5.722141862E-1
2.402212010E0,1.951274395E0,-9.560346603E0,-5.626373887E-1
2.404211976E0,1.960851192E0,-9.565135002E0,-5.458779931E-1
2.406212509E0,1.953668594E0,-9.577106476E0,-5.434837937E-1
2.408212475E0,1.929726601E0,-9.577106476E0,-5.219359994E-1
2.410212841E0,1.924938202E0,-9.569923401E0,-5.099649429E-1
2.412212741E0,1.924938202E0,-9.560346603E0,-4.979939461E-1
2.414212707E0,1.932120800E0,-9.562741280E0,-4.812345505E-1
2.416212707E0,1.917755604E0,-9.569923401E0,-4.644751251E-1
2.418213140E0,1.905784607E0,-9.562741280E0,-4.477157295E-1
2.420213173E0,1.891419291E0,-9.560346603E0,-4.381389022E-1
2.422213206E0,1.893813491E0,-9.560346603E0,-4.405331016E-1
2.424213606E0,1.893813491E0,-9.553164482E0,-4.261679053E-1
2.426213639E0,1.893813491E0,-9.550769806E0,-4.022258818E-1
2.428213672E0,1.867477298E0,-9.543587685E0,-3.902548850E-1
2.430213305E0,1.862688899E0,-9.545981407E0,-3.878606856E-1
2.432213305E0,1.848323703E0,-9.545981407E0,-3.806780577E-1
2.434212605E0,1.841141105E0,-9.538799286E0,-3.758896589E-1
2.436212605E0,1.833958507E0,-9.524434090E0,-3.615244627E-1
2.438212571E0,1.831564307E0,-9.522039413E0,-3.567360640E-1
2.440212537E0,1.821987510E0,-9.524434090E0,-3.663128614E-1
2.442213703E0,1.810016513E0,-9.505280495E0,-3.639186621E-1
2.444213669E0,1.807622313E0,-9.502885818E0,-3.687070608E-1
2.446213635E0,1.800439715E0,-9.519645691E0,-3.663128614E-1
2.448213635E0,1.810016513E0,-9.531616211E0,-3.734954596E-1
2.450213668E0,1.802833915E0,-9.548376083E0,-3.902548850E-1
2.452213701E0,1.790862918E0,-9.545981407E0,-3.950432837E-1
2.454214134E0,1.793257117E0,-9.553164482E0,-4.022258818E-1
2.456214167E0,1.805228114E0,-9.562741280E0,-4.046200812E-1
2.458214200E0,1.795651317E0,-9.560346603E0,-4.405331016E-1
2.460214200E0,1.781286120E0,-9.569923401E0,-4.525041282E-1
2.462214233E0,1.781286120E0,-9.586683273E0,-4.668693244E-1
2.464214266E0,1.776497602E0,-9.598653793E0,-5.003881454E-1
2.466213699E0,1.769315004E0,-9.613018990E0,-5.291185975E-1
2.468213699E0,1.769315004E0,-9.613018990E0,-5.506663918E-1
2.470213699E0,1.769315004E0,-9.615413666E0,-5.602431893E-1
2.472213699E0,1.764526606E0,-9.615413666E0,-5.841852427E-1
2.474213699E0,1.769315004E0,-9.615413666E0,-5.913678408E-1
2.476213699E0,1.766920805E0,-9.620202065E0,-6.248866320E-1
2.478213665E0,1.774103403E0,-9.613018990E0,-6.368576288E-1
2.480213631E0,1.776497602E0,-9.605836868E0,-6.440402865E-1
2.482213597E0,1.790862918E0,-9.632172585E0,-6.703764796E-1
2.484213563E0,1.800439715E0,-9.648932457E0,-6.799532771E-1
2.486213529E0,1.798045516E0,-9.646537781E0,-7.182605267E-1
2.488213495E0,1.798045516E0,-9.660902977E0,-7.302315235E-1
2.490213861E0,1.814804912E0,-9.675268173E0,-7.398083210E-1
2.492213827E0,1.812410712E0,-9.660902977E0,-7.445967197E-1
2.494214493E0,1.821987510E0,-9.675268173E0,-7.637503147E-1
2.496214493E0,1.826775908E0,-9.680056572E0,-7.757213712E-1
2.498214526E0,1.848323703E0,-9.694421768E0,-8.092401624E-1
2.500214559E0,1.853112102E0,-9.699210167E0,-8.092401624E-1
2.502212992E0,1.869871497E0,-9.696816444E0,-8.140285611E-1
2.504213025E0,1.903390408E0,-9.699210167E0,-8.212111592E-1
2.506212391E0,1.912967205E0,-9.699210167E0,-8.236053586E-1
2.508212424E0,1.936909199E0,-9.699210167E0,-8.355764151E-1
2.510212424E0,1.946485996E0,-9.694421768E0,-8.475474119E-1
2.512212390E0,1.956062794E0,-9.684844971E0,-8.523358107E-1
2.514212356E0,1.956062794E0,-9.680056572E0,-8.906430602E-1
2.516212322E0,1.968033791E0,-9.670479774E0,-8.906430602E-1
2.518212288E0,1.996764183E0,-9.668086052E0,-8.834604025E-1
2.520212254E0,1.994369984E0,-9.656114578E0,-8.858546019E-1
2.522212220E0,1.999158382E0,-9.644144058E0,-8.858546019E-1
2.524212186E0,2.006340981E0,-9.627384186E0,-8.954314590E-1
2.526212186E0,1.999158382E0,-9.593865395E0,-8.930372596E-1
2.528212219E0,1.987187386E0,-9.581894875E0,-8.858546019E-1
2.530212252E0,1.980004787E0,-9.577106476E0,-8.906430602E-1
2.532212285E0,1.977610588E0,-9.562741280E0,-8.882488012E-1
2.534212318E0,1.982398987E0,-9.562741280E0,-8.834604025E-1
2.536212351E0,1.980004787E0,-9.543587685E0,-8.786720037E-1
2.538212384E0,1.994369984E0,-9.512462616E0,-8.954314590E-1
2.540212417E0,1.999158382E0,-9.512462616E0,-8.930372596E-1
2.542212450E0,1.996764183E0,-9.526827812E0,-9.097966552E-1
2.544212050E0,1.972822189E0,-9.510068893E0,-9.050082564E-1
2.546211716E0,1.968033791E0,-9.500492096E0,-9.002198577E-1
2.548211716E0,1.956062794E0,-9.519645691E0,-9.026140571E-1
2.550211216E0,1.960851192E0,-9.519645691E0,-9.026140571E-1
2.552211216E0,1.972822189E0,-9.524434090E0,-8.978256583E-1
2.554211216E0,1.980004787E0,-9.545981407E0,-8.834604025E-1
2.556211182E0,1.963245392E0,-9.553164482E0,-8.810662031E-1
2.558211148E0,1.946485996E0,-9.572318077E0,-8.786720037E-1
2.560211114E0,1.936909199E0,-9.574711800E0,-8.762778044E-1
2.562211480E0,1.905784607E0,-9.574711800E0,-8.619126081E-1
2.564211446E0,1.903390408E0,-9.593865395E0,-8.643068075E-1
2.566212079E0,1.912967205E0,-9.591471672E0,-8.667010069E-1
2.568212045E0,1.910573006E0,-9.603442192E0,-8.714894056E-1
2.570212011E0,1.915361404E0,-9.608230591E0,-8.714894056E-1
2.572212011E0,1.898601890E0,-9.620202065E0,-8.714894056E-1
2.574212044E0,1.891419291E0,-9.622595787E0,-8.690952063E-1
2.576212077E0,1.891419291E0,-9.617807388E0,-8.643068075E-1
2.578212110E0,1.874659896E0,-9.627384186E0,-8.643068075E-1
2.580212543E0,1.865083098E0,-9.622595787E0,-8.690952063E-1
2.582212576E0,1.848323703E0,-9.634567261E0,-8.762778044E-1
2.584212609E0,1.841141105E0,-9.629778862E0,-8.690952063E-1
2.586212642E0,1.836352706E0,-9.617807388E0,-8.643068075E-1
2.588212642E0,1.836352706E0,-9.598653793E0,-8.571242094E-1
2.590212608E0,1.833958507E0,-9.593865395E0,-8.571242094E-1
2.592212574E0,1.841141105E0,-9.584288597E0,-8.619126081E-1
2.594212540E0,1.833958507E0,-9.569923401E0,-8.714894056E-1
2.596212506E0,1.836352706E0,-9.562741280E0,-8.619126081E-1
2.598212472E0,1.831564307E0,-9.579500198E0,-8.547300100E-1
2.600212438E0,1.829170108E0,-9.577106476E0,-8.619126081E-1
2.602212404E0,1.817199111E0,-9.577106476E0,-8.619126081E-1
2.604212504E0,1.795651317E0,-9.596260071E0,-8.667010069E-1
2.606212870E0,1.786074519E0,-9.596260071E0,-8.427590132E-1
2.608212903E0,1.795651317E0,-9.591471672E0,-8.499416113E-1
2.610213403E0,1.793257117E0,-9.598653793E0,-8.571242094E-1
2.612213436E0,1.781286120E0,-9.608230591E0,-8.499416113E-1
2.614213469E0,1.771709204E0,-9.622595787E0,-8.571242094E-1
2.616213502E0,1.769315004E0,-9.629778862E0,-8.738836050E-1
2.618213535E0,1.762132406E0,-9.641749382E0,-8.595184088E-1
2.620213568E0,1.764526606E0,-9.646537781E0,-8.571242094E-1
2.622213568E0,1.745373011E0,-9.651326180E0,-8.667010069E-1
2.624213568E0,1.750161409E0,-9.665691376E0,-8.690952063E-1
2.626213568E0,1.735796213E0,-9.658509254E0,-8.571242094E-1
2.628213568E0,1.738190413E0,-9.660902977E0,-8.714894056E-1
2.630213334E0,1.731007814E0,-9.656114578E0,-8.714894056E-1
2.632213334E0,1.716642618E0,-9.646537781E0,-8.523358107E-1
2.634213300E0,1.695094824E0,-9.660902977E0,-8.571242094E-1
2.636213266E0,1.685518026E0,-9.660902977E0,-8.595184088E-1
2.638213232E0,1.675941229E0,-9.646537781E0,-8.475474119E-1
2.640213198E0,1.666364431E0,-9.636960983E0,-8.451532125E-1
2.642213164E0,1.661576033E0,-9.634567261E0,-8.451532125E-1
2.644212330E0,1.663970232E0,-9.646537781E0,-8.355764151E-1
2.646212296E0,1.656787634E0,-9.639355659E0,-8.307880163E-1
2.648212262E0,1.656787634E0,-9.632172585E0,-8.451532125E-1
2.650212262E0,1.649604917E0,-9.641749382E0,-8.331822157E-1
2.652212295E0,1.642422318E0,-9.639355659E0,-8.236053586E-1
2.654211928E0,1.623268723E0,-9.622595787E0,-8.212111592E-1
2.656211961E0,1.635239720E0,-9.634567261E0,-8.068459630E-1
2.658211994E0,1.640028119E0,-9.639355659E0,-7.972691655E-1
2.660212027E0,1.644816518E0,-9.641749382E0,-7.996633649E-1
2.662212060E0,1.647210717E0,-9.648932457E0,-7.781155705E-1
2.664212393E0,1.644816518E0,-9.660902977E0,-7.757213712E-1
2.666211993E0,1.649604917E0,-9.670479774E0,-7.685387731E-1
2.668211959E0,1.644816518E0,-9.668086052E0,-7.469909191E-1
2.670211192E0,1.644816518E0,-9.680056572E0,-7.374141216E-1
2.672211158E0,1.640028119E0,-9.703998566E0,-7.350199223E-1
2.674211124E0,1.644816518E0,-9.701604843E0,-7.302315235E-1
2.676211090E0,1.637633920E0,-9.696816444E0,-7.206547260E-1
2.678211056E0,1.644816518E0,-9.696816444E0,-7.158663273E-1
2.680211022E0,1.647210717E0,-9.694421768E0,-7.038952708E-1
2.682211022E0,1.671152830E0,-9.696816444E0,-6.895300746E-1
2.684211055E0,1.675941229E0,-9.694421768E0,-6.751648784E-1
2.686211088E0,1.673547029E0,-9.677662849E0,-6.775590777E-1
2.688211121E0,1.680729628E0,-9.670479774E0,-6.631938815E-1
2.690211387E0,1.687912226E0,-9.663297653E0,-6.607996821E-1
2.692211420E0,1.697489023E0,-9.663297653E0,-6.560112834E-1
2.694211020E0,1.702277422E0,-9.656114578E0,-6.392518282E-1
2.696211053E0,1.721431017E0,-9.658509254E0,-6.320692301E-1
2.698211086E0,1.754949808E0,-9.622595787E0,-6.177040339E-1
2.700210686E0,1.764526606E0,-9.617807388E0,-6.200982332E-1
2.702210686E0,1.783680320E0,-9.610625267E0,-6.177040339E-1
2.704211486E0,1.795651317E0,-9.589076996E0,-6.057330370E-1
2.706211486E0,1.793257117E0,-9.557952881E0,-6.057330370E-1
2.708211486E0,1.821987510E0,-9.538799286E0,-5.937620401E-1
2.710211486E0,1.829170108E0,-9.538799286E0,-5.817909837E-1
2.712211452E0,1.819593310E0,-9.534010887E0,-5.770025849E-1
2.714211818E0,1.831564307E0,-9.522039413E0,-5.817909837E-1
2.716211784E0,1.862688899E0,-9.517251015E0,-5.817909837E-1
2.718211750E0,1.865083098E0,-9.524434090E0,-5.889736414E-1
2.720211716E0,1.865083098E0,-9.524434090E0,-5.913678408E-1
2.722211682E0,1.874659896E0,-9.519645691E0,-5.889736414E-1
2.724211915E0,1.879448295E0,-9.512462616E0,-5.889736414E-1
2.726212281E0,1.893813491E0,-9.541193008E0,-5.865794420E-1
2.728212281E0,1.920149803E0,-9.553164482E0,-5.913678408E-1
2.730212981E0,1.927332401E0,-9.560346603E0,-5.865794420E-1
2.732213014E0,1.939303398E0,-9.560346603E0,-5.817909837E-1
2.734213047E0,1.941697598E0,-9.574711800E0,-5.865794420E-1
2.736213080E0,1.939303398E0,-9.586683273E0,-5.889736414E-1
2.738213113E0,1.910573006E0,-9.591471672E0,-6.057330370E-1
2.740213146E0,1.920149803E0,-9.617807388E0,-6.081272364E-1
2.742213179E0,1.924938202E0,-9.627384186E0,-6.105214357E-1
2.744213179E0,1.939303398E0,-9.632172585E0,-6.177040339E-1
2.746213145E0,1.934514999E0,-9.634567261E0,-6.177040339E-1
2.748213111E0,1.951274395E0,-9.644144058E0,-6.033388376E-1
2.750213077E0,1.944091797E0,-9.632172585E0,-6.105214357E-1
2.752213043E0,1.944091797E0,-9.617807388E0,-6.224924326E-1
2.754213443E0,1.953668594E0,-9.627384186E0,-6.392518282E-1
2.756213409E0,1.953668594E0,-9.603442192E0,-6.320692301E-1
2.758213375E0,1.958456993E0,-9.603442192E0,-6.200982332E-1
2.760213741E0,1.953668594E0,-9.586683273E0,-6.224924326E-1
2.762213741E0,1.951274395E0,-9.579500198E0,-6.368576288E-1
2.764213741E0,1.948880196E0,-9.572318077E0,-6.488286853E-1
2.766213641E0,1.932120800E0,-9.584288597E0,-6.655880809E-1
2.768213641E0,1.927332401E0,-9.562741280E0,-6.751648784E-1
2.770213641E0,1.936909199E0,-9.548376083E0,-6.751648784E-1
2.772213641E0,1.941697598E0,-9.545981407E0,-6.751648784E-1
2.774213641E0,1.956062794E0,-9.550769806E0,-6.751648784E-1
2.776213641E0,1.939303398E0,-9.541193008E0,-6.895300746E-1
2.778213674E0,1.939303398E0,-9.550769806E0,-6.871358752E-1
2.780213707E0,1.939303398E0,-9.545981407E0,-6.895300746E-1
2.782213740E0,1.934514999E0,-9.557952881E0,-6.967126727E-1
2.784213506E0,1.927332401E0,-9.543587685E0,-7.134721279E-1
2.786213539E0,1.912967205E0,-9.553164482E0,-7.230489254E-1
2.788213572E0,1.903390408E0,-9.557952881E0,-7.493851185E-1
2.790214172E0,1.905784607E0,-9.557952881E0,-7.517793179E-1
2.792214172E0,1.898601890E0,-9.565135002E0,-7.613561153E-1
2.794214138E0,1.886630893E0,-9.562741280E0,-7.565677166E-1
2.796213771E0,1.893813491E0,-9.562741280E0,-7.613561153E-1
2.798213737E0,1.886630893E0,-9.572318077E0,-7.757213712E-1
2.800213703E0,1.886630893E0,-9.584288597E0,-7.829039693E-1
2.802213669E0,1.860294700E0,-9.569923401E0,-7.972691655E-1
2.804213635E0,1.865083098E0,-9.569923401E0,-8.044517636E-1
2.806213635E0,1.872265697E0,-9.560346603E0,-8.068459630E-1
2.808213668E0,1.860294700E0,-9.584288597E0,-8.236053586E-1
2.810213701E0,1.862688899E0,-9.569923401E0,-8.331822157E-1
2.812213734E0,1.872265697E0,-9.567529678E0,-8.451532125E-1
2.814213767E0,1.872265697E0,-9.555558205E0,-8.571242094E-1
2.816213800E0,1.874659896E0,-9.553164482E0,-8.667010069E-1
2.818213833E0,1.860294700E0,-9.536404610E0,-8.690952063E-1
2.820213899E0,1.867477298E0,-9.524434090E0,-8.786720037E-1
2.822213932E0,1.886630893E0,-9.505280495E0,-8.954314590E-1
2.824213932E0,1.886630893E0,-9.493309021E0,-8.954314590E-1
2.826214032E0,1.881842494E0,-9.498097420E0,-9.002198577E-1
2.828214032E0,1.877054095E0,-9.505280495E0,-9.097966552E-1
2.830214032E0,1.896207690E0,-9.500492096E0,-9.169792533E-1
2.832214032E0,1.905784607E0,-9.478943825E0,-9.289502501E-1
2.834213365E0,1.896207690E0,-9.490914345E0,-9.241618514E-1
2.836213365E0,1.898601890E0,-9.498097420E0,-9.265560508E-1
2.838213331E0,1.910573006E0,-9.514857292E0,-9.361328483E-1
2.840213297E0,1.912967205E0,-9.517251015E0,-9.289502501E-1
2.842213263E0,1.910573006E0,-9.512462616E0,-9.241618514E-1
2.844212829E0,1.920149803E0,-9.529222488E0,-9.409212470E-1
2.846212795E0,1.920149803E0,-9.553164482E0,-9.409212470E-1
2.848212761E0,1.920149803E0,-9.581894875E0,-9.504981041E-1
2.850211961E0,1.924938202E0,-9.593865395E0,-9.528923035E-1
2.852211927E0,1.934514999E0,-9.596260071E0,-9.409212470E-1
2.854211927E0,1.934514999E0,-9.596260071E0,-9.361328483E-1
2.856212293E0,1.929726601E0,-9.632172585E0,-9.265560508E-1
2.858212326E0,1.939303398E0,-9.653720856E0,-9.145850539E-1
2.860212359E0,1.929726601E0,-9.675268173E0,-9.121908545E-1
2.862212059E0,1.922544003E0,-9.689633369E0,-9.002198577E-1
2.864212059E0,1.927332401E0,-9.692028046E0,-8.954314590E-1
2.866198998E0,1.927332401E0,-9.718363762E0,-8.906430602E-1
2.868198998E0,1.939303398E0,-9.715970039E0,-8.810662031E-1
2.870198998E0,1.941697598E0,-9.720758438E0,-8.714894056E-1
2.872198964E0,1.912967205E0,-9.694421768E0,-8.499416113E-1
2.874198930E0,1.898601890E0,-9.708786964E0,-8.379706144E-1
2.876198896E0,1.900996208E0,-9.711181641E0,-8.331822157E-1
2.878198862E0,1.912967205E0,-9.713575363E0,-8.259995580E-1
2.880198428E0,1.912967205E0,-9.715970039E0,-8.236053586E-1
2.882198394E0,1.893813491E0,-9.713575363E0,-8.092401624E-1
2.884198394E0,1.879448295E0,-9.699210167E0,-7.924807668E-1
2.886198394E0,1.881842494E0,-9.689633369E0,-7.900865674E-1
2.888198427E0,1.891419291E0,-9.665691376E0,-7.852981687E-1
2.890198460E0,1.896207690E0,-9.660902977E0,-7.733271718E-1
2.892198493E0,1.886630893E0,-9.651326180E0,-7.637503147E-1
2.894199193E0,1.889025092E0,-9.608230591E0,-7.493851185E-1
2.896199226E0,1.900996208E0,-9.601048470E0,-7.445967197E-1
2.898199259E0,1.891419291E0,-9.586683273E0,-7.445967197E-1
2.900199292E0,1.886630893E0,-9.579500198E0,-7.374141216E-1
2.902199292E0,1.898601890E0,-9.567529678E0,-7.158663273E-1
2.904199725E0,1.891419291E0,-9.560346603E0,-7.038952708E-1
2.906199725E0,1.884236693E0,-9.522039413E0,-6.943184733E-1
2.908199725E0,1.891419291E0,-9.490914345E0,-6.823474765E-1
2.910199991E0,1.891419291E0,-9.481337547E0,-6.775590777E-1
2.912199991E0,1.889025092E0,-9.464578629E0,-6.679822803E-1
2.914199991E0,1.881842494E0,-9.450213432E0,-6.655880809E-1
2.916199957E0,1.869871497E0,-9.440636635E0,-6.584054828E-1
2.918199923E0,1.879448295E0,-9.428665161E0,-6.560112834E-1
2.920199889E0,1.874659896E0,-9.426271439E0,-6.560112834E-1
2.922200189E0,1.855506301E0,-9.428665161E0,-6.560112834E-1
2.924200189E0,1.838746905E0,-9.433453560E0,-6.392518282E-1
2.926200155E0,1.833958507E0,-9.457395554E0,-6.248866320E-1
2.928200121E0,1.826775908E0,-9.526827812E0,-6.105214357E-1
2.930200554E0,1.821987510E0,-9.605836868E0,-6.057330370E-1
2.932200554E0,1.817199111E0,-9.660902977E0,-5.961562395E-1
2.934200587E0,1.812410712E0,-9.739912033E0,-5.674257874E-1
2.936200620E0,1.798045516E0,-9.735123634E0,-5.554547906E-1
2.938200653E0,1.776497602E0,-9.632172585E0,-5.291185975E-1
2.940200686E0,1.771709204E0,-9.584288597E0,-5.291185975E-1
2.942200719E0,1.771709204E0,-9.550769806E0,-5.195417404E-1
2.944200752E0,1.759738207E0,-9.510068893E0,-4.932055473E-1
2.946200785E0,1.790862918E0,-9.502885818E0,-4.884171486E-1
2.948200785E0,1.821987510E0,-9.505280495E0,-4.932055473E-1
2.950200751E0,1.836352706E0,-9.524434090E0,-4.955997467E-1
2.952200717E0,1.877054095E0,-9.553164482E0,-4.884171486E-1
2.954200683E0,1.908178806E0,-9.562741280E0,-4.908113480E-1
2.956200649E0,1.929726601E0,-9.567529678E0,-5.195417404E-1
2.958200615E0,1.927332401E0,-9.567529678E0,-5.410895944E-1
2.960200581E0,1.934514999E0,-9.569923401E0,-5.482721925E-1
2.962200581E0,1.965639591E0,-9.598653793E0,-5.650315881E-1
2.964200547E0,1.958456993E0,-9.615413666E0,-5.746083856E-1
2.966200580E0,1.924938202E0,-9.651326180E0,-5.913678408E-1
2.968200613E0,1.920149803E0,-9.701604843E0,-6.057330370E-1
2.970200879E0,1.936909199E0,-9.713575363E0,-6.129156351E-1
2.972200912E0,1.951274395E0,-9.727940559E0,-6.248866320E-1
2.974200945E0,1.932120800E0,-9.739912033E0,-6.344634295E-1
2.976201811E0,1.920149803E0,-9.759065628E0,-6.440402865E-1
2.978201844E0,1.968033791E0,-9.775824547E0,-6.464344859E-1
2.980201844E0,1.980004787E0,-9.794978142E0,-6.727706790E-1
2.982201844E0,1.991975784E0,-9.811738014E0,-6.703764796E-1
2.984201844E0,2.013523579E0,-9.821314812E0,-6.607996821E-1
2.986201844E0,2.056619167E0,-9.823708534E0,-6.560112834E-1
2.988201844E0,2.082955360E0,-9.780612946E0,-6.440402865E-1
2.990201377E0,2.090138197E0,-9.771036148E0,-6.344634295E-1
2.992201377E0,2.092532396E0,-9.756670952E0,-6.200982332E-1
2.994201343E0,2.082955360E0,-9.715970039E0,-5.937620401E-1
2.996201309E0,2.063801765E0,-9.658509254E0,-5.913678408E-1
2.998201275E0,2.042253971E0,-9.591471672E0,-5.626373887E-1
3.000201241E0,2.030282974E0,-9.562741280E0,-5.530605912E-1
3.002201207E0,1.980004787E0,-9.536404610E0,-5.363011956E-1
3.004201173E0,1.941697598E0,-9.522039413E0,-5.291185975E-1
3.006201139E0,1.917755604E0,-9.510068893E0,-5.147533417E-1
3.008201105E0,1.910573006E0,-9.490914345E0,-5.123591423E-1
3.010201105E0,1.903390408E0,-9.490914345E0,-5.171475410E-1
3.012201138E0,1.879448295E0,-9.502885818E0,-5.315127969E-1
3.014201171E0,1.884236693E0,-9.505280495E0,-5.410895944E-1
3.016201204E0,1.908178806E0,-9.517251015E0,-5.650315881E-1
3.018201237E0,1.908178806E0,-9.548376083E0,-5.817909837E-1
3.020201270E0,1.912967205E0,-9.562741280E0,-5.985504389E-1
3.022201303E0,1.936909199E0,-9.589076996E0,-6.344634295E-1
3.024201336E0,1.929726601E0,-9.586683273E0,-6.607996821E-1
3.026201336E0,1.939303398E0,-9.598653793E0,-6.727706790E-1
3.028201302E0,1.958456993E0,-9.641749382E0,-7.206547260E-1
3.030201035E0,1.975216389E0,-9.646537781E0,-7.278373241E-1
3.032201001E0,1.987187386E0,-9.646537781E0,-7.469909191E-1
3.034200301E0,1.987187386E0,-9.658509254E0,-7.948749661E-1
3.036199434E0,1.994369984E0,-9.668086052E0,-8.307880163E-1
3.038199400E0,1.994369984E0,-9.670479774E0,-8.595184088E-1
3.040199600E0,1.989581585E0,-9.680056572E0,-8.762778044E-1
3.042199600E0,1.984793186E0,-9.689633369E0,-9.074024558E-1
3.044199633E0,1.984793186E0,-9.677662849E0,-9.217676520E-1
3.046200366E0,1.994369984E0,-9.682451248E0,-9.648633003E-1
3.048199999E0,2.015917778E0,-9.656114578E0,-9.983820915E-1
3.050200032E0,2.013523579E0,-9.636960983E0,-1.012747288E0
3.052200065E0,2.027888775E0,-9.629778862E0,-1.041477680E0
3.054200098E0,2.027888775E0,-9.627384186E0,-1.055842996E0
3.056200131E0,2.054224968E0,-9.601048470E0,-1.074996591E0
3.058200131E0,2.063801765E0,-9.589076996E0,-1.089361787E0
3.060200197E0,2.066195965E0,-9.581894875E0,-1.096544385E0
3.062200197E0,2.082955360E0,-9.555558205E0,-1.091755986E0
3.064199797E0,2.109291792E0,-9.545981407E0,-1.084573388E0
3.066199797E0,2.114080191E0,-9.550769806E0,-1.077390790E0
3.068199797E0,2.128445387E0,-9.526827812E0,-1.060631394E0
3.070199797E0,2.140416384E0,-9.519645691E0,-1.051054597E0
3.072199763E0,2.135627985E0,-9.505280495E0,-1.034295082E0
3.074199729E0,2.145204782E0,-9.483732224E0,-1.031900883E0
3.076199695E0,2.145204782E0,-9.488520622E0,-1.019929886E0
3.078199661E0,2.161964178E0,-9.507674217E0,-9.959878922E-1
3.080199627E0,2.173935175E0,-9.493309021E0,-9.864110947E-1
3.082199593E0,2.169146776E0,-9.493309021E0,-9.744400978E-1
3.084198659E0,2.154781580E0,-9.517251015E0,-9.672574997E-1
3.086198625E0,2.152387381E0,-9.514857292E0,-9.576807022E-1
3.088198625E0,2.142810583E0,-9.543587685E0,-9.385270476E-1
3.090198258E0,2.128445387E0,-9.555558205E0,-9.289502501E-1
3.092198291E0,2.116474390E0,-9.562741280E0,-9.145850539E-1
3.094198991E0,2.106897593E0,-9.572318077E0,-9.002198577E-1
3.096199024E0,2.087743998E0,-9.615413666E0,-8.810662031E-1
3.098199057E0,2.039859772E0,-9.627384186E0,-8.738836050E-1
3.100198890E0,2.018311977E0,-9.629778862E0,-8.595184088E-1
3.102198923E0,1.984793186E0,-9.629778862E0,-8.427590132E-1
3.104198923E0,1.972822189E0,-9.639355659E0,-8.331822157E-1
3.106198189E0,1.934514999E0,-9.653720856E0,-8.283938169E-1
3.108198122E0,1.898601890E0,-9.653720856E0,-8.092401624E-1
3.110198088E0,1.886630893E0,-9.660902977E0,-8.044517636E-1
3.112198054E0,1.874659896E0,-9.656114578E0,-7.996633649E-1
3.114198020E0,1.833958507E0,-9.651326180E0,-7.876923680E-1
3.116197986E0,1.817199111E0,-9.653720856E0,-7.781155705E-1
3.118197986E0,1.798045516E0,-9.641749382E0,-7.829039693E-1
3.120198019E0,1.807622313E0,-9.629778862E0,-7.852981687E-1
3.122198052E0,1.798045516E0,-9.613018990E0,-7.829039693E-1
3.124198485E0,1.759738207E0,-9.601048470E0,-7.637503147E-1
3.126198518E0,1.762132406E0,-9.591471672E0,-7.661445141E-1
3.128198551E0,1.745373011E0,-9.574711800E0,-7.781155705E-1
3.130198584E0,1.728613615E0,-9.565135002E0,-7.661445141E-1
3.132198617E0,1.723825216E0,-9.562741280E0,-7.589619160E-1
3.134198650E0,1.699883223E0,-9.545981407E0,-7.661445141E-1
3.136198683E0,1.704671621E0,-9.529222488E0,-7.637503147E-1
3.138198683E0,1.709460020E0,-9.524434090E0,-7.661445141E-1
3.140198683E0,1.707065821E0,-9.519645691E0,-7.685387731E-1
3.142198683E0,1.690306425E0,-9.541193008E0,-7.709329724E-1
3.144199183E0,1.704671621E0,-9.543587685E0,-7.805097699E-1
3.146199183E0,1.704671621E0,-9.543587685E0,-7.876923680E-1
3.148199316E0,1.690306425E0,-9.560346603E0,-7.852981687E-1
3.150199282E0,1.695094824E0,-9.565135002E0,-7.924807668E-1
3.152199248E0,1.702277422E0,-9.574711800E0,-8.020575643E-1
3.154199214E0,1.695094824E0,-9.581894875E0,-8.092401624E-1
3.156199180E0,1.707065821E0,-9.591471672E0,-8.212111592E-1
3.158199146E0,1.711854219E0,-9.572318077E0,-8.331822157E-1
3.160199112E0,1.704671621E0,-9.569923401E0,-8.427590132E-1
3.162199078E0,1.678335428E0,-9.608230591E0,-8.403648138E-1
3.164199044E0,1.690306425E0,-9.605836868E0,-8.427590132E-1
3.166199044E0,1.687912226E0,-9.596260071E0,-8.451532125E-1
3.168199510E0,1.671152830E0,-9.608230591E0,-8.475474119E-1
3.170199543E0,1.673547029E0,-9.617807388E0,-8.499416113E-1
3.172199576E0,1.673547029E0,-9.617807388E0,-8.547300100E-1
3.174199609E0,1.654393315E0,-9.608230591E0,-8.355764151E-1
3.176199642E0,1.637633920E0,-9.608230591E0,-8.379706144E-1
3.178199675E0,1.618480325E0,-9.601048470E0,-8.212111592E-1
3.180199608E0,1.623268723E0,-9.605836868E0,-8.164227605E-1
3.182199608E0,1.635239720E0,-9.613018990E0,-8.212111592E-1
3.184199574E0,1.623268723E0,-9.613018990E0,-7.996633649E-1
3.186199540E0,1.628057122E0,-9.601048470E0,-7.805097699E-1
3.188199506E0,1.628057122E0,-9.601048470E0,-7.637503147E-1
3.190199472E0,1.618480325E0,-9.596260071E0,-7.565677166E-1
3.192200105E0,1.589749932E0,-9.603442192E0,-7.517793179E-1
3.194200071E0,1.568202138E0,-9.617807388E0,-7.398083210E-1
3.196200037E0,1.568202138E0,-9.605836868E0,-7.038952708E-1
3.198199670E0,1.553836942E0,-9.615413666E0,-6.823474765E-1
3.200199670E0,1.556231141E0,-9.608230591E0,-6.751648784E-1
3.202199670E0,1.553836942E0,-9.605836868E0,-6.560112834E-1
3.204199770E0,1.551442742E0,-9.603442192E0,-6.464344859E-1
3.206199770E0,1.544260144E0,-9.603442192E0,-6.320692301E-1
3.208199636E0,1.558625340E0,-9.601048470E0,-6.200982332E-1
3.210200036E0,1.561019540E0,-9.603442192E0,-6.177040339E-1
3.212200036E0,1.570596337E0,-9.622595787E0,-6.200982332E-1
3.214200036E0,1.594538331E0,-9.622595787E0,-6.081272364E-1
3.216200069E0,1.608903527E0,-9.632172585E0,-5.961562395E-1
3.218200102E0,1.611297727E0,-9.641749382E0,-6.009446383E-1
3.220200135E0,1.616086125E0,-9.656114578E0,-5.913678408E-1
3.222200168E0,1.623268723E0,-9.663297653E0,-5.985504389E-1
3.224200201E0,1.651999116E0,-9.684844971E0,-6.224924326E-1
3.226200234E0,1.692700624E0,-9.699210167E0,-6.296750307E-1
3.228200234E0,1.692700624E0,-9.684844971E0,-6.488286853E-1
3.230200200E0,1.697489023E0,-9.677662849E0,-6.536170840E-1
3.232200166E0,1.711854219E0,-9.684844971E0,-6.584054828E-1
3.234199466E0,1.754949808E0,-9.689633369E0,-6.919242740E-1
3.236199432E0,1.771709204E0,-9.694421768E0,-7.110779285E-1
3.238199398E0,1.776497602E0,-9.665691376E0,-7.278373241E-1
3.240199764E0,1.774103403E0,-9.663297653E0,-7.254431248E-1
3.242199730E0,1.802833915E0,-9.660902977E0,-7.565677166E-1
3.244199730E0,1.812410712E0,-9.663297653E0,-7.709329724E-1
3.246199430E0,1.829170108E0,-9.670479774E0,-7.637503147E-1
3.248199463E0,1.848323703E0,-9.665691376E0,-7.781155705E-1
3.250199496E0,1.867477298E0,-9.656114578E0,-7.948749661E-1
3.252198862E0,1.869871497E0,-9.658509254E0,-8.140285611E-1
3.254198895E0,1.869871497E0,-9.660902977E0,-8.259995580E-1
3.256198928E0,1.896207690E0,-9.672874451E0,-8.331822157E-1
3.258199328E0,1.898601890E0,-9.656114578E0,-8.475474119E-1
3.260199361E0,1.910573006E0,-9.656114578E0,-8.499416113E-1
3.262199361E0,1.929726601E0,-9.651326180E0,-8.499416113E-1
3.264199661E0,1.956062794E0,-9.644144058E0,-8.451532125E-1
3.266199661E0,1.958456993E0,-9.632172585E0,-8.307880163E-1
3.268199661E0,1.965639591E0,-9.617807388E0,-8.116343617E-1
3.270199427E0,1.968033791E0,-9.608230591E0,-8.116343617E-1
3.272199427E0,1.970427990E0,-9.603442192E0,-8.140285611E-1
3.274199427E0,1.977610588E0,-9.598653793E0,-8.020575643E-1
3.276199393E0,1.960851192E0,-9.589076996E0,-7.900865674E-1
3.278199693E0,1.991975784E0,-9.574711800E0,-7.733271718E-1
3.280199659E0,2.001552582E0,-9.569923401E0,-7.709329724E-1
3.282199625E0,2.008735180E0,-9.557952881E0,-7.517793179E-1
3.284199591E0,2.013523579E0,-9.562741280E0,-7.445967197E-1
3.286199557E0,2.030282974E0,-9.557952881E0,-7.326257229E-1
3.288199523E0,2.011129379E0,-9.565135002E0,-7.134721279E-1
3.290199423E0,2.013523579E0,-9.553164482E0,-7.015010715E-1
3.292199423E0,2.035071373E0,-9.545981407E0,-6.823474765E-1
3.294199756E0,2.032677174E0,-9.534010887E0,-6.823474765E-1
3.296199789E0,2.047042370E0,-9.543587685E0,-6.727706790E-1
3.298199822E0,2.061407566E0,-9.526827812E0,-6.584054828E-1
3.300199855E0,2.059013367E0,-9.529222488E0,-6.536170840E-1
3.302199888E0,2.061407566E0,-9.529222488E0,-6.488286853E-1
3.304199921E0,2.066195965E0,-9.536404610E0,-6.488286853E-1
3.306200254E0,2.068590164E0,-9.519645691E0,-6.416460276E-1
3.308200220E0,2.097320795E0,-9.519645691E0,-6.296750307E-1
3.310200186E0,2.094926596E0,-9.524434090E0,-6.272808313E-1
3.312200152E0,2.080561161E0,-9.519645691E0,-6.272808313E-1
3.314200118E0,2.109291792E0,-9.512462616E0,-6.392518282E-1
3.316200084E0,2.118868589E0,-9.524434090E0,-6.440402865E-1
3.318200050E0,2.114080191E0,-9.536404610E0,-6.416460276E-1
3.320200016E0,2.126051188E0,-9.545981407E0,-6.416460276E-1
3.322200016E0,2.123656988E0,-9.543587685E0,-6.344634295E-1
3.324200049E0,2.133233786E0,-9.545981407E0,-6.416460276E-1
3.326200082E0,2.121262789E0,-9.586683273E0,-6.488286853E-1
3.328200115E0,2.133233786E0,-9.589076996E0,-6.416460276E-1
3.330200048E0,2.121262789E0,-9.581894875E0,-6.440402865E-1
3.332200081E0,2.118868589E0,-9.593865395E0,-6.416460276E-1
3.334200114E0,2.121262789E0,-9.603442192E0,-6.368576288E-1
3.336200414E0,2.106897593E0,-9.620202065E0,-6.584054828E-1
3.338200114E0,2.087743998E0,-9.627384186E0,-6.464344859E-1
3.340200114E0,2.073378563E0,-9.634567261E0,-6.416460276E-1
3.342200114E0,2.025494576E0,-9.629778862E0,-6.440402865E-1
3.344200114E0,2.020706177E0,-9.636960983E0,-6.416460276E-1
3.346200114E0,2.013523579E0,-9.663297653E0,-6.392518282E-1
3.348200114E0,1.991975784E0,-9.675268173E0,-6.464344859E-1
3.350200214E0,1.980004787E0,-9.675268173E0,-6.392518282E-1
3.352200214E0,1.963245392E0,-9.672874451E0,-6.392518282E-1
3.354200547E0,1.939303398E0,-9.680056572E0,-6.416460276E-1
3.356200513E0,1.941697598E0,-9.682451248E0,-6.512228847E-1
3.358200479E0,1.915361404E0,-9.684844971E0,-6.584054828E-1
3.360200445E0,1.891419291E0,-9.692028046E0,-6.775590777E-1
3.362200411E0,1.886630893E0,-9.687239647E0,-6.751648784E-1
3.364200377E0,1.877054095E0,-9.699210167E0,-6.943184733E-1
3.366200343E0,1.867477298E0,-9.699210167E0,-6.919242740E-1
3.368200343E0,1.853112102E0,-9.670479774E0,-6.823474765E-1
3.370200343E0,1.843535304E0,-9.665691376E0,-6.847416759E-1
3.372200376E0,1.836352706E0,-9.668086052E0,-6.943184733E-1
3.374200409E0,1.819593310E0,-9.670479774E0,-6.991068721E-1
3.376200442E0,1.826775908E0,-9.663297653E0,-7.062895298E-1
3.378200475E0,1.800439715E0,-9.653720856E0,-7.278373241E-1
3.380200508E0,1.793257117E0,-9.644144058E0,-7.398083210E-1
3.382200541E0,1.793257117E0,-9.634567261E0,-7.541735172E-1
3.384200541E0,1.790862918E0,-9.634567261E0,-7.613561153E-1
3.386200541E0,1.790862918E0,-9.617807388E0,-7.733271718E-1
3.388200507E0,1.805228114E0,-9.596260071E0,-7.781155705E-1
3.390200807E0,1.807622313E0,-9.589076996E0,-7.852981687E-1
3.392200773E0,1.814804912E0,-9.591471672E0,-8.044517636E-1
3.394200739E0,1.810016513E0,-9.584288597E0,-8.116343617E-1
3.396200439E0,1.814804912E0,-9.579500198E0,-8.236053586E-1
3.398200405E0,1.802833915E0,-9.557952881E0,-8.259995580E-1
3.400200405E0,1.805228114E0,-9.550769806E0,-8.259995580E-1
3.402200438E0,1.798045516E0,-9.536404610E0,-8.307880163E-1
3.404200471E0,1.800439715E0,-9.534010887E0,-8.379706144E-1
3.406200504E0,1.802833915E0,-9.536404610E0,-8.355764151E-1
3.408200537E0,1.798045516E0,-9.524434090E0,-8.523358107E-1
3.410200570E0,1.812410712E0,-9.522039413E0,-8.523358107E-1
3.412200603E0,1.810016513E0,-9.519645691E0,-8.475474119E-1
3.414200636E0,1.798045516E0,-9.524434090E0,-8.499416113E-1
3.416200669E0,1.783680320E0,-9.531616211E0,-8.427590132E-1
3.418200669E0,1.798045516E0,-9.543587685E0,-8.379706144E-1
3.420200269E0,1.798045516E0,-9.557952881E0,-8.379706144E-1
3.422200269E0,1.795651317E0,-9.565135002E0,-8.403648138E-1
3.424200269E0,1.790862918E0,-9.572318077E0,-8.379706144E-1
3.426199902E0,1.774103403E0,-9.584288597E0,-8.451532125E-1
3.428199902E0,1.752555609E0,-9.615413666E0,-8.355764151E-1
3.430199902E0,1.752555609E0,-9.613018990E0,-8.331822157E-1
3.432199868E0,1.764526606E0,-9.608230591E0,-8.307880163E-1
3.434199168E0,1.778891921E0,-9.603442192E0,-8.355764151E-1
3.436199134E0,1.769315004E0,-9.608230591E0,-8.283938169E-1
3.438199100E0,1.747767210E0,-9.627384186E0,-8.212111592E-1
3.440199066E0,1.733402014E0,-9.627384186E0,-8.164227605E-1
3.442199032E0,1.735796213E0,-9.641749382E0,-8.044517636E-1
3.444198598E0,1.745373011E0,-9.646537781E0,-7.876923680E-1
3.446198564E0,1.735796213E0,-9.658509254E0,-7.900865674E-1
3.448198564E0,1.740584612E0,-9.656114578E0,-7.829039693E-1
3.450198597E0,1.738190413E0,-9.651326180E0,-7.733271718E-1
3.452198630E0,1.728613615E0,-9.641749382E0,-7.661445141E-1
3.454198663E0,1.719036818E0,-9.651326180E0,-7.493851185E-1
3.456198696E0,1.709460020E0,-9.648932457E0,-7.398083210E-1
3.458198729E0,1.690306425E0,-9.629778862E0,-7.302315235E-1
3.460198762E0,1.692700624E0,-9.636960983E0,-7.254431248E-1
3.462198762E0,1.687912226E0,-9.624990463E0,-7.182605267E-1
3.464198762E0,1.663970232E0,-9.620202065E0,-7.015010715E-1
3.466198728E0,1.661576033E0,-9.620202065E0,-6.967126727E-1
3.468198694E0,1.659181833E0,-9.615413666E0,-6.823474765E-1
3.470198660E0,1.656787634E0,-9.617807388E0,-6.775590777E-1
3.472198626E0,1.647210717E0,-9.620202065E0,-6.655880809E-1
3.474198592E0,1.661576033E0,-9.608230591E0,-6.536170840E-1
3.476198558E0,1.644816518E0,-9.598653793E0,-6.416460276E-1
3.478198558E0,1.632845521E0,-9.593865395E0,-6.344634295E-1
3.480198091E0,1.620874524E0,-9.591471672E0,-6.296750307E-1
3.482198124E0,1.623268723E0,-9.593865395E0,-6.129156351E-1
3.484198157E0,1.613691926E0,-9.593865395E0,-6.153098345E-1
3.486198557E0,1.628057122E0,-9.589076996E0,-6.200982332E-1
3.488198590E0,1.613691926E0,-9.598653793E0,-6.200982332E-1
3.490198623E0,1.611297727E0,-9.605836868E0,-6.200982332E-1
3.492198656E0,1.589749932E0,-9.586683273E0,-6.177040339E-1
3.494199356E0,1.596932530E0,-9.593865395E0,-6.105214357E-1
3.496199356E0,1.613691926E0,-9.622595787E0,-6.081272364E-1
3.498199089E0,1.628057122E0,-9.617807388E0,-6.105214357E-1
3.500199089E0,1.618480325E0,-9.620202065E0,-6.224924326E-1
3.502199089E0,1.625662923E0,-9.624990463E0,-6.177040339E-1
3.504199089E0,1.637633920E0,-9.636960983E0,-6.177040339E-1
3.506199089E0,1.635239720E0,-9.641749382E0,-6.153098345E-1
3.508199089E0,1.649604917E0,-9.651326180E0,-6.224924326E-1
3.510199122E0,1.651999116E0,-9.670479774E0,-6.320692301E-1
3.512199088E0,1.656787634E0,-9.675268173E0,-6.368576288E-1
3.514199054E0,1.666364431E0,-9.663297653E0,-6.224924326E-1
3.516198220E0,1.668758631E0,-9.668086052E0,-6.248866320E-1
3.518198186E0,1.695094824E0,-9.665691376E0,-6.416460276E-1
3.520198152E0,1.685518026E0,-9.653720856E0,-6.440402865E-1
3.522199218E0,1.695094824E0,-9.648932457E0,-6.440402865E-1
3.524199184E0,1.695094824E0,-9.644144058E0,-6.464344859E-1
3.526199184E0,1.680729628E0,-9.632172585E0,-6.464344859E-1
3.528199217E0,1.692700624E0,-9.620202065E0,-6.392518282E-1
3.530199250E0,1.702277422E0,-9.627384186E0,-6.416460276E-1
3.532199283E0,1.711854219E0,-9.632172585E0,-6.488286853E-1
3.534199316E0,1.709460020E0,-9.634567261E0,-6.488286853E-1
3.536199349E0,1.719036818E0,-9.646537781E0,-6.416460276E-1
3.538199382E0,1.707065821E0,-9.624990463E0,-6.320692301E-1
3.540201115E0,1.719036818E0,-9.627384186E0,-6.224924326E-1
3.542201115E0,1.728613615E0,-9.603442192E0,-6.057330370E-1
3.544201081E0,1.716642618E0,-9.601048470E0,-5.937620401E-1
3.546201047E0,1.702277422E0,-9.598653793E0,-5.937620401E-1
3.548201013E0,1.692700624E0,-9.615413666E0,-6.081272364E-1
3.550200979E0,1.697489023E0,-9.617807388E0,-5.913678408E-1
3.552200945E0,1.742978811E0,-9.634567261E0,-5.889736414E-1
3.554200911E0,1.740584612E0,-9.627384186E0,-5.626373887E-1
3.556200911E0,1.733402014E0,-9.622595787E0,-5.482721925E-1
3.558201211E0,1.733402014E0,-9.613018990E0,-5.482721925E-1
3.560201244E0,1.728613615E0,-9.613018990E0,-5.386953950E-1
3.562201277E0,1.723825216E0,-9.622595787E0,-5.339069963E-1
3.564201710E0,1.726219416E0,-9.629778862E0,-5.267243981E-1
3.566201743E0,1.731007814E0,-9.634567261E0,-5.171475410E-1
3.568201776E0,1.752555609E0,-9.627384186E0,-5.075707436E-1
3.570201742E0,1.742978811E0,-9.639355659E0,-5.051765442E-1
3.572201775E0,1.747767210E0,-9.653720856E0,-5.075707436E-1
3.574201775E0,1.742978811E0,-9.658509254E0,-4.979939461E-1
3.576202175E0,1.747767210E0,-9.648932457E0,-4.812345505E-1
3.578202175E0,1.735796213E0,-9.644144058E0,-4.716577232E-1
3.580202175E0,1.733402014E0,-9.636960983E0,-4.716577232E-1
3.582202075E0,1.740584612E0,-9.634567261E0,-4.596867263E-1
3.584202075E0,1.740584612E0,-9.629778862E0,-4.644751251E-1
3.586202075E0,1.750161409E0,-9.641749382E0,-4.668693244E-1
3.588202041E0,1.754949808E0,-9.624990463E0,-4.525041282E-1
3.590202007E0,1.764526606E0,-9.620202065E0,-4.572925270E-1
3.592201973E0,1.766920805E0,-9.620202065E0,-4.572925270E-1
3.594201939E0,1.778891921E0,-9.610625267E0,-4.572925270E-1
3.596201905E0,1.774103403E0,-9.601048470E0,-4.596867263E-1
3.598201871E0,1.778891921E0,-9.598653793E0,-4.668693244E-1
3.600201004E0,1.788468719E0,-9.593865395E0,-4.692635238E-1
3.602200970E0,1.798045516E0,-9.579500198E0,-4.764461517E-1
3.604200970E0,1.838746905E0,-9.560346603E0,-4.908113480E-1
3.606201003E0,1.848323703E0,-9.562741280E0,-4.860229492E-1
3.608201036E0,1.853112102E0,-9.579500198E0,-5.003881454E-1
3.610201069E0,1.860294700E0,-9.577106476E0,-5.051765442E-1
3.612201102E0,1.869871497E0,-9.579500198E0,-5.171475410E-1
3.614201135E0,1.898601890E0,-9.591471672E0,-5.315127969E-1
3.616201168E0,1.903390408E0,-9.596260071E0,-5.434837937E-1
3.618201168E0,1.900996208E0,-9.596260071E0,-5.530605912E-1
3.620201168E0,1.917755604E0,-9.601048470E0,-5.602431893E-1
3.622201134E0,1.944091797E0,-9.627384186E0,-5.674257874E-1
3.624200700E0,1.956062794E0,-9.622595787E0,-5.793967843E-1
3.626200666E0,1.953668594E0,-9.610625267E0,-6.033388376E-1
3.628200632E0,1.972822189E0,-9.605836868E0,-6.081272364E-1
3.630200332E0,1.989581585E0,-9.603442192E0,-6.057330370E-1
3.632200298E0,1.991975784E0,-9.591471672E0,-6.033388376E-1
3.634199631E0,1.987187386E0,-9.581894875E0,-6.057330370E-1
3.636200031E0,1.989581585E0,-9.601048470E0,-6.153098345E-1
3.638200064E0,1.991975784E0,-9.572318077E0,-6.320692301E-1
3.640200097E0,2.001552582E0,-9.565135002E0,-6.368576288E-1
3.642199130E0,2.018311977E0,-9.553164482E0,-6.464344859E-1
3.644199163E0,2.011129379E0,-9.555558205E0,-6.512228847E-1
3.646199196E0,2.006340981E0,-9.548376083E0,-6.440402865E-1
3.648199229E0,2.020706177E0,-9.541193008E0,-6.488286853E-1
3.650199262E0,2.006340981E0,-9.534010887E0,-6.560112834E-1
3.652199262E0,1.996764183E0,-9.534010887E0,-6.584054828E-1
3.654199262E0,1.987187386E0,-9.536404610E0,-6.536170840E-1
3.656199262E0,1.980004787E0,-9.548376083E0,-6.512228847E-1
3.658199262E0,1.965639591E0,-9.550769806E0,-6.560112834E-1
3.660198995E0,1.965639591E0,-9.553164482E0,-6.536170840E-1
3.662198995E0,1.968033791E0,-9.555558205E0,-6.488286853E-1
3.664198995E0,1.968033791E0,-9.560346603E0,-6.560112834E-1
3.666198961E0,1.963245392E0,-9.545981407E0,-6.512228847E-1
3.668198927E0,1.977610588E0,-9.565135002E0,-6.392518282E-1
3.670198893E0,1.975216389E0,-9.567529678E0,-6.392518282E-1
3.672198859E0,1.975216389E0,-9.560346603E0,-6.536170840E-1
3.674198825E0,1.972822189E0,-9.557952881E0,-6.584054828E-1
3.676198791E0,1.948880196E0,-9.579500198E0,-6.631938815E-1
3.678198757E0,1.948880196E0,-9.581894875E0,-6.607996821E-1
3.680198723E0,1.946485996E0,-9.579500198E0,-6.584054828E-1
3.682198723E0,1.944091797E0,-9.593865395E0,-6.703764796E-1
3.684199256E0,1.936909199E0,-9.593865395E0,-6.727706790E-1
3.686199289E0,1.941697598E0,-9.598653793E0,-6.967126727E-1
3.688199322E0,1.936909199E0,-9.620202065E0,-6.895300746E-1
3.690199655E0,1.939303398E0,-9.639355659E0,-6.943184733E-1
3.692199688E0,1.922544003E0,-9.624990463E0,-7.062895298E-1
3.694200388E0,1.920149803E0,-9.622595787E0,-7.158663273E-1
3.696200421E0,1.920149803E0,-9.629778862E0,-7.182605267E-1
3.698200421E0,1.910573006E0,-9.663297653E0,-7.278373241E-1
3.700200387E0,1.910573006E0,-9.648932457E0,-7.350199223E-1
3.702200353E0,1.903390408E0,-9.646537781E0,-7.445967197E-1
3.704200319E0,1.896207690E0,-9.651326180E0,-7.661445141E-1
3.706200285E0,1.886630893E0,-9.660902977E0,-7.637503147E-1
3.708200251E0,1.860294700E0,-9.658509254E0,-7.637503147E-1
3.710200617E0,1.848323703E0,-9.665691376E0,-7.733271718E-1
3.712200617E0,1.855506301E0,-9.668086052E0,-7.852981687E-1
3.714200617E0,1.850717902E0,-9.660902977E0,-7.948749661E-1
3.716200617E0,1.841141105E0,-9.658509254E0,-8.068459630E-1
3.718200617E0,1.812410712E0,-9.670479774E0,-8.092401624E-1
3.720200550E0,1.810016513E0,-9.672874451E0,-8.092401624E-1
3.722200550E0,1.807622313E0,-9.670479774E0,-8.212111592E-1
3.724200550E0,1.795651317E0,-9.672874451E0,-8.140285611E-1
3.726200550E0,1.788468719E0,-9.670479774E0,-8.068459630E-1
3.728200550E0,1.778891921E0,-9.658509254E0,-8.236053586E-1
3.730200583E0,1.783680320E0,-9.656114578E0,-8.259995580E-1
3.732200616E0,1.766920805E0,-9.648932457E0,-8.212111592E-1
3.734200649E0,1.752555609E0,-9.639355659E0,-8.212111592E-1
3.736200682E0,1.742978811E0,-9.648932457E0,-8.092401624E-1
3.738200715E0,1.723825216E0,-9.624990463E0,-8.116343617E-1
3.740200748E0,1.721431017E0,-9.613018990E0,-8.092401624E-1
3.742200781E0,1.731007814E0,-9.610625267E0,-8.044517636E-1
3.744200681E0,1.733402014E0,-9.605836868E0,-7.972691655E-1
3.746200647E0,1.731007814E0,-9.593865395E0,-7.996633649E-1
3.748200613E0,1.704671621E0,-9.577106476E0,-8.044517636E-1
3.750201179E0,1.707065821E0,-9.562741280E0,-8.044517636E-1
3.752201145E0,1.704671621E0,-9.557952881E0,-7.996633649E-1
3.754201111E0,1.702277422E0,-9.545981407E0,-7.972691655E-1
3.756201077E0,1.685518026E0,-9.543587685E0,-7.900865674E-1
3.758201043E0,1.678335428E0,-9.524434090E0,-7.805097699E-1
3.760201043E0,1.671152830E0,-9.522039413E0,-7.733271718E-1
3.762201076E0,1.673547029E0,-9.512462616E0,-7.613561153E-1
3.764201109E0,1.671152830E0,-9.512462616E0,-7.613561153E-1
3.766201142E0,1.673547029E0,-9.505280495E0,-7.350199223E-1
3.768201175E0,1.661576033E0,-9.526827812E0,-7.302315235E-1
3.770200808E0,1.659181833E0,-9.524434090E0,-7.350199223E-1
3.772200841E0,1.656787634E0,-9.522039413E0,-7.230489254E-1
3.774200874E0,1.659181833E0,-9.522039413E0,-7.086837292E-1
3.776200907E0,1.647210717E0,-9.538799286E0,-7.015010715E-1
3.778200907E0,1.644816518E0,-9.536404610E0,-7.062895298E-1
3.780202273E0,1.654393315E0,-9.545981407E0,-7.110779285E-1
3.782202273E0,1.628057122E0,-9.569923401E0,-7.015010715E-1
3.784202273E0,1.640028119E0,-9.569923401E0,-6.727706790E-1
3.786202273E0,1.635239720E0,-9.579500198E0,-6.631938815E-1
3.788202273E0,1.623268723E0,-9.605836868E0,-6.584054828E-1
3.790202239E0,1.608903527E0,-9.622595787E0,-6.488286853E-1
3.792202205E0,1.613691926E0,-9.636960983E0,-6.440402865E-1
3.794202171E0,1.618480325E0,-9.644144058E0,-6.416460276E-1
3.796202137E0,1.611297727E0,-9.651326180E0,-6.392518282E-1
3.798202103E0,1.620874524E0,-9.656114578E0,-6.344634295E-1
3.800202069E0,1.625662923E0,-9.653720856E0,-6.248866320E-1
3.802202035E0,1.623268723E0,-9.658509254E0,-6.129156351E-1
3.804201101E0,1.630451322E0,-9.658509254E0,-6.105214357E-1
3.806201101E0,1.647210717E0,-9.651326180E0,-6.224924326E-1
3.808201134E0,1.668758631E0,-9.646537781E0,-6.153098345E-1
3.810200267E0,1.680729628E0,-9.646537781E0,-6.105214357E-1
3.812200300E0,1.687912226E0,-9.644144058E0,-6.033388376E-1
3.814200333E0,1.704671621E0,-9.622595787E0,-5.841852427E-1
3.816200366E0,1.702277422E0,-9.622595787E0,-5.793967843E-1
3.818200399E0,1.707065821E0,-9.627384186E0,-5.937620401E-1
3.820200432E0,1.714248419E0,-9.624990463E0,-5.961562395E-1
3.822200432E0,1.726219416E0,-9.605836868E0,-5.961562395E-1
3.824200398E0,1.723825216E0,-9.596260071E0,-5.865794420E-1
3.826200364E0,1.745373011E0,-9.605836868E0,-5.746083856E-1
3.828200330E0,1.776497602E0,-9.605836868E0,-5.865794420E-1
3.830200296E0,1.798045516E0,-9.608230591E0,-5.889736414E-1
3.832200262E0,1.812410712E0,-9.629778862E0,-5.817909837E-1
3.834200228E0,1.800439715E0,-9.629778862E0,-5.770025849E-1
3.836199528E0,1.800439715E0,-9.636960983E0,-5.746083856E-1
3.838199528E0,1.833958507E0,-9.636960983E0,-5.722141862E-1
3.840197894E0,1.833958507E0,-9.646537781E0,-5.746083856E-1
3.842197927E0,1.821987510E0,-9.641749382E0,-5.746083856E-1
3.844197960E0,1.817199111E0,-9.651326180E0,-5.626373887E-1
3.846197993E0,1.810016513E0,-9.665691376E0,-5.554547906E-1
3.848198026E0,1.821987510E0,-9.701604843E0,-5.674257874E-1
3.850198059E0,1.821987510E0,-9.713575363E0,-5.650315881E-1
3.852198092E0,1.824381709E0,-9.715970039E0,-5.578489900E-1
3.854198125E0,1.841141105E0,-9.703998566E0,-5.506663918E-1
3.856198125E0,1.855506301E0,-9.701604843E0,-5.650315881E-1
3.858198125E0,1.833958507E0,-9.703998566E0,-5.722141862E-1
3.860198125E0,1.829170108E0,-9.699210167E0,-5.674257874E-1
3.862198125E0,1.848323703E0,-9.696816444E0,-5.482721925E-1
3.864198191E0,1.845929503E0,-9.699210167E0,-5.434837937E-1
3.866198191E0,1.843535304E0,-9.687239647E0,-5.410895944E-1
3.868198157E0,1.821987510E0,-9.684844971E0,-5.458779931E-1
3.870199357E0,1.826775908E0,-9.677662849E0,-5.363011956E-1
3.872199323E0,1.812410712E0,-9.656114578E0,-5.219359994E-1
3.874199289E0,1.829170108E0,-9.651326180E0,-5.291185975E-1
3.876199255E0,1.841141105E0,-9.668086052E0,-5.291185975E-1
3.878199221E0,1.841141105E0,-9.651326180E0,-5.315127969E-1
3.880199187E0,1.836352706E0,-9.629778862E0,-5.363011956E-1
3.882199153E0,1.841141105E0,-9.620202065E0,-5.291185975E-1
3.884199153E0,1.877054095E0,-9.620202065E0,-5.363011956E-1
3.886199153E0,1.879448295E0,-9.615413666E0,-5.339069963E-1
3.888199186E0,1.865083098E0,-9.610625267E0,-5.315127969E-1
3.890199219E0,1.881842494E0,-9.610625267E0,-5.363011956E-1
3.892199252E0,1.879448295E0,-9.617807388E0,-5.410895944E-1
3.894199285E0,1.877054095E0,-9.613018990E0,-5.506663918E-1
3.896199985E0,1.881842494E0,-9.610625267E0,-5.602431893E-1
3.898200018E0,1.934514999E0,-9.620202065E0,-5.722141862E-1
3.900200651E0,1.924938202E0,-9.622595787E0,-5.770025849E-1
3.902200617E0,1.910573006E0,-9.617807388E0,-5.793967843E-1
3.904200583E0,1.915361404E0,-9.610625267E0,-5.817909837E-1
3.906200549E0,1.905784607E0,-9.615413666E0,-5.913678408E-1
3.908199915E0,1.924938202E0,-9.598653793E0,-5.985504389E-1
3.910199881E0,1.929726601E0,-9.598653793E0,-5.937620401E-1
3.912199847E0,1.922544003E0,-9.613018990E0,-5.937620401E-1
3.914199813E0,1.927332401E0,-9.615413666E0,-5.937620401E-1
3.916199813E0,1.924938202E0,-9.591471672E0,-6.200982332E-1
3.918199079E0,1.924938202E0,-9.593865395E0,-6.105214357E-1
3.920199079E0,1.917755604E0,-9.601048470E0,-6.009446383E-1
3.922199079E0,1.915361404E0,-9.608230591E0,-6.081272364E-1
3.924201112E0,1.905784607E0,-9.603442192E0,-5.985504389E-1
3.926201112E0,1.905784607E0,-9.589076996E0,-6.320692301E-1
3.928201112E0,1.910573006E0,-9.567529678E0,-6.177040339E-1
3.930200012E0,1.893813491E0,-9.560346603E0,-6.153098345E-1
3.932200012E0,1.886630893E0,-9.565135002E0,-6.248866320E-1
3.934200045E0,1.898601890E0,-9.572318077E0,-6.368576288E-1
3.936200078E0,1.891419291E0,-9.584288597E0,-6.392518282E-1
3.938200111E0,1.886630893E0,-9.596260071E0,-6.368576288E-1
3.940200144E0,1.867477298E0,-9.584288597E0,-6.440402865E-1
3.942200177E0,1.862688899E0,-9.586683273E0,-6.607996821E-1
3.944200210E0,1.874659896E0,-9.589076996E0,-6.631938815E-1
3.946200243E0,1.877054095E0,-9.603442192E0,-6.655880809E-1
3.948200243E0,1.889025092E0,-9.622595787E0,-6.823474765E-1
3.950200209E0,1.877054095E0,-9.627384186E0,-6.871358752E-1
3.952200175E0,1.872265697E0,-9.620202065E0,-6.895300746E-1
3.954200141E0,1.896207690E0,-9.622595787E0,-6.967126727E-1
3.956200107E0,1.893813491E0,-9.639355659E0,-7.086837292E-1
3.958200073E0,1.908178806E0,-9.648932457E0,-7.158663273E-1
3.960200039E0,1.915361404E0,-9.641749382E0,-7.230489254E-1
3.962200039E0,1.920149803E0,-9.644144058E0,-7.422025204E-1
3.964200039E0,1.917755604E0,-9.641749382E0,-7.469909191E-1
3.966200072E0,1.917755604E0,-9.622595787E0,-7.493851185E-1
3.968200705E0,1.912967205E0,-9.634567261E0,-7.613561153E-1
3.970200738E0,1.924938202E0,-9.636960983E0,-7.613561153E-1
3.972200771E0,1.929726601E0,-9.615413666E0,-7.661445141E-1
3.974200804E0,1.934514999E0,-9.608230591E0,-7.685387731E-1
3.976200837E0,1.951274395E0,-9.610625267E0,-7.781155705E-1
3.978201603E0,1.953668594E0,-9.603442192E0,-7.924807668E-1
3.980201603E0,1.953668594E0,-9.591471672E0,-7.900865674E-1
3.982201603E0,1.934514999E0,-9.565135002E0,-7.900865674E-1
3.984200269E0,1.932120800E0,-9.562741280E0,-7.661445141E-1
3.986200269E0,1.941697598E0,-9.567529678E0,-7.685387731E-1
3.988200269E0,1.963245392E0,-9.574711800E0,-7.900865674E-1
3.990200402E0,1.956062794E0,-9.550769806E0,-7.924807668E-1
3.992200402E0,1.953668594E0,-9.538799286E0,-7.948749661E-1
3.994200368E0,1.936909199E0,-9.536404610E0,-7.852981687E-1
3.996200334E0,1.946485996E0,-9.531616211E0,-7.852981687E-1
3.998200300E0,1.934514999E0,-9.543587685E0,-7.924807668E-1
4.000200266E0,1.936909199E0,-9.550769806E0,-7.829039693E-1
4.002200232E0,1.924938202E0,-9.562741280E0,-7.757213712E-1
4.004200165E0,1.910573006E0,-9.555558205E0,-7.733271718E-1
4.006200131E0,1.891419291E0,-9.557952881E0,-7.876923680E-1
4.008200097E0,1.881842494E0,-9.572318077E0,-7.948749661E-1
4.010200097E0,1.891419291E0,-9.577106476E0,-7.876923680E-1
4.012200130E0,1.867477298E0,-9.574711800E0,-7.709329724E-1
4.014200163E0,1.853112102E0,-9.586683273E0,-7.685387731E-1
4.016200196E0,1.865083098E0,-9.617807388E0,-7.661445141E-1
4.018200229E0,1.848323703E0,-9.608230591E0,-7.805097699E-1
4.020200262E0,1.845929503E0,-9.615413666E0,-7.709329724E-1
4.022200295E0,1.836352706E0,-9.613018990E0,-7.541735172E-1
4.024200328E0,1.826775908E0,-9.610625267E0,-7.445967197E-1
4.026200328E0,1.821987510E0,-9.620202065E0,-7.374141216E-1
4.028200294E0,1.829170108E0,-9.593865395E0,-7.469909191E-1
4.030200260E0,1.819593310E0,-9.581894875E0,-7.422025204E-1
4.032200226E0,1.805228114E0,-9.605836868E0,-7.254431248E-1
4.034199526E0,1.795651317E0,-9.615413666E0,-7.182605267E-1
4.036199492E0,1.807622313E0,-9.624990463E0,-7.086837292E-1
4.038199458E0,1.786074519E0,-9.613018990E0,-7.086837292E-1
4.040198658E0,1.766920805E0,-9.617807388E0,-6.967126727E-1
4.042197991E0,1.766920805E0,-9.629778862E0,-6.895300746E-1
4.044197691E0,1.774103403E0,-9.639355659E0,-6.823474765E-1
4.046197724E0,1.754949808E0,-9.644144058E0,-6.751648784E-1
4.048197757E0,1.764526606E0,-9.660902977E0,-6.751648784E-1
4.050197290E0,1.764526606E0,-9.653720856E0,-6.775590777E-1
4.052197323E0,1.762132406E0,-9.651326180E0,-6.775590777E-1
4.054197356E0,1.769315004E0,-9.651326180E0,-6.727706790E-1
4.056197389E0,1.762132406E0,-9.660902977E0,-6.703764796E-1
4.058197389E0,1.781286120E0,-9.648932457E0,-6.751648784E-1
4.060197389E0,1.776497602E0,-9.644144058E0,-6.823474765E-1
4.062197389E0,1.786074519E0,-9.660902977E0,-6.703764796E-1
4.064197422E0,1.786074519E0,-9.672874451E0,-6.703764796E-1
4.066197422E0,1.805228114E0,-9.675268173E0,-6.703764796E-1
4.068197022E0,1.793257117E0,-9.653720856E0,-6.631938815E-1
4.070197022E0,1.795651317E0,-9.646537781E0,-6.607996821E-1
4.072196988E0,1.810016513E0,-9.653720856E0,-6.703764796E-1
4.074196954E0,1.824381709E0,-9.634567261E0,-6.679822803E-1
4.076196920E0,1.829170108E0,-9.627384186E0,-6.607996821E-1
4.078196886E0,1.836352706E0,-9.632172585E0,-6.584054828E-1
4.080196452E0,1.831564307E0,-9.624990463E0,-6.655880809E-1
4.082196418E0,1.841141105E0,-9.613018990E0,-6.560112834E-1
4.084196384E0,1.848323703E0,-9.596260071E0,-6.584054828E-1
