"Time (s)","Gyroscope x (rad/s)","Gyroscope y (rad/s)","Gyroscope z (rad/s)"
1.143369800E-2,1.778380126E-1,-3.543015569E-2,-1.235474050E-1
1.628416700E-2,1.232419685E-1,4.360047355E-2,-1.682168841E-1
2.113463600E-2,7.925970852E-2,1.297324002E-1,-2.036470473E-1
2.598510400E-2,3.649916872E-2,2.085339576E-1,-2.409097999E-1
3.083557300E-2,-1.175914705E-2,2.714530230E-1,-2.824485898E-1
3.568604200E-2,-5.757400393E-2,3.508654535E-1,-3.307069242E-1
4.053651100E-2,-9.972367436E-2,4.308887422E-1,-3.801869750E-1
4.538692700E-2,-1.382081509E-1,4.980838597E-1,-4.290561378E-1
5.023739600E-2,-1.663079411E-1,5.487856269E-1,-4.785361886E-1
5.508786500E-2,-1.779143661E-1,5.897135735E-1,-5.219075680E-1
5.993833300E-2,-1.687513888E-1,6.117047071E-1,-5.530617237E-1
6.478880200E-2,-1.443168074E-1,6.104829907E-1,-5.781071782E-1
6.963927100E-2,-1.088866442E-1,5.897135735E-1,-6.025417447E-1
7.448974000E-2,-6.368265301E-2,5.451204777E-1,-6.257545948E-1
7.934015600E-2,-1.175914705E-2,4.809796512E-1,-6.465240121E-1
8.419062500E-2,4.321868345E-2,3.948477209E-1,-6.538543701E-1
8.904109400E-2,9.880737960E-2,2.910007238E-1,-5.866592526E-1
9.389156300E-2,1.556178033E-1,1.847102344E-1,-4.993056059E-1
9.874203100E-2,1.922696829E-1,8.941533417E-2,-4.321104586E-1
1.035925000E-1,2.050978541E-1,-2.825249685E-3,-3.777435124E-1
1.084429690E-1,2.215912044E-1,-6.818778068E-2,-3.508654535E-1
1.132934380E-1,2.490801066E-1,-1.072831303E-1,-3.484219909E-1
1.181439060E-1,2.777907550E-1,-1.231656075E-1,-3.600284159E-1
1.229943230E-1,2.936732471E-1,-1.304959953E-1,-3.862956166E-1
1.278447920E-1,2.869537175E-1,-1.775325835E-1,-4.192823172E-1
1.326952610E-1,2.643517256E-1,-2.679405510E-1,-4.504364133E-1
1.375457290E-1,2.448040545E-1,-3.681223989E-1,-4.773144722E-1
1.423961980E-1,2.399171442E-1,-4.285979867E-1,-5.048033595E-1
1.472466670E-1,2.490801066E-1,-4.365392327E-1,-5.188532472E-1
1.520971360E-1,2.539670467E-1,-4.285979867E-1,-5.231293440E-1
1.569476040E-1,2.154825479E-1,-4.512000084E-1,-5.487856269E-1
1.617980730E-1,1.476765573E-1,-4.762454629E-1,-5.958222151E-1
1.666484900E-1,8.842267841E-2,-4.542543292E-1,-6.422479749E-1
1.714989580E-1,2.794706449E-2,-4.059959948E-1,-6.843976378E-1
1.763494270E-1,-3.619373962E-2,-3.302487731E-1,-7.204386592E-1
1.811998960E-1,-1.064431891E-1,-2.508363426E-1,-7.515927553E-1
1.860503650E-1,-1.803578287E-1,-1.848629564E-1,-7.735838890E-1
1.909008330E-1,-2.493855506E-1,-1.243873388E-1,-7.858011723E-1
1.957513020E-1,-3.123046160E-1,-6.696604937E-2,-7.894663811E-1
2.006017710E-1,-3.575085998E-1,-1.320995111E-2,-7.821359634E-1
2.054522400E-1,-3.752236962E-1,4.848739132E-2,-7.662535310E-1
2.103026560E-1,-3.740019500E-1,1.040760875E-1,-7.699186802E-1
2.151531250E-1,-3.764454126E-1,1.126281917E-1,-8.120683432E-1
2.200035940E-1,-3.733910918E-1,8.391755074E-2,-8.646027446E-1
2.248540630E-1,-3.428478539E-1,3.016144782E-2,-8.933134079E-1
2.297045310E-1,-2.811505198E-1,-3.031416424E-2,-8.859829903E-1
2.345550000E-1,-2.072358727E-1,-9.934188426E-2,-8.597158194E-1
2.394054690E-1,-1.418733448E-1,-1.879172772E-1,-8.285617232E-1
2.441618750E-1,-9.117157012E-2,-3.058141768E-1,-8.010727763E-1
2.489171880E-1,-4.963276163E-2,-4.383718371E-1,-7.748056054E-1
2.536725520E-1,-1.298087649E-2,-5.697077513E-1,-7.522036433E-1
2.584279170E-1,1.695149764E-2,-6.967676282E-1,-7.314342260E-1
2.631832810E-1,3.527744114E-2,-8.305470347E-1,-7.234929800E-1
2.679386460E-1,2.428187430E-2,-9.795980453E-1,-7.357102633E-1
2.726940110E-1,2.290742937E-3,-1.131703377E0,-7.179951668E-1
2.774493750E-1,-2.703076601E-2,-1.278921723E0,-6.709585786E-1
2.822047400E-1,-5.268708616E-2,-1.360777617E0,-6.477457285E-1
2.869601040E-1,-5.940660089E-2,-1.402927279E0,-6.391936541E-1
2.917154690E-1,-5.390881747E-2,-1.426751018E0,-6.245328784E-1
2.964708330E-1,-3.802633286E-2,-1.427361965E0,-6.110938787E-1
3.012261460E-1,-1.237001177E-2,-1.415755510E0,-6.043743491E-1
3.059815110E-1,1.756236330E-2,-1.396818638E0,-5.964331031E-1
3.107368750E-1,5.421425030E-2,-1.366886258E0,-5.799397230E-1
3.154922400E-1,1.030834317E-1,-1.316184521E0,-5.732202530E-1
3.202476040E-1,1.434005052E-1,-1.266093612E0,-6.037634611E-1
3.250029690E-1,1.562286615E-1,-1.242269874E0,-6.556869745E-1
3.297583330E-1,1.482874304E-1,-1.243491650E0,-6.984475255E-1
3.345136980E-1,1.336266696E-1,-1.256930590E0,-7.100539207E-1
3.392690630E-1,1.220202371E-1,-1.288695574E0,-6.984475255E-1
3.440244270E-1,9.758564830E-2,-1.331456184E0,-6.807324290E-1
3.487797400E-1,6.643154472E-2,-1.365053654E0,-6.758455038E-1
3.535351040E-1,4.199695215E-2,-1.396207809E0,-6.758455038E-1
3.582904690E-1,7.788525894E-3,-1.473787665E0,-6.636282206E-1
3.630458330E-1,-1.847865991E-2,-1.530598044E0,-6.575195789E-1
3.678011980E-1,-3.375028074E-2,-1.576412916E0,-6.575195789E-1
3.725565630E-1,-5.635227636E-2,-1.636277676E0,-6.709585786E-1
3.773119270E-1,-6.368265301E-2,-1.706527114E0,-6.758455038E-1
3.820672920E-1,-4.413498193E-2,-1.779219985E0,-6.575195789E-1
3.868226560E-1,-4.428769462E-3,-1.830532670E0,-6.251437664E-1
3.915780210E-1,5.787943676E-2,-1.848247766E0,-5.964331031E-1
3.963333860E-1,1.269071549E-1,-1.850691199E0,-5.903244615E-1
4.010887500E-1,1.971566081E-1,-1.848858595E0,-6.055960655E-1
4.058440630E-1,2.588539422E-1,-1.853134632E0,-6.379718781E-1
4.105994270E-1,3.071122766E-1,-1.859854221E0,-6.825650334E-1
4.153547920E-1,3.382663727E-1,-1.850080371E0,-7.387645841E-1
4.201101560E-1,3.364337683E-1,-1.830532670E0,-8.010727763E-1
4.248655210E-1,2.930623889E-1,-1.826867461E0,-8.462768197E-1
4.296208860E-1,2.191477418E-1,-1.842749953E0,-8.682679534E-1
4.343762500E-1,1.299614757E-1,-1.854356408E0,-8.688787818E-1
4.391316150E-1,2.794706449E-2,-1.854967237E0,-8.572723866E-1
4.438869790E-1,-6.979130208E-2,-1.830532670E0,-8.542180657E-1
4.486423440E-1,-1.492037177E-1,-1.771889687E0,-8.639918566E-1
4.533977080E-1,-2.157879770E-1,-1.703472853E0,-8.872047067E-1
4.581530730E-1,-2.768744528E-1,-1.657657981E0,-9.098067284E-1
4.629084380E-1,-3.416261375E-1,-1.677205563E0,-8.878155947E-1
4.676638020E-1,-3.868301213E-1,-1.706527114E0,-8.303943276E-1
4.724191150E-1,-3.984365463E-1,-1.717522740E0,-7.741947770E-1
4.771744790E-1,-3.788888752E-1,-1.714468360E0,-7.387645841E-1
4.819298440E-1,-3.263545036E-1,-1.741346359E0,-7.088322043E-1
4.866852080E-1,-2.444986254E-1,-1.793269873E0,-6.672934294E-1
4.914405730E-1,-1.510363221E-1,-1.857410669E0,-6.379718781E-1
4.961959380E-1,-5.268708616E-2,-1.952094793E0,-6.098721027E-1
5.009513020E-1,4.749473557E-2,-2.055941820E0,-5.603920817E-1
5.057066670E-1,1.385135949E-1,-2.152458429E0,-5.096902847E-1
5.104620310E-1,2.136499584E-1,-2.240422964E0,-4.876991808E-1
5.152173960E-1,2.802342176E-1,-2.320446253E0,-4.748710096E-1
5.199727610E-1,3.174969554E-1,-2.382754326E0,-4.553233385E-1
5.247281250E-1,3.083339930E-1,-2.454225540E0,-4.357756674E-1
5.294834900E-1,2.503018379E-1,-2.538524866E0,-4.119519293E-1
5.342388020E-1,1.568395346E-1,-2.600222349E0,-3.869064748E-1
5.389942190E-1,4.627300799E-2,-2.614272118E0,-3.588066995E-1
5.437495310E-1,-6.185005978E-2,-2.571511745E0,-3.374264240E-1
5.485048960E-1,-1.571449637E-1,-2.488434076E0,-3.258199990E-1
5.532602610E-1,-2.359465212E-1,-2.393139124E0,-3.178787529E-1
5.580156250E-1,-2.970330119E-1,-2.302120209E0,-3.056614697E-1
5.627709900E-1,-3.165806830E-1,-2.179947376E0,-2.934441566E-1
5.675263540E-1,-3.019199073E-1,-2.040670156E0,-2.781725526E-1
5.722817190E-1,-2.622137070E-1,-1.912999392E0,-2.561814189E-1
5.770370830E-1,-2.072358727E-1,-1.823813200E0,-2.268599123E-1
5.817924480E-1,-1.437059343E-1,-1.777998328E0,-1.743255407E-1
5.865478130E-1,-7.406735420E-2,-1.763337493E0,-9.491311759E-2
5.913031770E-1,-7.635809598E-4,-1.757839799E0,-3.321577236E-2
5.960585420E-1,7.131846249E-2,-1.766391873E0,6.490438245E-3
6.008139060E-1,1.293506175E-1,-1.792048216E0,3.031416424E-2
6.055692710E-1,1.421787739E-1,-1.869628072E0,4.253146052E-2
6.103246360E-1,1.275180280E-1,-1.939266562E0,3.825540841E-2
6.150799480E-1,1.238528341E-1,-1.936212301E0,8.223766834E-2
6.198353130E-1,1.201876476E-1,-1.856189013E0,1.085048541E-1
6.245906770E-1,9.330959618E-2,-1.794491649E0,8.956804872E-2
6.293460420E-1,2.794706449E-2,-1.768224478E0,4.864010960E-2
6.341014060E-1,-6.001746282E-2,-1.744400740E0,1.259908639E-2
6.388567710E-1,-1.547015011E-1,-1.707748890E0,3.817904799E-4
6.436121360E-1,-2.267835438E-1,-1.619173408E0,8.323032409E-3
6.483675000E-1,-2.719875574E-1,-1.475620270E0,-1.916588284E-2
6.531228650E-1,-2.909243405E-1,-1.336953878E0,-3.810269013E-2
6.578782290E-1,-2.921460867E-1,-1.226387382E0,-1.977674663E-2
6.626335940E-1,-2.909243405E-1,-1.156137943E0,3.275762498E-2
6.673889580E-1,-2.988655865E-1,-1.137812018E0,1.158352345E-1
6.721443230E-1,-3.226893246E-1,-1.150640130E0,2.013563067E-1
6.768996880E-1,-3.489564955E-1,-1.173242211E0,2.563341260E-1
6.816550520E-1,-3.697259128E-1,-1.205007076E0,2.905425727E-1
6.864104170E-1,-3.941605091E-1,-1.273424029E0,3.265835941E-1
6.911657810E-1,-4.265363216E-1,-1.352836370E0,3.852266073E-1
6.959211460E-1,-4.442514181E-1,-1.387044787E0,4.237110913E-1
7.006765110E-1,-4.509709179E-1,-1.392542601E0,4.224893451E-1
7.054318230E-1,-4.564687014E-1,-1.380325317E0,3.803396821E-1
7.101871880E-1,-4.656316638E-1,-1.377881885E0,2.874882221E-1
7.149425520E-1,-4.864010811E-1,-1.388877392E0,1.903607398E-1
7.196979170E-1,-5.132791400E-1,-1.423085809E0,1.213330179E-1
7.244532810E-1,-5.456549525E-1,-1.445076942E0,5.658135191E-2
7.292086460E-1,-5.786416531E-1,-1.486004949E0,4.802924395E-2
7.339640110E-1,-5.975784659E-1,-1.495167851E0,1.042288020E-1
7.387193750E-1,-6.049088240E-1,-1.430416226E0,1.390480995E-1
7.434747400E-1,-5.975784659E-1,-1.357112408E0,1.811977625E-1
7.482301040E-1,-5.951350331E-1,-1.256319761E0,2.270126194E-1
7.529854690E-1,-5.908589363E-1,-1.121929526E0,2.569449842E-1
7.577408330E-1,-5.939132571E-1,-9.820414782E-1,2.428951114E-1
7.624961980E-1,-6.079631448E-1,-8.617011309E-1,2.111301422E-1
7.672515630E-1,-6.165152788E-1,-7.273108959E-1,1.775325835E-1
7.720069270E-1,-6.336194873E-1,-5.935314894E-1,8.223766834E-2
7.767622920E-1,-6.531671882E-1,-5.245037675E-1,3.436114406E-3
7.815176560E-1,-6.623301506E-1,-4.854084253E-1,-3.077231348E-2
7.862730210E-1,-6.604975462E-1,-4.689150751E-1,-1.550069358E-2
7.910283860E-1,-6.568323374E-1,-4.817432463E-1,3.214675933E-2
7.957837500E-1,-6.403390169E-1,-4.927388132E-1,9.567669779E-2
8.005391150E-1,-6.183478832E-1,-5.196168423E-1,1.695913374E-1
8.052944790E-1,-5.981893539E-1,-5.800924897E-1,2.483928949E-1
8.100498440E-1,-5.694786906E-1,-6.515636444E-1,3.052033186E-1
8.148052080E-1,-5.212203860E-1,-7.334195375E-1,3.339139521E-1
8.195605730E-1,-4.845684767E-1,-8.384882808E-1,3.497964442E-1
8.243158860E-1,-4.589121640E-1,-9.398918152E-1,3.791179657E-1
8.290712500E-1,-4.247037470E-1,-9.924262166E-1,3.980547488E-1
8.338266150E-1,-3.825540543E-1,-1.008919597E0,4.059959948E-1
8.385819790E-1,-3.245218992E-1,-9.979239702E-1,4.133263826E-1
8.433373440E-1,-2.573267817E-1,-9.857066870E-1,4.231002033E-1
8.480927080E-1,-1.974620372E-1,-9.545525908E-1,4.310414493E-1
8.528480730E-1,-1.485928595E-1,-9.203441739E-1,4.322631955E-1
8.576034380E-1,-1.088866442E-1,-8.867465854E-1,4.243219495E-1
8.623588020E-1,-6.979130208E-2,-8.751401305E-1,4.114937782E-1
8.671141670E-1,-3.252854943E-2,-8.904117942E-1,4.151589870E-1
8.718695310E-1,5.955931731E-3,-9.276745319E-1,4.353175163E-1
8.766248960E-1,5.299251899E-2,-9.759328365E-1,4.762454629E-1
8.813802610E-1,1.091920808E-1,-1.026634574E0,5.336667299E-1
8.861356250E-1,1.678351015E-1,-1.055345297E0,5.978075266E-1
8.908909900E-1,2.283107042E-1,-1.072449446E0,6.515636444E-1
8.956463540E-1,2.826776803E-1,-1.067562580E0,6.851612329E-1
9.004017190E-1,3.284925222E-1,-1.057177901E0,7.022654414E-1
9.051570830E-1,3.633118272E-1,-1.060842991E0,7.089849114E-1
9.099124480E-1,3.834703565E-1,-1.051680088E0,7.083740830E-1
9.146678130E-1,3.895790279E-1,-1.031521559E0,7.132610083E-1
9.194231770E-1,3.901898861E-1,-8.916335106E-1,7.633519173E-1
9.241785420E-1,3.859138191E-1,-7.657953501E-1,8.317687511E-1
9.289339060E-1,3.736965358E-1,-6.778308153E-1,8.598685265E-1
9.336892710E-1,3.578140438E-1,-6.094139814E-1,8.684206605E-1
9.384446360E-1,3.382663727E-1,-6.491202116E-1,8.855248690E-1
9.432000000E-1,3.211621642E-1,-6.698895693E-1,9.044616818E-1
9.479553650E-1,3.156643808E-1,-6.827177405E-1,9.105703235E-1
9.527107290E-1,3.236056268E-1,-7.065414786E-1,9.081268311E-1
9.574660940E-1,3.437641561E-1,-7.260891199E-1,8.934661150E-1
9.622214580E-1,3.767508566E-1,-7.328086495E-1,8.690314889E-1
9.669768230E-1,4.195113778E-1,-7.413607836E-1,8.537598848E-1
9.717321880E-1,4.628827870E-1,-7.303652167E-1,8.543707728E-1
9.764875520E-1,5.044215918E-1,-7.193696499E-1,8.708640933E-1
9.812429170E-1,5.435169339E-1,-6.943241954E-1,9.050725102E-1
9.859982810E-1,5.801688433E-1,-6.656135321E-1,9.374483824E-1
9.907536460E-1,6.094903350E-1,-6.362920403E-1,9.661589861E-1
9.955090110E-1,6.247619390E-1,-5.904771686E-1,9.722676277E-1
1.000264375E0,6.333140731E-1,-5.538252592E-1,9.679915905E-1
1.005019740E0,6.436987519E-1,-5.196168423E-1,9.832631946E-1
1.009775104E0,6.534726024E-1,-4.707476795E-1,9.979239702E-1
1.014530417E0,6.705768108E-1,-4.475347996E-1,1.018082500E0
1.019285781E0,6.986765862E-1,-4.328740537E-1,1.051069260E0
1.024041146E0,7.389936447E-1,-4.121046662E-1,1.074892879E0
1.028796563E0,7.817541957E-1,-4.334849119E-1,1.099938393E0
1.033551927E0,8.367320299E-1,-4.701367915E-1,1.151861906E0
1.038307240E0,9.088140726E-1,-5.080104470E-1,1.223943949E0
1.043062604E0,9.900590777E-1,-5.379427671E-1,1.327790976E0
1.047817969E0,1.063362837E0,-6.051379442E-1,1.430416226E0
1.052573386E0,1.127503633E0,-6.778308153E-1,1.484172344E0
1.057328698E0,1.181259751E0,-7.547997832E-1,1.522656798E0
1.062084063E0,1.233794093E0,-8.409317136E-1,1.549534917E0
1.066839427E0,1.286939383E0,-8.824705482E-1,1.555643559E0
1.071594792E0,1.346804142E0,-9.392809272E-1,1.551367521E0
1.076350156E0,1.400560260E0,-1.007086992E0,1.534263253E0
1.081105521E0,1.431103468E0,-1.071227789E0,1.503109097E0
1.085860886E0,1.431103468E0,-1.121318698E0,1.469511628E0
1.090616250E0,1.407279730E0,-1.145753264E0,1.448131323E0
1.095371615E0,1.365130067E0,-1.143920660E0,1.437746644E0
1.100126979E0,1.321147799E0,-1.103603601E0,1.440190077E0
1.104882344E0,1.285106778E0,-1.042517066E0,1.453629136E0
1.109637240E0,1.252730966E0,-9.722676277E-1,1.476231098E0
1.114393073E0,1.216079116E0,-9.050725102E-1,1.500054836E0
1.119148438E0,1.179427147E0,-8.439860344E-1,1.521435142E0
1.123903802E0,1.154381752E0,-8.030580878E-1,1.540982723E0
1.128659167E0,1.143386126E0,-8.079450130E-1,1.567249894E0
1.133414531E0,1.154992580E0,-8.476512432E-1,1.603290915E0
1.138169896E0,1.195309639E0,-9.197332859E-1,1.622838616E0
1.142925261E0,1.258839607E0,-1.042517066E0,1.633223295E0
1.147680625E0,1.332754254E0,-1.193400741E0,1.624671221E0
1.152435990E0,1.419497013E0,-1.348560333E0,1.589241028E0
1.157191354E0,1.519678831E0,-1.514104724E0,1.533652425E0
1.161946719E0,1.633910537E0,-1.672318697E0,1.467679024E0
1.166702083E0,1.758527040E0,-1.810374141E0,1.394375205E0
1.171457448E0,1.884365082E0,-1.900782108E0,1.329623580E0
1.176212813E0,2.002872944E0,-1.916053772E0,1.325958371E0
1.180968177E0,2.092669964E0,-1.940488338E0,1.374827504E0
1.185723542E0,2.128710985E0,-2.011959553E0,1.413312078E0
1.190478906E0,2.136041403E0,-2.075489521E0,1.422474980E0
1.195234271E0,2.132376194E0,-2.112141371E0,1.395596981E0
1.199989636E0,2.114050388E0,-2.056552649E0,1.349782109E0
1.204745000E0,2.075565815E0,-1.956370831E0,1.278921723E0
1.209500365E0,2.002872944E0,-1.828700066E0,1.176907301E0
1.214255729E0,1.888641238E0,-1.695531607E0,1.088942885E0
1.219011094E0,1.734703302E0,-1.557476163E0,1.055956125E0
1.223766458E0,1.565493703E0,-1.434081435E0,1.090775371E0
1.228521823E0,1.372460485E0,-1.277700067E0,1.148807526E0
1.233277188E0,1.165988207E0,-1.064508200E0,1.200120211E0
1.238032604E0,9.796743989E-1,-8.433752060E-1,1.248378515E0
1.242787917E0,8.202387094E-1,-6.662244201E-1,1.294193387E0
1.247543281E0,6.925679445E-1,-5.611556768E-1,1.330234408E0
1.252298646E0,5.789470673E-1,-5.177842379E-1,1.371773243E0
1.257054011E0,4.726566374E-1,-4.994583130E-1,1.397429585E0
1.261809375E0,3.828594983E-1,-4.646390080E-1,1.382157922E0
1.266564792E0,3.132209182E-1,-4.059959948E-1,1.339397430E0
1.271320156E0,2.716821134E-1,-3.406334817E-1,1.291749954E0
1.276075521E0,2.667951882E-1,-3.149771392E-1,1.264261007E0
1.280830886E0,3.138317764E-1,-3.827831447E-1,1.254487157E0
1.285586250E0,4.189005196E-1,-5.336667299E-1,1.263650179E0
1.290341615E0,6.528617144E-1,-8.995747566E-1,1.265482783E0
1.295096979E0,1.004719853E0,-1.392542601E0,1.204396248E0
1.299852344E0,1.332754254E0,-1.785939574E0,1.073060393E0
1.304607708E0,1.592982650E0,-2.015624762E0,9.716567993E-1
1.309363073E0,1.776852965E0,-2.093204498E0,9.527199864E-1
1.314118438E0,1.889862895E0,-2.080987215E0,1.007086992E0
1.318873802E0,1.941175580E0,-2.043724537E0,1.097494960E0
1.323629167E0,1.935677767E0,-2.058385134E0,1.177518249E0
1.328384531E0,1.873369575E0,-2.098091364E0,1.230052590E0
1.333139896E0,1.794568062E0,-2.045557022E0,1.285030365E0
1.337895261E0,1.719431639E0,-1.983248830E0,1.372384071E0
1.342650625E0,1.646127820E0,-1.926438451E0,1.484783173E0
1.347405990E0,1.579543591E0,-1.885510445E0,1.595960617E0
1.352161354E0,1.526398420E0,-1.856799841E0,1.690033793E0
1.356916719E0,1.489746451E0,-1.823202252E0,1.764559269E0
1.361672083E0,1.470198750E0,-1.793880820E0,1.817704558E0
1.366427448E0,1.440877318E0,-1.780441761E0,1.835419536E0
1.371182813E0,1.371238708E0,-1.783496022E0,1.828700066E0
1.375938177E0,1.255785227E0,-1.774943948E0,1.812206745E0
1.380693542E0,1.100625634E0,-1.746233344E0,1.792659044E0
1.385448906E0,9.167553186E-1,-1.747455001E0,1.782885194E0
1.390204271E0,7.145590782E-1,-1.761505008E0,1.782885194E0
1.394959636E0,5.129737258E-1,-1.767613649E0,1.798156857E0
1.399715000E0,3.303251266E-1,-1.742568135E0,1.823813200E0
1.404470365E0,1.782197952E-1,-1.673540473E0,1.861686826E0
1.409225729E0,6.520981342E-2,-1.548313141E0,1.918497205E0
1.413981094E0,6.566796452E-3,-1.377881885E0,1.982027173E0
1.418736458E0,1.145371422E-2,-1.176296473E0,2.029674530E0
1.423491823E0,5.726857483E-2,-9.692133069E-1,2.052887440E0
1.428247188E0,1.165224537E-1,-7.474694252E-1,2.033339739E0
1.433002552E0,1.379027218E-1,-5.745946765E-1,2.026620150E0
1.437757917E0,9.819651395E-2,-4.646390080E-1,2.070602417E0
1.442513281E0,2.733619884E-2,-3.815613985E-1,2.173227787E0
1.447268646E0,-3.802633286E-2,-2.923751473E-1,2.310061455E0
1.452024063E0,-1.003345400E-1,-2.044106275E-1,2.409632444E0
1.456779375E0,-1.498145908E-1,-1.439350098E-1,2.444451809E0
1.461534792E0,-1.663079411E-1,-1.421024203E-1,2.413908482E0
1.466290156E0,-1.498145908E-1,-1.726456583E-1,2.348546028E0
1.471045521E0,-1.229365394E-1,-2.233474404E-1,2.247142553E0
1.475800886E0,-8.933897316E-2,-3.326922357E-1,2.099313259E0
1.480556250E0,-5.451968312E-2,-5.306124091E-1,1.898338675E0
1.485311615E0,8.399390616E-3,-7.761800885E-1,1.568471670E0
1.490066979E0,1.140789986E-1,-9.606612325E-1,1.182405114E0
1.494822344E0,2.533561587E-1,-1.104825258E0,8.916335106E-1
1.499577708E0,3.810268939E-1,-1.240437269E0,7.065414786E-1
1.504333073E0,4.537198246E-1,-1.355279922E0,5.971966982E-1
1.509088438E0,4.524980783E-1,-1.454850793E0,5.141190886E-1
1.513843802E0,3.938550651E-1,-1.447520494E0,3.510181606E-1
1.518599167E0,3.046688139E-1,-1.259374142E0,1.030070707E-1
1.523354531E0,2.105956376E-1,-9.417244196E-1,-1.621082425E-1
1.528109896E0,1.159115955E-1,-5.446622968E-1,-3.832412958E-1
1.532865261E0,-4.428769462E-3,-1.659261435E-1,-5.481747985E-1
1.537620625E0,-1.559232324E-1,1.162933856E-1,-7.045561671E-1
1.542375990E0,-3.532325625E-1,2.286925018E-1,-8.151226640E-1
1.547131354E0,-6.824886799E-1,1.175151095E-1,-7.399863005E-1
1.551886719E0,-9.812015295E-1,1.553887278E-1,-5.732202530E-1
1.556642083E0,-1.169958711E0,1.859319657E-1,-3.508654535E-1
1.561397448E0,-1.232267022E0,6.436987966E-2,-1.462257504E-1
1.566152813E0,-1.182176113E0,-2.685514390E-1,-1.916588284E-2
1.570908177E0,-1.045953274E0,-8.030580878E-1,5.658135191E-2
1.575663542E0,-8.541416526E-1,-1.466457248E0,1.176678315E-1
1.580418906E0,-6.140718460E-1,-2.160399675E0,1.934150606E-1
1.585174271E0,-3.770562708E-1,-2.793866396E0,2.997055352E-1
1.589929688E0,-1.730274558E-1,-3.379074812E0,4.524217248E-1
1.594685052E0,-1.237001177E-2,-4.038808823E0,6.772199869E-1
1.599440417E0,1.195767820E-1,-4.602636814E0,9.484439492E-1
1.604195781E0,2.313650399E-1,-5.134089470E0,1.236161232E0
1.608951146E0,3.254382014E-1,-5.614840031E0,1.523878574E0
1.613706511E0,3.944659233E-1,-5.994186878E0,1.803043723E0
1.618461875E0,4.799869955E-1,-6.176224709E0,2.051665783E0
1.623217240E0,6.589703560E-1,-5.931878567E0,2.179336548E0
1.627972604E0,8.849903345E-1,-5.380878925E0,2.164064884E0
1.632727969E0,9.949460030E-1,-4.390666962E0,1.966144681E0
1.637483333E0,6.388118267E-1,-2.768821001E0,1.474398494E0
1.642238698E0,-1.724165827E-1,-9.948696494E-1,7.450259328E-1
1.646994063E0,-7.594576478E-1,6.337722298E-3,1.748600416E-2
1.651749427E0,-9.457713962E-1,3.881282210E-1,-5.194641352E-1
1.656504792E0,-9.634864926E-1,5.665007234E-1,-8.077923059E-1
1.661260156E0,-9.958623052E-1,7.980184555E-1,-9.012545943E-1
1.666015521E0,-1.092989802E0,1.013653755E0,-8.713222742E-1
1.670770886E0,-1.160795808E0,9.543998837E-1,-8.224530816E-1
1.675526250E0,-1.155908823E0,6.391936541E-1,-7.900772095E-1
1.680281615E0,-1.077718139E0,3.557523787E-1,-8.157335520E-1
1.685036979E0,-8.871283531E-1,1.786015928E-1,-8.554397821E-1
1.689792396E0,-6.409498453E-1,1.376736462E-1,-8.438333273E-1
1.694547761E0,-4.381427765E-1,1.272889525E-1,-7.735838890E-1
1.699303125E0,-3.196350038E-1,4.054614902E-2,-6.758455038E-1
1.704058490E0,-2.994764447E-1,-8.895718306E-2,-6.049851775E-1
1.708813854E0,-3.367392123E-1,-2.202931046E-1,-5.591703653E-1
1.713569219E0,-4.308123887E-1,-3.052033186E-1,-4.791470468E-1
1.718324583E0,-5.865828991E-1,-2.251800299E-1,-4.913643599E-1
1.723079948E0,-6.812669635E-1,-1.445458829E-1,-5.707767606E-1
1.727835313E0,-7.447968721E-1,-2.848157100E-2,-6.697368622E-1
1.732590677E0,-7.961094975E-1,8.941533417E-2,-7.552579641E-1
1.737346042E0,-8.077159524E-1,1.498909444E-1,-8.151226640E-1
1.742101406E0,-7.771727443E-1,1.749363989E-1,-8.511636853E-1
1.746856771E0,-7.399099469E-1,2.317468226E-1,-8.560506105E-1
1.751612136E0,-6.684387922E-1,3.630827665E-1,-8.206204772E-1
1.756367500E0,-5.554288030E-1,6.617956161E-1,-7.497601509E-1
1.761122865E0,-4.613556266E-1,1.179808974E0,-6.245328784E-1
1.765878229E0,-3.061959743E-1,1.815108299E0,-4.376082420E-1
1.770633594E0,-6.261364091E-3,1.945222497E0,-2.635118067E-1
1.775389011E0,2.069304436E-1,1.488295674E0,-1.645517051E-1
1.780144375E0,1.586721241E-1,9.293544292E-1,-1.608865112E-1
1.784899740E0,-1.786779426E-2,5.054142475E-1,-1.981492639E-1
1.789655104E0,-2.005163580E-1,1.614973694E-1,-2.146426141E-1
1.794410469E0,-3.575085998E-1,-5.047270283E-2,-2.103665620E-1
1.799165833E0,-4.741837978E-1,-6.696604937E-2,-2.018144578E-1
1.803921198E0,-5.426006317E-1,-3.764454275E-2,-1.902080178E-1
1.808676563E0,-5.328267813E-1,-1.885281354E-1,-1.364519149E-1
1.813431927E0,-4.240928590E-1,-3.858374655E-1,-1.733328775E-2
1.818187292E0,-2.237292230E-1,-4.750237167E-1,1.488219351E-1
1.822942656E0,1.939495653E-2,-5.489383340E-1,3.125337064E-1
1.827698021E0,2.814559340E-1,-7.480802536E-1,5.428296924E-1
1.832453386E0,5.697841048E-1,-1.108490467E0,9.221767187E-1
1.837208750E0,8.135191798E-1,-1.427361965E0,1.372384071E0
1.841964115E0,9.888373613E-1,-1.623449564E0,1.900782108E0
1.846719531E0,1.095738649E0,-1.721798778E0,2.499429703E0
1.851474896E0,1.151327372E0,-1.780441761E0,3.157330990E0
1.856230261E0,1.173318505E0,-1.821369648E0,3.917857647E0
1.860985625E0,1.152549148E0,-1.800600290E0,4.674718857E0
1.865740990E0,1.001665473E0,-1.748065948E0,5.218999386E0
1.870496354E0,7.481566668E-1,-1.628336430E0,5.543368816E0
1.875251719E0,4.799869955E-1,-1.261206746E0,5.800542831E0
1.880007083E0,2.441931963E-1,-6.497310400E-1,6.060160637E0
1.884762448E0,-6.872228812E-3,-2.214384731E-3,6.267854214E0
1.889517813E0,-2.585485280E-1,4.644863009E-1,6.345434189E0
1.894273177E0,-4.509709179E-1,5.640572906E-1,6.198826790E0
1.899028542E0,-5.371028781E-1,2.818377316E-1,5.766334534E0
1.903783906E0,-4.918988645E-1,-2.068540901E-1,5.104767799E0
1.908539271E0,-3.159697950E-1,-7.474694252E-1,4.334467411E0
1.913294636E0,-5.024362728E-2,-1.219667912E0,3.608149290E0
1.918050052E0,1.996000707E-1,-1.512272120E0,3.076086044E0
1.922805417E0,3.132209182E-1,-1.569693446E0,2.796920776E0
1.927560781E0,2.826776803E-1,-1.456683397E0,2.743775606E0
1.932316146E0,1.788306683E-1,-1.264871836E0,2.867781162E0
1.937071511E0,6.398808211E-2,-1.110323071E0,3.130452871E0
1.941826875E0,-3.741546720E-2,-1.005254388E0,3.436496258E0
1.946582240E0,-1.259908676E-1,-9.362266064E-1,3.671068192E0
1.951337604E0,-1.956294477E-1,-9.154572487E-1,3.777358770E0
1.956092969E0,-2.218966335E-1,-8.849139810E-1,3.707720041E0
1.960848333E0,-2.157879770E-1,-8.281035423E-1,3.449935198E0
1.965603698E0,-1.889099330E-1,-7.541889548E-1,3.062646866E0
1.970359063E0,-1.675296724E-1,-6.485093236E-1,2.613661289E0
1.975114479E0,-1.663079411E-1,-5.025126338E-1,2.129245520E0
1.979869844E0,-1.876882017E-1,-3.186423481E-1,1.639331937E0
1.984625208E0,-2.237292230E-1,-1.011744812E-1,1.186681151E0
1.989380573E0,-2.585485280E-1,1.187368408E-1,7.951168418E-1
1.994135938E0,-2.744309902E-1,3.178787529E-1,4.524217248E-1
1.998891302E0,-2.683223486E-1,5.133554935E-1,1.579848975E-1
2.003646667E0,-2.457203567E-1,7.265473008E-1,-8.941533417E-2
2.008402031E0,-2.121227980E-1,9.678388834E-1,-3.154352903E-1
2.013157396E0,-1.705839932E-1,1.239062905E0,-5.255727768E-1
2.017912761E0,-1.137735620E-1,1.505399942E0,-7.112756968E-1
2.022668125E0,-4.474584386E-2,1.732641578E0,-8.731548190E-1
2.027423542E0,2.489273995E-2,1.936670423E0,-1.023427606E0
2.032178906E0,8.720094711E-2,2.163912058E0,-1.188361049E0
2.036934271E0,1.507308781E-1,2.443077326E0,-1.398498535E0
2.041689636E0,2.203694731E-1,2.775387764E0,-1.648953080E0
2.046445000E0,2.912297845E-1,3.180391073E0,-1.918955326E0
2.051200365E0,3.620901108E-1,3.685576200E0,-2.183459759E0
2.055955729E0,4.329504073E-1,4.233521938E0,-2.408868790E0
2.060711094E0,5.025889874E-1,4.736874580E0,-2.513937712E0
2.065466458E0,5.484038591E-1,5.088121891E0,-2.460792303E0
2.070221823E0,5.612320304E-1,5.221290112E0,-2.211559534E0
2.074977188E0,5.038107038E-1,5.149819374E0,-1.728365541E0
2.079732552E0,3.370446563E-1,4.879817009E0,-1.027092814E0
2.084487917E0,1.232419685E-1,4.402731419E0,-2.268599123E-1
2.089243333E0,-4.230238497E-2,3.859672785E0,5.416079760E-1
2.093998698E0,-1.009454057E-1,3.242088556E0,1.220278740E0
2.098754063E0,-2.580903657E-2,2.466901064E0,1.794491649E0
2.103509427E0,1.336266696E-1,1.605581760E0,2.283794403E0
2.108264792E0,2.893971801E-1,7.607557178E-1,2.686354160E0
2.113020156E0,4.072940946E-1,-4.680751264E-2,3.011334181E0
2.117775521E0,4.970912039E-1,-7.670170665E-1,3.285001755E0
2.122530886E0,5.539016128E-1,-1.373605847E0,3.504302263E0
2.127286250E0,5.496255755E-1,-1.848247766E0,3.666181326E0
2.132041615E0,4.677697122E-1,-2.223318815E0,3.744982958E0
2.136797031E0,3.089448512E-1,-2.628932953E0,3.726046085E0
2.141552396E0,8.536835015E-2,-3.135339737E0,3.636859894E0
2.146307761E0,-1.803578287E-1,-3.691837549E0,3.520184755E0
2.151063125E0,-4.326449931E-1,-4.216570377E0,3.451767683E0
2.155818490E0,-6.030762792E-1,-4.657003880E0,3.446269989E0
2.160573854E0,-6.659952998E-1,-4.938612461E0,3.455432892E0
2.165329219E0,-6.495019794E-1,-4.900739193E0,3.440161467E0
2.170084583E0,-5.865828991E-1,-4.445034027E0,3.355251074E0
2.174839948E0,-4.809032977E-1,-3.699778795E0,3.237965107E0
2.179595313E0,-3.361283541E-1,-2.808527231E0,3.102963924E0
2.184350729E0,-1.608101577E-1,-1.859854221E0,2.950247765E0
2.189106094E0,5.238165334E-2,-8.824705482E-1,2.748662472E0
2.193861458E0,2.814559340E-1,-4.314232618E-2,2.470108032E0
2.198616823E0,5.111411214E-1,5.555051565E-1,2.161010504E0
2.203372188E0,7.457131743E-1,1.008766770E0,1.833587050E0
2.208127552E0,9.692896605E-1,1.424154878E0,1.490280986E0
2.212882917E0,1.151327372E0,1.845651627E0,1.140866280E0
2.217638281E0,1.269835114E0,2.268980980E0,8.018363714E-1
2.222393646E0,1.303432703E0,2.655658245E0,4.854084253E-1
2.227149011E0,1.233794093E0,2.949484348E0,1.964693815E-1
2.231904375E0,1.079856157E0,2.950706005E0,-3.382663801E-2
2.236659792E0,8.868229389E-1,2.642219305E0,-1.688277572E-1
2.241415156E0,7.029526234E-1,2.176740170E0,-2.250273079E-1
2.246170521E0,5.349648595E-1,1.675831199E0,-2.176969349E-1
2.250925886E0,3.724747896E-1,1.221958637E0,-1.682168841E-1
2.255681250E0,2.197586000E-1,8.004619479E-1,-8.513928205E-2
2.260436615E0,8.414662629E-2,4.186714590E-1,2.970330045E-2
2.265191979E0,-3.008509055E-2,1.169042438E-1,1.677587330E-1
2.269947344E0,-1.211039424E-1,-9.628756344E-2,3.180314898E-1
2.274702708E0,-1.913533956E-1,-2.129627317E-1,4.652498960E-1
2.279458073E0,-2.426660359E-1,-2.367864549E-1,6.057487726E-1
2.284213490E0,-2.750418782E-1,-1.750891209E-1,7.468585372E-1
2.288968854E0,-2.768744528E-1,-4.925097153E-2,8.971312642E-1
2.293724219E0,-2.444986254E-1,1.205694377E-1,1.054734349E0
2.298479583E0,-1.907425225E-1,2.977202237E-1,1.204396248E0
2.303234948E0,-1.235474050E-1,5.542834401E-1,1.242880702E0
2.307990313E0,-4.169152305E-2,8.713222742E-1,1.133535981E0
2.312745677E0,7.437278330E-2,1.005101681E0,9.826523662E-1
2.317501042E0,2.057087123E-1,8.865938783E-1,8.525381684E-1
2.322256406E0,3.162752390E-1,6.581304669E-1,7.486911416E-1
2.327011771E0,3.877464235E-1,4.211149216E-1,6.533962488E-1
2.331767188E0,4.195113778E-1,2.030361742E-1,5.544361472E-1
2.336522552E0,3.975202441E-1,2.099847607E-2,4.200458825E-1
2.341277917E0,3.370446563E-1,-1.592066288E-1,2.441168427E-1
2.346033281E0,2.741255760E-1,-3.504073024E-1,8.101594448E-2
2.350788646E0,2.142608166E-1,-6.075813770E-1,-7.964149863E-2
2.355544011E0,1.678351015E-1,-8.824705482E-1,-2.555705607E-1
2.360299375E0,1.299614757E-1,-1.098105788E0,-4.443277717E-1
2.365054740E0,1.104138121E-1,-1.239826441E0,-6.379718781E-1
2.369810104E0,6.520981342E-2,-1.345506072E0,-6.129264235E-1
2.374565521E0,-1.724165827E-1,-1.486004949E0,-1.309541315E-1
2.379320886E0,-3.623955250E-1,-1.465235591E0,4.371501207E-1
2.384076250E0,-5.035052896E-1,-1.149418473E0,1.021747708E0
2.388831615E0,-4.967857897E-1,-6.564505696E-1,1.338175654E0
2.393586979E0,-2.603811026E-1,-9.812015295E-2,1.292971611E0
2.398342344E0,4.749473557E-2,4.773144722E-1,1.229441762E0
2.403097708E0,3.370446563E-1,9.886083007E-1,1.343673468E0
2.407853073E0,5.899426341E-1,1.371620536E0,1.536095858E0
2.412608438E0,7.811433077E-1,1.610468626E0,1.658268809E0
2.417363854E0,8.849903345E-1,1.754632711E0,1.710803151E0
2.422119219E0,9.045380354E-1,1.855425358E0,1.740735531E0
2.426874583E0,8.642209172E-1,1.936059594E0,1.715690136E0
2.431629948E0,7.890845537E-1,1.968435407E0,1.648494959E0
2.436385313E0,6.992874742E-1,1.924453139E0,1.578245521E0
2.441140677E0,6.394227147E-1,1.812664866E0,1.556254387E0
2.445896042E0,6.320923567E-1,1.633681536E0,1.661934018E0
2.450651406E0,6.534726024E-1,1.396665931E0,1.883677959E0
2.455406771E0,6.858484149E-1,1.132772326E0,2.140851974E0
2.460162136E0,7.212786078E-1,8.786526322E-1,2.343659163E0
2.464917552E0,7.426588535E-1,7.051670551E-1,2.402912855E0
2.469672917E0,7.115047574E-1,6.422479749E-1,2.270966291E0
2.474428281E0,6.259836555E-1,6.746237874E-1,1.963701248E0
2.479183646E0,4.848739207E-1,7.705295682E-1,1.499444008E0
2.483939011E0,3.187187016E-1,8.920916319E-1,9.032399058E-1
2.488694375E0,1.537852138E-1,9.886083007E-1,2.685514390E-1
2.493449740E0,7.177661173E-3,1.003269076E0,-3.026071489E-1
2.498205104E0,-1.039997265E-1,9.507346749E-1,-6.843976378E-1
2.502960521E0,-1.724165827E-1,8.847612739E-1,-8.248965144E-1
2.507715886E0,-2.310595959E-1,7.870228887E-1,-7.760273218E-1
2.512471250E0,-2.878700197E-1,6.495783329E-1,-6.110938787E-1
2.517226615E0,-3.544542789E-1,4.785361886E-1,-4.076758921E-1
2.521981979E0,-4.344775677E-1,3.099375069E-1,-2.793942690E-1
2.526737344E0,-5.016726851E-1,2.067013681E-1,-2.787834108E-1
2.531492708E0,-5.254964232E-1,1.853211075E-1,-3.551415205E-1
2.536248073E0,-5.004509687E-1,2.030361742E-1,-4.486038089E-1
2.541003438E0,-4.411970973E-1,2.238055766E-1,-5.231293440E-1
2.545758802E0,-3.685041666E-1,2.293033600E-1,-5.860484242E-1
2.550514219E0,-3.006981909E-1,2.488510460E-1,-6.416370869E-1
2.555269583E0,-2.487746775E-1,2.384663373E-1,-6.819541454E-1
2.560024948E0,-2.066250145E-1,1.676060259E-1,-6.905062795E-1
2.564780313E0,-1.773035079E-1,3.688096255E-2,-6.666825414E-1
2.569535677E0,-1.620318890E-1,-1.195004210E-1,-6.184242368E-1
2.574291042E0,-1.559232324E-1,-2.581667304E-1,-5.634464025E-1
2.579046406E0,-1.540906429E-1,-3.662897944E-1,-5.261836648E-1
2.583801771E0,-1.528689116E-1,-4.304305911E-1,-5.127446055E-1
2.588557136E0,-1.479819864E-1,-4.530325830E-1,-5.274053812E-1
2.593312552E0,-1.455385387E-1,-4.273762703E-1,-5.616137981E-1
2.598067917E0,-1.455385387E-1,-3.430769444E-1,-6.080395579E-1
2.602823281E0,-1.424842030E-1,-2.086866796E-1,-6.825650334E-1
2.607578646E0,-1.217148080E-1,-7.712167688E-3,-8.004619479E-1
2.612334011E0,-9.789107740E-2,2.525162399E-1,-9.562324286E-1
2.617089375E0,-9.178243577E-2,5.041925311E-1,-1.138270140E0
2.621844740E0,-1.168278903E-1,6.837867498E-1,-1.331914306E0
2.626600104E0,-1.589775532E-1,7.931315303E-1,-1.536553979E0
2.631355469E0,-2.066250145E-1,8.676570654E-1,-1.743637204E0
2.636110886E0,-2.444986254E-1,9.366847873E-1,-1.946444273E0
2.640866250E0,-2.719875574E-1,9.947169423E-1,-2.148640394E0
2.645621615E0,-2.713766694E-1,1.069853306E0,-2.342895508E0
2.650376979E0,-2.163988501E-1,1.205465317E0,-2.506607294E0
2.655132344E0,-1.204930767E-1,1.402163744E0,-2.639164925E0
2.659887708E0,-2.092211880E-2,1.603749156E0,-2.736903191E0
2.664643073E0,6.582067907E-2,1.750356674E0,-2.791270256E0
2.669398438E0,1.556178033E-1,1.837099433E0,-2.808985233E0
2.674153854E0,2.515235841E-1,1.902462006E0,-2.801043987E0
2.678909219E0,3.297142684E-1,1.928118348E0,-2.777831316E0
2.683664583E0,3.627009690E-1,1.881081700E0,-2.730183840E0
2.688419948E0,3.437641561E-1,1.762573957E0,-2.661767006E0
2.693175313E0,2.753472924E-1,1.572595000E0,-2.573802471E0
2.697930677E0,1.989891976E-1,1.377118230E0,-2.412533998E0
2.702686042E0,1.317940801E-1,1.181030750E0,-2.113821268E0
2.707441406E0,5.238165334E-2,9.476803541E-1,-1.678885460E0
2.712196771E0,-3.130681813E-2,6.850084662E-1,-1.143767953E0
2.716952136E0,-1.015562713E-1,4.162279963E-1,-5.726093650E-1
2.721707552E0,-1.522580534E-1,1.669951528E-1,-4.970912263E-2
2.726462917E0,-1.663079411E-1,-3.092502989E-2,3.430769444E-1
2.731218281E0,-1.375972927E-1,-1.451567411E-1,5.379427671E-1
2.735973646E0,-8.200860023E-2,-1.818086356E-1,5.709294677E-1
2.740729011E0,-2.214384824E-2,-1.567631811E-1,5.165625215E-1
2.745484375E0,1.939495653E-2,-9.323323518E-2,4.414261580E-1
2.750239740E0,2.977965772E-2,-2.176205814E-2,3.736201823E-1
2.754995104E0,1.389717404E-2,3.688096255E-2,3.223075271E-1
2.759750469E0,-2.153298259E-2,7.475458086E-2,2.856556475E-1
2.764505886E0,-5.879573524E-2,9.857830405E-2,2.575558722E-1
2.769261250E0,-9.056070447E-2,1.071304083E-1,2.361755967E-1
2.774016615E0,-1.076649204E-1,1.077412739E-1,2.178496569E-1
2.778771979E0,-1.064431891E-1,1.028543562E-1,2.031888962E-1
2.783527344E0,-9.117157012E-2,9.063705802E-2,1.879172772E-1
2.788282708E0,-6.429351866E-2,7.292198390E-2,1.763108522E-1
2.793038073E0,-3.130681813E-2,5.093085021E-2,1.671478748E-1
2.797793438E0,-1.527161949E-4,2.649625950E-2,1.628718227E-1
2.802548802E0,2.367101051E-2,4.505127668E-3,1.677587330E-1
2.807304219E0,3.588830680E-2,-1.259908639E-2,1.805869043E-1
2.812059583E0,3.649916872E-2,-2.237292193E-2,2.019671649E-1
2.816814948E0,2.611446939E-2,-2.054032870E-2,2.276234925E-1
2.821570313E0,9.010255337E-3,-1.015562657E-2,2.581667304E-1
2.826325677E0,-1.237001177E-2,6.337722298E-3,2.893208265E-1
2.831081042E0,-3.130681813E-2,2.222020552E-2,3.204749227E-1
2.835836406E0,-4.291325063E-2,3.199404106E-2,3.510181606E-1
2.840591771E0,-4.657844082E-2,3.504836559E-2,3.772853613E-1
2.845347136E0,-4.474584386E-2,2.893971838E-2,3.992764950E-1
2.850102552E0,-3.741546720E-2,1.061377581E-2,4.169915617E-1
2.854857917E0,-2.519817278E-2,-1.809686981E-2,4.322631955E-1
2.859613281E0,-1.481347065E-2,-5.169443041E-2,4.426479042E-1
2.864368646E0,-5.650499370E-3,-8.529199660E-2,4.505891204E-1
2.869124011E0,3.512472380E-3,-1.158352345E-1,4.542543292E-1
2.873879375E0,1.084284950E-2,-1.457676142E-1,4.536434710E-1
2.878634740E0,1.817322709E-2,-1.738673896E-1,4.512000084E-1
2.883390104E0,2.672533318E-2,-1.995237023E-1,4.432587624E-1
2.888145521E0,3.283398226E-2,-2.239582986E-1,4.347066581E-1
2.892900886E0,3.833176568E-2,-2.465602905E-1,4.237110913E-1
2.897656250E0,4.321868345E-2,-2.697731555E-1,4.127155244E-1
2.902411615E0,5.177079141E-2,-2.948186100E-1,4.011090994E-1
2.907166979E0,6.093376130E-2,-3.204749227E-1,3.913352489E-1
2.911922344E0,7.070759684E-2,-3.467421234E-1,3.815613985E-1
2.916677708E0,8.170316368E-2,-3.717875779E-1,3.730092943E-1
2.921433073E0,9.147699922E-2,-3.956113160E-1,3.656789362E-1
2.926188438E0,9.697478265E-2,-4.127155244E-1,3.577376902E-1
2.930943854E0,1.012508348E-1,-4.224893451E-1,3.522399068E-1
2.935699219E0,1.043051630E-1,-4.267654121E-1,3.485747278E-1
2.940454583E0,1.067486182E-1,-4.316523373E-1,3.479638398E-1
2.945209948E0,1.116355360E-1,-4.395935535E-1,3.473529816E-1
2.949965313E0,1.177441850E-1,-4.512000084E-1,3.497964442E-1
2.954720677E0,1.238528341E-1,-4.676933587E-1,3.571268320E-1
2.959476042E0,1.281288862E-1,-4.902953506E-1,3.638463318E-1
2.964231406E0,1.281288862E-1,-5.153408051E-1,3.711767197E-1
2.968986771E0,1.207985133E-1,-5.416079760E-1,3.803396821E-1
2.973742136E0,1.085812151E-1,-5.672643185E-1,3.895026445E-1
2.978497552E0,9.514218569E-2,-5.892554522E-1,3.968330324E-1
2.983252917E0,8.231402934E-2,-6.033053398E-1,4.004982114E-1
2.988008281E0,7.376192510E-2,-6.088030934E-1,4.017199576E-1
2.992763646E0,7.009673119E-2,-6.045270562E-1,3.998873532E-1
2.997519011E0,7.437278330E-2,-5.923097730E-1,3.974438906E-1
3.002274375E0,8.292489499E-2,-5.715403557E-1,3.937787116E-1
3.007029740E0,9.514218569E-2,-5.452731848E-1,3.895026445E-1
3.011785104E0,1.098029464E-1,-5.190060139E-1,3.840048611E-1
3.016540521E0,1.269071549E-1,-4.945713878E-1,3.778962195E-1
3.021295886E0,1.470656991E-1,-4.750237167E-1,3.675115108E-1
3.026051250E0,1.660024971E-1,-4.591412544E-1,3.528507650E-1
3.030806615E0,1.855501831E-1,-4.444804788E-1,3.326922357E-1
3.035561979E0,1.996000707E-1,-4.255436659E-1,3.064250350E-1
3.040317344E0,2.130390853E-1,-3.901135325E-1,2.722166181E-1
3.045072708E0,2.240346521E-1,-3.455203772E-1,2.325104028E-1
3.049828073E0,2.362519503E-1,-3.015381396E-1,1.921933293E-1
3.054583438E0,2.478583902E-1,-2.648862302E-1,1.549305767E-1
3.059338854E0,2.612974048E-1,-2.349538654E-1,1.195004210E-1
3.064094219E0,2.765690386E-1,-2.117410004E-1,9.323323518E-2
3.068849583E0,2.918406427E-1,-1.946367919E-1,7.735075057E-2
3.073604948E0,3.052796721E-1,-1.830303669E-1,7.185296714E-2
3.078360313E0,3.138317764E-1,-1.744782478E-1,7.490729541E-2
3.083115677E0,3.168860972E-1,-1.653152853E-1,8.529199660E-2
3.087871042E0,3.132209182E-1,-1.506545246E-1,1.011744812E-1
3.092626406E0,3.022253513E-1,-1.335503161E-1,1.176678315E-1
3.097381771E0,2.863428593E-1,-1.195004210E-1,1.335503161E-1
3.102137188E0,2.692386508E-1,-1.078939885E-1,1.500436664E-1
3.106892552E0,2.557996213E-1,-9.750928730E-2,1.634826809E-1
3.111647917E0,2.496909797E-1,-9.445496649E-2,1.769217104E-1
3.116403281E0,2.515235841E-1,-9.567669779E-2,1.928042024E-1
3.121158646E0,2.551887631E-1,-1.127809063E-1,2.135736048E-1
3.125914011E0,2.551887631E-1,-1.512653977E-1,2.380081862E-1
3.130669375E0,2.515235841E-1,-1.952476501E-1,2.618319094E-1
3.135424740E0,2.460257858E-1,-2.331212759E-1,2.838230431E-1
3.140180104E0,2.393062711E-1,-2.624427676E-1,2.997055352E-1
3.144935521E0,2.307541668E-1,-2.850447893E-1,3.094793558E-1
3.149690886E0,2.209803313E-1,-3.076467812E-1,3.137554228E-1
3.154446250E0,2.167042792E-1,-3.339139521E-1,3.113119602E-1
3.159201615E0,2.185368687E-1,-3.632354736E-1,3.052033186E-1
3.163956979E0,2.252563834E-1,-4.035525322E-1,2.972620726E-1
3.168712344E0,2.301433086E-1,-4.744128585E-1,2.984837890E-1
3.173467708E0,2.289215773E-1,-5.648208261E-1,3.033707142E-1
3.178223073E0,2.264781147E-1,-6.442332864E-1,3.082576394E-1
3.182978438E0,2.252563834E-1,-6.906589866E-1,3.082576394E-1
3.187733802E0,2.325867712E-1,-6.986002326E-1,2.984837890E-1
3.192489219E0,2.435823381E-1,-6.766090989E-1,2.789361179E-1
3.197244583E0,2.588539422E-1,-6.332377195E-1,2.496146262E-1
3.201999948E0,2.741255760E-1,-5.782598853E-1,2.160170525E-1
3.206755313E0,2.881754637E-1,-5.190060139E-1,1.824194938E-1
3.211510677E0,2.997818887E-1,-4.554760456E-1,1.469893306E-1
3.216266042E0,3.107774556E-1,-3.913352489E-1,1.188895553E-1
3.221021406E0,3.187187016E-1,-3.308596313E-1,9.567669779E-2
3.225776771E0,3.199404180E-1,-2.697731555E-1,7.429642975E-2
3.230532188E0,3.144426346E-1,-2.099084109E-1,5.108356848E-2
3.235287552E0,2.997818887E-1,-1.482110620E-1,2.664897591E-2
3.240042917E0,2.716821134E-1,-8.101594448E-2,9.926552884E-4
3.244798281E0,2.325867712E-1,-3.436114406E-3,-2.344193682E-2
3.249553646E0,1.831067204E-1,8.269581944E-2,-4.909825698E-2
3.254309011E0,1.269071549E-1,1.712712198E-1,-7.353284955E-2
3.259064375E0,6.826414168E-2,2.531270981E-1,-9.918916970E-2
3.263819740E0,1.389717404E-2,3.172678947E-1,-1.248454899E-1
3.268575104E0,-3.741546720E-2,3.575849831E-1,-1.492800862E-1
3.273330469E0,-8.445205539E-2,3.789652288E-1,-1.718820781E-1
3.278085833E0,-1.284343153E-1,3.850739002E-1,-1.908188909E-1
3.282841250E0,-1.687513888E-1,3.777435124E-1,-2.103665620E-1
3.287596615E0,-2.072358727E-1,3.624718785E-1,-2.293033600E-1
3.292351979E0,-2.432768941E-1,3.484219909E-1,-2.519053519E-1
3.297107344E0,-2.750418782E-1,3.472002745E-1,-2.708421648E-1
3.301862708E0,-3.086394370E-1,3.655261993E-1,-2.903898358E-1
3.306618073E0,-3.434587121E-1,4.058432877E-1,-3.081049323E-1
3.311373438E0,-3.794997334E-1,4.657080472E-1,-3.215439618E-1
3.316128802E0,-4.185950756E-1,5.341249108E-1,-3.300960660E-1
3.320884219E0,-4.589121640E-1,5.921570659E-1,-3.300960660E-1
3.325639583E0,-4.931205809E-1,6.208676696E-1,-3.166570365E-1
3.330394948E0,-5.169443488E-1,6.172025204E-1,-2.873355150E-1
3.335150313E0,-5.248855352E-1,5.848266482E-1,-2.464075834E-1
3.339905677E0,-5.145008564E-1,5.274053812E-1,-1.938732117E-1
3.344661042E0,-4.864010811E-1,4.657080472E-1,-1.278998107E-1
3.349416406E0,-4.466948807E-1,4.088976085E-1,-5.765036494E-2
3.354171771E0,-4.014908671E-1,3.624718785E-1,1.320995111E-2
3.358927136E0,-3.568977416E-1,3.276526034E-1,7.735075057E-2
3.363682500E0,-3.178023994E-1,2.983310819E-1,1.298851222E-1
3.368437865E0,-2.860374451E-1,2.629009187E-1,1.653152853E-1
3.373193281E0,-2.652680278E-1,2.164752036E-1,1.830303669E-1
3.377948646E0,-2.530507445E-1,1.621082425E-1,1.885281354E-1
3.382704011E0,-2.438877672E-1,1.077412739E-1,1.891390085E-1
3.387459375E0,-2.335030586E-1,6.742420048E-2,1.879172772E-1
3.392214740E0,-2.139553875E-1,4.360047355E-2,1.903607398E-1
3.396970104E0,-1.846338809E-1,4.237874225E-2,1.970802546E-1
3.401725469E0,-1.504254490E-1,6.436987966E-2,2.092975378E-1
3.406480833E0,-1.143844277E-1,1.004109010E-1,2.245691717E-1
3.411236198E0,-8.200860023E-2,1.401171088E-1,2.398407906E-1
3.415991563E0,-5.451968312E-2,1.706603467E-1,2.526689470E-1
3.420746979E0,-3.191768378E-2,1.938732117E-1,2.667188346E-1
3.425502344E0,-9.926552884E-3,2.079230994E-1,2.777144015E-1
3.430257708E0,1.572976820E-2,2.048687786E-1,2.850447893E-1
3.435013073E0,4.627300799E-2,1.840993762E-1,2.887099683E-1
3.439768438E0,7.803797722E-2,1.553887278E-1,2.923751473E-1
3.444523802E0,1.085812151E-1,1.309541315E-1,2.948186100E-1
3.449279167E0,1.348484010E-1,1.101847365E-1,2.984837890E-1
3.454034531E0,1.574503928E-1,8.819360286E-2,3.015381396E-1
3.458789896E0,1.788306683E-1,6.864593178E-2,3.015381396E-1
3.463545261E0,1.977674663E-1,5.765036494E-2,3.021489978E-1
3.468300677E0,2.160934210E-1,5.398517475E-2,3.027598560E-1
3.473056042E0,2.331976295E-1,6.009382382E-2,3.027598560E-1
3.477811406E0,2.490801066E-1,7.964149863E-2,3.033707142E-1
3.482566771E0,2.637408674E-1,1.004109010E-1,3.009272516E-1
3.487322136E0,2.741255760E-1,1.046869531E-1,2.923751473E-1
3.492077500E0,2.820668221E-1,9.796743840E-2,2.844339013E-1
3.496832865E0,2.863428593E-1,9.308052063E-2,2.795470059E-1
3.501588229E0,2.881754637E-1,9.308052063E-2,2.783252597E-1
3.506343594E0,2.863428593E-1,9.613484144E-2,2.783252597E-1
3.511098958E0,2.784016132E-1,9.796743840E-2,2.801578641E-1
3.515854375E0,2.655734718E-1,1.010217592E-1,2.838230431E-1
3.520609740E0,2.466366589E-1,1.028543562E-1,2.856556475E-1
3.525365104E0,2.240346521E-1,1.004109010E-1,2.887099683E-1
3.530120469E0,1.989891976E-1,9.063705802E-2,2.935968935E-1
3.534875833E0,1.727220118E-1,7.353284955E-2,3.003163934E-1
3.539631198E0,1.519526094E-1,5.520690605E-2,3.076467812E-1
3.544386563E0,1.360701323E-1,3.749182448E-2,3.149771392E-1
3.549141927E0,1.256854236E-1,2.160934173E-2,3.216966689E-1
3.553897292E0,1.201876476E-1,1.000291109E-2,3.271944523E-1
3.558652656E0,1.165224537E-1,2.672533505E-3,3.290270567E-1
3.563408021E0,1.122464016E-1,-4.046979360E-3,3.296379149E-1
3.568163438E0,1.036942974E-1,-5.268708803E-3,3.278053105E-1
3.572918802E0,9.392046183E-2,-4.657844082E-3,3.235292733E-1
3.577674167E0,8.231402934E-2,-1.137735695E-2,3.161988854E-1
3.582429531E0,7.192932814E-2,-1.748600416E-2,3.076467812E-1
3.587184896E0,6.032289565E-2,-2.970330045E-2,3.033707142E-1
3.591940261E0,5.421425030E-2,-4.986183718E-2,2.978729308E-1
3.596695625E0,4.627300799E-2,-6.940951198E-2,2.948186100E-1
3.601450990E0,3.955349326E-2,-7.918334752E-2,2.960403562E-1
3.606206354E0,3.588830680E-2,-8.895718306E-2,2.960403562E-1
3.610961719E0,3.466657549E-2,-9.567669779E-2,2.911534309E-1
3.615717083E0,2.977965772E-2,-9.262236953E-2,2.838230431E-1
3.620472500E0,2.122755162E-2,-8.712458611E-2,2.783252597E-1
3.625227865E0,9.010255337E-3,-9.445496649E-2,2.722166181E-1
3.629983229E0,-3.207040019E-3,-1.158352345E-1,2.654971182E-1
3.634738594E0,-1.786779426E-2,-1.378263682E-1,2.593884468E-1
3.639493958E0,-3.375028074E-2,-1.567631811E-1,2.545015514E-1
3.644249323E0,-4.963276163E-2,-1.720348001E-1,2.490037531E-1
3.649004688E0,-6.490438432E-2,-1.897498667E-1,2.447277009E-1
3.653760052E0,-7.589995116E-2,-2.264017612E-1,2.422842383E-1
3.658515417E0,-8.384118974E-2,-2.844339013E-1,2.453385741E-1
3.663270781E0,-8.872810751E-2,-3.449095190E-1,2.532798052E-1
3.668026198E0,-8.750637621E-2,-4.023308158E-1,2.673296928E-1
3.672781563E0,-7.956513762E-2,-4.573086500E-1,2.874882221E-1
3.677536927E0,-6.368265301E-2,-5.128973126E-1,3.143662810E-1
3.682292292E0,-3.985892609E-2,-5.666534305E-1,3.455203772E-1
3.687047656E0,-1.053741761E-2,-6.149117351E-1,3.797288239E-1
3.691803021E0,2.000582218E-2,-6.564505696E-1,4.151589870E-1
3.696558386E0,5.177079141E-2,-6.943241954E-1,4.481456876E-1
3.701313750E0,8.292489499E-2,-7.321978211E-1,4.719693959E-1
3.706069115E0,1.134681329E-1,-7.639627457E-1,4.902953506E-1
3.710824479E0,1.372918636E-1,-7.908408046E-1,5.012909174E-1
3.715579844E0,1.562286615E-1,-8.116102219E-1,5.031235218E-1
3.720335208E0,1.653916389E-1,-8.232166767E-1,4.957931340E-1
3.725090625E0,1.715002805E-1,-8.226057887E-1,4.805215001E-1
3.729845990E0,1.739437431E-1,-7.993929386E-1,4.628064334E-1
3.734601354E0,1.727220118E-1,-7.462477088E-1,4.463130832E-1
3.739356719E0,1.672242284E-1,-6.619483232E-1,4.322631955E-1
3.744112083E0,1.574503928E-1,-5.495492220E-1,4.188241661E-1
3.748867448E0,1.440113783E-1,-4.176024497E-1,4.047742784E-1
3.753622813E0,1.293506175E-1,-2.801578641E-1,3.858374655E-1
3.758378177E0,1.122464016E-1,-1.543197185E-1,3.607920110E-1
3.763133542E0,9.636391699E-2,-5.108356848E-2,3.278053105E-1
3.767888906E0,8.109229803E-2,2.466366626E-2,2.868773639E-1
3.772644323E0,7.070759684E-2,7.903063297E-2,2.459494323E-1
3.777399636E0,6.582067907E-2,1.187368408E-1,2.068540901E-1
3.782155052E0,6.704241037E-2,1.529452652E-1,1.769217104E-1
3.786910417E0,7.376192510E-2,1.865428388E-1,1.561523080E-1
3.791665781E0,8.781181276E-2,2.189186662E-1,1.463784724E-1
3.796421146E0,1.043051630E-1,2.439641207E-1,1.408806890E-1
3.801176511E0,1.269071549E-1,2.567922771E-1,1.317177117E-1
3.805931875E0,1.519526094E-1,2.543488145E-1,1.158352345E-1
3.810687240E0,1.794415265E-1,2.384663373E-1,8.956804872E-2
3.815442604E0,2.081521749E-1,2.079230994E-1,6.024653837E-2
3.820197969E0,2.399171442E-1,1.657734364E-1,3.275762498E-2
3.824953333E0,2.747364342E-1,1.224020272E-1,1.076649129E-2
3.829708698E0,3.101665974E-1,9.246965498E-2,3.817904799E-4
3.834464063E0,3.382663727E-1,8.758273721E-2,6.490438245E-3
3.839219479E0,3.584249020E-1,1.217911690E-1,3.092502989E-2
3.843974844E0,3.749182522E-1,1.993709952E-1,6.635518372E-2
3.848730208E0,3.895790279E-1,3.050506115E-1,1.091157198E-1
3.853485573E0,4.017963111E-1,4.052324295E-1,1.482110620E-1
3.858240938E0,4.127918780E-1,4.614319801E-1,1.756999791E-1
3.862996302E0,4.195113778E-1,4.553233385E-1,1.891390085E-1
3.867751667E0,4.237874448E-1,3.814086914E-1,1.897498667E-1
3.872507031E0,4.207331240E-1,2.525162399E-1,1.811977625E-1
3.877262396E0,4.054614902E-1,1.126281917E-1,1.640935540E-1
3.882017761E0,3.749182522E-1,-1.603520010E-3,1.390480995E-1
3.886773125E0,3.339903057E-1,-7.124210149E-2,1.103374511E-1
3.891528490E0,2.796233594E-1,-9.689842910E-2,7.490729541E-2
3.896283854E0,2.234237939E-1,-9.873101860E-2,2.848157100E-2
3.901039271E0,1.708894223E-1,-9.934188426E-2,-2.649625950E-2
3.905794636E0,1.293506175E-1,-1.078939885E-1,-8.880446851E-2
3.910550000E0,1.012508348E-1,-1.231656075E-1,-1.559995860E-1
3.915305365E0,8.231402934E-2,-1.353829056E-1,-2.219729871E-1
3.920060729E0,6.826414168E-2,-1.329394430E-1,-2.800051570E-1
3.924816094E0,4.932733253E-2,-9.873101860E-2,-3.221548200E-1
3.929571458E0,2.611446939E-2,-2.787070535E-2,-3.478111327E-1
3.934326823E0,3.512472380E-3,7.231111825E-2,-3.588066995E-1
3.939082188E0,-8.093958721E-3,1.828776449E-1,-3.618610203E-1
3.943837552E0,-1.374445739E-3,2.806160152E-1,-3.685805500E-1
3.948592917E0,1.939495653E-2,3.508654535E-1,-3.856847584E-1
3.953348281E0,4.444041103E-2,3.862956166E-1,-4.192823172E-1
3.958103646E0,6.337722391E-2,3.869064748E-1,-4.675406218E-1
3.962859063E0,7.009673119E-2,3.569740951E-1,-5.261836648E-1
3.967614427E0,6.643154472E-2,2.946659029E-1,-5.860484242E-1
3.972369792E0,6.154462695E-2,1.963166744E-1,-6.459131241E-1
3.977125156E0,6.215549260E-2,7.108938694E-2,-6.996692419E-1
3.981880521E0,7.803797722E-2,-6.085740402E-2,-7.424297929E-1
3.986635886E0,1.122464016E-1,-1.763108522E-1,-7.729730010E-1
3.991391250E0,1.635590494E-1,-2.532798052E-1,-7.851903439E-1
3.996146615E0,2.179260105E-1,-2.777144015E-1,-7.778599262E-1
4.000901979E0,2.619082630E-1,-2.526689470E-1,-7.503710389E-1
4.005657344E0,2.857320011E-1,-1.940259188E-1,-7.057778835E-1
4.010412708E0,2.875646055E-1,-1.298851222E-1,-6.544652581E-1
4.015168073E0,2.777907550E-1,-8.834631741E-2,-6.092612743E-1
4.019923438E0,2.606865466E-1,-8.590286225E-2,-5.787180066E-1
4.024678854E0,2.441931963E-1,-1.249982044E-1,-5.689441562E-1
4.029434167E0,2.301433086E-1,-1.915824711E-1,-5.756636858E-1
4.034189583E0,2.191477418E-1,-2.661079764E-1,-5.921570659E-1
4.038944948E0,2.050978541E-1,-3.357465565E-1,-6.147590280E-1
4.043700313E0,1.843284518E-1,-3.974438906E-1,-6.373610497E-1
4.048455677E0,1.702785641E-1,-4.658607543E-1,-6.569086909E-1
4.053211042E0,1.769980639E-1,-5.605447888E-1,-6.734020710E-1
4.057966406E0,2.093739063E-1,-6.637809277E-1,-6.825650334E-1
4.062721771E0,2.582430840E-1,-7.395281792E-1,-6.874519587E-1
4.067477136E0,3.181078434E-1,-7.602975965E-1,-6.868410707E-1
4.072232500E0,3.730856776E-1,-7.120392323E-1,-6.752346754E-1
4.076987865E0,4.097375572E-1,-6.033053398E-1,-6.459131241E-1
4.081743229E0,4.170679152E-1,-4.683042169E-1,-5.866592526E-1
4.086498594E0,4.017963111E-1,-3.522399068E-1,-4.956403971E-1
4.091253958E0,3.785834610E-1,-2.905425727E-1,-3.795761168E-1
4.096009323E0,3.608683646E-1,-2.905425727E-1,-2.506836355E-1
4.100764740E0,3.584249020E-1,-3.522399068E-1,-1.193477064E-1
4.105520104E0,3.718639314E-1,-4.689150751E-1,-8.399390499E-4
4.110275469E0,3.908007443E-1,-6.033053398E-1,8.895718306E-2
4.115030833E0,4.005745649E-1,-7.022654414E-1,1.390480995E-1
4.119786198E0,3.834703565E-1,-7.230347991E-1,1.463784724E-1
4.124541563E0,3.425424397E-1,-6.515636444E-1,1.249982044E-1
4.129296927E0,2.948949635E-1,-5.177842379E-1,9.689842910E-2
4.134052292E0,2.643517256E-1,-3.827831447E-1,7.796161622E-2
4.138807656E0,2.625191510E-1,-2.972620726E-1,7.857248187E-2
4.143563021E0,2.820668221E-1,-2.709949017E-1,9.323323518E-2
4.148318386E0,3.113883138E-1,-2.990946770E-1,1.188895553E-1
4.153073750E0,3.352120519E-1,-3.778962195E-1,1.506545246E-1
4.157829115E0,3.492619395E-1,-4.915170670E-1,1.836412251E-1
4.162584479E0,3.565923274E-1,-6.100248694E-1,2.147953212E-1
4.167339844E0,3.608683646E-1,-7.004328370E-1,2.441168427E-1
4.172095208E0,3.627009690E-1,-7.450259328E-1,2.728274763E-1
4.176850625E0,3.627009690E-1,-7.297543287E-1,3.033707142E-1
4.181605990E0,3.627009690E-1,-6.607266068E-1,3.381900191E-1
4.186361354E0,3.614792228E-1,-5.715403557E-1,3.760636151E-1
4.191116719E0,3.614792228E-1,-4.945713878E-1,4.096612036E-1
4.195872083E0,3.681987524E-1,-4.481456876E-1,4.359283745E-1
4.200627448E0,3.865246773E-1,-4.340957701E-1,4.554760456E-1
4.205382813E0,4.170679152E-1,-4.420370162E-1,4.676933587E-1
4.210138177E0,4.567741454E-1,-4.676933587E-1,4.756345749E-1
4.214893542E0,4.934260249E-1,-5.208385587E-1,4.823541045E-1
4.219648906E0,5.251910090E-1,-5.825359225E-1,4.835758209E-1
4.224404271E0,5.539016128E-1,-6.375137568E-1,4.780780375E-1
4.229159636E0,5.838339925E-1,-6.845503449E-1,4.640281498E-1
4.233915000E0,6.119337678E-1,-7.285326123E-1,4.402044415E-1
4.238670365E0,6.357575059E-1,-7.761800885E-1,4.072177410E-1
4.243425729E0,6.534726024E-1,-8.336013556E-1,3.675115108E-1
4.248181094E0,6.650790572E-1,-9.014073610E-1,3.229183853E-1
4.252936458E0,6.632464528E-1,-9.673807621E-1,2.826013267E-1
4.257691875E0,6.436987519E-1,-1.013806462E0,2.526689470E-1
4.262447240E0,6.076577306E-1,-1.033964992E0,2.386190593E-1
4.267202604E0,5.606211424E-1,-1.027245522E0,2.471711636E-1
4.271957969E0,5.068650246E-1,-1.009530425E0,2.771035433E-1
4.276713333E0,4.567741454E-1,-9.924262166E-1,3.216966689E-1
4.281468698E0,4.146244824E-1,-9.924262166E-1,3.723984361E-1
4.286224063E0,3.840812445E-1,-1.008308649E0,4.200458825E-1
4.290979427E0,3.657552898E-1,-1.040073633E0,4.579195082E-1
4.295734792E0,3.547597229E-1,-1.102381825E0,4.860192835E-1
4.300490156E0,3.480401933E-1,-1.181183457E0,4.994583130E-1
4.305245521E0,3.468184769E-1,-1.256930590E0,4.970148504E-1
4.310000886E0,3.541488647E-1,-1.318627954E0,4.817432463E-1
4.314756250E0,3.688096106E-1,-1.361388564E0,4.573086500E-1
4.319511615E0,3.871355653E-1,-1.384601355E0,4.292088747E-1
4.324266979E0,4.054614902E-1,-1.392542601E0,4.023308158E-1
4.329022344E0,4.225656986E-1,-1.382768750E0,3.754527569E-1
4.333777708E0,4.378373325E-1,-1.363831997E0,3.497964442E-1
4.338533073E0,4.543306828E-1,-1.342451692E0,3.235292733E-1
4.343288438E0,4.714348912E-1,-1.333899617E0,2.935968935E-1
4.348043854E0,4.885390997E-1,-1.354668975E0,2.581667304E-1
4.352799219E0,5.062541962E-1,-1.413922906E0,2.178496569E-1
4.357554583E0,5.227475166E-1,-1.502498269E0,1.744782478E-1
4.362309948E0,5.380191803E-1,-1.600847483E0,1.317177117E-1
4.367065313E0,5.502364635E-1,-1.683925152E0,9.445496649E-2
4.371820677E0,5.612320304E-1,-1.728518248E0,6.574432552E-2
4.376576042E0,5.661189556E-1,-1.727907419E0,5.230529606E-2
4.381331406E0,5.557342172E-1,-1.694309831E0,5.658135191E-2
4.386086771E0,5.264127254E-1,-1.658879638E0,7.002037764E-2
4.390842136E0,4.793761373E-1,-1.641164541E0,8.956804872E-2
4.395597500E0,4.158461988E-1,-1.647884130E0,1.121700481E-1
4.400352865E0,3.431532979E-1,-1.664988279E0,1.378263682E-1
4.405108229E0,2.735147178E-1,-1.668042660E0,1.634826809E-1
4.409863594E0,2.179260105E-1,-1.635666847E0,1.811977625E-1
4.414618958E0,1.831067204E-1,-1.555643559E0,1.836412251E-1
4.419374323E0,1.721111536E-1,-1.427972794E0,1.763108522E-1
4.424129688E0,1.861610413E-1,-1.259984970E0,1.647044122E-1
4.428885052E0,2.160934210E-1,-1.064508200E0,1.579848975E-1
4.433640417E0,2.533561587E-1,-8.665880561E-1,1.537088454E-1
4.438395781E0,2.887863219E-1,-6.937133074E-1,1.506545246E-1
4.443151146E0,3.156643808E-1,-5.684860349E-1,1.414915472E-1
4.447906511E0,3.315468729E-1,-5.037343502E-1,1.140026376E-1
4.452661875E0,3.382663727E-1,-5.098429918E-1,6.452259421E-2
4.457417292E0,3.468184769E-1,-5.654317141E-1,-5.115992390E-3
4.462172656E0,3.614792228E-1,-6.466767192E-1,-9.002619982E-2
4.466928021E0,3.816377819E-1,-7.352521420E-1,-1.804341823E-1
4.471683386E0,4.017963111E-1,-8.152754307E-1,-2.665661275E-1
4.476438750E0,4.170679152E-1,-8.800270557E-1,-3.380373120E-1
4.481194115E0,4.213439822E-1,-9.270636439E-1,-3.917934000E-1
4.485949479E0,4.134027362E-1,-9.533308744E-1,-4.247801006E-1
4.490704844E0,3.932442069E-1,-9.618829489E-1,-4.345539212E-1
4.495460208E0,3.675878942E-1,-9.527199864E-1,-4.223366380E-1
4.500215573E0,3.413206935E-1,-9.215658903E-1,-3.869064748E-1
4.504970938E0,3.126100600E-1,-8.617011309E-1,-3.276526034E-1
4.509726302E0,2.826776803E-1,-7.670170665E-1,-2.451858521E-1
4.514481667E0,2.539670467E-1,-6.466767192E-1,-1.572213173E-1
4.519237031E0,2.276998460E-1,-5.226711631E-1,-8.575014025E-2
4.523992396E0,2.087630332E-1,-4.090503156E-1,-4.543306679E-2
4.528747761E0,2.050978541E-1,-3.198640645E-1,-2.955058403E-2
4.533503125E0,2.185368687E-1,-2.685514390E-1,-2.466366626E-2
4.538258490E0,2.509126961E-1,-2.538906634E-1,-1.977674663E-2
4.543013854E0,2.985601723E-1,-2.636645138E-1,-1.122464053E-2
4.547769219E0,3.535379767E-1,-2.838230431E-1,-2.290742996E-4
4.552524583E0,4.091266990E-1,-2.978729308E-1,8.933897130E-3
4.557279948E0,4.604393244E-1,-3.009272516E-1,1.137735695E-2
4.562035313E0,5.031998754E-1,-3.003163934E-1,1.603520010E-3
4.566790677E0,5.398517251E-1,-3.009272516E-1,-1.855501719E-2
4.571546042E0,5.691732764E-1,-3.015381396E-1,-4.726566374E-2
4.576301406E0,5.911644101E-1,-2.929860055E-1,-7.536543906E-2
4.581056771E0,6.039925218E-1,-2.709949017E-1,-9.980003536E-2
4.585812188E0,6.046034098E-1,-2.300669402E-1,-1.169042438E-1
4.590567500E0,5.948295593E-1,-1.781434417E-1,-1.291215420E-1
4.595322917E0,5.752819180E-1,-1.195004210E-1,-1.395062506E-1
4.600078281E0,5.484038591E-1,-6.146826968E-2,-1.474474818E-1
4.604833646E0,5.239692926E-1,-8.933897130E-3,-1.511126757E-1
4.609589011E0,5.031998754E-1,3.443750367E-2,-1.529452652E-1
4.614344375E0,4.940368831E-1,6.436987966E-2,-1.547778696E-1
4.619099740E0,4.952586293E-1,7.597630471E-2,-1.566104591E-1
4.623855104E0,5.099193454E-1,7.597630471E-2,-1.584430486E-1
4.628610469E0,5.306887627E-1,7.353284955E-2,-1.602756530E-1
4.633365833E0,5.490147471E-1,7.719803602E-2,-1.590539217E-1
4.638121198E0,5.587885380E-1,8.697187155E-2,-1.578321904E-1
4.642876563E0,5.606211424E-1,9.369138628E-2,-1.596647799E-1
4.647631927E0,5.593994260E-1,8.880446851E-2,-1.657734364E-1
4.652387292E0,5.575668216E-1,7.292198390E-2,-1.804341823E-1
4.657142656E0,5.551233888E-1,6.131555140E-2,-2.005927265E-1
4.661898021E0,5.459604263E-1,6.681333482E-2,-2.231947184E-1
4.666653386E0,5.282453299E-1,8.941533417E-2,-2.506836355E-1
4.671408750E0,4.977020919E-1,1.199585721E-1,-2.818377316E-1
4.676164115E0,4.592176080E-1,1.358410567E-1,-3.148244321E-1
4.680919479E0,4.164570570E-1,1.260672212E-1,-3.484219909E-1
4.685674844E0,3.791943192E-1,9.246965498E-2,-3.832412958E-1
4.690430208E0,3.504836559E-1,4.115701467E-2,-4.143953919E-1
4.695185573E0,3.321577311E-1,-1.504254527E-2,-4.400517046E-1
4.699940938E0,3.248273432E-1,-6.452259421E-2,-4.595993757E-1
4.704696302E0,3.205513060E-1,-1.005636156E-1,-4.724275470E-1
4.709451667E0,3.174969554E-1,-1.249982044E-1,-4.785361886E-1
4.714207031E0,3.193295598E-1,-1.402698308E-1,-4.803687930E-1
4.718962396E0,3.266599476E-1,-1.555414498E-1,-4.724275470E-1
4.723717761E0,3.400989771E-1,-1.818086356E-1,-4.571559429E-1
4.728473125E0,3.608683646E-1,-2.160170525E-1,-4.351648092E-1
4.733228490E0,3.889681399E-1,-2.447277009E-1,-4.107302129E-1
4.737983854E0,4.170679152E-1,-2.587775886E-1,-3.844630122E-1
4.742739219E0,4.427242577E-1,-2.557232678E-1,-3.624718785E-1
4.747494583E0,4.622719288E-1,-2.398407906E-1,-3.423133492E-1
4.752249948E0,4.763218164E-1,-2.202931046E-1,-3.258199990E-1
4.757005313E0,4.854847789E-1,-2.068540901E-1,-3.136027157E-1
4.761760677E0,4.891499579E-1,-1.964693815E-1,-3.044397235E-1
4.766516042E0,4.854847789E-1,-1.860846877E-1,-2.983310819E-1
4.771271406E0,4.726566374E-1,-1.695913374E-1,-2.989419401E-1
4.776026771E0,4.506655037E-1,-1.494327933E-1,-3.074940443E-1
4.780782136E0,4.231765866E-1,-1.292742640E-1,-3.209330738E-1
4.785537500E0,3.938550651E-1,-1.127809063E-1,-3.417024910E-1
4.790292917E0,3.663661480E-1,-1.066722646E-1,-3.649153411E-1
4.795048281E0,3.388772309E-1,-1.042288020E-1,-3.911825418E-1
4.799803646E0,3.126100600E-1,-1.005636156E-1,-4.162279963E-1
4.804559011E0,2.875646055E-1,-9.323323518E-2,-4.363865256E-1
4.809314375E0,2.606865466E-1,-8.223766834E-2,-4.534907341E-1
4.814069740E0,2.307541668E-1,-6.330086291E-2,-4.663189054E-1
4.818825104E0,1.953240186E-1,-3.031416424E-2,-4.797579348E-1
4.823580469E0,1.556178033E-1,1.550069358E-2,-4.956403971E-1
4.828335833E0,1.171333194E-1,6.375901401E-2,-5.084685683E-1
4.833091198E0,8.414662629E-2,1.065195426E-1,-5.170207024E-1
4.837846563E0,6.093376130E-2,1.401171088E-1,-5.194641352E-1
4.842601927E0,4.016435891E-2,1.694386154E-1,-5.121337771E-1
4.847357292E0,1.817322709E-2,2.018144578E-1,-4.944186807E-1
4.852112656E0,-1.175914705E-2,2.445749789E-1,-4.736492932E-1
4.856868021E0,-4.718930274E-2,3.007745445E-1,-4.553233385E-1
4.861623386E0,-7.834340632E-2,3.685805500E-1,-4.412734509E-1
4.866378750E0,-1.021671370E-1,4.449386299E-1,-4.327213466E-1
4.871134115E0,-1.174387559E-1,5.304597020E-1,-4.296670258E-1
4.875889479E0,-1.320995092E-1,6.172025204E-1,-4.308887422E-1
4.880644844E0,-1.485928595E-1,6.953932047E-1,-4.363865256E-1
4.885400208E0,-1.675296724E-1,7.558687925E-1,-4.437169135E-1
4.890155573E0,-1.858556122E-1,7.955750227E-1,-4.522690177E-1
4.894910938E0,-2.023489624E-1,8.193987608E-1,-4.577668011E-1
4.899666302E0,-2.176205814E-1,8.279508352E-1,-4.595993757E-1
4.904421667E0,-2.322813272E-1,8.310051560E-1,-4.559341967E-1
4.909177031E0,-2.463312149E-1,8.352812529E-1,-4.504364133E-1
4.913932396E0,-2.536616027E-1,8.365029693E-1,-4.443277717E-1
4.918687761E0,-2.518289983E-1,8.273400068E-1,-4.376082420E-1
4.923443125E0,-2.365573794E-1,8.090140224E-1,-4.351648092E-1
4.928198490E0,-2.163988501E-1,7.858011723E-1,-4.345539212E-1
4.932953854E0,-2.005163580E-1,7.693078518E-1,-4.388299882E-1
4.937709219E0,-1.925751269E-1,7.650317550E-1,-4.467712343E-1
4.942464583E0,-1.950185746E-1,7.699186802E-1,-4.595993757E-1
4.947219948E0,-2.023489624E-1,7.796925306E-1,-4.754818678E-1
4.951975313E0,-2.109010667E-1,7.912989855E-1,-4.931969643E-1
4.956730677E0,-2.212857604E-1,8.041270971E-1,-5.084685683E-1
4.961486042E0,-2.310595959E-1,8.200095892E-1,-5.182424188E-1
4.966241406E0,-2.432768941E-1,8.328377604E-1,-5.200750232E-1
4.970996771E0,-2.603811026E-1,8.291725516E-1,-5.157989264E-1
4.975752136E0,-2.848156989E-1,7.931315303E-1,-5.060251355E-1
4.980507500E0,-3.153589368E-1,7.192169428E-1,-4.883100390E-1
4.985262865E0,-3.483456373E-1,6.190351248E-1,-4.626537263E-1
4.990018229E0,-3.721693754E-1,5.292379856E-1,-4.394408464E-1
4.994773594E0,-3.843866587E-1,4.748710096E-1,-4.168388546E-1
4.999528958E0,-3.923279047E-1,4.492146969E-1,-3.936260045E-1
5.004284323E0,-4.045451880E-1,4.431060255E-1,-3.740783334E-1
5.009039688E0,-4.210385382E-1,4.424951673E-1,-3.594175577E-1
5.013795052E0,-4.442514181E-1,4.479929507E-1,-3.508654535E-1
5.018550417E0,-4.637990892E-1,4.638754427E-1,-3.508654535E-1
5.023305781E0,-4.754055142E-1,4.748710096E-1,-3.533089161E-1
5.028061146E0,-4.754055142E-1,4.693732262E-1,-3.508654535E-1
5.032816511E0,-4.686860144E-1,4.553233385E-1,-3.478111327E-1
5.037571875E0,-4.619664848E-1,4.412734509E-1,-3.465894163E-1
5.042327240E0,-4.601338804E-1,4.376082420E-1,-3.539197743E-1
5.047082604E0,-4.607447684E-1,4.528798759E-1,-3.716348708E-1
5.051837969E0,-4.595230222E-1,4.840339720E-1,-3.985128999E-1
5.056593333E0,-4.534143806E-1,5.182424188E-1,-4.302778840E-1
5.061348698E0,-4.405862093E-1,5.475639105E-1,-4.638754427E-1
5.066104063E0,-4.210385382E-1,5.652790070E-1,-4.993056059E-1
5.070859427E0,-4.002691507E-1,5.707767606E-1,-5.335140228E-1
5.075614792E0,-3.746128380E-1,5.726093650E-1,-5.707767606E-1
5.080370156E0,-3.556760252E-1,5.677224398E-1,-6.007091403E-1
5.085125521E0,-3.501782417E-1,5.426769853E-1,-6.245328784E-1
5.089880886E0,-3.562868834E-1,5.145772099E-1,-6.422479749E-1
5.094636250E0,-3.691150546E-1,4.889208972E-1,-6.544652581E-1
5.099391615E0,-3.831649423E-1,4.504364133E-1,-6.495783329E-1
5.104146979E0,-3.892735839E-1,3.728565872E-1,-6.281980872E-1
5.108902344E0,-3.941605091E-1,2.952767611E-1,-5.970439911E-1
5.113657708E0,-4.039343297E-1,2.561814189E-1,-5.597811937E-1
5.118413073E0,-4.173733592E-1,2.433532625E-1,-5.170207024E-1
5.123168438E0,-4.314232469E-1,2.488510460E-1,-4.742601514E-1
5.127923802E0,-4.418079555E-1,2.616792023E-1,-4.351648092E-1
5.132679167E0,-4.448622763E-1,2.763399482E-1,-3.997346461E-1
5.137434531E0,-4.424188137E-1,2.964984775E-1,-3.704131246E-1
5.142189896E0,-4.326449931E-1,3.258199990E-1,-3.447568119E-1
5.146945261E0,-4.247037470E-1,3.368155658E-1,-3.270417452E-1
5.151700625E0,-4.192059636E-1,3.349829614E-1,-3.178787529E-1
5.156455990E0,-4.118755758E-1,3.349829614E-1,-3.191004992E-1
5.161211354E0,-4.051560760E-1,3.325395286E-1,-3.313177824E-1
5.165966719E0,-4.021017551E-1,3.221548200E-1,-3.459785283E-1
5.170722083E0,-4.082103968E-1,3.148244321E-1,-3.600284159E-1
5.175477396E0,-4.326449931E-1,2.989419401E-1,-3.734674454E-1
5.180232813E0,-4.766272306E-1,2.586248815E-1,-3.869064748E-1
5.184988125E0,-5.285507441E-1,2.189186662E-1,-4.058432877E-1
5.189743490E0,-5.902481079E-1,2.451858521E-1,-4.363865256E-1
5.194498854E0,-6.525563002E-1,3.123809695E-1,-4.773144722E-1
5.199254219E0,-6.983711720E-1,3.655261993E-1,-5.164098144E-1
5.204009583E0,-7.252492309E-1,3.850739002E-1,-5.536725521E-1
5.208764948E0,-7.356339097E-1,3.826304376E-1,-5.829941034E-1
5.213520313E0,-7.283035517E-1,3.728565872E-1,-6.043743491E-1
5.218275677E0,-6.983711720E-1,3.661370873E-1,-6.135373116E-1
5.223031042E0,-6.464476585E-1,3.661370873E-1,-6.068177819E-1
5.227786406E0,-5.798633695E-1,3.759109080E-1,-5.829941034E-1
5.232541771E0,-5.114465356E-1,3.930151165E-1,-5.457313061E-1
5.237297136E0,-4.552469850E-1,4.046215713E-1,-4.974730015E-1
5.242052500E0,-4.198168218E-1,4.070650041E-1,-4.455494881E-1
5.246807865E0,-4.100429714E-1,3.997346461E-1,-3.991237879E-1
5.251563229E0,-4.265363216E-1,3.734674454E-1,-3.716348708E-1
5.256318594E0,-4.686860144E-1,3.349829614E-1,-3.691914082E-1
5.261073958E0,-5.230529904E-1,2.995528281E-1,-3.911825418E-1
5.265829323E0,-5.749764442E-1,2.751182318E-1,-4.308887422E-1
5.270584688E0,-6.110175252E-1,2.592357397E-1,-4.809796512E-1
5.275340052E0,-6.275108457E-1,2.531270981E-1,-5.335140228E-1
5.280095417E0,-6.317868829E-1,2.415206581E-1,-5.854375362E-1
5.284850781E0,-6.287325621E-1,2.109774202E-1,-6.398044825E-1
5.289606146E0,-6.232348084E-1,1.773798615E-1,-6.905062795E-1
5.294361511E0,-6.159043908E-1,1.364519149E-1,-7.387645841E-1
5.299116875E0,-6.055197120E-1,9.308052063E-2,-7.864120603E-1
5.303872240E0,-5.884155035E-1,6.314814836E-2,-8.328377604E-1
5.308627604E0,-5.676460862E-1,4.482220486E-2,-8.676570654E-1
5.313382969E0,-5.462658405E-1,4.298960790E-2,-8.884264827E-1
5.318138333E0,-5.212203860E-1,7.231111825E-2,-8.872047067E-1
5.322893698E0,-4.906771481E-1,1.254563481E-1,-8.615484238E-1
5.327649063E0,-4.552469850E-1,1.957058012E-1,-7.998510599E-1
5.332404427E0,-4.179842174E-1,2.708421648E-1,-6.990583539E-1
5.337159792E0,-3.856084049E-1,3.410916328E-1,-5.726093650E-1
5.341915156E0,-3.611738086E-1,4.040106833E-1,-4.351648092E-1
5.346670521E0,-3.446804583E-1,4.577668011E-1,-2.989419401E-1
5.351425886E0,-3.355174661E-1,4.950295389E-1,-1.731038094E-1
5.356181250E0,-3.355174661E-1,5.060251355E-1,-6.498073786E-2
5.360936615E0,-3.428478539E-1,4.870882928E-1,1.443168055E-2
5.365691979E0,-3.581194878E-1,4.693732262E-1,5.597048625E-2
5.370447292E0,-3.770562708E-1,4.797579348E-1,4.802924395E-2
5.375202656E0,-3.904953003E-1,5.384009480E-1,-1.244636998E-2
5.379958021E0,-3.898844421E-1,6.294198036E-1,-1.199585721E-1
5.384713386E0,-3.715584874E-1,7.283799052E-1,-2.512944937E-1
5.389468750E0,-3.367392123E-1,8.151226640E-1,-3.869064748E-1
5.394224115E0,-2.884808779E-1,8.627701402E-1,-5.127446055E-1
5.398979479E0,-2.249509543E-1,8.389464021E-1,-6.172025204E-1
5.403734844E0,-1.632536054E-1,8.151226640E-1,-7.002801299E-1
5.408490208E0,-1.113301069E-1,8.224530816E-1,-7.638100386E-1
5.413245573E0,-6.490438432E-2,8.346703649E-1,-8.169552684E-1
5.418000938E0,-2.825249545E-2,8.352812529E-1,-8.597158194E-1
5.422756302E0,-3.817904973E-3,8.145118356E-1,-8.902590871E-1
5.427511667E0,7.177661173E-3,7.790816426E-1,-9.067524076E-1
5.432267031E0,2.901607659E-3,7.326559424E-1,-9.091958404E-1
5.437022396E0,-1.420260593E-2,6.782889962E-1,-8.963677287E-1
5.441777761E0,-4.108065739E-2,6.165916324E-1,-8.682679534E-1
5.446533125E0,-7.101303339E-2,5.481747985E-1,-8.242856860E-1
5.451288490E0,-9.789107740E-2,4.760927260E-1,-7.668643594E-1
5.456043854E0,-1.156061590E-1,4.088976085E-1,-6.972258091E-1
5.460799219E0,-1.211039424E-1,3.594175577E-1,-6.214785576E-1
5.465554583E0,-1.162170246E-1,3.264308572E-1,-5.469530225E-1
5.470309948E0,-1.009454057E-1,3.013854027E-1,-4.840339720E-1
5.475065313E0,-7.956513762E-2,2.769508064E-1,-4.345539212E-1
5.479820677E0,-5.451968312E-2,2.567922771E-1,-4.052324295E-1
5.484576042E0,-2.641990222E-2,2.372446060E-1,-3.942368627E-1
5.489331406E0,4.581485991E-4,2.195295244E-1,-3.985128999E-1
5.494086719E0,2.611446939E-2,2.079230994E-1,-4.070650041E-1
5.498842083E0,5.054906011E-2,2.005927265E-1,-4.192823172E-1
5.503597448E0,7.131846249E-2,2.012035847E-1,-4.376082420E-1
5.508352813E0,9.025526792E-2,2.085339576E-1,-4.626537263E-1
5.513108177E0,1.055268943E-1,2.164752036E-1,-4.968621433E-1
5.517863542E0,1.134681329E-1,2.244164497E-1,-5.402335525E-1
5.522618906E0,1.116355360E-1,2.286925018E-1,-5.805506110E-1
5.527374271E0,9.880737960E-2,2.323576957E-1,-6.172025204E-1
5.532129636E0,7.498364896E-2,2.366337478E-1,-6.483566165E-1
5.536885000E0,4.260781780E-2,2.341902852E-1,-6.788998246E-1
5.541640365E0,2.901607659E-3,2.280816436E-1,-7.094430923E-1
5.546395729E0,-3.558287397E-2,2.164752036E-1,-7.369319797E-1
5.551151094E0,-6.795870513E-2,2.024253160E-1,-7.589231133E-1
5.555906458E0,-8.933897316E-2,1.847102344E-1,-7.735838890E-1
5.560661823E0,-9.850194305E-2,1.590539217E-1,-7.778599262E-1
5.565417188E0,-9.972367436E-2,1.315650046E-1,-7.735838890E-1
5.570172552E0,-9.666935354E-2,1.004109010E-1,-7.631992102E-1
5.574927865E0,-9.300415963E-2,6.803506613E-2,-7.491493225E-1
5.579683229E0,-9.056070447E-2,3.138317913E-2,-7.357102633E-1
5.584438594E0,-9.239330143E-2,-3.436114406E-3,-7.253255844E-1
5.589193958E0,-1.009454057E-1,-3.825540841E-2,-7.186060548E-1
5.593949323E0,-1.168278903E-1,-6.879864633E-2,-7.167734504E-1
5.598704688E0,-1.388190240E-1,-8.284853399E-2,-7.210494876E-1
5.603460052E0,-1.669187993E-1,-7.307469845E-2,-7.289907336E-1
5.608215417E0,-1.999054998E-1,-3.092502989E-2,-7.412080765E-1
5.612970781E0,-2.353356630E-1,3.993528336E-2,-7.552579641E-1
5.617726146E0,-2.719875574E-1,1.346193254E-1,-7.686969638E-1
5.622481511E0,-3.104720116E-1,2.384663373E-1,-7.809142470E-1
5.627236875E0,-3.483456373E-1,3.392590284E-1,-7.925207019E-1
5.631992240E0,-3.837758005E-1,4.168388546E-1,-8.059597015E-1
5.636747604E0,-4.155407548E-1,4.595993757E-1,-8.181769848E-1
5.641502969E0,-4.381427765E-1,4.736492932E-1,-8.346703649E-1
5.646258333E0,-4.540252388E-1,4.602102637E-1,-8.481093645E-1
5.651013698E0,-4.595230222E-1,4.296670258E-1,-8.554397821E-1
5.655769063E0,-4.564687014E-1,3.856847584E-1,-8.542180657E-1
5.660524375E0,-4.491383433E-1,3.423133492E-1,-8.511636853E-1
5.665279792E0,-4.430296719E-1,3.087157905E-1,-8.481093645E-1
5.670035104E0,-4.399753511E-1,2.842811942E-1,-8.450550437E-1
5.674790469E0,-4.473057389E-1,2.702313066E-1,-8.365029693E-1
5.679545833E0,-4.619664848E-1,2.714530230E-1,-8.334486485E-1
5.684301198E0,-4.857902229E-1,2.848920524E-1,-8.297834396E-1
5.689056563E0,-5.175551772E-1,2.928332984E-1,-8.291725516E-1
5.693811927E0,-5.517635942E-1,2.952767611E-1,-8.279508352E-1
5.698567292E0,-5.865828991E-1,2.848920524E-1,-8.279508352E-1
5.703322656E0,-6.152935624E-1,2.549596727E-1,-8.267291188E-1
5.708078021E0,-6.372846961E-1,2.115882933E-1,-8.291725516E-1
5.712833386E0,-6.543889046E-1,1.584430486E-1,-8.310051560E-1
5.717588750E0,-6.708822250E-1,1.016326249E-1,-8.310051560E-1
5.722344115E0,-6.873756051E-1,5.215258151E-2,-8.322269320E-1
5.727099479E0,-7.026472092E-1,1.550069358E-2,-8.310051560E-1
5.731854844E0,-7.203623056E-1,-1.603520010E-3,-8.267291188E-1
5.736610156E0,-7.423534393E-1,-8.933897130E-3,-8.157335520E-1
5.741365521E0,-7.704532146E-1,-1.870773360E-2,-7.955750227E-1
5.746120886E0,-8.003855944E-1,-3.214675933E-2,-7.754164934E-1
5.750876250E0,-8.290961981E-1,-5.230529606E-2,-7.570905089E-1
5.755631615E0,-8.516982198E-1,-7.979421318E-2,-7.424297929E-1
5.760386979E0,-8.651372194E-1,-1.042288020E-1,-7.393754721E-1
5.765142344E0,-8.681915402E-1,-1.164461002E-1,-7.448732257E-1
5.769897708E0,-8.633046746E-1,-1.115591824E-1,-7.515927553E-1
5.774653073E0,-8.565851450E-1,-9.689842910E-2,-7.503710389E-1
5.779408438E0,-8.492547870E-1,-7.429642975E-2,-7.357102633E-1
5.784163802E0,-8.407026529E-1,-5.780307949E-2,-7.063887715E-1
5.788919167E0,-8.345940113E-1,-5.963567272E-2,-6.648499370E-1
5.793674531E0,-8.272636533E-1,-7.857248187E-2,-6.135373116E-1
5.798429896E0,-8.181006312E-1,-9.506583214E-2,-5.665007234E-1
5.803185261E0,-8.132137656E-1,-1.152243689E-1,-5.231293440E-1
5.807940573E0,-8.272636533E-1,-1.457676142E-1,-4.650971591E-1
5.812695938E0,-8.486438990E-1,-1.714239269E-1,-4.046215713E-1
5.817451302E0,-8.804088831E-1,-1.854738146E-1,-3.588066995E-1
5.822206667E0,-9.176716208E-1,-1.763108522E-1,-3.349829614E-1
5.826962031E0,-9.494366050E-1,-1.213330179E-1,-3.331503868E-1
5.831717396E0,-9.689842463E-1,-2.848157100E-2,-3.490328491E-1
5.836472761E0,-9.726494551E-1,8.147408813E-2,-3.850739002E-1
5.841228125E0,-9.543235302E-1,1.938732117E-1,-4.327213466E-1
5.845983490E0,-9.231693745E-1,2.952767611E-1,-4.815905094E-1
5.850738854E0,-8.791871071E-1,3.783543706E-1,-5.310705900E-1
5.855494219E0,-8.315396905E-1,4.376082420E-1,-5.781071782E-1
5.860249583E0,-7.820596099E-1,4.748710096E-1,-6.184242368E-1
5.865004948E0,-7.362447977E-1,4.883100390E-1,-6.465240121E-1
5.869760261E0,-6.965385675E-1,4.876991808E-1,-6.648499370E-1
5.874515625E0,-6.708822250E-1,4.681515098E-1,-6.734020710E-1
5.879270990E0,-6.629409790E-1,4.418843091E-1,-6.764563918E-1
5.884026354E0,-6.745474339E-1,4.168388546E-1,-6.782889962E-1
5.888781719E0,-6.995928884E-1,3.936260045E-1,-6.807324290E-1
5.893537083E0,-7.338013053E-1,3.722457290E-1,-6.898953915E-1
5.898292448E0,-7.680097222E-1,3.539197743E-1,-7.100539207E-1
5.903047813E0,-7.936660647E-1,3.362047076E-1,-7.399863005E-1
5.907803177E0,-8.089376688E-1,3.129918277E-1,-7.778599262E-1
5.912558542E0,-8.107702732E-1,2.812268734E-1,-8.187878728E-1
5.917313854E0,-7.973312736E-1,2.488510460E-1,-8.597158194E-1
5.922069271E0,-7.747292519E-1,2.183077931E-1,-8.957568407E-1
5.926824583E0,-7.435751557E-1,1.908188909E-1,-9.250783324E-1
5.931579948E0,-7.093667388E-1,1.718820781E-1,-9.489020705E-1
5.936335313E0,-6.769908667E-1,1.651625633E-1,-9.666171670E-1
5.941090677E0,-6.525563002E-1,1.724929363E-1,-9.800561666E-1
5.945846042E0,-6.348412037E-1,1.816559136E-1,-9.873865843E-1
5.950601406E0,-6.232348084E-1,1.798233241E-1,-9.831104875E-1
5.955356771E0,-6.128500700E-1,1.663842946E-1,-9.727258086E-1
5.960112136E0,-5.981893539E-1,1.425605714E-1,-9.580650330E-1
5.964867500E0,-5.768090487E-1,1.107956022E-1,-9.464586377E-1
5.969622865E0,-5.480984449E-1,7.780890167E-2,-9.348521829E-1
5.974378229E0,-5.132791400E-1,5.031998456E-2,-9.244675040E-1
5.979133542E0,-4.717403352E-1,2.893971838E-2,-9.183588624E-1
5.983888906E0,-4.338667095E-1,1.488982886E-2,-9.134719372E-1
5.988644271E0,-4.008800089E-1,5.115992390E-3,-9.104176164E-1
5.993399636E0,-3.727802336E-1,-5.879573524E-3,-9.030871987E-1
5.998155000E0,-3.513999581E-1,-2.725984156E-2,-8.951459527E-1
6.002910365E0,-3.361283541E-1,-6.513345987E-2,-8.939242363E-1
6.007665729E0,-3.281871080E-1,-1.121700481E-1,-8.994220495E-1
6.012421094E0,-3.269653618E-1,-1.616500914E-1,-9.134719372E-1
6.017176458E0,-3.251327872E-1,-2.044106275E-1,-9.324087501E-1
6.021931823E0,-3.184132576E-1,-2.453385741E-1,-9.507346749E-1
6.026687136E0,-3.104720116E-1,-2.813795805E-1,-9.489020705E-1
6.031442500E0,-2.976438701E-1,-2.893208265E-1,-9.299652576E-1
6.036197865E0,-2.732092738E-1,-2.630536556E-1,-9.067524076E-1
6.040953229E0,-2.426660359E-1,-2.221257091E-1,-8.798743486E-1
6.045708594E0,-2.170097083E-1,-1.915824711E-1,-8.426116109E-1
6.050463958E0,-1.962403059E-1,-1.708130687E-1,-8.010727763E-1
6.055219323E0,-1.846338809E-1,-1.427132785E-1,-7.644209266E-1
6.059974688E0,-1.803578287E-1,-8.162680268E-2,-7.412080765E-1
6.064730052E0,-1.791360974E-1,-1.992946304E-2,-7.155517340E-1
6.069485417E0,-1.779143661E-1,1.183550525E-2,-6.776781082E-1
6.074240781E0,-1.705839932E-1,1.794415340E-2,-6.379718781E-1
6.078996094E0,-1.589775532E-1,1.122464053E-2,-5.976548195E-1
6.083751458E0,-1.522580534E-1,-8.323032409E-3,-5.597811937E-1
6.088506823E0,-1.540906429E-1,-4.741837829E-2,-5.200750232E-1
6.093262188E0,-1.632536054E-1,-9.812015295E-2,-4.699840844E-1
6.098017552E0,-1.724165827E-1,-1.506545246E-1,-4.150062501E-1
6.102772917E0,-1.699731201E-1,-1.891390085E-1,-3.551415205E-1
6.107528281E0,-1.461493969E-1,-1.983019859E-1,-2.934441566E-1
6.112283646E0,-1.021671370E-1,-1.726456583E-1,-2.378554791E-1
6.117039011E0,-4.657844082E-2,-1.256090701E-1,-1.908188909E-1
6.121794375E0,7.788525894E-3,-7.063124329E-2,-1.535561383E-1
6.126549688E0,4.993819445E-2,-1.626427472E-2,-1.254563481E-1
6.131305052E0,7.559451461E-2,3.993528336E-2,-1.095738709E-1
6.136060417E0,8.842267841E-2,1.089630052E-1,-9.552398324E-2
6.140815781E0,9.269873053E-2,1.932623386E-1,-8.819360286E-2
6.145571146E0,9.758564830E-2,2.867246568E-1,-9.002619982E-2
6.150326511E0,1.085812151E-1,3.911825418E-1,-9.674570709E-2
6.155081875E0,1.293506175E-1,4.986947477E-1,-1.150716543E-1
6.159837240E0,1.623373181E-1,6.086503863E-1,-1.462257504E-1
6.164592552E0,2.038761228E-1,7.021127343E-1,-1.877645552E-1
6.169347917E0,2.509126961E-1,7.699186802E-1,-2.329685539E-1
6.174103281E0,3.095557392E-1,8.322269320E-1,-2.653443813E-1
6.178858646E0,3.504836559E-1,8.542180657E-1,-2.745073736E-1
6.183614011E0,3.724747896E-1,8.004619479E-1,-2.647335231E-1
6.188369375E0,3.840812445E-1,7.247146964E-1,-2.567922771E-1
6.193124740E0,3.871355653E-1,6.556869745E-1,-2.488510460E-1
6.197880104E0,3.877464235E-1,5.842158198E-1,-2.433532625E-1
6.202635469E0,3.914116025E-1,5.023599267E-1,-2.372446060E-1
6.207390833E0,3.999637067E-1,4.229474962E-1,-2.250273079E-1
6.212146146E0,4.066832364E-1,3.795761168E-1,-2.067013681E-1
6.216901511E0,4.072940946E-1,3.844630122E-1,-1.865428388E-1
6.221656875E0,3.999637067E-1,4.272235632E-1,-1.682168841E-1
6.226412240E0,3.901898861E-1,4.767036140E-1,-1.474474818E-1
6.231167604E0,3.773617148E-1,5.023599267E-1,-1.205694377E-1
6.235922969E0,3.669770062E-1,4.938078225E-1,-8.513928205E-2
6.240678333E0,3.608683646E-1,4.541015923E-1,-4.237874225E-2
6.245433698E0,3.584249020E-1,4.027889669E-1,2.214384731E-3
6.250189011E0,3.565923274E-1,3.551415205E-1,5.108356848E-2
6.254944375E0,3.504836559E-1,3.197113574E-1,1.085048541E-1
6.259699740E0,3.370446563E-1,3.068831861E-1,1.714239269E-1
6.264455104E0,3.193295598E-1,2.958876193E-1,2.343430072E-1
6.269210469E0,3.028362095E-1,2.738964856E-1,2.917642891E-1
6.273965833E0,2.875646055E-1,2.488510460E-1,3.400225937E-1
6.278721198E0,2.747364342E-1,2.274707705E-1,3.809505403E-1
6.283476563E0,2.625191510E-1,2.176969349E-1,4.176024497E-1
6.288231927E0,2.527453005E-1,2.231947184E-1,4.542543292E-1
6.292987240E0,2.423606068E-1,2.494619042E-1,4.915170670E-1
6.297742604E0,2.338084877E-1,2.989419401E-1,5.245037675E-1
6.302497969E0,2.228129357E-1,3.539197743E-1,5.556578636E-1
6.307253333E0,2.099847645E-1,3.972911835E-1,5.819250345E-1
6.312008698E0,1.953240186E-1,4.247801006E-1,6.051379442E-1
6.316764063E0,1.806632578E-1,4.357756674E-1,6.259073019E-1
6.321519427E0,1.635590494E-1,4.394408464E-1,6.436223984E-1
6.326274792E0,1.391244531E-1,4.345539212E-1,6.631700993E-1
6.331030104E0,1.085812151E-1,4.156171381E-1,6.827177405E-1
6.335785469E0,7.437278330E-2,3.893499374E-1,6.979893446E-1
6.340540833E0,3.894263133E-2,3.704131246E-1,7.095957994E-1
6.345296198E0,3.512472380E-3,3.691914082E-1,7.132610083E-1
6.350051563E0,-2.703076601E-2,3.887390792E-1,7.114284039E-1
6.354806927E0,-2.947422490E-2,4.724275470E-1,7.163153291E-1
6.359562292E0,-3.863719851E-2,5.231293440E-1,7.218130827E-1
6.364317656E0,-6.123919412E-2,4.925860763E-1,7.218130827E-1
6.369072969E0,-8.200860023E-2,4.351648092E-1,7.102066875E-1
6.373828333E0,-1.033888608E-1,4.015672207E-1,6.949350238E-1
6.378583698E0,-1.296560466E-1,3.850739002E-1,6.814960241E-1
6.383339063E0,-1.559232324E-1,3.710239828E-1,6.753873825E-1
6.388094427E0,-1.779143661E-1,3.514763117E-1,6.790525317E-1
6.392849792E0,-1.931859851E-1,3.313177824E-1,6.931024790E-1
6.397605156E0,-2.023489624E-1,3.160461783E-1,7.132610083E-1
6.402360521E0,-2.035706937E-1,3.081049323E-1,7.383064628E-1
6.407115833E0,-1.992946416E-1,3.062723279E-1,7.633519173E-1
6.411871198E0,-1.913533956E-1,3.068831861E-1,7.865647674E-1
6.416626563E0,-1.846338809E-1,3.050506115E-1,8.079450130E-1
6.421381927E0,-1.821904182E-1,2.977202237E-1,8.281035423E-1
6.426137292E0,-1.852447391E-1,2.855029404E-1,8.513164520E-1
6.430892656E0,-1.907425225E-1,2.677878439E-1,8.763619065E-1
6.435648021E0,-1.950185746E-1,2.512944937E-1,9.044616818E-1
6.440403386E0,-1.992946416E-1,2.384663373E-1,9.337831736E-1
6.445158698E0,-2.054032832E-1,2.293033600E-1,9.649372697E-1
6.449914063E0,-2.170097083E-1,2.219729871E-1,9.954805374E-1
6.454669427E0,-2.347247899E-1,2.121991515E-1,1.027856350E0
6.459424792E0,-2.524398565E-1,2.012035847E-1,1.059621334E0
6.464180156E0,-2.744309902E-1,1.963166744E-1,1.087721109E0
6.468935521E0,-2.976438701E-1,1.975383908E-1,1.112766504E0
6.473690886E0,-3.245218992E-1,2.067013681E-1,1.139033794E0
6.478446250E0,-3.489564955E-1,2.238055766E-1,1.170187831E0
6.483201563E0,-3.678933084E-1,2.506836355E-1,1.200120211E0
6.487956927E0,-3.831649423E-1,2.885572612E-1,1.223943949E0
6.492712292E0,-3.990474045E-1,3.368155658E-1,1.244102478E0
6.497467656E0,-4.167625010E-1,3.893499374E-1,1.255708933E0
6.502223021E0,-4.356993139E-1,4.388299882E-1,1.258763194E0
6.506978386E0,-4.497492015E-1,4.791470468E-1,1.254487157E0
6.511733750E0,-4.631882310E-1,5.096902847E-1,1.245324254E0
6.516489063E0,-4.772381186E-1,5.353466272E-1,1.234328628E0
6.521244427E0,-4.925097227E-1,5.622246861E-1,1.223943949E0
6.525999792E0,-5.102248192E-1,5.884918571E-1,1.214780927E0
6.530755156E0,-5.291616321E-1,6.074286699E-1,1.206839681E0
6.535510521E0,-5.450441241E-1,6.141481996E-1,1.200731039E0
6.540265886E0,-5.572614074E-1,6.104829907E-1,1.196455002E0
6.545021250E0,-5.682569742E-1,6.025417447E-1,1.193400741E0
6.549776563E0,-5.792525411E-1,5.921570659E-1,1.190957189E0
6.554531927E0,-5.884155035E-1,5.793288946E-1,1.192789793E0
6.559287292E0,-5.963567495E-1,5.646681190E-1,1.200731039E0
6.564042656E0,-6.024653912E-1,5.561160445E-1,1.212337494E0
6.568798021E0,-6.134609580E-1,5.561160445E-1,1.228219986E0
6.573553386E0,-6.268999577E-1,5.622246861E-1,1.248989344E0
6.578308750E0,-6.409498453E-1,5.719985366E-1,1.270369649E0
6.583064063E0,-6.531671882E-1,5.793288946E-1,1.299080253E0
6.587819427E0,-6.635518670E-1,5.823832154E-1,1.330234408E0
6.592574792E0,-6.714931130E-1,5.872701406E-1,1.360777617E0
6.597330156E0,-6.769908667E-1,6.019308567E-1,1.390099168E0
6.602085521E0,-6.812669635E-1,6.245328784E-1,1.414533734E0
6.606840886E0,-6.830995679E-1,6.495783329E-1,1.431027055E0
6.611596250E0,-6.861538887E-1,6.721803546E-1,1.441411853E0
6.616351563E0,-6.916516423E-1,7.015018463E-1,1.445687890E0
6.621106927E0,-7.002037764E-1,7.302125096E-1,1.443244457E0
6.625862292E0,-7.087558508E-1,7.577013969E-1,1.434692264E0
6.630617656E0,-7.160862088E-1,7.741947770E-1,1.419420719E0
6.635373021E0,-7.191405892E-1,7.748056054E-1,1.401094675E0
6.640128386E0,-7.130318880E-1,7.650317550E-1,1.380936146E0
6.644883750E0,-7.032580972E-1,7.589231133E-1,1.355890751E0
6.649639063E0,-6.947059631E-1,7.595340014E-1,1.330234408E0
6.654394427E0,-6.867647171E-1,7.662535310E-1,1.307632446E0
6.659149792E0,-6.763800383E-1,7.711403966E-1,1.288695574E0
6.663905156E0,-6.617192626E-1,7.760273218E-1,1.277700067E0
6.668660521E0,-6.427824497E-1,7.833577394E-1,1.277700067E0
6.673415886E0,-6.238456368E-1,7.931315303E-1,1.284419537E0
6.678171198E0,-6.049088240E-1,8.077923059E-1,1.298469424E0
6.682926563E0,-5.865828991E-1,8.377246857E-1,1.312519312E0
6.687681927E0,-5.707004070E-1,8.713222742E-1,1.325958371E0
6.692437292E0,-5.542070866E-1,8.920916319E-1,1.335732222E0
6.697192656E0,-5.352702737E-1,8.872047067E-1,1.337564826E0
6.701948021E0,-5.151117444E-1,8.462768197E-1,1.336343050E0
6.706703386E0,-4.900662601E-1,7.766382098E-1,1.332067013E0
6.711458698E0,-4.619664848E-1,6.941714883E-1,1.324736595E0
6.716214063E0,-4.326449931E-1,6.092612743E-1,1.318017125E0
6.720969427E0,-4.069886506E-1,5.329031348E-1,1.311297655E0
6.725724792E0,-3.874409795E-1,4.742601514E-1,1.308243275E0
6.730480156E0,-3.740019500E-1,4.351648092E-1,1.309465051E0
6.735235521E0,-3.611738086E-1,4.052324295E-1,1.312519312E0
6.739990886E0,-3.465130329E-1,3.832412958E-1,1.317406297E0
6.744746198E0,-3.275762498E-1,3.710239828E-1,1.324125767E0
6.749501563E0,-3.068068326E-1,3.661370873E-1,1.329012632E0
6.754256927E0,-2.872591615E-1,3.685805500E-1,1.333288789E0
6.759012292E0,-2.695440948E-1,3.698022664E-1,1.335732222E0
6.763767656E0,-2.561050653E-1,3.563632369E-1,1.336953878E0
6.768523021E0,-2.426660359E-1,3.270417452E-1,1.336343050E0
6.773278333E0,-2.243400961E-1,2.848920524E-1,1.333288789E0
6.778033698E0,-2.060141414E-1,2.348011434E-1,1.333288789E0
6.782789063E0,-1.913533956E-1,1.932623386E-1,1.337564826E0
6.787544427E0,-1.803578287E-1,1.657734364E-1,1.343673468E0
6.792299792E0,-1.699731201E-1,1.480583549E-1,1.350392938E0
6.797055156E0,-1.620318890E-1,1.443931609E-1,1.354058146E0
6.801810469E0,-1.553123742E-1,1.559995860E-1,1.351614714E0
6.806565833E0,-1.455385387E-1,1.706603467E-1,1.340619087E0
6.811321198E0,-1.327103674E-1,1.761581302E-1,1.319849730E0
6.816076563E0,-1.149952933E-1,1.682168841E-1,1.293582559E0
6.820831927E0,-8.994983882E-2,1.456148922E-1,1.265482783E0
6.825587292E0,-5.879573524E-2,1.120173261E-1,1.234328628E0
6.830342656E0,-2.458730713E-2,8.025235683E-2,1.206228852E0
6.835097969E0,7.788525894E-3,6.192641705E-2,1.177518249E0
6.839853333E0,3.527744114E-2,6.009382382E-2,1.152472734E0
6.844608698E0,5.238165334E-2,7.108938694E-2,1.129870772E0
6.849364063E0,5.604684353E-2,8.575014025E-2,1.108490467E0
6.854119427E0,4.993819445E-2,1.016326249E-1,1.088942885E0
6.858874792E0,3.833176568E-2,1.162933856E-1,1.066340804E0
6.863630104E0,2.428187430E-2,1.217911690E-1,1.039462805E0
6.868385469E0,1.450803876E-2,1.187368408E-1,1.008919597E0
6.873140833E0,7.177661173E-3,1.071304083E-1,9.753220081E-1
6.877896198E0,1.069013379E-3,9.063705802E-2,9.368374944E-1
6.882651563E0,-5.650499370E-3,7.841976732E-2,8.983530402E-1
6.887406927E0,-1.359174121E-2,8.391755074E-2,8.586468101E-1
6.892162240E0,-2.641990222E-2,1.132390574E-1,8.189405799E-1
6.896917604E0,-3.680460155E-2,1.706603467E-1,7.743474841E-1
6.901672969E0,-4.718930274E-2,2.519053519E-1,7.248674035E-1
6.906428333E0,-6.062832847E-2,3.410916328E-1,6.680569649E-1
6.911183698E0,-7.834340632E-2,4.137845337E-1,6.045270562E-1
6.915939063E0,-9.666935354E-2,4.449386299E-1,5.379427671E-1
6.920694375E0,-1.113301069E-1,4.229474962E-1,4.756345749E-1
6.925449740E0,-1.211039424E-1,3.453676701E-1,4.218784869E-1
6.930205104E0,-1.284343153E-1,2.238055766E-1,3.778962195E-1
6.934960469E0,-1.314886510E-1,8.025235683E-2,3.394117355E-1
6.939715833E0,-1.314886510E-1,-5.108356848E-2,2.984837890E-1
6.944471198E0,-1.290451884E-1,-1.482110620E-1,2.551124096E-1
6.949226511E0,-1.204930767E-1,-2.044106275E-1,2.080758214E-1
6.953981875E0,-1.052214578E-1,-2.270126194E-1,1.567631811E-1
6.958737240E0,-8.567378670E-2,-2.251800299E-1,1.078939885E-1
6.963492604E0,-6.856957078E-2,-2.117410004E-1,6.635518372E-2
6.968247969E0,-5.757400393E-2,-1.958585232E-1,3.520108387E-2
6.973003333E0,-5.635227636E-2,-1.769217104E-1,7.712167688E-3
6.977758646E0,-6.490438432E-2,-1.488219351E-1,-1.611155830E-2
6.982514011E0,-7.284562290E-2,-1.188895553E-1,-4.237874225E-2
6.987269375E0,-7.223475724E-2,-8.345939964E-2,-6.864593178E-2
6.992024740E0,-6.307178736E-2,-4.253146052E-2,-9.491311759E-2
6.996780104E0,-5.085449293E-2,8.399390499E-4,-1.181259751E-1
7.001535469E0,-4.474584386E-2,4.360047355E-2,-1.388953775E-1
7.006290781E0,-5.451968312E-2,7.903063297E-2,-1.572213173E-1
7.011046146E0,-7.956513762E-2,1.132390574E-1,-1.749363989E-1
7.015801511E0,-1.119409725E-1,1.468366235E-1,-1.932623386E-1
7.020556875E0,-1.388190240E-1,1.614973694E-1,-2.121991515E-1
7.025312240E0,-1.608101577E-1,1.547778696E-1,-2.329685539E-1
7.030067552E0,-1.760817766E-1,1.419496983E-1,-2.592357397E-1
7.034822917E0,-1.901316643E-1,1.278998107E-1,-2.983310819E-1
7.039578281E0,-2.060141414E-1,1.254563481E-1,-3.478111327E-1
7.044333646E0,-2.249509543E-1,1.431714296E-1,-4.088976085E-1
7.049089011E0,-2.438877672E-1,1.749363989E-1,-4.876991808E-1
7.053844375E0,-2.616028488E-1,2.164752036E-1,-5.762745738E-1
7.058599688E0,-2.732092738E-1,2.531270981E-1,-6.654608250E-1
7.063355052E0,-2.774853408E-1,2.677878439E-1,-7.448732257E-1
7.068110417E0,-2.768744528E-1,2.574031353E-1,-8.071814775E-1
7.072865781E0,-2.713766694E-1,2.213621289E-1,-8.456659317E-1
7.077621146E0,-2.616028488E-1,1.694386154E-1,-8.621592522E-1
7.082376458E0,-2.487746775E-1,1.101847365E-1,-8.658244610E-1
7.087131823E0,-2.328922004E-1,4.909825698E-2,-8.627701402E-1
7.091887188E0,-2.133445293E-1,-7.712167688E-3,-8.523854613E-1
7.096642552E0,-1.901316643E-1,-5.780307949E-2,-8.450550437E-1
7.101397917E0,-1.699731201E-1,-9.873101860E-2,-8.407790065E-1
7.106153281E0,-1.547015011E-1,-1.311068535E-1,-8.389464021E-1
7.110908594E0,-1.443168074E-1,-1.671478748E-1,-8.377246857E-1
7.115663958E0,-1.382081509E-1,-2.154061943E-1,-8.365029693E-1
7.120419323E0,-1.345429718E-1,-2.783252597E-1,-8.346703649E-1
7.125174688E0,-1.296560466E-1,-3.522399068E-1,-8.358920813E-1
7.129930052E0,-1.192713454E-1,-4.279871285E-1,-8.395572901E-1
7.134685365E0,-1.052214578E-1,-5.019017458E-1,-8.462768197E-1
7.139440729E0,-8.506292105E-2,-5.690969229E-1,-8.529962897E-1
7.144196094E0,-6.001746282E-2,-6.197986603E-1,-8.584941030E-1
7.148951458E0,-3.069595434E-2,-6.588940024E-1,-8.646027446E-1
7.153706823E0,4.581485991E-4,-6.863829494E-1,-8.701004982E-1
7.158462188E0,3.466657549E-2,-7.053197622E-1,-8.731548190E-1
7.163217500E0,7.009673119E-2,-7.150935531E-1,-8.731548190E-1
7.167972865E0,1.067486182E-1,-7.108175159E-1,-8.658244610E-1
7.172728229E0,1.440113783E-1,-6.906589866E-1,-8.542180657E-1
7.177483594E0,1.763872057E-1,-6.454550028E-1,-8.365029693E-1
7.182238958E0,2.063195854E-1,-5.776489973E-1,-8.151226640E-1
7.186994271E0,2.362519503E-1,-4.915170670E-1,-7.925207019E-1
7.191749636E0,2.680169344E-1,-3.907243907E-1,-7.674752474E-1
7.196505000E0,3.028362095E-1,-2.819904685E-1,-7.448732257E-1
7.201260365E0,3.425424397E-1,-1.714239269E-1,-7.247146964E-1
7.206015729E0,3.828594983E-1,-6.757691503E-2,-7.057778835E-1
7.210771042E0,4.207331240E-1,3.016144782E-2,-6.911171675E-1
7.215526406E0,4.518872201E-1,1.175151095E-1,-6.843976378E-1
7.220281771E0,4.683805704E-1,1.810450554E-1,-6.831759214E-1
7.225037136E0,4.714348912E-1,2.146426141E-1,-6.843976378E-1
7.229792500E0,4.598284662E-1,2.103665620E-1,-6.911171675E-1
7.234547865E0,4.347830117E-1,1.706603467E-1,-7.027235627E-1
7.239303177E0,3.981311321E-1,1.040760875E-1,-7.167734504E-1
7.244058542E0,3.553705812E-1,2.160934173E-2,-7.344885468E-1
7.248813906E0,3.071122766E-1,-6.635518372E-2,-7.522036433E-1
7.253569271E0,2.521344423E-1,-1.555414498E-1,-7.668643594E-1
7.258324583E0,1.904370934E-1,-2.380081862E-1,-7.772490978E-1
7.263079948E0,1.256854236E-1,-3.094793558E-1,-7.876337767E-1
7.267835313E0,5.971203372E-2,-3.711767197E-1,-7.998510599E-1
7.272590677E0,1.679878100E-3,-4.255436659E-1,-8.157335520E-1
7.277346042E0,-4.108065739E-2,-4.634172916E-1,-8.365029693E-1
7.282101406E0,-5.513054505E-2,-4.756345749E-1,-8.664353490E-1
7.286856719E0,-3.802633286E-2,-4.444804788E-1,-9.036980867E-1
7.291612083E0,6.566796452E-3,-3.717875779E-1,-9.501237869E-1
7.296367448E0,6.520981342E-2,-2.789361179E-1,-1.002047300E0
7.301122813E0,1.281288862E-1,-1.879172772E-1,-1.059468627E0
7.305878125E0,1.861610413E-1,-1.115591824E-1,-1.116279006E0
7.310633490E0,2.313650399E-1,-5.597048625E-2,-1.167591691E0
7.315388854E0,2.594648004E-1,-2.481638081E-2,-1.212184787E0
7.320144219E0,2.661843300E-1,-6.490438245E-3,-1.249447584E0
7.324899583E0,2.503018379E-1,1.366809942E-2,-1.281212568E0
7.329654896E0,2.099847645E-1,4.970912263E-2,-1.303203702E0
7.334410261E0,1.476765573E-1,1.046869531E-1,-1.309312344E0
7.339165625E0,7.192932814E-2,1.712712198E-1,-1.295873284E0
7.343920990E0,-6.872228812E-3,2.396880686E-1,-1.262886524E0
7.348676354E0,-8.261945844E-2,3.044397235E-1,-1.218293428E0
7.353431667E0,-1.516471803E-1,3.655261993E-1,-1.173700333E0
7.358187031E0,-2.115119249E-1,4.150062501E-1,-1.137659311E0
7.362942396E0,-2.603811026E-1,4.479929507E-1,-1.112002969E0
7.367697761E0,-2.982547283E-1,4.589885175E-1,-1.096731305E0
7.372453125E0,-3.263545036E-1,4.492146969E-1,-1.089401007E0
7.377208438E0,-3.428478539E-1,4.211149216E-1,-1.088179231E0
7.381963802E0,-3.471239209E-1,3.783543706E-1,-1.094287872E0
7.386719167E0,-3.385718167E-1,3.209330738E-1,-1.107726932E0
7.391474531E0,-3.214675784E-1,2.476293147E-1,-1.130939722E0
7.396229896E0,-2.976438701E-1,1.669951528E-1,-1.161483049E0
7.400985208E0,-2.768744528E-1,7.841976732E-2,-1.201800108E0
7.405740573E0,-2.634354234E-1,-1.626427472E-2,-1.250669241E0
7.410495938E0,-2.628245652E-1,-1.140026376E-1,-1.301371098E0
7.415251302E0,-2.756527364E-1,-2.086866796E-1,-1.353294611E0
7.420006615E0,-3.037525117E-1,-2.972620726E-1,-1.402774572E0
7.424761979E0,-3.440696001E-1,-3.736201823E-1,-1.443702579E0
7.429517344E0,-3.929387629E-1,-4.285979867E-1,-1.469969749E0
7.434272708E0,-4.466948807E-1,-4.615846872E-1,-1.483408809E0
7.439028073E0,-5.059487820E-1,-4.738020003E-1,-1.485852242E0
7.443783386E0,-5.645917654E-1,-4.621955752E-1,-1.483408809E0
7.448538750E0,-6.201804876E-1,-4.261545539E-1,-1.473024011E0
7.453294115E0,-6.672170758E-1,-3.705658615E-1,-1.455919862E0
7.458049479E0,-7.026472092E-1,-3.113119602E-1,-1.434539557E0
7.462804844E0,-7.228057384E-1,-2.575558722E-1,-1.417435408E0
7.467560156E0,-7.295252681E-1,-2.166279256E-1,-1.403385520E0
7.472315521E0,-7.295252681E-1,-1.891390085E-1,-1.394833326E0
7.477070886E0,-7.283035517E-1,-1.744782478E-1,-1.391779065E0
7.481826250E0,-7.258600593E-1,-1.695913374E-1,-1.391779065E0
7.486581615E0,-7.203623056E-1,-1.793651730E-1,-1.389946461E0
7.491336927E0,-7.154753804E-1,-2.080758214E-1,-1.386281252E0
7.496092292E0,-7.105884552E-1,-2.502254844E-1,-1.378340006E0
7.500847656E0,-7.063124180E-1,-2.899316847E-1,-1.365511894E0
7.505603021E0,-7.093667388E-1,-3.094793558E-1,-1.348407626E0
7.510358333E0,-7.209731340E-1,-2.978729308E-1,-1.323973060E0
7.515113698E0,-7.392991185E-1,-2.642753720E-1,-1.294040680E0
7.519869063E0,-7.631227970E-1,-2.221257091E-1,-1.265330076E0
7.524624427E0,-7.893900275E-1,-1.873064190E-1,-1.245782375E0
7.529379792E0,-8.217658401E-1,-1.653152853E-1,-1.236008525E0
7.534135104E0,-8.608611822E-1,-1.500436664E-1,-1.233565092E0
7.538890469E0,-9.024000168E-1,-1.329394430E-1,-1.238451958E0
7.543645833E0,-9.445496798E-1,-1.072831303E-1,-1.250669241E0
7.548401198E0,-9.866993427E-1,-7.246383280E-2,-1.264108300E0
7.553156511E0,-1.027627230E0,-4.314232618E-2,-1.279379964E0
7.557911875E0,-1.067944407E0,-5.230529606E-2,-1.290986300E0
7.562667240E0,-1.107039690E0,-1.195004210E-1,-1.295873284E0
7.567422604E0,-1.144913316E0,-2.386190593E-1,-1.297705889E0
7.572177917E0,-1.184008718E0,-3.748418987E-1,-1.306868792E0
7.576933281E0,-1.219438791E0,-4.731911421E-1,-1.323362231E0
7.581688646E0,-1.251814604E0,-4.921279252E-1,-1.336190343E0
7.586444011E0,-1.280525327E0,-4.096612036E-1,-1.334968567E0
7.591199375E0,-1.293964267E0,-2.294560820E-1,-1.322751284E0
7.595954688E0,-1.295796871E0,1.916588284E-2,-1.305036187E0
7.600710052E0,-1.287855625E0,2.855029404E-1,-1.284877658E0
7.605465417E0,-1.271973133E0,5.035816431E-1,-1.252501845E0
7.610220781E0,-1.249371171E0,6.068177819E-1,-1.204243541E0
7.614976094E0,-1.220049739E0,5.750528574E-1,-1.141324520E0
7.619731458E0,-1.191339016E0,4.455494881E-1,-1.075961947E0
7.624486823E0,-1.171180487E0,2.836703360E-1,-1.020373225E0
7.629242188E0,-1.162628412E0,1.352301836E-1,-9.776127338E-1
7.633997500E0,-1.161406636E0,2.832885459E-2,-9.482911825E-1
7.638752865E0,-1.160184979E0,-2.359465137E-2,-9.330195785E-1
7.643508229E0,-1.154687166E0,-2.542724647E-2,-9.244675040E-1
7.648263594E0,-1.153465390E0,2.290742996E-4,-9.104176164E-1
7.653018958E0,-1.158963203E0,4.726566374E-2,-8.988111615E-1
7.657774271E0,-1.169347882E0,1.022434905E-1,-8.896481991E-1
7.662529636E0,-1.187062979E0,1.450040340E-1,-8.737657070E-1
7.667285000E0,-1.206610680E0,1.547778696E-1,-8.438333273E-1
7.672040365E0,-1.224325776E0,1.443931609E-1,-8.035162687E-1
7.676795677E0,-1.234710455E0,1.199585721E-1,-7.589231133E-1
7.681551042E0,-1.231656075E0,7.964149863E-2,-7.155517340E-1
7.686306406E0,-1.205388904E0,8.781181648E-3,-6.715694666E-1
7.691061771E0,-1.152243733E0,-9.384410083E-2,-6.294198036E-1
7.695817083E0,-1.075885534E0,-2.105192691E-1,-5.787180066E-1
7.700572448E0,-9.873101711E-1,-3.076467812E-1,-5.188532472E-1
7.705327813E0,-9.024000168E-1,-3.455203772E-1,-4.528798759E-1
7.710083177E0,-8.278744817E-1,-3.070359230E-1,-3.862956166E-1
7.714838490E0,-7.680097222E-1,-2.001345754E-1,-3.233765364E-1
7.719593854E0,-7.185297012E-1,-3.764454275E-2,-2.647335231E-1
7.724349219E0,-6.684387922E-1,1.511126757E-1,-2.134208828E-1
7.729104583E0,-6.067414284E-1,3.221548200E-1,-1.712712198E-1
7.733859896E0,-5.291616321E-1,4.388299882E-1,-1.395062506E-1
7.738615261E0,-4.381427765E-1,4.809796512E-1,-1.260672212E-1
7.743370625E0,-3.465130329E-1,4.754818678E-1,-1.224020272E-1
7.748125990E0,-2.634354234E-1,4.437169135E-1,-1.315650046E-1
7.752881302E0,-1.882990748E-1,4.027889669E-1,-1.517235339E-1
7.757636667E0,-1.168278903E-1,3.722457290E-1,-1.871536970E-1
7.762392031E0,-6.062832847E-2,3.649153411E-1,-2.317468226E-1
7.767147396E0,-3.069595434E-2,4.040106833E-1,-2.653443813E-1
7.771902708E0,-3.252854943E-2,4.950295389E-1,-2.812268734E-1
7.776658073E0,-5.207622424E-2,5.793288946E-1,-2.885572612E-1
7.781413438E0,-6.856957078E-2,6.141481996E-1,-3.001636863E-1
7.786168802E0,-6.429351866E-2,5.878809690E-1,-3.111592531E-1
7.790924115E0,-3.130681813E-2,5.225184560E-1,-3.019962609E-1
7.795679479E0,1.634063199E-2,4.467712343E-1,-2.488510460E-1
7.800434844E0,5.604684353E-2,3.300960660E-1,-1.529452652E-1
7.805190208E0,9.880737960E-2,2.067013681E-1,-3.199404106E-2
7.809945521E0,1.372918636E-1,1.059086844E-1,1.054505333E-1
7.814700886E0,1.660024971E-1,3.016144782E-2,2.471711636E-1
7.819456250E0,1.861610413E-1,-1.687514037E-2,3.827831447E-1
7.824211615E0,2.032652497E-1,-4.680751264E-2,5.116755962E-1
7.828966927E0,2.215912044E-1,-6.818778068E-2,6.387354732E-1
7.833722292E0,2.417497337E-1,-9.689842910E-2,7.645736337E-1
7.838477656E0,2.631300092E-1,-1.335503161E-1,8.861356974E-1
7.843233021E0,2.802342176E-1,-1.634826809E-1,1.002200007E0
7.847988333E0,3.071122766E-1,-1.402698308E-1,1.109712243E0
7.852743698E0,3.327685893E-1,-7.796161622E-2,1.205007076E0
7.857499063E0,3.327685893E-1,-5.719221383E-2,1.278921723E0
7.862254427E0,3.364337683E-1,-1.931859925E-2,1.322293162E0
7.867009740E0,3.437641561E-1,2.588539571E-2,1.335121274E0
7.871765104E0,3.590357602E-1,6.925679743E-2,1.324736595E0
7.876520469E0,3.755291104E-1,1.169042438E-1,1.302134633E0
7.881275833E0,3.914116025E-1,1.712712198E-1,1.272202253E0
7.886031146E0,4.048506320E-1,2.299142331E-1,1.241659045E0
7.890786511E0,4.109592736E-1,2.861137986E-1,1.209894061E0
7.895541875E0,4.091266990E-1,3.349829614E-1,1.175685644E0
7.900297188E0,4.042397738E-1,3.777435124E-1,1.144531488E0
7.905052552E0,4.079049528E-1,4.192823172E-1,1.126205564E0
7.909807917E0,3.975202441E-1,4.052324295E-1,1.112766504E0
7.914563281E0,3.804160357E-1,3.704131246E-1,1.094440579E0
7.919318594E0,3.633118272E-1,3.423133492E-1,1.081612468E0
7.924073958E0,3.474293351E-1,3.136027157E-1,1.080390692E0
7.928829323E0,3.339903057E-1,2.769508064E-1,1.093218923E0
7.933584688E0,3.266599476E-1,2.262490392E-1,1.119486094E0
7.938340000E0,3.229947388E-1,1.651625633E-1,1.155527115E0
7.943095365E0,3.242164850E-1,9.796743840E-2,1.196455002E0
7.947850729E0,3.254382014E-1,2.160934173E-2,1.241659045E0
7.952606094E0,3.297142684E-1,-5.902481079E-2,1.292971611E0
7.957361406E0,3.327685893E-1,-1.390480995E-1,1.347338676E0
7.962116771E0,3.333794475E-1,-2.062432170E-1,1.405370831E0
7.966872136E0,3.309359848E-1,-2.569449842E-1,1.467679024E0
7.971627500E0,3.266599476E-1,-2.893208265E-1,1.529987216E0
7.976382813E0,3.248273432E-1,-3.039815724E-1,1.592295408E0
7.981138177E0,3.236056268E-1,-3.058141768E-1,1.652160168E0
7.985893542E0,3.211621642E-1,-2.966512144E-1,1.701640248E0
7.990648854E0,3.193295598E-1,-2.746600807E-1,1.745011568E0
7.995404219E0,3.205513060E-1,-2.477820218E-1,1.801211119E0
8.000159583E0,3.248273432E-1,-2.264017612E-1,1.868406296E0
8.004914948E0,3.303251266E-1,-2.007454336E-1,1.941099167E0
8.009670261E0,3.364337683E-1,-1.714239269E-1,2.013181210E0
8.014425625E0,3.407098353E-1,-1.402698308E-1,2.079154730E0
8.019180990E0,3.468184769E-1,-1.066722646E-1,2.134743214E0
8.023936354E0,3.517054021E-1,-7.185296714E-2,2.176892996E0
8.028691667E0,3.572031856E-1,-4.497491941E-2,2.200716734E0
8.033447031E0,3.614792228E-1,-3.153589368E-2,2.210490465E0
8.038202396E0,3.669770062E-1,-3.214675933E-2,2.204992771E0
8.042957708E0,3.694204688E-1,-4.130972922E-2,2.191553831E0
8.047713073E0,3.712530732E-1,-5.352702737E-2,2.168340921E0
8.052468438E0,3.700313270E-1,-5.963567272E-2,2.139019489E0
8.057223802E0,3.663661480E-1,-4.069886729E-2,2.107865334E0
8.061979115E0,3.559814394E-1,2.672533505E-3,2.080376387E0
8.066734479E0,3.425424397E-1,5.581776798E-2,2.055330992E0
8.071489844E0,3.315468729E-1,1.040760875E-1,2.033339739E0
8.076245156E0,3.236056268E-1,1.468366235E-1,2.011959553E0
8.081000521E0,3.211621642E-1,1.883754283E-1,1.994855285E0
8.085755886E0,3.199404180E-1,2.262490392E-1,1.978361964E0
8.090511250E0,3.156643808E-1,2.653443813E-1,1.964312077E0
8.095266563E0,3.083339930E-1,3.081049323E-1,1.952094793E0
8.100021927E0,2.936732471E-1,3.435350657E-1,1.943542600E0
8.104777292E0,2.698495090E-1,3.612501621E-1,1.938655734E0
8.109532604E0,2.460257858E-1,3.624718785E-1,1.938044906E0
8.114287969E0,2.215912044E-1,3.575849831E-1,1.940488338E0
8.119043333E0,1.971566081E-1,3.502545953E-1,1.942320943E0
8.123798698E0,1.708894223E-1,3.429242074E-1,1.938655734E0
8.128554011E0,1.446222365E-1,3.435350657E-1,1.927049279E0
8.133309375E0,1.171333194E-1,3.496437371E-1,1.903836489E0
8.138064740E0,8.964440972E-2,3.575849831E-1,1.872682333E0
8.142820104E0,6.459894776E-2,3.484219909E-1,1.839084744E0
8.147575417E0,5.054906011E-2,3.081049323E-1,1.804265499E0
8.152330781E0,5.360338464E-2,2.384663373E-1,1.771278739E0
8.157086146E0,6.643154472E-2,1.517235339E-1,1.743178964E0
8.161841458E0,9.025526792E-2,7.292198390E-2,1.722409606E0
8.166596823E0,1.146898642E-1,2.099847607E-2,1.707748890E0
8.171352188E0,1.342375278E-1,3.894262947E-3,1.699196696E0
8.176107552E0,1.452330947E-1,1.916588284E-2,1.692477226E0
8.180862865E0,1.464548260E-1,5.703949928E-2,1.690644622E0
8.185618229E0,1.366809905E-1,1.126281917E-1,1.688201189E0
8.190373594E0,1.226311028E-1,1.743255407E-1,1.683314204E0
8.195128906E0,1.085812151E-1,2.280816436E-1,1.674762130E0
8.199884271E0,9.697478265E-2,2.653443813E-1,1.660101414E0
8.204639636E0,9.392046183E-2,2.934441566E-1,1.638110280E0
8.209394948E0,1.012508348E-1,3.233765364E-1,1.615508318E0
8.214150313E0,1.159115955E-1,3.490328491E-1,1.592906237E0
8.218905677E0,1.372918636E-1,3.691914082E-1,1.567249894E0
8.223661042E0,1.605047137E-1,3.869064748E-1,1.538539290E0
8.228416354E0,1.818849891E-1,4.015672207E-1,1.507385254E0
8.233171719E0,1.977674663E-1,4.168388546E-1,1.472565889E0
8.237927083E0,2.038761228E-1,4.137845337E-1,1.429805398E0
8.242682396E0,2.032652497E-1,3.905716538E-1,1.376660109E0
8.247437761E0,2.032652497E-1,3.484219909E-1,1.310686707E0
8.252193125E0,2.099847645E-1,2.940550447E-1,1.240437269E0
8.256948438E0,2.252563834E-1,2.415206581E-1,1.171409607E0
8.261703802E0,2.472475171E-1,1.950949430E-1,1.110323071E0
8.266459167E0,2.729038298E-1,1.523344070E-1,1.059010506E0
8.271214531E0,2.961167097E-1,1.107956022E-1,1.018082500E0
8.275969844E0,3.181078434E-1,6.375901401E-2,9.789871573E-1
8.280725208E0,3.376555145E-1,1.305723470E-2,9.429461360E-1
8.285480573E0,3.584249020E-1,-3.886627033E-2,9.032399058E-1
8.290235886E0,3.791943192E-1,-8.529199660E-2,8.592576981E-1
8.294991250E0,3.944659233E-1,-1.066722646E-1,8.097776175E-1
8.299746615E0,3.944659233E-1,-8.284853399E-2,7.529671788E-1
8.304501927E0,3.688096106E-1,-2.359465137E-2,6.924915910E-1
8.309257292E0,3.150535226E-1,3.993528336E-2,6.289616227E-1
8.314012656E0,2.448040545E-1,5.093085021E-2,5.611556768E-1
8.318768021E0,1.715002805E-1,-2.115119249E-2,4.811323583E-1
8.323523333E0,1.061377525E-1,-1.476002038E-1,3.870591819E-1
8.328278698E0,5.238165334E-2,-3.045924604E-1,2.832121849E-1
8.333034063E0,1.511890348E-2,-4.750237167E-1,1.756999791E-1
8.337789375E0,-9.926552884E-3,-6.582831740E-1,7.002037764E-2
8.342544740E0,-2.580903657E-2,-8.482621312E-1,-3.382663801E-2
8.347300104E0,-3.558287397E-2,-1.038851857E0,-1.401171088E-1
8.352055417E0,-3.680460155E-2,-1.222722173E0,-2.482401729E-1
8.356810781E0,-2.580903657E-2,-1.396207809E0,-3.606393039E-1
8.361566146E0,-3.207040019E-3,-1.540982723E0,-4.693732262E-1
8.366321458E0,2.489273995E-2,-1.648494959E0,-5.732202530E-1
8.371076823E0,4.688387364E-2,-1.715690136E0,-6.672934294E-1
8.375832188E0,5.665770918E-2,-1.743789911E0,-7.534253597E-1
8.380587552E0,4.688387364E-2,-1.732794285E0,-8.420007229E-1
8.385342865E0,2.122755162E-2,-1.683925152E0,-9.311869740E-1
8.390098229E0,-1.664606482E-2,-1.595960617E0,-1.021595001E0
8.394853594E0,-6.185005978E-2,-1.468289852E0,-1.109559536E0
8.399608906E0,-1.088866442E-1,-1.310075879E0,-1.183474183E0
8.404364271E0,-1.553123742E-1,-1.131703377E0,-1.236008525E0
8.409119636E0,-1.956294477E-1,-9.514982700E-1,-1.264108300E0
8.413874948E0,-2.316704690E-1,-7.743474841E-1,-1.268384337E0
8.418630313E0,-2.591593862E-1,-6.143009067E-1,-1.254945278E0
8.423385677E0,-2.787070572E-1,-4.805215001E-1,-1.227456450E0
8.428140990E0,-2.909243405E-1,-3.717875779E-1,-1.188361049E0
8.432896354E0,-2.952004075E-1,-2.874882221E-1,-1.141324520E0
8.437651719E0,-2.909243405E-1,-2.294560820E-1,-1.091844440E0
8.442407031E0,-2.811505198E-1,-1.897498667E-1,-1.036866546E0
8.447162396E0,-2.652680278E-1,-1.598175019E-1,-9.855539799E-1
8.451917761E0,-2.383899838E-1,-1.372154951E-1,-9.409608245E-1
8.456673125E0,-2.041815519E-1,-1.121700481E-1,-9.146936536E-1
8.461428438E0,-1.620318890E-1,-8.712458611E-2,-9.036980867E-1
8.466183802E0,-1.143844277E-1,-5.047270283E-2,-9.073632956E-1
8.470939167E0,-6.185005978E-2,2.061668551E-3,-9.189696908E-1
8.475694479E0,-7.483093534E-3,7.475458086E-2,-9.311869740E-1
8.480449844E0,4.566214234E-2,1.633299738E-1,-9.397391081E-1
8.485205208E0,9.392046183E-2,2.610683441E-1,-9.379065037E-1
8.489960521E0,1.403461844E-1,3.569740951E-1,-9.287435412E-1
8.494715886E0,1.824958473E-1,4.394408464E-1,-9.110284448E-1
8.499471250E0,2.240346521E-1,5.139663815E-1,-8.872047067E-1
8.504226563E0,2.661843300E-1,5.817723274E-1,-8.615484238E-1
8.508981927E0,3.083339930E-1,6.434696913E-1,-8.352812529E-1
8.513737292E0,3.510945439E-1,7.021127343E-1,-8.157335520E-1
8.518492604E0,3.926333487E-1,7.436515093E-1,-8.077923059E-1
8.523247969E0,4.292852283E-1,7.607557178E-1,-8.065705895E-1
8.528003333E0,4.579958618E-1,7.454841137E-1,-8.090140224E-1
8.532758646E0,4.781544209E-1,6.929497123E-1,-8.145118356E-1
8.537514011E0,4.867065251E-1,6.031526327E-1,-8.212313652E-1
8.542269375E0,4.836521745E-1,4.736492932E-1,-8.310051560E-1
8.547024688E0,4.653262496E-1,3.136027157E-1,-8.401681185E-1
8.551780052E0,4.347830117E-1,1.364519149E-1,-8.474985361E-1
8.556535417E0,3.920224607E-1,-4.925097153E-2,-8.554397821E-1
8.561290729E0,3.394880891E-1,-2.325104028E-1,-8.676570654E-1
8.566046094E0,2.814559340E-1,-4.035525322E-1,-8.878155947E-1
8.570801458E0,2.154825479E-1,-5.550470352E-1,-9.195805788E-1
8.575556771E0,1.427896470E-1,-6.821069121E-1,-9.678388834E-1
8.580312136E0,6.520981342E-2,-7.780126333E-1,-1.034423113E0
8.585067500E0,-1.237001177E-2,-8.427643180E-1,-1.112002969E0
8.589822813E0,-7.895427197E-2,-8.757510185E-1,-1.194469690E0
8.594578177E0,-1.247691289E-1,-8.794162273E-1,-1.279379964E0
8.599333542E0,-1.461493969E-1,-8.604794145E-1,-1.356348872E0
8.604088854E0,-1.400407553E-1,-8.287144303E-1,-1.421711445E0
8.608844219E0,-1.058323234E-1,-7.908408046E-1,-1.474856615E0
8.613599583E0,-5.024362728E-2,-7.615193129E-1,-1.518838882E0
8.618354896E0,1.817322709E-2,-7.517454624E-1,-1.557323456E0
8.623110261E0,9.147699922E-2,-7.572432756E-1,-1.591531873E0
8.627865625E0,1.629481763E-1,-7.676279545E-1,-1.618409872E0
8.632620938E0,2.228129357E-1,-7.651845217E-1,-1.634903193E0
8.637376302E0,2.649625838E-1,-7.395281792E-1,-1.628183722E0
8.642131667E0,2.790125012E-1,-6.869937778E-1,-1.594586134E0
8.646886979E0,2.667951882E-1,-6.155226231E-1,-1.537775755E0
8.651642344E0,2.301433086E-1,-5.312232971E-1,-1.466915369E0
8.656397708E0,1.684459597E-1,-4.402044415E-1,-1.391168118E0
8.661153021E0,9.086613357E-2,-3.552942276E-1,-1.318475246E0
8.665908386E0,9.010255337E-3,-2.862665057E-1,-1.259221435E0
8.670663750E0,-6.612611562E-2,-2.459494323E-1,-1.218293428E0
8.675419063E0,-1.296560466E-1,-2.257908881E-1,-1.195080638E0
8.680174427E0,-1.834121495E-1,-2.178496569E-1,-1.187139392E0
8.684929792E0,-2.255618125E-1,-2.117410004E-1,-1.187750220E0
8.689685104E0,-2.567159235E-1,-2.037997693E-1,-1.196913123E0
8.694440469E0,-2.768744528E-1,-1.964693815E-1,-1.214628220E0
8.699195781E0,-2.927569449E-1,-1.885281354E-1,-1.241506338E0
8.703951146E0,-3.019199073E-1,-1.799760312E-1,-1.277547359E0
8.708706511E0,-3.098611534E-1,-1.653152853E-1,-1.318475246E0
8.713461823E0,-3.153589368E-1,-1.390480995E-1,-1.366733551E0
8.718217188E0,-3.226893246E-1,-1.060613990E-1,-1.418657064E0
8.722972552E0,-3.330740333E-1,-7.002037764E-2,-1.474245787E0
8.727727865E0,-3.416261375E-1,-3.459021822E-2,-1.528612733E0
8.732483229E0,-3.562868834E-1,-1.198822167E-2,-1.581758022E0
8.737238594E0,-3.752236962E-1,-2.420551702E-2,-1.629405499E0
8.741993906E0,-3.953822255E-1,-7.735075057E-2,-1.667279005E0
8.746749271E0,-4.124864340E-1,-1.555414498E-1,-1.692935348E0
8.751504636E0,-4.228711426E-1,-2.471711636E-1,-1.705763578E0
8.756259948E0,-4.350884259E-1,-3.339139521E-1,-1.710039616E0
8.761015313E0,-4.466948807E-1,-3.992764950E-1,-1.708817840E0
8.765770677E0,-4.607447684E-1,-4.340957701E-1,-1.701487541E0
8.770525990E0,-4.705185890E-1,-4.438696206E-1,-1.688659310E0
8.775281354E0,-4.705185890E-1,-4.353175163E-1,-1.677052855E0
8.780036667E0,-4.589121640E-1,-4.114937782E-1,-1.671555161E0
8.784792031E0,-4.454731345E-1,-3.736201823E-1,-1.668500781E0
8.789547396E0,-4.344775677E-1,-3.247509897E-1,-1.661170363E0
8.794302708E0,-4.338667095E-1,-2.728274763E-1,-1.648342252E0
8.799058073E0,-4.430296719E-1,-2.221257091E-1,-1.630627155E0
8.803813438E0,-4.589121640E-1,-1.775325835E-1,-1.611690402E0
8.808568750E0,-4.754055142E-1,-1.482110620E-1,-1.603138208E0
8.813324115E0,-4.912880063E-1,-1.378263682E-1,-1.609246850E0
8.818079479E0,-5.138899684E-1,-1.500436664E-1,-1.629405499E0
8.822834792E0,-5.462658405E-1,-1.891390085E-1,-1.661170363E0
8.827590156E0,-5.823068619E-1,-2.746600807E-1,-1.705763578E0
8.832345521E0,-6.146826744E-1,-4.151589870E-1,-1.749745846E0
8.837100833E0,-6.330085993E-1,-5.629882812E-1,-1.793728113E0
8.841856198E0,-6.409498453E-1,-6.637809277E-1,-1.830990791E0
8.846611511E0,-6.403390169E-1,-6.863829494E-1,-1.845040679E0
8.851366875E0,-6.323977709E-1,-6.216312647E-1,-1.828547359E0
8.856122240E0,-6.195695996E-1,-4.854084253E-1,-1.780899882E0
8.860877552E0,-5.981893539E-1,-3.143662810E-1,-1.703930974E0
8.865632917E0,-5.670352578E-1,-1.457676142E-1,-1.612912059E0
8.870388281E0,-5.285507441E-1,-1.870773360E-2,-1.517617226E0
8.875143594E0,-4.918988645E-1,4.482220486E-2,-1.421100497E0
8.879898958E0,-4.662425518E-1,5.031998456E-2,-1.322140455E0
8.884654323E0,-4.466948807E-1,6.948587019E-3,-1.217682600E0
8.889409636E0,-4.338667095E-1,-6.696604937E-2,-1.133383274E0
8.894165000E0,-4.326449931E-1,-1.524871141E-1,-1.068631530E0
8.898920313E0,-4.338667095E-1,-2.557232678E-1,-1.008155942E0
8.903675677E0,-4.259254634E-1,-3.675115108E-1,-9.580650330E-1
8.908431042E0,-4.045451880E-1,-4.701367915E-1,-9.134719372E-1
8.913186354E0,-3.733910918E-1,-5.623773932E-1,-8.621592522E-1
8.917941719E0,-3.361283541E-1,-6.191878319E-1,-8.132901192E-1
8.922697083E0,-2.952004075E-1,-6.143009067E-1,-7.717512846E-1
8.927452396E0,-2.548833191E-1,-5.312232971E-1,-7.387645841E-1
8.932207761E0,-2.194531709E-1,-3.754527569E-1,-7.118865252E-1
8.936963073E0,-1.797469556E-1,-1.689804643E-1,-6.905062795E-1
8.941718438E0,-1.229365394E-1,4.482220486E-2,-6.672934294E-1
8.946473802E0,-4.718930274E-2,2.299142331E-1,-6.379718781E-1
8.951229115E0,4.871646687E-2,3.698022664E-1,-5.982657075E-1
8.955984479E0,1.501200199E-1,4.724275470E-1,-5.500074029E-1
8.960739844E0,2.509126961E-1,5.622246861E-1,-4.901426136E-1
8.965495156E0,3.376555145E-1,6.734020710E-1,-4.223366380E-1
8.970250521E0,3.999637067E-1,8.346703649E-1,-3.557523787E-1
8.975005886E0,4.317286909E-1,1.038088322E0,-2.916115820E-1
8.979761198E0,4.390590489E-1,1.239673734E0,-2.427423894E-1
8.984516563E0,4.268417656E-1,1.387503028E0,-2.311359644E-1
8.989271875E0,4.017963111E-1,1.436982989E0,-2.604574561E-1
8.994027240E0,3.651444316E-1,1.388113856E0,-2.940550447E-1
8.998782604E0,3.229947388E-1,1.289153814E0,-2.873355150E-1
9.003537917E0,2.735147178E-1,1.092455268E0,-2.280816436E-1
9.008293281E0,2.368628234E-1,8.255074024E-1,-1.278998107E-1
9.013048646E0,2.228129357E-1,5.750528574E-1,1.603520010E-3
9.017803958E0,2.338084877E-1,3.911825418E-1,1.482110620E-1
9.022559323E0,2.551887631E-1,2.934441566E-1,2.966512144E-1
9.027314636E0,2.661843300E-1,2.751182318E-1,4.371501207E-1
9.032070000E0,2.570213675E-1,3.038288653E-1,5.642099977E-1
9.036825365E0,2.331976295E-1,3.282634616E-1,6.796634197E-1
9.041580677E0,2.050978541E-1,3.148244321E-1,7.841212749E-1
9.046336042E0,1.727220118E-1,2.616792023E-1,8.812488317E-1
9.051091354E0,1.379027218E-1,2.012035847E-1,9.704350829E-1
9.055846719E0,1.165224537E-1,1.957058012E-1,1.058399558E0
9.060602083E0,8.597921580E-2,1.847102344E-1,1.143309832E0
9.065357396E0,5.787943676E-2,1.749363989E-1,1.216002703E0
9.070112761E0,4.321868345E-2,1.993709952E-1,1.277700067E0
9.074868073E0,3.955349326E-2,2.482401729E-1,1.330234408E0
9.079623438E0,4.199695215E-2,3.093266487E-1,1.371162415E0
9.084378802E0,4.993819445E-2,3.698022664E-1,1.403538227E0
9.089134115E0,6.093376130E-2,4.253909588E-1,1.429194450E0
9.093889479E0,7.437278330E-2,4.773144722E-1,1.453629136E0
9.098644844E0,8.659008145E-2,5.225184560E-1,1.473176718E0
9.103400156E0,9.147699922E-2,5.500074029E-1,1.490891814E0
9.108155521E0,8.659008145E-2,5.573377609E-1,1.508606911E0
9.112910833E0,7.376192510E-2,5.518399477E-1,1.525711179E0
9.117666198E0,5.421425030E-2,5.506182313E-1,1.545869708E0
9.122421563E0,3.466657549E-2,5.573377609E-1,1.564806461E0
9.127176875E0,1.878409274E-2,5.719985366E-1,1.578856349E0
9.131932240E0,6.566796452E-3,5.805506110E-1,1.588630199E0
9.136687552E0,-2.596175298E-3,5.750528574E-1,1.595349789E0
9.141442917E0,-6.872228812E-3,5.628355145E-1,1.602680087E0
9.146198281E0,-6.261364091E-3,5.475639105E-1,1.612453938E0
9.150953594E0,1.069013379E-3,5.371792316E-1,1.624060392E0
9.155708958E0,1.145371422E-2,5.304597020E-1,1.639331937E0
9.160464271E0,2.428187430E-2,5.206858516E-1,1.657047033E0
9.165219636E0,3.344484791E-2,4.797579348E-1,1.675983906E0
9.169975000E0,4.199695215E-2,4.107302129E-1,1.693699002E0
9.174730313E0,5.421425030E-2,3.258199990E-1,1.715690136E0
9.179485677E0,6.765327603E-2,2.384663373E-1,1.742568135E0
9.184240990E0,8.109229803E-2,1.578321904E-1,1.779219985E0
9.188996354E0,8.964440972E-2,8.025235683E-2,1.818315387E0
9.193751719E0,9.330959618E-2,2.672533505E-3,1.857410669E0
9.198507031E0,9.636391699E-2,-8.101594448E-2,1.911166787E0
9.203262396E0,1.006399691E-1,-1.537088454E-1,1.982027173E0
9.208017708E0,1.030834317E-1,-1.983019859E-1,2.062661171E0
9.212773073E0,1.055268943E-1,-2.135736048E-1,2.143906355E0
9.217528438E0,1.098029464E-1,-2.062432170E-1,2.225151300E0
9.222283750E0,1.134681329E-1,-1.714239269E-1,2.291735649E0
9.227039115E0,1.189659163E-1,-1.005636156E-1,2.339993954E0
9.231794427E0,1.238528341E-1,1.450803829E-3,2.365650177E0
9.236549792E0,1.293506175E-1,1.211803034E-1,2.368093729E0
9.241305156E0,1.372918636E-1,2.409097999E-1,2.354043722E0
9.246060469E0,1.531743407E-1,3.380373120E-1,2.328998327E0
9.250815833E0,1.751654744E-1,4.033998251E-1,2.300898552E0
9.255571146E0,2.026543915E-1,4.382191300E-1,2.270966291E0
9.260326511E0,2.252563834E-1,4.571559429E-1,2.245920658E0
9.265081875E0,2.386954129E-1,4.828122556E-1,2.223929644E0
9.269837188E0,2.386954129E-1,5.249619484E-1,2.213544846E0
9.274592552E0,2.240346521E-1,5.793288946E-1,2.209268808E0
9.279347865E0,2.008218020E-1,6.251437664E-1,2.210490465E0
9.284103229E0,1.769980639E-1,6.404153705E-1,2.214766502E0
9.288858594E0,1.617264450E-1,6.190351248E-1,2.217210054E0
9.293613906E0,1.586721241E-1,5.707767606E-1,2.222096920E0
9.298369271E0,1.641699076E-1,5.096902847E-1,2.228816509E0
9.303124583E0,1.666133702E-1,4.382191300E-1,2.237979412E0
9.307879948E0,1.641699076E-1,3.588066995E-1,2.248364210E0
9.312635261E0,1.562286615E-1,2.738964856E-1,2.261192322E0
9.317390625E0,1.488982886E-1,1.859319657E-1,2.277074814E0
9.322145990E0,1.379027218E-1,1.059086844E-1,2.292346478E0
9.326901302E0,1.293506175E-1,4.665479809E-2,2.309450626E0
9.331656667E0,1.238528341E-1,1.794415340E-2,2.325943947E0
9.336411979E0,1.238528341E-1,2.649625950E-2,2.341215611E0
9.341167344E0,1.269071549E-1,6.803506613E-2,2.360152483E0
9.345922708E0,1.256854236E-1,1.205694377E-1,2.382143497E0
9.350678021E0,1.146898642E-1,1.688277572E-1,2.400469542E0
9.355433386E0,9.697478265E-2,2.067013681E-1,2.415741205E0
9.360188698E0,6.765327603E-2,2.262490392E-1,2.422460556E0
9.364944063E0,2.855792828E-2,2.329685539E-1,2.417573690E0
9.369699375E0,-1.725693047E-2,2.274707705E-1,2.396193504E0
9.374454740E0,-6.551524997E-2,2.238055766E-1,2.352211237E0
9.379210104E0,-1.156061590E-1,2.286925018E-1,2.281961679E0
9.383965417E0,-1.626427472E-1,2.372446060E-1,2.186055899E0
9.388720781E0,-1.968511790E-1,2.409097999E-1,2.070602417E0
9.393476094E0,-2.127336562E-1,2.231947184E-1,1.938044906E0
9.398231458E0,-2.115119249E-1,1.877645552E-1,1.791437268E0
9.402986823E0,-2.005163580E-1,1.382845193E-1,1.638721108E0
9.407742136E0,-1.864664704E-1,7.658717036E-2,1.490280986E0
9.412497500E0,-1.718057245E-1,1.061377581E-2,1.347338676E0
9.417252813E0,-1.534797698E-1,-4.619665071E-2,1.217835307E0
9.422008177E0,-1.320995092E-1,-8.895718306E-2,1.103603601E0
9.426763490E0,-1.094975099E-1,-1.249982044E-1,1.005254388E0
9.431518854E0,-8.811724186E-2,-1.530979872E-1,9.203441739E-1
9.436274167E0,-7.223475724E-2,-1.671478748E-1,8.445969224E-1
9.441029531E0,-6.673697382E-2,-1.592066288E-1,7.700713873E-1
9.445784896E0,-6.795870513E-2,-1.317177117E-1,6.937133074E-1
9.450540208E0,-6.612611562E-2,-1.115591824E-1,6.136900187E-1
9.455295573E0,-5.390881747E-2,-1.268308014E-1,5.312232971E-1
9.460050886E0,-2.641990222E-2,-1.860846877E-1,4.512000084E-1
9.464806250E0,1.023198478E-2,-2.771035433E-1,3.730092943E-1
9.469561563E0,4.688387364E-2,-3.748418987E-1,2.954294682E-1
9.474316927E0,7.498364896E-2,-4.664716125E-1,2.129627317E-1
9.479072292E0,9.025526792E-2,-5.483275056E-1,1.164461002E-1
9.483827604E0,9.697478265E-2,-6.252964735E-1,2.825249685E-3
9.488582969E0,9.697478265E-2,-7.010436654E-1,-1.266780794E-1
9.493338333E0,8.964440972E-2,-7.767909169E-1,-2.677878439E-1
9.498093646E0,7.376192510E-2,-8.482621312E-1,-4.174497128E-1
9.502848958E0,4.382954910E-2,-9.020181894E-1,-5.695550442E-1
