Time (s),Acceleration x (m/s^2),Acceleration y (m/s^2),Acceleration z (m/s^2)
9.00170573,-0.047368534838884806,-0.1495561466191064,-0.21723714089239066
9.006460626,-0.2818698224708862,-0.18588590871649785,-0.18130548783751016
9.011215469,-0.5180286627731882,-0.22251334302599332,-0.14407497773283945
9.015970365,-0.7526501280129244,-0.2604892472229834,-0.10573209070747518
9.020725261,-0.9825274623419153,-0.30077187328853927,-0.0664749206777525
9.025480105,-1.2044919056613437,-0.344195283845447,-0.02651262827532799
9.030235001,-1.415460993916499,-0.3914418220278038,0.01393470745931283
9.034989896,-1.612484439434305,-0.4430195138189956,0.054635817250185285
9.03974474,-1.7927867721779358,-0.49924506446251815,0.09534757992493478
9.044499636,-1.953806025775814,-0.5602329327629474,0.13581405877910205
9.049254532,-2.093227878700129,-0.6258907739102751,0.1757653847843936
9.054009376,-2.209014806527297,-0.6959213382323953,0.21491669314799725
9.058764271,-2.299429959823364,-0.7698307055383916,0.2529673642708306
9.063519167,-2.363055647025777,-0.8469425280670111,0.28960084147937276
9.068274011,-2.398806465619347,-0.9264177553796926,0.3244852892142493
9.073028907,-2.4059372807554156,-1.0072791283177531,0.3572753156638423
9.077783803,-2.3840463909189467,-1.088439563532739,0.38761491838348455
9.082538646,-2.333074337855355,-1.1687334126124922,0.4151417296356803
9.087293542,-2.2532989056074464,-1.2469494778354744,0.43949255014335925
9.092048438,-2.1453269053751405,-1.3218646067782636,0.46031007394927204
9.096803282,-2.0100833557520423,-1.3922766757423444,0.4772506293909611
9.101558178,-1.8487986419278162,-1.4570358105389025,0.4899926974005576
9.106313074,-1.662994176235715,-1.5150727831488815,0.4982459235120102
9.111067917,-1.454466991794113,-1.5654236618755344,0.5017603169058791
9.115822813,-1.2252735878579584,-1.6072499758324812,0.5003353272021825
9.120577709,-0.9777132175588592,-1.6398538742953044,0.4938285021850117
9.125332553,-0.7143106748492023,-1.6626880072882784,0.4821634496596639
9.130087449,-0.43779850774604356,-1.6753601132603373,0.46533684671624925
9.134842344,-0.15109846967090307,-1.6776325588105057,0.44342425483072706
9.13959724,0.14269807111348926,-1.669417319323149,0.4165845091378973
9.144352084,0.44035110545256606,-1.6507671030247728,0.38506245965021735
9.14910698,0.7384947094918083,-1.6218634898986666,0.34918985940092545
9.153861876,1.033661884939908,-1.583003068371532,0.30938422811982635
9.158616719,1.3223118369337048,-1.5345825973540579,0.2661455760032223
9.163371615,1.6008599487243207,-1.4770841946180857,0.22005095095524005
9.168126511,1.8657106272964652,-1.4110614559896109,0.17174686829038902
9.172881355,2.11329309193085,-1.337127250770851,0.12193978234919889
9.177636251,2.3401000616912397,-1.2559437300810463,0.0713848495557499
9.182391146,2.54272917203417,-1.1682148439100013,0.020873297277837204
9.18714599,2.717926821368192,-1.0746814101310145,-0.028781258152602802
9.191900886,2.862634022716535,-0.9761185361583559,-0.07675721048998405
9.196655782,2.974033720542025,-0.8733349818884718,-0.12223978671492339
9.201410626,3.0495989336208837,-0.7671738879597094,-0.16443605647018333
9.206165521,3.087141004254557,-0.6585141873050511,-0.20258993833646458
9.210920417,3.084857170659233,-0.5482719746846987,-0.23599703692484714
9.215675261,3.041376627311595,-0.43740112613796767,-0.26401913476075006
9.220430157,2.955804189147014,-0.3268925306153523,-0.28609812236158194
9.225185053,2.8277606221482574,-0.21777140805654083,-0.30176909065380836
9.229939949,2.6574186404099414,-0.11109232801072082,-0.3106722482839258
9.234694792,2.445533498278929,-0.007931696112982152,-0.3125632783920758
9.239449688,2.193467031813249,0.09062237043771426,-0.3073217268931197
9.244204584,1.9032039395715992,0.18348271212321526,-0.2949570234060569
9.248959428,1.577359057003625,0.2695781438831808,-0.27561177740114073
9.253714324,1.2191743912433641,0.3478705083054995,-0.2495620625634253
9.258469219,0.8325047607381163,0.41737335842228074,-0.2172144961251093
9.263224063,0.4217910379664341,0.47717178613439026,-0.1791000301400363
9.267978959,-0.007979772070075837,0.5264428531231657,-0.1358644908519511
9.272733855,-0.45132807217530074,0.5644760389842912,-0.08825602292121452
9.277488751,-0.9023489044717836,0.5906930953292404,-0.03710971102091783
9.282243594,-1.3547925084532375,0.6046666843160721,0.016670241892269982
9.28699849,-1.8021573692901462,0.6061371856771783,0.07213030497544677
9.291753386,-2.23779443859613,0.5950270783253825,0.12828882290250596
9.29650823,-2.655020745652528,0.571452341359936,0.1841580145526844
9.301263126,-3.0472401956930515,0.5357303745176015,0.23876611163166706
9.306018021,-3.4080689931241213,0.48838400900790296,0.2911789728098914
9.310772865,-3.731462844276663,0.43014126487669224,0.3405205294110847
9.315527761,-4.011842893950782,0.3619306085471486,0.38599146635879894
9.320282657,-4.244217237732019,0.2848715713914031,0.4268856132756927
9.325037553,-4.424294831882567,0.2002607042086197,0.46260361163577957
9.329792396,-4.548588696885926,0.10955296040506315,0.49266353055421114
9.334547292,-4.614505478852386,0.014338719619846804,0.516708220519176
9.339302188,-4.620418690726795,-0.08368321916549272,0.5345093142328213
9.344057032,-4.565723294560038,-0.18273623269136838,0.5459678999081782
9.348811928,-4.450869695691757,-0.28099950699900345,0.5511119992629149
9.353566824,-4.277375686088127,-0.3766440604364811,0.5500910762634728
9.358321667,-4.047815383374799,-0.4678704176169744,0.543167881421902
9.363076563,-3.765784751504009,-0.5529471191098054,0.5307079991874121
9.367831459,-3.4358438474431057,-0.6302491905038449,0.5131675116591669
9.372586303,-3.063436505989066,-0.6982956518633922,0.4910792189021078
9.377341199,-2.654788742472505,-0.7557851269313655,0.4650378631063549
9.382096094,-2.2167877112056735,-0.8016286124752444,0.4356847902331427
9.38685099,-1.7568435955914463,-0.8349784930291285,0.403692449704065
9.391605834,-1.2827373114103362,-0.855252935547304,0.369749082898436
9.39636073,-0.8024573629364793,-0.8621548724397617,0.3345438891718499
9.401115626,-0.3240295851528474,-0.8556848804290555,0.29875288970778513
9.405870469,0.14465618296054647,-0.836147387045241,0.26302564201834483
9.410625365,0.5960182349158247,-0.8041497862367923,0.22797289969273463
9.415380261,1.0229495795523103,-0.7605942180102959,0.19415527155798634
9.420135157,1.4189746212470922,-0.7066619608539315,0.16207291841916088
9.424890001,1.7783917274856118,-0.6437905947435676,0.1321563364932644
9.429644896,2.096397740431932,-0.5736443099300144,0.10475831144253309
9.434399792,2.369190884518083,-0.4980779543004805,0.08014717678875603
9.439154636,2.59404904447912,-0.41909562090772273,0.0585015619994404
9.443909532,2.7693810312203264,-0.33880476797591896,0.03990685255002154
9.448664428,2.894749202277959,-0.25936702726381955,0.024353592186439735
9.453419324,2.970862635580612,-0.1829469848531167,0.011738029142928274
9.458174167,2.99954093628314,-0.11166030431991694,0.0018649465296791973
9.462929063,2.983649646301117,-0.0475226006061562,-0.0055471656204811575
9.467683959,2.927009082599835,0.007599539381445871,-0.01085862803727335
9.472438803,2.834279214977517,0.05203405672891497,-0.0144988928056106
9.477193699,2.710823877317652,0.08434421989663286,-0.016954846038624294
9.481948594,2.562558168982869,0.10336365663327526,-0.018757318833614534
9.486703438,2.3957833354143263,0.10822474061813683,-0.020466062998038322
9.491458334,2.2170137149426927,0.09837966963126094,-0.022653468706242273
9.49621323,2.0328005003692695,0.07361380185948344,-0.02588732315923988
9.500968126,1.849557088518767,0.03405105108649749,-0.030712943628434568
9.505722969,1.6733906812065673,-0.019848630877427567,-0.03763507068856569
9.510477865,1.509944564135432,-0.08729944473473397,-0.04709997337514896
9.515232761,1.3642551379790575,-0.1672071790152645,-0.05947828268211215
9.519987657,1.2406273227453182,-0.2581932999864044,-0.07504911441980791
9.524742501,1.1425314171102736,-0.3586249710514636,-0.09398605224074512
9.529497396,1.0725238829488863,-0.46665016799049797,-0.11634553126804835
9.534252292,1.032193856589435,-0.5802369733547422,-0.1420580966943682
9.539007136,1.0221364792897807,-0.6972160751382273,-0.1709229207963591
9.543762032,1.0419534090580818,-0.8153254612158504,-0.20260585826068858
9.548516928,1.0902801438523226,-0.9322562918451782,-0.23664121287687714
9.553271824,1.1648390711613854,-1.0456989474839724,-0.27243728301069925
9.558026667,1.262516478466309,-1.153388287244985,-0.3092856493957323
9.562781563,1.3794611297995862,-1.2531472122528897,-0.34637406625977085
9.567536459,1.511201451881815,-1.3429277044569832,-0.3828027171294479
9.572291303,1.6527778947534746,-1.420848600629175,-0.41760350402518964
9.577046199,1.7988866507773953,-1.4852294585608465,-0.44976195849489176
9.581801094,1.9440306447651818,-1.5346199735322983,-0.478241298758626
9.58655599,2.0826735563054197,-1.5678245048329782,-0.5020081088904143
9.591310834,2.209392608774897,-1.583921372820032,-0.520059078721863
9.59606573,2.3190259592328535,-1.582276686177114,-0.531448210205588
9.600820626,2.4068107464568906,-1.5625525565614846,-0.5353138628158268
9.605575521,2.4685081939983413,-1.5247096535666746,-0.5309049785625719
9.610330365,2.5005126106850972,-1.4690041465218306,-0.5176058036896433
9.615085261,2.4999416673096992,-1.3959791704326667,-0.49495841883833347
9.619840157,2.4647059349583356,-1.3064510404196596,-0.46268240968557756
9.624595001,2.393556322245372,-1.2014905213275997,-0.42069105738072116
9.629349896,2.2861087168167353,-1.0823995359085943,-0.36910349789356417
9.634104792,2.142845791845337,-0.9506837657025091,-0.30825238329318966
9.638859688,1.965096556334181,-0.8080216638885143,-0.23868666833249144
9.643614532,1.7549947924493585,-0.656230460279227,-0.1611692398687258
9.648369428,1.5154180251076486,-0.4972297966262319,-0.07666920861310093
9.653124324,1.2499091038077186,-0.33300368552659626,0.013651199383334894
9.657879167,0.9625828398837438,-0.16556153638774526,0.10845507365599866
9.662634063,0.6580204296943285,0.0031009666500955596,0.2062543325954414
9.667388959,0.3411546028633608,0.17104032153830592,0.30543790527183
9.672143855,0.017148563949728537,0.3364021750646297,0.4043039995212357
9.676898699,-0.3087281527104932,0.4974559828020678,0.5010957272810482
9.681653594,-0.6312238185841493,0.6526265748919038,0.5940392432844049
9.68640849,-0.945225633440738,0.8005218914742527,0.6813834701026683
9.691163386,-1.2458749862778427,0.9399562246439459,0.7614404214646594
9.69591823,-1.5286742138827645,1.0699683985610713,0.8326250829723634
9.700673126,-1.7895824668234261,1.1898344350779881,0.893493756105992
9.705428021,-2.0250985782536985,1.2990743868859669,0.9427797226232187
9.710182917,-2.232329147754874,1.3974531696425017,0.9794250626106087
9.714937761,-2.4090404015996794,1.4849753829360093,1.0026074901579283
9.719692657,-2.553692776699741,1.5618742704470339,1.0117611815985976
9.724447553,-2.6654576018718616,1.628595125469398,1.0065907715113394
9.729202396,-2.744215715307834,1.6857735934017364,0.987077968994107
9.733957292,-2.7905383510989927,1.7342094541772304,0.9534805731342313
9.738712188,-2.805651131985319,1.7748365828938075,0.9063240082511618
9.743467084,-2.791382496393328,1.8086898852603064,0.8463858248471213
9.748221928,-2.750098339240979,1.836870085533484,0.7746738964629395
9.752976824,-2.684625032362199,1.8605073078358476,0.6923992684523868
9.757731719,-2.598163289538576,1.8807244352729977,0.6009447709469723
9.762486615,-2.4941955371101847,1.8986012509911971,0.5018305897609701
9.767241511,-2.376389537013,1.9151403549479251,0.39667799752028055
9.771996355,-2.2485009886992544,1.9312358032762327,0.28717239211502016
9.776751251,-2.114277723749441,1.9476453303634034,0.1750266853694164
9.781506146,-1.977367921621457,1.9649668893437595,0.06194594900384742
9.78626099,-1.841234534984412,1.9836200927116883,-0.05040592494823318
9.791015886,-1.709077830445637,2.0038329634688186,-0.16043694159151556
9.795770782,-1.5837676322945584,2.02563423216402,-0.26665463100941544
9.800525678,-1.4677865106806542,2.048851248210745,-0.367690246348077
9.805280521,-1.3631847934477306,2.073113423402405,-0.46231930499068935
9.810035417,-1.2715479184370875,2.0978609961941768,-0.5494783425169795
9.814790313,-1.1939762958839473,2.1223587980254597,-0.6282778281258959
9.819545209,-1.1310775304837322,2.1457146157059888,-0.6980112515809095
9.824300053,-1.0829705680620902,2.166901673088012,-0.7581604389995874
9.829054949,-1.0493010887049852,2.1847846971623985,-0.8083971941818122
9.833809844,-1.029267271496193,2.1981489852749783,-0.8485814003309113
9.83856474,-1.0216549079792439,2.2057318493039215,-0.8787557580878685
9.843319584,-1.0248807399296602,2.20625577856393,-0.8991373798348734
9.84807448,-1.0370428346155944,2.1984626362459982,-0.9101065043882822
9.852829376,-1.055976776588788,2.1811481851763213,-0.9121926371218421
9.857584271,-1.0793164378805038,2.1531962281452275,-0.9060584557122066
9.862339115,-1.1045580789883798,2.1136116463067522,-0.8924818491730764
9.867094011,-1.1291265253217109,2.061551626826982,-0.8723364756856146
9.871848907,-1.1504421560103335,1.9963543894415396,-0.8465712312058684
9.876603803,-1.1659874365530432,1.917564752678261,-0.8161890159169964
9.881358646,-1.1733717294569488,1.8249559258949264,-0.7822251724381791
9.886113542,-1.1703931351989747,1.7185469740724135,-0.7457259541679265
9.890868438,-1.1550961560379605,1.5986154785988427,-0.7077273701479045
9.895623334,-1.1258240406369815,1.4657050078702774,-0.6692347471965471
9.900378178,-1.081264756989144,1.3206271138441255,-0.6312033490853999
9.905133074,-1.0204896501235654,1.1644576811245357,-0.5945203913251239
9.909887969,-0.942983963465343,0.9985275697449211,-0.5599887832611241
9.914642865,-0.8486685335003056,0.8244076077955316,-0.5283129123009881
9.919397709,-0.7379121040617448,0.6438881023865453,-0.5000867551086653
9.924152605,-0.6115338493020037,0.4589531448392423,-0.47578455584393997
9.928907501,-0.4707958452687988,0.27175008656184535,-0.4557542523383865
9.933662344,-0.31738539181183806,0.08455465418522341,-0.44021375991872763
9.93841724,-0.1533872619255267,-0.1002677447698081,-0.42925014362136
9.943172136,0.01875385402308472,-0.2803039012664196,-0.4228216282636455
9.947927032,0.19628023690280305,-0.45313718061560354,-0.42076231789957785
9.952681928,0.376176670887831,-0.6163936503816496,-0.4227894259027821
9.957436771,0.5552337036990486,-0.7677891673453583,-0.42851275642336184
9.962191667,0.7301174894233162,-0.9051765886965365,-0.43744612753838574
9.966946563,0.8974448394146569,-1.026592237231285,-0.44902038559596225
9.971701459,1.053861887707081,-1.1303007216870335,-0.4625976291508331
9.976456303,1.1961245806168082,-1.2148371923860142,-0.4774862408509946
9.981211199,1.3211790419634042,-1.2790461006051672,-0.4929563185945281
9.985966094,1.4262397622396876,-1.3221155294948828,-0.508255104617224
9.99072099,1.508863524827881,-1.3436061770934264,-0.5226220335377895
9.995475834,1.567017020842167,-1.3434741004012913,-0.5353030582444905
10.00023073,1.5991362149942512,-1.322086376464646,-0.5455639658685277
10.00498563,1.6041757011822355,-1.2802289057365652,-0.5527024630355548
10.00974052,1.5816465186718065,-1.2191056792814257,-0.5560588853997626
10.01449536,1.5316411778610581,-1.1403289595190165,-0.5550254651004953
10.01925026,1.4548449602162905,-1.0458999882684505,-0.5490541665501799
10.02400516,1.3525329036258114,-0.938180038153556,-0.5376631732866178
10.02876005,1.2265522569249367,-0.8198518633580877,-0.5204421738268447
10.0335149,1.0792905794377592,-0.6938718787679514,-0.4970566472223523
10.03826979,0.9136300636953528,-0.563413693880159,-0.46725138144270617
10.04302469,0.7328890594338977,-0.4318039365007374,-0.4308534622466274
10.04777958,0.5407521602410011,-0.30245160498771534,-0.38777494335105384
10.05253443,0.3411905659242318,-0.17877246922918844,-0.3380153532230747
10.05728932,0.13837473857430246,-0.06411028365426287,-0.28166411777374234
10.06204422,-0.06341838640281196,0.038343232474852385,-0.21890289179526906
10.06679912,-0.2599012032996499,0.12562756057049299,-0.15000770444283787
10.07155401,-0.44687173277673437,0.195089541526171,-0.07535074317889498
10.07630886,-0.6203078834230812,0.24445437891197405,0.0045984660673442194
10.08106375,-0.7764572183112561,0.2718894110191332,0.08927276848382482
10.08581865,-0.9119199068443535,0.2760587173461041,0.17800827723855303
10.09057354,-1.0237227472768744,0.2561668293214873,0.27004672886391184
10.09532839,-1.1093824084121806,0.21199007553912855,0.36453950708758825
10.10008328,-1.1669563520481343,0.14389440056839758,0.46055346216358406
10.10483818,-1.1950802509864498,0.052838844929376516,0.5570785687142884
10.10959307,-1.1929911000222193,-0.059635747126461365,0.6530373992889261
10.11434792,-1.1605356186561473,-0.19143282594192276,0.7472963539401638
10.11910281,-1.098163954605939,-0.33994066596692996,0.8386785765942767
10.12385771,-1.0069091074915248,-0.5020865448636693,0.9259784955091467
10.1286126,-0.8883528930676156,-0.6744033977866984,1.0079779324080236
10.13336745,-0.744579649484432,-0.8531074050706844,1.083463719049403
10.13812234,-0.5781192355676579,-1.034184640949615,1.1512467312714922
10.14287724,-0.39188117249978105,-1.2134846276301743,1.2101821943974846
10.14763214,-0.1890820198936746,-1.3868184126012486,1.259191031994181
10.15238703,0.02683175735706737,-1.5500586257324298,1.2972819308699193
10.15714188,0.25226309215753506,-1.6992388831347829,1.323573692676228
10.16189677,0.483543451851475,-1.8306498917001113,1.3373173510782614
10.16665167,0.7170095596118307,-1.9409296744942597,1.337917463257073
10.17140656,0.9490756191558642,-2.0271454835817866,1.3249519390152347
10.17616141,1.1762992009303737,-2.086865192201189,1.2981897493876062
10.1809163,1.3954392493215935,-2.118216258748698,1.2576058591741386
10.1856712,1.6035050202421368,-2.1199307235110822,1.203392756513934
10.19042609,1.7977951401071994,-2.091375123928617,1.1359680105046082
10.19518099,1.9759263723035008,-2.0325646793202945,1.0559773750652486
10.19993583,2.135852067376034,-1.9441615815501319,0.9642930694058781
10.20469073,2.2758706413351817,-1.8274577114522434,0.8620069954579292
10.20944563,2.3946247574027737,-1.684342558405603,0.7504187934485589
10.21420052,2.491092166658736,-1.517257530154825,0.6310187829667213
10.21895537,2.5645693821262108,-1.3291381842022878,0.5054659833721947
10.22371026,2.614649513858472,-1.1233461804834668,0.37556154857107704
10.22846516,2.6411956806284835,-0.9035929452363866,0.24321808134592285
10.23322005,2.644311442394426,-0.673857151743257,0.1104254077087929
10.2379749,2.624309674148114,-0.43829817153410555,-0.02078650896894862
10.24272979,2.5816812334419286,-0.2011676365767411,-0.14838674981735497
10.24748469,2.5170646680557587,0.0332788146817448,-0.27038388203048025
10.25223958,2.4312180741527594,0.2608676505374851,-0.384866761796072
10.25699448,2.324994055742412,0.47758961925575133,-0.4900447471408368
10.26174932,2.1993185589082453,0.6796763751615124,-0.5842863267892512
10.26650422,2.0551741627942643,0.8636701697046069,-0.6661551447468312
10.27125912,1.8935882059260682,1.0264854584052387,-0.7344423985915159
10.27601401,1.7156259127763567,1.1654615248405156,-0.7881946224834128
10.28076886,1.522388464397463,1.2784054758461145,-0.8267359427008941
10.28552375,1.315015733646788,1.3636252089521643,-0.8496840191358238
10.29027865,1.0946931879940613,1.419952185199056,-0.8569590596392284
10.29503354,0.8626622613781239,1.4467540502979983,-0.8487855081045705
10.29978839,0.6202333226520071,1.4439373286120818,-0.8256862494642335
10.30454328,0.3688002332501095,1.4119405638940614,-0.7884694298372803
10.30929818,0.10985540010318702,1.3517183972210445,-0.7382082405186026
10.31405307,-0.15499580332016732,1.2647171583172858,-0.6762142430606523
10.31880797,-0.4240223545326305,1.152842606463376,-0.604005005314023
10.32356281,-0.695357675290436,1.018420498407924,-0.5232669672911774
10.32831771,-0.9669934271969611,0.8641506910011449,-0.43581456097820315
10.3330726,-1.2367777949336733,0.6930555135124076,-0.3435466753986966
10.3378275,-1.5024188820396696,0.5084231757260516,-0.24840159524608457
10.3425824,-1.761493676283905,0.3137470181996396,-0.15231155532026167
10.34733724,-2.0114628757845736,0.11266146356900045,-0.0571580484363197
10.35209214,-2.2496917090428106,-0.09112440694653096,0.03527099687333604
10.35684703,-2.47347673393129,-0.2938946517280069,0.12332109137658594
10.36160193,-2.680078461107799,-0.4919945596521943,0.20550709369289236
10.36635677,-2.866759512713094,-0.6818978713090424,0.2805442132534758
10.37111167,-3.0308278922532343,-0.8602718987880544,0.34737327296254994
10.37586656,-3.1696847994380595,-1.0240392650521977,0.40517952879445257
10.38062146,-3.2808762668820632,-1.170434970026625,0.4534045060223841
10.38537636,-3.362147718064833,-1.2970575193397034,0.49175050569370693
10.3901312,-3.411500347054341,-1.4019129290790127,0.5201776576239825
10.39488609,-3.4272480070078855,-1.4834505479073028,0.5388936410094769
10.39964099,-3.4080730803483843,-1.540589814557939,0.5483364510231277
10.40439589,-3.3530796075200304,-1.5727372884497492,0.5491508468553591
10.40915073,-3.261841794265654,-1.579793544434137,0.542159358175387
10.41390563,-3.1344459205285085,-1.562149796738763,0.5283289358949145
10.41866052,-2.9715236568744867,-1.5206743974740842,0.5087344933170974
10.42341542,-2.7742748725584616,-1.4566896273547578,0.48452068257439257
10.42817026,-2.544478202915122,-1.3719394482720968,0.45686328085899397
10.43292516,-2.2844879352166725,-1.268549109632153,0.4269315189744469
10.43768005,-1.9972161665473724,-1.148977686398035,0.39585257473960767
10.44243495,-1.68609967247097,-1.0159647722774336,0.3646792853208635
10.44718984,-1.3550514818161088,-0.8724726539667276,0.3343619207586347
10.45194469,-1.0083977532683002,-0.7216253507531337,0.30572462522957916
10.45669958,-0.6508011594297483,-0.566645918205117,0.2794468945787937
10.46145448,-0.2871725676584539,-0.410793386214182,0.2560502391666927
10.46620938,0.07742666728590622,-0.25730063257557567,0.23588999697578614
10.47096422,0.4378890405772306,-0.10931438792508842,0.21915212396862754
10.47571912,0.7891687648448722,0.030161566801133178,0.20585470034512898
10.48047401,1.1263898443777198,0.15831910359496776,0.19585384814325452
10.48522891,1.4449509415554607,0.27259360756920237,0.18885374510397454
10.4899838,1.7406236759769906,0.37070641109368224,0.18442042287456906
10.49473865,2.0096412067547362,0.4507013676282716,0.1819990327105014
10.49949354,2.2487743148519845,0.5109752610082203,0.18093423026240585
10.50424844,2.4553927138762432,0.5503018537866128,0.1804932632703975
10.50900333,2.6275099471778707,0.5678494640544532,0.1798912449792157
10.51375823,2.7638109333663654,0.5631920268340741,0.17831797700794846
10.51851307,2.8636619466230457,0.5363136482539821,0.17496557175765462
10.52326797,2.927103503655798,0.48760670367228676,0.16905604133893218
10.52802286,2.95482722380525,0.41786357037240174,0.15986798707324365
10.53277776,2.9481381984308124,0.32826212660104237,0.14676155044968045
10.5375326,2.9089047392772835,0.22034519555361515,0.1292008715916747
10.5422875,2.8394975817355075,0.09599416790384552,0.10677343380865265
10.5470424,2.7427207168123395,-0.0426028993537212,0.07920583447916074
10.55179729,2.6217360360426043,-0.1929883368674598,0.04637569106014994
10.55655219,2.4799839149151723,-0.35247661803721586,0.008319544273595075
10.56130703,2.321101748589853,-0.5182002769546072,-0.03476325861112782
10.56606193,2.1488423041768887,-0.6871593600175261,-0.08251063677788732
10.57081682,1.9669935827328004,-0.8562736883750173,-0.1344016978046151
10.57557172,1.7793017069071304,-1.0224371134143015,-0.1897643820222033
10.58032656,1.5893981787719913,-1.182572854174652,-0.24778669059126524
10.58508146,1.4007326925936698,-1.3336889189515764,-0.30753133582455544
10.58983636,1.2165125385863118,-1.4729325409171743,-0.36795360593599913
10.59459125,1.0396494909913367,-1.5976425083609196,-0.42792216163638663
10.59934609,0.8727149305669213,-1.7053982530637768,-0.4862423838278141
10.60410099,0.7179038021136311,-1.7940645822027272,-0.5416817839268809
10.60885589,0.5770078485641985,-1.8618310033693928,-0.5929968898338603
10.61361078,0.45139839292591905,-1.90724469825991,-0.638960949374167
10.61836568,0.3420187573968929,-1.929236344736151,-0.6783917616270471
10.62312052,0.2493862153045422,-1.9271381635788947,-0.7101789588233323
10.62787542,0.1736031678388502,-1.9006937681594176,-0.7333101122931952
10.63263031,0.11437702850415286,-1.8500596138248995,-0.746895112738666
10.63738521,0.0710480911931959,-1.775798069066384,-0.7501883614668687
10.64214011,0.042624461528448926,-1.678862351933576,-0.7426083895121334
10.64689495,0.02782295445272243,-1.5605737828132153,-0.7237545853876547
10.65164984,0.02511471273657134,-1.4225919906149558,-0.6934207568136989
10.65640474,0.032774190049292884,-1.2668788677754772,-0.6516052814438208
10.66115964,0.04893007736666262,-1.0956571961942585,-0.5985176242015844
10.66591448,0.07161674022549891,-0.9113649585443984,-0.5345810218277345
10.67066938,0.09882478069881098,-0.7166064062341942,-0.4604311637164919
10.67542427,0.12854944055841178,-0.5141009776549147,-0.3769107352952196
10.68017917,0.15883571341680536,-0.3066311516917329,-0.28505973889062997
10.68493406,0.18781922135277093,-0.09699028710006227,-0.18610157024787233
10.68968891,0.21376212100432673,0.11206855570459347,-0.08142490912258211
10.6944438,0.23508352089336093,0.3178818817097641,0.027438419423383282
10.6991987,0.25038410298534436,0.5179222647300065,0.1388393416768825
10.70395359,0.25846483693183586,0.7098413150748067,0.25104079208543995
10.70870844,0.25833984842679664,0.8915084210607633,0.3622498029791683
10.71346333,0.24924365102993004,1.0610446558898685,0.47065177900142613
10.71821823,0.23063307444838677,1.2168513237249177,0.57444620662289
10.72297313,0.20218432423768573,1.3576327023598291,0.6718829744881466
10.72772802,0.16378569095379628,1.4824126258682049,0.7612984347846656
10.73248287,0.11552649265213649,1.5905446406482717,0.8411503174345594
10.73723776,0.05768288352945777,1.6817155646474005,0.9100506131335807
10.74199266,-0.009298807542313669,1.7559423845786462,0.9667955623353512
10.74674755,-0.0848205338962858,1.8135625408350393,1.0103919204464145
10.7515024,-0.1681521207629792,1.8552177737116409,1.0400787146415758
10.75625729,-0.258451363650874,1.881831834435266,1.0553437726469448
10.76101219,-0.35478407837113335,1.8945824958786803,1.0559344037547012
10.76576708,-0.45614364047765693,1.894868425955187,1.0418617633645724
10.77052198,-0.5614696689097531,1.8842716077760713,1.0133986416621028
10.77527682,-0.6696656374099064,1.8645161025152004,0.9710706753352152
10.78003172,-0.7796153238247296,1.837424052684079,0.9156412627201882
10.78478662,-0.8901981162673052,1.8048699146347198,0.8480907330652732
10.78954151,-1.0003032719860308,1.7687339880118509,0.7695905481745149
10.79429641,-1.1088432589718238,1.7308563725122972,0.6814734803232508
10.79905125,-1.2147662974541753,1.6929925210966486,0.5852008104831778
10.80380615,-1.3170681630424599,1.6567715630104627,0.48232763414456375
10.80856104,-1.414803230565309,1.6236585280772955,0.3744673608538345
10.81331594,-1.507094651318216,1.594921507037729,0.2632564562828327
10.81807078,-1.5931434908632367,1.5716046289146632,0.15032040403833113
10.82282568,-1.672236625515866,1.5545075315802355,0.03724175901197727
10.82758057,-1.7437532056471636,1.54417176009967,-0.0744689693217672
10.83233547,-1.8071695340435943,1.540874268811575,-0.18339901501340772
10.83709031,-1.8620622635393886,1.544627948900217,-0.28825520091389983
10.84184521,-1.9081098764683428,1.555188872490063,-0.3878816487453718
10.8466001,-1.9450924601316522,1.5720697508369659,-0.4812732169099477
10.851355,-1.9728898332053548,1.5945589554365733,-0.567584662709251
10.8561099,-1.9914781067243998,1.621744348437566,-0.6461356411055255
10.86086474,-2.000924780505324,1.6525411096068856,-0.7164117453577746
10.86561964,-2.0013824832418377,1.6857227245926707,-0.778061868549579
10.87037453,-1.993081464950038,1.7199543040609493,-0.8308922269137331
10.87512943,-1.9763209483820146,1.7538274249421746,-0.8748574421041929
10.87988432,-1.9514594471648985,1.785895713975679,-0.9100491296331354
10.88463917,-1.9189041687864938,1.8147104236915153,-0.9366824784908262
10.88939406,-1.8790996451121884,1.838855280067314,-0.9550813266189303
10.89414896,-1.8325157744495346,1.856979911240036,-0.9656622373329775
10.89890386,-1.7796355163698607,1.8678312014383114,-0.9689180664107894
10.90365875,-1.7209425485115932,1.8702819569770828,-0.965401482564076
10.90841359,-1.656909264446496,1.8633563235337707,-0.9557088672511002
10.91316849,-1.5879855518191985,1.8462514564342982,-0.9404649728534679
10.91792339,-1.514588828565935,1.8183550181470982,-0.9203086605208047
10.92267823,-1.4370958228407562,1.7792581596582842,-0.8958799713905949
10.92743313,-1.355836554851767,1.7287637353406275,-0.8678087104305331
10.93218802,-1.2710909169144406,1.6668896045736254,-0.8367046458621362
10.93694292,-1.1830881566193272,1.5938669867476036,-0.8031493550948523
10.94169776,-1.0920094546367876,1.510133956628531,-0.767689685515053
10.94645266,-0.9979936617554872,1.4163242900269222,-0.7308327480842103
10.95120755,-0.901146126604506,1.313251990101294,-0.6930423243143488
10.95596245,-0.8015504110185108,1.201891937197468,-0.6547365435560415
10.96071734,-0.6992825568587876,1.083357205262457,-0.6162866789606247
10.96547219,-0.5944274384422761,0.9588736719253661,-0.5780169168963238
10.97022708,-0.4870966118846275,0.8297526146183059,-0.5402049723857824
10.97498198,-0.3774469620937852,0.6973620296104663,-0.5030834457351102
10.97973688,-0.2656993574608689,0.5630974329360734,-0.4668418365348183
10.98449177,-0.15215646020381707,0.4283529006799926,-0.4316291468097606
10.98924662,-0.03721881476028802,0.2944930803804482,-0.3975570138430606
10.99400151,0.0786016471441052,0.16282685597202096,-0.36470331417833113
10.99875641,0.19467148655824193,0.03458327780987652,-0.33311617209706185
11.0035113,0.31022972377061114,-0.08910971942210828,-0.302818287556083
11.00826615,0.4243864570362492,-0.2072433899001312,-0.27381147138681033
11.01302104,0.5361265381832886,-0.3189427296273743,-0.24608124353874852
11.01777594,0.6443185331246017,-0.4234773106512911,-0.21960131971359723
11.02253083,0.7477290132570149,-0.5202683096588504,-0.19433779057731682
11.02728573,0.8450420439048485,-0.6088917511478883,-0.17025279293695522
11.03204057,0.934883563351342,-0.6890780851879394,-0.14730748804222457
11.03679547,1.015850183794011,-0.7607083101580506,-0.12546419836622993
11.04155036,1.0865417963160673,-0.8238069297814414,-0.10468760638248023
11.04630526,1.1455972281043922,-0.8785320994432484,-0.0849449799445535
11.05106011,1.1917320838883343,-0.9251633677542663,-0.06620545183063228
11.055815,1.2237778068950544,-0.9640874549141777,-0.048438440574682315
11.0605699,1.2407209194053663,-0.9957825299706923,-0.03161135225094446
11.06532479,1.2417413515003093,-1.020801455941318,-0.015686744991176997
11.07007964,1.22624874190757,-1.0397544669001113,-0.0006191658667465894
11.07483453,1.193915600645865,-1.053291726396719,0.01364811935484005
11.07958943,1.1447062622657769,-1.0620861933908932,0.027186288287736643
11.08434432,1.0789006314871863,-1.0668171911835327,0.040083816554169
11.08909922,0.9971118279829592,-1.0681550372126285,0.05244884483441915
11.09385406,0.9002969701990496,-1.0667470476991376,0.06441089431252653
11.09860896,0.7897604947676016,-1.0632051819377764,0.0761217774261592
11.10336386,0.6671495831777723,-1.058095537655526,0.08775555871547766
11.10811875,0.5344414554720209,-1.0519298521201694,0.09950743002539476
11.11287359,0.3939224859793459,-1.045159103879401,0.1115913809233848
11.11762849,0.2481592923806287,-1.0381692472096975,0.12423657459194058
11.12238339,0.09996214079622821,-1.0312790458474033,0.1376823860768423
11.12713828,-0.04765880905935263,-1.024739905406344,0.15217212455935128
11.13189318,-0.19154372709516657,-1.0187375371704315,0.16794553968184772
11.13664802,-0.3284389613967238,-1.0133952227004153,0.1852302942375475
11.14140292,-0.4550575344784021,-1.0087783923144151,0.20423266048498778
11.14615781,-0.5681431920391823,-1.0049001843767718,0.22512775619975856
11.15091271,-0.6645368087319673,-1.0017276196819032,0.2480496749265864
11.15566755,-0.7412438729340683,-0.9991880090570514,0.27308188214744733
11.16042245,-0.795501708207756,-0.9971752152100685,0.30024824726916693
11.16517734,-0.8248450433910308,-0.9955554135238056,0.3295050644556907
11.16993224,-0.8271685168910403,-0.9941720413625502,0.360734388600396
11.17468714,-0.800784695959713,-0.9928496905502543,0.3937389809814592
11.17944198,-0.7444762123898822,-0.9913967808846643,0.42823912501778333
11.18419688,-0.6575406672512177,-0.9896069507094252,0.46387153598591124
11.18895177,-0.5398270441463999,-0.9872592093332322,0.5001905478851493
11.19370667,-0.39176249690584714,-0.984117009760044,0.5366717140533085
11.19846151,-0.21436854525362678,-0.9799265118660222,0.5727179045113902
11.20321641,-0.009265919661067249,-0.9744144082060139,0.6076679219058347
11.2079713,0.22133245964220213,-0.9672857694049205,0.6408075894576142
11.2127262,0.4746406119281195,-0.9582224264808091,0.6713831894327636
11.21748104,0.7473306848555153,-0.946882437134395,0.6986170513002294
11.22223594,1.035575857207128,-0.9329011765891473,0.7217250077972612
11.22699083,1.33510431911558,-0.9158945468554978,0.7399353574454579
11.23174573,1.641263420550233,-0.895464709382799,0.7525088957549926
11.23650057,1.9490928327901405,-0.8712086161973218,0.7587595061922964
11.24125547,2.2534053554403237,-0.8427294488600532,0.758074739067437
11.24601036,2.5488738287748185,-0.8096508816726695,0.7499357576835517
11.25076526,2.830122482393731,-0.7716338771893879,0.7339360044865827
11.2555201,3.0918209699871317,-0.7283955118100179,0.7097979429832385
11.260275,3.328779307962988,-0.6797291314603873,0.677387266748235
11.2650299,3.536041950897813,-0.6255249664540029,0.6367240312730211
11.26978479,3.708979293330237,-0.565790203872149,0.5879902494927467
11.27453969,3.84337497640715,-0.5006674364263368,0.5315335897508429
11.27929453,3.935507489177165,-0.4304503868722903,0.4678669225554448
11.28404943,3.982224678731188,-0.3555958506230975,0.39766358152440795
11.28880432,3.9810099143686113,-0.2767309055332018,0.32174833763148175
11.29355922,3.9300387849953147,-0.19465460148937494,0.24108423432259976
11.29831406,3.828225344733131,-0.11033355407961037,0.15675558815920307
11.30306896,3.6752570591751432,-0.02489111386190106,0.06994761306576001
11.30782386,3.4716177444893894,0.06040994863410538,-0.018076739555928683
11.31257875,3.218597934766995,0.1441910268168829,-0.10600203185634857
11.31733359,2.9182922612737645,0.22498704732438038,-0.1924869300334749
11.32208849,2.5735835831107123,0.30128089157639976,-0.2761913669522223
11.32684339,2.1881137757194633,0.3715419147298855,-0.35580353148115956
11.33159828,1.7662412654214827,0.4342674206668378,-0.4300659898868372
11.33635318,1.3129855973123166,0.4880258061891924,-0.4978003149864128
11.34110802,0.8339595406017142,0.5314999876257027,-0.5579296808468875
11.34586292,0.33528946767803963,0.5635296715429591,-0.6094989687137544
11.35061781,-0.17647501331660537,0.5831510295710955,-0.6516920196669791
11.35537271,-0.69446094290511,0.5896323852054216,-0.6838457590388258
11.3601276,-1.2115799320593716,0.5825046159410957,-0.7054610055967866
11.36488245,-1.720642398284149,0.5615851140453231,-0.7162098635552145
11.36963734,-2.214476165823838,0.5269943295147915,-0.7159396755988161
11.37439224,-2.6860472813736176,0.47916413435729743,-0.7046735876704328
11.37914708,-3.1285807404269703,0.4188374924689732,-0.6826078390390201
11.38390198,-3.5356787174234885,0.3470591872181179,-0.6501059434817316
11.38865688,-3.901433853704915,0.2651576413598706,-0.607689970915135
11.39341177,-4.220535185386635,0.17471815184691453,-0.5560291766392302
11.39816667,-4.488364389756485,0.07754814540937353,-0.4959262602239661
11.40292151,-4.70108019256271,-0.024364670715748778,-0.4283015683977208
11.40767641,-4.855689006399151,-0.12890014453251866,-0.354175583810491
11.4124313,-4.950100156891923,-0.23385817268672038,-0.27465006052180263
11.4171862,-4.983164390594194,-0.3370143539388056,-0.1908881744265917
11.42194104,-4.954694736374869,-0.43617718497551056,-0.10409405184722609
11.42669594,-4.865469199074248,-0.5292451145240261,-0.015492024614981547
11.43145083,-4.7172151872443315,-0.6142617627161505,0.0736940591720991
11.43620573,-4.512576001396777,-0.6894676625712387,0.1622611548160179
11.44096057,-4.255060120280315,-0.7533469889914168,0.24904666072061965
11.44571547,-3.9489744061270047,-0.8046679048737317,0.33294705563649546
11.45047037,-3.5993426933482686,-0.8425153677107164,0.4129351868778917
11.45522526,-3.2118115191878864,-0.8663154937476831,0.4880758381501249
11.45998011,-2.7925449929523585,-0.8758508575970678,0.5575391948569448
11.464735,-2.3481109803363776,-0.8712663984898701,0.620611839732394
11.4694899,-1.8853609030601608,-0.8530658955874353,0.676704956366747
11.47424479,-1.4113055268576955,-0.8220992516174134,0.7253594887407393
11.47899964,-0.9329891394806955,-0.7795410772176791,0.7662480930456056
11.48375453,-0.4573645108857053,-0.7268612915626295,0.7991738161192947
11.48850943,0.008829015575531441,-0.6657886445427541,0.8240655384100912
11.49326432,0.459182026995187,-0.5982682202325993,0.8409703271532356
11.49801917,0.8877239711825108,-0.5264140998742042,0.8500429565199061
11.50277406,1.2890224805211943,-0.4524584448924612,0.8515329629932054
11.50752896,1.6582712231988765,-0.37869830666635607,0.8457697106763179
11.51228386,1.9913646140267633,-0.30744148042081937,0.8331460357219308
11.5170387,2.284957947944283,-0.24095269684926715,0.8141011148784253
11.52179359,2.536511782532888,-0.18140138911971426,0.7891032547026504
11.52654849,2.7443196905675413,-0.13081218813664164,0.7586333208052864
11.53130339,2.907518828254878,-0.09101918975004407,0.7231695171027223
11.53605823,3.0260831168578584,-0.06362490918276782,0.6831741814310922
11.54081313,3.100799210743663,-0.049964695802379715,0.639083185702564
11.54556802,3.133225816729688,-0.051077230901357504,0.5912984170317789
11.55032292,3.125637327813474,-0.06768157719585345,0.5401836731070341
11.55507776,3.0809531254732105,-0.10016109524119578,0.48606413472097565
11.55983266,3.002654272693393,-0.1485543917999507,0.4292293881455613
11.56458755,2.894689647840782,-0.21255332019642562,0.3699397708249566
11.56934245,2.761373842108573,-0.29150791370049706,0.30843561944521025
11.57409729,2.6072793486662262,-0.3844380005610116,0.2449488248273428
11.57885219,2.43712570267562,-0.4900511246802686,0.17971595716898026
11.58360708,2.255668285089814,-0.6067662814501662,0.11299212845185613
11.58836198,2.0675894803654975,-0.7327428769763831,0.045064712359258845
11.59311682,1.8773947823909416,-0.8659142335591877,-0.023733952523160122
11.59787172,1.6893162791384517,-1.0040248970481778,-0.09301569518015543
11.60262662,1.5072257198522414,-1.1446709545054323,-0.1623281993148001
11.60738151,1.3345590830367529,-1.2853425453206957,-0.23114982696369588
11.61213636,1.1742542230684772,-1.423467746362866,-0.2988879949701127
11.61689125,1.0287027844940173,-1.5564570308261998,-0.36488133775958975
11.62164615,0.8997171480495744,-1.6817475380529525,-0.4284057015016133
11.62640104,0.7885127292511191,-1.79684644341338,-0.4886838335274688
11.63115589,0.6957055106558905,-1.8993727783126448,-0.5448984681522003
11.63591078,0.621324273592469,-1.9870971154704091,-0.5962083746316154
11.64066568,0.5648366215384671,-2.057978599171033,-0.6417668302654399
11.64542057,0.5251875676518734,-2.1101988607194353,-0.6807419128605786
11.65017542,0.5008492009359923,-2.1421924138047297,-0.7123379689497339
11.65493031,0.48987975314486887,-2.1526731721508177,-0.7358176015251617
11.65968521,0.4899902622666736,-2.1406567729615835,-0.7505235269387392
11.6644401,0.4986169647740279,-2.1054784250957885,-0.7558996691118454
11.66919495,0.5129975407798152,-2.0468060320359958,-0.7515108858797088
11.67394984,0.5302493748285589,-1.9646483687292415,-0.7370607546396145
11.67870474,0.5474480711417932,-1.8593581214879833,-0.7124068825467894
11.68345964,0.5617045671047495,-1.7316296355912313,-0.6775732537179973
11.68821448,0.5702393143779075,-1.5824912607139836,-0.632759188079301
11.69296938,0.5704521353807596,-1.4132922438826674,-0.5783445682281746
11.69772427,0.5599865074351269,-1.2256841956904572,-0.5148910909042815
11.70247917,0.5367871735096109,-1.0215972483147733,-0.4431394101243433
11.70723401,0.4991501262171127,-0.8032111317976145,-0.3640021478377911
11.71198891,0.44576416129559276,-0.5729215149129807,-0.27855284605428454
11.7167438,0.3757433489415888,-0.3333020847347065,-0.1880110202063611
11.7214987,0.2886499257500461,-0.0870629702340105,-0.09372355264146943
11.72625354,0.18450726621414806,0.16299375544885203,0.002857254232167506
11.73100844,0.06380275144985412,0.41402063902354663,0.1001985588533906
11.73576333,-0.07251948385743322,0.6631725200115328,0.1967142992966573
11.74051823,-0.22307577446150864,0.9076542813890581,0.2907943708044013
11.74527307,-0.3860697854539095,1.1447676102316295,0.3808350188888567
11.75002797,-0.5593284909445434,1.3719557070785726,0.46526976802166564
11.75478287,-0.7403465613577767,1.58684493227056,0.5426001978468296
11.75953771,-0.926338270703354,1.7872824660477387,0.6114258940232686
11.76429261,-1.1142958759106674,1.9713691797762949,0.6704729289650257
11.7690475,-1.3010532880896324,2.1374870602939353,0.7186202581505493
11.7738024,-1.4833537517194824,2.28432069022464,0.7549234438689526
11.77855724,-1.6579201690595,2.4108724571460916,0.778635140328435
11.78331214,-1.8215266490279938,2.516471337356635,0.7892217974192207
11.78806703,-1.9710698202167736,2.600775269741228,0.7863760741339186
11.79282193,-2.1036384282818337,2.663767296173178,0.7700245089546041
11.79757677,-2.2165797432269234,2.7057457918679333,0.7403300879346396
11.80233167,-2.3075613373781576,2.7273092380680986,0.6976894934137008
11.80708656,-2.3746268641251422,2.7293360976014727,0.642725007644576
11.81184141,-2.4162445715936975,2.7129604395581755,0.5762712695042777
11.8165963,-2.431347420882939,2.6795440218563025,0.4993573086400806
11.8213512,-2.419363838338647,2.6306455796945105,0.41318447644527856
11.82610609,-2.3802383075070743,2.5679880836143374,0.3191010313336575
11.83086094,-2.3144411930291664,2.4934247222266643,0.21857420515073114
11.83561583,-2.222967383792059,2.4089043304835274,0.11316058326175508
11.84037073,-2.107323547156861,2.316436924914288,0.004475592399119496
11.84512563,-1.9695040017634453,2.218059925810974,-0.10583716789202831
11.84988047,-1.8119554440130672,2.1158055502605637,-0.216136075732563
11.85463536,-1.6375310017319875,2.011669759624246,-0.32481050635492165
11.85939026,-1.4494343341343263,1.9075830514788175,-0.4303081756699168
11.8641451,-1.2511547437170158,1.8053833075309649,-0.5311603444995595
11.8689,-1.046394504967518,1.7067908495196435,-0.6260045152020084
11.8736549,-0.8389898388925773,1.6133858139414903,-0.7136043549963494
11.87840979,-0.6328271661909421,1.5265879295194675,-0.7928666799704006
11.88316464,-0.4317564534677803,1.4476387634358467,-0.8628554195213398
11.88791953,-0.23950362517829238,1.3775864892440772,-0.9228025432159289
11.89267443,-0.05958414447358968,1.3172732192778214,-0.9721159648162904
11.89742932,0.10478004234438325,1.267324938046084,-1.0103844426228192
11.90218417,0.2507379674921418,1.2281440727286985,-1.0373794818079705
11.90693906,0.37587931790314205,1.1999047442927235,-1.0530542306530404
11.91169396,0.4782942606348862,1.1825507576484509,-1.0575393664647044
11.9164488,0.5566215701052449,1.1757964084777974,-1.0511359992490354
11.9212037,0.6100835132904744,1.1791302027114248,-1.0343056820157892
11.92595859,0.6385063236646845,1.191821596930001,-1.0076576966070545
11.93071349,0.6423255203224274,1.2129308707737092,-0.9719338696648911
11.93546833,0.6225757826671396,1.241322234361876,-0.9279912528956188
11.94022323,0.5808655511311808,1.2756802543894799,-0.8767830685434749
11.94497813,0.51933697095064,1.3145296512791973,-0.8193383732707045
11.94973302,0.4406122118380896,1.356258474798394,-0.756740931490934
11.95448786,0.3477275663970902,1.3991446045223621,-0.6901078110961001
11.95924276,0.24405704216137405,1.4413854423775985,-0.6205682166560406
11.96399766,0.1332274086817074,1.4811305664195409,-0.5492430541064678
11.9687525,0.019026840397768557,1.5165169991858996,-0.4772256773906416
11.9735074,-0.09469058818087539,1.545706614252829,-0.4055642075036069
11.97826229,-0.20410223919286513,1.566925067683232,-0.33524574588911205
11.98301719,-0.3055137540908978,1.5785015058407699,-0.2671827320520598
11.98777203,-0.3954531096544772,1.5789081774976796,-0.20220161975462558
11.99252693,-0.4707596682275244,1.5667989759533516,-0.14103396642955351
11.99728182,-0.5286661144736838,1.5410458647041176,-0.08430994982523758
12.00203667,-0.5668713183795665,1.500772105521508,-0.03255425317355328
12.00679156,-0.5836023461352124,1.4453812163105713,0.013815794786318815
12.01154646,-0.5776640562430462,1.37458064096472,0.05448997115900258
12.01630136,-0.5484749682315926,1.2883992144795586,0.08926296143477329
12.0210562,-0.4960883766157863,1.1871976501744235,0.11803037614575544
12.02581109,-0.421198003215685,1.0716714551432605,0.14078314550914783
12.03056599,-0.325127834097205,0.9428458860165166,0.15760046013105317
12.03532083,-0.2098061674712239,0.8020627800610947,0.16864143657628008
12.04007573,-0.07772429706231275,0.6509593274068469,0.17413570659619226
12.04483063,0.0681193396183509,0.49143908073211606,0.17437315996514022
12.04958552,0.22428832032255697,0.3256357221674912,0.16969311213045393
12.05434037,0.3869890992179985,0.15587031753082062,0.16047321338961887
12.05909526,0.5521616221660071,-0.015397019766008716,0.14711845652163688
12.06385016,0.7155774521373969,-0.1856199629495471,0.13005066523026373
12.068605,0.8729429214402807,-0.35222206848711063,0.10969885079628267
12.0733599,1.020004652899038,-0.5126547858515226,0.0864908082824724
12.07811479,1.1526546897824836,-0.6644559514781708,0.06084628827581446
12.08286964,1.2670324516910674,-0.8053072944309104,0.03317202592838092
12.08762453,1.3596207979611263,-0.9330894756117507,0.003858832875387335
12.09237943,1.4273336360082332,-1.0459332156617462,-0.02671914570580114
12.09713432,1.4675927586610287,-1.1422651400557038,-0.05820303938392287
12.10188917,1.4783919237728158,-1.2208470835723182,-0.09024591262108217
12.10664406,1.4583465852684425,-1.2808077485039817,-0.12250782588887424
12.11139896,1.4067281258086517,-1.3216657969288859,-0.1546497924519669
12.1161538,1.3234819048412727,-1.3433436702576849,-0.18632723104140056
12.1209087,1.20922890226681,-1.346171662200428,-0.2171835645666711
12.12566359,1.065251192311,-1.3308820190802442,-0.24684460477131195
12.13041849,0.893461914011648,-1.2985931005777298,-0.2749142980854365
12.13517333,0.6963608067087527,-1.2507839013109276,-0.30097230163541655
12.13992823,0.4769767451214411,-1.1892595044664809,-0.3245737257959879
12.14468313,0.2387990322665672,-1.1161083058251755,-0.3452512350160121
12.14943797,-0.014300519648267871,-1.0336521000768737,-0.36251955329425617
12.15419286,-0.27815248216146854,-0.9443903491545474,-0.37588228320738376
12.15894776,-0.5483793075955788,-0.8509401412961551,-0.3848408235924374
12.16370266,-0.8204870150955906,-0.755973487633689,-0.3889050636373639
12.1684575,-1.08995669419368,-0.6621536817252879,-0.3876054407883909
12.1732124,-1.3523335816542656,-0.572072462859279,-0.3805058767523621
12.17796729,-1.6033116660495825,-0.4881896772600937,-0.36721705139031263
12.18272214,-1.838812028728046,-0.4127770275461383,-0.3474094414565725
12.18747703,-2.0550534222529753,-0.3478673478031437,-0.3208255440417578
12.19223193,-2.2486139010459354,-0.2952106489162122,-0.2872907282941321
12.19698677,-2.4164826385867237,-0.256237956128827,-0.2467222195414086
12.20174167,-2.556101378369205,-0.2320337172428627,-0.19913582237250416
12.20649656,-2.665395261953146,-0.22331730321619506,-0.1446501326793756
12.21125141,-2.7427930495861537,-0.2304338594585608,-0.08348816142164803
12.2160063,-2.787236992104298,-0.25335450107547297,-0.015976472999825894
12.2207612,-2.798182824489934,-0.2916855836072,0.057457897009663014
12.22551609,-2.7755905308638775,-0.3446865280426305,0.1362923576975975
12.23027094,-2.7199066785534995,-0.41129544187026373,0.2199150545765905
12.23502583,-2.632039236443208,-0.49016156476065836,0.30763206259995757
12.23978073,-2.513325880502979,-0.5796833870222803,0.3986750361462323
12.24453557,-2.365496846053813,-0.678051149905034,0.49220893927179366
12.24929047,-2.190633410065185,-0.78329234650982,0.5873395754492431
12.25404537,-1.9911230769758521,-0.8933188056096203,0.6831207544303676
12.25880021,-1.7696125004885264,-1.0059739603613629,0.778561069651491
12.2635551,-1.5289591068617665,-1.1190789789224422,0.872630403673201
12.26831,-1.2721822998177619,-1.2304765606331793,0.964266416024194
12.2730649,-1.0024150316321123,-1.3380713730309437,1.052381377561224
12.27781974,-0.7228564276781615,-1.4398663121836868,1.1358697793174477
12.28257464,-0.4367260603766762,-1.5339940002231678,1.2136171504038284
12.28732953,-0.1472203892514376,-1.618743176687642,1.2845104682753645
12.29208438,0.14252817974240087,-1.692579880680982,1.3474504451174425
12.29683927,0.42948920947903585,-1.7541635450058464,1.4013658419020392
12.30159417,0.71076874789773,-1.8023583182873586,1.4452298131670085
12.30634901,0.9836400941628917,-1.836240086032447,1.478078133180886
12.31110391,1.245570483263605,-1.8550997695543108,1.4990290044188708
12.3158588,1.4942433832810729,-1.8584435398423829,1.5073040045669037
12.32061365,1.7275761414866795,-1.845990593068698,1.5022495906450575
12.32536854,1.943732781963575,-1.8176691006019783,1.4833584534320294
12.33012344,2.141131852495921,-1.7736108769599432,1.4502899113614132
12.33487833,2.3184493403881294,-1.7141452129741908,1.402888462259122
12.33963318,2.474616819496984,-1.6397922073225426,1.3411995859068144
12.34438807,2.608815145686326,-1.5512558056646235,1.2654819210979291
12.34914297,2.720464176218509,-1.4494166306653427,1.1762150345342826
12.35389781,2.809209140953415,-1.3353245659171293,1.0741021558294188
12.35865271,2.8749044293011554,-1.2101909498202388,0.9600674638461271
12.3634076,2.917595665333875,-1.075380148812479,0.8352477556037721
12.36816245,2.937501012925965,-0.9324002183810784,0.7009785844404924
12.37291734,2.934992673497309,-0.7828923286291896,0.5587751929466774
12.37767224,2.9105795048870213,-0.6286186307231585,0.41030876878548456
12.38242708,2.864891600554797,-0.4714482712023191,0.2573787091342037
12.38718198,2.798667528428767,-0.31334131984049135,0.10188169367988258
12.39193688,2.712744746330242,-0.15633045737975096,-0.054221556290311
12.39669177,2.6080534955761143,-0.0025003641475423296,-0.20894090814877891
12.40144662,2.485614236933449,0.146035148506824,-0.3602918949147844
12.40620151,2.3465384461635264,0.2871581217696649,-0.5063303097184838
12.41095641,2.1920323439379525,0.4187733121432156,-0.6451854372180034
12.41571125,2.023402910774416,0.5388366157822,-0.7750911278427136
12.42046615,1.8420653436972794,0.6453846700715682,-0.8944140436597685
12.42522104,1.6495509569365847,0.7365651982539965,-1.0016785588951787
12.42997589,1.4475144220537715,0.8106676291223908,-1.0955879741423233
12.43473078,1.23773919111423,0.8661535034750824,-1.175041886804132
12.43948568,1.0221399572005498,0.9016861682687783,-1.2391497328035945
12.44424052,0.8027610851738194,0.9161592536895841,-1.287240656189526
12.44899542,0.5817700943865848,0.9087234233239868,-1.3188699580509622
12.45375031,0.36144549196984627,0.878810879632256,-1.3338224168954254
12.45850516,0.1441585333050159,0.8261570937258108,-1.3321127621244289
12.46326005,-0.06765118703255547,0.7508192097692585,-1.3139835313154198
12.46801495,-0.2715060528680852,0.6531905525779714,-1.2799004661922868
12.47276979,-0.46492602530547716,0.5340106474026345,-1.2305455180400449
12.47752469,-0.6454685466866157,0.3943701509142812,-1.1668074558304753
12.48227958,-0.8107714679627349,0.23571010047278795,-1.089770011265966
12.48703443,-0.9585974781135684,0.05981492309585293,-1.0006974626585117
12.49178932,-1.0868783559787523,-0.13120128706864864,-0.901017559175711
12.49654422,-1.1937572972305848,-0.33491560923750535,-0.7923017206368473
12.50129906,-1.277627596940149,-0.5486244976132246,-0.6762425147906919
12.50605396,-1.3371660926913702,-0.769379407131519,-0.5546285098877135
12.51080886,-1.371359991630071,-0.9940296936372572,-0.4293167189857564
12.5155637,-1.3795260077088594,-1.2192723997778125,-0.3022029857779281
12.52031859,-1.361321105004699,-1.4417082801026568,-0.17519080027526715
12.52507349,-1.316744554504961,-1.6579031511042452,-0.05015916488944446
12.52982833,-1.2461314370056815,-1.8644533850228127,0.07106975614447905
12.53458323,-1.1501381369179087,-2.058054113438622,0.18676239247546236
12.53933813,-1.0297207484212636,-2.235568483235764,0.2953040840377132
12.54409302,-0.8861076389927477,-2.3940961290946934,0.3952271333779712
12.54884786,-0.7207676720571955,-2.5310389075589765,0.48523584092466415
12.55360276,-0.5353757689179817,-2.644161889695109,0.5642278854593374
12.55835761,-0.33177758043003,-2.731647640897163,0.6313115557131111
12.5631125,-0.11195503321496421,-2.7921419319041405,0.6858184938276429
12.5678674,0.12200559103371743,-2.8247892243170534,0.727311762279691
12.57262224,0.36794159129611836,-2.8292565515622803,0.755589182439679
12.57737714,0.6236366470543351,-2.8057447622388008,0.7706820104796557
12.58213203,0.8868377128655517,-2.754986492560847,0.7728491153159343
12.58688688,1.1552656791235532,-2.67823066966252,0.762566907700276
12.59164177,1.4266199408563254,-2.57721379607862,0.7405153446747003
12.59639667,1.6985774813252863,-2.4541187040456527,0.707560403751725
12.60115151,1.9687875009839106,-2.311521873246913,0.664733488627364
12.60590641,2.2348629749601643,-2.1523307579735165,0.6132082919878576
12.6106613,2.4943707829486286,-1.9797128565312612,0.5542756961861857
12.61541615,2.744822212570125,-1.7970184710629302,0.4893173316624794
12.62017104,2.9836656857527557,-1.6076992490589654,0.4197784283960991
12.62492594,3.208283497333589,-1.4152246714495638,0.3471405826061434
12.62968078,3.4159941908583042,-1.2229986613381199,0.2728950189483775
12.63443568,3.60406193922153,-1.034278438657242,0.1985168618451494
12.63919057,3.7697139632380487,-0.8520976465234363,0.1254408461097869
12.64394542,3.91016662835983,-0.6791956320884971,0.055038805617335554
12.64870031,4.022660428103891,-0.5179545849561156,-0.011400812968648822
12.65345521,4.104503611248111,-0.3703460254525243,-0.0726912512498118
12.65821005,4.153123756374714,-0.2378878978249736,-0.1277634728799215
12.66296495,4.16612615854086,-0.12161326390197462,-0.17567991315494888
12.66771984,4.1413574842833585,-0.022051315166914318,-0.21564597442639502
12.67247469,4.076972787976948,0.06077886985316182,-0.24701932202718505
12.67722958,3.9715036798726238,0.12736169593563612,-0.26931703767943677
12.68198448,3.8239252082166604,0.17866572671711053,-0.28222067262210987
12.68673932,3.633718876946121,0.21611214712536478,-0.28557922057203705
12.69149422,3.400929176275099,0.24153179300081856,-0.2794100115437479
12.69624912,3.1262110630220685,0.2571118153601751,-0.2638975189257067
12.70100396,2.8108659944450736,0.2653333161736075,-0.23939007630906367
12.70575886,2.4568643928193215,0.26890153778618736,-0.20639451474998893
12.71051375,2.0668527916641737,0.2706704024643134,-0.16556874954050407
12.71526859,1.644144376336473,0.27356337504541334,-0.11771236113631095
12.72002349,1.1926921645487831,0.28049275341105295,-0.06375522200545578
12.72477833,0.7170446549618802,0.294279571758882,-0.004744218409081708
12.72953323,0.22228437943854576,0.31757632393465696,0.058171891830740265
12.73428813,-0.2860496007622364,0.3527946722751494,0.12375944753031631
12.73904297,-0.8020536405634555,0.4020401961160251,0.19071862613368032
12.74379787,-1.319563765675427,0.46705604981297194,0.25770386703901316
12.74855276,-1.8322696598347894,0.549177142923596,0.3233458159769153
12.75330761,-2.333835453027924,0.6492961302077129,0.38627454174334613
12.7580625,-2.8180241218247044,0.7678421165880973,0.4451436798325991
12.7628174,-3.2788221607964685,0.9047725568924503,0.4986550654868532
12.76757224,-3.7105611410510413,1.0595783802716987,0.5455833424274853
12.77232714,-4.108032838158741,1.2313019151965006,0.5847999812674042
12.77708203,-4.466594782433314,1.4185667541540397,0.6152961182550813
12.78183688,-4.7822633515253825,1.6196182975168636,0.6362036307539664
12.78659177,-5.051791879271268,1.8323733704054925,0.6468138951817187
12.79134662,-5.272731686053594,2.054477028346427,0.6465937173256758
12.79610151,-5.443474433307475,2.2833644679283633,0.635197977461465
12.80085641,-5.563274754170161,2.516325845033776,0.6124785925634152
12.80561125,-5.6322526969284405,2.750571779241595,0.5784894688570712
12.81036615,-5.651376119212573,2.9832973885036815,0.5334872050032925
12.81512104,-5.622423768262235,3.211742849646742,0.4779274119926252
12.81987589,-5.547930353240893,3.433248711084649,0.4124566386177995
12.82463078,-5.431115434656238,3.645304484839288,0.3379000248599381
12.82938568,-5.275798398416306,3.84558940258307,0.25524494049102436
12.83414052,-5.086302126358391,4.032004617797904,0.16562099333401273
12.83889542,-4.867348207337304,4.202696552073503,0.07027690370734742
12.84365031,-4.623946649303361,4.356071493817583,-0.029445165715708314
12.84840516,-4.3612830589329725,4.490801936695735,-0.13213716384249458
12.85316005,-4.084606164186354,4.605825468411738,-0.2363538774466176
12.8579149,-3.7991183839127247,4.70033726753901,-0.3406420871307869
12.86266979,-3.5098719160738083,4.773777424222512,-0.44356939739797985
12.86742469,-3.221672540268863,4.825814367069079,-0.5437519922101685
12.87217953,-2.9389930268533155,4.856325661059203,-0.6398805992324702
12.87693443,-2.665897726908109,4.865377354954431,-0.7307440092434029
12.88168932,-2.405979593366081,4.85320291981582,-0.8152495958727638
12.88644417,-2.1623105574343446,4.820182651033156,-0.8924404119060138
12.89119906,-1.937405855518295,4.766824220898654,-0.961508590218789
12.89595396,-1.7332025682259018,4.693744881075183,-1.021804932217081
12.9007088,-1.5510522948353052,4.601655635700425,-1.0728447065231963
12.9054637,-1.391727547882261,4.491347545152585,-1.1143097934312518
12.91021854,-1.2554411210743657,4.363680183576549,-1.1460473926428156
12.91497344,-1.141877370269228,4.219572162640374,-1.168065566020163
12.91972833,-1.050234064548164,4.059993548685061,-1.1805259194239617
12.92448318,-0.9792732262044705,3.8859599368238507,-1.1837337437641329
12.92923807,-0.9273791976020711,3.698527899054053,-1.178125939891268
12.93399297,-0.8926220590296177,3.4987914902829926,-1.1642570494022293
12.93874781,-0.8728244792357367,3.287879474481546,-1.1427837085467294
12.94350271,-0.8656301073532374,3.066952923078179,-1.1144478391629666
12.94825755,-0.868571704062695,2.837202840369272,-1.0800588903853592
12.95301245,-0.8791373504807531,2.5998474872817483,-1.0404754462394559
12.95776734,-0.8948332535445118,2.3561291056825517,-0.996586514568715
12.96252219,-0.913241874679592,2.1073097898693693,-0.9492928106279859
12.96727708,-0.9320743324633389,1.8546663079509083,-0.8994883444640334
12.97203198,-0.9492162580959903,1.599483740771802,-0.8480426159830426
12.97678682,-0.9627665038783655,1.3430478769519791,-0.7957837160140389
12.98154172,-0.9710683111338797,1.086636376771234,-0.7434826250272205
12.98629656,-0.9727327306833801,0.831508792482934,-0.69183899138152
12.99105146,-0.9666542558853769,0.5788956058054648,-0.6414686553422795
12.99580636,-0.9520187777764737,0.3299865126044992,-0.5928931611633571
13.0005612,-0.9283041062108999,0.08591824791376097,-0.5465314658169671
13.00531609,-0.8952734201581266,-0.15223770095949657,-0.5026940097866955
13.01007099,-0.8529621126825163,-0.38348710186546014,-0.4615792648877152
13.01482583,-0.8016585803462272,-0.6069242838497899,-0.42327281968654107
13.01958073,-0.7418795744988496,-0.8217423040668859,-0.38774900900967824
13.02433557,-0.6743407881976393,-1.0272415383142885,-0.3548750454537892
13.02909047,-0.5999234043143262,-1.2228362766154504,-0.32441757197542387
13.03384537,-0.5196373840900145,-1.4080589445019795,-0.2960515251625663
13.03860021,-0.434582333948101,-1.5825616323739937,-0.26937117237826685
13.04335511,-0.34590684926346876,-1.7461147001111252,-0.24390315382447625
13.04811,-0.2547672893043083,-1.898602330489688,-0.21912131664692308
13.05286484,-0.16228697780594664,-2.040015029131849,-0.19446307207765753
13.05761974,-0.06951684048636107,-2.170439204628305,-0.16934694313736187
13.06237458,0.022601519578623053,-2.2900441025096745,-0.1431909076791778
13.06712948,0.11326934461053235,-2.399066502558919,-0.11543108848843632
13.07188432,0.20185993726843252,-2.4977937120365588,-0.08554030599811613
13.07663922,0.2879427366227528,-2.5865454894040916,-0.053045993454606755
13.08139412,0.3713015078163982,-2.665655606779725,-0.017546978753778437
13.08614896,0.4519459936754454,-2.73545379947029,0.02127134061987604
13.09090386,0.5301164888232364,-2.7962488549764664,0.06362386529222938
13.09565875,0.6062809349162637,-2.848313561721964,0.10961508817885254
13.10041359,0.6811243066584991,-2.8918721711944255,0.15923113451283216
13.10516849,0.7555302640958954,-2.9270909298095833,0.2123347922305831
13.10992333,0.8305552828225238,-2.9540721139922574,0.26866369507564997
13.11467823,0.9073957305626834,-2.972851860504559,0.3278317351153036
13.11943313,0.987348623227438,-2.9834019316541833,0.3893336961189963
13.12418797,1.0717670507441797,-2.9856353997510676,0.45255301772422124
13.12894286,1.1620114959931231,-2.979416084793194,0.5167725245816411
13.13369771,1.2593984624536014,-2.9645714405007033,0.5811878857258502
13.13845261,1.365147963114301,-2.940908461275844,0.6449235078653023
13.1432075,1.4803314936343126,-2.9082320788178166,0.707050512702637
13.14796234,1.6058221096761638,-2.866365431911261,0.7666064031371356
13.15271724,1.7422481499002793,-2.815171324551321,0.8226159861181201
13.15747208,1.8899519963401366,-2.7545741335432266,0.8741130906153803
13.16222698,2.048955053287451,-2.68458138468857,0.9201625978949579
13.16698188,2.218929871605708,-2.605304185587639,0.9598822897337531
13.17173672,2.3991800703320525,-2.5169756843394544,0.9924640208886356
13.17649162,2.588628436882088,-2.419966721296274,1.0171937358684287
13.18124651,2.7858133447413445,-2.314797861978592,1.0334698736807766
13.18600136,2.9888934306479316,-2.202147050636335,1.040819731591442
13.19075625,3.195660330319925,-2.082852212953749,1.0389133850433172
13.19551109,3.4035591817788187,-1.9579082690878267,1.0275747855564397
13.20026599,3.609716559921651,-1.8284581981566461,1.0067896865824835
13.20502089,3.8109754923773065,-1.6957780219161798,0.9767100864489134
13.20977573,4.003937210182569,-1.5612558426490812,0.9376549349439391
13.21453063,4.185009292802899,-1.4263653659787343,0.8901069305538833
13.21928547,4.350459861736334,-1.2926346451273791,0.8347053396804582
13.22404036,4.4964774474943106,-1.1616110758396507,0.7722348934455266
13.22879526,4.619236089645559,-1.0348239248553646,0.7036109540251844
13.2335501,4.714965120702841,-0.913745864472219,0.6298612809073247
13.238305,4.780022929883448,-0.7997550919177964,0.5521048584025591
13.24305984,4.810973807839861,-0.6940996244217317,0.4715283615518412
13.24781474,4.804666751140935,-0.5978652783465753,0.38936093320110987
13.25256964,4.758314873170677,-0.5119486711486696,0.30684801702235653
13.25732448,4.669573845583913,-0.4370363417261478,0.22522503643058264
13.26207938,4.536617600294373,-0.37359078476965,0.1456917242076161
13.26683422,4.358209372648544,-0.321843857100302,0.0693878892382105
13.27158912,4.133766074514412,-0.28179765916944516,-0.002628646312472208
13.27634401,3.863413959074549,-0.25323264397096484,-0.06940129295733033
13.28109886,3.5480335807337413,-0.2357223786394953,-0.13009059409512866
13.28585375,3.189292165963276,-0.228654098466016,-0.18398639472460707
13.29060859,2.789661696962753,-0.2312539631400624,-0.23051605539323441
13.29536349,2.3524212727669367,-0.24261576162741025,-0.26924866204233705
13.30011839,1.8816426527502443,-0.2617317228153307,-0.2998953574492742
13.30487323,1.3821583012643313,-0.28752407770276917,-0.3223060833944087
13.30962813,0.8595117277283806,-0.3188760847664615,-0.33646316152477107
13.31438297,0.31989043327225025,-0.3546613674582156,-0.3424722449684962
13.31913786,-0.22995769564954477,-0.39377061069005076,-0.3405512367558356
13.32389271,-0.7828231970749595,-0.435134905987356,-0.3310177947330853
13.3286476,-1.3311472384659917,-0.4777453033986676,-0.3142760295702284
13.3334025,-1.867145022303351,-0.5206684009060472,-0.2908029592052794
13.33815734,-2.3829378959497376,-0.5630580576099603,-0.2611352183461252
13.34291224,-2.8706914543772424,-0.6041635360529508,-0.22585644510021816
13.34766708,-3.322756793536836,-0.6433345465519915,-0.18558568695420818
13.35242198,-3.731812020097685,-0.680023772973901,-0.14096709086200362
13.35717688,-4.091001143312852,-0.7137875019809323,-0.09266106956461788
13.36193172,-4.394067559242206,-0.7442849592049374,-0.04133706836373525
13.36668662,-4.635479477400036,-0.7712768837442562,0.012332008502924213
13.37144146,-4.810544823507137,-0.7946237580944472,0.0676737184794261
13.37619636,-4.9155133651027585,-0.8142839675328706,0.12401842600702766
13.38095125,-4.947664034852412,-0.8303120051646841,0.18070023094224494
13.38570609,-4.905375659610406,-0.8428566800139508,0.23705672974259595
13.39046099,-4.788179539334954,-0.8521591385833682,0.29242795657451554
13.39521583,-4.596792562599678,-0.8585503871873247,0.34615494593824436
13.39997073,-4.3331298009770105,-0.8624479139350999,0.3975784378989272
13.40472563,-4.000295799401135,-0.864350964270561,0.4460382994378601
13.40948047,-3.6025540798404734,-0.8648340275347425,0.490874249711213
13.41423537,-3.1452747069937828,-0.8645381442281286,0.5314284439056444
13.41899021,-2.634860132287517,-0.8641597399210835,0.5670503838705807
13.4237451,-2.078649939487671,-0.8644368243906353,0.5971044824996966
13.42849995,-1.4848055618395999,-0.8661325541481142,0.6209804178830335
13.43325484,-0.8621765218936125,-0.8700163320941768,0.6381061852529586
13.43800974,-0.22015024961898724,-0.8768427965687042,0.647963510455608
13.44276458,0.43151195578397966,-0.8873292188813998,0.6501050537806901
13.44751948,1.0828497614416197,-0.9021319689846109,0.6441726319025185
13.45227432,1.72388591952868,-0.9218228111590154,0.6299155363550173
13.45702922,2.344811758547725,-0.9468658473570515,0.607207939848473
13.46178412,2.936171819012864,-0.9775959317944618,0.5760643620304265
13.46653896,3.489043187353036,-1.014199337637821,0.5366522158314905
13.47129386,3.995204985253466,-1.0566973704792955,0.4893005726032195
13.4760487,4.44729351923577,-1.1049335025989366,0.4345044619130988
13.48080359,4.838938808972075,-1.158564458316608,0.37292424648848727
13.48555844,5.164878610598082,-1.2170555266781558,0.3053798643764415
13.49031333,5.4210466422965835,-1.2796802254212836,0.2328399850487555
13.49506823,5.604632498079764,-1.3455242999430301,0.15640636048311105
13.49982307,5.714111676735651,-1.4134939205181936,0.0772938480560949
13.50457797,5.749245210805867,-1.4823278449161255,-0.0031932696036439602
13.50933281,5.711049493907826,-1.5506132435612945,-0.08368794110689466
13.51408771,5.6017380018723015,-1.6168048398104782,-0.16278919033375458
13.51884261,5.424637605723847,-1.6792469962015526,-0.23909232713950876
13.52359745,5.18408300590586,-1.736198375124526,-0.3112196938204177
13.52835234,4.8852934185048635,-1.7858588161560198,-0.37785112303212287
13.53310719,4.534235989272192,-1.8263980996659528,-0.4377533034003723
13.53786208,4.1374805073861385,-1.8559863028052284,-0.48980728282285246
13.54261693,3.7020498676048454,-1.8728254908957842,-0.5330333874958365
13.54737182,3.235270425786624,-1.875182512087627,-0.5666129001289695
13.55212667,2.7446259513100926,-1.8614226631461441,-0.5899059283761634
13.55688156,2.2376183447945674,-1.8300439604103975,-0.602465008292006
13.56163646,1.7216377040457127,-1.779711679891628,-0.6040441276401174
13.5663913,1.2038437252305447,-1.7092927287676982,-0.5946030140425791
13.5711462,0.6910598543562038,-1.6178892871257875,-0.5743067021375675
13.57590104,0.1896810836667583,-1.5048710263777472,-0.543520559124363
13.58065594,-0.29440416263033325,-1.3699050825953092,-0.5028010972977403
13.58541083,-0.7558779801258523,-1.2129828518848886,-0.45288302573519484
13.59016568,-1.1900429936752688,-1.0344425926750478,-0.3946630847257929
13.59492057,-1.5928588694218724,-0.8349867768717542,-0.3291812633817381
13.59967542,-1.9609659441121852,-0.6156931366923216,-0.25760002480729555
13.60443031,-2.29169671699399,-0.3780184122843921,-0.18118215849124603
13.60918516,-2.5830760541499593,-0.1237939194370783,-0.10126785080482625
13.61394005,-2.8338110424183487,0.14478777367141185,-0.01925151500326123
13.6186949,-3.0432715034240845,0.4251955496300248,0.06344114539433558
13.62344979,-3.211462236871693,0.7145920445926911,0.14537544803138933
13.62820469,-3.3389881036909093,1.0098754621542485,0.22512911780180483
13.63295953,-3.42701308176084,1.307730473026112,0.30131254349605674
13.63771443,-3.477214427987539,1.6046874235727522,0.3725877966694235
13.64246927,-3.4917330578381867,1.897188725933959,0.43768639451733665
13.64722417,-3.473121203210421,2.181660971978828,0.4954258645266461
13.65197906,-3.4242883283225707,2.454591021853678,0.5447252190467269
13.65673391,-3.348446170970088,2.7126040825225823,0.584619462398049
13.6614888,-3.2490536381169544,2.9525416251203787,0.6142732276530778
13.66624365,-3.129762130560252,3.171536899345509,0.6329935782993248
13.67099854,-2.9943617144653563,3.3670857910050893,0.6402419196489655
13.67575339,-2.8467284116321974,3.537110834606462,0.6356448553574289
13.68050828,-2.690772757783833,3.6800163341634913,0.6190037064081554
13.68526318,-2.5303896882757018,3.794732758130403,0.5903022974966711
13.69001802,-2.369409758520269,3.880748852466514,0.5497125263079697
13.69477292,-2.2115516932290618,3.9381302506038574,0.49759718213125753
13.69952776,-2.0603762824979626,3.9675237393161837,0.43450948495323255
13.70428266,-1.9192416997367003,3.9701467518481204,0.36118888149746964
13.7090375,-1.7912604000395211,3.947762089534717,0.2785527603836324
13.7137924,-1.6792578588869695,3.902638305592963,0.18768392703858902
13.71854729,-1.5857335191372366,3.837496605618899,0.08981389442717201
13.72330214,-1.51282441746262,3.755445516031965,-0.013697725710629959
13.72805703,-1.462272048818624,3.6599049334539275,-0.12138723283782513
13.73281188,-1.4353930899773961,3.5545214847338586,-0.2317135777138425
13.73756677,-1.433054633642513,3.4430773884432266,-0.3430870463406205
13.74232162,-1.4556545796328488,3.3293952025549656,-0.4538990496520134
13.74707651,-1.5031077906988417,3.217240958121918,-0.5625521882612546
13.75183136,-1.5748385556221203,3.1102282063338955,-0.6674898174135591
13.75658625,-1.669779824473093,3.0117254439445444,-0.7672244262609629
13.76134115,-1.7863796045520872,2.924769235931002,-0.8603642501038834
13.76609599,-1.9226148400741547,2.8519851388008313,-0.9456376372181035
13.77085089,-2.0760130438310607,2.795518262917333,-1.0219147803124167
13.77560573,-2.243681894351527,2.7569750186169895,-1.0882264908568968
13.78036063,-2.4223469408732665,2.7373772874206175,-1.1437797448603448
13.78511547,-2.6083974544621276,2.737129960089497,-1.1879697690303372
13.78987036,-2.7979403160704184,2.7560024955425617,-1.2203884755881087
13.79462521,-2.9868616377949495,2.7931248811581373,-1.2408290990425916
13.79938011,-3.170895575402016,2.8469981140416456,-1.2492869426754485
13.804135,-3.3456995175238338,2.915519070162766,-1.2459562079969226
13.80888984,-3.5069345445419207,2.996019378651249,-1.2312229572910496
13.81364474,-3.650349757392993,3.0853176680479293,-1.2056543462812588
13.81839958,-3.771868804930669,3.1797842992253242,-1.1699843573881472
13.82315448,-3.8676767089365844,3.275417449010028,-1.1250963582297817
13.82790932,-3.9343049160840797,3.367929164841277,-1.0720028977527953
13.83266422,-3.9687124088320305,3.4528397807867166,-1.011823226473702
13.83741906,-3.9683606894163224,3.525578875774523,-0.945759082120324
13.84217396,-3.9312805148020504,3.5815907726071656,-0.8750693149104742
13.84692886,-3.856128403911255,3.616442427311429,-0.8010439385566123
13.8516837,-3.742231157077641,3.625931447921214,-0.7249781866111769
13.85643859,-3.5896169141214083,3.60619191399516,-0.6481471320299181
13.86119344,-3.3990316211420453,3.5537956460644704,-0.5717813935892865
13.86594833,-3.1719401633031032,3.4658466001024952,-0.4970444086592888
13.87070318,-2.9105118347137386,3.340066137832214,-0.42501169987283954
13.87545807,-2.6175902378317066,3.174867050495279,-0.35665250423082034
13.88021292,-2.2966481137793284,2.9694143920235434,-0.2928140670329542
13.88496781,-1.9517279835907029,2.723671406546827,-0.2342088304579975
13.88972266,-1.5873698149015985,2.4384291123253616,-0.18140467054644197
13.89447755,-1.208527210788922,2.1153184253595656,-0.13481826141887246
13.89923245,-0.8204738451922862,1.7568040657803257,-0.09471157633451074
13.90398729,-0.4287020453875064,1.3661598824364105,-0.06119147416014766
13.90874219,-0.03881555198928886,0.9474256484640295,-0.03421226668355498
13.91349703,0.3435814221158898,0.5053458139632596,-0.01358111514942766
13.91825193,0.7129966530473218,0.04529114036486678,0.0010339370102967185
13.92300677,1.0641616714348874,-0.42683542736920416,0.010093521234807938
13.92776167,1.3921406012064304,-0.904706882067728,0.014174337297665193
13.93251651,1.6924338468400897,-1.3816921185723143,0.01395463803653759
13.93727141,1.9610744372728555,-1.8509852492490677,0.010198061992878342
13.9420263,2.1947149023495043,-2.305741488853414,0.0037360746344725663
13.94678115,2.390702666253761,-2.739216596512026,-0.004550708404409437
13.95153604,2.5471420946146615,-3.144906701613035,-0.013752019223155113
13.95629089,2.6629415285959936,-3.5166852573840837,-0.02294792792985617
13.96104578,2.7378438810163064,-3.84893386750317,-0.031228960957651555
13.96580063,2.772439657978525,-4.136663820596888,-0.03771595039954321
13.97055552,2.76816160569511,-4.375625344598425,-0.04157919480300244
13.97531036,2.7272605648718824,-4.562401853884374,-0.04205650663375792
13.98006526,2.6527625391989904,-4.694486800218389,-0.038469739370920485
13.98482016,2.5484074411958764,-4.770341144742507,-0.03023943002104994
13.989575,2.41857045508657,-4.789429931444131,-0.01689725750608588
13.9943299,2.26816743678108,-4.7522369497263375,0.0019039039368025812
13.99908474,2.102546238134563,-4.6602570104924075,0.026382473573693038
14.00383964,1.9273662791708324,-4.515965911348472,0.05662325096827077
14.00859448,1.748469081090159,-4.322768717266477,0.0925750820441669
14.01334938,1.5717427980089327,-4.0849275196607335,0.13405102280294987
14.01810422,1.4029840305325822,-3.807470347006444,0.1807308731196644
14.02285912,1.2477603558419663,-3.4960833724339566,0.23216592853601947
14.02761396,1.1112770573672712,-3.1569889869225274,0.2877857953435177
14.03236886,0.9982514773555164,-2.7968126693056616,0.34690712795580664
14.0371237,0.912798247489693,-2.422441874885492,0.40874416748577613
14.04187859,0.8583283807625881,-2.040880372956412,0.4724209755545346
14.04663349,0.8374648409977984,-1.6591015825146964,0.5369852596689431
14.05138833,0.8519767570036167,-1.2839044804213071,0.6014236733771798
14.05614323,0.9027339308351955,-0.9217755852309925,0.6646784485988115
14.06089807,0.9896827205133156,-0.578760352565827,0.7256651852886912
14.06565297,1.111843775625064,-0.2603470560951017,0.7832915920068579
14.07040781,1.2673314903886432,0.028634123313634074,0.8364769452738742
14.07516271,1.453394434876388,0.28409451028874527,0.8841720171862528
14.07991755,1.666475453549924,0.5027510609747331,0.925379206358333
14.08467245,1.9022896044596285,0.6821699692625479,0.9591725899596064
14.08942729,2.155917676456066,0.8207891122854802,0.9847175872739138
14.09418219,2.4219126874965706,0.9179193035865505,1.0012898846564278
14.09893703,2.6944165497869617,0.973724926798675,1.008293221573622
14.10369193,2.9672839912962914,0.9891850986837288,1.0052755875415513
14.10844677,3.234210839769533,0.9660370351626582,0.9919433435188741
14.11320167,3.4888638854484055,0.906703747536793,0.96817277097643
14.11795651,3.725009716242313,0.8142085625293449,0.9340185749847096
14.12271141,3.936640136849419,0.6920792279847531,0.8897189251057172
14.1274663,4.118092018402007,0.5442445302819059,0.8356967045524774
14.13222115,4.264159662209364,0.37492640940029626,0.7725567457243065
14.13697604,4.370197991807052,0.1885305181120805,0.7010789508298702
14.14173089,4.432215107546982,-0.010461956798565448,0.6222073244076138
14.14648578,4.446952943945693,-0.2175985958131971,0.537035077265772
14.15124063,4.411954957971172,-0.4285538120786668,0.44678609622686283
14.15599552,4.325619942946493,-0.6392186138043426,0.3527932059385691
14.16075036,4.187241207390623,-0.8457803039345391,0.2564737682413682
14.16550526,3.997030485826928,-1.0447906689879116,0.15930325803831902
14.1702601,3.7561260703610264,-1.233221520209992,0.06278750971875692
14.175015,3.466584783423691,-1.4085067622865295,-0.03156566191788361
14.17976984,3.131357570691578,-1.5685704813470687,-0.12227479512798271
14.18452474,2.754248693213229,-1.7118408674165757,-0.20791246177344105
14.18927958,2.3398587475020407,-1.8372501168613282,-0.287131765424494
14.19403448,1.8935120431497356,-1.9442207952316344,-0.3586912028813449
14.19878932,1.4211692145217427,-2.032639475795019,-0.42147749685425523
14.20354422,0.9293263262345363,-2.1028187978179114,-0.47452605156416056
14.20829912,0.4249021362505338,-2.15544940314978,-0.5170387110022817
14.21305396,-0.08488441462174283,-2.191543499552154,-0.5483985178308436
14.21780886,-0.5926440369017011,-2.2123720522847945,-0.5681811882667781
14.2225637,-1.0909514707367194,-2.2193978084198247,-0.5761630438965348
14.22731859,-1.572481378656792,-2.2142064978075333,-0.57232518230168
14.23207344,-2.030142576322573,-2.1984386183781224,-0.556853727941842
14.23682833,-2.4572073964504484,-2.1737241923040203,-0.5301360822895318
14.24158318,-2.847433075888817,-2.141622768786405,-0.49275318438917537
14.24633807,-3.1951722699768683,-2.103570749324844,-0.44546789525714636
14.25109292,-3.49547012256281,-2.0608378274182404,-0.38920972702032125
14.25584781,-3.7441457411866383,-2.014493975732423,-0.3250562459330343
14.26060266,-3.9378564276870307,-1.9653879920906243,-0.25421158332329136
14.26535755,-4.074143572874263,-1.9141381462175717,-0.1779825852931212
14.2701124,-4.151459712889604,-1.8611349695217994,-0.09775321380491599
14.27486729,-4.169176833158087,-1.8065557203860139,-0.01495786983517246
14.27962214,-4.127576560484097,-1.7503895600836803,0.06894566538350189
14.28437703,-4.027823374738359,-1.6924720141700276,0.15250298876594476
14.28913188,-3.871922376257345,-1.6325268958557784,0.23428890520769094
14.29388677,-3.662663451156552,-1.570213553634383,0.312931789546476
14.29864162,-3.403553881390878,-1.505177091623044,0.38713605350961333
14.30339651,-3.0987415538611356,-1.4370991063979277,0.4557024105165651
14.30815136,-2.752930942111031,-1.3657464902833953,0.5175457436450872
14.31290625,-2.371293976955344,-1.2910159649062283,0.5717104751119821
14.31766109,-1.9593778023895096,-1.2129722236156417,0.6173834029157325
14.32241599,-1.5230112457886218,-1.1318778666511298,0.6539040105781329
14.32717089,-1.0682116337739738,-1.0482136938347972,0.6807722716284748
14.33192573,-0.6010933747555474,-0.9626883567069328,0.6976539668623222
14.33668063,-0.12777952209218713,-0.8762368424745554,0.7043835174687224
14.34143547,0.3456826593042196,-0.7900077412307753,0.7009643209302021
14.34619037,0.8134012673162987,-0.7053397118503482,0.6875665692786925
14.35094521,1.2697137629860837,-0.6237279904533684,0.6645225382580766
14.3557001,1.709254798100402,-0.5467821627805693,0.6323193640037598
14.36045495,2.1270173676629742,-0.4761767372207784,0.5915893689878752
14.36520984,2.5184068672647375,-0.4135963013440587,0.5430980556598709
14.36996469,2.8792877084579795,-0.3606772176217829,0.4877299474849643
14.37471958,3.2060222128758054,-0.31894791244698845,0.42647251683214493
14.37947443,3.4955015710419968,-0.2897698379998122,0.3603984936488184
14.38422932,3.7451687174532196,-0.274281142372326,0.29064689666047017
14.38898417,3.953033042899209,-0.2733449748093762,0.21840316919994895
14.39373906,4.117676942197932,-0.2875041865983358,0.14487883264106483
14.39849391,4.238254285107651,-0.3169439721052161,0.0712910877736044
14.4032488,4.314481004094552,-0.3614637379455157,-0.001157206308522979
14.40800365,4.346618116644381,-0.4204592014262139,-0.07129676808125744
14.41275854,4.335447639601623,-0.492915412773034,-0.13800997928679423
14.41751339,4.282242000581625,-0.5774110795564564,-0.20024751610639566
14.42226828,4.188727692602965,-0.6721342552771132,-0.25704329452407976
14.42702313,4.057044034122111,-0.7749091446060652,-0.30752757698343913
14.43177802,3.8896979696926017,-0.8832334809464482,-0.35093816246812426
14.43653286,3.689515866497283,-0.9943256524710004,-0.38662964463825766
14.44128776,3.4595932319410974,-1.105180495011294,-0.41408076528786664
14.4460426,3.203243211643394,-1.2126324384939542,-0.43289991043161485
14.4507975,2.923944643998528,-1.31342449220083,-0.44282879732901176
14.45555234,2.6252903625336623,-1.4042813867790875,-0.4437443914553605
14.46030724,2.31093636044375,-1.4819850610800012,-0.435659083159924
14.46506208,1.9845523680142199,-1.5434505927247582,-0.4187191525937885
14.46981698,1.6497743451736022,-1.5858006258654649,-0.39320156243950705
14.47457182,1.3101593577160624,-1.606436351194558,-0.3595091410274966
14.47932672,0.9691432837285066,-1.6031031452901365,-0.318164250172545
14.48408156,0.630001781111392,-1.5739490817920658,-0.26980106633209994
14.48883646,0.29581493145796184,-1.5175746868988222,-0.2151566327376753
14.4935913,-0.030564046083584862,-1.433072524730631,-0.1550608565574434
14.4983462,-0.3465356500852172,-1.3200554595419212,-0.09042562383220412
14.50310104,-0.649776208245894,-1.1786727438644662,-0.022233184974750735
14.50785594,-0.9382549978243101,-1.0096134141945985,0.04847607052011308
14.51261078,-1.2102462133008733,-0.8140968270957091,0.12061637050853631
14.51736568,-1.4643357233346697,-0.5938505265807031,0.1930698006632952
14.52212052,-1.6994226777726285,-0.35107598694665554,0.2646999990033498
14.52687542,-1.9147161524525511,-0.0884031133686996,0.33436627324752694
14.53163026,-2.109727146324781,0.19116530398384185,0.4009380935851324
14.53638516,-2.2842563626972106,0.4843177064709275,0.46330988981962773
14.54114,-2.4383783050433947,0.7875047398598726,0.5204160578395194
14.5458949,-2.5724222897345417,1.0970151804642505,0.5712460596208029
14.55064974,-2.6869510174404105,1.409054779728946,0.6148594831116238
14.55540464,-2.7827373492147673,1.7198259239197642,0.650400910423545
14.56015948,-2.8607399030606624,2.025606004208203,0.677114420639834
14.56491438,-2.922078024926296,2.3228224594227678,0.6943575230032858
14.56966922,-2.9680065990346085,2.6081225869508566,0.7016142738329944
14.57442412,-2.9998910522816713,2.878436411016976,0.6985072750252197
14.57917896,-3.0191827841359307,3.1310311428285376,0.6848081867669508
14.58393386,-3.027395126794271,3.363556052457394,0.6604463224207938
14.5886887,-3.0260798216009532,3.5740768850846485,0.625514846241967
14.59344354,-3.016803899278506,3.7610992812126796,0.5802740833666374
14.59819844,-3.0011267853470707,3.9235809887740567,0.5251514905364466
14.60295328,-2.9805774274829973,4.0609329729926165,0.46073793053123213
14.60770818,-2.956631262985091,4.173009827601453,0.3877800386807601
14.61246302,-2.930686911040007,4.260090161293534,0.307168653147637
14.61721792,-2.9040425806524617,4.322847870996207,0.2199234825839375
14.62197276,-2.877872323071237,4.362315415058649,0.1271743818621316
14.62672766,-2.853202419282426,4.3798403617018495,0.030139775264612076
14.6314825,-2.830888371372053,4.377036608227305,-0.06989711113945798
14.6362374,-2.811593153205372,4.355731741682045,-0.1716134771781898
14.64099224,-2.7957675584623267,4.317912039989163,-0.27367288512133037
14.64574714,-2.7836336422768735,4.26566659459584,-0.374751169908317
14.65050198,-2.7751723586396406,4.2011319757841585,-0.473561627129513
14.65525688,-2.7701165204160665,4.126438767438891,-0.5688788353998269
14.66001172,-2.767950132937682,4.043661178149767,-0.6595605308861145
14.66476662,-2.767914973325333,3.9547707982338913,-0.7445670215768728
14.66952146,-2.7690250198273834,3.861595423676609,-0.8229777109200811
14.67427636,-2.7700890011707715,3.765783711696571,-0.8940043982240145
14.6790312,-2.7697409596199245,3.668776270237983,-0.95700113566296
14.68378609,-2.766478326488769,3.571783615805672,-1.0114705410595093
14.68854094,-2.7587066182132527,3.4757712615699865,-1.057066580827862
14.69329583,-2.744789497834875,3.3814520225547953,-1.0935939405804045
14.69805068,-2.7231026325574255,3.289285449973848,-1.121004189477017
14.70280552,-2.6920895307978845,3.1994841356135115,-1.1393890192311356
14.70756042,-2.6503173749194984,3.1120264623628584,-1.1489709010001934
14.71231526,-2.5965307877425245,3.026675221051301,-1.1500915536536251
14.71707016,-2.529701487958137,2.9430013695011694,-1.1431986542603436
14.721825,-2.449071903798575,2.8604120808441134,-1.1288312440135682
14.7265799,-2.3541910225243257,2.778182119394372,-1.1076042888488151
14.73133474,-2.2449410463957244,2.6954874991016187,-1.080192844993858
14.73608964,-2.1215537895528103,2.6114403270472915,-1.0473162589256628
14.74084448,-1.9846161665590953,2.5251237166374194,-1.0097228011425823
14.74559938,-1.8350645709353381,2.43562567424983,-0.9681750931676323
14.75035422,-1.6741683955248838,2.342070919403835,-0.9234366341918859
14.75510912,-1.503503376934229,2.243649691085434,-0.8762596651024693
14.75986396,-1.3249158243526136,2.1396427202728376,-0.8273745242234265
14.76461886,-1.1404790953638642,2.0294417090321786,-0.777480556807876
14.7693737,-0.9524438947408865,1.9125648460225144,-0.7272385489264356
14.77412859,-0.7631840941314124,1.7886670998419532,-0.6772645762216096
14.77888344,-0.5751398069069512,1.6575452551031686,-0.6281250962201333
14.78363828,-0.3907594151772668,1.5191378795262296,-0.5803330725826398
14.78839318,-0.2124421509218131,1.3735206219858234,-0.5343449022971868
14.79314802,-0.04248269739674674,1.2208974309050784,-0.49055792456180464
14.79790292,0.11698088460291726,1.0615884406095297,-0.4493083238730616
14.80265776,0.2640147775929656,0.8960153926955451,-0.4108692948860583
14.80741266,0.39693163185603797,0.7246855345480268,-0.37544940163329976
14.8121675,0.5143266376142817,0.5481749647823344,-0.34319112586292044
14.8169224,0.6151068754422078,0.3671123751381695,-0.3141696506216087
14.82167724,0.6985135563410754,0.18216407208808208,-0.28839196491669605
14.82643214,0.7641369338917555,-0.0059789471704578085,-0.265796407229491
14.83118698,0.8119238279764133,-0.19661123550896906,-0.24625279440148057
14.83594182,0.8421778399661928,-0.3890200015297439,-0.2295633096606622
14.84069672,0.8555524623202478,-0.5824888290906342,-0.21546434582532806
14.84545156,0.8530373926615616,-0.7762979765580975,-0.20362950898129678
14.85020646,0.8359384568146535,-0.9697214450719485,-0.1936739758310268
14.8549613,0.8058516315340112,-1.1620212238270224,-0.18516036086494464
14.8597162,0.7646317399687778,-1.3524393213523211,-0.17760618962874877
14.86447104,0.7143564725068148,-1.5401883612201281,-0.17049299586378203
14.86922594,0.6572864590926386,-1.7244416460611323,-0.16327696669350658
14.87398078,0.5958221800253977,-1.9043236660553076,-0.15540095629753067
14.87873568,0.5324585449362247,-2.0789020425555083,-0.14630758531038024
14.88349052,0.46973799186278514,-2.2471818540322004,-0.1354530569561458
14.88824542,0.4102029614848415,-2.408103193807421,-0.1223212678730638
14.89300026,0.3563485892312349,-2.5605426638043296,-0.10643777949814041
14.89775511,0.31057643416124736,-2.703319324656596,-0.08738324004897925
14.90251,0.2751500314781197,-2.8352054100720934,-0.06480589297005815
14.90726484,0.2521530166907401,-2.954941882881633,-0.038432858400348435
14.91201974,0.24345052339017456,-3.0612586725482887,-0.008079918546207727
14.91677458,0.25065450217000257,-3.1528991999614027,0.02634042681822154
14.92152948,0.275093544564404,-3.2286485754321994,0.06481283913410683
14.92628432,0.31778772255402593,-3.28736465903892,0.10721513151355364
14.93103922,0.3794288704643767,-3.3280110064536665,0.1533165213927169
14.93579406,0.46036664064232163,-3.349690594476791,0.20277826676360217
14.94054891,0.5606005557020978,-3.3516791340723198,0.25515677170879014
14.9453038,0.6797781577845121,-3.3334567390229624,0.3099092001851743
14.95005865,0.8171992204229807,-3.294736728109114,0.36640157673154033
14.95481354,0.9718258449619865,-3.235490398538454,0.4239192800372191
14.95956839,1.1422981172161835,-3.155966716421405,0.48167975453390593
14.96432328,1.3269548593593128,-3.056706022282289,0.5388471840138236
14.96907813,1.5238588861026579,-2.938547039483523,0.5945487993615911
14.97383302,1.7308260720665658,-2.802626692242989,0.6478924382582513
14.97858787,1.9454574662220543,-2.65037247690492,0.6979849419329643
14.98334271,2.165173653948696,-2.4834873738441807,0.7439509606846364
14.9880976,2.3872505692734207,-2.3039275274819664,0.7849517405177708
14.99285245,2.608855998753609,-2.113873150348652,0.8202034727779027
14.99760734,2.8270860922193384,-1.9156933183947584,0.8489948047310107
15.00236219,3.0390013003227994,-1.7119055149694213,0.8707031312003946
15.00711708,3.2416612883492637,-1.505130946795633,0.8848093151002985
15.01187193,3.432158521438822,-1.2980467931918476,0.8909105161388134
15.01662677,3.6076503675911975,-1.0933366551339068,0.8887308397838565
15.02138167,3.765389709278254,-0.8936405383496662,0.8781295518677943
15.02613651,3.902754178942193,-0.7015057295121497,0.8591066397729769
15.03089141,4.017274225167451,-0.5193399026648575,0.8318055432981628
15.03564625,4.1066602641130965,-0.3493677219553794,0.7965129318166331
15.04040115,4.168829168604251,-0.1935920871980918,0.7536554718848616
15.04515599,4.201930295084141,-0.05376100486607636,0.7037936102988217
15.04991089,4.2043711530244,0.0686591342896689,0.647612487856467
15.05466573,4.174842694580261,0.17250332011458142,0.585910192843442
15.05942057,4.112344059965808,0.25692042880580357,0.519583653480295
15.06417547,4.016206472688326,0.32137842468910416,0.4496125481019717
15.06893031,3.8861158528842203,0.36566246487731413,0.3770416748110419
15.07368521,3.722133616528102,0.3898663477160137,0.3029622654548454
15.07844005,3.5247150571746118,0.39437795058056735,0.22849275141310244
15.08319495,3.2947246636970187,0.3798594680503955,0.15475949141672038
15.08794979,3.03344770843057,0.34722338068509073,0.0828779539991961
15.09270464,2.7425974420098425,0.2976051537753714,0.013934806791634865
15.09745953,2.424317252079846,0.23233368413880606,-0.05102870094168023
15.10221438,2.0811771816506575,0.15290048395245415,-0.1110317666229358
15.10696927,1.7161642580816274,0.06092851901566216,-0.1651672858253897
15.11172412,1.3326661547240548,-0.04185848792361927,-0.2126132522098464
15.11647901,0.9344477936684517,-0.15366561111292495,-0.2526423340781698
15.12123386,0.5256205999629072,-0.27265460469235897,-0.2846297359218316
15.1259887,0.11060423614496434,-0.3969697420527546,-0.3080595048291462
15.13074359,-0.30591921717783227,-0.5247613921476971,-0.3225294651073618
15.13549844,-0.7190585118587518,-0.6542072552998206,-0.32775496561213163
15.14025333,-1.1237736132213911,-0.7835313058265768,-0.32357161001448703
15.14500818,-1.5149427143826792,-0.9110205917556752,-0.30993711597051454
15.14976307,-1.8874351764613193,-1.035040119609799,-0.28693241808169595
15.15451792,-2.2361894711238577,-1.1540461022559627,-0.2547620932209847
15.15927276,-2.5562949893353757,-1.2665978690285455,-0.21375414534061793
15.16402766,-2.843076380048323,-1.3713687303146895,-0.16435913916983957
15.1687825,-3.0921789020534876,-1.467156055579221,-0.10714861774912307
15.1735374,-3.299653117031488,-1.552890767586237,-0.0428126797658079
15.17829224,-3.462037127291423,-1.6276463804797208,0.027843465500964865
15.18304714,-3.576434473317606,-1.6906476203677496,0.10390419811519011
15.18780198,-3.6405857596638893,-1.741278569839002,0.1843497101780887
15.19255682,-3.6529320779952625,-1.7790901790102867,0.2680640336212212
15.19731172,-3.612668347197328,-1.8038068926713926,0.353845144486618
15.20206656,-3.5197847952786763,-1.8153320636673298,0.440417376039797
15.20682146,-3.3750949681338174,-1.8137517642666894,0.5264463050807033
15.2115763,-3.1802488673413145,-1.7993365761448936,0.6105561797075711
15.21633115,-2.937730093485171,-1.7725409401819996,0.6913498349695226
15.22108604,-2.650836201607279,-1.7339996817293752,0.7674308998286719
15.22584089,-2.3236418564496106,-1.6845213950226994,0.8374279423205205
15.23059578,-1.9609447975295964,-1.6250784688500275,0.9000200414694962
15.23535063,-1.568195073662043,-1.5567936580074362,0.9539631294849356
15.24010547,-1.1514084665734117,-1.480923241916929,0.9981163319092939
15.24486037,-0.7170654774110026,-1.398836951620588,1.0314674600755067
15.24961521,-0.2719976844985325,-1.3119949781629487,1.0531567881617316
15.25437011,0.17673631527522995,-1.2219224904698702,1.0624982799573561
15.25912495,0.62198280531637,-1.130182183896035,1.0589975168309518
15.26387984,1.0566298000379302,-1.0383454494747049,1.0423657113142835
15.26863469,1.473745712288088,-0.9479627986964085,1.0125293570652394
15.27338958,1.8667165375263473,-0.860534200959043,0.9696352482579369
15.27814443,2.229378187761963,-0.7774799932083112,0.9140507818349229
15.28289927,2.556140651068609,-0.700113006757007,0.8463596204733936
15.28765417,2.8421008103629175,-0.6296125277774264,0.7673529343176906
15.29240901,3.083141024956357,-0.5670006678701116,0.6780165525171739
15.29716386,3.2760109486367384,-0.5131216710593783,0.5795144413280753
15.30191875,3.418390510355038,-0.46862462458190157,0.47316898465134594
15.30667359,3.5089324951640903,-0.43394997354703435,0.36043857621713327
15.31142849,3.5472837091091773,-0.4093201643003835,0.24289304231248238
15.31618333,3.5340842682232676,-0.3947346582469247,0.12218740456772884
15.32093818,3.47094509771848,-0.38996946715571223,3.4470653159830665e-05
15.32569307,3.3604042469333977,-0.39458126326627535,-0.12182328583409002
15.33044792,3.2058631083075446,-0.4079160144560171,-0.24164212015355563
15.33520281,3.011504069408419,-0.4291219888565334,-0.35770526890211707
15.33995766,2.782191523966328,-0.4571668678269696,-0.4683506539559363
15.3447125,2.5233585202110915,-0.49085860456610175,-0.5719976340763232
15.3494674,2.240881630936743,-0.5288695712559518,-0.6671723976976305
15.35422224,1.9409468862040957,-0.5697634535785551,-0.7525315885214606
15.35897714,1.6299098115908677,-0.612024280409536,-0.8268837617474559
15.36373198,1.314152757447262,-0.6540869206889645,-0.8892082897021891
15.36848688,0.9999427833138776,-0.694368340876952,-0.9386713749553662
15.37324172,0.6932933722803268,-0.7312988969147352,-0.9746388858198236
15.37799656,0.39983318795619444,-0.7633529357403687,-0.9966857979588686
15.38275146,0.12468494709824621,-0.7890780036865439,-1.0046020988895668
15.3875063,-0.1276427398334568,-0.8071220017998003,-0.9983950828541364
15.39226115,-0.35334801055250104,-0.8162576894512228,-0.9782880290309955
15.39701604,-0.5494107065895114,-0.8154040149564132,-0.9447153175604691
15.40177089,-0.7136479250447497,-0.8036438422220721,-0.8983140985348892
15.40652578,-0.8447489570256146,-0.7802377424081851,-0.8399126916244446
15.41128063,-0.942288952381395,-0.7446336257546174,-0.770515958846744
15.41603547,-1.0067212215875727,-0.696472097280129,-0.6912879574447908
15.42079036,-1.0393486598606365,-0.6355875271231943,-0.6035322378673299
15.42554521,-1.0422753370558369,-0.5620049284837816,-0.508670195333966
15.4303001,-1.0183398214842363,-0.47593283126300784,-0.40821790530107627
15.43505495,-0.9710322783936987,-0.37775242670083653,-0.30376187076448097
15.43980979,-0.9043977860254228,-0.26800333737218335,-0.19693408658930361
15.44456469,-0.822928625837795,-0.14736643752905074,-0.08938679212238808
15.44931953,-0.7314485135247547,-0.01664421041673274,0.01723275059140299
15.45407438,-0.6349918347971631,0.1232608186887704,0.12130714012524424
15.45882927,-0.5386809338433974,0.27136899281058013,0.2212730776538127
15.46358412,-0.44760438090875665,0.42664716449225243,0.3156446612787201
15.46833901,-0.3666989338881028,0.5880324355418705,0.4030354163901058
15.47309386,-0.30063762772684055,0.7544553559698953,0.4821787398379632
15.4778487,-0.25372609774121363,0.9248619498446808,0.5519464435227267
15.48260359,-0.22980889147204897,1.0982339576068687,0.6113651087382787
15.48735844,-0.23218716882774398,1.273606721300909,0.6596300027530974
15.49211333,-0.26354884861315836,1.4500841909069435,0.6961163543070595
15.49686818,-0.32591194273049817,1.626850595450162,0.720387823770926
15.50162302,-0.4205815342303302,1.8031784002411326,0.732202028474555
15.50637792,-0.5481206055818167,1.978432259736763,0.7315129924352197
15.51113276,-0.7083347111739527,2.1520687726080197,0.7184703881754719
15.51588761,-0.9002703143902235,2.3236319505940632,0.6934154385487973
15.5206425,-1.1222264739126961,2.4927444251005824,0.656873364184298
15.52539734,-1.3717794620718224,2.6590945352208415,0.6095423126523949
15.53015219,-1.6458198219151572,2.822419567942895,0.5522787983170572
15.53490708,-1.9406013081100675,2.9824855553590615,0.4860798158071106
15.53966193,-2.2518010978648837,3.139064173723086,0.412061951001726
15.54441682,-2.5745905903053012,3.2919074335919793,0.3314379773825626
15.54917167,-2.903716024515703,3.440720996362213,0.24549156612861475
15.55392651,-3.2335880246955173,3.585137095423582,0.15555083550209328
15.55868141,-3.5583790134052413,3.724688171645977,0.06296151120680422
15.56343625,-3.872127216217938,3.8587824408013005,-0.03093953175988237
15.56819115,-4.168845723573891,3.986682679623351,-0.12484961444254855
15.57294599,-4.44263480470072,4.107489531689264,-0.2175238234996848
15.57770083,-4.6877954202675065,4.220130581061589,-0.30779623319594634
15.58245573,-4.898941689959395,4.323356313817955,-0.3945983171290884
15.58721057,-5.071109962547436,4.415743886830007,-0.47697420975988225
15.59196542,-5.199862118836388,4.495709359199089,-0.5540926092750007
15.59672031,-5.2813808092196055,4.561528729961281,-0.6252552468553936
15.60147516,-5.312554476766739,4.61136778354122,-0.6899019739811337
15.60623,-5.29105022959402,4.643320388850228,-0.7476126285978143
15.6109849,-5.215372888568974,4.655454543927699,-0.7981059240881333
15.61573974,-5.084908836565203,4.645865118983474,-0.8412356577785127
15.62049464,-4.899953624574312,4.612731939021595,-0.8769845588660127
15.62524948,-4.661722640374335,4.554381574804027,-0.9054560937630254
15.63000432,-4.372344509995485,4.469350989096531,-0.9268645280766196
15.63475922,-4.034837273884219,4.356451024219936,-0.941523520463116
15.63951406,-3.6530677500053073,4.214827624913483,-0.9498335069945815
15.64426891,-3.2316948531642016,4.044018671440592,-0.9522681334279883
15.6490238,-2.7760979684215448,3.844004351018501,-0.9493600062498854
15.65377865,-2.2922917623515158,3.6152491167924428,-0.9416860532785007
15.65853349,-1.7868290505769864,3.3587334672138383,-0.9298527998331061
15.66328839,-1.2666935225860547,3.0759740193533607,-0.9144818681190781
15.66804323,-0.7391842600128596,2.7690306416847026,-0.8961959916176344
15.67279807,-0.21179407904035222,2.4404997486140925,-0.8756058045528217
15.67755297,0.3079162130269392,2.093493232542958,-0.8532976248666603
15.68230781,0.8124455292448564,1.7316029096996377,-0.829822405054926
15.68706271,1.2944800667717478,1.358850771277168,-0.8056859847005813
15.69181755,1.7470186366187082,0.9796257476939177,-0.7813407444971795
15.6965724,2.1634937262309295,0.5986080966417715,-0.7571787340324024
15.70132724,2.537886331831733,0.2206829014743849,-0.7335263225324256
15.70608214,2.8648326774654738,-0.14915549591154728,-0.7106403996944466
15.71083698,3.1397210233776844,-0.5059060123496361,-0.6887061295020086
15.71559188,3.3587768588086804,-0.8446679355225665,-0.6678362327259516
15.72034672,3.5191348789819275,-1.1607500895486582,-0.6480717453417923
15.72510156,3.6188962707531447,-1.449779382296324,-0.6293841724323208
15.72985646,3.657169984136,-1.7078059898626685,-0.6116789310587069
15.7346113,3.6340968553097426,-1.931402420507299,-0.5947999509740587
15.73936615,3.550855677353191,-2.1177537493460603,-0.5785352797415494
15.74412104,3.4096505929682914,-2.2647364289246124,-0.5626235213934582
15.74887589,3.2136795114061494,-2.3709832616956144,-0.5467609282815693
15.75363073,2.967083627821865,-2.4359323695140462,-0.5306089656486955
15.75838563,2.674878539300396,-2.459858311726795,-0.5138021771330517
15.76314047,2.3428678932386937,-2.4438838843828186,-0.4959561960663149
15.76789531,1.977540951369133,-2.389971573853446,-0.4766757722338734
15.77265021,1.5859558856075204,-2.3008941323345242,-0.4555627168731288
15.77740505,1.1756110205934707,-2.18018428179771,-0.43222370781392555
15.7821599,0.7543065863117479,-2.0320641257148004,-0.40627793624890457
15.78691479,0.3299998316102826,-1.861355439645644,-0.37736460987773235
15.79166964,-0.0893434303268212,-1.6733726041298027,-0.34515034943476913
15.79642453,-0.4958976241803104,-1.473800514526306,-0.30933652582175303
15.80117938,-0.8821232683215392,-1.2685603290939806,-0.26966658435700536
15.80593422,-1.2409065993029447,-1.063666375791969,-0.2259333919636552
15.81068912,-1.5656897800728782,-0.8650779095017329,-0.1779866220249031
15.81544396,-1.8505887040017863,-0.678549677803736,-0.12574015874745456
15.8201988,-2.0904957018048806,-0.5094854026199414,-0.06917945694776256
15.8249537,-2.2811648456845193,-0.36279830892240206,-0.008368734082412895
15.82970854,-2.4192780126980318,-0.24278272651333674,0.056542199074795456
15.83446339,-2.5024904018694794,-0.1530005571707726,0.12531173963118084
15.83921828,-2.5294547790313153,-0.09618604239471042,0.19760127120574483
15.84397313,-2.499824329135025,-0.07417179602122892,0.2729713275726895
15.84872797,-2.4142346036675058,-0.08783849399844497,0.35087958599270763
15.85348286,-2.274265634941433,-0.13708995632553192,0.430681136074943
15.85823771,-2.0823858249802303,-0.2208546316376631,0.5116314269530086
15.86299255,-1.841879683623849,-0.33711372354666047,0.5928922055907415
15.86774745,-1.5567618710944593,-0.48295540237655216,0.6735406280978131
15.87250229,-1.2316802808905198,-0.6546537515395118,0.7525815686938766
15.87725714,-0.8718110705887874,-0.8477703314957323,0.8289629867504853
15.88201203,-0.4827486084127861,-1.0572755335178259,0.90159405928087
15.88676688,-0.07039325688396958,-1.2776862664755964,0.9693656571081105
15.89152172,0.3591602273296549,-1.5032159956647084,1.0311726443697102
15.89627662,0.7997311200729693,-1.7279327523283543,1.0859374149447514
15.90103146,1.2451557088706429,-1.9459204707737132,1.1326340445173864
15.9057863,1.689382878380455,-2.1514388980194403,1.1703124293322433
15.9105412,2.1265607145748566,-2.339077366618098,1.1981217960133788
15.91529604,2.5511129194497624,-2.5038979288336747,1.2153329940123039
15.92005089,2.957804219419738,-2.6415637186222294,1.2213590171231288
15.92480578,3.3417943441113955,-2.7484489283428575,1.2157732385583846
15.92956063,3.6986805351389966,-2.821727441769289,1.1983248827012691
15.93431547,4.024528900474649,-2.859437925054311,1.1689512957274122
15.93907037,4.315895241442177,-2.8605240042468956,1.127786619835966
15.94382521,4.569836229659445,-2.824849006831169,1.0751665272191526
15.94858005,4.783911988542614,-2.7531855698528496,1.011628735692964
15.95333495,4.956181234610763,-2.6471811782683776,0.9379091116250453
15.95808979,5.085190164874837,-2.509301364306696,0.8549332674412872
15.96284464,5.169956254708657,-2.3427528546336944,0.7638036765400097
15.96759953,5.209948076482878,-2.1513893915813167,0.6657824507468179
15.97235438,5.205062181067315,-1.9396032809172667,0.5622700470086205
15.97710922,5.155598013958867,-1.7122059392473605,0.454780286219591
15.98186406,5.062231770457479,-1.4743008377499214,0.3449121772139424
15.98661896,4.92599002942905,-1.2311522735712628,0.23431914419669303
15.9913738,4.74822393771404,-0.9880533534459477,0.12467635572970957
15.99612865,4.530584639575629,-0.7501964536329327,0.017646943893881502
16.00088354,4.275000550198113,-0.5225492342112467,-0.08515202327116304
16.00563839,3.9836569539618836,-0.3097390426987432,-0.18218290209437082
16.01039323,3.658978265373288,-0.11594825039621764,-0.27201923246017495
16.01514813,3.3036131249695297,0.05517726705865057,-0.3533749790285566
16.01990297,2.9204223189731833,0.20060465806874817,-0.4251303954083187
16.02465781,2.512469316805651,0.3179741754196707,-0.48635375001891323
16.02941271,2.0830130232294146,0.40564175937485014,-0.5363182847532943
16.03416755,1.6355021513283794,0.46270349264195815,-0.5745139353976244
16.0389224,1.1735704484746436,0.4890017182152547,-0.6006535160188596
16.04367729,0.7010318592223498,0.4851130298169616,-0.6146732494712952
16.04843214,0.2218745954092781,0.45231875355079254,-0.6167277062909381
16.05318698,-0.25974698767432364,0.39255893147053306,-0.6071793898647783
16.05794188,-0.7395238333369016,0.30837118560154775,-0.586583372959872
16.06269672,-1.213008039044771,0.2028161768287021,-0.5556675452905004
16.06745156,-1.6756341380557207,0.07939166947404026,-0.5153091691357258
16.07220641,-2.1227466840861156,-0.05806253763883778,-0.4665085555502961
16.0769613,-2.549634830783439,-0.20546635562641702,-0.41036076342812966
16.08171615,-2.9515743680369746,-0.358605228705507,-0.3480262838263917
16.08647099,-3.3238774080208437,-0.5132373638179852,-0.2807016986731597
16.09122589,-3.6619496096310895,-0.6651996861143991,-0.2095912925302738
16.09598073,-3.9613544950979396,-0.8105099007808393,-0.13588054554415796
16.10073557,-4.217884053912065,-0.945462172644345,-0.06071234352910953
16.10549047,-4.427634457997307,-1.066714133788685,0.014833392504578135
16.11024531,-4.587085344278336,-1.1713631910263174,0.08975612752108357
16.11500016,-4.693180776140431,-1.2570104211527455,0.16314685972950646
16.11975505,-4.743409694805324,-1.3218107011463223,0.23419589694933446
16.1245099,-4.735883435059881,-1.3645081097003726,0.3021963995707869
16.12926474,-4.669407723877886,-1.3844560419619238,0.3665440495617076
16.13401958,-4.54354651872648,-1.3816218876747755,0.426733393684879
16.13877448,-4.35867508426206,-1.356576521418673,0.4823515464085868
16.14352932,-4.116019856126768,-1.3104692310219914,0.5330700113674056
16.14828417,-3.817682897465894,-1.2449890572570201,0.5786353845272321
16.15303906,-3.4666491115284113,-1.1623138273725133,0.6188596407704419
16.15779391,-3.0667748221131474,-1.0650484308946702,0.6536105908069206
16.16254875,-2.622756857817482,-0.9561541028730879,0.6828029477660217
16.16730365,-2.140081855578568,-0.8388706420751239,0.7063902878428412
16.17205849,-1.624956109095989,-0.7166335954137307,0.7243580504235776
16.17681333,-1.0842169029745385,-0.592988483551014,0.7367176156705653
16.18156818,-0.5252268710699216,-0.4715041277939404,0.7435014274397517
16.18632307,0.04424652192653477,-0.35568706950395207,0.7447590957547948
16.19107792,0.616163770683037,-0.2488989567605804,0.7405544118968629
16.19583276,1.182355351477442,-0.15427861710541158,0.7309632345804142
16.20058766,1.7346695890309758,-0.0746703491821952,0.7160722488248612
16.2053425,2.2651227346909253,-0.012559759648582549,0.6959786472089448
16.21009734,2.7660474930721897,0.02998174597803346,0.6707908204007141
16.21485219,3.230236232977761,0.05134293075418146,0.6406301547549046
16.21960708,3.65107525346271,0.05040848155684827,0.605634008925148
16.22436193,4.022666747773048,0.026584090482236058,0.565959876982739
16.22911677,4.33993550685851,-0.020189401810545515,0.5217906499119039
16.23387162,4.598717909390055,-0.08943287960355496,0.4733407750439124
16.23862651,4.795831326594776,-0.18013674683071326,0.4208630012858948
16.24338136,4.929122692441301,-0.290779381728691,0.36465530265089097
16.2481362,4.997495616846236,-0.4193558307660286,0.3050675053309864
16.25289109,5.000916019002006,-0.5634161658420164,0.24250711192730193
16.25764594,4.94039680347042,-0.720112776365638,0.17744382448870913
16.26240078,4.8179625757341835,-0.8862557187083624,0.11041231609530955
16.26715568,4.636595787846657,-1.058375101346843,0.042012884874649804
16.27191052,4.400166018015872,-1.2327893478328422,-0.02709026414972729
16.27666536,4.113344325983434,-1.4056780558842423,-0.09617323807040526
16.28142021,3.7815047984987373,-1.5731580644838434,-0.16445917954204436
16.2861751,3.410615516807873,-1.7313612570800876,-0.23112738745123368
16.29092995,3.007121250456288,-1.8765125724909395,-0.295324639279394
16.29568479,2.5778202166916873,-2.00500666955081,-0.3561784553778614
16.30043969,2.129737249268285,-2.113481698949048,-0.41281200211528535
16.30519453,1.6699957008220632,-2.1988886763214923,-0.4643603033234503
16.30994938,1.2056903639361842,-2.2585550231311156,-0.5099874116502416
16.31470422,0.7437636392070134,-2.290240943806457,-0.5489041773742854
16.31945912,0.2908871019922156,-2.2921874361568553,-0.5803862371414549
16.32421396,-0.14664948198120617,-2.2631548844443445,-0.6037918262908687
16.3289688,-0.5630397744594855,-2.2024513580106304,-0.6185789955362133
16.3337237,-0.953051366697146,-2.1099499304307434,-0.6243217875081309
16.33847854,-1.3121036232161813,-1.9860945421998113,-0.6207249058612428
16.34323339,-1.6363315694307135,-1.8318941515058558,-0.6076363980936934
16.34798823,-1.9226348042742032,-1.6489051504745458,-0.5850578840080436
16.35274313,-2.168710726448131,-1.4392022661271047,-0.5531519033711423
16.35749797,-2.373071691386761,-1.2053384133208027,-0.5122460295604516
16.36225281,-2.5350460572162112,-0.9502942171789466,-0.46283349231317594
16.36700766,-2.6547634228768446,-0.6774181695066853,-0.40557015793775913
16.37176255,-2.7331247000408627,-0.3903586204199243,-0.3412678160097076
16.3765174,-2.771757981316693,-0.09298902492840419,-0.27088381025819147
16.38127224,-2.7729614593684278,0.21067194319406676,-0.1955071287619216
16.38602708,-2.739634905256513,0.5165436376936451,-0.11634114187883461
16.39078198,-2.6752014219232345,0.8205681509799153,-0.03468325485096796
16.39553682,-2.5835213452295744,1.1187945140304631,0.048098168247861284
16.40029167,-2.4688002682015986,1.4074603742720624,0.13058915325530895
16.40504656,-2.3354932152521544,1.6830691558158104,0.21135718238284934
16.40980141,-2.1882069959045882,1.9424607743036026,0.28897933882556776
16.41455625,-2.0316027274495254,2.182874100894771,0.36207083184345135
16.41931109,-1.870300439103327,2.4019995467033253,0.4293131784869842
16.42406599,-1.7087875622755626,2.5980203685884593,0.489481321984197
16.42882083,-1.5513329768528794,2.769641576002272,0.5414689934631772
16.43357568,-1.4019081248997913,2.916105640846248,0.5843116642823686
16.43833052,-1.2641165234807366,3.0371945695401297,0.6172064842326813
16.44308542,-1.1411328111683179,3.1332182774804616,0.6395286552168792
16.44784026,-1.0356522533541268,3.2049895973558717,0.6508437556806064
16.4525951,-0.9498514149860617,3.253786640348735,0.6509156166633049
16.45735,-0.8853604893915009,3.2813036000697573,0.6397094643048872
16.46210484,-0.8432475490611792,3.2895914322189044,0.6173901903719226
16.46685969,-0.8240147566579916,3.280990149570953,0.5843157886868495
16.47161453,-0.8276063395178077,3.2580547340281605,0.5410261888706426
16.47636938,-0.8534278884739037,3.223476876665281,0.4882279099157616
16.48112427,-0.9003762964401983,3.1800049028247974,0.4267751232311431
16.48587912,-0.9668794126212948,3.1303643109454318,0.3576478400949459
16.49063396,-1.050944266015677,3.077181339560288,0.2819280111056427
16.4953888,-1.1502125196761368,3.0229118680115357,0.20077434282377388
16.5001437,-1.262021666895172,2.9697777499782525,0.11539660582695371
16.50489854,-1.383470381010242,2.919712380826162,0.02703014257142363
16.50965339,-1.5114863861697447,2.874316925786788,-0.06308880160443793
16.51440828,-1.6428952270640769,2.834828209435572,-0.15374639392564335
16.51916313,-1.7744883782148932,2.8020988146211074,-0.243772741265313
16.52391797,-1.903089242388611,2.7765894870485406,-0.33206128976872423
16.52867281,-2.025615734428351,2.7583735134232663,-0.4175858494331511
16.53342766,-2.1391383199318437,2.747152355793797,-0.49941507693116105
16.53818255,-2.2409325662259034,2.742281497112573,-0.5767243150790949
16.5429374,-2.3285254570183938,2.742805192188559,-0.6488047363191025
16.54769224,-2.3997349158862447,2.747498627652655,-0.7150697748613787
16.55244714,-2.4527021726457274,2.754915872826572,-0.7750588643685852
16.55720198,-2.4859167857694007,2.7634419452070733,-0.8284385311439827
16.56195682,-2.4982342983208916,2.7713473121421597,-0.8750009301482393
16.56671167,-2.488886650285512,2.776843196019507,-0.9146599533489055
16.57146651,-2.457485594700452,2.7781361360819052,-0.9474450850448812
16.57622141,-2.4040194690735968,2.7734803784844426,-0.9734932238624177
16.58097625,-2.328843759440062,2.76122681037027,-0.9930387327436149
16.58573109,-2.2326659649673464,2.7398673170054453,-1.0064020128230955
16.59048599,-2.116525329004477,2.708073617870624,-1.0139769210480951
16.59524083,-1.9817680496285002,2.6647298239488793,-1.0162173627423992
16.59999568,-1.8300186192513443,2.6089581511760445,-1.0136233897441183
16.60475052,-1.663147967535688,2.540137421146574,-1.0067271246812877
16.60950536,-1.4832390935240005,2.4579141762037198,-0.9960788146551205
16.61426026,-1.2925508715337553,2.362206428136188,-0.982233294629498
16.61901511,-1.0934807019479968,2.253200244162505,-0.965737113365636
16.62376995,-0.8885266525090477,2.1313395474216956,-0.9471165432464196
16.62852479,-0.680249695668812,1.9973096687935135,-0.9268666591506226
16.63327969,-0.47123658921896383,1.8520153296367106,-0.905441630450712
16.63803453,-0.26406386893733996,1.6965538580984343,-0.8832463269763209
16.64278938,-0.061263325551025684,1.5321845421816467,-0.8606293004137707
16.64754422,0.1347107701006447,1.3602950979466,-0.8378771734384795
16.65229912,0.32151254181699757,1.182366278333847,-0.8152104530197621
16.65705396,0.496933436252495,0.9999356647804676,-0.7927807802768807
16.6618088,0.6589292458110552,0.8145616686513414,-0.7706696319978319
16.66656365,0.805645326574363,0.6277887226259199,-0.7488884923678669
16.67131854,0.9354401338803885,0.441114565435464,-0.727380512444154
16.67607339,1.0469071788253785,0.25596042021140275,-0.7060236659433479
16.68082823,1.1388954476271993,0.07364474190866738,-0.6846353908796231
16.68558307,1.2105282268661777,-0.10463893149907982,-0.6629786768823787
16.69033792,1.2612201504518175,-0.2778396396390544,-0.6407695189103202
16.69509281,1.290692142584951,-0.4450619406098716,-0.6176856123765908
16.69984766,1.2989837921727838,-0.6055740489175707,-0.5933761156326257
16.7046025,1.2864625765374404,-0.7588112247295802,-0.5674722565297371
16.70935734,1.2538292724909141,-0.9043745901248791,-0.5395985143821754
16.71411224,1.202118862689049,-1.0420256503678278,-0.5093840725441319
16.71886708,1.1326962697294851,-1.1716768804417275,-0.4764742160615182
16.72362193,1.0472463286597025,-1.2933787995936261,-0.4405413481222187
16.72837677,0.9477575351197525,-1.4073040009728357,-0.401295319595734
16.73313162,0.8364992733592824,-1.5137286320270977,-0.3584928052346093
16.73788651,0.7159924259401865,-1.6130118374892644,-0.31194551297035855
16.74264136,0.5889734837425159,-1.7055736845532858,-0.26152707369392686
16.7473962,0.4583524995154538,-1.7918720933529422,-0.20717852371530265
16.75215104,0.32716545054809165,-1.8723792987152592,-0.1489123577920101
16.75690594,0.19852178775201007,-1.9475583737420237,-0.08681519406972184
16.76166078,0.07554814262754161,-2.0178403527155524,-0.021049148398855643
16.76641563,-0.038670665802089804,-2.083602498727673,0.048147943018202584
16.77117047,-0.14115204045833996,-2.1451482670251387,0.12046329447257445
16.77592531,-0.22907604128729564,-2.2026895139128215,0.19551078510415612
16.78068021,-0.29984438769821176,-2.256331488453078,0.2728333025252375
16.78543505,-0.35113654719833565,-2.3060611159713305,0.35190575840823424
16.7901899,-0.38096145424760397,-2.351739035434149,0.43213878453869015
16.79494474,-0.38770347815004935,-2.393095785348026,0.5128831774897469
16.79969964,-0.3701613824043792,-2.4297324446199973,0.5934352009002629
16.80445448,-0.3275791870979667,-2.4611259271342956,0.6730428697538071
16.80920932,-0.2596680547183067,-2.4866390045642737,0.7509133308822241
16.81396417,-0.16661855951269372,-2.505534995246105,0.8262214221911921
16.81871901,-0.04910296033736578,-2.516996912446105,0.8981194458429282
16.82347391,0.09173263497235568,-2.520150718091425,0.9657481345706069
16.82822875,0.25428605980854524,-2.5140921835983354,1.0282487319191131
16.83298359,0.43652642355829296,-2.4979167239882,1.08477605142913
16.83773844,0.6360303392377806,-2.4707514511849666,1.134512328992177
16.84249328,0.8500261686164872,-2.431788592412913,1.176681637186676
16.84724818,1.0754452080724146,-2.380319343490617,1.2105645906200766
16.85200302,1.308978564973509,-2.3157671765610064,1.2355130385792072
16.85675787,1.5471383350830126,-2.237719598562439,1.250964417659815
16.86151271,1.786321591922476,-2.1459573614328185,1.2564554238343442
16.8662676,2.022875643508068,-2.040480158498372,1.2516346609610374
16.87102245,2.2531630033959686,-1.9215279043463707,1.2362739309861746
16.87577729,2.4736245631885296,-1.7895967877661865,1.2102778496765574
16.88053214,2.6808395428475404,-1.6454494083115812,1.1736914991791705
16.88528698,2.8715809323147843,-1.4901184550647728,1.1267058621173895
16.89004188,3.0428653202911904,-1.3249035587483662,1.069660818010767
16.89479672,3.1919962276104608,-1.1513611417154301,1.0030455199905612
16.89955156,3.316600312766402,-0.9712872988955292,0.9274960097095579
16.90430641,3.414656080442358,-0.7866939581678396,0.8437899752523846
16.90906125,3.4845149826067567,-0.5997787800849833,0.7528386150780323
16.91381615,3.524915039469045,-0.41288945276584693,0.6556756421319659
16.91857099,3.5349873124905176,-0.22848320810940737,0.5534435435184644
16.92332583,3.5142557277547923,-0.049082523598199215,0.4473772960707818
16.92808068,3.462630874561715,0.12277192336801217,0.3387858188013213
16.93283552,3.380398493784421,0.28456991528559544,0.22903151270635558
16.93759042,3.2682034274473666,0.4338808046367602,0.11950829330502394
16.94234526,3.127029829039782,0.5684019144985617,0.011618562723023465
16.9471001,2.95817843590681,0.6860051069118679,-0.09325039898401472
16.95185495,2.7632416818023473,0.7847804636427937,-0.19375011338346787
16.95660984,2.5440773793656604,0.8630761185022245,-0.28859411400953694
16.96136469,2.302781628589765,0.9195333980705352,-0.37658012065005575
16.96611953,2.041661508784542,0.9531165637307644,-0.4566105970604813
16.97087438,1.7632079905449771,0.9631365967629029,-0.5277111237080575
16.97562922,1.4700693659173847,0.9492686237053382,-0.5890460657193034
16.98038406,1.1650253472623486,0.9115627350052204,-0.6399311050168752
16.98513896,0.8509618386226544,0.8504481006330491,-0.6798423292795068
16.9898938,0.5308462494488557,0.7667304274612234,-0.7084217157791004
16.99464865,0.20770311085959867,0.6615829313757836,-0.7254789991387883
16.99940349,-0.11541032094467898,0.536531109454915,-0.730990053892573
17.00415839,-0.435428823864342,0.393431691905552,-0.7250920444883534
17.00891323,-0.7493046707471098,0.2344462285452903,-0.7080756900356852
17.01366807,-1.054034074687043,0.06200982025191991,-0.6803750551263529
17.01842292,-1.3466848025813836,-0.12120445712697166,-0.6425553114659106
17.02317776,-1.6244250056287395,-0.31232486830504935,-0.5952989214505006
17.02793266,-1.8845531544230918,-0.5083234980350008,-0.5393906807538634
17.0326875,-2.124528792664912,-0.7060613208080688,-0.47570203046222115
17.03744234,-2.34200365239239,-0.9023352936108187,-0.4051750176087417
17.04219719,-2.5348525200614667,-1.093926911744028,-0.32880625048270357
17.04695203,-2.701203119434057,-1.277651672026065,-0.24763116216848396
17.05170688,-2.8394641926425224,-1.450408886747312,-0.1627088596681287
17.05646177,-2.948350919103557,-1.6092312840465797,-0.07510779336400314
17.06121662,-3.0269068135513533,-1.7513338151784987,0.0141075689554918
17.06597146,-3.074521287098721,-1.8741610663520971,0.10388893633152635
17.0707263,-3.0909421350931465,-1.9754326433230756,0.19321518970538737
17.07548115,-3.0762823282624105,-2.0531858628309405,0.2811021675572642
17.08023604,-3.031020625223085,-2.105815049772782,0.36661128035154683
17.08499089,-2.955995691359074,-2.132106707518447,0.44885702579019127
17.08974573,-2.852393597491559,-2.131269806842432,0.5270134909481281
17.09450057,-2.7217287757731428,-2.1029604328026075,0.6003199194149681
