"Time (s)","Gyroscope x (rad/s)","Gyroscope y (rad/s)","Gyroscope z (rad/s)"
4.573021000E-3,4.806742370E-1,-2.054032870E-2,1.844048053E-1
9.327657000E-3,3.871355653E-1,-2.510654330E-1,2.168570012E-1
1.398750100E-2,2.826776803E-1,-4.294379354E-1,2.742782831E-1
1.874224000E-2,1.812741160E-1,-5.265654325E-1,3.457494676E-1
2.349692800E-2,8.842267841E-2,-5.619956255E-1,4.214966893E-1
2.825161500E-2,3.512472380E-3,-5.503891706E-1,4.874700904E-1
3.300630300E-2,-7.284562290E-2,-5.094612241E-1,5.290089250E-1
3.776099000E-2,-1.363755614E-1,-4.465421438E-1,5.406153202E-1
4.251567800E-2,-1.834121495E-1,-3.677406013E-1,5.204567909E-1
4.727036500E-2,-2.084576041E-1,-2.852738500E-1,4.715875983E-1
5.202510500E-2,-2.145662606E-1,-2.089157552E-1,3.988946974E-1
5.677979200E-2,-2.023489624E-1,-1.514944583E-1,3.066541255E-1
6.153448000E-2,-1.754709035E-1,-1.178968996E-1,2.009745091E-1
6.628916700E-2,-1.418733448E-1,-9.957095981E-2,8.613193035E-2
7.104380300E-2,-1.070540547E-1,-9.224057943E-2,-3.481929377E-2
7.579854200E-2,-7.773254067E-2,-8.368847519E-2,-1.539379209E-1
8.055328200E-2,-6.062832847E-2,-6.719512492E-2,-2.590066791E-1
8.530796900E-2,-5.757400393E-2,-4.581485689E-2,-3.402516842E-1
9.006265700E-2,-7.284562290E-2,-3.054323979E-2,-3.952295184E-1
9.481734400E-2,-1.052214578E-1,-2.687804960E-2,-4.245510101E-1
9.957203200E-2,-1.498145908E-1,-3.909534588E-2,-4.355465770E-1
1.043267190E-1,-2.029598206E-1,-6.719512492E-2,-4.331031144E-1
1.090814590E-1,-2.628245652E-1,-1.075121984E-1,-4.239401519E-1
1.138361460E-1,-3.269653618E-1,-1.667660922E-1,-4.129445851E-1
1.185908340E-1,-3.941605091E-1,-2.541197538E-1,-4.092794061E-1
1.233455210E-1,-4.570795596E-1,-3.689623177E-1,-4.178315103E-1
1.281002090E-1,-5.169443488E-1,-4.929678738E-1,-4.410443604E-1
1.328549490E-1,-5.700895786E-1,-6.194168925E-1,-4.752528071E-1
1.376096360E-1,-6.128500700E-1,-7.470875978E-1,-5.198459029E-1
1.423643240E-1,-6.427824497E-1,-8.729257584E-1,-5.723803043E-1
1.471190110E-1,-6.666061878E-1,-9.718858600E-1,-6.304124594E-1
1.518737510E-1,-6.855430007E-1,-1.042746186E0,-6.884446144E-1
1.566284380E-1,-7.032580972E-1,-1.109941363E0,-7.354812026E-1
1.613831260E-1,-7.215840220E-1,-1.168584347E0,-7.739656568E-1
1.661378130E-1,-7.411317229E-1,-1.219896913E0,-8.038980365E-1
1.708925530E-1,-7.625119686E-1,-1.265711784E0,-8.265000582E-1
1.756472400E-1,-7.826704979E-1,-1.288924694E0,-8.362739086E-1
1.804019280E-1,-7.954986691E-1,-1.271209598E0,-8.356630206E-1
1.851566670E-1,-8.009964228E-1,-1.211955667E0,-8.216131330E-1
1.899113550E-1,-8.003855944E-1,-1.131321549E0,-7.941241860E-1
1.946660420E-1,-7.954986691E-1,-1.052520037E0,-7.538071275E-1
1.994207300E-1,-7.893900275E-1,-1.003039956E0,-7.061597109E-1
2.041754690E-1,-7.851139307E-1,-1.001207352E0,-6.530144215E-1
2.089301570E-1,-7.918334603E-1,-1.054963470E0,-6.004800797E-1
2.136848440E-1,-8.132137656E-1,-1.153923512E0,-5.595521331E-1
2.184395840E-1,-8.510873318E-1,-1.279761672E0,-5.332849622E-1
2.231942710E-1,-9.048434496E-1,-1.413541079E0,-5.210676789E-1
2.279489590E-1,-9.689842463E-1,-1.547320485E0,-5.204567909E-1
2.327036460E-1,-1.044120669E0,-1.673158646E0,-5.320632458E-1
2.374583860E-1,-1.127198219E0,-1.780059934E0,-5.497782826E-1
2.422130740E-1,-1.215773582E0,-1.852752924E0,-5.742129087E-1
2.469678130E-1,-1.311068535E0,-1.906508923E0,-6.078104377E-1
2.517225010E-1,-1.411250353E0,-1.955989003E0,-6.511818767E-1
2.564771880E-1,-1.512653947E0,-1.994473457E0,-6.982184649E-1
2.612319280E-1,-1.607948780E0,-2.005469084E0,-7.409789562E-1
2.659866150E-1,-1.706908941E0,-1.992640853E0,-7.812960744E-1
2.707413030E-1,-1.822973251E0,-1.943160892E0,-8.265000582E-1
2.754960420E-1,-1.954309106E0,-1.844811678E0,-8.704823256E-1
2.802507300E-1,-2.095418930E0,-1.722027779E0,-9.004147053E-1
2.850054690E-1,-2.238361359E0,-1.610239506E0,-9.010255337E-1
2.897601570E-1,-2.375805855E0,-1.515555501E0,-8.582650423E-1
2.945148440E-1,-2.493702650E0,-1.418428063E0,-7.843503952E-1
2.992695840E-1,-2.587165117E0,-1.307250619E0,-6.921098232E-1
3.040242710E-1,-2.656192780E0,-1.175914645E0,-5.870410800E-1
3.087789590E-1,-2.701396704E0,-1.006705165E0,-4.734202027E-1
3.135336990E-1,-2.716668367E0,-7.935133576E-1,-3.616319597E-1
3.182883860E-1,-2.689790249E0,-5.766563416E-1,-2.571740746E-1
3.230431260E-1,-2.628703833E0,-4.459312856E-1,-1.740964651E-1
3.277978130E-1,-2.525467634E0,-4.471530318E-1,-1.154534444E-1
3.325525530E-1,-2.366642952E0,-5.992583632E-1,-7.941242307E-2
3.373072400E-1,-2.171166182E0,-8.851430416E-1,-7.635809481E-2
3.420619280E-1,-1.959196091E0,-1.180801630E0,-1.087339297E-1
3.468166670E-1,-1.746004224E0,-1.408654213E0,-1.649334878E-1
3.515713550E-1,-1.539531946E0,-1.562592149E0,-2.290742993E-1
3.563260940E-1,-1.351996422E0,-1.660330415E0,-2.907716334E-1
3.610807820E-1,-1.186452150E0,-1.703091025E0,-3.488037884E-1
3.658355210E-1,-1.042898893E0,-1.684765100E0,-4.019490182E-1
3.705902090E-1,-9.207259417E-1,-1.613904715E0,-4.465421438E-1
3.753449490E-1,-8.193224072E-1,-1.490510106E0,-4.715875983E-1
3.800996360E-1,-7.331904769E-1,-1.292589903E0,-4.697550237E-1
3.848543760E-1,-6.580541134E-1,-1.032361507E0,-4.337140024E-1
3.896090630E-1,-5.847502947E-1,-7.476984859E-1,-3.640754223E-1
3.943638030E-1,-5.120574236E-1,-4.905244112E-1,-2.638935745E-1
3.991184900E-1,-4.411970973E-1,-3.066541255E-1,-1.417206228E-1
4.038732300E-1,-3.709476292E-1,-2.040288299E-1,-8.552107029E-3
4.086279170E-1,-3.037525117E-1,-1.698204130E-1,1.295033395E-1
4.133826570E-1,-2.432768941E-1,-1.863137633E-1,2.675587833E-1
4.181373440E-1,-1.913533956E-1,-2.229656428E-1,3.982838392E-1
4.228920840E-1,-1.534797698E-1,-2.101374865E-1,5.131264329E-1
4.276467710E-1,-1.266017258E-1,-1.954767257E-1,6.169734001E-1
4.324015110E-1,-1.009454057E-1,-1.826485693E-1,7.098248601E-1
4.371561990E-1,-7.834340632E-2,-1.710421443E-1,8.032872081E-1
4.419109380E-1,-5.329795182E-2,-1.728747338E-1,9.034690261E-1
4.466656780E-1,-2.886336111E-2,-1.924224049E-1,1.019533277E0
4.514203650E-1,4.734201822E-3,-2.278525680E-1,1.154534459E0
4.561751050E-1,5.238165334E-2,-2.247982323E-1,1.298698545E0
4.609297920E-1,1.183550507E-1,-2.302960157E-1,1.452636480E0
4.656845320E-1,2.063195854E-1,-2.675587833E-1,1.612683058E0
4.704392190E-1,3.119991720E-1,-3.268126547E-1,1.777616501E0
4.751939590E-1,4.347830117E-1,-4.037816226E-1,1.937663078E0
4.799486990E-1,5.765036345E-1,-4.966330528E-1,2.087324858E0
4.847033860E-1,7.292198539E-1,-5.919279456E-1,2.221104383E0
4.894581260E-1,8.941532969E-1,-6.774490476E-1,2.332281828E0
4.942128130E-1,1.065195441E0,-7.330377102E-1,2.418413639E0
4.989675530E-1,1.242346287E0,-7.287616730E-1,2.470947981E0
5.037222920E-1,1.421940446E0,-6.566796303E-1,2.484997988E0
5.084769800E-1,1.604589105E0,-4.703658819E-1,2.456287384E0
5.132317190E-1,1.815948248E0,1.160643063E-2,2.378707409E0
5.179864070E-1,2.037081242E0,4.819723070E-1,2.240041256E0
5.227411460E-1,2.208123446E0,5.345066786E-1,2.061668634E0
5.274958860E-1,2.338848591E0,5.253437161E-1,1.863748431E0
5.322505740E-1,2.454302073E0,6.224712133E-1,1.658497930E0
5.370053130E-1,2.559981585E0,7.122683525E-1,1.455690742E0
5.417600530E-1,2.642448425E0,7.422007322E-1,1.262657523E0
5.465147400E-1,2.700480461E0,6.860011220E-1,1.072678566E0
5.512694800E-1,2.740186691E0,5.937605500E-1,8.924734592E-1
5.560242190E-1,2.761566877E0,5.039634705E-1,7.220421433E-1
5.607789070E-1,2.762788773E0,3.683514595E-1,5.687150955E-1
5.655336460E-1,2.725525856E0,5.986474827E-2,4.337140024E-1
5.702883860E-1,2.618013620E0,-5.064069033E-1,3.127627671E-1
5.750430740E-1,2.414595842E0,-1.267544389E0,1.930332631E-1
5.797978130E-1,2.121380568E0,-2.034790516E0,6.963858753E-2
5.845525530E-1,1.762803078E0,-2.715293884E0,-4.642572254E-2
5.893072920E-1,1.403614521E0,-3.217424870E0,-1.270598769E-1
5.940619800E-1,1.103679895E0,-3.433670998E0,-1.466075480E-1
5.988167190E-1,8.550579548E-1,-3.393353939E0,-1.111773923E-1
6.035714590E-1,6.595812440E-1,-3.161225319E0,-4.886918142E-2
6.083261460E-1,5.044215918E-1,-2.764163017E0,1.343902480E-2
6.130808860E-1,3.785834610E-1,-2.281579971E0,5.681042373E-2
6.178356260E-1,3.052796721E-1,-1.788612127E0,8.979712427E-2
6.225903650E-1,3.071122766E-1,-1.297476768E0,1.215620935E-1
6.273450530E-1,3.608683646E-1,-8.234457374E-1,1.588248461E-1
6.320997920E-1,4.353938699E-1,-3.842339516E-1,2.052505612E-1
6.368545320E-1,5.062541962E-1,1.649334840E-2,2.602283955E-1
6.416092710E-1,5.667297840E-1,3.597993553E-1,3.115410507E-1
6.463639590E-1,6.162098646E-1,6.035344005E-1,3.494146466E-1
6.511186990E-1,6.620246768E-1,7.250964642E-1,3.830122054E-1
6.558734380E-1,7.151699662E-1,7.648026943E-1,4.159989059E-1
6.606281780E-1,7.841976881E-1,7.892373204E-1,4.502073526E-1
6.653829170E-1,8.727730513E-1,7.929024696E-1,4.856374860E-1
6.701376050E-1,9.833396077E-1,7.293725610E-1,5.198459029E-1
6.748923440E-1,1.106734276E0,6.175842881E-1,5.516108871E-1
6.796470840E-1,1.237459302E0,5.082395077E-1,5.870410800E-1
6.844018240E-1,1.360854030E0,4.037816226E-1,6.267472506E-1
6.891565630E-1,1.476918340E0,3.066541255E-1,6.640099883E-1
6.939112510E-1,1.583819628E0,2.272416949E-1,6.939423680E-1
6.986659900E-1,1.677281976E0,1.600465775E-1,7.055488229E-1
7.034207300E-1,1.750585794E0,1.166751757E-1,6.872228980E-1
7.081754690E-1,1.799454927E0,1.032361463E-1,6.316341758E-1
7.129302090E-1,1.816559196E0,9.285144508E-2,5.418370366E-1
7.176849490E-1,1.803730965E0,6.352993846E-2,4.214966893E-1
7.224396360E-1,1.760970473E0,1.832594350E-2,2.791652083E-1
7.271943760E-1,1.689499259E0,-3.604102135E-2,1.270598769E-1
7.319491150E-1,1.591760874E0,-1.038470119E-1,-2.565632015E-2
7.367038550E-1,1.483637810E0,-1.808159798E-1,-1.679878086E-1
7.414585940E-1,1.374903917E0,-2.504545450E-1,-3.048215210E-1
7.462133340E-1,1.280219913E0,-3.194822669E-1,-4.184423685E-1
7.509680740E-1,1.211192131E0,-3.781253099E-1,-4.948004782E-1
7.557227610E-1,1.175761938E0,-4.172206521E-1,-5.448913574E-1
7.604775010E-1,1.168431640E0,-4.367683232E-1,-5.662716627E-1
7.652322400E-1,1.181259751E0,-4.343248606E-1,-5.723803043E-1
7.699869800E-1,1.205694318E0,-4.147771895E-1,-5.766563416E-1
7.747417190E-1,1.234405041E0,-3.921751976E-1,-5.845975876E-1
7.794964590E-1,1.256396174E0,-3.720166385E-1,-5.974257588E-1
7.842511990E-1,1.270446062E0,-3.475820720E-1,-6.157516837E-1
7.890059380E-1,1.275332928E0,-3.188714087E-1,-6.340776682E-1
7.937606780E-1,1.269835114E0,-3.158170879E-1,-6.462949514E-1
7.985154170E-1,1.254563570E0,-3.378082216E-1,-6.597339511E-1
8.032701570E-1,1.226463795E0,-3.787361681E-1,-6.750055552E-1
8.080248440E-1,1.186146736E0,-4.373791814E-1,-6.896663308E-1
8.127795840E-1,1.135444880E0,-5.021308661E-1,-7.067705393E-1
8.175343240E-1,1.073747516E0,-5.626064539E-1,-7.281508446E-1
8.222890630E-1,9.980003238E-1,-6.163625717E-1,-7.525854111E-1
8.270438030E-1,9.063706398E-1,-6.676751971E-1,-7.751874328E-1
8.317985420E-1,7.988584042E-1,-7.275399566E-1,-7.922916412E-1
8.365532820E-1,6.748528481E-1,-8.100066781E-1,-8.020654321E-1
8.413080210E-1,5.416843295E-1,-9.279035926E-1,-7.990111113E-1
8.460627610E-1,4.127918780E-1,-1.070845962E0,-7.751874328E-1
8.508175010E-1,2.961167097E-1,-1.219286084E0,-7.348703146E-1
8.555722400E-1,1.965457499E-1,-1.360395908E0,-6.811142564E-1
8.603269800E-1,1.146898642E-1,-1.458134174E0,-6.194168925E-1
8.650817190E-1,4.566214234E-2,-1.515555501E0,-5.503891706E-1
8.698364590E-1,-6.872228812E-3,-1.552207351E0,-4.654789567E-1
8.745911990E-1,-4.291325063E-2,-1.587026715E0,-3.628536761E-1
8.793459380E-1,-7.162389904E-2,-1.620013356E0,-2.498437017E-1
8.841006780E-1,-9.056070447E-2,-1.658497930E0,-1.288924664E-1
8.888554170E-1,-1.064431891E-1,-1.726303816E0,-3.054323839E-3
8.936101570E-1,-1.198822111E-1,-1.835037827E0,1.227838174E-1
8.983648960E-1,-1.339320987E-1,-1.998138666E0,2.357937992E-1
9.031196360E-1,-1.492037177E-1,-2.221715212E0,3.231474757E-1
9.078743760E-1,-1.644753367E-1,-2.492939234E0,3.775144219E-1
9.126291150E-1,-1.742491722E-1,-2.753778458E0,3.891208768E-1
9.173838550E-1,-1.773035079E-1,-2.985907078E0,3.634645343E-1
9.221385940E-1,-1.718057245E-1,-3.169166565E0,3.158170879E-1
9.268933340E-1,-1.577558219E-1,-3.320660830E0,2.498437017E-1
9.316480740E-1,-1.308777779E-1,-3.409847260E0,1.844811589E-1
9.364028130E-1,-8.811724186E-2,-3.439168692E0,1.295033395E-1
9.411575530E-1,-2.458730713E-2,-3.408014536E0,9.162971377E-2
9.459122920E-1,5.360338464E-2,-3.326158762E0,7.147117704E-2
9.506670320E-1,1.482874304E-1,-3.196044445E0,6.841685623E-2
9.554217710E-1,2.551887631E-1,-3.044549942E0,8.124501258E-2
9.601765110E-1,3.681987524E-1,-2.875340462E0,9.773836285E-2
9.649312510E-1,4.824304581E-1,-2.753167629E0,1.075121984E-1
9.696859900E-1,5.960513353E-1,-2.665203094E0,1.099556610E-1
9.744407820E-1,7.170025110E-1,-2.590066671E0,9.773836285E-2
9.791955210E-1,8.489493132E-1,-2.546084404E0,6.841685623E-2
9.839502610E-1,9.815070033E-1,-2.552193165E0,2.687804960E-2
9.887050010E-1,1.100625634E0,-2.624275208E0,-2.199113183E-2
9.934597400E-1,1.199585676E0,-2.735452414E0,-7.208204269E-2
9.982144800E-1,1.283274174E0,-2.866788387E0,-1.172860414E-1
1.002969219E0,1.344360709E0,-3.039052248E0,-1.362228394E-1
1.007723959E0,1.371238708E0,-3.295004606E0,-1.325576603E-1
1.012478699E0,1.362686634E0,-3.563174248E0,-1.026252806E-1
1.017233438E0,1.336419463E0,-3.776976824E0,-5.314523727E-2
1.021988178E0,1.318704367E0,-3.902815104E0,4.886918236E-3
1.026742969E0,1.308319688E0,-3.976729631E0,5.436696485E-2
1.031497709E0,1.301600099E0,-4.047590256E0,9.162971377E-2
1.036252449E0,1.295491457E0,-4.080576897E0,1.270598769E-1
1.041007188E0,1.293658853E0,-4.051255226E0,1.631008983E-1
1.045761928E0,1.302211046E0,-3.992612123E0,2.028071135E-1
1.050516667E0,1.322369576E0,-3.902815104E0,2.474002391E-1
1.055271407E0,1.356577992E0,-3.800800562E0,2.919933498E-1
1.060026146E0,1.399338484E0,-3.725664377E0,3.323104382E-1
1.064780938E0,1.444542527E0,-3.648695230E0,3.714057803E-1
1.069535678E0,1.489135623E0,-3.562563419E0,4.068359435E-1
1.074290417E0,1.531285286E0,-3.478874922E0,4.379900396E-1
1.079045157E0,1.557552457E0,-3.454440355E0,4.624246359E-1
1.083799896E0,1.568548083E0,-3.451996803E0,4.905244112E-1
1.088554636E0,1.566715479E0,-3.460548878E0,5.241219997E-1
1.093309376E0,1.536172152E0,-3.514305115E0,5.589412451E-1
1.098064167E0,1.483637810E0,-3.556454659E0,6.023126841E-1
1.102818907E0,1.408501506E0,-3.540572166E0,6.572905183E-1
1.107573646E0,1.313817382E0,-3.447109938E0,7.244856358E-1
1.112328386E0,1.200196624E0,-3.310276270E0,8.051197529E-1
1.117083126E0,1.072525859E0,-3.186270714E0,9.046907425E-1
1.121837865E0,9.344704151E-1,-3.043328285E0,1.029307127E0
1.126592657E0,7.823650837E-1,-2.863123178E0,1.170416951E0
1.131347396E0,6.204859018E-1,-2.670089960E0,1.313970089E0
1.136102136E0,4.610501826E-1,-2.464839458E0,1.461188555E0
1.140856876E0,3.199404180E-1,-2.270584345E0,1.608407021E0
1.145611615E0,2.093739063E-1,-2.162461281E0,1.745851517E0
1.150366407E0,1.348484010E-1,-2.141691923E0,1.873522282E0
1.155121146E0,1.043051630E-1,-2.154520035E0,1.982256174E0
1.159875886E0,1.201876476E-1,-2.193615437E0,2.059225082E0
1.164630626E0,1.818849891E-1,-2.249814987E0,2.101985693E0
1.169385365E0,2.906189263E-1,-2.306625366E0,2.117257357E0
1.174140157E0,4.274526238E-1,-2.402531147E0,2.100153208E0
1.178894896E0,5.569559336E-1,-2.568075418E0,2.042120934E0
1.183649636E0,6.479747891E-1,-2.790430307E0,1.959043384E0
1.188404376E0,6.937896609E-1,-2.999956846E0,1.885128736E0
1.193159167E0,6.876810193E-1,-3.163668633E0,1.820376992E0
1.197913907E0,6.424770355E-1,-3.278511286E0,1.754403591E0
1.202668646E0,5.734493136E-1,-3.344484568E0,1.688430309E0
1.207423386E0,4.891499579E-1,-3.371362686E0,1.625511169E0
1.212178126E0,3.944659233E-1,-3.365254164E0,1.572976828E0
1.216932917E0,3.046688139E-1,-3.349982500E0,1.532048821E0
1.221687657E0,2.319758981E-1,-3.295004606E0,1.501505613E0
1.226442396E0,1.757763475E-1,-3.168555498E0,1.473405838E0
1.231197136E0,1.391244531E-1,-2.985907078E0,1.444084287E0
1.235951928E0,1.293506175E-1,-2.776380539E0,1.403156400E0
1.240706667E0,1.519526094E-1,-2.576627731E0,1.353065491E0
1.245461407E0,1.977674663E-1,-2.407418013E0,1.298698545E0
1.250216146E0,2.661843300E-1,-2.290742874E0,1.244942427E0
1.254970938E0,3.620901108E-1,-2.216828346E0,1.195462346E0
1.259725678E0,4.683805704E-1,-2.196669817E0,1.144149780E0
1.264480417E0,5.722275972E-1,-2.203389168E0,1.083063245E0
1.269235209E0,6.681333780E-1,-2.217439175E0,9.999856353E-1
1.273989949E0,7.530435324E-1,-2.263864756E0,8.979712129E-1
1.278744688E0,8.355103135E-1,-2.332892656E0,7.880155444E-1
1.283499428E0,9.161444306E-1,-2.403752804E0,6.676751971E-1
1.288254219E0,9.857830405E-1,-2.490495682E0,5.540543795E-1
1.293008959E0,1.043204308E0,-2.549749613E0,4.636463821E-1
1.297763699E0,1.089630008E0,-2.536921501E0,3.982838392E-1
1.302518490E0,1.123227596E0,-2.483776093E0,3.830122054E-1
1.307273230E0,1.139720917E0,-2.374431372E0,4.105011225E-1
1.312027969E0,1.137888312E0,-2.199723959E0,4.709767401E-1
1.316782709E0,1.114064693E0,-1.963930249E0,5.644390583E-1
1.321537501E0,1.073747516E0,-1.670104265E0,6.908880472E-1
1.326292240E0,1.028543591E0,-1.349400282E0,8.460476995E-1
1.331046980E0,9.778417945E-1,-1.037248373E0,1.026863694E0
1.335801771E0,9.094249606E-1,-7.788525820E-1,1.200960159E0
1.340556511E0,8.171843290E-1,-5.522217751E-1,1.351843715E0
1.345311251E0,7.041743994E-1,-3.371973634E-1,1.473405838E0
1.350066042E0,5.783362389E-1,-1.453858167E-1,1.564424753E0
1.354820782E0,4.512763619E-1,1.649334840E-2,1.625511169E0
1.359575521E0,3.486510813E-1,1.490510106E-1,1.648113132E0
1.364330313E0,2.729038298E-1,2.425133139E-1,1.636506796E0
1.369085053E0,1.953240186E-1,2.803869247E-1,1.605352640E0
1.373839792E0,1.134681329E-1,2.700022459E-1,1.567479014E0
1.378594584E0,2.428187430E-2,2.492328286E-1,1.535714030E0
1.383349324E0,-5.085449293E-2,2.486219704E-1,1.517388105E0
1.388104063E0,-9.911280870E-2,2.919933498E-1,1.508225083E0
1.392858855E0,-1.272125840E-1,3.891208768E-1,1.507003427E0
1.397613594E0,-1.547015011E-1,5.198459029E-1,1.517388105E0
1.402368386E0,-1.828012913E-1,6.346884966E-1,1.541822672E0
1.407123126E0,-2.023489624E-1,7.067705393E-1,1.575420260E0
1.411877865E0,-2.072358727E-1,7.348703146E-1,1.615737319E0
1.416632657E0,-1.882990748E-1,7.183769941E-1,1.654832721E0
1.421387396E0,-1.388190240E-1,6.499601007E-1,1.693928003E0
1.426142136E0,-6.490438432E-2,5.907062292E-1,1.737910271E0
1.430896928E0,3.283398226E-2,5.876519084E-1,1.773951292E0
1.435651667E0,1.434005052E-1,5.827649832E-1,1.780670881E0
1.440406459E0,2.509126961E-1,6.108647585E-1,1.753181934E0
1.445161199E0,3.297142684E-1,6.524035931E-1,1.709810495E0
1.449915938E0,3.755291104E-1,6.627882719E-1,1.668271661E0
1.454670730E0,3.889681399E-1,6.579013467E-1,1.640171885E0
1.459425469E0,3.853029609E-1,6.322450638E-1,1.610850453E0
1.464180209E0,3.749182522E-1,6.377428174E-1,1.583361506E0
1.468935001E0,3.449858725E-1,6.817250848E-1,1.530827165E0
1.473689740E0,2.961167097E-1,7.153226733E-1,1.453858137E0
1.478444532E0,2.313650399E-1,7.745765448E-1,1.371391416E0
1.483199271E0,1.464548260E-1,8.924734592E-1,1.300531149E0
1.487954011E0,3.527744114E-2,9.633337855E-1,1.222951293E0
1.492708803E0,-8.811724186E-2,9.584468603E-1,1.140484571E0
1.497463542E0,-2.163988501E-1,9.511164427E-1,1.061072111E0
1.502218334E0,-3.312414289E-1,9.443969727E-1,9.987639189E-1
1.506973074E0,-4.271472096E-1,9.633337855E-1,9.596685767E-1
1.511727813E0,-5.236638188E-1,1.006705165E0,9.352339506E-1
1.516482605E0,-6.281217337E-1,1.044578791E0,9.199623466E-1
1.521237344E0,-7.411317229E-1,1.056796074E0,9.187406301E-1
1.525992136E0,-8.535308242E-1,1.073289394E0,9.321796298E-1
1.530746876E0,-9.598212838E-1,1.114217401E0,9.566142559E-1
1.535501615E0,-1.079550743E0,1.180801630E0,9.676098228E-1
1.540256407E0,-1.219438791E0,1.269987822E0,9.590576887E-1
1.545011146E0,-1.371544123E0,1.357952356E0,9.425643682E-1
1.549765938E0,-1.522427797E0,1.443473458E0,9.260709882E-1
1.554520678E0,-1.681863427E0,1.532048821E0,9.053016305E-1
1.559275469E0,-1.846186042E0,1.678045511E0,8.784235716E-1
1.564030209E0,-2.026391268E0,1.842368126E0,8.491020203E-1
1.568785001E0,-2.216370106E0,1.965762854E0,8.197805285E-1
1.573539740E0,-2.412457705E0,2.029292822E0,7.904590368E-1
1.578294480E0,-2.607934475E0,2.039677382E0,7.593049407E-1
1.583049271E0,-2.785696030E0,2.053727388E0,7.244856358E-1
1.587804011E0,-2.918253660E0,2.090379238E0,6.884446144E-1
1.592558803E0,-2.979340315E0,2.128252983E0,6.524035931E-1
1.597313542E0,-2.967123032E0,2.144135475E0,6.188060045E-1
1.602068334E0,-2.888932228E0,2.138637543E0,5.858193040E-1
1.606823074E0,-2.764315844E0,2.127031088E0,5.503891706E-1
1.611577865E0,-2.625038624E0,2.108705282E0,5.131264329E-1
1.616332605E0,-2.499811411E0,2.063501120E0,4.801397026E-1
1.621087344E0,-2.397186041E0,1.983477950E0,4.416552484E-1
1.625842136E0,-2.318384647E0,1.866802812E0,3.976729810E-1
1.630596928E0,-2.251189470E0,1.728136420E0,3.597993553E-1
1.635351667E0,-2.180329084E0,1.587637544E0,3.274235129E-1
1.640106407E0,-2.097862482E0,1.487455726E0,3.005454838E-1
1.644861199E0,-2.009897947E0,1.449582100E0,2.706131041E-1
1.649615938E0,-1.921933293E0,1.448360443E0,2.382372618E-1
1.654370730E0,-1.835801363E0,1.427590966E0,2.009745091E-1
1.659125469E0,-1.747836828E0,1.365893602E0,1.459966749E-1
1.663880261E0,-1.642768145E0,1.272431374E0,7.024945319E-2
1.668635001E0,-1.523649454E0,1.148425817E0,-1.466075517E-2
1.673389792E0,-1.411250353E0,9.669989347E-1,-8.613193035E-2
1.678144532E0,-1.298240423E0,7.556397319E-1,-1.447749585E-1
1.682899324E0,-1.178510904E0,5.717694163E-1,-1.899789423E-1
1.687654063E0,-1.053283572E0,4.153880477E-1,-2.052505612E-1
1.692408855E0,-9.243911505E-1,2.626718581E-1,-1.881463528E-1
1.697163594E0,-7.967203856E-1,1.240055487E-1,-1.612683088E-1
1.701918386E0,-6.837103963E-1,1.832594350E-2,-1.380554438E-1
1.706673126E0,-5.871937871E-1,-5.864302069E-2,-1.350011230E-1
1.711427917E0,-5.145008564E-1,-1.435532272E-1,-1.466075480E-1
1.716182657E0,-4.754055142E-1,-2.449567765E-1,-1.655443609E-1
1.720937449E0,-4.735729098E-1,-3.426951468E-1,-1.795942485E-1
1.725692188E0,-4.925097227E-1,-4.037816226E-1,-1.985310465E-1
1.730446980E0,-5.297724605E-1,-4.508182108E-1,-2.150243968E-1
1.735201719E0,-5.792525411E-1,-4.813614488E-1,-2.351829410E-1
1.739956511E0,-6.018545032E-1,-4.312705398E-1,-2.803869247E-1
1.744711251E0,-5.957458615E-1,-3.310887218E-1,-3.237583339E-1
1.749466042E0,-5.871937871E-1,-2.480110973E-1,-3.481929302E-1
1.754220782E0,-5.859720111E-1,-2.107483447E-1,-3.616319597E-1
1.758975574E0,-5.926915407E-1,-2.083048970E-1,-3.689623177E-1
1.763730365E0,-5.981893539E-1,-1.985310465E-1,-3.573558927E-1
1.768485105E0,-5.908589363E-1,-1.551596522E-1,-3.225366175E-1
1.773239896E0,-5.755873322E-1,-9.651663154E-2,-2.809978127E-1
1.777994636E0,-5.432115197E-1,-6.291907281E-2,-2.522871494E-1
1.782749428E0,-4.992292523E-1,-6.047561392E-2,-2.437350452E-1
1.787504167E0,-4.259254634E-1,-7.024945319E-2,-2.547306120E-1
1.792258959E0,-3.294088244E-1,-1.466075480E-1,-2.626718581E-1
1.797013699E0,-2.249509543E-1,-2.260199636E-1,-2.626718581E-1
1.801768490E0,-1.229365394E-1,-2.767217457E-1,-3.158170879E-1
1.806523230E0,-2.397644334E-2,-3.488037884E-1,-3.970620930E-1
1.811278021E0,7.131846249E-2,-4.288270772E-1,-4.862483740E-1
1.816032813E0,1.501200199E-1,-5.155698657E-1,-5.656607747E-1
1.820787553E0,2.130390853E-1,-5.943714380E-1,-6.126973629E-1
1.825542344E0,2.680169344E-1,-6.566796303E-1,-6.047561169E-1
1.830297084E0,3.254382014E-1,-6.939423680E-1,-5.681042671E-1
1.835051876E0,3.853029609E-1,-7.098248601E-1,-5.100721121E-1
1.839806615E0,4.537198246E-1,-6.853902936E-1,-4.190532267E-1
1.844561407E0,5.209149122E-1,-6.267472506E-1,-3.133736253E-1
1.849316199E0,5.746710300E-1,-5.638281703E-1,-2.107483447E-1
1.854070938E0,6.046034098E-1,-4.856374860E-1,-1.246164143E-1
1.858825730E0,6.003273726E-1,-4.386008978E-1,-6.291907281E-2
1.863580469E0,5.667297840E-1,-4.477638900E-1,-2.993237413E-2
1.868335261E0,5.221366882E-1,-4.703658819E-1,-1.771507785E-2
1.873090001E0,4.775435328E-1,-4.862483740E-1,-1.527161989E-2
1.877844792E0,4.396699369E-1,-4.703658819E-1,-7.330377586E-3
1.882599584E0,4.103484154E-1,-4.135554433E-1,1.038470119E-2
1.887354324E0,3.822486401E-1,-3.494146466E-1,4.031707719E-2
1.892109115E0,3.535379767E-1,-3.200931549E-1,6.475166976E-2
1.896863855E0,3.248273432E-1,-3.695732057E-1,7.635809481E-2
1.901618646E0,3.034470677E-1,-4.728093445E-1,7.635809481E-2
1.906373386E0,2.948949635E-1,-5.839866996E-1,7.574722916E-2
1.911128178E0,3.291034102E-1,-6.585122347E-1,8.002328873E-2
1.915882969E0,4.079049528E-1,-6.994401813E-1,7.635809481E-2
1.920637709E0,5.270236135E-1,-7.305942774E-1,7.086031139E-2
1.925392501E0,6.510291100E-1,-7.556397319E-1,7.086031139E-2
1.930147292E0,7.634282708E-1,-7.745765448E-1,7.330377400E-2
1.934902032E0,8.452841640E-1,-7.965676785E-1,7.208204269E-2
1.939656824E0,8.984293938E-1,-8.319978118E-1,6.719512492E-2
1.944411563E0,9.271399975E-1,-8.936951756E-1,6.291907281E-2
1.949166355E0,9.393573403E-1,-9.749401808E-1,5.070177838E-2
1.953921094E0,9.644027948E-1,-1.069013357E0,1.954767294E-2
1.958675886E0,1.037706494E0,-1.218675256E0,-9.162971750E-3
1.963430678E0,1.164766431E0,-1.424536705E0,2.199113183E-2
1.968185417E0,1.333365083E0,-1.651778340E0,5.619955808E-2
1.972940209E0,1.552054644E0,-1.880241752E0,7.880155742E-2
1.977695001E0,1.825722098E0,-2.060446978E0,9.101885557E-2
1.982449740E0,2.176358461E0,-1.898567677E0,4.398226365E-2
1.987204532E0,2.542266607E0,-1.541211843E0,1.221729559E-3
1.991959271E0,2.762177706E0,-1.303585410E0,-2.015853859E-2
1.996714063E0,2.751793146E0,-1.299920201E0,-5.803215504E-2
2.001468855E0,2.564257622E0,-1.397047758E0,-1.441640854E-1
2.006223594E0,2.246608019E0,-1.491120934E0,-2.889390290E-1
2.010978386E0,1.858097911E0,-1.437364817E0,-4.978547990E-1
2.015733178E0,1.438433886E0,-1.299309373E0,-7.360920310E-1
2.020487917E0,9.760091901E-1,-1.239444613E0,-9.193515182E-1
2.025242709E0,5.490147471E-1,-1.207679629E0,-1.038470149E0
2.029997501E0,2.160934210E-1,-1.190575480E0,-1.123380303E0
2.034752240E0,-1.420260593E-2,-1.166140914E0,-1.189353704E0
2.039507032E0,-1.638644785E-1,-1.147814870E0,-1.242498994E0
2.044261771E0,-2.506072819E-1,-1.202181935E0,-1.293811560E0
2.049016563E0,-2.567159235E-1,-1.310304999E0,-1.348789454E0
2.053771355E0,-1.809686869E-1,-1.439197421E0,-1.451414704E0
2.058526094E0,-4.230238497E-2,-1.502727389E0,-1.537546635E0
2.063280886E0,1.531743407E-1,-1.458745122E0,-1.563813806E0
2.068035626E0,3.614792228E-1,-1.368337154E0,-1.534492373E0
2.072790417E0,5.569559336E-1,-1.263879180E0,-1.466686368E0
2.077545209E0,7.231112123E-1,-1.163086534E0,-1.387884736E0
2.082300001E0,8.550579548E-1,-1.037859201E0,-1.315191865E0
2.087054740E0,9.326378107E-1,-8.148936033E-1,-1.246775031E0
2.091809532E0,9.289726019E-1,-5.943714380E-1,-1.186910272E0
2.096564271E0,8.532254100E-1,-5.070177913E-1,-1.158199668E0
2.101319063E0,7.261655331E-1,-5.601630211E-1,-1.188742876E0
2.106073855E0,5.868883133E-1,-7.000510097E-1,-1.277318239E0
2.110828594E0,4.726566374E-1,-8.723149300E-1,-1.407432437E0
2.115583386E0,3.962985277E-1,-9.926552773E-1,-1.529605389E0
2.120338178E0,3.517054021E-1,-9.975422025E-1,-1.593135357E0
2.125092917E0,3.089448512E-1,-9.040798545E-1,-1.599243999E0
2.129847709E0,2.521344423E-1,-7.794634700E-1,-1.538768411E0
2.134602501E0,1.996000707E-1,-6.731730103E-1,-1.394604325E0
2.139357240E0,1.421787739E-1,-5.155698657E-1,-1.210123181E0
2.144112032E0,9.758564830E-2,-3.109301627E-1,-1.037248373E0
2.148866824E0,5.665770918E-2,-8.429934084E-2,-8.692606091E-1
2.153621563E0,3.466657549E-2,1.612683088E-1,-7.092140317E-1
2.158376355E0,2.611446939E-2,3.610210717E-1,-5.919279456E-1
2.163131146E0,2.672533318E-2,4.612029195E-1,-5.320632458E-1
2.167885886E0,3.711003438E-2,4.862483740E-1,-5.174024701E-1
2.172640678E0,5.054906011E-2,4.618137777E-1,-5.229002237E-1
2.177395469E0,6.398808211E-2,3.933969140E-1,-5.393936038E-1
2.182150209E0,7.620538026E-2,2.559523284E-1,-5.736020207E-1
2.186905001E0,8.292489499E-2,5.925388262E-2,-6.298015714E-1
2.191659792E0,9.636391699E-2,-1.710421443E-1,-7.067705393E-1
2.196414584E0,1.171333194E-1,-3.530798554E-1,-7.794634700E-1
2.201169324E0,1.397353113E-1,-4.813614488E-1,-8.423825502E-1
2.205924115E0,1.531743407E-1,-5.693259835E-1,-8.717040420E-1
2.210678907E0,1.574503928E-1,-5.888736248E-1,-8.527672291E-1
2.215433646E0,1.317940801E-1,-5.955931544E-1,-8.265000582E-1
2.220188438E0,9.392046183E-2,-5.833758712E-1,-8.014546037E-1
2.224943230E0,6.032289565E-2,-5.119046569E-1,-7.531962991E-1
2.229697969E0,4.016435891E-2,-3.720166385E-1,-6.701186895E-1
2.234452761E0,2.061668597E-2,-2.247982323E-1,-5.601630211E-1
2.239207553E0,4.123337101E-3,-1.038470119E-1,-4.379900396E-1
2.243962344E0,2.290742937E-3,-1.160643063E-2,-3.445277214E-1
2.248717084E0,1.817322709E-2,1.954767294E-2,-3.231474757E-1
2.253471876E0,6.032289565E-2,-9.162971750E-3,-3.555232882E-1
2.258226667E0,1.250745654E-1,-8.246674389E-2,-4.318813980E-1
2.262981407E0,1.598938555E-1,-1.783725172E-1,-5.626064539E-1
2.267736199E0,1.525634825E-1,-3.017672002E-1,-7.238747478E-1
2.272490990E0,1.207985133E-1,-4.184423685E-1,-8.796452880E-1
2.277245730E0,8.414662629E-2,-4.654789567E-1,-1.001818180E0
2.282000521E0,1.939495653E-2,-4.282162189E-1,-1.072678566E0
2.286755313E0,-8.139773458E-2,-3.659079969E-1,-1.097113132E0
2.291510105E0,-1.907425225E-1,-3.280344009E-1,-1.108108759E0
2.296264844E0,-2.774853408E-1,-3.359756172E-1,-1.078176379E0
2.301019636E0,-3.251327872E-1,-3.384190798E-1,-9.908226728E-1
2.305774428E0,-3.312414289E-1,-3.280344009E-1,-9.022472501E-1
2.310529219E0,-3.013090491E-1,-3.506363928E-1,-8.277217746E-1
2.315283959E0,-2.444986254E-1,-4.202749729E-1,-7.715222239E-1
2.320038751E0,-1.559232324E-1,-4.886918366E-1,-7.373138070E-1
2.324793542E0,-4.046979174E-2,-4.911352694E-1,-7.287616730E-1
2.329548282E0,8.475748450E-2,-4.508182108E-1,-7.458658814E-1
2.334303074E0,1.904370934E-1,-4.337140024E-1,-7.800742984E-1
2.339057865E0,2.667951882E-1,-4.465421438E-1,-8.265000582E-1
2.343812657E0,3.113883138E-1,-4.575377107E-1,-8.820887208E-1
2.348567396E0,3.278816640E-1,-4.770853817E-1,-9.578359723E-1
2.353322188E0,3.223838806E-1,-5.277871490E-1,-1.050076604E0
2.358076980E0,3.052796721E-1,-6.096430421E-1,-1.144760609E0
2.362831771E0,2.985601723E-1,-7.208204269E-1,-1.192408085E0
2.367586511E0,2.820668221E-1,-7.067705393E-1,-1.210734010E0
2.372341303E0,2.228129357E-1,-6.126973629E-1,-1.171027780E0
2.377096094E0,8.292489499E-2,-5.027416945E-1,-1.049465656E0
2.381850886E0,-5.390881747E-2,-3.408625424E-1,-9.028581381E-1
2.386605626E0,-1.412624866E-1,-8.368847519E-2,-6.994401813E-1
2.391360417E0,-1.632536054E-1,2.651153207E-1,-4.269944727E-1
2.396115209E0,-1.742491722E-1,5.668824911E-1,-1.130099818E-1
2.400870001E0,-2.212857604E-1,8.063415289E-1,2.443459183E-1
2.405624740E0,-2.921460867E-1,1.015868187E0,5.919279456E-1
2.410379532E0,-3.709476292E-1,1.193018913E0,8.319978118E-1
2.415134324E0,-4.546361268E-1,1.327409148E0,9.065233469E-1
2.419889115E0,-5.285507441E-1,1.414762855E0,8.484911919E-1
2.424643907E0,-5.902481079E-1,1.463021159E0,7.128791809E-1
2.429398646E0,-6.421716213E-1,1.538157463E0,5.760455132E-1
2.434153438E0,-7.228057384E-1,1.726303816E0,4.917461574E-1
2.438908230E0,-8.034399152E-1,1.620624304E0,3.891208768E-1
2.443663021E0,-8.303179741E-1,1.241888046E0,2.712239623E-1
2.448417813E0,-7.722858191E-1,8.869756460E-1,1.991419196E-1
2.453172553E0,-6.336194873E-1,8.075632453E-1,2.266308367E-1
2.457927344E0,-4.833467603E-1,8.741474748E-1,2.993237376E-1
2.462682136E0,-4.039343297E-1,8.869756460E-1,3.824013472E-1
2.467436928E0,-4.179842174E-1,8.118392825E-1,4.905244112E-1
2.472191667E0,-4.815141559E-1,7.806851864E-1,6.401863098E-1
2.476946459E0,-5.535961986E-1,8.576541543E-1,8.124501705E-1
2.481701251E0,-6.177369952E-1,9.963204265E-1,9.877683520E-1
2.486456042E0,-6.830995679E-1,1.177747250E0,1.172860384E0
2.491210834E0,-7.704532146E-1,1.389106512E0,1.371391416E0
2.495965574E0,-8.810197115E-1,1.614515662E0,1.608407021E0
2.500720365E0,-1.011133909E0,1.839313865E0,1.874744058E0
2.505475157E0,-1.171791315E0,2.044564486E0,2.141081095E0
2.510229949E0,-1.369711518E0,2.208887100E0,2.386037827E0
2.514984688E0,-1.606116176E0,2.309679747E0,2.568686485E0
2.519739480E0,-1.874285817E0,2.316399336E0,2.651153088E0
2.524494271E0,-2.136957645E0,2.171624184E0,2.613279581E0
2.529249063E0,-2.317162752E0,1.922391415E0,2.460563421E0
2.534003855E0,-2.370308161E0,1.634063244E0,2.202167511E0
2.538758646E0,-2.322049856E0,1.358563304E0,1.928500056E0
2.543513386E0,-2.190713882E0,1.144149780E0,1.750738502E0
2.548268178E0,-2.014784813E0,1.018311620E0,1.704312682E0
2.553022969E0,-1.818697214E0,9.669989347E-1,1.780670881E0
2.557777761E0,-1.639713764E0,9.682206511E-1,1.965152025E0
2.562532553E0,-1.486386776E0,1.046411395E0,2.240652084E0
2.567287344E0,-1.350163937E0,1.211955667E0,2.542419195E0
2.572042084E0,-1.221271396E0,1.428812742E0,2.814864874E0
2.576796876E0,-1.100320220E0,1.656665325E0,3.053102255E0
2.581551667E0,-9.940297008E-1,1.912006736E0,3.271180868E0
2.586306459E0,-9.292780161E-1,2.142302752E0,3.474598885E0
2.591061251E0,-9.414953589E-1,2.284023523E0,3.625482559E0
2.595815990E0,-1.008690476E0,2.284023523E0,3.677406073E0
2.600570782E0,-1.082605124E0,2.105650902E0,3.649306297E0
2.605325574E0,-1.104596257E0,1.788001180E0,3.563174248E0
2.610080365E0,-1.059392214E0,1.339015603E0,3.434281826E0
2.614835157E0,-9.653190970E-1,8.362739086E-1,3.341430426E0
2.619589949E0,-8.358157277E-1,3.646862805E-1,3.368919373E0
2.624344740E0,-6.183478832E-1,4.764745384E-2,3.381136656E0
2.629099480E0,-2.982547283E-1,-2.150243968E-1,3.150840521E0
2.633854271E0,1.464548260E-1,-6.188060045E-1,2.678031206E0
2.638609063E0,7.860302329E-1,-1.276707411E0,2.131918192E0
2.643363855E0,1.500742078E0,-1.761123180E0,1.463631988E0
2.648118646E0,2.164141178E0,-1.935219646E0,7.990111113E-1
2.652873438E0,2.729801893E0,-1.971871495E0,3.103193045E-1
2.657628230E0,3.145800829E0,-2.034179688E0,1.404988952E-2
2.662382969E0,3.365712166E0,-2.171013355E0,-1.026252806E-1
2.667137761E0,3.318675518E0,-2.219882727E0,-7.574722916E-2
2.671892553E0,2.995528221E0,-2.059836149E0,2.321286127E-2
2.676647344E0,2.454912901E0,-1.754403591E0,1.490510106E-1
2.681402136E0,1.757916093E0,-1.382387042E0,2.828303874E-1
2.686156928E0,9.973894954E-1,-9.572250843E-1,4.050033391E-1
2.690911719E0,2.948949635E-1,-5.638281703E-1,5.045742989E-1
2.695666511E0,-2.603811026E-1,-2.602283955E-1,5.913171172E-1
2.700421251E0,-6.232348084E-1,-8.063415438E-2,7.098248601E-1
2.705176042E0,-8.009964228E-1,-3.176496923E-2,8.869756460E-1
2.709930834E0,-8.174898028E-1,-5.742128938E-2,1.101389170E0
2.714685626E0,-7.154753804E-1,-8.491020650E-2,1.285870314E0
2.719440417E0,-5.254964232E-1,-1.014035568E-1,1.362839341E0
2.724195209E0,-2.689332068E-1,-1.508836001E-1,1.304196358E0
2.728950001E0,1.450803876E-2,-2.889390290E-1,1.142928004E0
2.733704792E0,2.698495090E-1,-5.064069033E-1,9.340122342E-1
2.738459584E0,4.329504073E-1,-8.210022449E-1,7.287616730E-1
2.743214324E0,4.970912039E-1,-1.170416951E0,5.626064539E-1
2.747969115E0,5.282453299E-1,-1.378110886E0,4.764745235E-1
2.752723907E0,5.245801210E-1,-1.390328288E0,4.477638900E-1
2.757478699E0,4.683805704E-1,-1.222340465E0,4.428769648E-1
2.762233490E0,3.541488647E-1,-9.407317638E-1,4.440986812E-1
2.766988282E0,1.385135949E-1,-7.336485982E-1,4.667007029E-1
2.771743074E0,-1.467602700E-1,-6.725621223E-1,4.996874034E-1
2.776497865E0,-4.082103968E-1,-6.334667802E-1,5.106829405E-1
2.781252657E0,-6.012436748E-1,-5.375609994E-1,4.899135530E-1
2.786007449E0,-6.983711720E-1,-4.196641147E-1,4.172206521E-1
2.790762240E0,-7.368556261E-1,-3.714057803E-1,3.097084463E-1
2.795517032E0,-7.533490062E-1,-3.995055556E-1,1.716530025E-1
2.800271771E0,-7.600684762E-1,-4.074468017E-1,-3.665188793E-3
2.805026563E0,-7.570141554E-1,-3.714057803E-1,-2.040288299E-1
2.809781355E0,-7.399099469E-1,-3.072649837E-1,-4.489856064E-1
2.814536146E0,-6.788234711E-1,-2.278525680E-1,-7.281508446E-1
2.819290938E0,-5.988001823E-1,-1.606574357E-1,-1.012813807E0
2.824045730E0,-5.554288030E-1,-1.172860414E-1,-1.255937934E0
2.828800521E0,-5.346593857E-1,-1.447749585E-1,-1.425758362E0
2.833555313E0,-5.407680273E-1,-2.406807244E-1,-1.528383732E0
2.838310105E0,-5.975784659E-1,-3.152062297E-1,-1.576642036E0
2.843064896E0,-6.769908667E-1,-4.257727563E-1,-1.590080976E0
2.847819688E0,-7.851139307E-1,-5.925388336E-1,-1.547320485E0
2.852574480E0,-8.602503538E-1,-7.195987105E-1,-1.484401464E0
2.857329271E0,-8.871283531E-1,-7.794634700E-1,-1.409875870E0
2.862084063E0,-8.694133162E-1,-7.886264324E-1,-1.280983448E0
2.866838855E0,-8.437569737E-1,-8.265000582E-1,-1.141095400E0
2.871593646E0,-8.321505189E-1,-8.210022449E-1,-1.083063245E0
2.876348438E0,-8.003855944E-1,-7.415898442E-1,-1.087339282E0
2.881103230E0,-7.179188132E-1,-5.962040424E-1,-1.125212908E0
2.885858021E0,-6.097957492E-1,-4.978547990E-1,-1.180190802E0
2.890612813E0,-5.083922148E-1,-4.703658819E-1,-1.222340465E0
2.895367605E0,-4.002691507E-1,-4.526508152E-1,-1.226005554E0
2.900122396E0,-2.774853408E-1,-4.263836145E-1,-1.190575480E0
2.904877188E0,-1.388190240E-1,-4.184423685E-1,-1.117271662E0
2.909631980E0,2.306014486E-2,-4.605920315E-1,-1.069013357E0
2.914386771E0,2.014326602E-1,-5.766563416E-1,-1.065959096E0
2.919141563E0,3.376555145E-1,-8.295543790E-1,-1.121547699E0
2.923896355E0,4.140135944E-1,-1.120326042E0,-1.202792764E0
2.928651146E0,4.317286909E-1,-1.259603143E0,-1.273042202E0
2.933405938E0,4.182896614E-1,-1.239444613E0,-1.363450170E0
2.938160730E0,4.127918780E-1,-1.067791581E0,-1.474627614E0
2.942915521E0,4.189005196E-1,-9.382883310E-1,-1.557094336E0
2.947670313E0,3.895790279E-1,-9.431751966E-1,-1.562592149E0
2.952425105E0,3.413206935E-1,-9.150754213E-1,-1.496618748E0
2.957179896E0,3.040579557E-1,-7.379246354E-1,-1.381776094E0
2.961934688E0,2.857320011E-1,-4.581485987E-1,-1.241277218E0
2.966689480E0,2.955058515E-1,-2.217439115E-1,-1.108108759E0
2.971444271E0,3.174969554E-1,-6.108647957E-2,-9.981530309E-1
2.976199063E0,3.394880891E-1,2.748891525E-2,-8.655954003E-1
2.980953855E0,3.736965358E-1,-3.054323979E-2,-8.216131330E-1
2.985708646E0,4.268417656E-1,-9.285144508E-2,-9.737184644E-1
2.990463438E0,5.031998754E-1,-1.679878086E-1,-1.152701855E0
2.995218230E0,6.052142978E-1,-2.425133139E-1,-1.153923512E0
2.999973021E0,6.901245117E-1,-2.412915826E-1,-1.050076604E0
3.004727813E0,7.634282708E-1,-1.918115467E-1,-9.266818762E-1
3.009482605E0,7.780889869E-1,-3.243691921E-1,-8.503237963E-1
3.014237396E0,7.066178322E-1,-4.819723070E-1,-8.130609989E-1
3.018992188E0,6.162098646E-1,-4.636463821E-1,-7.727439404E-1
3.023746980E0,5.758927464E-1,-3.701840639E-1,-7.525854111E-1
3.028501771E0,5.752819180E-1,-1.991419196E-1,-7.751874328E-1
3.033256563E0,5.716167092E-1,-1.075121984E-1,-6.933315396E-1
3.038011355E0,5.367974043E-1,-5.131264031E-2,-5.607738495E-1
3.042766146E0,5.031998754E-1,2.993237413E-2,-4.153880477E-1
3.047520990E0,5.203040838E-1,1.270598769E-1,-2.602283955E-1
3.052275782E0,5.801688433E-1,2.131918073E-1,-1.178968996E-1
3.057030574E0,6.534726024E-1,2.858847082E-1,-1.160643063E-2
3.061785365E0,7.121156454E-1,3.207040131E-1,7.635809481E-2
3.066540157E0,7.512109876E-1,2.981020212E-1,1.508836001E-1
3.071294949E0,7.713695168E-1,2.608392537E-1,2.076940238E-1
3.076049740E0,7.805324793E-1,2.119700760E-1,2.590066791E-1
3.080804532E0,7.872520089E-1,1.404989064E-1,3.323104382E-1
3.085559324E0,7.884737253E-1,6.291907281E-2,4.392117858E-1
3.090314115E0,7.738129497E-1,4.886918236E-3,5.583304167E-1
3.095068907E0,7.426588535E-1,-3.420842811E-2,6.640099883E-1
3.099823751E0,7.053961158E-1,-6.902772188E-2,7.641918659E-1
3.104578542E0,6.736311316E-1,-9.834922850E-2,8.717040420E-1
3.109333334E0,6.559160352E-1,-1.136208475E-1,1.012202978E0
3.114088126E0,6.577486396E-1,-1.478292793E-1,1.171027780E0
3.118842917E0,6.284271479E-1,-1.362228394E-1,1.353676319E0
3.123597709E0,5.795579553E-1,-3.726275265E-2,1.567479014E0
3.128352501E0,5.093085170E-1,-9.773836471E-3,1.795331597E0
3.133107292E0,4.237874448E-1,-2.443459071E-2,2.065333843E0
3.137862084E0,3.504836559E-1,-2.504545636E-2,2.378707409E0
3.142616876E0,2.753472924E-1,-1.954767294E-2,2.712850571E0
3.147371667E0,1.904370934E-1,-1.099556591E-2,3.057378292E0
3.152126511E0,7.803797722E-2,1.038470119E-2,3.407403708E0
3.156881303E0,-1.021671370E-1,6.780599058E-2,3.721999168E0
3.161636094E0,-3.727802336E-1,1.484401375E-1,3.970010281E0
3.166390886E0,-6.592758298E-1,2.724456787E-1,4.244899273E0
3.171145678E0,-9.567669630E-1,3.579667509E-1,4.504517078E0
3.175900469E0,-1.244484305E0,4.221075773E-1,4.756803989E0
3.180655261E0,-1.485165000E0,5.345066786E-1,5.020086765E0
3.185410105E0,-1.683696032E0,6.780598760E-1,5.277260780E0
3.190164896E0,-1.840077400E0,7.996219993E-1,5.539321899E0
3.194919688E0,-1.907883406E0,8.796452880E-1,5.845365047E0
3.199674480E0,-1.875507593E0,9.663881063E-1,6.225323200E0
3.204429271E0,-1.763108492E0,1.035415769E0,6.659037113E0
3.209184063E0,-1.603061914E0,1.003650784E0,7.079922676E0
3.213938907E0,-1.436906695E0,8.686497211E-1,7.423839569E0
3.218693699E0,-1.270751476E0,7.794634700E-1,7.870992661E0
3.223448490E0,-1.041677117E0,8.790344000E-1,8.478192329E0
3.228203282E0,-7.887791395E-1,1.025031090E0,9.122654915E0
3.232958074E0,-6.549997330E-1,1.069624186E0,9.575304985E0
3.237712865E0,-6.482802629E-1,1.029307127E0,9.742071152E0
3.242467657E0,-6.091849208E-1,7.580831647E-1,9.605237961E0
3.247222501E0,-4.344775677E-1,4.306596816E-1,9.291253090E0
3.251977292E0,-2.151771188E-1,3.836230934E-1,8.893580437E0
3.256732084E0,-4.963276163E-2,4.880809486E-1,8.371901512E0
3.261486876E0,4.260781780E-2,5.711585879E-1,7.646194458E0
3.266241667E0,8.231402934E-2,6.291907430E-1,6.695688725E0
3.270996459E0,9.086613357E-2,5.296197534E-1,5.561923981E0
3.275751303E0,4.321868345E-2,3.488037884E-1,4.391506672E0
3.280506094E0,-2.153298259E-2,1.606574357E-1,3.359145403E0
3.285260886E0,-3.924806044E-2,-2.138026804E-2,2.598007917E0
3.290015678E0,-1.481347065E-2,-1.820377111E-1,2.083659649E0
3.294770469E0,6.520981342E-2,-3.304778337E-1,1.750127554E0
3.299525261E0,1.941022873E-1,-4.386008978E-1,1.534492373E0
3.304280105E0,3.297142684E-1,-4.905244112E-1,1.362228513E0
3.309034896E0,3.962985277E-1,-5.210676789E-1,1.168584347E0
3.313789688E0,3.981311321E-1,-4.917461574E-1,9.065233469E-1
3.318544480E0,3.517054021E-1,-4.202749729E-1,5.821541548E-1
3.323299271E0,2.869537175E-1,-3.365865052E-1,2.590066791E-1
3.328054115E0,2.386954129E-1,-1.863137633E-1,-2.993237413E-2
3.332808907E0,2.099847645E-1,3.787361458E-2,-2.932150960E-1
3.337563699E0,2.002109289E-1,2.156352699E-1,-5.167915821E-1
3.342318490E0,2.228129357E-1,3.921751976E-1,-6.860011220E-1
3.347073334E0,2.655734718E-1,5.876519084E-1,-7.977893949E-1
3.351828126E0,2.942841053E-1,7.079922557E-1,-8.680388331E-1
3.356582917E0,2.704603672E-1,6.969966888E-1,-9.144645929E-1
3.361337709E0,1.464548260E-1,5.448913574E-1,-9.193515182E-1
3.366092501E0,-6.246092543E-2,2.883281708E-1,-8.759800792E-1
3.370847292E0,-2.982547283E-1,-1.282816008E-2,-7.770199776E-1
3.375602136E0,-5.083922148E-1,-3.274235129E-1,-6.224712133E-1
3.380356928E0,-6.562215090E-1,-6.517927051E-1,-4.453204274E-1
3.385111719E0,-7.386882305E-1,-9.706641436E-1,-2.755000293E-1
3.389866563E0,-7.619010806E-1,-1.287702918E0,-1.075121984E-1
3.394621355E0,-7.466294765E-1,-1.613293886E0,7.208204269E-2
3.399376146E0,-7.038689256E-1,-1.925445795E0,2.706131041E-1
3.404130938E0,-6.110175252E-1,-2.369544506E0,5.015199780E-1
3.408885782E0,-4.980075061E-1,-2.809367180E0,7.843503952E-1
3.413640574E0,-3.727802336E-1,-3.191768408E0,1.101389170E0
3.418395365E0,-2.322813272E-1,-3.544848204E0,1.441030025E0
3.423150157E0,-4.291325063E-2,-3.754374981E0,1.747073293E0
3.427904949E0,4.005745649E-1,-3.266294003E0,1.698814988E0
3.432659792E0,1.108566880E0,-1.979201913E0,1.152701855E0
3.437414584E0,1.879478216E0,-3.714057803E-1,3.378082216E-1
3.442169376E0,2.578918457E0,1.132543325E0,-4.813614488E-1
3.446924167E0,3.110981703E0,2.269973516E0,-1.100778341E0
3.451679011E0,3.425576925E0,2.888779640E0,-1.392771721E0
3.456433803E0,3.402364016E0,2.838077784E0,-1.328019977E0
3.461188594E0,2.912450552E0,2.025016785E0,-1.032361507E0
3.465943386E0,2.099389553E0,7.605266571E-1,-7.183769941E-1
3.470698230E0,1.286328554E0,-4.196641147E-1,-4.306596816E-1
3.475453021E0,7.011200786E-1,-1.187521100E0,-9.468404204E-2
3.480207813E0,4.182896614E-1,-1.487455726E0,2.816086709E-1
3.484962657E0,3.950767815E-1,-1.422093153E0,6.316341758E-1
3.489717449E0,5.526798964E-1,-1.129488945E0,9.010255337E-1
3.494472240E0,8.110756874E-1,-7.195987105E-1,1.067180753E0
3.499227032E0,1.100625634E0,-3.048215210E-1,1.176525593E0
3.503981876E0,1.367573500E0,6.108647794E-4,1.307861447E0
3.508736667E0,1.547167778E0,1.093447953E-1,1.536935806E0
3.513491459E0,1.654069066E0,3.604102135E-2,1.816711903E0
3.518246303E0,1.762803078E0,-9.285144508E-2,2.053727388E0
3.523001094E0,1.873369575E0,-2.474002391E-1,2.231488943E0
3.527755886E0,1.987601280E0,-4.037816226E-1,2.354883671E0
3.532510678E0,2.090837479E0,-5.723803043E-1,2.432463646E0
3.537265521E0,2.165362835E0,-7.574723363E-1,2.458730698E0
3.542020313E0,2.177580118E0,-9.480621219E-1,2.421468019E0
3.546775105E0,2.049298525E0,-9.578359723E-1,2.329227448E0
3.551529949E0,1.660788655E0,-2.742782831E-1,2.262643099E0
3.556284740E0,1.013882875E0,8.918625712E-1,2.273027897E0
3.561039532E0,2.863428593E-1,1.834426880E0,2.326783895E0
3.565794376E0,-3.709476292E-1,2.359159708E0,2.406196356E0
3.570549167E0,-8.975130916E-1,2.433685303E0,2.486219645E0
3.575303959E0,-1.309846759E0,2.118479013E0,2.536921501E0
3.580058803E0,-1.620777011E0,1.601076603E0,2.571129799E0
3.584813594E0,-1.840688348E0,1.060461283E0,2.604727507E0
3.589568386E0,-1.962861300E0,5.900954008E-1,2.646266222E0
3.594323178E0,-1.998902321E0,2.351829410E-1,2.695135355E0
3.599078021E0,-1.965915561E0,3.237583488E-2,2.748891592E0
3.603832813E0,-1.878561854E0,-2.138026804E-2,2.787986755E0
3.608587657E0,-1.752723813E0,-1.832594397E-3,2.787986755E0
3.613342449E0,-1.596342444E0,7.330377586E-3,2.723235130E0
3.618097240E0,-1.436295867E0,-4.031707719E-2,2.552803993E0
3.622852084E0,-1.316566348E0,-1.362228394E-1,2.232710838E0
3.627606876E0,-1.243873358E0,-2.113592178E-1,1.790444613E0
3.632361667E0,-1.187062979E0,-2.693913579E-1,1.275485635E0
3.637116511E0,-1.081994295E0,-3.518581092E-1,7.336485982E-1
3.641871303E0,-8.828523159E-1,-4.068359435E-1,2.083048970E-1
3.646626094E0,-5.884155035E-1,-2.443459183E-1,-2.376264036E-1
3.651380938E0,-2.365573794E-1,1.466075480E-1,-5.467239618E-1
3.656135730E0,1.317940801E-1,6.579013467E-1,-6.927206516E-1
3.660890521E0,4.738783538E-1,1.180801630E0,-7.006618977E-1
3.665645365E0,7.579304576E-1,1.584583282E0,-6.206386089E-1
3.670400157E0,9.613484740E-1,1.741575480E0,-5.082395077E-1
3.675154949E0,1.062141180E0,1.638950229E0,-4.117228687E-1
3.679909792E0,1.050534725E0,1.369558811E0,-3.579667509E-1
3.684664584E0,9.314160943E-1,1.021365881E0,-3.591884971E-1
3.689419376E0,7.231112123E-1,7.244856358E-1,-4.184423685E-1
3.694174219E0,4.524980783E-1,5.650499463E-1,-5.259546041E-1
3.698929011E0,1.543960720E-1,5.235111117E-1,-6.554579139E-1
3.703683855E0,-1.492037177E-1,5.137372613E-1,-7.757982612E-1
3.708438646E0,-4.308123887E-1,4.679224193E-1,-8.613193631E-1
3.713193438E0,-6.714931130E-1,3.695732057E-1,-9.077450633E-1
3.717948282E0,-8.510873318E-1,2.095266134E-1,-9.132428169E-1
3.722703074E0,-9.640973210E-1,2.321286127E-2,-8.875865340E-1
3.727457865E0,-1.018464327E0,-1.295033395E-1,-8.570432663E-1
3.732212709E0,-1.044731498E0,-1.942549944E-1,-8.295543790E-1
3.736967501E0,-1.066722631E0,-1.307250559E-1,-8.118392825E-1
3.741722344E0,-1.081994295E0,5.131264031E-2,-8.051197529E-1
3.746477136E0,-1.079550743E0,2.834412456E-1,-8.038980365E-1
3.751231928E0,-1.045342326E0,4.978547990E-1,-8.093958497E-1
3.755986771E0,-9.812015295E-1,6.169734001E-1,-8.326086998E-1
3.760741563E0,-9.103412628E-1,6.334667802E-1,-8.765909672E-1
3.765496407E0,-8.669698238E-1,5.962040424E-1,-9.077450633E-1
3.770251199E0,-8.474221826E-1,4.966330528E-1,-8.888082504E-1
3.775005990E0,-8.400917649E-1,3.280344009E-1,-8.136718869E-1
3.779760834E0,-8.290961981E-1,1.240055487E-1,-7.086031437E-1
3.784515626E0,-8.144354820E-1,-6.597339362E-2,-6.059778333E-1
3.789270469E0,-7.912226319E-1,-2.144135386E-1,-5.235111117E-1
3.794025261E0,-7.533490062E-1,-3.329212964E-1,-4.526508152E-1
3.798780053E0,-6.965385675E-1,-4.642572403E-1,-3.878991306E-1
3.803534896E0,-6.372846961E-1,-5.754346251E-1,-3.274235129E-1
3.808289688E0,-5.823068619E-1,-6.389645338E-1,-2.797760665E-1
3.813044532E0,-5.236638188E-1,-6.236929297E-1,-2.449567765E-1
3.817799324E0,-4.564687014E-1,-5.002982616E-1,-2.083048970E-1
3.822554167E0,-3.972148299E-1,-2.932150960E-1,-1.631008983E-1
3.827308959E0,-3.434587121E-1,-3.909534588E-2,-1.178968996E-1
3.832063751E0,-2.799287736E-1,2.333503515E-1,-7.208204269E-2
3.836818594E0,-1.913533956E-1,4.679224193E-1,-3.115410358E-2
3.841573386E0,-8.200860023E-2,6.133082509E-1,-1.160643063E-2
3.846328230E0,3.100138716E-2,6.719512343E-1,-1.771507785E-2
3.851083021E0,1.354592592E-1,6.462949514E-1,-5.375609919E-2
3.855837865E0,2.075413018E-1,5.797106624E-1,-1.240055487E-1
3.860592657E0,2.368628234E-1,5.125155449E-1,-2.302960157E-1
3.865347449E0,2.325867712E-1,4.715875983E-1,-3.628536761E-1
3.870102292E0,2.118173689E-1,4.605920315E-1,-5.002982616E-1
3.874857084E0,1.953240186E-1,4.648680985E-1,-6.499601007E-1
3.879611928E0,1.892153621E-1,4.776962698E-1,-7.916807532E-1
3.884366719E0,1.941022873E-1,4.874700904E-1,-9.236275554E-1
3.889121563E0,1.586721241E-1,5.687150955E-1,-1.025641918E0
3.893876355E0,7.864884287E-2,6.719512343E-1,-1.065959096E0
3.898631199E0,-4.413498193E-2,7.800742984E-1,-1.042746186E0
3.903385990E0,-1.595884264E-1,8.197805285E-1,-9.468404055E-1
3.908140782E0,-2.994764447E-1,8.106175661E-1,-7.764091492E-1
3.912895626E0,-5.004509687E-1,8.356630206E-1,-6.010909677E-1
3.917650417E0,-7.075341344E-1,8.625410795E-1,-4.312705398E-1
3.922405261E0,-8.962913752E-1,8.991929293E-1,-2.773326039E-1
3.927160053E0,-1.018464327E0,8.613193631E-1,-1.490510106E-1
3.931914896E0,-1.062446594E0,7.287616730E-1,-4.581485689E-2
3.936669688E0,-1.047174931E0,5.534434915E-1,3.298669681E-2
3.941424532E0,-1.022740364E0,4.135554433E-1,8.002328873E-2
3.946179324E0,-1.027627230E0,3.805687428E-1,8.857539296E-2
3.950934167E0,-1.052061915E0,4.489856064E-1,7.086031139E-2
3.955688959E0,-1.046564102E0,5.241219997E-1,3.543015569E-2
3.960443803E0,-9.390518665E-1,5.320632458E-1,-2.443459071E-2
3.965198594E0,-7.020363212E-1,4.886918366E-1,-1.050687432E-1
3.969953386E0,-3.831649423E-1,4.251618981E-1,-1.954767257E-1
3.974708230E0,-5.696314201E-2,3.775144219E-1,-2.773326039E-1
3.979463021E0,2.148716897E-1,3.573558927E-1,-3.023780584E-1
3.984217865E0,3.840812445E-1,3.139844835E-1,-2.425133139E-1
3.988972657E0,4.243983030E-1,2.480110973E-1,-1.331685185E-1
3.993727501E0,3.437641561E-1,1.789833754E-1,-6.108647794E-4
3.998482292E0,1.959348768E-1,9.651663154E-2,1.197294965E-1
4.003237136E0,6.643154472E-2,2.443459071E-2,2.040288299E-1
4.007991928E0,1.939495653E-2,-3.176496923E-2,2.577849329E-1
4.012746771E0,4.444041103E-2,-5.314523727E-2,2.840521336E-1
4.017501563E0,1.067486182E-1,-2.015853859E-2,2.913824916E-1
4.022256407E0,1.708894223E-1,5.375609919E-2,2.858847082E-1
4.027011199E0,2.124282271E-1,1.441640854E-1,2.681696415E-1
4.031766042E0,2.203694731E-1,2.064722925E-1,2.321286201E-1
4.036520834E0,1.965457499E-1,2.015853822E-1,1.704312712E-1
4.041275678E0,1.580612659E-1,1.227838174E-1,8.735366166E-2
4.046030469E0,1.330158114E-1,6.108647678E-3,-7.330377586E-3
4.050785313E0,1.379027218E-1,-9.896009415E-2,-9.590577334E-2
4.055540105E0,1.708894223E-1,-1.496618688E-1,-1.692095399E-1
4.060294949E0,2.130390853E-1,-1.392771751E-1,-2.174678594E-1
4.065049740E0,2.472475171E-1,-1.069013327E-1,-2.364046723E-1
4.069804584E0,2.496909797E-1,-8.491020650E-2,-2.284634262E-1
4.074559376E0,2.099847645E-1,-9.529490769E-2,-2.021962404E-1
4.079314219E0,1.452330947E-1,-1.441640854E-1,-1.588248461E-1
4.084069011E0,8.353576064E-2,-2.113592178E-1,-1.007926911E-1
4.088823855E0,4.993819445E-2,-2.583957911E-1,-3.848448023E-2
4.093578646E0,5.787943676E-2,-2.675587833E-1,1.588248461E-2
4.098333490E0,9.758564830E-2,-2.443459183E-1,5.803215504E-2
4.103088282E0,1.372918636E-1,-1.905898154E-1,9.407317638E-2
4.107843126E0,1.537852138E-1,-1.160643101E-1,1.307250559E-1
4.112597917E0,1.299614757E-1,-5.375609919E-2,1.728747338E-1
4.117352761E0,7.131846249E-2,-4.276053607E-2,2.144135386E-1
4.122107553E0,7.788525894E-3,-9.101885557E-2,2.547306120E-1
4.126862396E0,-2.580903657E-2,-1.869246215E-1,2.901607752E-1
4.131617188E0,-1.237001177E-2,-3.066541255E-1,3.164279461E-1
4.136372032E0,4.382954910E-2,-4.092794061E-1,3.200931549E-1
4.141126824E0,1.287397593E-1,-4.654789567E-1,2.968802750E-1
4.145881667E0,2.136499584E-1,-4.721984863E-1,2.565632164E-1
4.150636511E0,2.777907550E-1,-4.263836145E-1,1.966984570E-1
4.155391303E0,3.101665974E-1,-3.396408260E-1,1.185077652E-1
4.160146146E0,3.101665974E-1,-2.235765159E-1,3.054323979E-2
4.164900938E0,2.784016132E-1,-9.957095981E-2,-4.153880477E-2
4.169655782E0,2.362519503E-1,-7.330377586E-3,-7.513637096E-2
4.174410574E0,2.075413018E-1,1.160643063E-2,-5.803215504E-2
4.179165417E0,1.989891976E-1,-5.436696485E-2,1.588248461E-2
4.183920209E0,2.002109289E-1,-1.802051067E-1,1.350011230E-1
4.188675053E0,1.977674663E-1,-3.298669755E-1,2.693913579E-1
4.193429844E0,1.831067204E-1,-4.654789567E-1,3.921751976E-1
4.198184688E0,1.605047137E-1,-5.583304167E-1,4.893026948E-1
4.202939532E0,1.385135949E-1,-5.931497216E-1,5.558869243E-1
4.207694324E0,1.287397593E-1,-5.711585879E-1,5.907062292E-1
4.212449167E0,1.421787739E-1,-4.990765154E-1,5.894845128E-1
4.217203959E0,1.831067204E-1,-4.056142271E-1,5.626064539E-1
4.221958803E0,2.448040545E-1,-3.213148713E-1,5.149590373E-1
4.226713594E0,3.119991720E-1,-2.816086709E-1,4.544833899E-1
4.231468438E0,3.688096106E-1,-3.042106628E-1,3.927860558E-1
4.236223230E0,3.950767815E-1,-3.897317350E-1,3.433060050E-1
4.240978074E0,3.846921027E-1,-5.143481493E-1,3.060432673E-1
4.245732917E0,3.468184769E-1,-6.041452885E-1,2.608392537E-1
4.250487709E0,3.107774556E-1,-6.035344005E-1,2.003636509E-1
4.255242553E0,3.003927469E-1,-5.308414698E-1,1.325576603E-1
4.259997344E0,3.339903057E-1,-4.184423685E-1,7.330377400E-2
4.264752188E0,3.981311321E-1,-3.029889166E-1,3.481929377E-2
4.269506980E0,4.714348912E-1,-2.052505612E-1,2.260199748E-2
4.274261824E0,5.245801210E-1,-1.307250559E-1,3.237583488E-2
4.279016667E0,5.282453299E-1,-1.014035568E-1,6.352993846E-2
4.283771459E0,4.543306828E-1,-1.356119812E-1,1.160643101E-1
4.288526303E0,3.126100600E-1,-2.321286201E-1,1.838703007E-1
4.293281094E0,1.623373181E-1,-3.842339516E-1,2.596175373E-1
4.298035938E0,6.826414168E-2,-5.613847375E-1,3.402516842E-1
4.302790730E0,5.910116807E-2,-7.104357481E-1,4.147771895E-1
4.307545574E0,1.311832070E-1,-8.063415289E-1,4.673115611E-1
4.312300417E0,2.545779049E-1,-8.381064534E-1,4.905244112E-1
4.317055209E0,3.804160357E-1,-8.118392825E-1,4.831940532E-1
4.321810053E0,4.622719288E-1,-7.348703146E-1,4.557051361E-1
4.326564844E0,4.702131748E-1,-6.371319890E-1,4.263836145E-1
4.331319688E0,4.109592736E-1,-5.644390583E-1,3.995055556E-1
4.336074480E0,3.242164850E-1,-5.400044918E-1,3.707949221E-1
4.340829324E0,2.631300092E-1,-5.406153202E-1,3.286452591E-1
4.345584167E0,2.521344423E-1,-5.302306414E-1,2.693913579E-1
4.350338959E0,2.820668221E-1,-4.966330528E-1,1.985310465E-1
4.355093803E0,3.303251266E-1,-4.434878230E-1,1.203403622E-1
4.359848594E0,3.694204688E-1,-3.683514595E-1,4.459312931E-2
4.364603438E0,3.749182522E-1,-2.718348205E-1,-1.221729536E-2
4.369358282E0,3.291034102E-1,-1.582139730E-1,-4.031707719E-2
4.374113074E0,2.405280024E-1,-4.886918142E-2,-4.031707719E-2
4.378867917E0,1.299614757E-1,4.031707719E-2,-1.832594350E-2
4.383622761E0,3.161225095E-2,1.038470119E-1,1.466075517E-2
4.388377553E0,-3.252854943E-2,1.356119812E-1,5.803215504E-2
4.393132396E0,-4.535670951E-2,1.447749585E-1,1.020144150E-1
4.397887188E0,-2.153298259E-2,1.337793916E-1,1.392771751E-1
4.402642032E0,1.511890348E-2,9.407317638E-2,1.594357044E-1
4.407396876E0,3.649916872E-2,3.970621154E-2,1.606574357E-1
4.412151667E0,2.367101051E-2,-1.038470119E-2,1.508836001E-1
4.416906511E0,-2.397644334E-2,-5.925388262E-2,1.417206228E-1
4.421661303E0,-9.850194305E-2,-9.040798992E-2,1.356119812E-1
4.426416146E0,-1.821904182E-1,-7.880155742E-2,1.209512278E-1
4.431170990E0,-2.506072819E-1,-3.054323839E-3,9.224057943E-2
4.435925782E0,-2.829830945E-1,1.319467872E-1,4.886918142E-2
4.440680626E0,-2.695440948E-1,3.035998046E-1,-5.497782957E-3
4.445435417E0,-2.170097083E-1,4.691441655E-1,-6.597339362E-2
4.450190261E0,-1.510363221E-1,5.925388336E-1,-1.301141977E-1
4.454945105E0,-9.544762224E-2,6.701186895E-1,-1.930332631E-1
4.459699896E0,-6.612611562E-2,7.128791809E-1,-2.467893660E-1
4.464454740E0,-7.528908551E-2,7.000510097E-1,-2.724456787E-1
4.469209584E0,-1.076649204E-1,6.530144215E-1,-2.718348205E-1
4.473964376E0,-1.406516135E-1,6.065887213E-1,-2.565632164E-1
4.478719219E0,-1.601992846E-1,5.693259835E-1,-2.333503515E-1
4.483474063E0,-1.626427472E-1,5.393936038E-1,-2.003636509E-1
4.488228855E0,-1.595884264E-1,5.100721121E-1,-1.588248461E-1
4.492983699E0,-1.711948514E-1,4.758636653E-1,-1.111773923E-1
4.497738490E0,-2.029598206E-1,4.373791814E-1,-6.291907281E-2
4.502493334E0,-2.518289983E-1,4.153880477E-1,-2.382372692E-2
4.507248178E0,-3.098611534E-1,4.007273018E-1,-6.108647794E-4
4.512002969E0,-3.678933084E-1,3.744601011E-1,9.773836471E-3
4.516757813E0,-4.179842174E-1,3.396408260E-1,3.665188793E-3
4.521512657E0,-4.589121640E-1,2.999345958E-1,-1.527161989E-2
4.526267449E0,-4.888445437E-1,2.461785078E-1,-3.970621154E-2
4.531022292E0,-5.120574236E-1,1.789833754E-1,-6.536252797E-2
4.535777136E0,-5.346593857E-1,8.857539296E-2,-9.101885557E-2
4.540531928E0,-5.615374446E-1,-2.932151034E-2,-1.221729591E-1
4.545286771E0,-5.975784659E-1,-1.484401375E-1,-1.594357044E-1
4.550041615E0,-6.470585465E-1,-2.241873741E-1,-2.058614343E-1
4.554796407E0,-7.124210596E-1,-2.486219704E-1,-2.596175373E-1
4.559551251E0,-7.936660647E-1,-2.400698513E-1,-3.243691921E-1
4.564306094E0,-8.871283531E-1,-2.101374865E-1,-3.995055556E-1
4.569060886E0,-9.799798131E-1,-1.551596522E-1,-4.905244112E-1
4.573815730E0,-1.050840139E0,-7.269290835E-2,-5.968148708E-1
4.578570574E0,-1.080161691E0,2.076940238E-2,-7.208204269E-1
4.583325365E0,-1.056337953E0,9.834922850E-2,-8.637627959E-1
4.588080209E0,-9.909753799E-1,1.368337125E-1,-1.017089844E0
4.592835001E0,-9.097303748E-1,1.301141977E-1,-1.167973399E0
4.597589844E0,-8.486438990E-1,1.093447953E-1,-1.302363753E0
4.602344688E0,-8.358157277E-1,1.093447953E-1,-1.398880363E0
4.607099480E0,-8.755219579E-1,1.417206228E-1,-1.448360443E0
4.611854324E0,-9.549343586E-1,1.887572110E-1,-1.452025533E0
4.616609167E0,-1.049618363E0,2.284634262E-1,-1.436753988E0
4.621364011E0,-1.135139465E0,2.467893660E-1,-1.434310555E0
4.626118803E0,-1.198058605E0,2.400698513E-1,-1.459966779E0
4.630873646E0,-1.228601813E0,2.217439115E-1,-1.513722897E0
4.635628490E0,-1.232267022E0,2.009745091E-1,-1.580918074E0
4.640383282E0,-1.215162754E0,2.046397030E-1,-1.648113132E0
4.645138126E0,-1.179732561E0,2.486219704E-1,-1.709810495E0
4.649892969E0,-1.127809048E0,3.249800503E-1,-1.761123180E0
4.654647761E0,-1.060003161E0,4.111120105E-1,-1.805105448E0
4.659402605E0,-9.769254923E-1,4.874700904E-1,-1.839924693E0
4.664157449E0,-8.877392411E-1,5.546652079E-1,-1.865581036E0
4.668912240E0,-8.003855944E-1,6.084213257E-1,-1.877798319E0
4.673667084E0,-7.185297012E-1,6.493492723E-1,-1.872911453E0
4.678421928E0,-6.470585465E-1,6.713404059E-1,-1.846644282E0
4.683176719E0,-5.841394663E-1,6.823359728E-1,-1.806938052E0
4.687931563E0,-5.291616321E-1,6.939423680E-1,-1.756847143E0
4.692686407E0,-4.870119393E-1,7.049379349E-1,-1.700647593E0
4.697441251E0,-4.613556266E-1,7.269290686E-1,-1.639561057E0
4.702196042E0,-4.515817761E-1,7.593049407E-1,-1.575420260E0
4.706950886E0,-4.485274553E-1,7.996219993E-1,-1.506392598E0
4.711705730E0,-4.399753511E-1,8.289434910E-1,-1.436753988E0
4.716460521E0,-4.143190384E-1,8.203914165E-1,-1.372002244E0
4.721215365E0,-3.740019500E-1,7.544180155E-1,-1.312137604E0
4.725970209E0,-3.263545036E-1,6.352993846E-1,-1.260824919E0
4.730725001E0,-2.817613780E-1,4.838049114E-1,-1.223562121E0
4.735479844E0,-2.451094985E-1,3.188714087E-1,-1.200349331E0
4.740234688E0,-2.096793354E-1,1.734855920E-1,-1.183855891E0
4.744989480E0,-1.656970680E-1,5.131264031E-2,-1.166140914E0
4.749744324E0,-1.027780026E-1,-6.352993846E-2,-1.139873624E0
4.754499167E0,-3.313941509E-2,-1.722638607E-1,-1.098334908E0
4.759254011E0,2.244928107E-2,-2.761108875E-1,-1.042135358E0
4.764008803E0,3.649916872E-2,-3.512472510E-1,-9.688315392E-1
4.768763646E0,1.069013379E-3,-4.166097939E-1,-8.772017956E-1
4.773518490E0,-8.017600328E-2,-4.856374860E-1,-7.678570151E-1
4.778273282E0,-2.023489624E-1,-5.479456782E-1,-6.524035931E-1
4.783028126E0,-3.495673835E-1,-5.949822664E-1,-5.473348498E-1
4.787782969E0,-5.065596104E-1,-6.224712133E-1,-4.764745235E-1
4.792537813E0,-6.531671882E-1,-6.377428174E-1,-4.550942481E-1
4.797292605E0,-7.753401399E-1,-6.475166678E-1,-4.813614488E-1
4.802047449E0,-8.578068614E-1,-6.566796303E-1,-5.522217751E-1
4.806802292E0,-8.956804872E-1,-6.475166678E-1,-6.646208763E-1
4.811557136E0,-8.791871071E-1,-6.090322137E-1,-8.173370957E-1
4.816311928E0,-8.132137656E-1,-5.461131334E-1,-1.000596523E0
4.821066771E0,-7.057015300E-1,-4.526508152E-1,-1.202792764E0
4.825821615E0,-5.670352578E-1,-3.268126547E-1,-1.412319422E0
4.830576407E0,-4.149298966E-1,-1.789833754E-1,-1.627954602E0
4.835331251E0,-2.701549530E-1,-2.015853859E-2,-1.837481260E0
4.840086094E0,-1.620318890E-1,1.252272725E-1,-2.035401344E0
4.844840938E0,-1.119409725E-1,2.284634262E-1,-2.211330414E0
4.849595730E0,-1.266017258E-1,2.645044625E-1,-2.350607634E0
4.854350574E0,-1.925751269E-1,2.302960157E-1,-2.430020094E0
4.859105417E0,-2.952004075E-1,1.258381456E-1,-2.425133228E0
4.863860261E0,-4.075995386E-1,-3.176496923E-2,-2.302349329E0
4.868615053E0,-5.010618567E-1,-2.125809491E-1,-2.041510105E0
4.873369896E0,-5.493201613E-1,-3.659079969E-1,-1.697593212E0
4.878124740E0,-5.340485573E-1,-4.709767401E-1,-1.369558811E0
4.882879584E0,-4.699077308E-1,-5.277871490E-1,-1.118493438E0
4.887634376E0,-3.849975169E-1,-5.455022454E-1,-9.462295175E-1
4.892389219E0,-3.006981909E-1,-5.479456782E-1,-8.429933786E-1
4.897144063E0,-2.335030586E-1,-5.564978123E-1,-8.045089245E-1
4.901898907E0,-1.889099330E-1,-5.790998340E-1,-8.228348494E-1
4.906653699E0,-1.711948514E-1,-6.090322137E-1,-8.790344000E-1
4.911408542E0,-1.766926348E-1,-6.462949514E-1,-9.615011811E-1
4.916163386E0,-1.980729103E-1,-6.872228980E-1,-1.056185246E0
4.920918230E0,-2.267835438E-1,-7.275399566E-1,-1.156367064E0
4.925673021E0,-2.554942071E-1,-7.531962991E-1,-1.252883673E0
4.930427865E0,-2.805396616E-1,-7.440332770E-1,-1.341459036E0
4.935182709E0,-2.988655865E-1,-6.884446144E-1,-1.419038892E0
4.939937553E0,-3.123046160E-1,-5.858193040E-1,-1.478292823E0
4.944692344E0,-3.184132576E-1,-4.392117858E-1,-1.522274971E0
4.949447188E0,-3.141372204E-1,-2.535088956E-1,-1.550374866E0
4.954202032E0,-2.988655865E-1,-4.214967042E-2,-1.571144223E0
4.958956876E0,-2.707658112E-1,1.795942485E-1,-1.584583282E0
4.963711667E0,-2.267835438E-1,3.946186602E-1,-1.594357133E0
4.968466511E0,-1.644753367E-1,5.980366468E-1,-1.608407021E0
4.973221355E0,-8.811724186E-2,7.776308656E-1,-1.621235132E0
4.977976199E0,-8.704823442E-3,9.150754213E-1,-1.626732945E0
4.982730990E0,5.910116807E-2,9.975422025E-1,-1.620624304E0
4.987485834E0,1.012508348E-1,1.014646411E0,-1.590080976E0
4.992240678E0,1.159115955E-1,9.578359723E-1,-1.530827165E0
4.996995521E0,1.061377525E-1,8.252783418E-1,-1.445306063E0
5.001750365E0,7.681624591E-2,6.371319890E-1,-1.347567677E0
5.006505157E0,3.833176568E-2,4.349357188E-1,-1.258381486E0
5.011260001E0,7.788525894E-3,2.528980076E-1,-1.193629742E0
5.016014844E0,-5.650499370E-3,8.613193035E-2,-1.155756116E0
5.020769688E0,-3.207040019E-3,-9.040798992E-2,-1.144760609E0
5.025524532E0,1.389717404E-2,-2.877173126E-1,-1.153312683E0
5.030279324E0,4.199695215E-2,-4.996874034E-1,-1.180190802E0
5.035034167E0,7.742711157E-2,-7.165443897E-1,-1.217453480E0
5.039789011E0,1.207985133E-1,-9.266818762E-1,-1.257159710E0
5.044543855E0,1.635590494E-1,-1.116660833E0,-1.293811560E0
5.049298646E0,1.971566081E-1,-1.266933560E0,-1.323743939E0
5.054053490E0,2.142608166E-1,-1.357341528E0,-1.350622058E0
5.058808334E0,2.112064958E-1,-1.381165266E0,-1.367115378E0
5.063563178E0,1.892153621E-1,-1.340237379E0,-1.379943490E0
5.068318021E0,1.513417512E-1,-1.247385859E0,-1.387884736E0
5.073072813E0,1.006399691E-1,-1.130710721E0,-1.394604325E0
5.077827657E0,4.627300799E-2,-1.010981202E0,-1.403156400E0
5.082582501E0,-1.985310577E-3,-9.022472501E-1,-1.416595459E0
5.087337344E0,-4.046979174E-2,-8.014546037E-1,-1.428812742E0
5.092092188E0,-7.101303339E-2,-6.994401813E-1,-1.437364817E0
5.096847032E0,-9.056070447E-2,-6.181951761E-1,-1.437364817E0
5.101601824E0,-8.872810751E-2,-5.803215504E-1,-1.421482325E0
5.106356667E0,-5.940660089E-2,-5.766563416E-1,-1.387884736E0
5.111111511E0,-7.483093534E-3,-5.803215504E-1,-1.334128737E0
5.115866355E0,6.093376130E-2,-5.711585879E-1,-1.266322732E0
5.120621199E0,1.293506175E-1,-5.265654325E-1,-1.188742876E0
5.125375990E0,1.782197952E-1,-4.575377107E-1,-1.112384796E0
5.130130834E0,2.105956376E-1,-3.805687428E-1,-1.041524410E0
5.134885678E0,2.368628234E-1,-3.286452591E-1,-9.688315392E-1
5.139640521E0,2.680169344E-1,-3.176496923E-1,-8.918625712E-1
5.144395365E0,3.003927469E-1,-3.310887218E-1,-8.148936033E-1
5.149150157E0,3.278816640E-1,-3.164279461E-1,-7.483093739E-1
5.153905001E0,3.627009690E-1,-2.290742993E-1,-7.024945021E-1
5.158659844E0,3.895790279E-1,-7.941242307E-2,-6.762273312E-1
5.163414688E0,4.024071693E-1,8.979712427E-2,-6.695078015E-1
5.168169532E0,4.219548404E-1,2.449567765E-1,-6.731730103E-1
5.172924324E0,4.598284662E-1,3.597993553E-1,-6.817250848E-1
5.177679167E0,5.019781590E-1,4.331031144E-1,-6.988292933E-1
5.182434011E0,5.520690680E-1,5.100721121E-1,-7.257073522E-1
5.187188855E0,6.027708054E-1,6.108647585E-1,-7.513636947E-1
5.191943699E0,6.571378112E-1,7.397572398E-1,-7.800742984E-1
5.196698542E0,7.151699662E-1,8.509346247E-1,-7.959567904E-1
5.201453334E0,7.695369124E-1,9.089667797E-1,-7.892373204E-1
5.206208178E0,8.080213666E-1,9.297361970E-1,-7.635809779E-1
5.210963021E0,8.165735006E-1,9.181297421E-1,-7.275399566E-1
5.215717865E0,7.970257998E-1,8.851430416E-1,-6.890554428E-1
5.220472709E0,7.658717036E-1,8.442151546E-1,-6.585122347E-1
5.225227553E0,7.316632867E-1,7.990111113E-1,-6.395754218E-1
5.229982344E0,6.950113773E-1,7.580831647E-1,-6.230821013E-1
5.234737188E0,6.589703560E-1,7.098248601E-1,-6.053670049E-1
5.239492032E0,6.351466775E-1,6.475166678E-1,-5.815432668E-1
5.244246876E0,6.259836555E-1,5.705476999E-1,-5.461131334E-1
5.249001719E0,6.247619390E-1,4.783071280E-1,-4.905244112E-1
5.253756563E0,6.272054315E-1,3.720166385E-1,-4.178315103E-1
5.258511407E0,6.241511106E-1,2.608392537E-1,-3.329212964E-1
5.263266199E0,6.119337678E-1,1.655443609E-1,-2.480110973E-1
5.268021042E0,5.868883133E-1,1.014035568E-1,-1.685986817E-1
5.272775886E0,5.520690680E-1,7.086031139E-2,-9.773836285E-2
5.277530730E0,5.184714794E-1,6.291907281E-2,-3.115410358E-2
5.282285574E0,4.946477413E-1,6.780599058E-2,4.276053607E-2
5.287040417E0,4.726566374E-1,6.658425927E-2,1.215620935E-1
5.291795209E0,4.500546157E-1,6.658425927E-2,2.015853822E-1
5.296550053E0,4.256200492E-1,9.834922850E-2,2.791652083E-1
5.301304896E0,3.969093859E-1,1.551596522E-1,3.549124300E-1
5.306059740E0,3.657552898E-1,2.168570012E-1,4.306596816E-1
5.310814584E0,3.364337683E-1,2.590066791E-1,5.076286197E-1
5.315569428E0,3.174969554E-1,2.877173126E-1,5.882627964E-1
5.320324271E0,3.052796721E-1,3.182605505E-1,6.701186895E-1
5.325079063E0,2.997818887E-1,3.518581092E-1,7.531962991E-1
5.329833907E0,3.022253513E-1,3.885099888E-1,8.368847370E-1
5.334588751E0,3.119991720E-1,4.294379354E-1,9.181297421E-1
5.339343594E0,3.248273432E-1,4.776962698E-1,9.896009564E-1
5.344098438E0,3.352120519E-1,5.320632458E-1,1.048243999E0
5.348853282E0,3.394880891E-1,5.919279456E-1,1.095891356E0
5.353608126E0,3.382663727E-1,6.511818767E-1,1.129488945E0
5.358362969E0,3.297142684E-1,7.031053901E-1,1.150869250E0
5.363117761E0,3.156643808E-1,7.513636947E-1,1.160643101E0
5.367872605E0,2.961167097E-1,7.971785665E-1,1.164919138E0
5.372627449E0,2.680169344E-1,8.283326626E-1,1.164308310E0
5.377382292E0,2.319758981E-1,8.368847370E-1,1.160032272E0
5.382137136E0,1.849393100E-1,8.338304162E-1,1.154534459E0
5.386891980E0,1.293506175E-1,8.277217746E-1,1.150258422E0
5.391646824E0,6.704241037E-2,8.265000582E-1,1.150869250E0
5.396401667E0,1.023198478E-2,8.277217746E-1,1.157588720E0
5.401156459E0,-2.703076601E-2,8.283326626E-1,1.168584347E0
5.405911303E0,-4.230238497E-2,8.307760954E-1,1.182634234E0
5.410666146E0,-4.474584386E-2,8.295543790E-1,1.207068801E0
5.415420990E0,-4.108065739E-2,8.020654321E-1,1.246775031E0
5.420175834E0,-2.947422490E-2,7.458658814E-1,1.302363753E0
5.424930678E0,-1.664606482E-2,6.731730103E-1,1.371391416E0
5.429685521E0,-7.483093534E-3,5.852084756E-1,1.448360443E0
5.434440365E0,-2.596175298E-3,4.715875983E-1,1.524107575E0
5.439195209E0,-1.527161949E-4,3.451386094E-1,1.593746185E0
5.443950053E0,-1.374445739E-3,2.419024557E-1,1.649945736E0
5.448704844E0,-8.093958721E-3,1.789833754E-1,1.697593212E0
5.453459688E0,-1.908952370E-2,1.392771751E-1,1.738521218E0
5.458214532E0,-2.886336111E-2,9.468404204E-2,1.778227329E0
5.462969376E0,-3.130681813E-2,4.581485689E-2,1.816711903E0
5.467724219E0,-2.886336111E-2,9.162971750E-3,1.852752924E0
5.472479063E0,-2.336557768E-2,-0.000000000E0,1.883906960E0
5.477233907E0,-2.031125315E-2,2.871064469E-2,1.907730699E0
5.481988751E0,-2.214384824E-2,1.062904745E-1,1.926667571E0
5.486743594E0,-2.703076601E-2,2.205221802E-1,1.945604324E0
5.491498438E0,-3.497200832E-2,3.512472510E-1,1.968817234E0
5.496253230E0,-4.352411628E-2,4.886918366E-1,1.990808368E0
5.501008074E0,-6.001746282E-2,6.298015714E-1,2.007301569E0
5.505762917E0,-8.933897316E-2,7.605266571E-1,2.015242815E0
5.510517761E0,-1.290451884E-1,8.655954003E-1,2.012799501E0
5.515272605E0,-1.669187993E-1,9.395100474E-1,2.003025532E0
5.520027449E0,-1.858556122E-1,9.963204265E-1,1.984699726E0
5.524782292E0,-1.742491722E-1,1.042135358E0,1.955989003E0
5.529537136E0,-1.369864196E-1,1.073900223E0,1.918726325E0
5.534291980E0,-9.056070447E-2,1.092837095E0,1.876576662E0
5.539046824E0,-5.024362728E-2,1.105665207E0,1.837481260E0
5.543801667E0,-2.947422490E-2,1.105054379E0,1.806327105E0
5.548556511E0,-2.947422490E-2,1.081841469E0,1.784335971E0
5.553311355E0,-4.596757516E-2,1.030528903E0,1.768453479E0
5.558066199E0,-7.101303339E-2,9.547816515E-1,1.755625367E0
5.562820990E0,-9.789107740E-2,8.539889455E-1,1.744629860E0
5.567575834E0,-1.204930767E-1,7.391464114E-1,1.739132047E0
5.572330678E0,-1.314886510E-1,6.469057798E-1,1.735466838E0
5.577085521E0,-1.284343153E-1,6.041452885E-1,1.733023405E0
5.581840365E0,-1.125518382E-1,6.188060045E-1,1.733634233E0
5.586595209E0,-8.689551800E-2,6.780598760E-1,1.742186308E0
5.591350053E0,-5.635227636E-2,7.550288439E-1,1.759901404E0
5.596104896E0,-3.008509055E-2,8.277217746E-1,1.782503486E0
5.600859740E0,-1.481347065E-2,8.790344000E-1,1.800829411E0
5.605614584E0,-1.970038936E-2,8.985821009E-1,1.808770657E0
5.610369428E0,-5.146535859E-2,8.826996088E-1,1.805105448E0
5.615124271E0,-1.058323234E-1,8.289434910E-1,1.786168575E0
5.619879115E0,-1.699731201E-1,7.483093739E-1,1.755014539E0
5.624633959E0,-2.304487377E-1,6.652317643E-1,1.716530085E0
5.629388803E0,-2.866483033E-1,5.980366468E-1,1.673769474E0
5.634143646E0,-3.361283541E-1,5.448913574E-1,1.637728453E0
5.638898438E0,-3.746128380E-1,4.978547990E-1,1.609017849E0
5.643653282E0,-3.917170465E-1,4.422661066E-1,1.595578790E0
5.648408126E0,-3.837758005E-1,3.744601011E-1,1.594357133E0
5.653162969E0,-3.544542789E-1,3.066541255E-1,1.599854827E0
5.657917813E0,-3.147480786E-1,2.565632164E-1,1.613293886E0
5.662672657E0,-2.787070572E-1,2.425133139E-1,1.632841587E0
5.667427501E0,-2.640463114E-1,2.852738500E-1,1.654221773E0
5.672182344E0,-2.756527364E-1,3.872882724E-1,1.673769474E0
5.676937188E0,-2.976438701E-1,5.033525825E-1,1.689651966E0
5.681692032E0,-3.123046160E-1,5.778780580E-1,1.700036645E0
5.686446876E0,-3.129154742E-1,6.071996093E-1,1.705534458E0
5.691201719E0,-3.098611534E-1,6.157516837E-1,1.706756234E0
5.695956563E0,-3.043633699E-1,6.102539301E-1,1.706756234E0
5.700711407E0,-2.958112657E-1,5.913171172E-1,1.707977891E0
5.705466251E0,-2.780961990E-1,5.546652079E-1,1.708588839E0
5.710221094E0,-2.469420880E-1,5.082395077E-1,1.711643100E0
5.714975938E0,-2.035706937E-1,4.691441655E-1,1.711032271E0
5.719730782E0,-1.498145908E-1,4.318813980E-1,1.705534458E0
5.724485626E0,-9.117157012E-2,3.878991306E-1,1.688430309E0
5.729240469E0,-3.680460155E-2,3.469711840E-1,1.659108758E0
5.733995313E0,2.290742937E-3,3.219257295E-1,1.612072110E0
5.738750157E0,1.939495653E-2,3.035998046E-1,1.541822672E0
5.743505001E0,2.428187430E-2,2.608392537E-1,1.451414704E0
5.748259844E0,1.939495653E-2,1.954767257E-1,1.350622058E0
5.753014688E0,1.069013379E-3,1.264490038E-1,1.255937934E0
5.757769532E0,-2.825249545E-2,8.002328873E-2,1.174692988E0
5.762524376E0,-6.734783947E-2,6.414080411E-2,1.106886983E0
5.767279219E0,-1.064431891E-1,6.597339362E-2,1.050076604E0
5.772034063E0,-1.400407553E-1,6.414080411E-2,1.004261732E0
5.776788907E0,-1.577558219E-1,4.398226365E-2,9.608902931E-1
5.781543751E0,-1.601992846E-1,3.054323839E-3,9.193515182E-1
5.786298594E0,-1.455385387E-1,-4.764745384E-2,8.765909672E-1
5.791053438E0,-1.137735620E-1,-9.162971377E-2,8.338304162E-1
5.795808282E0,-7.223475724E-2,-1.069013327E-1,7.898481488E-1
5.800563126E0,-3.130681813E-2,-8.429934084E-2,7.458658814E-1
5.805317969E0,-9.315688163E-3,-4.276053607E-2,7.043271065E-1
5.810072813E0,-1.970038936E-2,-7.941242307E-3,6.615665555E-1
5.814827657E0,-6.307178736E-2,1.038470119E-2,6.078104377E-1
5.819582501E0,-1.278234571E-1,4.276053514E-3,5.345066786E-1
5.824337344E0,-1.925751269E-1,-3.909534588E-2,4.379900396E-1
5.829092188E0,-2.304487377E-1,-1.191186309E-1,3.243691921E-1
5.833847032E0,-2.341139317E-1,-2.382372618E-1,2.046397030E-1
5.838601876E0,-2.084576041E-1,-3.817904890E-1,9.040798992E-2
5.843356719E0,-1.711948514E-1,-5.216785073E-1,-1.221729536E-2
5.848111563E0,-1.382081509E-1,-6.273581386E-1,-1.020144150E-1
5.852866407E0,-1.174387559E-1,-6.872228980E-1,-1.826485693E-1
5.857621251E0,-1.052214578E-1,-7.177661061E-1,-2.565632164E-1
5.862376094E0,-9.483675659E-2,-7.281508446E-1,-3.243691921E-1
5.867130938E0,-8.323032409E-2,-7.257073522E-1,-3.866774142E-1
5.871885782E0,-7.345648855E-2,-7.208204269E-1,-4.398226440E-1
5.876640626E0,-7.406735420E-2,-7.220421433E-1,-4.795288444E-1
5.881395469E0,-9.117157012E-2,-7.208204269E-1,-5.027416945E-1
5.886150313E0,-1.229365394E-1,-7.061597109E-1,-5.082395077E-1
5.890905157E0,-1.608101577E-1,-6.664534807E-1,-5.015199780E-1
5.895660001E0,-2.005163580E-1,-5.968148708E-1,-4.893026948E-1
5.900414844E0,-2.322813272E-1,-4.996874034E-1,-4.801397026E-1
5.905169688E0,-2.518289983E-1,-3.872882724E-1,-4.838049114E-1
5.909924532E0,-2.646571696E-1,-2.718348205E-1,-5.027416945E-1
5.914679376E0,-2.750418782E-1,-1.643226296E-1,-5.430588126E-1
5.919434219E0,-2.860374451E-1,-8.124501258E-2,-5.992583632E-1
5.924189063E0,-2.970330119E-1,-3.298669681E-2,-6.621774435E-1
5.928943907E0,-3.043633699E-1,-1.038470119E-2,-7.312051654E-1
5.933698751E0,-3.013090491E-1,-4.276053514E-3,-8.069523573E-1
5.938453594E0,-2.897026241E-1,-1.527161989E-2,-8.912517428E-1
5.943208438E0,-2.683223486E-1,-3.298669681E-2,-9.847140312E-1
5.947963282E0,-2.371682525E-1,-5.131264031E-2,-1.088561058E0
5.952718126E0,-1.950185746E-1,-5.314523727E-2,-1.200960159E0
5.957472969E0,-1.461493969E-1,-2.871064469E-2,-1.314581037E0
5.962227813E0,-9.300415963E-2,1.588248461E-2,-1.421482325E0
5.966982657E0,-3.985892609E-2,5.925388262E-2,-1.513722897E0
5.971737553E0,1.206457894E-2,7.574722916E-2,-1.583361506E0
5.976492396E0,5.726857483E-2,4.886918142E-2,-1.629787207E0
5.981247240E0,8.964440972E-2,-1.710421406E-2,-1.649334908E0
5.986002084E0,1.110246703E-1,-9.651663154E-2,-1.640782833E0
5.990756928E0,1.189659163E-1,-1.734855920E-1,-1.604130864E0
5.995511771E0,1.159115955E-1,-2.425133139E-1,-1.543655276E0
6.000266615E0,1.061377525E-1,-3.029889166E-1,-1.465464592E0
6.005021459E0,9.208786488E-2,-3.579667509E-1,-1.371391416E0
6.009776303E0,7.254019380E-2,-4.037816226E-1,-1.268155336E0
6.014531146E0,4.932733253E-2,-4.373791814E-1,-1.164919138E0
6.019285990E0,2.733619884E-2,-4.569268525E-1,-1.075732827E0
6.024040834E0,1.817322709E-2,-4.654789567E-1,-1.014035583E0
6.028795678E0,3.588830680E-2,-4.575377107E-1,-9.834923148E-1
6.033550521E0,8.475748450E-2,-4.306596816E-1,-9.889900684E-1
6.038305365E0,1.653916389E-1,-3.836230934E-1,-1.018922448E0
6.043060209E0,2.667951882E-1,-3.298669755E-1,-1.065959096E0
6.047815053E0,3.785834610E-1,-2.748891413E-1,-1.123991251E0
6.052569949E0,4.818195999E-1,-2.131918073E-1,-1.192408085E0
6.057324792E0,5.630646348E-1,-1.362228394E-1,-1.258381486E0
6.062079636E0,6.107120514E-1,-4.337139800E-2,-1.314581037E0
6.066834480E0,6.155989766E-1,5.986474827E-2,-1.350622058E0
6.071589324E0,5.765036345E-1,1.679878086E-1,-1.364060998E0
6.076344167E0,5.007563829E-1,2.657261789E-1,-1.347567677E0
6.081099011E0,4.024071693E-1,3.371973634E-1,-1.307250619E0
6.085853855E0,2.973384261E-1,3.720166385E-1,-1.254716277E0
6.090608699E0,2.032652497E-1,3.677406013E-1,-1.195462346E0
6.095363542E0,1.269071549E-1,3.188714087E-1,-1.133764982E0
6.100118386E0,6.643154472E-2,2.290742993E-1,-1.078787208E0
6.104873230E0,1.756236330E-2,1.117882580E-1,-1.033583164E0
6.109628074E0,-2.458730713E-2,-1.832594350E-2,-1.006094337E0
6.114382969E0,-6.307178736E-2,-1.447749585E-1,-9.981530309E-1
6.119137813E0,-1.003345400E-1,-2.565632164E-1,-1.010370374E0
6.123892657E0,-1.327103674E-1,-3.420842886E-1,-1.042135358E0
6.128647501E0,-1.583666950E-1,-3.940077722E-1,-1.089171886E0
6.133402344E0,-1.705839932E-1,-4.166097939E-1,-1.147204041E0
6.138157188E0,-1.663079411E-1,-4.117228687E-1,-1.211955667E0
6.142912032E0,-1.418733448E-1,-3.805687428E-1,-1.282205224E0
6.147666876E0,-8.994983882E-2,-3.426951468E-1,-1.353065491E0
6.152421719E0,-1.725693047E-2,-3.200931549E-1,-1.425147533E0
6.157176563E0,7.254019380E-2,-3.213148713E-1,-1.494175196E0
6.161931407E0,1.684459597E-1,-3.439168632E-1,-1.559537768E0
6.166686251E0,2.527453005E-1,-3.824013472E-1,-1.616348147E0
6.171441094E0,3.089448512E-1,-4.166097939E-1,-1.661552191E0
6.176195990E0,3.297142684E-1,-4.269944727E-1,-1.685375929E0
6.180950834E0,3.113883138E-1,-4.123337269E-1,-1.682321548E0
6.185705678E0,2.564104795E-1,-3.799578846E-1,-1.645058870E0
6.190460521E0,1.776089370E-1,-3.433060050E-1,-1.572365999E0
6.195215365E0,8.720094711E-2,-3.109301627E-1,-1.475849271E0
6.199970209E0,1.069013379E-3,-2.767217457E-1,-1.377500057E0
6.204725053E0,-7.589995116E-2,-2.382372618E-1,-1.291978955E0
6.209479896E0,-1.430950761E-1,-1.869246215E-1,-1.226616502E0
6.214234740E0,-2.011272311E-1,-1.209512278E-1,-1.182634234E0
6.218989636E0,-2.444986254E-1,-3.481929377E-2,-1.149647474E0
6.223744480E0,-2.756527364E-1,5.253437161E-2,-1.129488945E0
6.228499324E0,-2.939786613E-1,1.215620935E-1,-1.123380303E0
6.233254167E0,-3.037525117E-1,1.582139730E-1,-1.130710721E0
6.238009011E0,-3.068068326E-1,1.527161896E-1,-1.151480079E0
6.242763855E0,-3.043633699E-1,1.075121984E-1,-1.185077667E0
6.247518699E0,-2.976438701E-1,3.481929377E-2,-1.224783897E0
6.252273542E0,-2.945895493E-1,-5.009091273E-2,-1.267544389E0
6.257028386E0,-3.013090491E-1,-1.356119812E-1,-1.311526656E0
6.261783282E0,-3.208567202E-1,-2.174678594E-1,-1.351843715E0
6.266538126E0,-3.611738086E-1,-2.883281708E-1,-1.387273908E0
6.271292969E0,-4.161516428E-1,-3.536907136E-1,-1.415984511E0
6.276047813E0,-4.784598351E-1,-4.233292937E-1,-1.438586593E0
6.280802657E0,-5.358811021E-1,-5.045742989E-1,-1.456301689E0
6.285557501E0,-5.786416531E-1,-5.900954008E-1,-1.467297196E0
6.290312344E0,-6.006327868E-1,-6.664534807E-1,-1.474016666E0
6.295067240E0,-6.055197120E-1,-7.244856358E-1,-1.481957912E0
6.299822084E0,-6.018545032E-1,-7.379246354E-1,-1.496618748E0
6.304576928E0,-5.963567495E-1,-6.957749724E-1,-1.516166329E0
6.309331771E0,-5.933024287E-1,-6.084213257E-1,-1.536935806E0
6.314086615E0,-5.939132571E-1,-4.886918366E-1,-1.558316112E0
6.318841459E0,-6.018545032E-1,-3.573558927E-1,-1.578474641E0
6.323596303E0,-6.189587116E-1,-2.235765159E-1,-1.593135357E0
6.328351146E0,-6.403390169E-1,-1.026252806E-1,-1.602298260E0
6.333106042E0,-6.586649418E-1,-6.719512399E-3,-1.610850453E0
6.337860886E0,-6.721040010E-1,5.497783050E-2,-1.616348147E0
6.342615730E0,-6.763800383E-1,8.368847519E-2,-1.620013356E0
6.347370574E0,-6.751583219E-1,9.773836285E-2,-1.622456908E0
6.352125417E0,-6.708822250E-1,1.026252806E-1,-1.621845961E0
6.356880261E0,-6.641627550E-1,8.185587823E-2,-1.605963469E0
6.361635105E0,-6.549997330E-1,1.832594350E-2,-1.568700790E0
6.366390001E0,-6.433933377E-1,-8.796452731E-2,-1.511279464E0
6.371144844E0,-6.268999577E-1,-2.083048970E-1,-1.438586593E0
6.375899688E0,-6.067414284E-1,-3.121519089E-1,-1.359784961E0
6.380654532E0,-5.835285783E-1,-3.744601011E-1,-1.285259485E0
6.385409376E0,-5.609265566E-1,-3.848448098E-1,-1.221729517E0
6.390164219E0,-5.389354229E-1,-3.494146466E-1,-1.173471212E0
6.394919115E0,-5.212203860E-1,-2.950477004E-1,-1.135597587E0
6.399673959E0,-5.053378940E-1,-2.461785078E-1,-1.107497811E0
6.404428803E0,-4.949531853E-1,-2.156352699E-1,-1.092226267E0
6.409183646E0,-4.900662601E-1,-1.985310465E-1,-1.085506678E0
6.413938490E0,-4.906771481E-1,-1.893680841E-1,-1.093447924E0
6.418693334E0,-4.937314689E-1,-1.924224049E-1,-1.111773849E0
6.423448178E0,-4.967857897E-1,-1.991419196E-1,-1.139873624E0
6.428203074E0,-4.943423271E-1,-1.936441362E-1,-1.170416951E0
6.432957917E0,-4.827359021E-1,-1.679878086E-1,-1.196073294E0
6.437712761E0,-4.662425518E-1,-1.105665267E-1,-1.212566614E0
6.442467605E0,-4.485274553E-1,-2.932151034E-2,-1.219286084E0
6.447222449E0,-4.344775677E-1,6.475166976E-2,-1.210123181E0
6.451977344E0,-4.259254634E-1,1.661552191E-1,-1.194851518E0
6.456732188E0,-4.130973220E-1,2.632827163E-1,-1.170416951E0
6.461487032E0,-3.935496211E-1,3.463603258E-1,-1.136208534E0
6.466241876E0,-3.617846668E-1,4.050033391E-1,-1.095891356E0
6.470996719E0,-3.184132576E-1,4.361574650E-1,-1.050687432E0
6.475751563E0,-2.652680278E-1,4.367683232E-1,-9.993748069E-1
6.480506459E0,-2.127336562E-1,4.166097939E-1,-9.450078011E-1
6.485261303E0,-1.663079411E-1,3.830122054E-1,-8.918625712E-1
6.490016146E0,-1.308777779E-1,3.451386094E-1,-8.429933786E-1
6.494770990E0,-1.107192412E-1,3.158170879E-1,-8.020654321E-1
6.499525834E0,-1.064431891E-1,3.005454838E-1,-7.666352987E-1
6.504280678E0,-1.229365394E-1,2.999345958E-1,-7.379246354E-1
6.509035574E0,-1.565341055E-1,3.011563420E-1,-7.141009569E-1
6.513790417E0,-1.962403059E-1,2.981020212E-1,-6.933315396E-1
6.518545261E0,-2.383899838E-1,2.840521336E-1,-6.701186895E-1
6.523300105E0,-2.756527364E-1,2.455676347E-1,-6.352993846E-1
6.528054949E0,-3.013090491E-1,1.844811589E-1,-5.913171172E-1
6.532809844E0,-3.068068326E-1,1.331685185E-1,-5.442805290E-1
6.537564688E0,-2.952004075E-1,1.093447953E-1,-4.886918366E-1
6.542319532E0,-2.671006322E-1,1.007926911E-1,-4.221075773E-1
6.547074376E0,-2.371682525E-1,9.101885557E-2,-3.488037884E-1
6.551829219E0,-2.139553875E-1,8.124501258E-2,-2.773326039E-1
6.556584115E0,-2.035706937E-1,6.597339362E-2,-2.052505612E-1
6.561338959E0,-2.078467458E-1,3.359756246E-2,-1.252272725E-1
6.566093803E0,-2.139553875E-1,1.038470119E-2,-3.543015569E-2
6.570848646E0,-2.054032832E-1,1.404988952E-2,5.497783050E-2
6.575603490E0,-1.828012913E-1,5.192350596E-2,1.435532272E-1
6.580358386E0,-1.455385387E-1,1.197294965E-1,2.339612097E-1
6.585113230E0,-1.015562713E-1,1.942549944E-1,3.237583339E-1
6.589868074E0,-6.368265301E-2,2.486219704E-1,4.050033391E-1
6.594622917E0,-3.802633286E-2,2.785543501E-1,4.734202027E-1
6.599377761E0,-2.947422490E-2,2.828303874E-1,5.210676789E-1
6.604132657E0,-4.352411628E-2,2.663370371E-1,5.473348498E-1
6.608887501E0,-7.712167501E-2,2.571740746E-1,5.607738495E-1
6.613642344E0,-1.180496216E-1,2.602283955E-1,5.711585879E-1
6.618397188E0,-1.577558219E-1,2.681696415E-1,5.815432668E-1
6.623152032E0,-1.846338809E-1,2.840521336E-1,5.949822664E-1
6.627906928E0,-1.925751269E-1,3.023780584E-1,6.145299673E-1
6.632661771E0,-1.815795600E-1,3.200931549E-1,6.438514590E-1
6.637416615E0,-1.504254490E-1,3.378082216E-1,6.847794056E-1
6.642171459E0,-1.076649204E-1,3.561341763E-1,7.391464114E-1
6.646926303E0,-6.551524997E-2,3.689623177E-1,7.984002829E-1
6.651681199E0,-3.069595434E-2,3.787361681E-1,8.594867587E-1
6.656436042E0,-1.237001177E-2,3.995055556E-1,9.175189137E-1
6.661190886E0,-5.650499370E-3,4.276053309E-1,9.688315392E-1
6.665945730E0,-5.039634649E-3,4.538725317E-1,1.012202978E0
6.670700574E0,4.581485991E-4,4.660898149E-1,1.052520037E0
6.675455469E0,1.267544460E-2,4.703658819E-1,1.089782715E0
6.680210313E0,2.733619884E-2,4.685332775E-1,1.127045512E0
6.684965157E0,4.077522457E-2,4.667007029E-1,1.164919138E0
6.689720001E0,4.688387364E-2,4.660898149E-1,1.202181935E0
6.694474896E0,4.749473557E-2,4.605920315E-1,1.240666389E0
6.699229740E0,4.016435891E-2,4.447095692E-1,1.279761672E0
6.703984584E0,2.611446939E-2,4.294379354E-1,1.321300507E0
6.708739428E0,9.010255337E-3,4.147771895E-1,1.360395908E0
6.713494324E0,-5.039634649E-3,3.964512348E-1,1.397047758E0
6.718249167E0,-1.420260593E-2,3.769035637E-1,1.435532212E0
6.723004011E0,-3.008509055E-2,3.720166385E-1,1.472795010E0
6.727758855E0,-6.001746282E-2,3.897317350E-1,1.506392598E0
6.732513699E0,-1.015562713E-1,4.294379354E-1,1.531437993E0
6.737268594E0,-1.479819864E-1,4.862483740E-1,1.543044448E0
6.742023438E0,-1.901316643E-1,5.516108871E-1,1.541211843E0
6.746778282E0,-2.176205814E-1,6.175842881E-1,1.533881426E0
6.751533126E0,-2.218966335E-1,6.805033684E-1,1.538157463E0
6.756288021E0,-2.060141414E-1,7.299833894E-1,1.561370373E0
6.761042865E0,-1.773035079E-1,7.580831647E-1,1.609017849E0
6.765797709E0,-1.461493969E-1,7.739656568E-1,1.676823854E0
6.770552553E0,-1.094975099E-1,7.623592615E-1,1.759290576E0
6.775307449E0,-6.307178736E-2,6.939423680E-1,1.852141976E0
6.780062292E0,-9.926552884E-3,5.772672296E-1,1.941328287E0
6.784817136E0,3.772090003E-2,4.618137777E-1,2.021351576E0
6.789571980E0,7.254019380E-2,3.958403766E-1,2.087324858E0
6.794326876E0,8.659008145E-2,3.885099888E-1,2.139859438E0
6.799081719E0,8.109229803E-2,4.214966893E-1,2.178954601E0
6.803836563E0,5.910116807E-2,4.740310609E-1,2.211330414E0
6.808591407E0,2.794706449E-2,5.320632458E-1,2.241262913E0
6.813346303E0,-5.650499370E-3,5.888736248E-1,2.267529964E0
6.818101146E0,-3.558287397E-2,6.298015714E-1,2.297462463E0
6.822855990E0,-5.329795182E-2,6.383537054E-1,2.330449104E0
6.827610834E0,-5.818486959E-2,6.065887213E-1,2.363435745E0
6.832365730E0,-4.841103405E-2,5.381718874E-1,2.398255110E0
6.837120574E0,-3.680460155E-2,4.569268525E-1,2.433685303E0
6.841875417E0,-2.458730713E-2,3.805687428E-1,2.470947981E0
6.846630261E0,-1.481347065E-2,3.005454838E-1,2.510043383E0
6.851385157E0,-1.359174121E-2,2.223547846E-1,2.547916889E0
6.856140001E0,-2.153298259E-2,1.631008983E-1,2.588845015E0
6.860894844E0,-4.046979174E-2,1.282816082E-1,2.632216454E0
6.865649740E0,-6.551524997E-2,1.026252806E-1,2.678031206E0
6.870404584E0,-9.178243577E-2,7.391463965E-2,2.728121996E0
6.875159428E0,-1.131627038E-1,4.214967042E-2,2.778823853E0
6.879914271E0,-1.247691289E-1,-0.000000000E0,2.822806120E0
6.884669167E0,-1.211039424E-1,-4.703658819E-2,2.859457970E0
6.889424011E0,-1.058323234E-1,-8.979712427E-2,2.885114431E0
6.894178855E0,-8.078686893E-2,-1.136208475E-1,2.899164200E0
6.898933699E0,-5.329795182E-2,-1.001818255E-1,2.904662132E0
6.903688594E0,-2.519817278E-2,-3.054323979E-2,2.902829409E0
6.908443438E0,-1.985310577E-3,9.590577334E-2,2.899164200E0
6.913198282E0,1.511890348E-2,2.559523284E-1,2.893666506E0
6.917953126E0,3.283398226E-2,4.080576599E-1,2.886946917E0
6.922708021E0,4.810560122E-2,5.088503361E-1,2.870453596E0
6.927462865E0,6.154462695E-2,5.424479246E-1,2.839299440E0
6.932217709E0,5.849030241E-2,5.186241865E-1,2.789819479E0
6.936972605E0,2.611446939E-2,4.624246359E-1,2.722013474E0
6.941727449E0,-4.780016840E-2,3.976729810E-1,2.636492491E0
6.946482292E0,-1.620318890E-1,3.414734006E-1,2.542419195E0
6.951237136E0,-2.988655865E-1,2.956585586E-1,2.448346138E0
6.955992032E0,-4.228711426E-1,2.608392537E-1,2.362824917E0
6.960746876E0,-5.163334608E-1,2.486219704E-1,2.282190800E0
6.965501719E0,-5.688678026E-1,2.632827163E-1,2.204000235E0
6.970256615E0,-5.774199367E-1,2.999345958E-1,2.131307125E0
6.975011459E0,-5.438223481E-1,3.323104382E-1,2.058003426E0
6.979766303E0,-4.815141559E-1,3.378082216E-1,1.980423570E0
6.984521199E0,-4.100429714E-1,3.103193045E-1,1.887572169E0
6.989276042E0,-3.495673835E-1,2.803869247E-1,1.770286083E0
6.994030886E0,-3.037525117E-1,2.596175373E-1,1.620013356E0
6.998785730E0,-2.701549530E-1,2.547306120E-1,1.453858137E0
7.003540626E0,-2.530507445E-1,2.785543501E-1,1.286481261E0
7.008295469E0,-2.579376400E-1,3.365865052E-1,1.127656341E0
7.013050313E0,-2.768744528E-1,4.105011225E-1,9.822705388E-1
7.017805209E0,-2.939786613E-1,4.648680985E-1,8.497129083E-1
7.022560053E0,-3.043633699E-1,4.679224193E-1,7.232639194E-1
7.027314896E0,-3.037525117E-1,4.288270772E-1,6.010909677E-1
7.032069792E0,-3.055851161E-1,3.646862805E-1,4.807505906E-1
7.036824636E0,-3.178023994E-1,2.907716334E-1,3.659079969E-1
7.041579480E0,-3.422369957E-1,2.162461281E-1,2.565632164E-1
7.046334324E0,-3.770562708E-1,1.466075480E-1,1.539379209E-1
7.051089219E0,-4.179842174E-1,8.613193035E-2,6.047561392E-2
7.055844063E0,-4.558578432E-1,4.764745384E-2,-2.504545636E-2
7.060598907E0,-4.857902229E-1,3.359756246E-2,-1.026252806E-1
7.065353803E0,-5.059487820E-1,3.420842811E-2,-1.747073233E-1
7.070108646E0,-5.151117444E-1,4.642572254E-2,-2.406807244E-1
7.074863490E0,-5.126682520E-1,6.963858753E-2,-3.048215210E-1
7.079618386E0,-5.028944016E-1,9.285144508E-2,-3.677406013E-1
7.084373230E0,-4.937314689E-1,1.007926911E-1,-4.331031144E-1
7.089128074E0,-4.906771481E-1,9.468404204E-2,-5.015199780E-1
7.093882917E0,-4.949531853E-1,7.147117704E-2,-5.790998340E-1
7.098637813E0,-5.053378940E-1,3.359756246E-2,-6.664534807E-1
7.103392657E0,-5.126682520E-1,6.108647794E-4,-7.635809779E-1
7.108147553E0,-5.114465356E-1,-1.221729536E-2,-8.649845123E-1
7.112902396E0,-4.937314689E-1,6.108647794E-4,-9.633337855E-1
7.117657240E0,-4.583013058E-1,3.298669681E-2,-1.060461283E0
7.122412136E0,-4.106538594E-1,6.108647957E-2,-1.148425817E0
7.127166980E0,-3.642281294E-1,6.536252797E-2,-1.226616502E0
7.131921824E0,-3.281871080E-1,3.604102135E-2,-1.290146470E0
7.136676719E0,-3.043633699E-1,-1.527161989E-2,-1.343902469E0
7.141431563E0,-2.890917659E-1,-7.819069177E-2,-1.389717340E0
7.146186407E0,-2.750418782E-1,-1.380554438E-1,-1.428201914E0
7.150941251E0,-2.554942071E-1,-1.905898154E-1,-1.456912518E0
7.155696146E0,-2.237292230E-1,-2.382372618E-1,-1.471573234E0
7.160450990E0,-1.736383140E-1,-2.864955962E-1,-1.471573234E0
7.165205834E0,-1.070540547E-1,-3.390299380E-1,-1.454469085E0
7.169960730E0,-2.764163166E-2,-3.909534514E-1,-1.418428063E0
7.174715574E0,5.726857483E-2,-4.410443604E-1,-1.369558811E0
7.179470417E0,1.348484010E-1,-4.807505906E-1,-1.309694052E0
7.184225313E0,1.983783394E-1,-4.996874034E-1,-1.240055561E0
7.188980157E0,2.478583902E-1,-5.009090900E-1,-1.161864758E0
7.193735001E0,2.863428593E-1,-4.990765154E-1,-1.080619812E0
7.198489896E0,3.181078434E-1,-5.137372613E-1,-1.001207352E0
7.203244740E0,3.382663727E-1,-5.552760959E-1,-9.327905178E-1
7.207999636E0,3.498727977E-1,-6.145299673E-1,-8.820887208E-1
7.212754480E0,3.498727977E-1,-6.762273312E-1,-8.497129083E-1
7.217509324E0,3.449858725E-1,-7.263182402E-1,-8.399390578E-1
7.222264167E0,3.413206935E-1,-7.593049407E-1,-8.503237963E-1
7.227019063E0,3.449858725E-1,-7.751874328E-1,-8.833104968E-1
7.231773907E0,3.565923274E-1,-7.764091492E-1,-9.315688014E-1
7.236528803E0,3.773617148E-1,-7.678570151E-1,-9.926552773E-1
7.241283646E0,4.048506320E-1,-7.531962991E-1,-1.063515544E0
7.246038490E0,4.317286909E-1,-7.305942774E-1,-1.142317176E0
7.250793386E0,4.470002949E-1,-6.957749724E-1,-1.224173069E0
7.255548230E0,4.470002949E-1,-6.487383842E-1,-1.306639791E0
7.260303074E0,4.274526238E-1,-6.004800797E-1,-1.391549945E0
7.265057969E0,3.908007443E-1,-5.711585879E-1,-1.470962405E0
7.269812813E0,3.437641561E-1,-5.766563416E-1,-1.542433619E0
7.274567657E0,2.973384261E-1,-6.224712133E-1,-1.599854827E0
7.279322553E0,2.564104795E-1,-6.988292933E-1,-1.642615438E0
7.284077396E0,2.258672565E-1,-7.916807532E-1,-1.670104265E0
7.288832240E0,2.081521749E-1,-8.796452880E-1,-1.679267287E0
7.293587136E0,2.050978541E-1,-9.413426518E-1,-1.674991250E0
7.298341980E0,2.197586000E-1,-9.596685767E-1,-1.658497930E0
7.303096824E0,2.496909797E-1,-9.376774430E-1,-1.637117624E0
7.307851719E0,2.973384261E-1,-8.924734592E-1,-1.615737319E0
7.312606563E0,3.510945439E-1,-8.442151546E-1,-1.596800566E0
7.317361459E0,4.017963111E-1,-8.093958497E-1,-1.585194111E0
7.322116303E0,4.415025115E-1,-7.904590368E-1,-1.585804939E0
7.326871146E0,4.628827870E-1,-7.825177908E-1,-1.599854827E0
7.331626042E0,4.641045034E-1,-7.721330523E-1,-1.626121998E0
7.336380886E0,4.470002949E-1,-7.550288439E-1,-1.660330415E0
7.341135730E0,4.079049528E-1,-7.305942774E-1,-1.701869249E0
7.345890626E0,3.541488647E-1,-6.866120100E-1,-1.728747368E0
7.350645469E0,2.912297845E-1,-6.371319890E-1,-1.740964651E0
7.355400365E0,2.240346521E-1,-6.059778333E-1,-1.739132047E0
7.360155209E0,1.635590494E-1,-6.017017961E-1,-1.720806122E0
7.364910053E0,1.134681329E-1,-6.145299673E-1,-1.687208533E0
7.369664949E0,7.192932814E-2,-6.475166678E-1,-1.646891475E0
7.374419792E0,4.016435891E-2,-6.878337264E-1,-1.603520036E0
7.379174636E0,1.939495653E-2,-7.275399566E-1,-1.558926940E0
7.383929532E0,1.679878100E-3,-7.599157691E-1,-1.521664143E0
7.388684376E0,-1.237001177E-2,-7.880155444E-1,-1.496618748E0
7.393439271E0,-2.641990222E-2,-8.075632453E-1,-1.483790517E0
7.398194115E0,-3.741546720E-2,-8.167262077E-1,-1.484401464E0
7.402948959E0,-5.024362728E-2,-8.087849617E-1,-1.496007800E0
7.407703855E0,-6.062832847E-2,-7.782417536E-1,-1.517388105E0
7.412458699E0,-7.101303339E-2,-7.287616730E-1,-1.551596522E0
7.417213542E0,-7.773254067E-2,-6.786707640E-1,-1.595578790E0
7.421968438E0,-8.933897316E-2,-6.426297426E-1,-1.643226266E0
7.426723282E0,-1.082757786E-1,-6.243038177E-1,-1.692095399E0
7.431478178E0,-1.394298822E-1,-6.218603253E-1,-1.738521218E0
7.436233021E0,-1.803578287E-1,-6.243038177E-1,-1.777616501E0
7.440987865E0,-2.261726856E-1,-6.102539301E-1,-1.806327105E0
7.445742761E0,-2.725984156E-1,-5.601630211E-1,-1.819155335E0
7.450497605E0,-3.147480786E-1,-4.636463821E-1,-1.816711903E0
7.455252501E0,-3.489564955E-1,-3.292561173E-1,-1.806327105E0
7.460007344E0,-3.740019500E-1,-1.832594275E-1,-1.795331597E0
7.464762188E0,-3.837758005E-1,-4.337139800E-2,-1.787390351E0
7.469517084E0,-3.709476292E-1,7.880155742E-2,-1.780670881E0
7.474271928E0,-3.422369957E-1,1.850920320E-1,-1.775173068E0
7.479026771E0,-3.080285788E-1,2.858847082E-1,-1.770897031E0
7.483781667E0,-2.793179154E-1,3.769035637E-1,-1.770286083E0
7.488536511E0,-2.664897740E-1,4.410443604E-1,-1.772118688E0
7.493291407E0,-2.719875574E-1,4.618137777E-1,-1.777005672E0
7.498046251E0,-2.860374451E-1,4.098902643E-1,-1.776394725E0
7.502801094E0,-3.080285788E-1,2.919933498E-1,-1.767231822E0
7.507555990E0,-3.318522871E-1,1.404989064E-1,-1.755625367E0
7.512310834E0,-3.642281294E-1,-1.527161989E-2,-1.743408084E0
7.517065730E0,-4.021017551E-1,-1.569922417E-1,-1.732412457E0
7.521820574E0,-4.436405599E-1,-2.632827163E-1,-1.718362570E0
7.526575417E0,-4.900662601E-1,-3.145953715E-1,-1.704312682E0
7.531330313E0,-5.358811021E-1,-3.152062297E-1,-1.680489063E0
7.536085157E0,-5.768090487E-1,-2.883281708E-1,-1.637117624E0
7.540840053E0,-6.085740328E-1,-2.779434621E-1,-1.568089843E0
7.545594896E0,-6.189587116E-1,-3.115410507E-1,-1.474627614E0
7.550349740E0,-6.006327868E-1,-3.970620930E-1,-1.364671946E0
7.555104636E0,-5.658134818E-1,-5.131264329E-1,-1.255327106E0
7.559859480E0,-5.261073112E-1,-6.273581386E-1,-1.158199668E0
7.564614376E0,-4.943423271E-1,-7.281508446E-1,-1.080619812E0
7.569369219E0,-4.540252388E-1,-7.819069028E-1,-1.010981202E0
7.574124115E0,-3.911061883E-1,-7.550288439E-1,-9.395100474E-1
7.578878959E0,-3.110828996E-1,-6.407971382E-1,-8.564324379E-1
7.583633803E0,-2.218966335E-1,-4.587594569E-1,-7.550288439E-1
7.588388699E0,-1.314886510E-1,-2.535088956E-1,-6.444623470E-1
7.593143542E0,-4.596757516E-2,-6.291907281E-2,-5.393936038E-1
7.597898438E0,3.222311661E-2,1.007926911E-1,-4.520399272E-1
7.602653282E0,9.575305134E-2,2.339612097E-1,-4.043924809E-1
7.607408126E0,1.464548260E-1,3.640754223E-1,-4.086685479E-1
7.612163021E0,1.763872057E-1,5.467239618E-1,-4.459312856E-1
7.616917865E0,1.800523996E-1,7.513636947E-1,-5.174024701E-1
7.621672761E0,1.831067204E-1,9.486730099E-1,-6.218603253E-1
7.626427605E0,1.996000707E-1,1.082452416E0,-7.409789562E-1
7.631182501E0,2.393062711E-1,1.114828229E0,-8.454368711E-1
7.635937344E0,2.802342176E-1,1.079398036E0,-8.998038173E-1
7.640692188E0,2.967275679E-1,1.040913582E0,-8.851430416E-1
7.645447084E0,2.808450758E-1,1.034804940E0,-8.087849617E-1
7.650201928E0,2.307541668E-1,1.038470149E0,-6.890554428E-1
7.654956824E0,1.635590494E-1,9.975422025E-1,-5.448913574E-1
7.659711667E0,1.049160287E-1,8.680388331E-1,-3.903425932E-1
7.664466511E0,8.353576064E-2,6.658425927E-1,-2.321286201E-1
7.669221407E0,9.819651395E-2,4.587594569E-1,-6.963858753E-2
7.673976251E0,1.330158114E-1,2.926042378E-1,9.040798992E-2
7.678731146E0,1.721111536E-1,1.698204130E-1,2.400698513E-1
7.683485990E0,2.063195854E-1,8.613193035E-2,3.738492429E-1
7.688240886E0,2.374736816E-1,3.665188700E-2,4.911352694E-1
7.692995730E0,2.637408674E-1,1.832594350E-2,5.962040424E-1
7.697750626E0,2.796233594E-1,2.443459071E-2,6.860011220E-1
7.702505469E0,2.851211429E-1,4.581485689E-2,7.605266571E-1
7.707260313E0,2.820668221E-1,8.124501258E-2,8.191696405E-1
7.712015209E0,2.753472924E-1,1.240055487E-1,8.649845123E-1
7.716770053E0,2.600756884E-1,1.783725172E-1,9.004147053E-1
7.721524949E0,2.386954129E-1,2.443459183E-1,9.321796298E-1
7.726279792E0,2.142608166E-1,3.170388341E-1,9.608902931E-1
7.731034688E0,1.941022873E-1,3.891208768E-1,9.908226728E-1
7.735789532E0,1.837175786E-1,4.618137777E-1,1.025031090E0
7.740544428E0,1.721111536E-1,5.473348498E-1,1.062293887E0
7.745299271E0,1.537852138E-1,6.469057798E-1,1.100778341E0
7.750054115E0,1.287397593E-1,7.483093739E-1,1.134986758E0
7.754809011E0,1.006399691E-1,8.338304162E-1,1.161253929E0
7.759563855E0,7.131846249E-2,8.912517428E-1,1.180801630E0
7.764318751E0,3.894263133E-2,9.065233469E-1,1.199127555E0
7.769073594E0,2.290742937E-3,8.802561760E-1,1.211955667E0
7.773828490E0,-3.497200832E-2,8.240565658E-1,1.225394726E0
7.778583334E0,-6.490438432E-2,7.623592615E-1,1.244942427E0
7.783338230E0,-8.384118974E-2,7.122683525E-1,1.266933560E0
7.788093074E0,-9.239330143E-2,6.841685772E-1,1.290757298E0
7.792847969E0,-9.178243577E-2,6.890554428E-1,1.318246245E0
7.797602813E0,-8.078686893E-2,7.336485982E-1,1.339015603E0
7.802357657E0,-6.185005978E-2,8.075632453E-1,1.365282774E0
7.807112553E0,-3.741546720E-2,8.900299668E-1,1.409265041E0
7.811867396E0,-1.481347065E-2,9.639446139E-1,1.470351577E0
7.816622292E0,-5.039634649E-3,1.022587657E0,1.541211843E0
7.821377136E0,-7.483093534E-3,1.066569924E0,1.615126491E0
7.826132032E0,-2.275471389E-2,1.095280528E0,1.688430309E0
7.830886876E0,-5.085449293E-2,1.105665207E0,1.755014539E0
7.835641771E0,-8.323032409E-2,1.092226267E0,1.807548881E0
7.840396615E0,-1.143844277E-1,1.044578791E0,1.842368126E0
7.845151511E0,-1.388190240E-1,9.639446139E-1,1.860694170E0
7.849906355E0,-1.601992846E-1,8.662062287E-1,1.869246244E0
7.854661199E0,-1.821904182E-1,7.684679031E-1,1.875354886E0
7.859416094E0,-2.011272311E-1,6.786707640E-1,1.883296132E0
7.864170938E0,-2.194531709E-1,5.949822664E-1,1.900400281E0
7.868925834E0,-2.335030586E-1,5.253437161E-1,1.924224019E0
7.873680678E0,-2.444986254E-1,4.721984863E-1,1.957210779E0
7.878435574E0,-2.524398565E-1,4.337140024E-1,1.992030025E0
7.883190417E0,-2.536616027E-1,3.958403766E-1,2.031125307E0
7.887945313E0,-2.451094985E-1,3.463603258E-1,2.071442366E0
7.892700157E0,-2.316704690E-1,2.852738500E-1,2.110537767E0
7.897455053E0,-2.121227980E-1,2.357937992E-1,2.143524408E0
7.902209896E0,-1.882990748E-1,2.193004489E-1,2.167348146E0
7.906964792E0,-1.632536054E-1,2.357937992E-1,2.176511288E0
7.911719636E0,-1.394298822E-1,2.663370371E-1,2.172235250E0
7.916474532E0,-1.186604798E-1,2.999345958E-1,2.156352758E0
7.921229376E0,-1.027780026E-1,3.341430426E-1,2.138637543E0
7.925984271E0,-9.056070447E-2,3.671297431E-1,2.125198603E0
7.930739115E0,-7.956513762E-2,4.056142271E-1,2.123976946E0
7.935493959E0,-7.101303339E-2,4.544833899E-1,2.138637543E0
7.940248855E0,-6.490438432E-2,5.088503361E-1,2.163072109E0
7.945003751E0,-6.612611562E-2,5.479456782E-1,2.196058989E0
7.949758594E0,-7.895427197E-2,5.748237371E-1,2.235154152E0
7.954513438E0,-9.911280870E-2,6.047561169E-1,2.273638725E0
7.959268334E0,-1.211039424E-1,6.340776682E-1,2.307847023E0
7.964023178E0,-1.424842030E-1,6.511818767E-1,2.338390350E0
7.968778074E0,-1.589775532E-1,6.615665555E-1,2.363435745E0
7.973532917E0,-1.669187993E-1,6.756164432E-1,2.383594275E0
7.978287813E0,-1.687513888E-1,7.037162185E-1,2.398255110E0
7.983042657E0,-1.656970680E-1,7.415898442E-1,2.403752804E0
7.987797553E0,-1.601992846E-1,7.696896195E-1,2.397644281E0
7.992552396E0,-1.473711282E-1,7.812960744E-1,2.375042200E0
7.997307292E0,-1.278234571E-1,7.611374855E-1,2.338390350E0
8.002062136E0,-1.113301069E-1,7.269290686E-1,2.288910389E0
8.006817032E0,-1.039997265E-1,6.921098232E-1,2.233932495E0
8.011571876E0,-1.094975099E-1,6.658425927E-1,2.179565430E0
8.016326771E0,-1.375972927E-1,6.517927051E-1,2.130085468E0
8.021081615E0,-1.828012913E-1,6.407971382E-1,2.084881544E0
8.025836511E0,-2.438877672E-1,6.230821013E-1,2.045786142E0
8.030591355E0,-3.116937578E-1,5.900954008E-1,2.013410330E0
8.035346251E0,-3.801106215E-1,5.491674542E-1,1.984088778E0
8.040101094E0,-4.424188137E-1,5.027416945E-1,1.961486816E0
8.044855990E0,-4.851793647E-1,4.502073526E-1,1.941939116E0
8.049610834E0,-5.028944016E-1,3.793470263E-1,1.921780586E0
8.054365730E0,-4.918988645E-1,2.724456787E-1,1.899789453E0
8.059120574E0,-4.534143806E-1,1.270598769E-1,1.880852699E0
8.063875469E0,-3.886627257E-1,-3.726275265E-2,1.864970207E0
8.068630313E0,-3.116937578E-1,-1.850920320E-1,1.846644282E0
8.073385209E0,-2.444986254E-1,-2.724456787E-1,1.821598768E0
8.078140053E0,-1.889099330E-1,-3.005454838E-1,1.782503486E0
8.082894949E0,-1.394298822E-1,-2.907716334E-1,1.726914763E0
8.087649792E0,-8.506292105E-2,-2.724456787E-1,1.650556684E0
8.092404688E0,-3.069595434E-2,-2.498437017E-1,1.560148597E0
8.097159532E0,1.511890348E-2,-2.162461281E-1,1.461799383E0
8.101914428E0,4.260781780E-2,-1.759290546E-1,1.359174132E0
8.106669271E0,5.177079141E-2,-1.435532272E-1,1.255327106E0
8.111424167E0,4.627300799E-2,-1.191186309E-1,1.150869250E0
8.116179011E0,4.016435891E-2,-1.038470119E-1,1.051298261E0
8.120933907E0,3.588830680E-2,-1.026252806E-1,9.578359723E-1
8.125688751E0,3.649916872E-2,-1.056796089E-1,8.680388331E-1
8.130443646E0,3.588830680E-2,-1.075121984E-1,7.806851864E-1
8.135198542E0,2.977965772E-2,-1.172860414E-1,6.914989352E-1
8.139953386E0,1.572976820E-2,-1.447749585E-1,5.937605500E-1
8.144708282E0,-3.207040019E-3,-1.881463528E-1,4.923570156E-1
8.149463126E0,-2.214384824E-2,-2.474002391E-1,3.891208768E-1
8.154218021E0,-3.069595434E-2,-3.262017965E-1,2.864955962E-1
8.158972865E0,-3.069595434E-2,-4.318813980E-1,1.844811589E-1
8.163727761E0,-3.008509055E-2,-5.564978123E-1,8.307760954E-2
8.168482605E0,-3.252854943E-2,-6.902772188E-1,-3.054323979E-2
8.173237501E0,-4.291325063E-2,-8.167262077E-1,-1.576031148E-1
8.177992344E0,-5.818486959E-2,-9.199623466E-1,-2.962694168E-1
8.182747240E0,-7.345648855E-2,-9.999856353E-1,-4.453204274E-1
8.187502084E0,-8.078686893E-2,-1.062904716E0,-5.980366468E-1
8.192256980E0,-7.101303339E-2,-1.108719587E0,-7.544180155E-1
8.197011824E0,-4.841103405E-2,-1.147204041E0,-9.095776677E-1
8.201766719E0,-1.786779426E-2,-1.166140914E0,-1.063515544E0
8.206521615E0,1.511890348E-2,-1.138651967E0,-1.217453480E0
8.211276459E0,4.138609022E-2,-1.043357015E0,-1.376889229E0
8.216031355E0,5.482511222E-2,-8.833104968E-1,-1.535103202E0
8.220786199E0,5.360338464E-2,-6.682860851E-1,-1.682321548E0
8.225541094E0,3.833176568E-2,-4.147771895E-1,-1.803272843E0
8.230295938E0,1.450803876E-2,-1.521053314E-1,-1.879020095E0
8.235050834E0,-1.114828233E-2,8.918625861E-2,-1.901011229E0
8.239805678E0,-3.741546720E-2,2.852738500E-1,-1.867413640E0
8.244560574E0,-5.818486959E-2,4.196641147E-1,-1.794720769E0
8.249315417E0,-6.918043643E-2,4.960221946E-1,-1.694538951E0
8.254070313E0,-6.123919412E-2,5.357283950E-1,-1.577863693E0
8.258825209E0,-3.069595434E-2,5.412262082E-1,-1.453858137E0
8.263580053E0,1.939495653E-2,4.960221946E-1,-1.328630924E0
8.268334949E0,8.048143238E-2,3.976729810E-1,-1.210123181E0
8.273089792E0,1.397353113E-1,2.602283955E-1,-1.109941363E0
8.277844688E0,1.904370934E-1,9.407317638E-2,-1.032361507E0
8.282599532E0,2.276998460E-1,-8.429934084E-2,-9.810488224E-1
8.287354428E0,2.521344423E-1,-2.474002391E-1,-9.578359723E-1
8.292109271E0,2.680169344E-1,-3.738492429E-1,-9.602794051E-1
8.296864167E0,2.771798968E-1,-4.477638900E-1,-9.859357476E-1
8.301619011E0,2.887863219E-1,-4.728093445E-1,-1.030528903E0
8.306373907E0,3.016144931E-1,-4.557051361E-1,-1.088561058E0
8.311128751E0,3.113883138E-1,-4.025598764E-1,-1.153923512E0
8.315883646E0,3.119991720E-1,-3.225366175E-1,-1.216842651E0
8.320638542E0,3.010036349E-1,-2.266308367E-1,-1.267544389E0
8.325393386E0,2.759581506E-1,-1.160643101E-1,-1.304196358E0
8.330148282E0,2.417497337E-1,4.886918236E-3,-1.328019977E0
8.334903126E0,2.069304436E-1,1.325576603E-1,-1.339626431E0
8.339658021E0,1.733328849E-1,2.504545450E-1,-1.340848207E0
8.344412865E0,1.452330947E-1,3.384190798E-1,-1.333517790E0
8.349167761E0,1.207985133E-1,3.793470263E-1,-1.320689678E0
8.353922657E0,9.819651395E-2,3.652971387E-1,-1.302974582E0
8.358677501E0,7.376192510E-2,3.029889166E-1,-1.285259485E0
8.363432396E0,4.444041103E-2,2.034179717E-1,-1.272431374E0
8.368187240E0,9.010255337E-3,8.979712427E-2,-1.269376993E0
8.372942136E0,-3.436114267E-2,-1.893680729E-2,-1.281594276E0
8.377696980E0,-8.139773458E-2,-1.178968996E-1,-1.306028843E0
8.382451876E0,-1.290451884E-1,-2.101374865E-1,-1.339015603E0
8.387206719E0,-1.650862098E-1,-3.048215210E-1,-1.377500057E0
8.391961615E0,-1.870773435E-1,-4.159989059E-1,-1.419649720E0
8.396716511E0,-1.944077164E-1,-5.503891706E-1,-1.470351577E0
8.401471355E0,-1.870773435E-1,-6.921098232E-1,-1.531437993E0
8.406226251E0,-1.724165827E-1,-8.185588121E-1,-1.597411394E0
8.410981094E0,-1.577558219E-1,-9.101884961E-1,-1.667050004E0
8.415735990E0,-1.504254490E-1,-9.437860847E-1,-1.733023405E0
8.420490834E0,-1.547015011E-1,-9.059124589E-1,-1.791666389E0
8.425245730E0,-1.663079411E-1,-8.014546037E-1,-1.834426880E0
8.430000626E0,-1.803578287E-1,-6.688969135E-1,-1.846644282E0
8.434755469E0,-1.876882017E-1,-5.522217751E-1,-1.817322731E0
8.439510365E0,-1.840230078E-1,-4.905244112E-1,-1.744629860E0
8.444265209E0,-1.742491722E-1,-5.064069033E-1,-1.642004490E0
8.449020105E0,-1.644753367E-1,-5.943714380E-1,-1.538157463E0
8.453774949E0,-1.595884264E-1,-7.159335017E-1,-1.452025533E0
8.458529844E0,-1.656970680E-1,-8.265000582E-1,-1.389717340E0
8.463284740E0,-1.895207912E-1,-8.924734592E-1,-1.345735073E0
8.468039584E0,-2.267835438E-1,-9.046907425E-1,-1.321300507E0
8.472794480E0,-2.738201320E-1,-8.717040420E-1,-1.311526656E0
8.477549324E0,-3.251327872E-1,-8.075632453E-1,-1.315191865E0
8.482304219E0,-3.740019500E-1,-7.226530313E-1,-1.326798320E0
8.487059063E0,-4.155407548E-1,-6.267472506E-1,-1.352454662E0
8.491813959E0,-4.454731345E-1,-5.222893953E-1,-1.385441303E0
8.496568855E0,-4.631882310E-1,-4.068359435E-1,-1.430034399E0
8.501323699E0,-4.699077308E-1,-2.816086709E-1,-1.481347084E0
8.506078594E0,-4.674642682E-1,-1.496618688E-1,-1.538157463E0
8.510833438E0,-4.637990892E-1,-2.443459071E-2,-1.596800566E0
8.515588334E0,-4.637990892E-1,7.757982612E-2,-1.653000116E0
8.520343230E0,-4.668534100E-1,1.496618688E-1,-1.699425817E0
8.525098074E0,-4.674642682E-1,1.789833754E-1,-1.734856009E0
8.529852969E0,-4.607447684E-1,1.606574357E-1,-1.760512352E0
8.534607813E0,-4.515817761E-1,1.136208475E-1,-1.780670881E0
8.539362709E0,-4.442514181E-1,5.925388262E-2,-1.802051067E0
8.544117605E0,-4.460839927E-1,3.665188793E-3,-1.829540014E0
8.548872449E0,-4.570795596E-1,-6.108647957E-2,-1.862526655E0
8.553627344E0,-4.735729098E-1,-1.350011230E-1,-1.899789453E0
8.558382188E0,-4.937314689E-1,-2.131918073E-1,-1.940106511E0
8.563137084E0,-5.157225728E-1,-2.901607752E-1,-1.977369308E0
8.567891980E0,-5.377137065E-1,-3.481929302E-1,-2.006079912E0
8.572646824E0,-5.597048402E-1,-3.689623177E-1,-2.023184061E0
8.577401719E0,-5.823068619E-1,-3.237583339E-1,-2.029903650E0
8.582156563E0,-6.049088240E-1,-1.979201883E-1,-2.028681993E0
8.586911459E0,-6.250674129E-1,-3.665188793E-3,-2.024405956E0
8.591666355E0,-6.360629797E-1,2.095266134E-1,-2.014631987E0
8.596421199E0,-6.305651665E-1,3.775144219E-1,-1.988975763E0
8.601176094E0,-5.963567495E-1,4.532616735E-1,-1.942549944E0
8.605930938E0,-5.371028781E-1,4.269944727E-1,-1.869857073E0
8.610685834E0,-4.637990892E-1,3.139844835E-1,-1.763566613E0
8.615440730E0,-3.929387629E-1,1.453858167E-1,-1.626121998E0
8.620195574E0,-3.379609287E-1,-3.970621154E-2,-1.471573234E0
8.624950469E0,-3.098611534E-1,-2.186895907E-1,-1.320078731E0
8.629705313E0,-2.982547283E-1,-3.652971387E-1,-1.196073294E0
8.634460209E0,-2.872591615E-1,-4.557051361E-1,-1.106886983E0
8.639215105E0,-2.707658112E-1,-4.844157696E-1,-1.050687432E0
8.643969949E0,-2.402225733E-1,-4.685332775E-1,-1.016479015E0
8.648724844E0,-1.968511790E-1,-4.557051361E-1,-9.908226728E-1
8.653479740E0,-1.357647032E-1,-4.587594569E-1,-9.700532556E-1
8.658234584E0,-5.024362728E-2,-4.587594569E-1,-9.517273307E-1
8.662989480E0,4.688387364E-2,-4.196641147E-1,-9.376774430E-1
8.667744324E0,1.324049383E-1,-3.292561173E-1,-9.260709882E-1
8.672499219E0,1.928805560E-1,-1.942549944E-1,-9.107993841E-1
8.677254115E0,2.264781147E-1,-7.941242307E-3,-8.888082504E-1
8.682008959E0,2.380845547E-1,2.095266134E-1,-8.631519079E-1
8.686763855E0,2.252563834E-1,4.355465770E-1,-8.362739086E-1
8.691518699E0,1.934914142E-1,6.334667802E-1,-8.258891702E-1
8.696273594E0,1.556178033E-1,7.776308656E-1,-8.368847370E-1
8.701028490E0,1.256854236E-1,8.472694755E-1,-8.539889455E-1
8.705783334E0,1.214093715E-1,8.265000582E-1,-8.552106619E-1
8.710538230E0,1.550069451E-1,7.403681278E-1,-8.228348494E-1
8.715293126E0,2.099847645E-1,6.499601007E-1,-7.360920310E-1
8.720047969E0,2.588539422E-1,6.169734001E-1,-5.955931544E-1
8.724802865E0,2.887863219E-1,6.560688019E-1,-4.294379354E-1
8.729557709E0,3.046688139E-1,7.141009569E-1,-2.657261789E-1
8.734312605E0,3.119991720E-1,7.073814273E-1,-1.178968996E-1
8.739067501E0,3.181078434E-1,6.090322137E-1,6.108647678E-3
8.743822344E0,3.205513060E-1,4.618137777E-1,1.056796089E-1
8.748577240E0,3.156643808E-1,3.158170879E-1,1.875354946E-1
8.753332084E0,3.107774556E-1,2.046397030E-1,2.583957911E-1
8.758086980E0,3.107774556E-1,1.502727419E-1,3.249800503E-1
8.762841876E0,3.150535226E-1,1.496618688E-1,3.878991306E-1
8.767596719E0,3.199404180E-1,1.783725172E-1,4.465421438E-1
8.772351615E0,3.144426346E-1,2.064722925E-1,5.064069033E-1
8.777106511E0,2.973384261E-1,2.321286201E-1,5.693259835E-1
8.781861355E0,2.704603672E-1,2.528980076E-1,6.377428174E-1
8.786616251E0,2.356410921E-1,2.712239623E-1,7.055488229E-1
8.791371146E0,1.965457499E-1,3.078758419E-1,7.678570151E-1
8.796125990E0,1.586721241E-1,3.707949221E-1,8.240565658E-1
8.800880886E0,1.281288862E-1,4.471530318E-1,8.747583628E-1
8.805635730E0,1.061377525E-1,5.235111117E-1,9.260709882E-1
8.810390626E0,9.208786488E-2,5.900954008E-1,9.810488224E-1
8.815145521E0,8.842267841E-2,6.389645338E-1,1.040913582E0
8.819900365E0,9.330959618E-2,6.560688019E-1,1.109941363E0
8.824655261E0,1.055268943E-1,6.352993846E-1,1.183245063E0
8.829410157E0,1.201876476E-1,5.784889460E-1,1.257159710E0
8.834165001E0,1.354592592E-1,5.027416945E-1,1.329241753E0
8.838919896E0,1.476765573E-1,4.392117858E-1,1.393382549E0
8.843674792E0,1.519526094E-1,4.068359435E-1,1.441030025E0
8.848429636E0,1.446222365E-1,4.111120105E-1,1.474016666E0
8.853184532E0,1.269071549E-1,4.605920315E-1,1.503949046E0
8.857939376E0,9.758564830E-2,5.455022454E-1,1.536935806E0
8.862694271E0,5.665770918E-2,6.389645338E-1,1.574809432E0
8.867449167E0,6.566796452E-3,7.037162185E-1,1.620013356E0
8.872204011E0,-4.352411628E-2,7.312051654E-1,1.668271661E0
8.876958907E0,-9.361502528E-2,7.330377102E-1,1.720195174E0
8.881713803E0,-1.430950761E-1,7.147117853E-1,1.774562240E0
8.886468646E0,-1.864664704E-1,6.737838387E-1,1.828318238E0
8.891223542E0,-2.237292230E-1,6.151408553E-1,1.882074356E0
8.895978438E0,-2.487746775E-1,5.674933791E-1,1.933387041E0
8.900733282E0,-2.689332068E-1,5.528326035E-1,1.982867122E0
8.905488178E0,-2.890917659E-1,5.699368119E-1,2.028681993E0
8.910243021E0,-3.061959743E-1,6.065887213E-1,2.079383612E0
8.914997917E0,-3.116937578E-1,6.334667802E-1,2.134361506E0
8.919752813E0,-3.055851161E-1,6.450732350E-1,2.191171885E0
8.924507709E0,-2.897026241E-1,6.560688019E-1,2.240652084E0
8.929262553E0,-2.683223486E-1,6.823359728E-1,2.281579971E0
8.934017449E0,-2.396117151E-1,7.305942774E-1,2.312734127E0
8.938772344E0,-2.060141414E-1,7.825177908E-1,2.332892656E0
8.943527188E0,-1.785252392E-1,8.203914165E-1,2.339001179E0
8.948282084E0,-1.638644785E-1,8.442151546E-1,2.331059933E0
8.953036928E0,-1.669187993E-1,8.607084751E-1,2.310290575E0
8.957791824E0,-1.876882017E-1,8.820887208E-1,2.276693106E0
8.962546719E0,-2.267835438E-1,8.967494965E-1,2.232100010E0
8.967301563E0,-2.842048407E-1,8.894191384E-1,2.182619810E0
8.972056459E0,-3.575085998E-1,8.637627959E-1,2.133750677E0
8.976811355E0,-4.393644929E-1,8.045089245E-1,2.086714029E0
8.981566199E0,-5.242747068E-1,7.092140317E-1,2.056170940E0
8.986321094E0,-6.097957492E-1,5.900954008E-1,2.044564486E0
8.991075990E0,-6.916516423E-1,4.654789567E-1,2.051283836E0
8.995830834E0,-7.551816106E-1,3.536907136E-1,2.067166328E0
9.000585730E0,-7.887791395E-1,2.852738500E-1,2.084270716E0
9.005340626E0,-7.869465351E-1,2.852738500E-1,2.093433619E0
9.010095469E0,-7.521272302E-1,3.579667509E-1,2.094044447E0
9.014850365E0,-6.977602839E-1,4.813614488E-1,2.089768410E0
9.019605261E0,-6.342303753E-1,6.212494969E-1,2.087324858E0
9.024360105E0,-5.700895786E-1,7.556397319E-1,2.092822790E0
9.029115001E0,-4.998401105E-1,8.759800792E-1,2.105040073E0
9.033869896E0,-4.320341051E-1,9.755510688E-1,2.119700670E0
9.038624740E0,-3.770562708E-1,1.055574298E0,2.139248371E0
9.043379636E0,-3.416261375E-1,1.114217401E0,2.162461281E0
9.048134532E0,-3.275762498E-1,1.158810496E0,2.186895847E0
9.052889376E0,-3.385718167E-1,1.191797137E0,2.211330414E0
9.057644271E0,-3.691150546E-1,1.188742876E0,2.238208532E0
9.062399167E0,-4.137081802E-1,1.138651967E0,2.264475822E0
9.067154011E0,-4.625773430E-1,1.037859201E0,2.284023523E0
9.071908907E0,-5.059487820E-1,9.022472501E-1,2.294408083E0
9.076663803E0,-5.352702737E-1,7.599157691E-1,2.290742874E0
9.081418646E0,-5.456549525E-1,6.359102130E-1,2.268751860E0
9.086173542E0,-5.352702737E-1,5.326740742E-1,2.235154152E0
9.090928438E0,-5.053378940E-1,4.459312856E-1,2.193615437E0
9.095683282E0,-4.595230222E-1,3.817904890E-1,2.147800446E0
9.100438178E0,-4.082103968E-1,3.378082216E-1,2.100764036E0
9.105193074E0,-3.642281294E-1,2.974911332E-1,2.049451351E0
9.109947917E0,-3.330740333E-1,2.559523284E-1,1.992640853E0
9.114702813E0,-3.190241456E-1,2.193004489E-1,1.939495683E0
9.119457709E0,-3.281871080E-1,1.948658675E-1,1.894291639E0
9.124212553E0,-3.544542789E-1,1.808159798E-1,1.856418014E0
9.128967449E0,-3.874409795E-1,1.551596522E-1,1.825874805E0
9.133722344E0,-4.167625010E-1,1.087339297E-1,1.796553373E0
9.138477240E0,-4.350884259E-1,5.925388262E-2,1.767842650E0
9.143232084E0,-4.363101721E-1,2.199113183E-2,1.734856009E0
9.147986980E0,-4.155407548E-1,1.038470119E-2,1.684765100E0
9.152741876E0,-3.740019500E-1,1.893680729E-2,1.609017849E0
9.157496719E0,-3.184132576E-1,2.565632015E-2,1.511279464E0
9.162251615E0,-2.603811026E-1,2.748891525E-2,1.401323795E0
9.167006511E0,-2.139553875E-1,3.054323979E-2,1.287702918E0
9.171761355E0,-1.907425225E-1,3.848448023E-2,1.165529966E0
9.176516251E0,-1.895207912E-1,5.314523727E-2,1.027474523E0
9.181271146E0,-2.029598206E-1,9.590577334E-2,8.778126836E-1
9.186025990E0,-2.212857604E-1,1.429423541E-1,7.220421433E-1
9.190780886E0,-2.359465212E-1,1.533270627E-1,5.601630211E-1
9.195535782E0,-2.390008420E-1,1.105665267E-1,3.964512348E-1
9.200290626E0,-2.316704690E-1,2.626718581E-2,2.351829410E-1
9.205045521E0,-2.151771188E-1,-8.796452731E-2,8.307760954E-2
9.209800417E0,-1.944077164E-1,-2.278525680E-1,-5.070177838E-2
9.214555261E0,-1.754709035E-1,-3.836230934E-1,-1.692095399E-1
9.219310157E0,-1.608101577E-1,-5.308414698E-1,-2.767217457E-1
9.224065053E0,-1.473711282E-1,-6.401863098E-1,-3.720166385E-1
9.228819949E0,-1.394298822E-1,-7.116574645E-1,-4.642572403E-1
9.233574792E0,-1.302669197E-1,-7.739656568E-1,-5.601630211E-1
9.238329688E0,-1.186604798E-1,-8.576541543E-1,-6.615665555E-1
9.243084584E0,-9.911280870E-2,-9.779945016E-1,-7.733548284E-1
9.247839428E0,-7.345648855E-2,-1.125212908E0,-8.869756460E-1
9.252594324E0,-4.230238497E-2,-1.254105449E0,-1.005483389E0
9.257349219E0,-1.420260593E-2,-1.321300507E0,-1.130099893E0
9.262104063E0,7.177661173E-3,-1.303585410E0,-1.260824919E0
9.266858959E0,1.756236330E-2,-1.196073294E0,-1.397658587E0
9.271613855E0,1.084284950E-2,-1.014035583E0,-1.534492373E0
9.276368751E0,-1.175914705E-2,-7.904590368E-1,-1.660330415E0
9.281123594E0,-4.413498193E-2,-5.601630211E-1,-1.765399218E0
9.285878490E0,-7.406735420E-2,-3.555232882E-1,-1.833205223E0
9.290633386E0,-9.239330143E-2,-2.003636509E-1,-1.858250618E0
9.295388230E0,-9.117157012E-2,-1.075121984E-1,-1.846033335E0
9.300143126E0,-7.406735420E-2,-6.291907281E-2,-1.807548881E0
9.304898021E0,-4.352411628E-2,-4.886918142E-2,-1.751349330E0
9.309652865E0,-1.527161949E-4,-5.009091273E-2,-1.679878116E0
9.314407761E0,5.543597788E-2,-4.276053607E-2,-1.597411394E0
9.319162657E0,1.171333194E-1,-1.221729536E-2,-1.510668635E0
9.323917553E0,1.739437431E-1,3.481929377E-2,-1.423314929E0
9.328672396E0,2.264781147E-1,7.513637096E-2,-1.337793827E0
9.333427292E0,2.735147178E-1,9.407317638E-2,-1.261435747E0
9.338182188E0,3.156643808E-1,8.796452731E-2,-1.196073294E0
9.342937032E0,3.529271185E-1,5.253437161E-2,-1.145982385E0
9.347691928E0,3.877464235E-1,-7.330377586E-3,-1.116660833E0
9.352446824E0,4.207331240E-1,-8.002328873E-2,-1.104443550E0
9.357201667E0,4.506655037E-1,-1.478292793E-1,-1.107497811E0
9.361956563E0,4.696022868E-1,-2.009745091E-1,-1.125823736E0
9.366711459E0,4.787652791E-1,-2.278525680E-1,-1.156367064E0
9.371466303E0,4.744892120E-1,-2.241873741E-1,-1.197294950E0
9.376221199E0,4.592176080E-1,-1.899789423E-1,-1.240055561E0
9.380976094E0,4.323395491E-1,-1.258381456E-1,-1.281594276E0
9.385730990E0,3.999637067E-1,-5.131264031E-2,-1.315191865E0
9.390485834E0,3.584249020E-1,-6.108647794E-4,-1.340237379E0
9.395240730E0,3.101665974E-1,1.588248461E-2,-1.362839341E0
9.399995626E0,2.606865466E-1,-2.443459118E-3,-1.382387042E0
9.404750469E0,2.154825479E-1,-5.803215504E-2,-1.395825982E0
9.409505365E0,1.776089370E-1,-1.606574357E-1,-1.409875870E0
9.414260261E0,1.458439678E-1,-3.097084463E-1,-1.425147533E0
9.419015157E0,1.183550507E-1,-4.862483740E-1,-1.444695234E0
9.423770001E0,9.697478265E-2,-6.774490476E-1,-1.477071047E0
9.428524896E0,7.254019380E-2,-8.582650423E-1,-1.528383732E0
9.433279792E0,2.977965772E-2,-1.010981202E0,-1.598633170E0
9.438034636E0,-3.558287397E-2,-1.135597587E0,-1.680489063E0
9.442789532E0,-1.131627038E-1,-1.232114315E0,-1.761123180E0
9.447544428E0,-1.791360974E-1,-1.299309373E0,-1.826485634E0
9.452299324E0,-2.200640440E-1,-1.332906961E0,-1.863748431E0
9.457054167E0,-2.261726856E-1,-1.331074357E0,-1.867413640E0
9.461809063E0,-1.980729103E-1,-1.292589903E0,-1.841146469E0
9.466563959E0,-1.369864196E-1,-1.230892539E0,-1.792277217E0
9.471318803E0,-5.757400393E-2,-1.156977892E0,-1.736077666E0
9.476073699E0,3.100138716E-2,-1.078176379E0,-1.680489063E0
9.480828594E0,1.122464016E-1,-9.889900684E-1,-1.628565550E0
9.485583438E0,1.678351015E-1,-8.796452880E-1,-1.575420260E0
9.490338334E0,1.855501831E-1,-7.452550530E-1,-1.521053314E0
9.495093230E0,1.623373181E-1,-5.974257588E-1,-1.470351577E0
9.499848126E0,1.171333194E-1,-4.673115611E-1,-1.428812742E0
9.504602969E0,7.498364896E-2,-3.940077722E-1,-1.401323795E0
9.509357865E0,4.993819445E-2,-3.848448098E-1,-1.386052132E0
9.514112761E0,4.382954910E-2,-4.269944727E-1,-1.378110886E0
9.518867657E0,5.115992576E-2,-4.996874034E-1,-1.371391416E0
