Time (s),Acceleration x (m/s^2),Acceleration y (m/s^2),Acceleration z (m/s^2)
6.00330361,0.304032405314794,-0.4123193577785929,-0.235777036822109
6.00805788,-0.5672686298319937,-3.87860473760103,0.006613211393872306
6.012812151,-1.4260261104997793,-7.263540353431171,0.28452795908297895
6.017566474,-2.2532019255472706,-10.490731865035857,0.6004247119331898
6.022320745,-3.0309347435472205,-13.489852643888186,0.9556805949891092
6.027075068,-3.7430674173365275,-16.198975757510464,1.3502967100311982
6.031829339,-4.375611203554143,-18.56655198485968,1.7826333946970443
6.03658361,-4.917130690787286,-20.552949383913006,2.2491942570058296
6.041337933,-5.359035841033954,-22.131487629181255,2.7444756031890116
6.046092203,-5.695770674852391,-23.288923303266756,3.260895378929879
6.050846526,-5.9248917425727194,-24.025369549109342,3.7888119594433896
6.055600797,-6.047033584315095,-24.35366294106678,4.316638488090512
6.060355068,-6.065762930415346,-24.29821966205942,4.83105383299537
6.065109391,-5.9873283755295965,-23.893449663426736,5.317307459225354
6.069863662,-5.820317379184228,-23.181819302753244,5.759612886962672
6.074617933,-5.575237200747244,-22.211668435102453,6.141622427788693
6.079372255,-5.264040222217651,-21.034896337383095,6.446973673472886
6.084126526,-4.89961662567053,-19.704632263235695,6.659895102545471
6.088880849,-4.495278360233684,-18.273001492349145,6.7658540848559126
6.09363512,-4.0642577424695645,-16.78908733687584,6.752225904913881
6.098389443,-3.619242015491734,-15.297174668683784,6.608957819374647
6.103143714,-3.171961986411408,-13.835342134761275,6.32919825259856
6.107897985,-2.73284880669494,-12.43444936388151,5.9098585531342644
6.112652308,-2.310768459164635,-11.117543228674274,5.35207367233899
6.117406578,-1.912838965749038,-9.899684790259135,4.661528946838984
6.122160849,-1.5443310479542287,-8.788177130987192,3.848623059023777
6.126915172,-1.2086491600467968,-7.783155012447537,2.928442336524209
6.131669443,-0.9073865780941898,-6.878481122252823,1.9205288209043283
6.136423766,-0.6404456197793186,-6.062881261427502,0.8484337787664765
6.141178037,-0.4062121450062699,-5.321242543936939,-0.2609408509878226
6.145932308,-0.20177233361918834,-4.635994624232324,-1.3781986843249217
6.15068663,-0.023159459521400874,-3.9884940113393927,-2.472475952826437
6.155440901,0.13438097388781894,-3.3603354096008684,-3.512600098606747
6.160195224,0.2761179263188371,-2.7345214485413982,-4.468328878931466
6.164949495,0.407561622875246,-2.096432829223087,-5.311609059508034
6.169703766,0.5341968413015671,-1.434554452872051,-6.017787115890322
6.174458089,0.661227576879513,-0.7409289395694709,-6.566702431675385
6.17921236,0.7933371873334835,-0.011326249253427158,-6.943597538579954
6.183966683,0.9344681030070611,0.7548641853016025,-7.139790527157272
6.188720953,1.0876258186901941,1.5549954883328856,-7.153071045877696
6.193475224,1.2547128349362517,2.3837411935626514,-6.987800860515275
6.198229547,1.4363990592982046,3.2338383697474917,-6.654719445436177
6.202983818,1.6320355626217227,4.096936673156032,-6.170471741623443
6.207738089,1.8396183589098538,4.9644889257045,-5.556887810170628
6.212492412,2.0558080388650475,5.828617626374923,-4.840052915297523
6.217246683,2.276009667049613,6.682894446182123,-4.049212635541932
6.222001005,2.494515345511787,7.522976058534058,-3.215561962858792
6.226755276,2.7047092493423497,8.347049267409982,-2.3709706013537444
6.231509547,2.8993318293883608,9.156050743941657,-1.5466988836313613
6.23626387,3.070796443557697,9.953640963924771,-0.7721595035342005
6.241018141,3.2115481718984364,10.745927195068665,-0.07377896342464269
6.245772464,3.3144512270868645,11.540945648030046,0.5259914142199014
6.250526735,3.3731883814604764,12.347927342666562,1.009472216338946
6.255281005,3.3826533707568407,13.176385189092473,1.3643278268087689
6.260035328,3.339315500819516,14.035070728696365,1.5838932970735078
6.264789599,3.2415348945277365,14.930857521003137,1.6672497039815684
6.26954387,3.089807190379774,15.86761400012259,1.619055235797974
6.274298193,2.8869182349918137,16.845131579576503,1.4491517875992128
6.279052464,2.6379925115014404,17.858173797333095,1.1719770333965502
6.283806787,2.350423662319812,18.89570940027522,0.8058189632369025
6.288561058,2.033681241820845,19.940386560694165,0.3719535657805042
6.293315328,1.6989943691578413,20.968297019399092,-0.10629277560406555
6.298069651,1.3589198074485511,21.949068029878173,-0.6045156796179221
6.302823922,1.0268087896851243,22.846306796419228,-1.0982018027000402
6.307578245,0.7161933280462527,23.61840704475373,-1.5636595894217127
6.312332516,0.4401185080276054,24.219710954486818,-1.9788807706991796
6.317086787,0.2104521279503975,24.60200254146186,-2.324306230349892
6.32184111,0.03720675349994619,24.71629140426588,-2.583474976369334
6.32659538,-0.07208843162715457,24.514829287357905,-2.7435404518719935
6.331349703,-0.11292796006439937,23.953286919884366,-2.7956440746977878
6.336103974,-0.08424594030126695,22.993005788264995,-2.735141391606956
6.340858245,0.011325531872745853,21.60322954189393,-2.561681235318884
6.345612568,0.16738216045343252,19.76321317551949,-2.279142526821603
6.350366839,0.3738754888621331,17.46410547940427,-1.8954367880971337
6.355121162,0.6174504669072959,14.710501971971688,-1.422187101148415
6.359875433,0.8819876113465226,11.521572048734308,-0.8742963196477643
6.364629703,1.149331989369548,7.931675672757284,-0.2694189489141214
6.369384026,1.400178639725583,3.990401631129534,0.37264763537485657
6.374138297,1.6150724933053586,-0.23801907858809662,1.0306359691108986
6.378892568,1.775471155530509,-4.675945370956825,1.6825278139955946
6.383646891,1.8648117852358064,-9.234195167667183,2.306301846029922
6.388401162,1.8695193621752133,-13.814511530432657,2.8806909511909384
6.393155485,1.7798933421550183,-18.312553705426158,3.3859298168172307
6.397909755,1.5908133305027998,-22.621309654908366,3.804473011092145
6.402664026,1.302212043878685,-26.634798158633156,4.121663267834838
6.407418349,0.9192753932324398,-30.25190494516581,4.326329213217898
6.41217262,0.45234473480898824,-33.380180648666595,4.411291272639416
6.416926891,-0.08348538326960547,-35.93942057888832,4.373754008065121
6.421681214,-0.6690603571496945,-37.86484880493957,4.215562855630023
6.426435485,-1.28211518646891,-39.10974265489111,3.943303736326402
6.431189808,-1.8984270727961403,-39.64735822954614,3.568226254118819
6.435944078,-2.4931017067248873,-39.47205161718967,3.1059760730079113
6.440698401,-3.0419136033531506,-38.59953191689781,2.576129861470444
6.445452672,-3.522616778505183,-37.066228100411465,2.0015364162035394
6.450206943,-3.916144569402024,-34.927799086774,1.4074791990534694
6.454961266,-4.207626045258283,-32.2568619523506,0.8206872981406439
6.459715537,-4.38716018488983,-29.140053708664645,0.2682325445034492
6.464469808,-4.450306314497638,-25.67457464063572,-0.22364082608028685
6.46922413,-4.398268478232002,-21.96438373706635,-0.6307016857448485
6.473978401,-4.237770832109131,-18.116228350768225,-0.931877669525159
6.478732724,-3.980639467856317,-14.235691078504463,-1.1103063499125168
6.483486995,-3.6431222484216748,-10.423427907299716,-1.1542405903571111
6.488241266,-3.244991490325426,-6.771754344068924,-1.0577624241667558
6.492995589,-2.8084841209361735,-3.361712192314449,-0.8212674221568869
6.49774986,-2.35713998794025,-0.2607206643634797,-0.45169067939199975
6.50250413,-1.9146012811810955,2.479116527713655,0.03754403224950292
6.507258453,-1.5034347522049492,4.822009764378024,0.6268590334514784
6.512012724,-1.1440339724772244,6.748782339395121,1.2911365616628951
6.516767047,-0.8536517814545899,8.256495030541892,2.000594671517119
6.521521318,-0.6456039677837306,9.357449759777454,2.721896454954905
6.526275589,-0.5286747898844834,10.077649343487256,3.4194528983880654
6.531029912,-0.5067438710842704,10.4548090928247,4.0568701263919715
6.535784183,-0.5786429454442554,10.536029389500325,4.598484026811554
6.540538505,-0.7382404386309079,10.375246094041898,5.010919686582073
6.545292776,-0.9747423782039484,10.03057775737014,5.264609971889355
6.550047047,-1.2731899360704648,9.561685367540814,5.335207133829275
6.55480137,-1.6151271710427944,9.027252263046563,5.204823572041807
6.559555641,-1.9794073040772726,8.482679564923494,4.863042805242098
6.564309964,-2.343102092171058,7.97807685746127,4.307649163772932
6.569064235,-2.6824765107171817,7.5566098253884775,3.5450345538328327
6.573818505,-2.973989948356553,7.253247130889414,2.590252596814422
6.578572828,-3.195285401617701,7.093928972587553,1.466704200597792
6.583327099,-3.3261296555348556,7.095160426021327,0.2054537765740661
6.58808137,-3.3492700594388856,7.264014625159597,-1.1558086070163167
6.592835693,-3.2511771431317156,7.598514780736119,-2.5741274230278415
6.597589964,-3.022646833786742,8.088350478512723,-4.002916411046674
6.602344287,-2.659241267800014,8.715873046100901,-5.393804927561326
6.607098558,-2.161552962293354,9.45730725132863,-6.698619735022743
6.611852828,-1.5352832298111063,10.284112274870482,-7.871415326543618
6.616607151,-0.7911320126425286,11.164423723840258,-8.870458457330427
6.621361422,0.055497362218487716,12.064510251921675,-9.660069159845989
6.626115693,0.9849687463400084,12.950182892900628,-10.212222094218733
6.630870016,1.9740431523397262,13.788102237231556,-10.507819776509704
6.635624287,2.9966463232330085,14.546937761155988,-10.53756381875444
6.64037861,4.024746524683232,15.198344475213226,-10.302371369104218
6.64513288,5.029310395360652,15.717733934470969,-9.813309629500047
6.649887151,5.981300988771824,16.08482881384004,-9.091049175427353
6.654641474,6.8526798387814525,16.28400202301744,-8.164864460474329
6.659395745,7.61737418574508,16.304412139877122,-7.07123535295098
6.664150016,8.252171547767993,16.139956265873764,-5.852125120416964
6.668904339,8.737506704661,15.789068760934429,-4.553026636683299
6.67365861,9.058110899940067,15.254399218479598,-3.2208789535996374
6.678412933,9.203499516343227,14.542405086987607,-1.9019605369719061
6.683167203,9.168282258118172,13.662893347966554,-0.6398636569739732
6.687921474,8.952288379668724,12.628541816803875,0.5263527844422
6.692675797,8.560508060013106,11.454424551959997,1.5637465622432913
6.697430068,8.002859018627817,10.15755842380592,2.446741825987566
6.702184339,7.293794392608958,8.75648006054407,3.157994082214694
6.706938662,6.45177335967782,7.270855030374708,3.6888400082889063
6.711692933,5.498619760756755,5.7211149658582405,4.039323198737901
6.716447255,4.458796011445654,4.1281139361316095,4.217808193809469
6.721201526,3.358620058229812,2.512793067725314,4.240214900582258
6.725955797,2.22545234404874,0.8958423425373915,4.128922760766338
6.73071012,1.086878074605974,-0.7026493874325739,3.911407948566679
6.735464391,-0.030092104462432188,-2.2635610549440486,3.6186869639272
6.740218662,-1.0997822688525887,-3.769121928677004,3.2836459559556888
6.744972985,-2.0985537535732286,-5.203302553113935,2.9393369551750212
6.749727255,-3.005433694336108,-6.55219937471386,2.617320140665202
6.754481578,-3.802655100641172,-7.8043914159494125,2.3461257870459984
6.759235849,-4.476095848710508,-8.95124160825995,2.1499012779460975
6.76399012,-5.015605987852537,-9.987112098466438,2.0472982018944075
6.768744443,-5.415215000976379,-10.909463442058378,2.0506425306231546
6.773498714,-5.673213123632632,-11.718813040402297,2.1654174715089423
6.778253037,-5.792103498854275,-12.418538251455264,2.3900741046601186
6.783007308,-5.778424975266615,-13.014522919564005,2.7161700588907043
6.787761578,-5.6424489837196905,-13.514660667367771,3.128822304036142
6.792515901,-5.397758255052823,-13.928242191498862,3.607447646314458
6.797270172,-5.060719949282498,-14.265265245653211,4.12675422996573
6.802024443,-4.649870554189259,-14.535713585761636,4.657939261491383
6.806778766,-4.185234128869059,-14.748854085563067,5.170042046883246
6.811533037,-3.6875987236439642,-14.912599464288139,5.63139702586553
6.81628736,-3.1777778940752444,-15.032978263422683,6.011128561408723
6.82104163,-2.6758850296570023,-15.113744948606293,6.280627623462567
6.825795901,-2.200647669328611,-15.156152468683826,6.414950227822597
6.830550224,-1.76878708173281,-15.158898322152673,6.39407880957622
6.835304495,-1.394485253882696,-15.118244002704651,6.20399096015455
6.840058766,-1.0889572566041066,-15.028297270258642,5.837485406398557
6.844813089,-0.8601420115699336,-14.8814375226002,5.29472288441288
6.84956736,-0.7125190985401503,-14.668857017459937,4.5834496163074645
6.854321683,-0.6470537617999028,-14.381185121797062,3.718883234132303
6.859075953,-0.6612670371048605,-14.009159341065208,2.7232548906799567
6.863830224,-0.7494232134808637,-13.544305628366796,1.625016524501088
6.868584547,-0.9028228945493726,-12.979591203951268,0.4577382611645523
6.873338818,-1.1101868965150294,-12.310015484470764,-0.741262930621872
6.878093141,-1.3581142197166822,-11.533108337067494,-1.932506697984102
6.882847412,-1.631596379976054,-10.649309406195615,-3.076074156877612
6.887601683,-1.9145703717795595,-9.66220751953313,-4.133391616949971
6.892355953,-2.1904931918963606,-8.578625125959146,-5.068982163221363
6.897110276,-2.4429218468362794,-7.408539402476229,-5.852090158013354
6.901864547,-2.6560838365125115,-6.16483910103998,-6.458085981042387
6.90661887,-2.8154241099622577,-4.862924247214062,-6.869568521010227
6.911373141,-2.908115370335808,-3.5201640677242674,-7.077102023270866
6.916127412,-2.9235193639165846,-2.1552363994403523,-7.079550519053369
6.920881735,-2.8535874988522507,-0.7873786373952842,-6.884003026736873
6.925636005,-2.6931899335953986,0.5644144935129509,-6.505310655403412
6.930390328,-2.4403632274805065,1.882207633239308,-5.965278668647964
6.935144599,-2.0964677199180985,3.149915637204224,-5.291571155034359
6.93989887,-1.666246939276367,4.354028459706928,-4.516393956783404
6.944653141,-1.1577825856542951,5.484231898906899,-3.67502452779359
6.949407464,-0.5823401805673215,6.533889728984891,-2.804257033150648
6.954161735,0.04589740578624014,7.5003581242132356,-1.9408285985188551
6.958916058,0.7102084548617862,8.385110191404323,-1.1198891802245778
6.963670328,1.3918191399996194,9.193656614850418,-0.3735736655546316
6.968424599,2.0704903415335636,9.935257513873752,0.27026941655385
6.973178922,2.7251915517119896,10.622430152804636,0.7891433486327748
6.977933193,3.334843910078954,11.270266618536882,1.1667206244069848
6.982687464,3.879109563938576,11.895584525046498,1.3933797218391908
6.987441787,4.339200096529748,12.515941847758933,1.4664410885914865
6.992196058,4.698672979888917,13.148553854634356,1.390096706035341
6.99695038,4.944182197964768,13.809155569874843,1.1750430516617345
7.001704651,5.06614770259566,14.510857123843554,0.8378422790302414
7.006458922,5.059308578015169,15.263041620949862,0.40004960485575775
7.011213245,4.923126982617854,16.070355770717107,-0.11284496614700673
7.015967516,4.6620141943930005,16.931842487389574,-0.6726060718319851
7.020721787,4.285356266903205,17.840261982135775,-1.2495164750719503
7.02547611,3.807324633196602,18.781643539609217,-1.8136580649015883
7.03023038,3.2464661790122933,19.735104167725417,-2.3361567728317034
7.034984651,2.625077531612978,20.672962639442424,-2.790342471051429
7.039738974,1.9683791854630206,21.56116816168675,-3.1527809634895756
7.044493245,1.3035161096442842,22.360052129048672,-3.4041423571867853
7.049247568,0.6584220811185472,23.025399349475823,-3.5298782052910482
7.054001839,0.06059457072768565,23.50982205861835,-3.520688638065141
7.05875611,-0.46416503137985143,23.764406347367864,-3.3727699666462327
7.063510433,-0.8929853819339456,23.740586761590798,-3.0878425432183905
7.068264703,-1.207070151932967,23.392191305002644,-2.6729674816811406
7.073018974,-1.3926916250499584,22.677586469348466,-2.1401687107975693
7.077773297,-1.4419752210611254,21.561840892793544,-1.5058834245202914
7.082527568,-1.3534256728058776,20.018817532750667,-0.7902691525569117
7.087281891,-1.13215736327828,18.03309859046148,-0.016399327695330104
7.092036162,-0.7898057654140038,15.601645583288374,0.7906186693665977
7.096790433,-0.34411318031913707,12.735099578514637,1.6045684522507027
7.101544755,0.1818008721717518,9.458634154304631,2.399058915467651
7.106299026,0.7604571177344175,5.812286367689245,3.148436344496894
7.111053297,1.3612781276963628,1.8507088225013535,3.8286458972509148
7.11580762,1.9520358621908611,-2.3576915440327757,4.418017737248682
7.120561891,2.500415017655634,-6.732235822715818,4.897957236987765
7.125316162,2.9756133297035365,-11.18205505472464,5.25352297751284
7.130070485,3.3498951239077175,-15.608719074218776,5.473880536250823
7.134824755,3.600013887737511,-19.90932856546672,5.552624114298544
7.139579078,3.7084237829910704,-23.979957349812594,5.487961801439414
7.144333349,3.664208980890647,-27.719306370835657,5.2827636700265055
7.14908762,3.4636734338462953,-31.032411022417744,4.944474928888851
7.153841943,3.1105518768634712,-33.83423126812055,4.484899007753525
7.158596214,2.615824757955041,-36.05295109532753,3.919857443006881
7.163350485,1.9971441910879233,-37.63282144158396,3.2687344502553
7.168104808,1.2779030931043502,-38.53639924212144,2.5539141263359193
7.172859078,0.4860031195037925,-38.74606396649185,1.8001181303841398
7.177613349,-0.3476035621940672,-38.264730033104456,1.033652712908625
7.182367672,-1.1905102156969023,-37.11571605474547,0.28157700339232866
7.187121943,-2.010494425535575,-35.34177687498511,-0.4291904046890885
7.191876214,-2.7771059381290586,-33.003348697608416,-1.0728030427905704
7.196630537,-3.4631165568797964,-30.176098292707103,-1.625426167170789
7.201384808,-4.045757403368151,-26.9479015313684,-2.066148803169175
7.206139078,-4.507684785933087,-23.415402154971375,-2.3778296968531407
7.210893401,-4.837634139165842,-19.680317425653946,-2.5478387964443323
7.215647672,-5.030740674929781,-15.845662865102065,-2.568659117918771
7.220401995,-5.0885243539661,-12.012064269760469,-2.438319396294617
7.225156266,-5.018554574117831,-8.274312755404154,-2.160634750808384
7.229910537,-4.833825764891616,-4.718299203515511,-1.7452398775307931
7.23466486,-4.551888211852206,-1.418439781356274,-1.2074066387561768
7.23941913,-4.193788416057053,1.564324123404152,-0.5676452903352434
7.244173401,-3.782879848234207,4.183898494870509,0.14890396040545772
7.248927724,-3.343568031958011,6.409759387939571,0.9132748170809594
7.253681995,-2.900053621041136,8.227032863383402,1.693652342823248
7.258436266,-2.4751338102286473,9.635966494526052,2.456494738252564
7.263190589,-2.0891164425610467,10.65085061011614,3.1677632306729233
7.26794486,-1.7588930523295254,11.298467093993562,3.7942177341170185
7.27269913,-1.4972073699067345,11.616158496674483,4.304731060923123
7.277453453,-1.3121450983367362,11.649620118589278,4.671571193276436
7.282207724,-1.2068596266588192,11.450522516036534,4.871599728907588
7.286962047,-1.1795373046753277,11.0740716922872,4.887335265582324
7.291716318,-1.2235954281235264,10.576609411555438,4.707833267456906
7.296470589,-1.3280965403546534,10.013347145482586,4.329338881961488
7.301224912,-1.4783543235534895,9.436314809840164,3.7556761928764244
7.305979183,-1.656699426684781,8.892590453314527,2.9983463506329273
7.310733453,-1.843368194301473,8.422860265226232,2.076317664395253
7.315487776,-2.017473510345041,8.060340553414369,1.0155027443780495
7.320242047,-2.1580149055370543,7.830075579933916,-0.1520692450001561
7.324996318,-2.244884703067909,7.748608149073631,-1.3893636713370137
7.329750641,-2.2598282490795354,7.824004338731423,-2.6556998054498466
7.334504912,-2.187319090788579,8.056200339252452,-3.9083104507200246
7.339259183,-2.015314175623215,8.437628447828601,-5.104041962451214
7.344013505,-1.735859554483586,8.954071137662785,-6.201124720219388
7.348767776,-1.3455234420768543,9.585686907181291,-7.1609364542095255
7.353522047,-0.8456405434619924,10.308149317991079,-7.949676137299974
7.35827637,-0.24235902147558086,11.093841159017403,-8.539864950674021
7.363030641,0.45351087814763585,11.913048871440767,-8.9115937287865
7.367784912,1.2268398690194398,12.735108015134353,-9.053444130864065
7.372539235,2.058700115635555,13.529458323465427,-8.963024327397186
7.377293505,2.927041729212978,14.266576282563358,-8.64707918030533
7.382047776,3.8074972347084084,14.918763531045395,-8.121158463758345
7.386802099,4.674280411016638,15.460780003372609,-7.408852539962077
7.39155637,5.501141717200074,15.870320986290643,-6.540630913723377
7.396310641,6.262339985084563,16.128346554953346,-5.552343300199519
7.401064964,6.933589397668359,16.21927968358947,-4.483463426660303
7.405819235,7.49294213755545,16.131095199403028,-3.3751710809145425
7.410573505,7.921570547552242,15.855325248644732,-2.268376721376082
7.415327828,8.204418107378025,15.387007786059693,-1.2017948384045485
7.420082099,8.330695674593695,14.724602721371742,-0.21016751264886704
7.42483637,8.294207716085324,13.86989599259899,0.6772709189445715
7.429590693,8.093502002742289,12.827905520172605,1.438012415640236
7.434344964,7.731844800458453,11.606795481569806,2.057120099879419
7.439099287,7.217031393723303,10.217797478275545,2.5276636767125233
7.443853558,6.561048353508016,8.675129771935104,2.850732007061475
7.448607828,5.779608961761772,6.99589959380472,3.035031855033258
7.453362099,4.891586451827785,5.19996922545675,3.096103149079921
7.458116422,3.9183712425730377,3.3097646131948864,3.0552002470270425
7.462870693,2.8831783481839386,1.3500060236922506,2.9379047576694695
7.467624964,1.8103299711750782,-0.6526562510843648,2.77254772236578
7.472379287,0.7245363059751168,-2.6701120345425555,2.5885268922244333
7.477133558,-0.349804860276088,-4.6733698132766746,2.414608168003584
7.48188788,-1.3892717787786462,-6.633236212256705,2.2772989500769634
7.486642151,-2.372030208388461,-8.521077848371318,2.199375381982562
7.491396422,-3.278379740003342,-10.30963576747044,2.1986357498870794
7.496150745,-4.091224193586168,-11.973852364537654,2.286939347699093
7.500905016,-4.796457298638109,-13.491662806414517,2.4695747648668704
7.505659287,-5.383256649744287,-14.84469920185923,2.7449845657594616
7.51041361,-5.844280504999106,-16.018857365292458,3.104855339835137
7.51516788,-6.175763463701814,-17.004683228902362,3.534563740256729
7.519922151,-6.377508637031375,-17.797547881707924,4.0139511980799325
7.524676474,-6.4527758913177555,-18.397595290900707,4.518383493963866
7.529430745,-6.408068329720446,-18.80946324655011,5.020037354180575
7.534185016,-6.252822453365343,-19.041794298617575,5.489345738811899
7.538939339,-5.999011263027336,-19.106567963262027,5.896527326421356
7.54369361,-5.660673590266194,-19.01829713345284,6.213124135264452
7.54844788,-5.253386697833112,-18.79313972975123,6.4134737548175105
7.553202203,-4.793702115861915,-18.447980876547636,6.476048330086359
7.557956474,-4.298566323452692,-17.999541314567864,6.384600364005817
7.562710745,-3.7847480270688223,-17.46356460140428,6.129065020744753
7.567465068,-3.268292518142959,-16.85412927756888,5.706179580947076
7.572219339,-2.764021251479986,-16.18312306045321,5.1197927380549855
7.57697361,-2.2850918096669064,-15.459904878805226,4.380849250842189
7.581727933,-1.8426301930857107,-14.691167938180616,3.50704878634991
7.586482203,-1.4454441733394994,-13.881003889807287,2.5221912932860198
7.591236474,-1.0998234401709366,-13.031155439739523,1.4552346163509797
7.595990797,-0.809429559165956,-12.14143314442412,0.33910294282578846
7.600745068,-0.5752764020048794,-11.210262286004061,-0.7907033417258544
7.605499339,-0.3957997482596686,-10.235318050749429,-1.89763519181405
7.610253662,-0.2670131745830468,-9.21420209226271,-2.94568991303396
7.615007933,-0.1827460440897185,-8.14511121901065,-3.9009974642522103
7.619762203,-0.13495818457734426,-7.027449589863719,-4.73331869226158
7.624516526,-0.11412442052568056,-5.862339507617693,-5.417376836216079
7.629270797,-0.10968020635104335,-4.652992603418327,-5.933949328890686
7.634025068,-0.11051698836943168,-3.40491263419512,-6.270658844802828
7.638779391,-0.10551261466046437,-2.1259127048743505,-6.422421165263537
7.643533662,-0.08407846039993647,-0.8259425966930148,-6.391531340141506
7.648287933,-0.0367015691204988,0.4832650212275677,-6.187395354215814
7.653042255,0.04454229647999405,1.7887083832146544,-5.8259377422947365
7.657796526,0.16552978894205006,3.0767584776463885,-5.328733027642438
7.662550797,0.32970982098606866,4.333888191927963,-4.721919271372942
7.667305068,0.5378246093112093,5.547441521085263,-4.034956152332935
7.672059391,0.787751063777111,6.706391779312466,-3.2992896354613284
7.676813662,1.074477150912769,7.802036809013507,-2.5469823938079945
7.681567985,1.3902222533895754,8.82858130758485,-1.8093653231712237
7.686322255,1.7247039721860256,9.78356161989668,-1.115761683483214
7.691076526,2.0655465362217162,10.66807645507408,-0.49233179276785854
7.695830797,2.398818417503285,11.486797478472072,0.03891776519936894
7.70058512,2.7096793864900217,12.24774588612237,0.4609217400860349
7.705339391,2.983110508689455,12.961834088210274,0.7621094242859842
7.710093662,3.2046947992448698,13.642184756571341,0.9367023622842283
7.714847985,3.36141167884113,14.30325209442792,0.9847478896033621
7.719602255,3.442405276068914,14.959781753879437,0.9118937537699434
7.724356526,3.439685292892865,15.625655940069537,0.7289231381109628
7.729110849,3.3487199103727456,16.312678543076007,0.45108202553189103
7.73386512,3.1688833429968324,17.029361312577727,0.09724048807602895
7.738619391,2.903726250786137,17.779775850053657,-0.3110647479156613
7.743373714,2.561045067621944,18.56253727877831,-0.7506571511886625
7.748127985,2.152735878546144,19.369983638769856,-1.1977682729508725
7.752882255,1.6944291268520442,20.187610187702916,-1.6290610665493028
7.757636578,1.20491255410964,20.993809836831286,-2.0225870248849724
7.762390849,0.7053608880845456,21.759960042186933,-2.3586405868898157
7.76714512,0.2184014796960387,22.450882904085717,-2.6204803978026034
7.771899443,-0.23294506592469136,23.025689450759103,-2.7948940847503794
7.776653714,-0.6264016628347476,23.439001669585732,-2.872590981244323
7.781407985,-0.941594506242892,23.64252748543782,-2.8484154190949567
7.786162255,-1.161176789309048,23.586945338902463,-2.7213815019905203
7.790916578,-1.271855401693664,23.224037098722466,-2.494538308395571
7.795670849,-1.265260875021217,22.50899155660725,-2.1746817872052215
7.80042512,-1.13860564604668,21.40278647631364,-1.7719357415047223
7.805179443,-0.8950841727224957,19.8745458787993,-1.2992288605812006
7.809933714,-0.5439802565217737,17.9037617396859,-0.771697513208465
7.814687985,-0.10046145360476173,15.482266341145408,-0.20604486975692335
7.819442308,0.4149431466849855,12.615843840612614,0.38011404453309144
7.824196578,0.977168166118449,9.325377668431429,0.9688943192628897
7.828950849,1.5577092775641617,5.647444335646898,1.542746921594488
7.833705172,2.1259453426499304,1.6342839793910193,2.0850097161907035
7.838459443,2.6506235218753007,-2.6468970065855135,2.5803903838641906
7.843213714,3.101433697814122,-7.115306486948223,3.015373149870663
7.847968037,3.4505901875794986,-11.678612868538718,3.3785462278372633
7.852722308,3.674334487241156,-16.235605488273375,3.660851288968502
7.857476578,3.7542731906749047,-20.67938321621038,3.855759819574294
7.862230849,3.6784705828577198,-24.90095317495164,3.9593837008774924
7.866985172,3.4422258666876435,-28.793093402721993,3.970528474923122
7.871739443,3.0484804616414993,-32.25431153346272,3.890697262827914
7.876493714,2.507820887702737,-35.19271816380196,3.7240509959737875
7.881248037,1.838066509908997,-37.52963011843656,3.4773267068657114
7.886002308,1.0634573878381735,-39.20272620816833,3.1597109231250484
7.890756578,0.2134836340339321,-40.16859632585123,2.782661052293249
7.895510901,-0.6785783157540313,-40.404552961001976,2.359665367550932
7.900265172,-1.5773376107706565,-39.9096107275237,1.905932560515104
7.905019443,-2.447071044251638,-38.70458194938458,1.4380048351128576
7.909773766,-3.253511605121589,-36.83128198223745,0.9732936701782539
7.914528037,-3.965541826139942,-34.350883793709414,0.5295438726430579
7.919282308,-4.556699005538402,-31.34150435657744,0.1242383929686778
7.92403663,-5.006413655229731,-27.895142773499085,-0.22603741875396835
7.928790901,-5.300920799564792,-24.114119415721547,-0.5062486470006108
7.933545172,-5.433804467613276,-20.107185238606103,-0.7035542598398025
7.938299443,-5.406157411861614,-15.985480296429175,-0.8079133985772307
7.943053766,-5.226359449603901,-11.85852057164572,-0.8126267538123264
7.947808037,-4.909497775180399,-7.830383373568771,-0.7147861920609679
7.952562308,-4.4764702203223745,-3.9962449370821904,-0.5156074257042437
7.95731663,-3.9528269882466964,-0.4394009026791198,-0.2206229656377551
7.962070901,-3.367417278971777,2.77112731494059,0.16028387070423816
7.966825172,-2.7509141059286204,5.582327978992885,0.6130182663245002
7.971579495,-2.1342933644092015,7.958236091211037,1.1195946449561325
7.976333766,-1.5473419664101074,9.880263697532474,1.6586394546209737
7.981088037,-1.0172649270254879,11.34684526999858,2.206068169728617
7.985842308,-0.5674531806895886,12.37244733206472,2.735919795919266
7.99059663,-0.2164632734064213,12.986015011289238,3.2213233572752595
7.995350901,0.022752334353702757,13.228947185544563,3.6355626746946506
8.000105172,0.14333902823489794,13.152705863860493,3.9531987066162895
8.004859495,0.14474618156118943,12.816174176597052,4.151203246225308
8.009613766,0.03264718074233172,12.28288083716018,4.210054204833389
8.014368037,-0.1814130139713602,11.618207389646026,4.1147413359707325
8.019122308,-0.48061844767070605,10.886688379516105,3.8556322598403407
8.02387663,-0.8436976611435583,10.149504348393783,3.4291521213291687
8.028630901,-1.2459138881143952,9.462253956738454,2.8382361292720018
8.033385172,-1.660184758591586,8.873075365142371,2.0925224340929436
8.038139495,-2.0582832691277053,8.421169091633535,1.2082630448962464
8.042893766,-2.412070637739153,8.135755750693948,0.20794239962940556
8.047648037,-2.6947123141696365,8.035483176936843,-0.8803936745147549
8.05240236,-2.8818307217348864,8.128279185498121,-2.024082072159638
8.05715663,-2.9525520816905404,8.411629282512388,-3.187029169714994
8.061910901,-2.8904097057370612,8.87324357308038,-4.331096483826482
8.066665172,-2.6840722100999703,9.492064362825971,-5.417629371859649
8.071419495,-2.3278719647756234,10.239555824293685,-6.409062703771488
8.076173766,-1.8221165030479767,11.081209789619578,-7.270529759249026
8.080928037,-1.1731733601718848,11.978197329287873,-7.971396080396538
8.08568236,-0.3933267033729641,12.889094317495314,-8.486639281459519
8.09043663,0.499587994417342,13.771610654569757,-8.79799962237724
8.095190901,1.4827572534261793,14.584257106332231,-8.894835126853765
8.099945172,2.5291495069201275,15.287890537734661,-8.774629197740994
8.104699495,3.6084335458275736,15.84708717196516,-8.44311719004961
8.109453766,4.688021542574545,16.23130380640349,-7.914019786939696
8.114208037,5.734197999441474,16.415798103917197,-7.208393713581051
8.11896236,6.713292617565671,16.382290661622214,-6.35363275269855
8.12371663,7.592853307575019,16.119363065822125,-5.382172523179274
8.128470901,8.34277557098619,15.62259705191431,-4.329969364997035
8.133225172,8.936346448384725,14.894469620098647,-3.2348356002307024
8.137979495,9.35116521896906,13.944026920463669,-2.1347197204786386
8.142733766,9.569908883439815,12.786365440556152,-1.0660206620220327
8.147488037,9.58091773480432,11.441952311059286,-0.06202072777088941
8.15224236,9.378584414357277,9.93581757301855,0.8484873631187004
8.15699663,8.963538147001485,8.29665052830743,1.642316496929524
8.161750901,8.342623814983396,6.5558304821416895,2.302696841721906
8.166505172,7.52868272600328,4.746419920780592,2.8197529754175106
8.171259495,6.540148052990988,2.9021459652088515,3.1906344022872544
8.176013766,5.400472832039253,1.0563941639979242,3.419305475860998
8.180768037,4.137412142593311,-0.7587624531776985,3.5160177567273703
8.18552236,2.7821838319715355,-2.5134765730086976,3.496502855233091
8.19027663,1.3685341142555305,-4.180959344243442,3.3809361052428963
8.195030901,-0.06826421484639192,-5.738209298651849,3.1927304554453975
8.199785172,-1.4924522027754095,-7.166613268755523,2.9572254520006913
8.204539495,-2.868834398892594,-8.452394683842105,2.7003381046586674
8.209293766,-4.16380802073186,-9.586885366661384,2.4472410224679786
8.214048037,-5.3463419668122185,-10.566600018886273,2.2211288346693308
8.21880236,-6.38887656450181,-11.393099026411713,2.0421269085459475
8.22355663,-7.268116139571841,-12.072635290669593,1.9263870790118862
8.228310901,-7.965688549245541,-12.615593640650015,1.8854040308349194
8.233065172,-8.468648920572415,-13.035745412802518,1.925573878125321
8.237819495,-8.769809103274588,-13.34935425085205,2.0480042660117266
8.242573766,-8.867879799450055,-13.57418041331477,2.2485739099589304
8.247328037,-8.767418816114782,-13.728438433529977,2.51822968630554
8.252082308,-8.478586056030087,-13.829765926839316,2.843501520041058
8.25683663,-8.01671330602785,-13.894259579237676,3.2072090394099404
8.261590901,-7.40170425123238,-13.935628550048138,3.589328560691095
8.266345172,-6.657287127209559,-13.964506750269951,3.9679838931341216
8.271099495,-5.810148637332629,-13.987954824619425,4.320519676414265
8.275853766,-4.888982746336304,-14.009171122192361,4.624611859995389
8.280608037,-3.9234912954419956,-14.027419266629554,4.8593670393830894
8.285362308,-2.9433748307620435,-14.038168776814166,5.0063611709201075
8.29011663,-1.9773515691796526,-14.033435066200656,5.050569074499214
8.294870901,-1.0522401779504,-14.002296433917424,4.9811393617261865
8.299625172,-0.19213824525159356,-13.931558566833813,4.7919751270205815
8.304379495,0.5822767331086142,-13.806531699872759,4.482088881352478
8.309133766,1.2543029781513768,-13.611881971704989,4.055710553123934
8.313888037,1.811612270715306,-13.332516650740272,3.522139460049889
8.318642308,2.2464822742078745,-12.95446270291334,2.89534432698947
8.32339663,2.555862101336592,-12.465699454416116,2.1933289753807914
8.328150901,2.741275923973865,-11.856908636842153,1.4372945457673718
8.332905172,2.808574679809456,-11.122108659671639,0.6506413623810378
8.337659443,2.7675501535420044,-10.259144386794969,-0.14213592680105602
8.342413766,2.6314288067221936,-9.270008977536467,-0.9165983703050088
8.347168037,2.4162647982547862,-8.160980557390129,-1.6494919633922631
8.351922308,2.1402529328456024,-6.942563663665389,-2.3197903416599295
8.35667663,1.822983128659101,-5.629233499238183,-2.9095905606931693
8.361430901,1.484658738706942,-4.238989778867787,-3.4048126856790786
8.366185172,1.1453019332218566,-2.7927359388254085,-3.795670138586203
8.370939443,0.8239703885162979,-1.3135081355741831,-4.076897273731862
8.375693766,0.5380105088683551,0.17441381277854429,-4.247740435317949
8.380448037,0.30237294396750947,1.646475078797842,-4.311735529832979
8.385202308,0.1290158894316718,3.0788510220889154,-4.276306681376618
8.389956578,0.026420353525789336,4.449443147651135,-4.15222624923038
8.394710901,-0.0007608411393145786,5.738819203547003,-3.9529771774313347
8.399465172,0.0480978971244676,6.9310518863150525,-3.6940557536056104
8.404219443,0.16956133866161696,8.014413727798887,-3.3922478486313943
8.408973714,0.3562729069651681,8.981890931152146,-3.0649058737378296
8.413728037,0.5972678548092211,9.831486162008694,-2.729248148262518
8.418482308,0.8784530032753122,10.566289326304945,-2.4016980590945654
8.423236578,1.1832378058093649,11.194305701356102,-2.0972778384145228
8.427990849,1.493293679792618,11.728041805960931,-1.8290708079403764
8.432745172,1.7894116013103418,12.18386043415089,-1.6077656747120324
8.437499443,2.052422338971301,12.581126740073278,-1.441295857109137
8.442253714,2.2641396702083356,12.941176698404611,-1.3345851658141084
8.447008037,2.4082845850459975,13.286147390104373,-1.289408308381617
8.451762308,2.471347874456688,13.637715215615207,-1.3043708699722003
8.456516578,2.4433496485408006,14.015793212585596,-1.3750090503376968
8.461270849,2.3184572526792864,14.437242054599428,-1.4940049223714453
8.46602512,2.095427734741108,14.914650922751823,-1.651508676288282
8.470779443,1.7778474055910112,15.455244169017964,-1.8355554878452232
8.475533714,1.3741490318167084,16.059967457512805,-2.0325614548057382
8.480287985,0.8973966562753735,16.72280285911819,-2.2278805623937314
8.485042255,0.36483870054824585,17.430356222666713,-2.4064029037396892
8.489796578,-0.2027585738773876,18.16175212720244,-2.5531733705832576
8.494550849,-0.7819735979021872,18.88886194336066,-2.654009622570553
8.49930512,-1.347753358990874,19.576879150919083,-2.6960981826569497
8.504059443,-1.8745541632376232,20.185243286335663,-2.6685479221836137
8.508813714,-2.337546934321878,20.668900010377172,-2.5628810721780306
8.513567985,-2.713829133356998,20.979870157301274,-2.3734433860667643
8.518322255,-2.983582662502091,21.069085715182798,-2.097717293128385
8.523076578,-3.1311175868014915,20.88843604745262,-1.7365248212499917
8.527830849,-3.145745340813381,20.392953937591752,-1.2941106591197968
8.53258512,-3.0224321892766706,19.54305893638429,-0.7780998778624628
8.537339391,-2.7621937443150717,18.306765786313065,-0.19932940814450442
8.542093662,-2.3722037700980882,16.661759179582464,0.4284428543256569
8.546847985,-1.865604653475604,14.597233517658086,1.0889427833234648
8.551602255,-1.2610220201937998,12.115398305445414,1.763885850436901
8.556356526,-0.5818012349642048,9.232556771021992,2.433567755160398
8.561110797,0.14500182827835525,5.979677452710846,3.077520771636314
8.56586512,0.8898300262290263,2.402395763006662,3.6752146682883997
8.570619391,1.6219770892415428,-1.4395954573546972,4.206779671919874
8.575373662,2.311016686097894,-5.473781340444529,4.653728170226702
8.580127985,2.928236574928793,-9.616672220704297,4.999651616879893
8.584882255,3.448003607951522,-13.77621775228265,5.230869383888109
8.589636526,3.8489867548002406,-17.854711949616142,5.3370070975684785
8.594390797,4.115170705511297,-21.75208368824675,5.311483337195043
8.59914512,4.236602066709242,-25.36944110239632,5.151885526266392
8.603899391,4.209823554439151,-28.612717517693802,4.860218434039293
8.608653662,4.037968548402467,-31.396252870749894,4.443011848951455
8.613407933,3.730508191533823,-33.64613960083732,3.911277429996807
8.618162255,3.3026647471449206,-35.30316702267376,3.2803081874388997
8.622916526,2.774526531037927,-36.32521382173723,2.5693175118671605
8.627670797,2.1699193797988694,-36.68896411195009,1.8009187088560912
8.632425068,1.515105194158891,-36.39085682160491,1.0004513631147807
8.637179391,0.8373879750544582,-35.44721852493203,0.19516793990080564
8.641933662,0.1637111968962615,-33.89357334831279,-0.5866974639786002
8.646687933,-0.4806725041189071,-31.78316730741018,-1.316947312936716
8.651442203,-1.073386698609493,-29.18478540693226,-1.9684867100771166
8.656196526,-1.5959116280275683,-26.179975180891873,-2.5163923841299667
8.660950797,-2.0343154430244206,-22.859817640783533,-2.9389369655050817
8.665705068,-2.3797090890040558,-19.321404304753443,-3.2185218708317627
8.670459339,-2.628415087215321,-15.66418667834196,-3.342476164228211
8.67521361,-2.7818568474890504,-11.986362758679986,-3.303684978656533
8.679967933,-2.8461896725748566,-8.381454940954573,-3.1010185434541175
8.684722203,-2.8317066874805357,-4.9352165252464575,-2.7395409742403083
8.689476474,-2.7520622072244025,-1.7229814134895438,-2.230486434524816
8.694230745,-2.6233613963885247,1.1924548176275516,-1.5909989084844636
8.698985068,-2.463168482759757,3.7623628543653567,-0.8436404933406167
8.703739339,-2.289486396113348,5.952986181725431,-0.01568167404984492
8.70849361,-2.119758741134516,7.745824247607915,0.8618047065221704
8.71324788,-1.9699407949036314,9.137316774518485,1.7550163582868403
8.718002151,-1.8536801376028316,10.137977285025778,2.6286250193874676
8.722756474,-1.781640042506784,10.771043737738747,3.4470684010049206
8.727510745,-1.7609903725869565,11.070729724202776,4.175884113915798
8.732265016,-1.795081960161742,11.080170607915255,4.7830363025588225
8.737019287,-1.8833117388050407,10.849165164225358,5.2401846750286944
8.74177361,-2.021177621055464,10.431814784922732,5.523846394029349
8.74652788,-2.2005145316961245,9.884159421171146,5.616403875133922
8.751282151,-2.4098962765885434,9.261902602006588,5.506915855819006
8.756036422,-2.6351821440702037,8.618307670962912,5.191695044424379
8.760790745,-2.860182355682462,8.00233452320878,4.674623104022424
8.765545016,-3.0674127513121503,7.45707136235367,3.9671825193308567
8.770299287,-3.2389064589784087,7.0185001228549995,3.088194836493814
8.775053558,-3.3570488066087267,6.714617999488452,2.0632655952071888
8.779807828,-3.405401412691558,6.564921711548961,0.9239476696390467
8.784562151,-3.3694822534992594,6.580246340799063,-0.2933536733215979
8.789316422,-3.237470527552384,6.762937348247888,-1.548699316401073
8.794070693,-3.0008082667028844,7.10732310989011,-2.8001130343538696
8.798824964,-2.654674775450862,7.600446306812924,-4.005201411146551
8.803579287,-2.1983149666040567,8.223005926556462,-5.1228338059736815
8.808333558,-1.635208314395602,8.950457527744021,-6.114813087455261
8.813087828,-0.9730712541789068,9.754217732332979,-6.947464056469585
8.817842099,-0.22369220028878525,10.602919500800665,-7.593065435335679
8.82259637,0.5973952799273685,11.463667424774947,-8.031053449263602
8.827350693,1.4713893803917106,12.303246825257492,-8.248930924437817
8.832104964,2.376829363559177,13.089246635438474,-8.242826140975955
8.836859235,3.2903140447164905,13.791063573058626,-8.017660829202782
8.841613505,4.18730137333317,14.38076355573487,-7.586906321952911
8.846367828,5.042957162766111,14.8337851726583,-6.971929659127852
8.851122099,5.833018494042301,15.12947876423149,-6.200955542340457
8.85587637,6.534636401508555,15.251482795456845,-5.307693611778336
8.860630641,7.127163290773539,15.18794632796705,-4.32970182753257
8.865384912,7.592853189442181,14.931612143941141,-3.306574016950383
8.870139235,7.917447332048547,14.479779146572,-2.278051179127594
8.874893505,8.09062355439726,13.834164817310254,-1.2821606475171177
8.879647776,8.106295167370709,13.000688624034632,-0.35348428759436756
8.884402047,7.962752832404562,11.989195411764406,0.47835291820880876
8.88915637,7.662650769698248,10.813134295796887,1.1898980347062091
8.893910641,7.212845739817433,9.489203990829134,1.7647328049520945
8.898664912,6.624103184703096,8.036970549212313,2.1939495141526697
8.903419183,5.910689435318427,6.4784588299424595,2.47622881285268
8.908173453,5.08987187281082,4.837715266307528,2.617530655701533
8.912927776,4.181350358652423,3.140337124665251,2.630430136044773
8.917682047,3.2066432374022,1.4129628082564616,2.533147772137002
8.922436318,2.1884499999818505,-0.3172809423233176,2.348337940184609
8.927190589,1.1500106051511247,-2.0233758670511057,2.1017090448346982
8.93194486,0.11447885806609522,-3.6790489847335426,1.8205541425973162
8.936699183,-0.8956755146039683,-5.2594390589262305,1.5322707697765705
8.941453453,-1.859224083643428,-6.741775331593318,1.2629439757085823
8.946207724,-2.756686519517593,-8.106043811869052,1.0360581350944376
8.950961995,-3.570779126905599,-9.335609632907017,0.8713924451524485
8.955716266,-4.286798631041598,-10.417758845548597,0.784143147965748
8.960470589,-4.892935579136678,-11.344120853687942,0.7843029112645855
8.96522486,-5.38051205801634,-12.110934678130171,0.876314663792861
8.96997913,-5.744138440607466,-12.719128801688875,1.0590038548411145
8.974733401,-5.981783919387877,-13.174195018038263,1.325780165101568
8.979487724,-6.094756127036823,-13.485850314061747,1.665087856167895
8.984241995,-6.087586627830948,-13.667495836920274,2.0610739369305437
8.988996266,-5.967821744757556,-13.735496755856055,2.494435712809393
8.993750537,-5.7457219732774565,-13.708319681020633,2.943404272198616
8.998504808,-5.433877688054089,-13.605573944099254,3.384817825626036
9.00325913,-5.046753388924011,-13.447008809547972,3.795238035580182
9.008013401,-4.600176808648307,-13.25152056764875,4.152063010400393
9.012767672,-4.110792381003832,-13.036221875398871,4.434592108152422
9.017521943,-3.595500537686161,-12.815621202615702,4.62500000036643
9.022276214,-3.0709049030372353,-12.600953350933942,4.709180689813808
9.027030537,-2.5527886659412773,-12.399693285125062,4.677426542875359
9.031784808,-2.0556393417296217,-12.215275507298355,4.5249130281801015
9.036539078,-1.5922380308251431,-12.047030461857778,4.251966795882194
9.041293349,-1.1733254626753151,-11.890338485314219,3.864102906947358
9.04604762,-0.8073529343868224,-11.736991074402983,3.371826219792942
9.050801943,-0.5003220254565607,-11.575739194139611,2.7902018501281827
9.055556214,-0.2557129483564247,-11.39299943353311,2.138209860969762
9.060310485,-0.07449779382800843,-11.173681436336272,1.4379094980006624
9.065064755,0.04476806105495649,-10.902094469300305,0.7134479287774746
9.069819026,0.1057853206778173,-10.562887382517117,-0.010042845026402025
9.074573349,0.11429112078620121,-10.141974593728524,-0.7076098314241064
9.07932762,0.07779081344577046,-9.627401077781657,-1.3556468563729422
9.084081891,0.0052509604823454984,-9.010101693222236,-1.9330059908805584
9.088836162,-0.09323796416858582,-8.284514627898968,-2.42199153478609
9.093590433,-0.2068220306053974,-7.449015371886958,-2.80917838356185
9.098344755,-0.3242613102100578,-6.506146337091624,-3.0860038007694555
9.103099026,-0.4343184476247257,-5.462627686422947,-3.249093620403272
9.107853297,-0.5261519578158601,-4.329146512367343,-3.300300734933734
9.112607568,-0.5897067183596294,-3.1199334482201087,-3.246454428687334
9.117361839,-0.616092614740509,-1.8521472914775161,-3.0988413695250654
9.122116162,-0.5979407196575574,-0.5450985498920135,-2.872459538319191
9.126870433,-0.529725014140905,0.7806485404244532,-2.585101855590395
9.131624703,-0.40803666276702594,2.104249362900648,-2.256334909808988
9.136378974,-0.23179733595294016,3.4055770868241897,-1.9064399434164554
9.141133245,-0.002398130405197481,4.66619307695301,-1.5553793572679722
9.145887516,0.2762485589113028,5.870237402543045,-1.2218441490351502
9.150641839,0.5977550895636287,7.005190258818181,-0.9224274086096705
9.15539611,0.9534104670335628,8.062460580058186,-0.6709573361522355
9.16015038,1.3324417896617422,9.037765930527124,-0.47801101803743623
9.164904651,1.7223835983698188,9.931277552269659,-0.3506181613524182
9.169658922,2.109547368355679,10.747515719642664,-0.2921529986986353
9.174413245,2.4795770242936825,11.494992715556387,-0.3024033675993652
9.179167516,2.8180703430256537,12.185613205576406,-0.37779887118101807
9.183921787,3.1112409180627125,12.833853962714555,-0.5117748858524663
9.188676058,3.3465913155381313,13.455756252211774,-0.6952455943898317
9.193430328,3.513565306006025,14.067774256742029,-0.9171568621279318
9.198184651,3.6041456958693368,14.68553131653397,-1.1650885428201145
9.202938922,3.61336440748295,15.322542138687503,-1.4258757491972622
9.207693193,3.539693192343688,15.988963201049673,-1.6862197773060958
9.212447464,3.385286813115889,16.690435102562898,-1.9332616552614212
9.217201735,3.1560557607738855,17.427079450325568,-2.155094579047602
9.221956005,2.8615525861997573,18.19270899735491,-2.341195751254944
9.226710328,2.514664596186175,18.974303243097587,-2.4827633507223776
9.231464599,2.131115647870145,19.751792759413885,-2.5729503863096657
9.23621887,1.7287905110192696,20.498184347986044,-2.606993577544014
9.240973141,1.3269060927596865,21.18004606341185,-2.582241501780589
9.245727412,0.9450640950428609,21.758356508398933,-2.4980914797889495
9.250481683,0.6022288190762677,22.189707069588604,-2.3558487646583806
9.255236005,0.31568128947737456,22.42782945403752,-2.1585245400636146
9.259990276,0.1000060794840209,22.425404619300075,-1.9105910785360212
9.264744547,-0.03383041367146406,22.136093614590177,-1.6177131293356095
9.269498818,-0.07925252046615767,21.51671663223677,-1.2864740852271563
9.274253141,-0.03464572992460203,20.52949438950219,-0.924113630369344
9.279007412,0.09631943138489896,19.14425652899105,-0.5382904552180973
9.283761683,0.30464264052824835,17.340515761365527,-0.136879497874355
9.288515953,0.5762461743502736,15.109304651838027,0.27219153561296944
9.293270224,0.8925261055892664,12.45467482190174,0.6810664023164278
9.298024495,1.2311865813170086,9.394766252857798,1.0820497182684368
9.302778766,1.567324073239694,5.962367439936169,1.4676695336063732
9.307533089,1.874712064805967,2.2049051693554764,1.8307236511822689
9.31228736,2.1272222045519973,-1.8161748153761648,2.164321587833482
9.31704163,2.300306494628013,-6.02664881381534,2.461934138027117
9.321795901,2.372457485925097,-10.341361580985279,2.717461333427818
9.326550172,2.326560439156229,-14.666631740461266,2.925327333177929
9.331304495,2.1510534740056095,-18.903139790618628,3.080607586584981
9.336058766,1.8408190783736245,-22.94919415951194,3.1791896236512374
9.340813037,1.397742911842398,-26.704246293226426,3.2179642104961417
9.345567308,0.8308932438533838,-30.072506732286367,3.1950386107447604
9.350321578,0.15629592028103706,-32.966502114738546,3.109958701565917
9.355075849,-0.60369564124331,-35.310409268192096,2.9639222079394107
9.359830172,-1.4214098076674235,-37.043007773552084,2.759961966754192
9.364584443,-2.2651941437227467,-38.120106768374036,2.503076606354706
9.369338714,-3.1010065514509053,-38.51632477851995,2.2002868790590506
9.374092985,-3.8941675435856276,-38.226131801558196,1.8605992537468554
9.378847255,-4.611169344697692,-37.26409895706365,1.4948639023656922
9.383601526,-5.221433527871538,-35.66434066975335,1.1155212141047472
9.388355849,-5.698912998901554,-33.479175231292274,0.7362386790597383
9.39311012,-6.0234457390206995,-30.777069168295206,0.37144766093865583
9.397864391,-6.181785376408812,-27.639966483503187,0.035796543104624545
9.402618662,-6.168255472590196,-24.160133026797435,-0.25645753481892264
9.407372933,-5.984998401627345,-20.436667040194173,-0.49209184929753336
9.412127255,-5.64181406069193,-16.571838273841287,-0.6595667678359994
9.416881526,-5.1556068562992,-12.667419944530184,-0.7496488038809921
9.421635797,-4.549480242020074,-8.821170927765854,-0.7559762904593312
9.426390068,-3.8515356015660784,-5.123611132934333,-0.6755364089357448
9.431144339,-3.0934457825053983,-1.655212460315568,-0.5090241451824018
9.43589861,-2.3088826289420528,1.5158973375700313,-0.261057150401064
9.44065288,-1.5318822127610427,4.335648544118936,0.059774413088328926
9.445407203,-0.7952311441364136,6.765121056798198,0.44103721359276604
9.450161474,-0.12895261983508016,8.781002702513916,0.8667693177142797
9.454915745,0.44103774918590477,10.37543092613162,1.3179769310621376
9.459670016,0.8940480748541215,11.555259420365875,1.7733007497561668
9.464424287,1.2154541079858292,12.340812642353088,2.209830016882936
9.469178558,1.3972421425622346,12.764208342803382,2.6040337767017356
9.473932828,1.4382378716285833,12.86734082022407,2.932771476685138
9.478687151,1.3440233640943795,12.699625422937563,3.1743393946419522
9.483441422,1.126558217550058,12.315607868468787,3.3095056593658967
9.488195693,0.8035329405331332,11.772540434209171,3.322485082151778
9.492949964,0.397492390019813,11.128021374378182,3.201805729731999
9.497704235,-0.06522550342689443,10.43778457541677,2.941022166040377
9.502458505,-0.5556854484053305,9.753714149134892,2.5392355030028932
9.507212828,-1.0436319047255942,9.122144155046854,2.0013876789442486
9.511967099,-1.498793934370179,8.582487767440345,1.3383064917426133
9.51672137,-1.8921654831028598,8.166223780891901,0.5664885228589239
9.521475641,-2.1972119101186327,7.896252145891646,-0.292381225532485
9.526229912,-2.3909582492609665,7.786614917915423,-1.2121618894710817
9.530984183,-2.4549206335151172,7.842565150774775,-2.1632180859975456
9.535738453,-2.375849274463833,8.060954307300085,-3.1135747890960297
9.540492724,-2.1462590910566868,8.430899005694442,-4.030219661208368
9.545247047,-1.7647322679239383,8.934680544516958,-4.880497462652114
9.550001318,-1.2359854483665527,9.548825707330343,-5.633533871973995
9.554755589,-0.5707027071579315,10.245314793015035,-6.2616212000983005
9.55950986,0.21485629762852332,10.992862531253873,-6.741496456245496
9.56426413,1.0994557040464918,11.758219373673267,-7.0554434842507385
9.569018401,2.05766569903314,12.507444458938988,-7.1921561076481275
9.573772724,3.060796309242646,13.20710719596125,-7.147309112497774
9.578526995,4.077945640141238,13.825381649661132,-6.9237985897582774
9.583281266,5.077120959804392,14.333006288849731,-6.53163171944851
9.588035537,6.026388105176977,14.704090527632841,-5.9874667448614804
9.592789808,6.895003672609171,14.916758204841647,-5.313824715172984
9.597544078,7.654485545921697,14.953626141348426,-4.538013855520302
9.602298349,8.279580588576458,14.802122736876669,-3.6908237731767612
9.60705262,8.749093699651125,14.454656845495224,-2.805059126915171
9.611806943,9.04654963347364,13.908650643393193,-1.9139902871545733
9.616561214,9.160667533071928,13.166451787796177,-1.049801675627023
9.621315485,9.085637392770659,12.235140000283005,-0.2421169660245699
9.626069755,8.821196952856475,11.126241652788305,0.4833255231953855
9.630824026,8.372516196592846,9.855363513367138,1.1057835554015913
9.635578297,7.749904147203224,8.441754113457375,1.6103568464151903
9.640332568,6.968358685964372,6.907798803907082,1.9885320481524027
9.645086891,6.046984429695356,5.278452969295139,2.238407067606153
9.649841162,5.008306276346951,3.580617440055557,2.3645915386281198
9.654595433,3.8775071804856496,1.8424610881740797,2.3777962610831076
9.659349703,2.6816183386320978,0.09269794566169426,2.2941389967090213
9.664103974,1.4486886163363906,-1.6401701823389858,2.134206508993172
9.668858245,0.20695810577224139,-3.328629982146231,1.9219226732679917
9.673612516,-1.015941517235615,-4.946930836455393,1.6832795442831878
9.678366839,-2.193739430000314,-6.471830548789084,1.4449923321079547
9.68312111,-3.3022126706035353,-7.883281115200923,1.2331404375267212
9.68787538,-4.319791607042007,-9.165019270595485,1.0718553686737744
9.692629651,-5.228069894408967,-10.30502514179148,0.9821128154777496
9.697383922,-6.012207184680114,-11.295814681879417,0.9806805081172073
9.702138193,-6.661215219057258,-12.134538515963822,1.0792657404524972
9.706892464,-7.168120475494079,-12.822871159580638,1.2838968160955686
9.711646735,-7.529999433808674,-13.366688916577012,1.5945617750006107
9.716401005,-7.747885999023146,-13.775550201120659,2.005116459748108
9.721155328,-7.826554817577291,-14.062006610963408,2.5034631341159597
9.725909599,-7.774188984996668,-14.240785108093409,3.071990991246583
9.73066387,-7.601945567868498,-14.327889908305334,3.688261067087831
9.735418141,-7.323436936961434,-14.339676596164326,4.325910092358214
9.740172412,-6.9541496875464865,-14.291950722955955,4.955740391479496
9.744926683,-6.51082558819991,-14.199139336241618,5.5469559266355954
9.749680953,-6.010830336955661,-14.073577328999678,6.068498129733459
9.754435224,-5.471535788910479,-13.92494199343072,6.490429688902452
9.759189547,-4.90973972987667,-13.759859486314069,6.785310503721653
9.763943818,-4.341144311588608,-13.581696753323772,6.929508056860675
9.768698089,-3.7799101774816566,-13.390542417745873,6.904384738143317
9.77345236,-3.2382984483246693,-13.183370713745825,6.697307289634826
9.77820663,-2.72640752143361,-12.954374126402426,6.302428515667154
9.782960901,-2.252006504832725,-12.695443251097268,5.721198697086771
9.787715172,-1.8204624881483067,-12.396766630757245,4.962573715916165
9.792469443,-1.434755111592713,-12.04751899497781,4.042898602421245
9.797223766,-1.0955692557701753,-11.636603374270058,2.9854587803498185
9.801978037,-0.8014551750259664,-11.153410930032914,1.8197062451247663
9.806732308,-0.5490449266405284,-10.58856195046637,0.5801836454834951
9.811486578,-0.3333143183317898,-9.934592250907837,-0.6948149442134015
9.816240849,-0.14788056153002568,-9.186551162305205,-1.9647925854075194
9.82099512,0.014672926676974089,-8.342480435478333,-3.1887395810770363
9.825749391,0.1624519174183513,-7.403747821631204,-4.326885770003771
9.830503662,0.30389341765195005,-6.375214885593436,-5.342427401769668
9.835257985,0.4474004201942843,-5.265225748163695,-6.203137330058974
9.840012255,0.6009754899012908,-4.085411781704674,-6.882769692094522
9.844766526,0.7718598714441314,-2.8503164861835972,-7.362180177090013
9.849520797,0.9661858125433888,-1.5768543518379665,-7.630100920824468
9.854275068,1.1886512021656157,-0.2836267955732702,-7.683533473985279
9.859029339,1.4422272125845041,1.0098734752580796,-7.527750465249697
9.86378361,1.7279110704295442,2.2841316360406,-7.175921964575189
9.86853788,2.0445370530592393,3.520510658900436,-6.6484027052783645
9.873292151,2.3886591032754714,4.702136486801079,-5.971729982423884
9.878046422,2.754517906014814,5.814722439279622,-5.177389856842322
9.882800745,3.1341036746149333,6.847288432835735,-4.30041286116105
9.887555016,3.5173230733697474,7.7927343626140235,-3.3778614470137303
9.892309287,3.8922746215252864,8.648232832428862,-2.447271302459643
9.897063558,4.245631755113297,9.415414127071045,-1.5451081615386344
9.901817828,4.563126817095673,10.100325511558468,-0.7053008026617134
9.906572099,4.830123039386426,10.713157094248047,0.04209113091682286
9.91132637,5.032255505830293,11.26773703615774,0.6720200765659602
9.916080641,5.156116522974997,11.780809319259722,1.1653570220363896
9.920834912,5.189956105710855,12.271117217666374,1.5095245914328115
9.925589235,5.124364727383824,12.758324785084866,1.6988329266907836
9.930343505,4.952903413505481,13.261816889215519,1.7345094961766139
9.935097776,4.672645959416798,13.799425408058356,1.6244295948583756
9.939852047,4.284599703280414,14.38613493898239,1.3825693042868301
9.944606318,3.7939749305881665,15.03282550422134,1.028215793667145
9.949360589,3.210278547329352,15.745112004228853,0.5849800414613565
9.95411486,2.5472149432010256,16.52234034172573,0.07966373825003595
9.95886913,1.8223856557612719,17.35679802747421,-0.4589647681434315
9.963623401,1.0567891074996036,18.233192534477677,-1.0014306591100064
9.968377672,0.27413181381895074,19.1284435808451,-1.5187965521300102
9.973131943,-0.5000274782987274,20.011825857113415,-1.9838417522639957
9.977886266,-1.2392697728725113,20.845486564923625,-2.3721336083624793
9.982640537,-1.917404516827684,21.585347768491307,-2.6629537443061397
9.987394808,-2.509608528054063,22.182387430150822,-2.840048769541464
9.992149078,-2.993563369921712,22.58427571346138,-2.892182687272639
9.996903349,-3.350536182835253,22.73732539476845,-2.8134764592327297
10.00165762,-3.566348324737568,22.588697752996747,-2.6035287714359936
10.00641189,-3.6321784525030285,22.088788817073162,-2.2673206337015746
10.01116616,-3.5451521156083774,21.193706064994632,-1.8149147069977598
10.01592043,-3.3086784596266026,19.86773339725589,-1.260967871665528
10.0206747,-2.9325058735120137,18.085673358643913,-0.6240821838677199
10.02542903,-2.43248175251902,15.834951083387212,0.07397534643668777
10.0301833,-1.8300162401693447,13.11736510826116,0.8091500781210921
10.03493757,-1.1512650567470946,9.95037663739251,1.5560381989871659
10.03969184,-0.42606152963778177,6.3678413613295275,2.288850153363139
10.04444611,0.3133580301663228,2.420106507795079,2.982364121804114
10.04920038,1.0337791064601283,-1.826579948041844,3.612837078701591
10.05395465,1.7025173896237207,-6.291371803631741,4.158844294153828
10.05870892,2.288937220600315,-10.880829750206065,4.6020221073292165
10.06346319,2.765902857119289,-15.491584525763107,4.92769312821427
10.06821746,3.1110856165148446,-20.013577364000465,5.125357518192002
10.07297174,3.3080543440066745,-24.33376204372995,5.18903850816043
10.077726,3.347085311634137,-28.340121233520122,5.117474742297495
10.08248033,3.225640594217346,-31.925823874743134,4.914156342408568
10.0872346,2.948481050354312,-34.99333242623374,4.5872057231806025
10.09198887,2.5274007739214306,-37.458261151905646,4.149107973488198
10.09674314,1.9805932164523492,-39.25279106180534,3.6162987366019546
10.10149741,1.3316833184495285,-40.328464449793564,3.0086198338482517
10.10625168,0.6084824859049175,-40.65821156400514,2.348654782734204
10.11100595,-0.15845849627290776,-40.23750161418256,1.660958687944489
10.11576022,-0.9374115210862743,-39.084556919402985,0.9712004299079868
10.1205145,-1.6970562290101416,-37.23961916757778,0.3052397575770628
10.12526877,-2.4079981864324416,-34.7633071983369,-0.3118327196549943
10.13002304,-3.0441383129589497,-31.73415311387353,-0.8566595040183511
10.13477736,-3.583824443434963,-28.245444604142907,-1.3085471391973023
10.13953158,-4.010731928495176,-24.401533403266825,-1.6503252711387495
10.1442859,-4.314438068799981,-20.313791071053455,-1.8690956063566513
10.14904017,-4.4906736914528524,-16.096403308918216,-1.956835506465519
10.15379444,-4.541253239289865,-11.862193233833768,-1.9108259786210995
10.15854871,-4.473701451305542,-7.718653535215864,-1.7338804180624157
10.16330299,-4.300609323985773,-3.764348690531038,-1.434358172181204
10.16805726,-4.038763983134812,-0.0858231081006017,-1.0259554626875411
10.17281153,-3.708105973223691,3.2448789808218934,-0.5272751304218807
10.1775658,-3.3305730973690926,6.172008996143232,0.0388142327999483
10.18232007,-2.9288923178502215,8.657186005710505,0.6460102432817774
10.18707434,-2.5253805172526285,10.679739886162594,1.2655717677105829
10.19182861,-2.140811418377038,12.236351735039854,1.8674413592399415
10.19658288,-1.7934000630504707,13.340045768017685,2.421452856345851
10.20133715,-1.497948413307955,14.018610788517096,2.8985768560830567
10.20609142,-1.265186345918066,14.312548170367739,3.2721535350271065
10.21084574,-1.1013320534006301,14.272656720367126,3.519061137205993
10.21560002,-1.007885128290417,13.95737261689973,3.6207695089697998
10.22035429,-0.9816548573228165,13.429984923860209,3.564231316897507
10.22510856,-1.015015910976583,12.755844253295782,3.342568911384336
10.22986283,-1.0963740463441194,11.999674499368846,2.9555220135244173
10.2346171,-1.210815949651766,11.223085868428358,2.4096302840679567
10.23937137,-1.340910176344985,10.4823724941682,1.71813510870116
10.24412564,-1.46762050765392,9.826660644441617,0.9005962684809315
10.24887991,-1.5712890976392782,9.296454822408753,-0.01776884286312129
10.25363418,-1.6326446397583905,8.92260985236023,-1.00700359331635
10.25838845,-1.6337904693539922,8.72573817766471,-2.0335562877996964
10.26314272,-1.5591290000788767,8.716043849283368,-3.061607177365639
10.267897,-1.3961820709526716,8.893558691504238,-4.054525395102468
10.27265127,-1.1362715073338636,9.24874240586702,-4.976394686382503
10.27740554,-0.7750302803234358,9.763397287736925,-5.7935407567016055
10.28215981,-0.3127218629324376,10.41184002475827,-6.475989628587158
10.28691408,0.2456465041880532,11.162267846639152,-6.998786001921277
10.2916684,0.8904221353049273,11.978254132243576,-7.343103768890872
10.29642267,1.6076130692374555,12.820309401475615,-7.49708820947665
10.30117694,2.3793889328044164,13.647447251375187,-7.456381487154564
10.30593121,3.1847541603247955,14.418700872684463,-7.224299609156868
10.31068548,4.000362811434021,15.094543740688595,-6.811648686074358
10.31543976,4.801437171763965,15.638177229385711,-6.236189175366129
10.32019403,5.562747180156163,16.016657545577015,-5.5217769459002515
10.3249483,6.259604934179647,16.20184384178759,-4.697227934556828
10.32970257,6.86882833878097,16.171158014222904,-3.794967642781987
10.33445684,7.36963042840151,15.908153975934363,-2.849536805542187
10.33921111,7.744395840488071,15.402899713833479,-1.8960298161983211
10.34396538,7.979312964606608,14.652179011747666,-0.9685430441338926
10.34871965,8.064838865540231,13.659521441470375,-0.09870659226156459
10.35347392,7.995983492392056,12.435069436579917,0.6856339717592308
10.35822819,7.772409234775389,10.995290498270025,1.3615291099956357
10.36298246,7.398350933042948,9.36254144882413,1.9117850666365295
10.36773674,6.8823694534799795,7.564490746330434,2.3255402870562096
10.372491,6.236958479971722,5.633404726838691,2.598541261894805
10.37724528,5.478028974966325,3.6053046547262357,2.733115206775656
10.38199955,4.624298723124485,1.5190039057599647,2.7378511634647746
10.38675382,3.6966155697028915,-0.5849614131672178,2.6270140113919958
10.39150814,2.71724263436208,-2.665489660342976,2.4197268263644447
10.39626236,1.7091322496123942,-4.682133278258088,2.138965508584511
10.40101668,0.6952130055087653,-6.596348036080745,1.8104153047759408
10.40577095,-0.3022885793704151,-8.372731521521692,1.4612417095171826
10.41052522,-1.2624733203760996,-9.980203477102048,1.1188285637308464
10.4152795,-2.166326223105487,-11.393074987701704,0.8095345825968154
10.42003377,-2.997192550578823,-12.591950595851818,0.5575165863765824
10.42478804,-3.7411633539344065,-13.564408594658278,0.38366355920923634
10.42954231,-4.387362909879696,-14.305411187187648,0.3046802368576917
10.43429658,-4.928132311477304,-14.817408151572051,0.3323522213683131
10.43905085,-5.359105164838217,-15.110114254978692,0.47301696644588503
10.44380512,-5.679173406541032,-15.19996027209883,0.727257003002378
10.44855939,-5.890344130767956,-15.10923806182383,1.08982413970299
10.45331366,-5.997492223088474,-14.86497961889341,1.5497964142132192
10.45806793,-6.0080183504526685,-14.497626429284406,2.090963159203211
10.4628222,-5.931426904747674,-14.039557482192746,2.6924272782716474
10.46757647,-5.778843160106214,-13.523551375292366,3.329407315876311
10.47233074,-5.5624925743149,-12.98126018790502,3.9742149900330994
10.47708502,-5.2951673884190695,-12.441770619110253,4.597376682603229
10.48183929,-4.989706174773223,-11.930321838873178,5.168860362418788
10.48659356,-4.658510657930837,-11.467240163980208,5.659363094461544
10.49134783,-4.313121085928183,-11.067138663494632,6.041609205763051
10.4961021,-3.9638669457730233,-10.738415774068644,6.291605802552151
10.50085637,-3.6196043214881817,-10.483071660018975,6.389801016523986
10.50561064,-3.2875451807555254,-10.296845127911084,6.322091327582257
10.51036491,-2.9731778370855717,-10.169658176774655,6.080627687134518
10.51511918,-2.680272213893805,-10.08634051011247,5.664375995536176
10.51987345,-2.4109587366168155,-10.027593271516313,5.079395741678804
10.52462772,-2.1658660682244992,-9.971140481995787,4.338811165743234
10.529382,-1.9443008007888902,-9.893008576999836,3.462461910761913
10.53413627,-1.744451826333755,-9.768869314823712,2.476234414735539
10.53889054,-1.5636034513066037,-9.57537924605776,1.4110907826506167
10.54364486,-1.3983441814542068,-9.291449857285402,0.30182798909798647
10.54839913,-1.2447620537524149,-8.89938632224852,-0.814383689932438
10.5531534,-1.0986218128839136,-8.385839382232566,-1.8996189756889987
10.55790767,-0.9555234408269675,-7.742524069808622,-2.9168953846972827
10.56266194,-0.8110449810070826,-6.966670504197189,-3.831863288841089
10.56741621,-0.6608749127254064,-6.0611853660694255,-4.614395520769695
10.57217049,-0.5009403881303603,-5.034517291950709,-5.239984253797413
10.57692476,-0.32753740170162654,-3.900234592358938,-5.690860639854649
10.58167903,-0.1374674286388503,-2.6763385858965782,-5.956768671996821
10.5864333,0.07181763026637009,-1.3843495808719597,-6.035348402054005
10.59118757,0.30206386593801837,-0.04821427482266927,-5.932112188502576
10.59594184,0.5540625478990486,1.3069076033306937,-5.6600266104155335
10.60069611,0.8275048650724894,2.655913623496304,-5.238737793744104
10.60545038,1.1208556070274667,3.975019454575719,-4.693496709487566
10.61020465,1.4312587833762884,5.242944142413123,-4.053853138980181
10.61495892,1.7544886613123556,6.441957517302254,-3.3521933275349207
10.61971319,2.084958926264972,7.55873400325958,-2.6221980796986464
10.62446746,2.4158005707103145,8.584966430383359,-1.89729630171968
10.62922174,2.7390157738930827,9.517705055166218,-1.2091846738884222
10.63397601,3.0457107056982453,10.359400265263325,-0.5864778658832676
10.63873028,3.3264052312467367,11.117641667874834,-0.053545755430898116
10.64348455,3.571412275336238,11.8046007058681,0.3704155900061371
10.64823882,3.7712744379477625,12.436197960953915,0.6720440154703072
10.65299309,3.9172405811887687,13.031029353863664,0.844180778156316
10.65774736,4.001760749541265,13.609097110523265,0.8859426304730541
10.66250163,4.018974167798267,14.190401278150324,0.802505048969301
10.6672559,3.965162462617253,14.793455438166847,0.6046198311767366
10.67201017,3.8391390011356203,15.433795797123281,0.30790294690424946
10.67676444,3.6425456612397644,16.122555803022316,-0.06806183054923988
10.68151871,3.380030687031137,16.86517864955508,-0.5007519155326132
10.68627298,3.059285610710441,17.660337383869273,-0.9658133968655301
10.69102726,2.690925387479852,18.499126787866704,-1.4381934440036568
10.69578153,2.2882035529481084,19.364582795862624,-1.8932470142663236
10.7005358,1.8665629450993668,20.23157406436138,-2.3077719442851494
10.70529007,1.443031918069017,21.06709664865191,-2.660932442450585
10.71004434,1.0354856346569494,21.830986917534265,-2.9350378819098535
10.71479861,0.6618015715660229,22.47705034281896,-3.1161515389901018
10.71955288,0.33894732943173483,22.954585256350736,-3.194512483218983
10.72430715,0.08204658693027,23.210261792702568,-3.164763000366556
10.72906142,-0.09652518665745358,23.190297799387942,-3.0259832652285272
10.73381569,-0.18796065644662557,22.84285627415197,-2.7815438437061344
10.73856996,-0.18770206772277465,22.120573633583685,-2.43879437081215
10.74332424,-0.09593442105544778,20.98311556384372,-2.0086129690919083
10.7480785,0.08215133380866732,19.399648099639904,-1.5048453895347575
10.75283278,0.33635543442411175,17.351106682659896,-0.9436653696834276
10.75758705,0.6517432043465378,14.832145978907153,-0.3428883177697077
10.76234132,1.0091965243922953,11.852658753434087,0.27873072028984824
10.76709559,1.3862272689086754,8.438763444642529,0.9021865118490484
10.77184986,1.7580208103462847,4.63317728817636,1.5088760303855842
10.77660413,2.098662452767124,0.4949146192898284,2.0811939432551503
10.7813584,2.382486350434863,-3.9017223122207234,2.6030564281931916
10.78611267,2.585475948335473,-8.468861038644464,3.060343731656396
10.79086694,2.686638020110347,-13.107451833341235,3.4412568116956015
10.79562121,2.669269625037168,-17.710267361321215,3.7365877743783487
10.80037548,2.5220392374398304,-22.16540591330376,3.939907363924359
10.80512976,2.239810203253159,-26.36016341344848,4.047675306998772
10.80988403,1.8241466202260066,-30.185112728176975,4.059280660846981
10.8146383,1.2834585148225512,-33.53820939357614,3.9770192712992283
10.81939257,0.6327642045441936,-36.32873272578033,3.806013855185788
10.82414684,-0.10692812858537923,-38.48087190519987,3.554079244862803
10.82890111,-0.9095920961708597,-39.936778786868175,3.231531763271955
10.83365538,-1.745455763683842,-40.65893262411675,2.850938860316236
10.83840965,-2.5825017070544436,-40.63169523803531,2.426804218531024
10.84316392,-3.388104926981986,-39.86197616772869,1.975184924396489
10.84791819,-4.130710102206493,-38.37897326238419,1.5132406380128804
10.85267241,-4.781448338744428,-36.233002106596736,1.058719321504524
10.85742674,-5.315599692362695,-33.49347456264614,0.6293893097798179
10.86218095,-5.713820195092567,-30.24612945706072,0.24243257867480333
10.86693528,-5.963069201550117,-26.589654145142287,-0.08618172362810153
10.8716895,-6.057192783008594,-22.631862146292445,-0.3423214950638254
10.87644377,-5.997140064102088,-18.485608059910913,-0.5142900555731477
10.88119804,-5.790810527218664,-14.264626383590926,-0.5933745328180012
10.88595231,-5.452550304046732,-10.079476297416331,-0.5743202948091837
10.89070658,-5.002333371876576,-6.033761099109524,-0.4557082426682972
10.89546085,-4.464678572615507,-2.2207702320965454,-0.24021322052210298
10.90021512,-3.867364879529325,1.2793346104127936,0.06527586915464577
10.90496939,-3.2400149890300534,4.401698242379138,0.4496902088268065
10.90972366,-2.612620983756158,7.098257143047641,0.8979807346482601
10.91447793,-2.014085584365974,9.338505631371246,1.3914886595740181
10.9192322,-1.4708486566597194,11.10954965487794,1.9084851602286206
10.92398647,-1.0056616051285616,12.415484325060001,2.4248707380748917
10.92874074,-0.636562628706364,13.276157306354106,2.915016612232887
10.93349502,-0.3760941957336048,13.725401738495558,3.3527224946298952
10.93824929,-0.23079122193554677,13.808838966311082,3.7122577475333625
10.94300356,-0.2009550254834551,13.581362647105806,3.969446689869365
10.94775783,-0.2807148681895953,13.104421724868264,4.102754085560116
10.9525121,-0.4583663732612423,12.443220446420506,4.094323910564931
10.95726637,-0.716964822277781,11.663949393044945,3.930923562881987
10.96202064,-1.0351416212326348,10.831152935172726,3.604746879534738
10.96677491,-1.3881042970286295,10.005326258573742,3.114032718036673
10.97152918,-1.7487743510556297,9.240819941345379,2.4634614392684453
10.97628345,-2.0890132063331768,8.584112834224156,1.6642992964191774
10.98103772,-2.3808843569466003,8.072495586173059,0.7342702873741448
10.985792,-2.5978996502371206,7.733188412411389,-0.3028538388356108
10.99054627,-2.7161993495224013,7.582898411656084,-1.4179424110951304
10.99530054,-2.7156191328957098,7.627804602737497,-2.577457460542124
11.00005476,-2.580602321306189,7.86394345436757,-3.744638912538186
11.00480903,-2.300922182120174,8.277954481068102,-4.8808813875161885
11.0095633,-1.8721868620034072,8.848134789661097,-5.947249028200641
11.01431757,-1.2961080770609936,9.545743466341216,-6.906064907029419
11.01907184,-0.5805238405381179,10.336491457097722,-7.722504081294485
11.02382611,0.2608250273600556,11.182150082290173,-8.366114839243918
11.02858038,1.2087553270699831,12.042211446302497,-8.812191754546685
11.03333465,2.23932018959472,12.87553663176198,-9.04292758945055
11.03808892,3.324678473657226,13.64193254132013,-9.048279496201653
11.04284319,4.434119113696539,14.30360529782422,-8.82649836756606
11.04759746,5.5351977828873276,14.826446800719065,-8.3842876676913
11.05235174,6.5949380184647515,15.181120803077539,-7.736578133020656
11.05710601,7.581045789294981,15.343925147894314,-6.90592583890387
11.06186028,8.463085647317556,15.297417076540608,-5.921561920350265
11.06661455,9.213568286689345,15.030798350233143,-4.818141382544858
11.07136882,9.808903617336098,14.540065886624545,-3.634254567163926
11.07612309,10.230180281773354,13.827941295728568,-2.4107767460818694
11.08087736,10.463741666230575,12.903598716906627,-1.1891382488244386
11.08563163,10.501539400413211,11.782214421946117,-0.00959934907602948
11.0903859,10.341257346786536,10.484363674502267,1.0903888077611974
11.09514017,9.986211194660859,9.03529053246271,2.0776630352837193
11.09989439,9.445040037780657,7.464075133194245,2.9246030119332227
11.10464866,8.731215929534807,5.802721151323141,3.61011182151864
11.10940293,7.8624047934816845,4.085184207486086,4.1202868914896875
11.1141572,6.8597168488889855,2.346360579587227,4.448762381126068
11.11891147,5.746886758972566,0.6210550241664158,4.596720481279022
11.12366574,4.549423151881754,-1.0570529209038242,4.572584656887648
11.12842002,3.2937643644144536,-2.6564230795396107,4.39142174256824
11.13317429,2.006472738646362,-4.148625479428057,4.074091324749494
11.13792856,0.7134941524835271,-5.50924083369262,3.6461895698063773
11.14268283,-0.5604967408129896,-6.718660111139245,3.136840386283427
11.1474371,-1.7926513640946895,-7.76274953281044,2.5773896061971384
11.15219137,-2.9623939368321595,-8.633345320010624,2.0000580684373794
11.15694564,-4.051757274084564,-9.328542600575823,1.4366075586119016
11.16169991,-5.045609580727538,-9.852746308000656,0.9170698668113327
11.16645418,-5.9317780024607,-10.216459768945676,0.468583898069627
11.17120845,-6.7010776019901215,-10.435799226256915,0.11437890077099018
11.17596272,-7.347256437079711,-10.531738897631902,-0.1270661821193889
11.180717,-7.866868689091916,-10.529109577305963,-0.24266580758879985
11.18547121,-8.259088554878401,-10.45539213744889,-0.22516021352073934
11.19022549,-8.525478051334277,-10.339363427280484,-0.0733312030565439
11.19497976,-8.669722002126003,-10.209664093965475,0.2079986134854135
11.19973403,-8.697343124212024,-10.093364458391404,0.6081783552473287
11.2044883,-8.615409147195162,-10.014605319619731,1.1111444934165813
11.20924257,-8.432242295907546,-9.993385782940374,1.6960271658367294
11.21399684,-8.157139467738597,-10.04456080367968,2.337930817438597
11.21875111,-7.800109345699903,-10.17709826665829,3.008868236267271
11.22350538,-7.371630735354483,-10.393630264527586,3.678821870099817
11.22825965,-6.882434680509339,-10.690316894810083,4.316900776488623
11.23301392,-6.343311376537302,-11.057024364854913,4.89255613567652
11.23776819,-5.764941527642968,-11.477803398571984,5.376813435750923
11.24252246,-5.157750593265609,-11.931639704749623,5.743475678605413
11.24727674,-4.531783373176428,-12.393436263668724,5.970249668929103
11.25203101,-3.8965956197642253,-12.835177874791702,6.0397470312640955
11.25678528,-3.2611588703588628,-13.227222011195096,5.9403134066986025
11.2615395,-2.6337745257546628,-13.53965656082354,5.666643557256406
11.26629377,-2.0219934639716857,-13.743664341410613,5.220146926793085
11.27104804,-1.4325382678182734,-13.812836066507508,4.609037455779105
11.27580231,-0.8712265044932828,-13.724377338087743,3.8481328322351986
11.28055658,-0.3428953883228645,-13.46016083027227,2.9583614421993367
11.28531085,0.14866955916177252,-13.007581722214445,1.9659894993261744
11.29006512,0.6007968488035399,-12.360182353971938,0.901595517959439
11.29481939,1.011975269244571,-11.518020864577922,-0.20116633020504765
11.29957366,1.3818755505514908,-10.48776814588862,-1.3069592510803396
11.30432793,1.7113385252615623,-9.28252770255041,-2.380247471017134
11.3090822,2.002321496045378,-7.921383752953837,-3.38679671265117
11.31383647,2.257796211158784,-6.428693854208994,-4.295113799472851
11.31859069,2.481594554136701,-4.8331531269571055,-5.077748918990949
11.32334496,2.678201683515568,-3.1666673469542665,-5.712391484468391
11.32809924,2.852500727170971,-1.4630812097792882,-6.182704410773585
11.33285351,3.009477883282358,0.24318464474682444,-6.478860769179366
11.33760778,3.153901365837926,1.918529275156161,-6.5977684093159
11.34236205,3.2899914784566255,3.531538806575234,-6.542988741930593
11.34711632,3.4211017841062614,5.054264913401226,-6.32437266008444
11.35187059,3.5494326704668726,6.4633567487759285,-5.957448268350131
11.35662486,3.6757985364612065,7.74099407525734,-5.462601907748684
11.36137913,3.7994682868146454,8.875577115825596,-4.864097095568918
11.3661334,3.918095744947812,9.862138566763402,-4.188977032803361
11.37088767,4.027752014555066,10.70245496598316,-3.4658967126884987
11.37564194,4.123065991791015,11.404847663220616,-2.723931171437635
11.38039616,4.1974726028310085,11.983677283942221,-1.9914068880237836
11.38515043,4.24356142325169,12.458549029033087,-1.2948028553623359
11.3899047,4.2535115703454345,12.853258684994573,-0.6577653824856363
11.39465897,4.219592501386078,13.194520297164356,-0.10027567368788666
11.39941324,4.134704907973879,13.510525756561618,0.36199828980604976
11.40416752,3.992931583406156,13.82939389645643,0.7181435707728132
11.40892179,3.790065297202806,14.177571983879737,0.9622265944793549
11.41367606,3.5240796713611156,14.57825563879319,1.0932999367589797
11.41843033,3.1955100715437585,15.04989414317725,1.1152022522029603
11.4231846,2.8077147235109496,15.604846762814722,1.0361714890716525
11.42793882,2.3669916029917295,16.248252095076634,0.868299215336725
11.43269309,1.8825339136762054,16.977166639448196,0.6268593418062532
11.43744736,1.366215763942206,17.780020880596236,0.32954753704113093
11.44220163,0.8322094219004136,18.636431323265093,-0.004331777902502034
11.4469559,0.2964456379384104,19.517395289326718,-0.35469542069331744
11.45171017,-0.224061644832747,20.38588207820503,-0.7014959016132059
11.45646444,-0.7119958693647759,21.197819567599915,-1.0254916160247192
11.46121871,-1.1505857053182165,21.903459856176305,-1.3089483770127217
11.46597298,-1.524476124275507,22.449091600749004,-1.5362525801207698
11.47072726,-1.8205747655750986,22.779050852807433,-1.694421240529311
11.47548153,-2.0288241913680682,22.837967084881647,-1.773499167068304
11.48023574,-2.142851978122572,22.573167351510897,-1.7668383535981682
11.48499002,-2.1604549644919695,21.937149760129614,-1.6712589627874712
11.48974429,-2.0838813412350725,20.890028229845413,-1.487094807192846
11.49449856,-1.9198843024585237,19.401844509062954,-1.218128895280413
11.49925283,-1.679533116633102,17.454641239658983,-0.8714264530151835
11.5040071,-1.377781018044528,15.044192076059064,-0.45707400761076244
11.50876137,-1.032803491748028,12.181291926848028,0.012166177316537801
11.51351564,-0.6651345216659941,8.892522500857948,0.5212766084608611
11.51826991,-0.2966413836915248,5.220425462000357,1.0534700067868032
11.52302413,0.05061017953491819,1.2230372907096274,1.5907293628160393
11.5277784,0.3555397709763136,-3.0272342186726915,2.1143918124180883
11.53253267,0.5992187821934373,-7.445382938458792,2.605764846667806
11.53728694,0.7659509454844888,-11.936187061275964,3.0467624009617107
11.54204121,0.8442002107973801,-16.39713014137294,3.420547121317995
11.54679548,0.8273049766061851,-20.72175883242297,3.7121635784846396
11.55154976,0.7139276071208156,-24.803348151037152,3.909145381178556
11.55630403,0.5082020069178224,-28.538722514537735,4.002077029156845
11.5610583,0.2195594069322032,-31.832065036896363,3.9850890041497964
11.56581257,-0.1377673099992349,-34.59854026320566,3.8562622084368754
11.57056684,-0.5455386639119914,-36.76755786517735,3.617915874398007
11.57532106,-0.9825592722891204,-38.28551737250911,3.2767523347805483
11.58007533,-1.4259208614078345,-39.117896549856106,2.8438337073225592
11.5848296,-1.8523588208191057,-39.25057739774444,2.3343705335632428
11.58958387,-2.239634005957091,-38.69034196413483,1.7673108796402137
11.59433814,-2.5678490903080053,-37.46451267305687,1.1647296854936682
11.59909241,-2.820613785029505,-35.619755979795286,0.5510310726209819
11.60384668,-2.985985035676397,-33.220111084770814,-0.048010472486252086
11.60860095,-3.0571254789469093,-30.34434443119034,-0.6063320103148069
11.61335517,-3.032644171249142,-27.082763186968435,-1.0987392837208865
11.61810944,-2.9166059122015437,-23.533644777093222,-1.5020844047317856
11.62286371,-2.718217494804672,-19.79945354678627,-1.7964060146593923
11.62761798,-2.4512193100611666,-15.983019535026608,-1.9659738341352273
11.63237226,-2.1330276744758847,-12.18384868992645,-2.0001826637115765
11.63712653,-1.7836861700270328,-8.494719801155608,-1.894246794791939
11.6418808,-1.4246926978719336,-4.998702446864839,-1.6496540441905838
11.64663507,-1.0777727210528572,-1.7667040279377106,-1.2743488830734466
11.65138929,-0.7636684986940239,1.1443757666577226,-0.7826260332766709
11.65614356,-0.5010094400024773,3.6928362368302796,-0.19472899608791397
11.66089783,-0.3053206674805506,5.8526975501661775,0.46383831373208523
11.6656521,-0.18821624829392095,7.613568466665084,1.1632649805528021
11.67040637,-0.15681118545202705,8.979902952277039,1.8706167133864244
11.67516064,-0.21337303153764095,9.969712866474524,2.551203174945799
11.67991491,-0.3552207321745254,10.612823557030866,3.1700726955062564
11.68466918,-0.5748657665224474,10.948773755328595,3.6935705861239536
11.6894234,-0.8603794314639546,11.024470300129671,4.090892523053302
11.69417767,-1.1959606443846904,10.89171185581831,4.335562720872532
11.69893194,-1.5626711635119872,10.604694127248395,4.406767965107863
11.70368621,-1.9392997326883787,10.217602540673463,4.2904829954266965
11.70844048,-2.3033133177224236,9.782387584348433,3.9803300408121376
11.71319476,-2.6318522010483356,9.346803753461693,3.478125245843599
11.71794903,-2.9027260772235777,8.952776193467447,2.7940769755190007
11.7227033,-3.0953702541903665,8.635140608886411,1.9466151632285948
11.72745752,-3.1917244122084747,8.420782727020192,0.9618464979705155
11.73221179,-3.1770008939586982,8.328184457749652,-0.12735324052021052
11.73696606,-3.040314974168251,8.367365677421686,-1.2825816409174802
11.74172033,-2.7751557476100692,8.540194001084208,-2.4614425486603957
11.7464746,-2.379682931161102,8.841020597263551,-3.6193098465155287
11.75122887,-1.8568417560255368,9.257588517335856,-4.711249258369252
11.75598309,-1.2142950146506437,9.7721514873659,-5.6940145100973405
11.76073736,-0.46417804173210664,10.362735824518904,-6.528026551938773
11.76549163,0.37731120712546523,11.004476128105717,-7.179240602035909
11.7702459,1.2904689088673684,11.670956564027664,-7.620805912400255
11.77500017,2.2527655999636864,12.33549372289811,-7.834427798715402
11.77975444,3.239621980967639,12.9723039471032,-7.811351228517479
11.78450871,4.225248760684606,13.557507411131287,-7.552900842579069
11.78926298,5.183516456990553,14.069932717815197,-7.070533859071574
11.7940172,6.088819892286887,14.491698762867676,-6.385388839616541
11.79877147,6.9169025634356665,14.808564365006122,-5.527342640740551
11.80352574,7.6456082586526595,15.010049850603915,-4.533617509024487
11.80828002,8.2555312046245,15.089347665567958,-3.447007821521759
11.81303429,8.730541501266096,15.043050471312352,-2.3138193011832717
11.81778856,9.058169400987843,14.870734408944498,-1.1816308566944593
11.82254283,9.229839779917942,14.574441671343019,-0.09699924571240325
11.82729705,9.240956453511174,14.15810970017527,0.8967710128849135
11.83205132,9.090844172648364,13.626993947651147,1.7616754673249058
11.83680559,8.782563477296481,12.987127296013973,2.466770547953991
11.84155986,8.322619426993295,12.244852394457867,2.989560487921625
11.84631413,7.7205891178685935,11.406454128269628,3.3169455087914805
11.8510684,6.988694635896124,10.477909079018561,3.445691106421983
11.85582262,6.1413477192307,9.464758069378133,3.3824040571975065
11.86057689,5.194690129421787,8.372097546847284,3.1430262167294125
11.86533116,4.1661499215344815,7.20467637147197,2.75188102686579
11.87008543,3.0740289072547426,5.967077116158566,2.2403288176381535
11.8748397,1.9371311228661283,4.663955690121676,1.6451046409681573
11.87959397,0.7744365619851008,3.3003102151633974,1.0064258537843935
11.88434824,-0.39518068634041537,1.8817496999768228,0.36596549218729174
11.88910246,-1.5531949881076637,0.41473507109868474,-0.23520869034042274
11.89385674,-2.6816404941271625,-1.0932307115796405,-0.7586308941124567
11.89861101,-3.7633008948817013,-2.633480743513441,-1.1702770553053392
11.90336528,-4.78188733406367,-4.19614039037795,-1.4421653142739477
11.90811955,-5.7222129865936635,-5.770163356905302,-1.5536482724518417
11.91287382,-6.570370560228508,-7.343441085700661,-1.4923441709825265
11.91762804,-7.313916075677232,-8.90297172924789,-1.2546717848275317
11.92238231,-7.942059040692264,-10.435069982976213,-0.8459723263608777
11.92713658,-8.445855822323484,-11.925597318442076,-0.2802203529105094
11.93189085,-8.818399937498485,-13.360193680057051,0.4206560777007914
11.93664512,-9.055000503554455,-14.72449574689811,1.2278088442399
11.94139939,-9.153338550846685,-16.004332362193125,2.1068050851871303
11.94615366,-9.113590427505292,-17.185893749496913,3.0192013211353337
11.95090788,-8.938508013935241,-18.255876822845817,3.9242853427658724
11.95566215,-8.633446661586094,-19.2016134453125,4.780910076010741
11.96041642,-8.206333411502406,-20.011191227820905,5.549341575641119
11.96517069,-7.667569937306994,-20.673577082800865,6.193043502797007
11.96992496,-7.029866677161975,-21.178752421529467,6.68032279306713
11.97467924,-6.308006703957547,-21.51786613055223,6.985765904808432
11.97943345,-5.518540021829898,-21.683407911460282,7.091402308841306
11.98418772,-4.679411237452468,-21.66940078183146,6.987541830121045
11.988942,-3.809526050921179,-21.47160796555787,6.6732449208974325
11.99369627,-2.928264813340347,-21.087746394985174,6.1563996108106736
11.99845054,-2.0549544574631353,-20.517696830152335,5.4533953730572815
12.00320481,-1.2083132527174882,-19.763699254715704,4.5884020442351146
12.00795903,-0.40588581664161594,-18.830521674050953,3.592280657607428
12.0127133,0.33651163514243826,-17.72559053344897,2.5011718138274013
12.01746757,1.0053139102087423,-16.459071439942313,1.3548251010408137
12.02222184,1.5896743007146277,-15.043889502301596,0.19474911404219936
12.02697611,2.0818535720514024,-13.495679345779209,-0.9377251843244692
12.03173038,2.4775078908181927,-11.832655830396895,-2.0033657158985005
12.0364846,2.775855061766944,-10.07539793762687,-2.9668388909381433
12.04123887,2.9797018749566657,-8.246540463170161,-3.798283563475992
12.04599314,3.095320444905575,-6.370371298072214,-4.474565680665419
12.05074741,3.1321681936698833,-4.472336283975494,-4.980139753245564
12.05550168,3.1024543921940726,-2.578458711759913,-5.307472422737071
12.0602559,3.020565378685024,-0.7146860416922828,-5.45701892828523
12.06501017,2.9023698506116293,1.0938181938404516,-5.436779324223109
12.06976444,2.76443404899014,2.8234145062806606,-5.261491474277234
12.07451871,2.623183519805801,4.45273272181688,-4.951538099582936
12.07927299,2.4940530481480696,5.963392404568069,-4.53165482820289
12.08402726,2.390669068052125,7.340666414218418,-4.029526990023221
12.08878147,2.324109112597395,8.574054943601334,-3.474357290836914
12.09353574,2.302280468359636,9.657738366737496,-2.8954767251167386
12.09829002,2.3294550886920597,10.590879975580881,-2.321058921437068
12.10304429,2.4059902336515537,11.377754170466641,-1.7769849972415834
12.10779856,2.5282547507349595,12.02768170498225,-1.2858931659357025
12.11255278,2.6887700935945924,12.554760855705997,-0.8664357211792681
12.11730705,2.8765638617288856,12.977391498017655,-0.5327559944448667
12.12206132,3.0777225081517434,13.317597600259518,-0.2941891603581573
12.12681559,3.276119390905771,13.600162211173975,-0.1551827003282147
12.13156986,3.4542848740545486,13.851597297242613,-0.11542443252109019
12.13632413,3.5943770317036106,14.098978549299435,-0.17015828566005387
12.14107835,3.67920506114146,14.368682319314082,-0.31066091003977286
12.14583262,3.6932531978225698,14.685067965672074,-0.5248464271468306
12.15058689,3.6236511325166725,15.069153866683362,-0.797962677708611
12.15534116,3.461037934965411,15.53733899851608,-1.113340613083115
12.16009543,3.2002704086940743,16.10022407212157,-1.4531591688601766
12.16484965,2.840933557361587,16.761586607678467,-1.7991909957399401
12.16960392,2.3876201162721427,17.51756282613876,-2.133499396043382
12.17435819,1.8499573573683536,18.356085690568655,-2.4390630053644404
12.17911246,1.2423719503088055,19.256622691096883,-2.7003113580596247
12.18386674,0.5835968838750172,20.190248955769416,-2.903560868601076
12.18862095,-0.10406229051297913,21.120081017435968,-3.037346665832159
12.19337522,-0.7956718826251381,22.002084246957036,-3.0926511047362015
12.1981295,-1.464783425835747,22.786252885140645,-3.0630346798814063
12.20288377,-2.08466412629704,23.4181461926605,-2.944679385558253
12.20763804,-2.629584659921045,23.84074800035101,-2.7363580357044284
12.21239226,-3.0760995854789455,23.99660046393105,-2.4393452947410896
12.21714653,-3.404254069737809,23.830146755386586,-2.057286857117913
12.2219008,-3.5986527103454393,23.290202485209516,-1.5960422164727919
12.22665507,-3.649331906567151,22.332462663083312,-1.0635138905592467
12.23140934,-3.5523861244922954,20.921940852226893,-0.46947213510246383
12.23616361,-3.3103100428614494,19.03523073598854,0.17462043787141798
12.24091783,-2.9320323778628556,16.6624783930255,0.8557847692231692
12.2456721,-2.432632536474372,13.80895680969015,1.5597067391323973
12.25042637,-1.832747443230595,10.496142962555647,2.2709326696315832
12.25518064,-1.1576921748043099,6.762212324002282,2.9730900460306877
12.25993491,-0.43633362840642087,2.6618857132879543,3.6491455227859446
12.26468913,0.30022947094449465,-1.7344114604319594,4.281711595806266
12.2694434,1.0201151529499313,-6.3420881572587104,4.853410984882652
12.27419767,1.692161581058959,-11.064602981625114,5.347303898652237
12.27895194,2.2874063741430306,-15.796299662452931,5.747378184184793
12.28370616,2.780462101599658,-20.425772284044207,6.0390962180446435
12.28846043,3.150711758933801,-24.839637227402974,6.209985657338318
12.2932147,3.3832562939732562,-28.92656006938233,6.25025422183604
12.29796897,3.4695591903095355,-32.581363119835615,6.15340184014633
12.30272325,3.407750373468005,-35.70902507341524,5.916796996008043
12.30747752,3.2025724476326407,-38.228380281675356,5.542178247440797
12.31223174,2.864975108804405,-40.07533264394435,5.036037360660516
12.316986,2.4113866595474795,-41.20541842993148,4.4098386320062195
12.32174028,1.8627127528821303,-41.59558279109723,3.6800313730315235
12.32649455,1.2431297493473554,-41.245074510489395,2.8678202816742533
12.33124882,0.5787517328176365,-40.175409999288604,1.9986714921127997
12.33600304,-0.10374463312267926,-38.42940743508902,1.101549424247168
12.34075731,-0.7784547076441136,-36.06934178092001,0.2078994214908832
12.34551158,-1.42146466652566,-33.174317741814306,-0.6495884417549977
12.35026585,-2.011891416223352,-29.836997257804054,-1.438380099101301
12.35502012,-2.53269607294818,-26.15984826464491,-2.127592877474531
12.35977434,-2.971240783173351,-22.251100541091358,-2.6895047687603415
12.36452861,-3.319576358230917,-18.22060200040647,-3.100991784860691
12.36928288,-3.5744649413819563,-14.175765239030262,-3.3448088402386453
12.37403715,-3.7371566272500463,-10.217780689053525,-3.410636860264766
12.37879137,-3.8129508336206657,-6.438250963699621,-3.2958311114473036
12.38354564,-3.8105818943667873,-2.916372853982314,-3.0058217832711467
12.38829991,-3.7414737856559253,0.2832390276909394,-2.5541363064541347
12.39305418,-3.6189113727582836,3.1120277250849373,-1.9620325911353065
12.3978084,-3.4571754583457337,5.538244452969778,-1.2577522751726766
12.40256267,-3.270686634865488,7.546983863397179,-0.4754222701439797
12.40731694,-3.0731988839240736,9.139544731196937,0.34634944698464104
12.41207121,-2.8770783982492585,10.332183625709098,1.166122485847147
12.41682548,-2.6926965987786904,11.154351082271907,1.9414434423738252
12.4215797,-2.5279591582023357,11.646516198811801,2.6307534990384798
12.42633397,-2.3879853921849454,11.85769618247557,3.1952967525793396
12.43108825,-2.2749449732612135,11.842812159213327,3.6009409826176983
12.43584252,-2.188051833557872,11.659991776604587,3.8198258277010786
12.44059679,-2.1237085607085526,11.367933219580562,3.8317603922858536
12.44535101,-2.075788712347295,11.023434832962934,3.625302756694637
12.45010528,-2.036039397634579,10.679180360146926,3.198467206325169
12.45485955,-1.9945822983403483,10.381852730739125,2.5590206853320843
12.45961382,-1.9404881122229434,10.170630297075254,1.7243474190485057
12.46436804,-1.8623972640462914,10.076099386472544,0.7208792173104922
12.46912231,-1.7491586811090314,10.119596933551612,-0.41689196993973654
12.47387658,-1.5904584701740005,10.312977652971727,-1.647783782009975
12.47863085,-1.3774114260632626,10.658782484111521,-2.9256219638661833
12.48338512,-1.1030903864366395,11.15076954640698,-4.201197707067478
12.48813934,-0.7629714352549788,11.774756111786882,-5.424399679924252
12.49289361,-0.35527673330101334,12.509710507991786,-6.546425416429737
12.49764788,0.11879883386951076,13.329026651708926,-7.5219691037050485
12.5024021,0.6549861433831133,14.201911179192514,-8.311279206797506
12.50715637,1.2459693220544648,15.094813873695363,-8.88198027661117
12.51191064,1.881540957586482,15.972836156097841,-9.210559577874697
12.51666491,2.5488786707699047,16.801059599390886,-9.283432308695623
12.52141918,3.232931723790436,17.545746410692907,-9.09752031263232
12.5261734,3.916901693466873,18.17537598413168,-8.660307528877281
12.53092767,4.582797269989885,18.661495024958253,-7.989367942367123
12.53568194,5.212040348285565,18.979372284633083,-7.111394759636468
12.54043621,5.786099000262115,19.108461609252924,-6.060790009140787
12.54519043,6.287122678081659,19.032687931097254,-4.877899621303511
12.5499447,6.698555976274288,18.740579300721425,-3.606998552517566
12.55469897,7.005709269581535,18.225273483460413,-2.294142403535384
12.55945324,7.196267303904746,17.484429685343844,-0.9850057077507381
12.56420746,7.260720105941843,16.520074638582372,0.2771770913512963
12.56896174,7.192704168546958,15.338407971283113,1.4534630545327942
12.57371601,6.989245566899828,13.949585240234022,2.5107563482644495
12.57847028,6.65090029781164,12.367489138858142,3.4230006553078214
12.58322455,6.181790571707312,10.609491189593935,4.171964407766725
12.58797877,5.589538900298205,8.696198655874872,4.747599294871687
12.59273304,4.885104486718572,6.651175333220841,5.147976551912245
12.59748731,4.082528520412405,4.500620994530502,5.378827889926058
12.60224153,3.1985964416075356,2.272993026430832,5.452737415668111
12.6069958,2.252426106822935,-0.0014445985518191204,5.388046580607885
12.61175007,1.2649912148984155,-2.2911554623735664,5.207545445752338
12.61650434,0.25858960868573466,-4.563951484517693,4.937030038004158
12.62125861,-0.7437335199511851,-6.787694965471319,4.603807287934451
12.62601283,-1.7187966273978097,-8.93106631645164,4.235226230674777
12.6307671,-2.643914662346974,-10.964371297932693,3.8573073197230494
12.63552137,-3.4975394503803416,-12.86035161083377,3.4935315942056366
12.64027559,-4.259891187557248,-14.594954651717607,3.1638390127641425
12.64502986,-4.913562665681021,-16.148013806702252,2.8838715008055433
12.64978413,-5.444076304217889,-17.503791407225314,2.664481869076191
12.6545384,-5.840373022117173,-18.65134315443551,2.5115151748360707
12.65929267,-6.095211639099486,-19.584674848634936,2.42585478481172
12.66404689,-6.2054582323936245,-20.30267796537425,2.4037122028082596
12.66880116,-6.172247135507014,-20.808847889565413,2.437128779286645
12.67355543,-6.000999307290646,-21.110805325096305,2.51464972532109
12.6783097,-5.70128951217906,-21.219655592751778,2.6221267848484198
12.68306392,-5.286560660315227,-21.149230732670947,2.743605025252675
12.68781819,-4.773691082008894,-20.9152648588904,2.862250461257236
12.69257246,-4.182427781054706,-20.53455425437803,2.9612775555227073
12.69732668,-3.5347052869873408,-20.024150987692,3.0248383699326036
12.70208095,-2.8538752313942863,-19.400633275958135,3.0388381467500323
12.70683522,-2.163875966363532,-18.679488221164203,2.9916456018796924
12.7115895,-1.4883742917853875,-17.874633571398643,2.874670486544411
12.71634371,-0.8499126311396558,-16.99809537493741,2.6827861679569223
12.72109798,-0.2690948395266005,-16.05984834287101,2.4145811002752153
12.72585226,0.23615767073009442,-15.067815951350783,2.0724300127600452
12.73060653,0.6512505331209889,-14.028018303115083,1.6623832759565005
12.73536075,0.9654366191789517,-12.944847954217765,1.1938809848099317
12.74011502,1.172191379347156,-11.821447604796742,0.679306481067045
12.74486929,1.2694282635362517,-10.660158939880212,0.13340189742272224
12.74962356,1.2595450099829777,-9.46300906121138,-0.42742462405964743
12.75437778,1.149297768831532,-8.232199850301813,-0.9858645876970477
12.75913205,0.9495063593254629,-6.970566169357479,-1.5245082132163348
12.76388632,0.6746002893847329,-5.681970970914854,-2.02663578884177
12.76864059,0.3420213444524498,-4.371609109707336,-2.4769613156665797
12.77339481,-0.02849562168198212,-3.046196870010049,-2.862292555553317
12.77814908,-0.41573689328594055,-1.7140307707754903,-3.172078359863098
12.78290335,-0.797888141165805,-0.38490678140903867,-3.398822779074322
12.78765757,-1.1534428899701972,0.9301007292986505,-3.5383547769413166
12.79241184,-1.4621059062697033,2.218992598943755,-3.5899511396310633
12.79716611,-1.705656095224247,3.469315117142745,-3.5563173242253714
12.80192038,-1.8687346323678524,4.668723330448645,-3.443435933095785
12.8066746,-1.9395263148343174,5.805607034761253,-3.2602952037632815
12.81142887,-1.9103053852947764,6.869743524530722,-3.018510858868813
12.81618314,-1.777821328911038,7.852937234467822,-2.731854703783812
12.82093741,-1.5435054042869372,8.74960450320736,-2.4157034468574756
12.82569163,-1.2134849747157808,9.557262155577641,-2.0864221873596343
12.8304459,-0.7983999854887206,10.27688165145588,-1.7606993575330696
12.83520017,-0.31302394223213614,10.913076179191162,-1.4548535833996241
12.83995439,0.2242999372577513,11.474095989980434,-1.1841373243291522
12.84470866,0.7923886053257156,11.971616898926893,-0.9620661610658867
12.84946293,1.3680888369269764,12.42031747790722,-0.7998049637676108
12.8542172,1.9272538764417195,12.837251332941362,-0.7056419389610988
12.85897142,2.4457889390120773,13.241031469405604,-0.6845784394129939
12.86372569,2.9007233416385927,13.650853749575564,-0.7380567902122322
12.86847996,3.271264371313719,14.085395570129007,-0.8638410137482451
12.87323424,3.5397869261649086,14.561633870407256,-1.0560571531501641
12.87798845,3.6927136938946,15.093633144056696,-1.3053917733271152
12.88274272,3.7212433152044597,15.691358979912257,-1.599439811997279
12.887497,3.621888665052576,16.35957553477742,-1.923186594814948
12.89225121,3.396794009319388,17.09688601324844,-2.2596036025660253
12.89700549,3.0538082120571217,17.894973524679827,-2.5903334929495423
12.90175976,2.606301133027711,18.73809549561682,-2.896436972234201
12.90651403,2.0727214865789216,19.602878096695367,-3.15917237616631
12.91126824,1.4759062335200648,20.458447927486507,-3.360778095286711
12.91602252,0.8421635086332745,21.26692660589941,-3.4852280212605957
12.92077679,0.20016263678792573,21.98430015202023,-3.5189308765920235
12.92553101,-0.42032450920708736,22.561659495963244,-3.451345741632342
12.93028528,-0.9897771749556973,22.94679158021679,-3.2754885652795354
12.93503955,-1.4803132603507905,23.086083002859162,-2.988308111592605
12.93979377,-1.8670445684653256,22.926680673383085,-2.590914621259298
12.94454804,-2.1293318314028533,22.418837279062856,-2.088650249487548
12.94930231,-2.2518735646442805,21.518354271762476,-1.4909967977956535
12.95405658,-2.225568743463483,20.189022429117813,-0.811323078390956
12.9588108,-2.0481029701885825,18.404950731230194,-0.06648108382314019
12.96356507,-1.7242206608639015,16.152669243564688,0.7237334576887566
12.96831934,-1.2656610573672706,13.432891737874376,1.5372350812400912
12.97307356,-0.6907526769181694,10.261829552091129,2.350391958005742
12.97782783,-0.023678225681013902,6.671960044948087,3.1388308978517863
12.9825821,0.7065608493607187,2.7121709612802647,3.878275150158593
12.98733637,1.4674349185046744,-1.552774261154402,4.545386301632454
12.99209059,2.22437231436755,-6.04347647313405,5.118582624449376
12.99684486,2.9423697682412953,-10.667839643334073,5.5788079498492245
13.00159913,3.58764723015689,-15.323666908775257,5.910227326893164
13.0063534,4.1292623302632485,-19.901836203015648,6.100828228953146
13.01110762,4.540599213148586,-24.289942894446543,6.14290881218079
13.01586189,4.80065066876449,-28.376265160406824,6.033437683890164
13.02061616,4.895021649882431,-32.053881599171234,5.774272802728645
13.02537038,4.8165964394567435,-35.22475214195266,5.372230463856077
13.03012465,4.565830567012085,-37.80356486495893,4.838998608623199
13.03487892,4.1506511406843805,-39.721154663098645,4.190891565450554
13.03963319,3.5859739033850015,-40.92731597800943,3.4484456642156394
13.04438741,2.89286974358272,-41.392860556772135,2.635857615053638
13.04914168,2.0974350839813742,-41.11081063359635,1.7802712893207477
13.05389595,1.2294374297725492,-40.09666484262453,0.9109244438838556
13.05865017,0.3208181518353478,-38.38772495684038,0.05817492915658237
13.06340444,-0.5958609607818618,-36.041522539209005,-0.7475649034426636
13.06815871,-1.4889422574559201,-33.13343219322652,-1.4769479853169105
13.07291293,-2.3290891886158,-29.75359895582474,-2.1028219180394885
13.0776672,-3.090527390375305,-26.003338811661468,-2.601319643181515
13.08242147,-3.752054993904257,-21.991191771171387,-2.952863124363319
13.08717575,-4.297782572119321,-17.828816104359113,-3.1430351902624523
13.09192996,-4.717579345919023,-13.626910768161185,-3.1632804422587277
13.09668424,-5.00721845115948,-9.491342005666922,-3.011403167747456
13.1014385,-5.168229426358596,-5.519631049753336,-2.691837850371693
13.10619272,-5.207479973720376,-1.7979345286649628,-2.2156758760033703
13.110947,-5.136520956828724,1.601380658420197,-1.6004403704074535
13.11570127,-4.97073813515991,4.6214987303076,-0.8696097848477986
13.12045548,-4.7283610305676795,7.222216816892652,-0.05189982008851136
13.12520976,-4.429383438180245,9.380303962563152,0.8196776070490966
13.12996403,-4.094451437165588,11.089184627768658,1.7089506660194669
13.13471824,-3.743773459093487,12.358001070523281,2.577883005702281
13.13947252,-3.3961032707879677,13.210131758786131,3.3879844782749426
13.14422679,-3.067840944501875,13.681260746379605,4.101787154737059
13.14898101,-2.7722894116581465,13.817105350106889,4.684331953314546
13.15373528,-2.5190954711051226,13.670916370286212,5.104608467223668
13.15848955,-2.313894611539152,13.300866623730336,5.336889939165437
13.16324377,-2.1581691535766283,12.767440045902067,5.361906896636768
13.16799804,-2.0493194222337205,12.130925587029026,5.167806771664667
13.17275231,-1.9809382894698357,11.449108241945476,4.750852858435478
13.17750658,-1.9432708135488046,10.77523459594369,4.115824130500543
13.1822608,-1.923833147436716,10.156313098356225,3.2760875924298043
13.18701507,-1.908158642107719,9.631790792795012,2.2533267470296074
13.19176934,-1.8806343194549764,9.232629341650782,1.0769231074175942
13.19652356,-1.8253877575171151,8.980784749321396,-0.216997920470665
13.20127783,-1.7271829883676653,8.88907800204233,-1.5868304998277447
13.2060321,-1.5722842801574466,8.96142857242891,-2.987019942337121
13.21078632,-1.3492486324956736,9.19340990617489,-4.36980692459571
13.21554059,-1.049611370358004,9.573075977070259,-5.687116036848263
13.22029486,-0.6684342219831751,10.082000964467124,-6.892509733691385
13.22504908,-0.20469149759233984,10.696470128524671,-7.943121068479614
13.22980335,0.33852280944255136,11.388758964817656,-8.801474478794562
13.23455762,0.9539762839112083,12.12843954989415,-9.437103866900602
13.23931184,1.630468707669178,12.883657432486958,-9.827881879835227
13.24406611,2.353184626511504,13.622329267865718,-9.960984572468934
13.24882038,3.104212219002875,14.313220379726374,-9.833432412912634
13.2535746,3.8632050994645715,14.926872107624666,-9.45217150011759
13.25832887,4.608156928469971,15.436360406177824,-8.833685762309855
13.26308314,5.316253394212925,15.817878809039243,-8.003158887332031
13.26783736,5.964762672907762,16.05114975746307,-6.993231388442213
13.27259163,6.5319241363798195,16.119677797789155,-5.8424217500529725
13.2773459,6.997795956613568,16.01086575637608,-4.593299465772631
13.28210012,7.345025304322945,15.716020236154625,-3.2905105949476883
13.28685439,7.559509814733297,15.230275260613832,-1.978762334316084
13.29160866,7.630925487525604,14.552462411373355,-0.7008718825288285
13.29636288,7.553103667966891,13.68495244952985,0.5040228357573548
13.30111715,7.324247651219766,12.633487624818489,1.602006099099131
13.30587142,6.946987216869942,11.407016427999407,2.5656135721228743
13.31062564,6.428276556752138,10.01753437879621,3.374700065778163
13.31537991,5.779147212636112,8.479926533200254,4.0169192801721465
13.32013418,5.014332494010158,6.811800624938786,4.4878102036783565
13.3248884,4.1517832171404585,5.033294868169432,4.790505213965214
13.32964267,3.2120964613807352,3.166841983975997,4.935093398867088
13.33439694,2.217879519978316,1.236871262387518,4.9376883018622815
13.33915116,1.1930706290158402,-0.7305665397703781,4.81926150405835
13.34390543,0.16223678108563372,-2.70826114929379,4.60431173867893
13.3486597,-0.8501326198212249,-4.668393627347684,4.319443408481574
13.35341392,-1.820318971524876,-6.583168991165921,3.9919284843463116
13.35816819,-2.726038414638585,-8.425513438024197,3.6483220665036766
13.36292246,-3.547061147594432,-10.169808939350895,3.3131948968746783
13.36767668,-4.265771315229743,-11.792628971493869,3.0080365756507854
13.37243095,-4.867653207416939,-13.273432653432218,2.75037199351972
13.37718522,-5.341690200740416,-14.595172155934684,2.5531211705121915
13.38193944,-5.680663823115277,-15.744770994344917,2.424219620141394
13.38669371,-5.881341612192541,-16.71343863374426,2.366502840143836
13.39144799,-5.944544280733811,-17.496798519552485,2.377845185020571
13.3962022,-5.875085402755818,-18.094820458123202,2.451531157494493
13.40095647,-5.681580639080352,-18.51156245049518,2.576827162043633
13.40571074,-5.376128435809489,-18.75474008055395,2.7397148996005214
13.41046496,-4.97386985862172,-18.83515219246758,2.923744101236967
13.41521924,-4.492441239469155,-18.765999198952095,3.1109615522985163
13.41997351,-3.951338974994557,-18.562134814958295,3.2828741974462354
13.42472772,-3.371220536442818,-18.239293544463635,3.421405647151404
13.429482,-2.7731690988252615,-17.813335247111777,3.509807374354102
13.43423627,-2.177950931394218,-17.299544998206198,3.533488499808928
13.43899049,-1.6052947258091426,-16.712021648269705,3.4807316137446525
13.44374476,-1.0732204302864037,-16.063182382663005,3.343266744583563
13.44849903,-0.5974421303271369,-15.363403532103915,3.116681353128408
13.45325324,-0.19086543965068276,-14.620810203817141,2.800650935360134
13.45800752,0.13680483003248822,-13.841219291652484,2.398982210504602
13.46276174,0.37933587164120797,-13.028232411085774,1.9194686871916042
13.467516,0.5341109506554482,-12.183467653321443,1.3735663565978147
13.47227028,0.6021448840311057,-11.306912107340946,0.7759050356696353
13.47702455,0.5879735976467866,-10.397371122736832,0.14365812449653817
13.48177877,0.4994240245072038,-9.452985441328035,-0.5042000926405467
13.48653304,0.34727362733678574,-8.471783727875815,-1.1477152841768785
13.49128726,0.1448113125397097,-7.452235833706682,-1.7668139746473195
13.49604153,-0.09268642253277158,-6.393771561439498,-2.342164373855917
13.5007958,-0.3485484199371633,-5.29723101928879,-2.855996878950583
13.50555002,-0.605353420168758,-4.16521602131127,-3.29284613328465
13.51030429,-0.8456071058264027,-3.0023173624986135,-3.6401811251822944
13.51505856,-1.052430952977033,-1.8151998921685721,-3.888896809976436
13.51981278,-1.2102409969830585,-0.6125356524905257,-4.033649604692362
13.52456705,-1.3053938766883053,0.5952156273984072,-4.073028798499886
13.52932127,-1.3267773883203076,1.7961702535950512,-4.009565132930889
13.53407554,-1.2663233532634066,2.977511325875956,-3.8495853509998064
13.53882981,-1.119421917867586,4.126081406493121,-3.60292671075296
13.54358403,-0.8852184556906294,5.229045204802625,-3.2825282871615142
13.5483383,-0.5667770412758976,6.274585154751843,-2.903916897528699
13.55309257,-0.1710980632567986,7.252589437688608,-2.484605560619744
13.55784679,0.2910179816472816,8.155290891165691,-2.043422510487645
13.56260106,0.8052631122393259,8.977816500042872,-1.5997897739224067
13.56735533,1.3542674021576726,9.718610712845198,-1.1729726132126437
13.57210955,1.9181874118084996,10.379701356332536,-0.7813244631027824
13.57686382,2.4754209585287703,10.966783976260615,-0.441555368204881
13.58161809,3.003425515127924,11.489108527512286,-0.16805406924375768
13.58637231,3.4796120420089047,11.959161068568099,0.027706197213446693
13.59112658,3.8822814477205756,12.392142201075838,0.13765077416479699
13.5958808,4.191567292199414,12.80525323908988,0.15745307271338715
13.60063507,4.390345959048235,13.216810316814925,0.08673458771904755
13.60538934,4.465074537457208,13.64521563237265,-0.07089307303876616
13.61014356,4.406517309309045,14.107823499103041,-0.30794526566183505
13.61489783,4.210324229716604,14.619746498463275,-0.613334746098975
13.6196521,3.8774292055770494,15.192653426637952,-0.972783654308386
13.62440632,3.414242262488284,15.833615515905997,-1.3693600696572812
13.62916059,2.8326176493650648,16.544060219457418,-1.7841179624085606
13.63391486,2.1495892238931145,17.318892336772823,-2.1968162295321236
13.63866908,1.3868746259043425,18.145840141935217,-2.58669045491888
13.64342335,0.5701602460296722,19.00507925404315,-2.9332499474282216
13.64817757,-0.27181069043994877,19.869179164736167,-3.2170722630088613
13.65293184,-1.1083149396845344,20.703406668626645,-3.420567645721284
13.65768611,-1.907850338501442,21.466407156984648,-3.528686614472869
13.66244033,-2.6394132991845667,22.111269240268342,-3.5295453789307185
13.6671946,-3.27379921863165,22.586961022827477,-3.414945994985494
13.67194887,-3.7848687545638366,22.840108225170454,-3.1807712050299717
13.67670309,-4.150721792211094,22.81706593725772,-2.827237739371866
13.68145736,-4.354722614980272,22.466217816587534,-2.358996469903076
13.68621158,-4.386324515190494,21.740419812971144,-1.7850731751951816
13.69096585,-4.2416497723777,20.599490919292176,-1.1186496600297824
13.69572012,-3.923791246841547,19.01264201900082,-0.37669125407229087
13.70047434,-3.4428142344942407,16.960726633517666,0.4205671868698282
13.70522861,-2.815451021261032,14.438195166919545,1.2502592606001954
13.70998283,-2.064495019690635,11.454637804447941,2.087627168426717
13.7147371,-1.2179157464504926,8.03581098001017,2.9068391718507036
13.71949137,-0.3077295638223179,4.22405839892295,3.6818575912672507
13.72424559,0.631326495336466,0.07805974227744271,4.387329624889928
13.72899986,1.5632598725074132,-4.32813222649273,4.999473047308764
13.73375413,2.452360277372697,-8.906773361160258,5.49692920802211
13.73850835,3.2647381686337185,-13.558800606765283,5.861556579577511
13.74326262,3.969789506555891,-18.176830409215995,6.0791393383054935
13.74801684,4.541513483083867,-22.648681710588047,6.139987092890136
13.75277111,4.959614925175899,-26.861288067925052,6.039403963725063
13.75752538,5.210332134603853,-30.70483402590371,5.778007861741519
13.7622796,5.2869441642792525,-34.07692860244788,5.361884119537448
13.76703387,5.189928749822595,-36.88661600836258,4.802561560859004
13.77178814,4.926762593078111,-39.05802262382054,4.116803393996365
13.77654236,4.511377983816413,-40.5334511943331,3.326209707477449
13.78129663,3.9633117199704673,-41.27575830701061,2.4566330214367897
13.78605085,3.3066015245189435,-41.26988794471774,1.5374140051381326
13.79080512,2.5684995774081374,-40.523479409668134,0.6004517216635463
13.79555939,1.7780811714992857,-39.06651864937211,-0.32086843839306806
13.80031361,0.9648286503772194,-36.95005439452508,-1.1928563720484073
13.80506788,0.15726728160883371,-34.24405089352865,-1.9827665065249307
13.8098221,-0.6182783605257004,-31.034493788548815,-2.6600654816348346
13.81457637,-1.3387503229838251,-27.419901645461028,-3.197664958369633
13.81933064,-1.9852018272063516,-23.507420683592738,-3.573065841583288
13.82408486,-2.543391297100238,-19.408693552631128,-3.769363282355892
13.82883913,-3.0041114037430527,-15.235694938882895,-3.776067546454923
13.8335934,-3.363252802460874,-11.09671846310844,-3.589703262052672
13.83834762,-3.6216152347415123,-7.092682269634092,-3.2141580056393306
13.84310189,-3.784490062690533,-3.3138966270552,-2.660760289021486
13.84785611,-3.8610477366994527,0.16259239387945734,-1.948076616507913
13.85261038,-3.8635709078427984,3.2750016522950824,-1.101427280284249
13.8573646,-3.806578724278469,5.978104586607373,-0.15213079387438963
13.86211887,-3.705890242764747,8.243806069773596,0.863502908763357
13.86687314,-3.5776749123863243,10.061016775584498,1.905400469250616
13.87162736,-3.437535936241345,11.434874314043844,2.931135032282057
13.87638163,-3.299668265875502,12.385383237336809,3.8974707001890643
13.8811359,-3.176127366787251,12.945565976609902,4.761987424075847
13.88589012,-3.076238078919832,13.159231343051317,5.484727318603582
13.89064439,-3.0061652631281857,13.078476185181355,6.029800466112335
13.89539861,-2.9686598423174093,12.7610391688601,6.366887521915152
13.90015288,-2.962985659587714,12.267623707169422,6.472577939095903
13.90490715,-2.9850246014109363,11.659300290021209,6.331486422504671
13.90966137,-3.027549955283451,10.99508749014267,5.937096271392219
13.91441564,-3.0806512357627027,10.329796517897767,5.292286505805072
13.91916986,-3.1322879228165434,9.712207207480368,4.409509955608427
13.92392413,-3.1689448600419303,9.183624630597079,3.3106015997610956
13.92867835,-3.1763585534239334,8.776846053543418,2.026210065999518
13.93343262,-3.1402813528103763,8.515548563283355,0.5948599376183913
13.93818689,-3.0472495227169323,8.414089216413712,-0.9383321252443368
13.94294111,-2.885321526955434,8.477692751827918,-2.523249020645519
13.94769538,-2.6447544404622514,8.702987375325197,-4.1066192893916975
13.9524496,-2.3185891956360996,9.078837348194115,-5.634050640469232
13.95720387,-1.9031192564440622,9.587412403032264,-7.052172043656394
13.96195814,-1.398222140389884,10.205428515894011,-8.310796159868774
13.96671236,-0.8075388013926096,10.905492288353763,-9.365007653372754
13.97146663,-0.13849205456028607,11.657482028024297,-10.177080348013046
13.97622085,0.5978582334915027,12.429902374509703,-10.71812778128934
13.98097512,1.3871187299249663,13.191155766189594,-10.969398327504882
13.98572934,2.2120137562517987,13.910682900925138,-10.923138864353717
13.99048361,3.0529660478085705,14.559935206977702,-10.582970548342635
13.99523788,3.888783031416344,15.113154588515703,-9.963745666526519
13.9999921,4.697419160562476,15.54794853818551,-9.090883355776649
14.00474637,5.456780868205847,15.845661294256136,-7.999211606373351
14.00950059,6.145538454220479,15.991553347136717,-6.7313712621449335
14.01425486,6.743908946662172,15.974811657494717,-5.335862854168353
14.01900913,7.234375734043533,15.788420873343151,-3.864837259250076
14.02376335,7.602314459129922,15.428931106585669,-2.371744817341559
14.02851762,7.836500021671002,14.896160030624076,-0.9089637733453787
14.03327184,7.929476134469127,14.192865981839613,0.47447238074984943
14.03802611,7.877776189752426,13.324424517402143,1.7349373382191253
14.04278038,7.681991680219147,12.298534009809291,2.8359670693666166
14.0475346,7.346691601446097,11.124967148333434,3.749629370100038
14.05228887,6.880202753103636,9.81537560174886,4.4574518955685
14.05704309,6.294266365167588,8.383145503991694,4.950876857219281
14.06179736,5.6035907982851105,6.843292721645666,5.231235305763265
14.06655158,4.825323065312385,5.212379827276583,5.3092580321722425
14.07130585,3.9784635089675033,3.5084319757061646,5.204162440873195
14.07606012,3.0832481480790057,1.7508268968053358,4.942374220874497
14.08081434,2.1605220959259723,-0.03986483613244895,4.555958360489979
14.08556861,1.2311253085642175,-1.8421092971017299,4.080845351540395
14.09032283,0.31530907630034627,-3.6337221183922264,3.554944899760904
14.0950771,-0.5678015039507361,-5.392270017459297,3.0162409433344934
14.09983132,-1.400687009469243,-7.095556190354614,2.500958397999086
14.10458559,-2.1678459921993865,-8.72217413174071,2.0418842561781747
14.10933986,-2.8561335621685733,-10.252103907778361,1.6669143138022566
14.11409408,-3.455021996299057,-11.667315728157648,1.39788296560248
14.11884835,-3.9567811022199573,-12.952339365794705,1.2497181779939033
14.12360257,-4.356577704333237,-14.094756072290233,1.2299475222431075
14.12835684,-4.652494829652137,-15.085572941605013,1.3385643591814211
14.13311106,-4.8454720181280155,-15.91944781842953,1.5682463571732368
14.13786533,-4.939168929629114,-16.594744504183332,1.904902314309637
14.1426196,-4.939755419888086,-17.11341148614185,2.3285088483564733
14.14737382,-4.855632798226347,-17.480691054090588,2.8141870789495638
14.15212809,-4.697093175896732,-17.70467801330525,3.333461881603479
14.15688231,-4.475926540786995,-17.795757111549438,3.8556428791550155
14.16163658,-4.204988073390672,-17.765955138906428,4.349266335955894
14.1663908,-3.897740720240062,-17.628247356734885,4.783539247358341
14.17114507,-3.567789686212335,-17.395858764273274,5.129730103743431
14.17589934,-3.2284260285888684,-17.08159914426156,5.362454661746895
14.18065356,-2.8921958841172244,-16.6972672556997,5.460809721343448
14.18540783,-2.570510135724037,-16.253154338923473,5.409313676435441
14.19016205,-2.2733067530042725,-15.757670623852077,5.1986196167483625
14.19491632,-2.0087749711173206,-15.21711114230264,4.825974889849178
14.19967054,-1.7831473157717472,-14.635569200534897,4.295409966729126
14.20442481,-1.600562579395328,-14.014997740282956,3.6176488474752264
14.20917903,-1.4630003950228172,-13.355410883161385,2.8097428628634433
14.2139333,-1.3702860832430852,-12.655210572723407,1.894439456953502
14.21868757,-1.3201629215570743,-11.911616702505743,0.8993072774390827
14.22344179,-1.3084278346855864,-11.121173672483343,-0.1443515053707087
14.22819606,-1.3291256407448013,-10.280302120352783,-1.2027615171832793
14.23295028,-1.3747962822407553,-9.385861793396309,-2.2410584486472804
14.23770455,-1.4367687680381886,-8.435690350429391,-3.2247409987369773
14.24245877,-1.5054947387530229,-7.429083500673228,-4.121127976034499
14.24721304,-1.5709135976106732,-6.367184442842177,-4.900753728028412
14.25196726,-1.6228400182319895,-5.253255123104593,-5.5386335399552635
14.25672153,-1.6513633969370716,-4.092808303427533,-6.015332975015384
14.2614758,-1.6472476104375329,-2.8935875439583456,-6.31778242117052
