"Time (s)","Acceleration x (m/s^2)","Acceleration y (m/s^2)","Acceleration z (m/s^2)"
4.022718940E-1,-3.272873640E0,4.496310711E0,4.199429989E0
4.072708940E-1,-2.760514498E0,2.293645144E0,3.378218651E0
4.122708940E-1,-2.205059767E0,3.040636182E-1,2.978386879E0
4.172708940E-1,-1.661576033E0,-1.620874524E0,2.964021683E0
4.222708940E-1,-1.237802267E0,-3.315969467E0,3.148375273E0
4.272708940E-1,-9.217676520E-1,-4.814739704E0,3.517082214E0
4.322668940E-1,-6.967126727E-1,-6.009745598E0,4.091690540E0
4.372670600E-1,-6.296750307E-1,-6.811803341E0,4.896441936E0
4.422672020E-1,-7.278373241E-1,-7.266701221E0,5.784690380E0
4.472673270E-1,-1.005564690E0,-7.472602844E0,6.725611687E0
4.522673270E-1,-1.340752959E0,-7.549217224E0,7.630620003E0
4.572673270E-1,-1.843535304E0,-7.362469673E0,8.545205116E0
4.622673270E-1,-2.336740971E0,-7.139808655E0,9.256282806E0
4.672673270E-1,-2.779668093E0,-6.998550892E0,9.656114578E0
4.722673270E-1,-3.201047659E0,-6.905177116E0,9.766247749E0
4.772673270E-1,-3.605667830E0,-6.747159481E0,9.617807388E0
4.822673270E-1,-3.995922565E0,-6.450278759E0,9.325715065E0
4.872673890E-1,-4.386177540E0,-6.045658588E0,8.889969826E0
4.922674470E-1,-4.807557106E0,-5.533299446E0,8.576330185E0
4.972675020E-1,-5.248389244E0,-5.054459095E0,8.138191223E0
5.022675020E-1,-5.772719383E0,-4.642356873E0,7.546823025E0
5.072675020E-1,-6.335357189E0,-4.309563160E0,7.261912823E0
5.122673590E-1,-6.883629322E0,-4.050989151E0,7.144597054E0
5.172674040E-1,-7.599495411E0,-3.907337189E0,7.197269440E0
5.222674470E-1,-8.595483780E0,-3.809175014E0,7.235576630E0
5.272674880E-1,-9.512462616E0,-3.610456228E0,7.142202854E0
5.322674880E-1,-1.016129112E1,-3.438073635E0,6.988974094E0
5.372674880E-1,-1.086039829E1,-3.253720045E0,6.950666904E0
5.422674880E-1,-1.164330196E1,-2.975992680E0,6.974608898E0
5.472675230E-1,-1.243817711E1,-2.693476915E0,7.020098686E0
5.522675570E-1,-1.308940029E1,-2.473210335E0,7.075165272E0
5.572675900E-1,-1.368316174E1,-2.322375536E0,7.228394032E0
5.622675900E-1,-1.424101067E1,-2.238578558E0,7.436689854E0
5.672675900E-1,-1.475127506E1,-2.214636564E0,7.714416981E0
5.722675900E-1,-1.516786671E1,-2.140416384E0,7.932289600E0
5.772675900E-1,-1.548390102E1,-1.980004787E0,8.025663376E0
5.822682560E-1,-1.568022537E1,-1.740584612E0,7.999327183E0
5.872682220E-1,-1.572092724E1,-1.412579060E0,7.896376610E0
5.922682220E-1,-1.566586018E1,-1.089361787E0,7.793426037E0
5.972682220E-1,-1.550305462E1,-7.589619160E-1,7.704840183E0
6.022682550E-1,-1.532588387E1,-4.692635238E-1,7.654561996E0
6.072682880E-1,-1.509843445E1,-2.154781520E-1,7.654561996E0
6.122682880E-1,-1.483986092E1,-3.591302410E-2,7.683292389E0
6.172682880E-1,-1.454507446E1,3.112462163E-2,7.714416981E0
6.222682880E-1,-1.422664547E1,3.591302410E-2,7.697657585E0
6.272682880E-1,-1.393215942E1,2.633621916E-2,7.621043205E0
6.322682880E-1,-1.370231533E1,4.548983276E-2,7.479785442E0
6.372682540E-1,-1.354429817E1,1.101332754E-1,7.266701221E0
6.422682540E-1,-1.344853020E1,1.915361285E-1,7.032069683E0
6.472682540E-1,-1.348444366E1,2.801215947E-1,6.737582684E0
6.522682870E-1,-1.362570095E1,3.639186621E-1,6.481403351E0
6.572682870E-1,-1.397286034E1,4.620809257E-1,6.320991993E0
6.622683870E-1,-1.446127796E1,5.650315881E-1,6.280290127E0
6.672683530E-1,-1.507688618E1,6.967126727E-1,6.347328186E0
6.722683530E-1,-1.579993534E1,8.595184088E-1,6.502951145E0
6.772683530E-1,-1.662354088E1,1.072602391E0,6.747159481E0
6.822683860E-1,-1.749024200E1,1.350329757E0,7.058405876E0
6.872683860E-1,-1.831863594E1,1.709460020E0,7.429507256E0
6.922683860E-1,-1.898661804E1,2.061407566E0,7.805397034E0
6.972683520E-1,-1.942236328E1,2.398990154E0,8.233959198E0
7.022683180E-1,-1.968093681E1,2.681505919E0,8.621819496E0
7.072682840E-1,-1.969769669E1,2.885013103E0,8.976161003E0
7.122682840E-1,-1.955164909E1,2.975992680E0,9.270648003E0
7.172683170E-1,-1.927871132E1,2.928108692E0,9.517251015E0
7.222683500E-1,-1.891000366E1,2.777273893E0,9.725546837E0
7.272683830E-1,-1.842637444E1,2.568978310E0,9.862015724E0
7.322684160E-1,-1.775599861E1,2.214636564E0,1.024748230E1
7.372684160E-1,-1.632666016E1,1.264138460E0,1.208144093E1
7.422683820E-1,-1.477282333E1,2.513911724E-1,1.437029743E1
7.472683480E-1,-1.333121395E1,-2.537853718E-1,1.568740845E1
7.522683480E-1,-1.237592793E1,-2.226607651E-1,1.566346645E1
7.572683480E-1,-1.184680939E1,3.734954596E-1,1.365682602E1
7.622683810E-1,-1.137036324E1,8.164227605E-1,1.110939503E1
7.672683810E-1,-1.084842682E1,7.996633649E-1,8.949825287E0
7.722683810E-1,-1.036240387E1,3.543418646E-1,7.769483566E0
7.772683810E-1,-9.991303444E0,-4.022258818E-1,7.429507256E0
7.822683810E-1,-9.727940559E0,-1.031900883E0,7.082347870E0
7.872683810E-1,-9.572318077E0,-1.307234168E0,6.366481781E0
7.922683470E-1,-9.304166794E0,-1.520318031E0,5.406406879E0
7.972683470E-1,-9.059958458E0,-1.496376038E0,4.273650169E0
8.022683470E-1,-8.937853813E0,-1.460463047E0,3.229778051E0
8.072683800E-1,-9.069535255E0,-1.493981838E0,1.948880196E0
8.122683800E-1,-9.364022255E0,-1.331176162E0,1.012747288E0
8.172683800E-1,-9.462183952E0,-1.520318031E0,6.871358752E-1
8.222683460E-1,-9.723152161E0,-1.290474772E0,-2.657563984E-1
8.272683120E-1,-9.244312286E0,-2.114080191E0,-8.403648138E-1
8.322681780E-1,-9.251494408E0,-2.300827742E0,-1.084573388E0
8.372681780E-1,-9.170091629E0,-2.279279947E0,-1.747767210E0
8.422681780E-1,-8.760683060E0,-2.583343744E0,-2.308010340E0
8.472682110E-1,-8.272266388E0,-3.306392431E0,-2.822763920E0
8.522682440E-1,-7.891588211E0,-4.019864559E0,-3.239354849E0
8.572682770E-1,-7.649773598E0,-4.522646904E0,-3.572149038E0
8.622678430E-1,-7.510910034E0,-4.812345505E0,-3.950432777E0
8.672678090E-1,-7.367258072E0,-4.963479519E0,-4.405331135E0
8.722677750E-1,-7.178115845E0,-5.035305500E0,-4.879383087E0
8.772677750E-1,-6.974608898E0,-5.035305500E0,-5.238812447E0
8.822677750E-1,-6.737582684E0,-5.006575108E0,-5.356128693E0
8.872678080E-1,-6.512527943E0,-4.917989731E0,-5.116708279E0
8.922678080E-1,-6.294655323E0,-4.857835293E0,-4.606443882E0
8.972678080E-1,-6.148609161E0,-4.690241337E0,-3.562572241E0
9.022677740E-1,-6.100725174E0,-4.378994942E0,-2.509123325E0
9.072677400E-1,-6.024110794E0,-3.964797974E0,-1.651999116E0
9.122677060E-1,-5.772719383E0,-3.512293816E0,-1.039083481E0
9.172677060E-1,-5.396830082E0,-3.071760893E0,-6.296750307E-1
9.222677390E-1,-4.860229492E0,-2.736572504E0,-1.484405100E-1
9.272677720E-1,-4.185064793E0,-2.396595955E0,3.399766386E-1
9.322678050E-1,-3.471592426E0,-2.111685991E0,7.541735172E-1
9.372678050E-1,-2.827552319E0,-2.073378563E0,1.194706678E0
9.422678050E-1,-2.449268341E0,-2.288856745E0,1.673547029E0
9.472677710E-1,-2.509123325E0,-2.858676910E0,2.169146776E0
9.522677710E-1,-2.779668093E0,-3.653551817E0,2.492363930E0
9.572677710E-1,-3.232172251E0,-4.608838081E0,2.557007313E0
9.622678040E-1,-3.758896589E0,-5.657797813E0,2.387019157E0
9.672678040E-1,-4.402936935E0,-6.617872715E0,2.063801765E0
9.722678040E-1,-4.953902721E0,-7.441478252E0,1.675941229E0
9.772678040E-1,-5.370493889E0,-8.229170799E0,1.252167463E0
9.822679040E-1,-5.700893402E0,-8.897152901E0,8.643068075E-1
9.872679040E-1,-6.000168800E0,-9.354445457E0,5.865794420E-1
9.922679040E-1,-6.287472725E0,-9.589076996E0,4.070142806E-1
9.972678700E-1,-6.648997307E0,-9.534010887E0,3.663128614E-1
1.002267870E0,-7.046434879E0,-9.359233856E0,4.453215301E-1
1.007267870E0,-7.419930458E0,-9.126996040E0,6.177040339E-1
1.012268336E0,-7.747935772E0,-8.846874237E0,8.427590132E-1
1.017268336E0,-8.116642952E0,-8.559570312E0,1.017535686E0
1.022268336E0,-8.497321129E0,-8.257901192E0,1.120486379E0
1.027268302E0,-8.868422508E0,-7.989750385E0,1.151610970E0
1.032268302E0,-9.155726433E0,-7.822156429E0,1.122880578E0
1.037267635E0,-9.364022255E0,-7.759906769E0,9.600749016E-1
1.042267368E0,-9.589076996E0,-7.750329971E0,6.607996821E-1
1.047267368E0,-9.730335236E0,-7.977779388E0,3.351882398E-1
1.052267134E0,-9.703998566E0,-8.341697693E0,4.309562966E-2
1.057267134E0,-9.074323654E0,-8.178892136E0,-1.675941199E-1
1.062266234E0,-8.370428085E0,-7.982567787E0,-3.998316824E-1
1.067266234E0,-7.678503990E0,-7.838915825E0,-6.727706790E-1
1.072266200E0,-7.075165272E0,-7.735964775E0,-9.265560508E-1
1.077266200E0,-6.560411930E0,-7.644985199E0,-1.156399369E0
1.082266200E0,-6.139032364E0,-7.554005623E0,-1.328781962E0
1.087266233E0,-5.784690380E0,-7.429507256E0,-1.403002143E0
1.092266233E0,-5.404012680E0,-7.259518623E0,-1.352723956E0
1.097266233E0,-4.927566528E0,-7.015310287E0,-1.204283476E0
1.102266199E0,-4.355052948E0,-6.665756702E0,-1.046266198E0
1.107266165E0,-3.763684988E0,-6.244377136E0,-9.121908545E-1
1.112266131E0,-3.210624456E0,-5.782296181E0,-7.924807668E-1
1.117266131E0,-2.686294317E0,-5.272331238E0,-6.775590777E-1
1.122266131E0,-2.231395960E0,-4.793191910E0,-5.722141862E-1
1.127266164E0,-1.821987510E0,-4.338293552E0,-4.596867263E-1
1.132266197E0,-1.484405041E0,-3.962403774E0,-3.567360640E-1
1.137266230E0,-1.201889277E0,-3.672705412E0,-2.537853718E-1
1.142266230E0,-9.696516991E-1,-3.442862034E0,-1.532289088E-1
1.147266230E0,-8.020575643E-1,-3.272873640E0,-5.027823523E-2
1.152266196E0,-6.823474765E-1,-3.174711466E0,6.943184882E-2
1.157266196E0,-5.746083856E-1,-3.138798475E0,2.250549644E-1
1.162266196E0,-4.453215301E-1,-3.201047659E0,3.926490843E-1
1.167266229E0,-2.250549644E-1,-3.378218651E0,5.458779931E-1
1.172266229E0,-3.591302410E-2,-3.538630009E0,6.512228847E-1
1.177266229E0,8.619125932E-2,-3.617638826E0,6.823474765E-1
1.182266195E0,1.484405100E-1,-3.653551817E0,6.943184733E-1
1.187266828E0,1.580173075E-1,-3.651157618E0,6.895300746E-1
1.192267094E0,1.795651317E-1,-3.696647406E0,6.607996821E-1
1.197267094E0,2.274491638E-1,-3.801992416E0,6.248866320E-1
1.202267360E0,2.609679997E-1,-3.969586372E0,6.057330370E-1
1.207267393E0,3.232172430E-1,-4.230554581E0,5.554547906E-1
1.212268326E0,4.094084799E-1,-4.520252705E0,4.836287498E-1
1.217268326E0,4.836287498E-1,-4.965873718E0,3.663128614E-1
1.222268326E0,4.884171486E-1,-5.538087845E0,1.963245422E-1
1.227268292E0,4.333505034E-1,-6.725611687E0,1.508347094E-1
1.232268258E0,5.291185975E-1,-8.277054787E0,1.101332754E-1
1.237268258E0,9.481038451E-1,-1.060421848E1,3.112462163E-2
1.242268291E0,1.728613615E0,-1.362809563E1,-3.447650373E-1
1.247268324E0,2.822763920E0,-1.697548866E1,-9.002198577E-1
1.252268857E0,4.522646904E0,-2.037285995E1,-1.675941229E0
1.257268857E0,7.087136269E0,-2.377741623E1,-2.530671120E0
1.262268857E0,9.835680008E0,-2.682792854E1,-3.306392431E0
1.267268857E0,1.309418869E1,-2.949746323E1,-3.962403774E0
1.272268857E0,1.595555878E1,-3.147746849E1,-4.446032524E0
1.277268823E0,1.766741371E1,-3.215981674E1,-4.568136692E0
1.282268823E0,1.801696587E1,-3.164266777E1,-4.338293552E0
1.287268823E0,1.741602135E1,-3.025881958E1,-3.866635799E0
1.292268856E0,1.624046898E1,-2.831951523E1,-3.282450438E0
1.297268856E0,1.475127506E1,-2.604502296E1,-2.707842112E0
1.302268856E0,1.306066990E1,-2.343265152E1,-2.262520552E0
1.307268822E0,1.104714584E1,-2.057876205E1,-1.489193439E0
1.312268822E0,9.182063103E0,-1.806006241E1,-6.943184733E-1
1.317268822E0,7.549217224E0,-1.582148361E1,-7.182605099E-3
1.322268855E0,6.191704750E0,-1.390821648E1,4.979939461E-1
1.327268855E0,4.932354927E0,-1.213171959E1,1.041477680E0
1.332268855E0,3.787626982E0,-1.049887371E1,1.771709204E0
1.337268855E0,2.738966703E0,-8.995314598E0,2.679111719E0
1.342268855E0,1.711854219E0,-7.585130215E0,4.039018154E0
1.347268855E0,5.219359994E-1,-6.285078526E0,6.060023785E0
1.352268821E0,-4.836287498E-1,-5.176563263E0,7.676109791E0
1.357268787E0,-1.074996591E0,-4.374206543E0,8.126219749E0
1.362268787E0,-1.292868972E0,-3.861847401E0,7.882011414E0
1.367268820E0,-1.180341482E0,-3.632004023E0,6.708852291E0
1.372268853E0,-1.010353088E0,-3.538630009E0,5.327397823E0
1.377268853E0,-7.661445141E-1,-3.579331636E0,3.828328609E0
1.382268853E0,-5.195417404E-1,-3.715801001E0,2.485181332E0
1.387268819E0,-2.896983922E-1,-3.921702385E0,1.312022567E0
1.392268785E0,-3.830722719E-2,-4.192247391E0,3.112462163E-1
1.400052730E0,2.346317619E-1,-4.565742493E0,-5.147533417E-1
1.405052196E0,4.955997467E-1,-4.965873718E0,-1.173158884E0
1.410052229E0,7.613561153E-1,-5.485415459E0,-1.685518026E0
1.415052262E0,1.022324085E0,-6.031293392E0,-2.078166962E0
1.420052295E0,1.312022567E0,-6.699275494E0,-2.363077164E0
1.425052295E0,1.608903527E0,-7.360075474E0,-2.559401512E0
1.430052295E0,1.912967205E0,-8.121431351E0,-2.667140722E0
1.435052128E0,2.217030764E0,-8.911518097E0,-2.695871115E0
1.440052128E0,2.518700123E0,-9.732728958E0,-2.703053713E0
1.445052128E0,2.798821688E0,-1.063055515E1,-2.784456491E0
1.450052161E0,3.002328873E0,-1.148767948E1,-2.856282711E0
1.455052161E0,3.083731890E0,-1.214129639E1,-2.861071110E0
1.460052161E0,2.904166698E0,-1.243817711E1,-2.686294317E0
1.465052127E0,2.624045134E0,-1.251479149E1,-2.425326347E0
1.470052093E0,2.298433542E0,-1.244536018E1,-2.085349798E0
1.475052059E0,1.994369984E0,-1.235437965E1,-1.750161409E0
1.480052525E0,1.735796213E0,-1.224903488E1,-1.436521053E0
1.485052125E0,1.532289028E0,-1.212693119E1,-1.158793569E0
1.490052158E0,1.326387763E0,-1.197130775E1,-9.145850539E-1
1.495052191E0,1.130063176E0,-1.177737713E1,-7.110779285E-1
1.500051824E0,9.241618514E-1,-1.149486160E1,-5.051765442E-1
1.505051824E0,7.398083210E-1,-1.117403889E1,-3.112462163E-1
1.510051824E0,5.722141862E-1,-1.076941872E1,-5.746084079E-2
1.515051790E0,4.237737060E-1,-1.036240387E1,2.873041928E-1
1.520051790E0,3.040636182E-1,-9.952995300E0,9.002198577E-1
1.525051790E0,2.489969730E-1,-9.615413666E0,1.623268723E0
1.530051823E0,3.016694188E-1,-9.390357971E0,2.257732153E0
1.535051823E0,4.620809257E-1,-9.268254280E0,2.667140722E0
1.540051823E0,7.062895298E-1,-9.239523888E0,2.810792685E0
1.545051823E0,1.005564690E0,-9.275436401E0,2.710236311E0
1.550051823E0,1.347935557E0,-9.375992775E0,2.398990154E0
1.555051823E0,1.680729628E0,-9.490914345E0,2.044648170E0
1.560051789E0,2.015917778E0,-9.624990463E0,1.628057122E0
1.565051789E0,2.310404539E0,-9.747094154E0,1.244984865E0
1.570051789E0,2.571372509E0,-9.835680008E0,8.810662031E-1
1.575051822E0,2.760514498E0,-9.862015724E0,5.602431893E-1
1.580051822E0,2.865859509E0,-9.814131737E0,2.849099934E-1
1.585051955E0,2.908955097E0,-9.711181641E0,7.422025502E-2
1.590051921E0,2.894589901E0,-9.572318077E0,-6.464344263E-2
1.595051921E0,2.861071110E0,-9.421483040E0,-1.460463107E-1
1.600051921E0,2.822763920E0,-9.285013199E0,-1.580173075E-1
1.605051954E0,2.786850691E0,-9.177274704E0,-1.244984865E-1
1.610051987E0,2.789244890E0,-9.107842445E0,-2.394201607E-2
1.615051987E0,2.813186884E0,-9.079112053E0,9.337386489E-2
1.620051987E0,2.873042107E0,-9.086295128E0,2.442085743E-1
1.625051987E0,2.937685490E0,-9.122207642E0,3.711012602E-1
1.630051520E0,2.999934673E0,-9.167697906E0,4.477157295E-1
1.635051920E0,3.045424461E0,-9.220370293E0,4.644751251E-1
1.640051886E0,3.088520288E0,-9.282619476E0,4.141969085E-1
1.645051886E0,3.119644880E0,-9.330503464E0,3.351882398E-1
1.650052286E0,3.138798475E0,-9.366415977E0,2.178723514E-1
1.655052319E0,3.148375273E0,-9.397541046E0,9.337386489E-2
1.660052319E0,3.148375273E0,-9.414299965E0,-4.788403213E-2
1.665052319E0,3.148375273E0,-9.414299965E0,-1.843535304E-1
1.670052285E0,3.143586874E0,-9.402329445E0,-3.112462163E-1
1.675052285E0,3.145981073E0,-9.387964249E0,-4.309563041E-1
1.680052285E0,3.165134668E0,-9.375992775E0,-5.315127969E-1
1.685052318E0,3.193865061E0,-9.361627579E0,-6.033388376E-1
1.690052318E0,3.217807055E0,-9.316138268E0,-6.248866320E-1
1.695052318E0,3.239354849E0,-9.253889084E0,-6.105214357E-1
1.700052318E0,3.260902643E0,-9.167697906E0,-5.458779931E-1
1.705052318E0,3.284844637E0,-9.081506729E0,-4.644751251E-1
1.710052318E0,3.311181068E0,-9.000102997E0,-3.615244627E-1
1.715052284E0,3.363853455E0,-8.945036888E0,-2.753331959E-1
1.720052284E0,3.452438831E0,-8.940248489E0,-2.154781520E-1
1.725052284E0,3.581725836E0,-8.983344078E0,-1.843535304E-1
1.730052317E0,3.730166197E0,-9.059958458E0,-1.723825186E-1
1.735052350E0,3.876212597E0,-9.155726433E0,-1.771709323E-1
1.740052350E0,4.007893562E0,-9.258677483E0,-1.843535304E-1
1.745052316E0,4.115632534E0,-9.352050781E0,-1.939303428E-1
1.750052282E0,4.204218388E0,-9.443030357E0,-2.059013397E-1
1.755052248E0,4.271255970E0,-9.519645691E0,-2.250549644E-1
1.760052214E0,4.156333923E0,-9.438241959E0,-1.675941199E-1
1.765052214E0,4.029441357E0,-9.368810654E0,-1.340752989E-1
1.770052247E0,4.007893562E0,-9.392752647E0,-1.723825186E-1
1.775052280E0,3.964797974E0,-9.380781174E0,-1.867477298E-1
1.780052313E0,3.881000996E0,-9.330503464E0,-1.843535304E-1
1.785052313E0,3.761290789E0,-9.241917610E0,-1.651999205E-1
1.790052313E0,3.600879431E0,-9.107842445E0,-1.197100878E-1
1.795052279E0,3.435679436E0,-8.961795807E0,-6.943184882E-2
1.800052279E0,3.260902643E0,-8.789413452E0,-1.436521020E-2
1.805052279E0,3.093308687E0,-8.621819496E0,3.830722719E-2
1.810052312E0,2.944868088E0,-8.468590736E0,7.422025502E-2
1.815052312E0,2.846705914E0,-8.365639687E0,8.379705995E-2
1.820052312E0,2.801215887E0,-8.322544098E0,7.422025502E-2
1.825052278E0,2.817975283E0,-8.348880768E0,4.070143029E-2
1.830052244E0,2.839523315E0,-8.408735275E0,7.182605099E-3
1.835051844E0,2.913743496E0,-8.530839920E0,-4.309562966E-2
1.840051844E0,3.028665066E0,-8.693645477E0,-1.029506698E-1
1.845051877E0,3.129221678E0,-8.844480515E0,-1.436520964E-1
1.850051910E0,3.172317266E0,-8.952219009E0,-1.340752989E-1
1.855051943E0,3.136404276E0,-9.012074471E0,-7.422025502E-2
1.860051976E0,3.021482468E0,-9.009679794E0,2.633621916E-2
1.865051976E0,2.880224705E0,-9.004891396E0,1.532289088E-1
1.870051942E0,2.722207308E0,-9.009679794E0,2.896983922E-1
1.875051908E0,2.590526342E0,-9.059958458E0,4.070142806E-1
1.880051908E0,2.480392933E0,-9.110237122E0,5.147533417E-1
1.885051908E0,2.420537949E0,-9.165303230E0,5.865794420E-1
1.890051941E0,2.492363930E0,-9.299378395E0,6.200982332E-1
1.895051941E0,2.647987127E0,-9.466972351E0,6.320692301E-1
1.900051941E0,2.932897091E0,-9.694421768E0,6.200982332E-1
1.905051941E0,3.251325846E0,-9.902717590E0,6.153098345E-1
1.910051941E0,3.560178041E0,-1.007509995E1,6.200982332E-1
1.915051941E0,3.876212597E0,-1.023790550E1,6.177040339E-1
1.920051907E0,4.158728123E0,-1.036479855E1,6.224924326E-1
1.925051907E0,4.371812344E0,-1.042704773E1,6.296750307E-1
1.930051907E0,4.460397720E0,-1.038874054E1,6.536170840E-1
1.935051940E0,4.465186119E0,-1.028578949E1,6.871358752E-1
1.940051940E0,4.367023945E0,-1.009185982E1,6.991068721E-1
1.945051940E0,4.230554581E0,-9.871592522E0,6.967126727E-1
1.950051906E0,4.012681961E0,-9.569923401E0,6.727706790E-1
1.955051906E0,3.766079187E0,-9.232340813E0,6.177040339E-1
1.960051906E0,3.473986626E0,-8.801384926E0,5.506663918E-1
1.965051939E0,3.138798475E0,-8.298602104E0,4.644751251E-1
1.970051939E0,2.782062292E0,-7.776666164E0,3.591302633E-1
1.975051939E0,2.461239338E0,-7.281066418E0,2.394201756E-1
1.980051939E0,2.205059767E0,-6.857293129E0,1.029506698E-1
1.985052305E0,2.018311977E0,-6.519710541E0,-1.915361360E-2
1.990052305E0,1.939303398E0,-6.354510784E0,-1.532289088E-1
1.995052271E0,1.951274395E0,-6.328174591E0,-2.777273953E-1
2.000052237E0,2.102109194E0,-6.586748123E0,-3.711012602E-1
2.005052237E0,2.286462545E0,-7.010521889E0,-4.237737060E-1
2.010052237E0,2.468421936E0,-7.508515835E0,-4.381389022E-1
2.015052270E0,2.604891539E0,-8.028057098E0,-3.926490843E-1
2.020052270E0,2.643198729E0,-8.485349655E0,-2.992752194E-1
2.025052270E0,2.676717520E0,-8.873210907E0,-2.298433632E-1
2.030052236E0,2.782062292E0,-9.222764015E0,-2.298433632E-1
2.035052669E0,2.911349297E0,-9.500492096E0,-2.705447972E-1
2.040051969E0,3.090914488E0,-9.727940559E0,-3.447650373E-1
2.045051969E0,3.301604033E0,-9.921871185E0,-4.285621047E-1
2.050052002E0,3.524264812E0,-1.007988834E1,-5.051765442E-1
2.055052035E0,3.725377798E0,-1.019002151E1,-5.793967843E-1
2.060052068E0,3.837905407E0,-1.023072338E1,-6.272808313E-1
2.065052068E0,3.857059002E0,-1.019241619E1,-6.416460276E-1
2.070052068E0,3.756502390E0,-1.004158115E1,-6.224924326E-1
2.075052034E0,3.610456228E0,-9.854833603E0,-5.865794420E-1
2.080052034E0,3.402160645E0,-9.624990463E0,-5.315127969E-1
2.085052034E0,3.198653460E0,-9.416694641E0,-4.740519226E-1
2.090052067E0,2.980781078E0,-9.229947090E0,-4.237737060E-1
2.095051167E0,2.779668093E0,-9.086295128E0,-3.806780577E-1
2.100051167E0,2.604891539E0,-9.009679794E0,-3.471592367E-1
2.105050467E0,2.468421936E0,-8.990526199E0,-3.208230138E-1
2.110049867E0,2.372653961E0,-9.019257545E0,-3.064578176E-1
2.115049167E0,2.312798738E0,-9.086295128E0,-3.016694188E-1
2.120049167E0,2.274491549E0,-9.174880028E0,-3.136404157E-1
2.125049167E0,2.243366957E0,-9.253889084E0,-3.351882398E-1
2.130049200E0,2.219424963E0,-9.335291862E0,-3.711012602E-1
2.135049233E0,2.197877169E0,-9.395146370E0,-4.094084799E-1
2.140049266E0,2.161964178E0,-9.443030357E0,-4.525041282E-1
2.145049266E0,2.130839586E0,-9.476549149E0,-4.932055473E-1
2.150049266E0,2.097320795E0,-9.478943825E0,-5.267243981E-1
2.155049232E0,2.075772762E0,-9.457395554E0,-5.554547906E-1
2.160049198E0,2.073378563E0,-9.423876762E0,-5.817909837E-1
2.165049164E0,2.094926596E0,-9.387964249E0,-6.081272364E-1
2.170049164E0,2.135627985E0,-9.359233856E0,-6.368576288E-1
2.175049197E0,2.183511972E0,-9.342473984E0,-6.584054828E-1
2.180049230E0,2.243366957E0,-9.340080261E0,-6.823474765E-1
2.185048796E0,2.305616140E0,-9.349657059E0,-7.110779285E-1
2.190049462E0,2.358288765E0,-9.378387451E0,-7.469909191E-1
2.195049462E0,2.398990154E0,-9.419088364E0,-7.900865674E-1
2.200049428E0,2.425326347E0,-9.464578629E0,-8.379706144E-1
2.205049428E0,2.439691544E0,-9.507674217E0,-8.930372596E-1
2.210049428E0,2.451662540E0,-9.550769806E0,-9.552865028E-1
2.215049461E0,2.458845139E0,-9.596260071E0,-1.015141487E0
2.220049461E0,2.466027737E0,-9.629778862E0,-1.082179189E0
2.225049461E0,2.468421936E0,-9.656114578E0,-1.146822572E0
2.230049427E0,2.468421936E0,-9.668086052E0,-1.233013868E0
2.235048727E0,2.473210335E0,-9.670479774E0,-1.316810966E0
2.240048693E0,2.480392933E0,-9.660902977E0,-1.395819545E0
2.245049593E0,2.489969730E0,-9.653720856E0,-1.460463047E0
2.250049593E0,2.497152328E0,-9.651326180E0,-1.515529633E0
2.255050293E0,2.506729126E0,-9.646537781E0,-1.558625340E0
2.260050893E0,2.516305923E0,-9.641749382E0,-1.589749932E0
2.265051593E0,2.523488522E0,-9.639355659E0,-1.611297727E0
2.270051593E0,2.525882721E0,-9.636960983E0,-1.630451322E0
2.275051593E0,2.518700123E0,-9.634567261E0,-1.649604917E0
2.280051559E0,2.501940727E0,-9.629778862E0,-1.654393315E0
2.285051559E0,2.473210335E0,-9.622595787E0,-1.644816518E0
2.290051559E0,2.430114746E0,-9.617807388E0,-1.632845521E0
2.295051592E0,2.379836559E0,-9.610625267E0,-1.616086125E0
2.300051592E0,2.324769735E0,-9.605836868E0,-1.587355733E0
2.305051592E0,2.260126352E0,-9.598653793E0,-1.546654344E0
2.310051592E0,2.183511972E0,-9.584288597E0,-1.508347034E0
2.315051592E0,2.106897593E0,-9.572318077E0,-1.482010841E0
2.320051592E0,2.025494576E0,-9.555558205E0,-1.465251446E0
2.325051558E0,1.948880196E0,-9.534010887E0,-1.446097851E0
2.330051558E0,1.881842494E0,-9.500492096E0,-1.431732655E0
2.335051558E0,1.814804912E0,-9.459790230E0,-1.414973259E0
2.340051591E0,1.764526606E0,-9.404723167E0,-1.400607944E0
2.345051591E0,1.735796213E0,-9.340080261E0,-1.386242747E0
2.350051591E0,1.723825216E0,-9.268254280E0,-1.367089152E0
2.355051557E0,1.738190413E0,-9.191639900E0,-1.352723956E0
2.360051523E0,1.774103403E0,-9.115025520E0,-1.340752959E0
2.365051523E0,1.824381709E0,-9.045593262E0,-1.331176162E0
2.370051556E0,1.903390408E0,-8.985737801E0,-1.326387763E0
2.375051589E0,1.980004787E0,-8.933065414E0,-1.312022567E0
2.380051589E0,2.087743998E0,-8.868422508E0,-1.285686255E0
2.385052255E0,2.207453966E0,-8.813355446E0,-1.247379065E0
2.390052255E0,2.329558372E0,-8.765471458E0,-1.192312479E0
2.395052255E0,2.454056740E0,-8.743924141E0,-1.130063176E0
2.400052255E0,2.588132143E0,-8.739135742E0,-1.041477680E0
2.405052221E0,2.715024710E0,-8.748712540E0,-9.481038451E-1
2.410052221E0,2.839523315E0,-8.772654533E0,-8.547300100E-1
2.415052221E0,2.935291290E0,-8.791808128E0,-7.685387731E-1
2.420052254E0,3.043030262E0,-8.844480515E0,-6.991068721E-1
2.425052254E0,3.186682463E0,-8.916306496E0,-5.698199868E-1
2.430052254E0,3.392583847E0,-8.971372604E0,-2.130839527E-1
2.435052220E0,3.581725836E0,-8.995314598E0,2.825157940E-1
2.440052186E0,3.725377798E0,-9.004891396E0,7.685387731E-1
2.445052152E0,3.823540211E0,-9.016862869E0,1.110909581E0
2.450052152E0,3.869029999E0,-9.067141533E0,1.201889277E0
2.455052185E0,3.866635799E0,-9.134179115E0,1.154005170E0
2.460052218E0,3.780444384E0,-9.232340813E0,9.385270476E-1
2.465052251E0,3.660734415E0,-9.342473984E0,6.919242740E-1
2.470052251E0,3.483563423E0,-9.483732224E0,4.285621047E-1
2.475052251E0,3.270479441E0,-9.627384186E0,2.106897533E-1
2.480052217E0,3.031059265E0,-9.787796021E0,4.548983276E-2
2.485052183E0,2.779668093E0,-9.955389977E0,-7.182604820E-2
2.490052183E0,2.523488522E0,-1.012298393E1,-1.675941199E-1
2.495052216E0,2.272097349E0,-1.030494308E1,-2.418143749E-1
2.500052249E0,2.025494576E0,-1.051802731E1,-2.992752194E-1
2.505052249E0,1.812410712E0,-1.073589993E1,-3.471592367E-1
2.510052249E0,1.620874524E0,-1.097771454E1,-3.830722570E-1
2.515052215E0,1.470039845E0,-1.120995140E1,-4.070142806E-1
2.520052181E0,1.350329757E0,-1.143740082E1,-3.878606856E-1
2.525052147E0,1.283292055E0,-1.164569664E1,-3.136404157E-1
2.530052147E0,1.280897856E0,-1.182286739E1,-1.651999205E-1
2.535052180E0,1.357512355E0,-1.193300056E1,1.675941236E-2
2.540052213E0,1.501164436E0,-1.196412563E1,1.508347094E-1
2.545052246E0,1.678335428E0,-1.192821217E1,1.819593310E-1
2.550052246E0,1.865083098E0,-1.183723259E1,1.149216816E-1
2.555052246E0,2.011129379E0,-1.173428154E1,2.154781483E-2
2.560052212E0,2.152387381E0,-1.160020638E1,-4.788403213E-2
2.565052212E0,2.269703150E0,-1.146134281E1,-3.591302410E-2
2.570052212E0,2.389413357E0,-1.127938366E1,2.035071403E-1
2.575052245E0,2.525882721E0,-1.108066463E1,6.368576288E-1
2.580052245E0,2.679111719E0,-1.087236881E1,1.228225470E0
2.585052245E0,2.841917515E0,-1.070477486E1,1.905784607E0
2.590052245E0,2.985569477E0,-1.062816048E1,2.628833532E0
2.595052245E0,3.078943491E0,-1.062816048E1,3.280056238E0
2.600052245E0,3.069366693E0,-1.074547672E1,3.883395195E0
2.605052211E0,2.990357876E0,-1.092264748E1,4.405331135E0
2.610052177E0,2.777273893E0,-1.116206741E1,4.913201332E0
2.615052177E0,2.518700123E0,-1.140867043E1,5.411195278E0
2.620052210E0,2.188300371E0,-1.171512794E1,5.997774601E0
2.625052243E0,1.833958507E0,-1.205031681E1,6.660968304E0
2.630052243E0,1.482010841E0,-1.239508152E1,7.405565262E0
2.635051576E0,1.163581967E0,-1.272069263E1,8.166921616E0
2.640051542E0,8.236053586E-1,-1.302236271E1,8.995314598E0
2.645051508E0,4.764461517E-1,-1.326178265E1,9.790189743E0
2.650051474E0,1.197100878E-1,-1.338628101E1,1.047493172E1
2.655051474E0,-1.173158810E-1,-1.340543461E1,1.081730270E1
2.660051507E0,-1.029506698E-1,-1.325459957E1,1.049169159E1
2.665051540E0,5.267243832E-2,-1.301996803E1,9.854833603E0
2.670051573E0,3.926490843E-1,-1.262971306E1,8.708010674E0
2.675051573E0,8.355764151E-1,-1.217242050E1,7.273883820E0
2.680051573E0,1.345541358E0,-1.170315742E1,5.643432617E0
2.685051939E0,1.884236693E0,-1.123868179E1,3.950432777E0
2.690051939E0,2.434903145E0,-1.074787045E1,2.382230759E0
2.695051939E0,2.928108692E0,-1.030973148E1,1.082179189E0
2.700051972E0,3.421314240E0,-9.929053307E0,3.830722719E-2
2.705051972E0,3.881000996E0,-9.651326180E0,-7.757213712E-1
2.710051972E0,4.378994942E0,-9.524434090E0,-1.285686255E0
2.715051938E0,4.913201332E0,-9.577106476E0,-1.319205165E0
2.720051904E0,5.463867664E0,-9.816526413E0,-8.595184088E-1
2.725051870E0,5.988197803E0,-1.021156979E1,-1.149216816E-1
2.730051870E0,6.450278759E0,-1.070238113E1,6.655880809E-1
2.735051870E0,6.835745335E0,-1.123628807E1,1.266532660E0
2.740051903E0,7.170933247E0,-1.181329060E1,1.594538331E0
2.745051936E0,7.484573841E0,-1.238550472E1,1.740584612E0
2.750051969E0,7.867646217E0,-1.301278591E1,1.685518026E0
2.755051969E0,8.293813705E0,-1.365443134E1,1.601720929E0
2.760051969E0,8.897152901E0,-1.444212437E1,1.589749932E0
2.765051935E0,9.653720856E0,-1.534264278E1,1.853112102E0
2.770051935E0,1.061858368E1,-1.638412094E1,2.523488522E0
2.775051968E0,1.175104141E1,-1.773684502E1,4.321534157E0
2.780052001E0,1.287152767E1,-1.944869804E1,7.293037415E0
2.785052667E0,1.417636776E1,-2.129702187E1,9.457395554E0
2.790052667E0,1.571853256E1,-2.332730484E1,1.015650272E1
2.795052667E0,1.711195755E1,-2.520944786E1,9.926659584E0
2.800052267E0,1.815343666E1,-2.677286148E1,8.298602104E0
2.805052267E0,1.865382385E1,-2.788855934E1,6.299443722E0
2.810052233E0,1.797387123E1,-2.838176537E1,3.991134167E0
2.815052233E0,1.652537918E1,-2.842486000E1,1.786074519E0
2.820052233E0,1.468872643E1,-2.809685516E1,-6.703764945E-2
2.825052266E0,1.267280865E1,-2.745999718E1,-1.491587639E0
2.830052266E0,1.058985329E1,-2.663160324E1,-2.444479942E0
2.835051932E0,8.700828552E0,-2.570265388E1,-3.107673883E0
2.840051898E0,6.881235123E0,-2.469708824E1,-3.406949043E0
2.845051898E0,5.341763496E0,-2.372713661E1,-3.426102638E0
2.850051898E0,4.031835556E0,-2.275509071E1,-3.117250681E0
2.855051931E0,2.908955097E0,-2.187402534E1,-2.636016130E0
2.860051964E0,1.956062794E0,-2.098338318E1,-2.011129379E0
2.865051964E0,1.154005170E0,-2.011668205E1,-1.388636947E0
2.870051964E0,5.410895944E-1,-1.929786491E1,-9.050082564E-1
2.875051964E0,1.005564705E-1,-1.846707535E1,-5.291185975E-1
2.880051964E0,3.351882473E-2,-1.752615547E1,-4.022258818E-1
2.885051964E0,1.316810995E-1,-1.658762741E1,-4.548983276E-1
2.890051930E0,4.453215301E-1,-1.553178501E1,-7.230489254E-1
2.895051930E0,7.302315235E-1,-1.447803688E1,-1.063025594E0
2.900051930E0,1.017535686E0,-1.332163715E1,-1.527500629E0
2.905051963E0,1.216254473E0,-1.221072769E1,-1.996764183E0
2.910051963E0,1.333570361E0,-1.102320385E1,-2.456450939E0
2.915051963E0,1.376665950E0,-9.869198799E0,-2.875436306E0
2.920051929E0,1.369483352E0,-8.760683060E0,-3.234566450E0
2.925051862E0,1.316810966E0,-7.728782177E0,-3.560178041E0
2.930051828E0,1.177947283E0,-6.720823288E0,-3.828328609E0
2.935051828E0,9.983820915E-1,-5.815814972E0,-4.034229755E0
2.940051861E0,7.685387731E-1,-4.929960728E0,-4.170699596E0
2.945051894E0,5.267243981E-1,-4.129997730E0,-4.237737179E0
2.950052327E0,2.729389966E-1,-3.371036053E0,-4.204218388E0
2.955052327E0,1.915361360E-2,-2.667140722E0,-4.110844135E0
2.960052327E0,-2.130839527E-1,-2.011129379E0,-3.983951569E0
2.965051627E0,-4.213795066E-1,-1.391031146E0,-3.828328609E0
2.970051160E0,-5.865794420E-1,-8.092401624E-1,-3.663128614E0
2.975051160E0,-7.110779285E-1,-2.466027737E-1,-3.524264812E0
2.980051193E0,-8.068459630E-1,2.705447972E-1,-3.435679436E0
2.985051159E0,-8.667010069E-1,7.110779285E-1,-3.390189648E0
2.990051159E0,-8.882488012E-1,1.077390790E0,-3.390189648E0
2.995051125E0,-8.930372596E-1,1.367089152E0,-3.368641853E0
3.000051091E0,-8.930372596E-1,1.604115129E0,-3.277662039E0
3.005051057E0,-8.954314590E-1,1.757344007E0,-3.155557871E0
3.010051023E0,-8.954314590E-1,1.860294700E0,-3.009511471E0
3.015051023E0,-9.074024558E-1,1.936909199E0,-2.858676910E0
3.020051056E0,-8.954314590E-1,2.008735180E0,-2.691082716E0
3.025051089E0,-8.643068075E-1,2.090138197E0,-2.523488522E0
3.030051122E0,-8.140285611E-1,2.188300371E0,-2.343923569E0
3.035051122E0,-7.637503147E-1,2.303221941E0,-2.181117773E0
3.040051122E0,-7.230489254E-1,2.482787132E0,-2.039859772E0
3.045050422E0,-6.847416759E-1,2.640804529E0,-1.891419291E0
3.050049522E0,-6.703764796E-1,2.803610086E0,-1.762132406E0
3.055048622E0,-6.895300746E-1,2.980781078E0,-1.642422318E0
3.060047755E0,-7.158663273E-1,3.210624456E0,-1.527500629E0
3.065047088E0,-7.685387731E-1,3.445256233E0,-1.446097851E0
3.070046188E0,-8.259995580E-1,3.634398222E0,-1.364694953E0
3.075045521E0,-8.906430602E-1,3.837905407E0,-1.355118155E0
3.080044654E0,-9.289502501E-1,4.355052948E0,-3.974374831E-1
3.085044654E0,-6.871358752E-1,5.044882298E0,2.949656487E0
3.090043720E0,2.753331959E-1,5.169380665E0,8.159738541E0
3.095043720E0,1.434126854E0,4.795586109E0,1.342458820E1
3.100043053E0,2.437297344E0,3.675099611E0,1.881662941E1
3.105043086E0,3.076549292E0,2.154781580E0,2.357151413E1
3.110043119E0,3.366247654E0,5.075707436E-1,2.615515709E1
3.115043785E0,3.462015629E0,-8.643068075E-1,2.551351166E1
3.120081152E0,2.942473888E0,-1.276109457E0,2.049975395E1
3.125081118E0,2.264914751E0,-1.307234168E0,1.480394745E1
3.130080451E0,1.709460020E0,-1.359906554E0,9.696816444E0
3.135080451E0,1.300051570E0,-1.486799240E0,5.492598057E0
3.140079817E0,1.077390790E0,-1.714248419E0,2.015917778E0
3.145079417E0,1.022324085E0,-1.970427990E0,-7.637503147E-1
3.150078517E0,1.118092179E0,-2.243366957E0,-3.011905670E0
3.155078517E0,1.333570361E0,-2.557007313E0,-4.958691120E0
3.160078517E0,1.616086125E0,-2.899378300E0,-6.579565525E0
3.165078750E0,1.927332401E0,-3.251325846E0,-7.944260597E0
3.170078716E0,2.269703150E0,-3.579331636E0,-8.985737801E0
3.175078716E0,2.621650934E0,-3.876212597E0,-9.802161217E0
3.180078716E0,3.126827478E0,-4.187458992E0,-1.053239250E1
3.185078749E0,3.651157618E0,-4.508281708E0,-1.119319248E1
3.190078749E0,4.261679173E0,-4.932354927E0,-1.192342377E1
3.195079415E0,4.860229492E0,-5.420772076E0,-1.264168453E1
3.200080281E0,5.404012680E0,-5.928342819E0,-1.322586918E1
3.205081147E0,5.878064632E0,-6.428730965E0,-1.356584644E1
3.210082013E0,6.277895927E0,-6.866869926E0,-1.363527775E1
3.215082679E0,6.608295918E0,-7.269095421E0,-1.349402046E1
3.220083612E0,6.866869926E0,-7.616254807E0,-1.306545830E1
3.225084312E0,7.046434879E0,-7.915530205E0,-1.254352188E1
3.230085212E0,7.154173851E0,-8.224382401E0,-1.189229870E1
3.235085245E0,7.297826290E0,-8.545205116E0,-1.124586487E1
3.240086145E0,7.585130215E0,-9.016862869E0,-1.067843914E1
3.245086111E0,8.092700958E0,-9.732728958E0,-1.029776096E1
3.250086744E0,8.830115318E0,-1.065689087E1,-1.013016701E1
3.255086744E0,9.730335236E0,-1.179653072E1,-1.008946514E1
3.260086744E0,1.079814911E1,-1.341979980E1,-1.007509995E1
3.265086777E0,1.183962631E1,-1.519180870E1,-1.008707142E1
3.270086777E0,1.300320911E1,-1.764347076E1,-1.016847420E1
3.275086777E0,1.426016426E1,-2.034652519E1,-1.038874054E1
3.280087410E0,1.594598198E1,-2.385403061E1,-1.103517532E1
3.285087376E0,1.759079933E1,-2.738817024E1,-1.183483791E1
3.290088009E0,1.888845634E1,-3.103932953E1,-1.267280865E1
3.295088142E0,1.968811989E1,-3.435559845E1,-1.314207268E1
3.300089075E0,2.001133728E1,-3.715202332E1,-1.301039124E1
3.305089108E0,1.986768341E1,-3.917991257E1,-1.217720890E1
3.310089141E0,1.922125053E1,-4.040574646E1,-1.063055515E1
3.315088907E0,1.835933685E1,-4.116231155E1,-8.964190483E0
3.320088907E0,1.742559814E1,-4.258686447E1,-6.486191750E0
3.325088873E0,1.541446877E1,-4.350144958E1,-3.303998232E0
3.330088873E0,8.576330185E0,-4.325244904E1,1.079814911E1
3.335088873E0,2.875436306E0,-4.138497162E1,2.401444244E1
3.340088906E0,-6.512228847E-1,-3.896683121E1,3.062273788E1
3.345088906E0,-2.516305923E0,-3.701076508E1,3.100820351E1
3.350088906E0,-3.093308687E0,-3.522469330E1,2.826205444E1
3.355088906E0,-2.803610086E0,-3.343832016E1,2.441187859E1
3.360088906E0,-2.032677174E0,-3.144394875E1,1.977909851E1
3.365088906E0,-1.170764685E0,-2.963153839E1,1.541686344E1
3.370088872E0,-4.860229492E-1,-2.774011803E1,1.139909363E1
3.375088838E0,0.000000000E0,-2.589897728E1,8.104672432E0
3.380088838E0,2.873041928E-1,-2.379656982E1,5.696105003E0
3.385088838E0,4.596867263E-1,-2.157953835E1,4.065354347E0
3.390088871E0,5.722141862E-1,-1.930983543E1,3.076549292E0
3.395088871E0,6.488286853E-1,-1.696830559E1,2.674323320E0
3.400088871E0,6.799532771E-1,-1.452592087E1,2.992752075E0
3.405088837E0,6.440402865E-1,-1.174864674E1,4.939537525E0
3.410088837E0,4.620809257E-1,-8.169315338E0,1.075265884E1
3.415088837E0,2.466027737E-1,-4.733336926E0,1.763868332E1
3.420088870E0,2.633621916E-2,-2.104503393E0,2.275030327E1
3.425088870E0,-1.316810995E-1,-3.830722570E-1,2.508255577E1
3.430088870E0,-2.059013397E-1,3.423708379E-1,2.386121178E1
3.435088203E0,-1.699883193E-1,5.315127969E-1,2.088761330E1
3.440088203E0,-9.576806799E-3,4.692635238E-1,1.713350677E1
3.445088469E0,1.628057212E-1,3.327940404E-1,1.352035618E1
3.450088435E0,2.944868207E-1,1.699883193E-1,1.042704773E1
3.455088435E0,4.022258818E-1,9.576806799E-3,7.961019993E0
3.460088435E0,4.932055473E-1,-1.292868853E-1,5.973832607E0
3.465088468E0,5.650315881E-1,-2.394201756E-1,4.374206543E0
3.470088468E0,6.224924326E-1,-3.327940404E-1,3.031059265E0
3.475088468E0,6.655880809E-1,-4.094084799E-1,1.960851192E0
3.480088434E0,7.062895298E-1,-4.644751251E-1,1.130063176E0
3.485088400E0,7.996633649E-1,-4.955997467E-1,4.620809257E-1
3.490088366E0,9.696516991E-1,-5.075707436E-1,-1.053448766E-1
3.495088366E0,1.194706678E0,-5.003881454E-1,-6.200982332E-1
3.500088366E0,1.472434044E0,-4.860229492E-1,-1.024718285E0
3.505088399E0,1.745373011E0,-4.668693244E-1,-1.326387763E0
3.510088432E0,2.030282974E0,-4.405331016E-1,-1.520318031E0
3.515088465E0,2.319981337E0,-4.165911078E-1,-1.613691926E0
3.520088465E0,2.741360903E0,-3.998316824E-1,-1.304839969E0
3.525088465E0,3.284844637E0,-4.094084799E-1,-5.746083856E-1
3.530088431E0,3.835511208E0,-5.171475410E-1,3.184288144E-1
3.535088431E0,4.345476151E0,-7.374141216E-1,1.151610970E0
3.540088431E0,4.802768707E0,-1.065419793E0,1.687912226E0
3.545088464E0,5.226841450E0,-1.467645645E0,1.946485996E0
3.550088464E0,5.624279022E0,-1.982398987E0,1.924938202E0
3.555088464E0,5.997774601E0,-2.535459518E0,1.786074519E0
3.560088430E0,6.435913563E0,-3.289633036E0,1.558625340E0
3.565088396E0,6.945878506E0,-4.120420933E0,1.328781962E0
3.570088362E0,7.719205379E0,-5.238812447E0,1.357512355E0
3.575088362E0,8.715193748E0,-6.677727699E0,1.944091797E0
3.580088395E0,9.952995300E0,-8.549993515E0,3.035847664E0
3.585089095E0,1.144218922E1,-1.105672264E1,4.833893299E0
3.590089128E0,1.338628101E1,-1.484943771E1,7.419930458E0
3.595089128E0,1.537616158E1,-1.920449066E1,1.028100109E1
3.600089128E0,1.758840370E1,-2.492693138E1,1.324741745E1
3.605089094E0,1.980304146E1,-3.068259239E1,1.536897945E1
3.610089060E0,2.166333580E1,-3.621589279E1,1.548629475E1
3.615089060E0,2.279579353E1,-4.036983109E1,1.458338165E1
3.620089093E0,2.291550255E1,-4.213675308E1,1.251718616E1
3.625089126E0,2.191472626E1,-4.197634125E1,1.018762779E1
3.630089126E0,2.009273911E1,-4.045362854E1,7.678503990E0
3.635089126E0,1.823962784E1,-3.816716766E1,5.253177643E0
3.640089126E0,1.617103767E1,-3.565325546E1,2.803610086E0
3.645089126E0,1.421467495E1,-3.318692780E1,5.506663918E-1
3.650089126E0,1.228734207E1,-3.063949776E1,-1.517923832E0
3.655089092E0,1.058745956E1,-2.831472778E1,-3.280056238E0
3.660089092E0,8.992920876E0,-2.614079285E1,-4.771644115E0
3.665089092E0,7.565976620E0,-2.424188995E1,-5.902006626E0
3.670089125E0,6.234800339E0,-2.245102882E1,-6.526893139E0
3.675089125E0,5.032911301E0,-2.074156761E1,-6.646603107E0
3.680089125E0,3.907337189E0,-1.912308693E1,-6.380846977E0
3.685089091E0,2.815581083E0,-1.761234665E1,-5.846940041E0
3.690089057E0,1.678335428E0,-1.615188408E1,-5.152621269E0
3.695089023E0,6.536170840E-1,-1.485422611E1,-4.515464306E0
3.700088356E0,-3.256114423E-1,-1.365203762E1,-3.945644379E0
3.705088389E0,-1.163581967E0,-1.256985855E1,-3.485957623E0
3.710088422E0,-1.910573006E0,-1.152598667E1,-3.203441858E0
3.715088455E0,-2.463633537E0,-1.057788277E1,-3.055001259E0
3.720088455E0,-2.834734917E0,-9.632172585E0,-3.076549292E0
3.725088455E0,-3.038241863E0,-8.722375870E0,-3.203441858E0
3.730088421E0,-3.102885485E0,-7.841310024E0,-3.375824451E0
3.735088387E0,-3.069366693E0,-7.010521889E0,-3.550601006E0
3.740088387E0,-2.935291290E0,-6.206069946E0,-3.725377798E0
3.745088420E0,-2.779668093E0,-5.483021259E0,-3.878606796E0
3.750088453E0,-2.590526342E0,-4.771644115E0,-3.986345768E0
3.755088453E0,-2.420537949E0,-4.132391930E0,-4.060565948E0
3.760088453E0,-2.229001760E0,-3.438073635E0,-4.029441357E0
3.765088419E0,-2.035071373E0,-2.674323320E0,-3.983951569E0
3.770088385E0,-1.824381709E0,-1.915361404E0,-3.931279182E0
3.775088351E0,-1.623268723E0,-1.206677675E0,-3.871424198E0
3.780088351E0,-1.453280449E0,-6.177040339E-1,-3.794809580E0
3.785088384E0,-1.333570361E0,-1.651999205E-1,-3.711012602E0
3.790088417E0,-1.304839969E0,1.532289088E-1,-3.646369219E0
3.795088450E0,-1.326387763E0,3.734954596E-1,-3.564966440E0
3.800088450E0,-1.417367458E0,4.788403511E-1,-3.500322819E0
3.805088450E0,-1.532289028E0,5.363011956E-1,-3.469198227E0
3.810088416E0,-1.659181833E0,5.913678408E-1,-3.459621429E0
3.815088416E0,-1.774103403E0,6.536170840E-1,-3.445256233E0
3.820088416E0,-1.838746905E0,7.062895298E-1,-3.383007050E0
3.825088449E0,-1.869871497E0,7.709329724E-1,-3.277662039E0
3.830088449E0,-1.881842494E0,8.307880163E-1,-3.167528868E0
3.835087782E0,-1.898601890E0,8.882488012E-1,-3.016694069E0
3.840087782E0,-1.872265697E0,9.504981041E-1,-2.736572504E0
3.845087782E0,-1.805228114E0,1.015141487E0,-2.432508945E0
3.850088448E0,-1.695094824E0,1.077390790E0,-2.090138197E0
3.855088414E0,-1.575384736E0,1.127668977E0,-1.774103403E0
3.860088380E0,-1.434126854E0,1.137245774E0,-1.537077546E0
3.865088380E0,-1.309628367E0,1.127668977E0,-1.307234168E0
3.870088413E0,-1.199495077E0,1.086967587E0,-1.101332784E0
3.875088446E0,-1.182735682E0,9.528923035E-1,-4.548983276E-1
3.880088446E0,-3.507505417E0,-1.683123827E0,1.003679276E1
3.885088446E0,-4.821922302E0,-3.885789394E0,1.329530144E1
3.890088412E0,-4.977844715E0,-4.886565685E0,1.076223564E1
3.895088412E0,-4.644751072E0,-5.001786709E0,8.054393768E0
3.900088412E0,-4.273650169E0,-4.548983097E0,6.115090370E0
3.905088445E0,-3.950432777E0,-4.060565948E0,4.716577530E0
3.910088445E0,-3.533841610E0,-3.497928619E0,3.653551817E0
3.915088445E0,-3.055001259E0,-3.167528868E0,2.561795712E0
3.920088445E0,-2.410961151E0,-3.227383852E0,1.491587639E0
3.925088445E0,-1.661576033E0,-3.416525841E0,1.213860273E0
3.930088445E0,-9.864110947E-1,-3.493140221E0,1.824381709E0
3.935088411E0,-4.884171486E-1,-3.459621429E0,2.200271368E0
3.940088411E0,-1.867477298E-1,-3.248931646E0,2.059013367E0
3.945088411E0,1.005564705E-1,-3.026270866E0,1.886630893E0
3.950088444E0,3.998316824E-1,-2.815581083E0,1.661576033E0
3.955088444E0,6.105214357E-1,-2.621650934E0,1.503558636E0
3.960088444E0,7.637503147E-1,-2.501940727E0,1.395819545E0
3.965088410E0,9.600749016E-1,-2.494758129E0,1.158793569E0
3.970088376E0,1.362300754E0,-2.645592928E0,9.026140571E-1
3.975088342E0,1.865083098E0,-2.916137695E0,5.770025849E-1
3.980088342E0,2.391807556E0,-3.383007050E0,5.746084079E-2
3.985089008E0,2.820369720E0,-3.895366192E0,-4.836287498E-1
3.990089041E0,3.335123062E0,-4.599261284E0,-1.338358760E0
3.995089074E0,3.974374771E0,-5.396830082E0,-2.549824715E0
4.000089107E0,4.639962673E0,-6.490980148E0,-4.003105164E0
4.005089107E0,5.152621269E0,-7.846098423E0,-5.193322659E0
4.010089107E0,5.566818237E0,-9.756670952E0,-6.268319130E0
4.015089073E0,5.930737019E0,-1.231846714E1,-7.621043205E0
4.020089073E0,6.285078526E0,-1.588852119E1,-9.450213432E0
4.025089073E0,6.792649269E0,-2.046623421E1,-1.134402657E1
4.030089106E0,7.245153427E0,-2.586785316E1,-1.273266411E1
4.035089106E0,7.549217224E0,-3.093158913E1,-1.394652462E1
4.040088472E0,7.158962250E0,-3.561734009E1,-1.512716484E1
4.045088438E0,6.414365768E0,-3.950313187E1,-1.584063721E1
4.050088404E0,5.341763496E0,-4.236659622E1,-1.560361099E1
4.055087704E0,4.264073372E0,-4.421282578E1,-1.470099735E1
4.060087037E0,3.143586874E0,-4.516093063E1,-1.329290676E1
4.065087070E0,1.996764183E0,-4.535246658E1,-1.161457157E1
4.070087103E0,9.792284966E-1,-4.490953827E1,-9.917082787E0
4.075086236E0,1.005564705E-1,-4.393240356E1,-8.365639687E0
4.080085569E0,-7.110779285E-1,-4.232589340E1,-7.089530468E0
4.085084935E0,-1.292868972E0,-4.054700470E1,-5.961861610E0
4.090084001E0,-1.671152830E0,-3.838982773E1,-4.903624535E0
4.095083101E0,-1.960851192E0,-3.627335358E1,-4.031835556E0
4.100082201E0,-1.716642618E0,-3.189166451E1,-1.589749932E0
4.105082567E0,2.154781483E-2,-2.714156914E1,1.143500614E1
4.110081933E0,1.898601890E0,-2.328421021E1,2.464681053E1
4.115081266E0,2.875436306E0,-2.037764931E1,3.538989258E1
4.120080566E0,2.849100113E0,-1.837609673E1,4.230434799E1
4.125080566E0,2.461239338E0,-1.734898376E1,4.343919754E1
4.130080566E0,1.505952835E0,-1.777515221E1,3.847362518E1
4.135080566E0,6.416460276E-1,-1.840961456E1,3.208798981E1
4.140080532E0,1.580173075E-1,-1.857720947E1,2.553984642E1
4.145080532E0,-2.873042040E-2,-1.837849045E1,2.018611336E1
4.150080532E0,-1.915361285E-1,-1.762910652E1,1.602738380E1
4.155079665E0,-3.303998411E-1,-1.656608009E1,1.266802025E1
4.160079665E0,-4.213795066E-1,-1.526602840E1,9.907505989E0
4.165079665E0,-4.501099288E-1,-1.376456451E1,7.601889610E0
4.170079631E0,-4.333505034E-1,-1.202637482E1,5.667374611E0
4.175079631E0,-4.261679053E-1,-1.037916374E1,4.209006786E0
4.180079631E0,-5.339069963E-1,-8.595483780E0,3.689464808E0
4.185079664E0,-1.278503656E0,-6.371270180E0,6.074388981E0
4.190080297E0,-3.756502390E0,-2.999934673E0,1.709998703E1
4.195080297E0,-4.881777287E0,-4.716577232E-1,2.405514336E1
4.200080297E0,-4.548983097E0,7.110779285E-1,2.452470589E1
4.205080963E0,-3.588908434E0,7.038952708E-1,2.088282585E1
4.210081629E0,-2.674323320E0,3.926490843E-1,1.644876480E1
4.215081595E0,-1.941697598E0,9.097966552E-2,1.263450146E1
4.220081595E0,-1.328781962E0,-1.580173075E-1,9.591471672E0
4.225082495E0,-8.355764151E-1,-3.543418646E-1,7.204452038E0
4.230083195E0,-4.501099288E-1,-4.955997467E-1,5.329792023E0
4.235083995E0,-1.244984865E-1,-5.961562395E-1,3.816357613E0
4.240084895E0,1.747767180E-1,-6.679822803E-1,2.583343744E0
4.245085095E0,4.740519226E-1,-7.326257229E-1,1.604115129E0
4.250085961E0,7.805097699E-1,-7.852981687E-1,8.786720037E-1
4.255085627E0,1.134851575E0,-8.355764151E-1,5.075707436E-1
4.260086293E0,1.829170108E0,-9.002198577E-1,8.667010069E-1
4.265086993E0,2.671929121E0,-1.036689281E0,2.109291792E0
4.270087693E0,3.514688015E0,-1.350329757E0,3.679888010E0
4.275087693E0,3.962403774E0,-1.745373011E0,4.702212334E0
4.280087693E0,3.962403774E0,-2.264914751E0,4.850652695E0
4.285087926E0,3.825934410E0,-2.794033289E0,4.666299343E0
4.290087926E0,3.641580820E0,-3.526659012E0,4.343081951E0
4.295087892E0,3.548206806E0,-4.544194698E0,4.170699596E0
4.300087892E0,3.509899616E0,-5.854122639E0,4.024652958E0
4.305088792E0,3.531447411E0,-7.400776863E0,3.713406801E0
4.310088825E0,3.677493811E0,-9.325715065E0,3.186682463E0
4.315088591E0,3.952826977E0,-1.137994003E1,2.691082716E0
4.320088591E0,4.575319290E0,-1.418115616E1,2.480392933E0
4.325088557E0,5.394435883E0,-1.737771416E1,2.774879694E0
4.330088557E0,6.704063892E0,-2.185008240E1,4.848258495E0
4.335088557E0,8.312967300E0,-2.655738258E1,7.896376610E0
4.340088590E0,1.047493172E1,-3.198024940E1,9.735123634E0
4.345088590E0,1.319953346E1,-3.734355927E1,9.996091843E0
4.350088590E0,1.591246319E1,-4.224449158E1,9.153332710E0
4.355088590E0,1.767459488E1,-4.614973450E1,7.199663639E0
4.360088590E0,1.767459488E1,-4.800524139E1,4.491522312E0
4.365088590E0,1.665945435E1,-4.851760101E1,1.855506301E0
4.370088556E0,1.440142250E1,-4.728697968E1,-6.919242740E-1
4.375088522E0,1.188751030E1,-4.532852173E1,-2.741360903E0
4.380088522E0,9.012074471E0,-4.237138367E1,-4.201824188E0
4.385088388E0,6.246771336E0,-3.912724304E1,-5.174169064E0
4.390088421E0,3.725377798E0,-3.579690552E1,-5.629067421E0
4.395089087E0,1.513135433E0,-3.249021530E1,-5.552453041E0
4.400089087E0,-3.136404157E-1,-2.931789780E1,-5.047276497E0
4.405089053E0,-1.764526606E0,-2.636824036E1,-4.362235546E0
4.410089019E0,-2.722207308E0,-2.359066772E1,-3.718195200E0
4.415088985E0,-3.308786631E0,-2.118928337E1,-3.263296843E0
4.420088985E0,-3.476380825E0,-1.898661804E1,-3.059789658E0
4.425089018E0,-3.428496838E0,-1.706886292E1,-3.007117271E0
4.430089051E0,-3.134010077E0,-1.527799988E1,-3.136404276E0
4.435088751E0,-2.726995707E0,-1.365203762E1,-3.397372246E0
4.440088751E0,-2.279279947E0,-1.215805531E1,-3.679888010E0
4.445088751E0,-1.812410712E0,-1.074787045E1,-3.919308186E0
4.450088717E0,-1.364694953E0,-9.423876762E0,-4.089296341E0
4.455088717E0,-9.504981041E-1,-8.181286812E0,-4.201824188E0
4.460088717E0,-5.578489900E-1,-7.010521889E0,-4.271255970E0
4.465088983E0,-2.274491638E-1,-5.978621006E0,-4.311957359E0
4.470088983E0,3.591302410E-2,-5.020940304E0,-4.283226967E0
4.475088983E0,2.418143749E-1,-4.189853191E0,-4.211400986E0
4.480088949E0,3.567360640E-1,-3.411737442E0,-4.098873138E0
4.485088915E0,4.261679053E-1,-2.695871115E0,-3.998316765E0
4.490088881E0,4.572925270E-1,-2.018311977E0,-3.938461781E0
4.495088881E0,4.525041282E-1,-1.343147159E0,-3.916913986E0
4.500088881E0,4.046200812E-1,-6.991068721E-1,-3.857059002E0
4.505088914E0,3.327940404E-1,-1.556231081E-1,-3.744531393E0
4.510088947E0,2.346317619E-1,3.280056417E-1,-3.545812607E0
4.515088980E0,1.436520964E-1,7.469909191E-1,-3.371036053E0
4.520088980E0,3.830722719E-2,9.935936928E-1,-3.083731890E0
4.525088980E0,-8.140286058E-2,1.146822572E0,-2.817975283E0
4.530088080E0,-4.596867263E-1,1.230619669E0,-3.138798475E0
4.535087180E0,-7.613561153E-1,1.297657371E0,-3.397372246E0
4.540086280E0,-1.003170490E0,1.352723956E0,-3.603273630E0
4.545085380E0,-1.197100878E0,1.395819545E0,-3.768473387E0
4.550085413E0,-1.453280449E0,1.436521053E0,-3.936067581E0
4.555085446E0,-1.702277422E0,1.443703651E0,-4.058171749E0
4.560085479E0,-1.984793186E0,1.386242747E0,-4.139574528E0
4.565085479E0,-2.255337954E0,1.323993564E0,-4.194641590E0
4.570085479E0,-2.432508945E0,1.268926859E0,-4.098873138E0
4.575085445E0,-2.468421936E0,1.237802267E0,-3.842693806E0
4.580085445E0,-2.372653961E0,1.221042871E0,-3.457227230E0
4.585085545E0,-2.229001760E0,1.230619669E0,-3.002328873E0
4.590085578E0,-2.049436569E0,1.256955862E0,-2.540247917E0
4.595085578E0,-1.853112102E0,1.264138460E0,-2.106897593E0
4.600085578E0,-1.642422318E0,1.221042871E0,-1.740584612E0
4.605085544E0,-1.458068848E0,1.144428372E0,-1.467645645E0
4.610085510E0,-1.910573006E0,5.722141862E-1,-2.772485495E0
4.615084610E0,-2.612074137E0,-2.106897533E-1,-2.956839085E0
4.620084610E0,-3.047818661E0,-1.067813993E0,1.958456993E0
4.625084610E0,-3.375824451E0,-1.754949808E0,3.047818661E0
4.630084643E0,-3.629609823E0,-2.073378563E0,2.734178305E0
4.635084476E0,-3.612850428E0,-1.975216389E0,2.353500366E0
4.640084509E0,-3.483563423E0,-1.819593310E0,2.109291792E0
4.645084509E0,-3.205836058E0,-1.584961534E0,1.915361404E0
4.650084509E0,-2.724601507E0,-1.235408068E0,1.745373011E0
4.655084475E0,-2.319981337E0,-9.433154464E-1,1.620874524E0
4.660084475E0,-1.946485996E0,-7.134721279E-1,1.529894829E0
4.665084475E0,-1.618480325E0,-5.267243981E-1,1.431732655E0
4.670084508E0,-1.249773264E0,-4.237737060E-1,1.235408068E0
4.675084508E0,-8.212111592E-1,-4.620809257E-1,1.019929886E0
4.680085374E0,-5.219359994E-1,-5.482721925E-1,7.900865674E-1
4.685086240E0,-3.040636182E-1,-6.584054828E-1,5.530605912E-1
4.690087106E0,-8.379705995E-2,-8.499416113E-1,3.711012602E-1
4.695087339E0,1.173158810E-1,-1.027112484E0,1.963245422E-1
4.700087305E0,3.926490843E-1,-1.132457376E0,-6.943184882E-2
4.705087305E0,7.278373241E-1,-1.242590666E0,-3.543418646E-1
4.710087305E0,1.089361787E0,-1.470039845E0,-5.554547906E-1
4.715087338E0,1.484405041E0,-1.750161409E0,-7.254431248E-1
4.720087338E0,2.360682964E0,-2.236184359E0,-8.667010069E-1
4.725087338E0,3.294421434E0,-2.911349297E0,-9.935936928E-1
4.730087304E0,4.163516521E0,-3.773261786E0,-1.142034173E0
4.735087270E0,5.166986465E0,-4.941931725E0,-1.434126854E0
4.740087236E0,6.361693382E0,-6.931513309E0,-1.793257117E0
4.745087236E0,7.417536259E0,-9.320926666E0,-1.927332401E0
4.750087236E0,8.815750122E0,-1.265604973E1,-2.147598982E0
4.755087269E0,1.039831734E1,-1.625004578E1,-2.439691544E0
4.760087302E0,1.234001446E1,-2.068650055E1,-2.817975283E0
4.765088202E0,1.456422806E1,-2.526211929E1,-3.035847664E0
4.770088202E0,1.713590050E1,-3.045993233E1,-3.296815634E0
4.775088202E0,1.949179459E1,-3.544735336E1,-3.699041605E0
4.780088168E0,2.102887154E1,-3.985507965E1,-4.292803764E0
4.785088368E0,2.196979332E1,-4.348229599E1,-4.831499100E0
4.790088368E0,2.191472626E1,-4.621437836E1,-5.222053051E0
4.795088401E0,2.137842560E1,-4.825184250E1,-5.404012680E0
4.800088401E0,2.018850708E1,-4.930289841E1,-5.327397823E0
4.805088401E0,1.881184196E1,-4.968118286E1,-5.102343082E0
4.810088367E0,1.706407356E1,-4.911614990E1,-4.620809078E0
4.815088333E0,1.519899082E1,-4.789031982E1,-4.118026733E0
4.820088299E0,1.328332996E1,-4.609227371E1,-3.545812607E0
4.825088299E0,1.138233376E1,-4.382945251E1,-3.004723072E0
4.830088332E0,9.538799286E0,-4.123174286E1,-2.439691544E0
4.835088265E0,9.126996040E0,-3.645770645E1,4.003105164E0
4.840088298E0,1.092743587E1,-2.960280800E1,1.731785965E1
4.845088964E0,1.072871685E1,-2.412457466E1,2.656217194E1
4.850088964E0,9.067141533E0,-1.988204956E1,3.261471176E1
4.855088930E0,7.451055050E0,-1.686056709E1,3.617040253E1
4.860088896E0,6.189310551E0,-1.522293282E1,3.641221619E1
4.865088896E0,5.293879032E0,-1.478718853E1,3.381899643E1
4.870088929E0,4.513070107E0,-1.512716484E1,2.896595001E1
4.875088962E0,3.825934410E0,-1.541207504E1,2.373671341E1
4.880088962E0,3.251325846E0,-1.528518200E1,1.931941223E1
4.885088962E0,2.758120298E0,-1.478000546E1,1.571613884E1
4.890088962E0,2.358288765E0,-1.388906288E1,1.279012489E1
4.895088962E0,2.032677174E0,-1.290265179E1,1.043183613E1
4.900088962E0,1.731007814E0,-1.168400383E1,8.533234596E0
4.905088928E0,1.465251446E0,-1.046774864E1,7.027281284E0
4.910088928E0,4.501099288E-1,-8.633790970E0,9.581894875E0
4.915088928E0,-2.339135170E0,-6.074388981E0,1.991317368E1
4.920088561E0,-3.969586372E0,-4.352658749E0,2.414851761E1
4.925088561E0,-4.477157116E0,-3.330334663E0,2.376305008E1
4.930088561E0,-4.242525578E0,-2.621650934E0,2.148377037E1
4.935088527E0,-3.778050184E0,-2.109291792E0,1.870889091E1
4.940088493E0,-3.119644880E0,-1.781286120E0,1.533785439E1
4.945088459E0,-2.454056740E0,-1.551442742E0,1.225621796E1
4.950088459E0,-1.800439715E0,-1.381454349E0,9.481337547E0
4.955088492E0,-1.254561663E0,-1.261744261E0,7.194875240E0
4.960088525E0,-8.092401624E-1,-1.182735682E0,5.301061630E0
4.965088558E0,-4.213795066E-1,-1.137245774E0,3.751713991E0
4.970088558E0,-7.900865376E-2,-1.110909581E0,2.437297344E0
4.975088558E0,1.963245422E-1,-1.094150186E0,1.340752959E0
4.980088524E0,4.836287498E-1,-1.103726983E0,4.261679053E-1
4.985088590E0,7.278373241E-1,-1.130063176E0,-2.873041928E-1
4.990088590E0,9.193734527E-1,-1.180341482E0,-7.350199223E-1
4.995088623E0,1.103726983E0,-1.228225470E0,-9.074024558E-1
5.000088656E0,1.551442742E0,-1.316810966E0,-4.118026793E-1
5.005088656E0,2.214636564E0,-1.486799240E0,6.536170840E-1
5.010088656E0,2.920926094E0,-1.855506301E0,1.963245392E0
5.015088622E0,3.385401249E0,-2.473210335E0,3.083731890E0
5.020088588E0,3.483563423E0,-3.217807055E0,3.878606796E0
5.025088554E0,3.318363667E0,-3.916913986E0,4.304774761E0
5.030088554E0,3.102885485E0,-4.556165695E0,4.589684486E0
5.035088387E0,2.925714493E0,-5.169380665E0,4.819528103E0
5.040088420E0,2.796427488E0,-5.854122639E0,4.855441093E0
5.045088453E0,2.753331900E0,-6.558017731E0,4.759673119E0
5.050088453E0,2.837129116E0,-7.597101212E0,4.740519524E0
5.055088719E0,3.033453465E0,-9.174880028E0,4.992209911E0
5.060088019E0,3.426102638E0,-1.171033955E1,5.806238174E0
5.065087119E0,4.065354347E0,-1.528278828E1,7.403171062E0
5.070086852E0,4.843470097E0,-1.979106903E1,9.644144058E0
5.075085985E0,5.964255810E0,-2.519508171E1,1.148767948E1
5.080085318E0,7.759906769E0,-3.189166451E1,1.226579475E1
5.085085318E0,9.569923401E0,-3.839701080E1,1.227297688E1
5.090084651E0,1.119798088E1,-4.464377975E1,1.067604446E1
5.095084651E0,1.229452515E1,-4.968357468E1,8.317755699E0
5.100083751E0,1.231846714E1,-5.275054932E1,5.250783443E0
5.105082817E0,1.123389339E1,-5.378484344E1,2.248155355E0
5.110082117E0,9.047987938E0,-5.290616989E1,-2.920926213E-1
5.115082117E0,6.687304497E0,-5.059576797E1,-2.238578558E0
5.120082150E0,4.146757126E0,-4.710502243E1,-3.574543238E0
5.125081516E0,1.826775908E0,-4.351820755E1,-4.323928356E0
5.130081516E0,-2.513911724E-1,-3.953186035E1,-4.371812344E0
5.135080849E0,-1.994369984E0,-3.577775192E1,-4.137180328E0
5.140080815E0,-3.383007050E0,-3.195630836E1,-3.727771997E0
5.145080815E0,-4.424484730E0,-2.851344681E1,-3.390189648E0
5.150080815E0,-5.054459095E0,-2.523099518E1,-3.215412855E0
5.155079948E0,-5.320215225E0,-2.224991417E1,-3.153163671E0
5.160079281E0,-5.281908035E0,-1.957319832E1,-3.148375273E0
5.165079281E0,-5.028122902E0,-1.717660141E1,-3.227383852E0
5.170079281E0,-4.606443882E0,-1.501942539E1,-3.363853455E0
5.175079281E0,-4.149151325E0,-1.317559147E1,-3.519476414E0
5.180079281E0,-3.593696833E0,-1.148767948E1,-3.722983599E0
5.185079447E0,-3.064578056E0,-1.003200436E1,-3.928884983E0
5.190079447E0,-2.513911724E0,-8.705616951E0,-4.185064793E0
5.195079447E0,-2.001552582E0,-7.551611423E0,-4.453215122E0
5.200079047E0,-1.539471745E0,-6.517316341E0,-4.687847137E0
5.205078780E0,-1.125274777E0,-5.629067421E0,-4.874594688E0
5.210079446E0,-7.445967197E-1,-4.862623692E0,-4.996998310E0
5.215080312E0,-4.261679053E-1,-4.163516521E0,-5.018546104E0
5.220080945E0,-1.915361285E-1,-3.478775024E0,-4.970662117E0
5.225081811E0,-1.915361360E-2,-2.861071110E0,-4.893748283E0
5.230082477E0,1.005564705E-1,-2.255337954E0,-4.766855717E0
5.235082477E0,1.843535304E-1,-1.721431017E0,-4.618414879E0
5.240082510E0,2.059013397E-1,-1.197100878E0,-4.426878929E0
5.245082543E0,1.939303428E-1,-7.326257229E-1,-4.242525578E0
5.250083476E0,1.580173075E-1,-1.867477298E-1,-4.182670593E0
5.255084376E0,9.816227108E-2,2.346317619E-1,-4.084507942E0
5.260085042E0,2.394201700E-3,5.865794420E-1,-3.960009575E0
5.265085008E0,-1.244984865E-1,9.935936928E-1,-4.005499363E0
5.270085008E0,-3.303998411E-1,1.213860273E0,-4.074931145E0
5.275085674E0,-5.530605912E-1,1.379060149E0,-4.139574528E0
5.280085707E0,-7.900865674E-1,1.479616642E0,-4.228160381E0
5.285086373E0,-9.672574997E-1,1.484405041E0,-4.276044369E0
5.290086373E0,-1.098938584E0,1.388636947E0,-4.276044369E0
5.295086339E0,-1.237802267E0,1.280897856E0,-4.256890774E0
5.300086305E0,-1.357512355E0,1.177947283E0,-4.213795185E0
5.305087171E0,-1.460463047E0,1.096544385E0,-4.151545525E0
5.310087837E0,-1.663970232E0,1.103726983E0,-4.091690540E0
5.315087870E0,-1.898601890E0,1.189918280E0,-4.053383350E0
5.320087903E0,-2.138022184E0,1.340752959E0,-3.912125587E0
5.325087936E0,-2.296039343E0,1.517923832E0,-3.689464808E0
5.330087936E0,-2.267308950E0,1.687912226E0,-3.335123062E0
5.335087936E0,-2.147598982E0,1.807622313E0,-2.947262287E0
5.340087902E0,-1.970427990E0,1.893813491E0,-2.547430515E0
5.345087902E0,-1.872265697E0,1.922544003E0,-2.458845139E0
5.350088335E0,-2.092532396E0,1.731007814E0,-3.457227230E0
5.355088368E0,-2.444479942E0,1.357512355E0,-4.639962673E0
5.360088401E0,-2.755726099E0,6.655880809E-1,-5.183745861E0
5.365088401E0,-3.043030262E0,-2.896983922E-1,-5.030517101E0
5.370088401E0,-3.244143248E0,-1.314416766E0,-3.957615376E0
5.375088401E0,-3.174711466E0,-1.821987510E0,-3.047818661E0
5.380088401E0,-3.016694069E0,-2.013523579E0,-2.159569979E0
5.385088401E0,-2.865859509E0,-2.099714994E0,-1.446097851E0
5.390089034E0,-2.715024710E0,-2.061407566E0,-9.552865028E-1
5.395089034E0,-2.571372509E0,-1.980004787E0,-5.482721925E-1
5.400089034E0,-2.398990154E0,-1.850717902E0,-1.867477298E-1
5.405089067E0,-2.197877169E0,-1.695094824E0,8.140286058E-2
5.410089067E0,-1.980004787E0,-1.563413739E0,2.561795712E-1
5.415089067E0,-1.757344007E0,-1.448492050E0,3.734954596E-1
5.420088833E0,-1.522712231E0,-1.347935557E0,4.285621047E-1
5.425088833E0,-1.307234168E0,-1.264138460E0,4.429273009E-1
5.430088833E0,-1.096544385E0,-1.204283476E0,3.711012602E-1
5.435088866E0,-9.217676520E-1,-1.199495077E0,2.274491638E-1
5.440088866E0,-7.924807668E-1,-1.237802267E0,6.943184882E-2
5.445088866E0,-6.751648784E-1,-1.285686255E0,-4.309562966E-2
5.450088866E0,-5.291185975E-1,-1.347935557E0,-1.388636976E-1
5.455088866E0,-3.447650373E-1,-1.448492050E0,-2.274491638E-1
5.460088866E0,-1.556231081E-1,-1.656787634E0,-2.154781520E-1
5.465088832E0,5.506663769E-2,-1.999158382E0,-2.513911724E-1
5.470088832E0,3.711012602E-1,-2.806004286E0,-7.110779285E-1
5.475088832E0,7.062895298E-1,-3.974374771E0,-1.326387763E0
5.480088865E0,1.177947283E0,-6.100725174E0,-2.545036316E0
5.485088898E0,1.740584612E0,-9.026439667E0,-4.189853191E0
5.490088898E0,2.533065319E0,-1.295053673E1,-5.966650009E0
5.495088198E0,3.394978046E0,-1.807442665E1,-8.530839920E0
5.500088098E0,4.606443882E0,-2.417006493E1,-1.095137787E1
5.505088064E0,5.830180645E0,-3.043120193E1,-1.276857662E1
5.510088030E0,7.029675484E0,-3.649361801E1,-1.406862831E1
5.515088030E0,8.183680534E0,-4.181832504E1,-1.517744350E1
5.520088063E0,8.645761490E0,-4.668363953E1,-1.612315369E1
5.525087829E0,8.396764755E0,-5.070589828E1,-1.670733833E1
5.530087862E0,6.967426300E0,-5.333712769E1,-1.643918800E1
5.535087862E0,5.119102478E0,-5.447946167E1,-1.541207504E1
5.540087862E0,3.205836058E0,-5.422328186E1,-1.388666916E1
5.545087828E0,1.273715258E0,-5.272421265E1,-1.206707573E1
5.550087828E0,-3.232172430E-1,-5.015044403E1,-1.015171432E1
5.555087828E0,-1.632845521E0,-4.738035202E1,-8.459013939E0
5.560087861E0,-2.679111719E0,-4.414339447E1,-6.974608898E0
5.565087861E0,-3.495534420E0,-4.101147842E1,-5.767930984E0
5.570088061E0,-3.974374771E0,-3.606745148E1,-8.214805603E0
5.575088027E0,-4.041412354E0,-3.249500275E1,-8.198045731E0
5.580087993E0,-3.998316824E-1,-2.811840248E1,7.034463882E0
5.585087959E0,4.058171749E0,-2.390191460E1,2.118210030E1
5.590087959E0,5.696105003E0,-2.072959709E1,3.262189484E1
5.595087992E0,5.811026573E0,-1.868255424E1,3.900992584E1
5.600088025E0,4.570530891E0,-1.812949371E1,3.708738327E1
5.605088058E0,3.117250681E0,-1.822765541E1,3.204968262E1
5.610088091E0,1.395819545E0,-1.840722084E1,2.493890190E1
5.615088091E0,1.197100803E-2,-1.827793503E1,1.899380112E1
5.620088057E0,-9.457096457E-1,-1.762910652E1,1.453789234E1
5.625088023E0,-1.570596337E0,-1.665706062E1,1.114770222E1
5.630038112E0,-1.984793186E0,-1.534503746E1,8.645761490E0
5.635038112E0,-2.274491549E0,-1.331684875E1,6.656179905E0
5.640038145E0,-2.547430515E0,-1.086279202E1,5.724835396E0
5.645038811E0,-2.980781078E0,-8.411129951E0,6.814197540E0
5.650038877E0,-4.194641590E0,-5.590760231E0,1.291222858E1
5.655038877E0,-5.497386456E0,-2.940079689E0,2.062185860E1
5.660039010E0,-5.518934250E0,-1.187524080E0,2.442145538E1
5.665039010E0,-4.814739704E0,-4.022258818E-1,2.405274963E1
5.670038976E0,-3.813963413E0,-5.051765442E-1,2.003288460E1
5.675039242E0,-2.956839085E0,-7.158663273E-1,1.587176132E1
5.680039242E0,-2.233790159E0,-8.978256583E-1,1.232564926E1
5.685039275E0,-1.608903527E0,-1.019929886E0,9.488520622E0
5.690039275E0,-1.063025594E0,-1.086967587E0,7.240365028E0
5.695039275E0,-6.440402865E-1,-1.130063176E0,5.404012680E0
5.700039241E0,-3.040636182E-1,-1.146822572E0,3.890577793E0
5.705039241E0,-2.633621916E-2,-1.144428372E0,2.671929121E0
5.710039241E0,1.699883193E-1,-1.127668977E0,1.754949808E0
5.715039274E0,3.232172430E-1,-1.106121182E0,1.079784989E0
5.720039274E0,4.501099288E-1,-1.098938584E0,5.506663918E-1
5.725039274E0,5.985504389E-1,-1.122880578E0,1.915361285E-1
5.730039274E0,1.074996591E0,-1.185129881E0,8.236053586E-1
5.735039274E0,1.912967205E0,-1.338358760E0,2.456450939E0
5.740039274E0,2.595314741E0,-1.628057122E0,3.608062029E0
5.745039240E0,2.851494312E0,-1.958456993E0,3.895366192E0
5.750039206E0,2.736572504E0,-2.296039343E0,3.383007050E0
5.755039206E0,2.533065319E0,-2.638410330E0,2.820369720E0
5.760039206E0,2.276885748E0,-3.110068083E0,2.317587137E0
5.765039239E0,2.056619167E0,-3.713406801E0,2.094926596E0
5.770039239E0,1.915361404E0,-5.099948883E0,3.193865061E0
5.775039239E0,1.879448295E0,-7.305008888E0,4.951508522E0
5.780039205E0,1.953668594E0,-1.009664822E1,6.301837921E0
5.785039171E0,2.085349798E0,-1.306306362E1,6.881235123E0
5.790039137E0,2.334346771E0,-1.626919937E1,6.936301708E0
5.795039137E0,2.693476915E0,-1.950616074E1,7.020098686E0
5.800039170E0,3.397372246E0,-2.346616936E1,7.688080788E0
5.805039203E0,4.268861771E0,-2.754379463E1,8.875604630E0
5.810039103E0,5.631461620E0,-3.229149628E1,1.000566864E1
5.815039103E0,7.261912823E0,-3.688626862E1,9.960178375E0
5.820039103E0,8.729558945E0,-4.146637726E1,9.112630844E0
5.825039069E0,9.972148895E0,-4.514656448E1,7.656956196E0
5.830039069E0,1.074308205E1,-4.738993073E1,5.899612427E0
5.835039435E0,1.074068832E1,-4.812734604E1,3.773261786E0
5.840039468E0,9.842862129E0,-4.711699295E1,1.333570361E0
5.845039468E0,8.600272179E0,-4.538119507E1,-8.667010069E-1
5.850039468E0,6.890811920E0,-4.261319733E1,-2.918531895E0
5.855039434E0,5.226841450E0,-3.971621323E1,-4.637568474E0
5.860039400E0,3.502717018E0,-3.650558853E1,-5.945102215E0
5.865039366E0,1.881842494E0,-3.327790833E1,-6.653785706E0
5.870039366E0,4.501099288E-1,-3.011756134E1,-6.706458092E0
5.875039366E0,-8.164227605E-1,-2.708410835E1,-6.256348133E0
5.880039399E0,-1.857900500E0,-2.424428558E1,-5.593154430E0
5.885039432E0,-2.619256735E0,-2.163221169E1,-4.949114323E0
5.890039465E0,-3.009511471E0,-1.920688438E1,-4.498704910E0
5.895038798E0,-3.153163671E0,-1.709998703E1,-4.192247391E0
5.900038098E0,-3.016694069E0,-1.517265511E1,-4.036623955E0
5.905038064E0,-2.803610086E0,-1.350838566E1,-3.933673382E0
5.910038064E0,-2.456450939E0,-1.196651936E1,-3.900154591E0
5.915038064E0,-2.035071373E0,-1.056830597E1,-3.919308186E0
5.920038097E0,-1.625662923E0,-9.282619476E0,-3.962403774E0
5.925038097E0,-1.216254473E0,-8.075942039E0,-4.043806553E0
5.930038097E0,-8.140285611E-1,-6.969820499E0,-4.134786129E0
5.935038097E0,-4.644751251E-1,-5.961861610E0,-4.199429989E0
5.940038097E0,-1.556231081E-1,-5.030517101E0,-4.223371983E0
5.945038097E0,8.619125932E-2,-4.211400986E0,-4.232948780E0
5.950038063E0,3.040636182E-1,-3.452438831E0,-4.197035789E0
5.955038063E0,4.860229492E-1,-2.760514498E0,-4.156333923E0
5.960038063E0,6.248866320E-1,-2.047042370E0,-4.137180328E0
5.965038096E0,7.230489254E-1,-1.352723956E0,-4.118026733E0
5.970038096E0,7.876923680E-1,-7.062895298E-1,-4.077325344E0
5.975038096E0,8.212111592E-1,-1.412578970E-1,-3.991134167E0
5.980038062E0,8.427590132E-1,3.184288144E-1,-3.780444384E0
5.985037662E0,8.236053586E-1,6.344634295E-1,-3.512293816E0
5.990037628E0,7.493851185E-1,8.475474119E-1,-3.275267839E0
5.995037628E0,6.440402865E-1,9.361328483E-1,-3.069366693E0
6.000037628E0,4.477157295E-1,9.552865028E-1,-3.047818661E0
6.005037661E0,2.011129409E-1,9.816226959E-1,-3.136404276E0
6.010037694E0,-8.379705995E-2,1.036689281E0,-3.323152065E0
6.015037727E0,-4.141969085E-1,1.067813993E0,-3.562572241E0
6.020037727E0,-7.852981687E-1,1.041477680E0,-3.833117008E0
6.025037727E0,-1.134851575E0,9.576807022E-1,-4.072536945E0
6.030037693E0,-1.503558636E0,8.164227605E-1,-4.254496574E0
6.035037693E0,-1.860294700E0,6.847416759E-1,-4.414907932E0
6.040037693E0,-2.250549555E0,5.889736414E-1,-4.551377296E0
6.045038393E0,-2.609679937E0,5.147533417E-1,-4.637568474E0
6.050039093E0,-2.920926094E0,4.860229492E-1,-4.546588898E0
6.055039093E0,-3.026270866E0,5.267243981E-1,-4.244919777E0
6.060038393E0,-2.908955097E0,5.793967843E-1,-3.821146011E0
6.065037459E0,-2.647987127E0,6.057330370E-1,-3.368641853E0
6.070039025E0,-2.353500366E0,5.985504389E-1,-2.952050686E0
6.075038725E0,-2.068590164E0,5.530605912E-1,-2.607285738E0
6.080037858E0,-1.821987510E0,4.908113480E-1,-2.387019157E0
6.085036991E0,-2.003946781E0,2.633621991E-1,-3.416525841E0
6.090036124E0,-2.585737944E0,-4.620809257E-1,-3.892971992E0
6.095035224E0,-2.806004286E0,-1.182735682E0,-3.464409828E0
6.100034557E0,-2.983175278E0,-1.905784607E0,-2.789244890E0
6.105034523E0,-2.983175278E0,-2.142810583E0,-2.042253971E0
6.110034256E0,-2.940079689E0,-2.231395960E0,-1.379060149E0
6.115034222E0,-2.863465309E0,-2.205059767E0,-8.068459630E-1
6.120034222E0,-2.738966703E0,-2.094926596E0,-3.567360640E-1
6.125034222E0,-2.607285738E0,-1.922544003E0,-7.182605099E-3
6.130034255E0,-2.511517525E0,-1.687912226E0,2.968810201E-1
6.135033621E0,-2.427720547E0,-1.522712231E0,5.123591423E-1
6.140033654E0,-2.276885748E0,-1.455674648E0,5.339069963E-1
6.145033254E0,-2.126051188E0,-1.410184860E0,5.147533417E-1
6.150033254E0,-1.936909199E0,-1.364694953E0,4.189853072E-1
6.155033220E0,-1.716642618E0,-1.328781962E0,2.896983922E-1
6.160033220E0,-1.474828243E0,-1.326387763E0,1.364694983E-1
6.165033220E0,-1.235408068E0,-1.359906554E0,-1.197100803E-2
6.170033253E0,-1.022324085E0,-1.419761658E0,-1.460463107E-1
6.175033253E0,-8.451532125E-1,-1.501164436E0,-2.442085743E-1
6.180033253E0,-6.607996821E-1,-1.635239720E0,-2.489969730E-1
6.185032819E0,-4.812345505E-1,-1.826775908E0,-2.346317619E-1
6.190032785E0,-2.609679997E-1,-2.154781580E0,-2.873041928E-1
6.195032751E0,7.900865376E-2,-2.619256735E0,-5.099649429E-1
6.200032751E0,5.865794420E-1,-3.682282209E0,-1.398213744E0
6.205032784E0,1.292868972E0,-5.760748386E0,-2.947262287E0
6.210033484E0,2.372653961E0,-8.782231331E0,-4.656722069E0
6.215034417E0,3.806780815E0,-1.273505783E1,-6.553229332E0
6.220032817E0,5.377676487E0,-1.783740044E1,-8.040028572E0
6.225033117E0,7.218817234E0,-2.323153687E1,-9.270648003E0
6.230033983E0,9.852438927E0,-2.941845322E1,-1.020438671E1
6.235034849E0,1.241662884E1,-3.512892532E1,-1.100883865E1
6.240035749E0,1.476324654E1,-4.032913208E1,-1.182526112E1
6.245036682E0,1.635060120E1,-4.490235519E1,-1.263450146E1
6.250037382E0,1.698267174E1,-4.895334244E1,-1.308461189E1
6.255037382E0,1.647988892E1,-5.188384628E1,-1.281885529E1
6.260037615E0,1.536658478E1,-5.352148056E1,-1.200482655E1
6.265037615E0,1.403750420E1,-5.375611115E1,-1.078617764E1
6.270037615E0,1.250521469E1,-5.265717316E1,-9.134179115E0
6.275037615E0,1.105193424E1,-5.101235962E1,-7.606678009E0
6.280037581E0,9.447818756E0,-4.846253204E1,-6.306626320E0
6.285038247E0,7.968202591E0,-4.574272156E1,-5.241206646E0
6.290038247E0,6.586748123E0,-4.258207321E1,-4.326322556E0
6.295038680E0,5.298667431E0,-3.937384415E1,-3.464409828E0
6.300038680E0,4.906018734E0,-3.462853622E1,8.044517636E-1
6.305038680E0,8.559570312E0,-2.547041512E1,1.539531517E1
6.310038646E0,1.138712215E1,-1.922843170E1,2.794362640E1
6.315038612E0,1.237592793E1,-1.574486923E1,3.639066696E1
6.320038578E0,1.203116322E1,-1.420988655E1,3.694133377E1
6.325038578E0,1.123389339E1,-1.343177128E1,3.439869308E1
6.330038611E0,9.818920135E0,-1.347486687E1,2.796278000E1
6.335039044E0,8.439860344E0,-1.358500004E1,2.154841423E1
6.340039077E0,7.278672218E0,-1.337909794E1,1.636496735E1
6.345039077E0,6.373664379E0,-1.286673927E1,1.242141724E1
6.350039077E0,5.617096424E0,-1.207904720E1,9.397541046E0
6.355039043E0,4.953902721E0,-1.094898319E1,6.941090107E0
6.360039009E0,4.347870350E0,-9.567529678E0,5.135861874E0
6.365039009E0,3.823540211E0,-8.159738541E0,4.017470360E0
6.370039042E0,3.337517262E0,-6.629843712E0,4.424484730E0
6.375039075E0,2.880224705E0,-4.474762917E0,8.583512306E0
6.380039075E0,3.335123062E0,-1.589749932E0,1.902731895E1
6.385039075E0,4.261679173E0,2.705447972E-1,2.561167336E1
6.390039041E0,4.525041103E0,5.410895944E-1,2.438075447E1
6.395039007E0,4.204218388E0,2.442085743E-1,2.015259361E1
6.400038973E0,3.825934410E0,-1.077390760E-1,1.549826622E1
6.405038973E0,3.485957623E0,-4.644751251E-1,1.157626438E1
6.410039006E0,3.184288263E0,-7.948749661E-1,8.142979622E0
6.415038972E0,2.954444885E0,-1.055842996E0,5.303455830E0
6.420039005E0,2.784456491E0,-1.225831270E0,2.971204281E0
6.425039005E0,2.647987127E0,-1.321599364E0,1.098938584E0
6.430039005E0,2.511517525E0,-1.333570361E0,-3.471592367E-1
6.435038971E0,2.396595955E0,-1.290474772E0,-1.465251446E0
6.440038837E0,2.298433542E0,-1.209071875E0,-2.324769735E0
6.445038837E0,2.224213362E0,-1.098938584E0,-2.956839085E0
6.450038870E0,2.178723574E0,-9.744400978E-1,-3.397372246E0
6.455038870E0,2.166752577E0,-8.547300100E-1,-3.677493811E0
6.460038870E0,2.197877169E0,-7.493851185E-1,-3.739742994E0
6.465038870E0,2.250549555E0,-6.655880809E-1,-3.691859007E0
6.470038870E0,2.370259762E0,-6.081272364E-1,-3.445256233E0
6.475038870E0,2.817975283E0,-5.386953950E-1,-1.817199111E0
6.480038836E0,4.225766182E0,-9.624691010E-1,3.629609823E0
6.485038802E0,5.035305500E0,-1.843535304E0,7.664138794E0
6.490038802E0,5.245995045E0,-2.767697096E0,9.057564735E0
6.495038835E0,5.138256073E0,-3.512293816E0,8.528446198E0
6.500038868E0,5.049670696E0,-4.182670593E0,7.118260860E0
6.505038868E0,5.080795288E0,-4.886565685E0,5.746383190E0
6.510038868E0,5.439925671E0,-5.966650009E0,4.795586109E0
6.515038834E0,6.026504993E0,-7.295432091E0,4.333505154E0
6.520038834E0,7.067982674E0,-9.275436401E0,4.335899353E0
6.525038834E0,8.226776123E0,-1.154274559E1,4.857835293E0
6.530038867E0,9.462183952E0,-1.514631844E1,8.344092369E0
6.535038867E0,1.139191055E1,-1.976952171E1,1.117882729E1
6.540038867E0,1.436790371E1,-2.512086296E1,1.247169590E1
6.545038867E0,1.789246750E1,-3.103932953E1,1.290983486E1
6.550038867E0,2.147658730E1,-3.674979782E1,1.273745251E1
6.555038867E0,2.441187859E1,-4.145679855E1,1.205989361E1
6.560038833E0,2.592292023E1,-4.418409348E1,1.022114658E1
6.565038899E0,2.616952324E1,-4.523993683E1,7.915530205E0
6.570038899E0,2.485031700E1,-4.404014206E1,4.927566528E0
6.575038932E0,2.305676079E1,-4.209126282E1,2.073378563E0
6.580038932E0,2.083733559E1,-3.933553696E1,-7.805097699E-1
6.585038932E0,1.860593987E1,-3.638827515E1,-3.205836058E0
6.590039032E0,1.648946571E1,-3.340480042E1,-5.202899456E0
6.595039032E0,1.454268074E1,-3.050063324E1,-6.694487095E0
6.600039032E0,1.266323185E1,-2.767068672E1,-7.685686588E0
6.605039065E0,1.108066463E1,-2.507537270E1,-8.265083313E0
6.610039098E0,9.675268173E0,-2.265932274E1,-8.698433876E0
6.615039098E0,8.456619263E0,-2.054763794E1,-9.026439667E0
6.620039098E0,7.324162483E0,-1.852932549E1,-9.047987938E0
6.625039098E0,6.323386192E0,-1.673606873E1,-8.877999306E0
6.630039098E0,5.427954674E0,-1.507209778E1,-8.478167534E0
6.635038798E0,4.651933670E0,-1.358260536E1,-8.075942039E0
6.640038764E0,3.991134167E0,-1.226818848E1,-7.685686588E0
6.645038764E0,3.418920040E0,-1.109263611E1,-7.295432091E0
6.650038764E0,2.839523315E0,-9.991303444E0,-6.893206120E0
6.655038797E0,2.284068346E0,-9.002497673E0,-6.483797550E0
6.660038797E0,1.651999116E0,-8.008903503E0,-5.969044209E0
6.665038797E0,1.024718285E0,-7.087136269E0,-5.435137272E0
6.670038763E0,4.357447028E-1,-6.174945354E0,-4.944325924E0
6.675038729E0,-5.985504389E-2,-5.315426826E0,-4.599261284E0
6.680038695E0,-4.525041282E-1,-4.520252705E0,-4.367023945E0
6.685038695E0,-7.637503147E-1,-3.821146011E0,-4.216189384E0
6.690038728E0,-1.031900883E0,-3.189076662E0,-4.110844135E0
6.695038761E0,-1.244984865E0,-2.636016130E0,-3.971980572E0
6.700038794E0,-1.371877551E0,-2.159569979E0,-3.749319792E0
6.705038794E0,-1.448492050E0,-1.764526606E0,-3.512293816E0
6.710038794E0,-1.510741234E0,-1.443703651E0,-3.284844637E0
6.715038760E0,-1.599326730E0,-1.204283476E0,-3.117250681E0
6.720038760E0,-1.769315004E0,-1.070208192E0,-3.059789658E0
6.725038760E0,-2.042253971E0,-1.017535686E0,-3.160346270E0
6.730038793E0,-2.456450939E0,-1.048660398E0,-3.399766445E0
6.735038826E0,-3.009511471E0,-1.149216771E0,-3.754108191E0
6.740038826E0,-3.699041605E0,-1.304839969E0,-4.211400986E0
6.745038792E0,-4.503493309E0,-1.498770237E0,-4.812345505E0
6.750038758E0,-5.461473465E0,-1.721431017E0,-5.609913826E0
6.755038724E0,-6.354510784E0,-1.927332401E0,-6.337751389E0
6.760038690E0,-7.154173851E0,-2.073378563E0,-6.780678272E0
6.765038690E0,-7.767089367E0,-2.154781580E0,-6.965032101E0
6.770038723E0,-7.915530205E0,-2.044648170E0,-6.553229332E0
6.775038756E0,-7.697657585E0,-1.786074519E0,-5.799055576E0
6.780038789E0,-7.259518623E0,-1.426944256E0,-4.956296921E0
6.785039089E0,-6.648997307E0,-1.012747288E0,-4.125209332E0
6.790039089E0,-5.890035629E0,-6.464344859E-1,-3.373430252E0
6.795039055E0,-5.399224281E0,-5.027823448E-1,-3.210624456E0
6.800039055E0,-5.854122639E0,-1.077390790E0,-4.513070107E0
6.805039055E0,-5.684134007E0,-1.599326730E0,-4.039018154E0
6.810039088E0,-4.754884720E0,-2.219424963E0,-8.236053586E-1
6.815039088E0,-4.441244125E0,-2.987963676E0,1.347935557E0
6.820039088E0,-4.802768707E0,-3.775655985E0,1.754949808E0
6.825039088E0,-4.925172329E0,-4.122815132E0,1.786074519E0
6.830039088E0,-4.774038315E0,-4.283226967E0,1.805228114E0
6.835038821E0,-4.352658749E0,-4.268861771E0,1.970427990E0
6.840038787E0,-3.797203779E0,-3.995922565E0,2.351106167E0
6.845038787E0,-3.325546265E0,-3.636792421E0,2.657563925E0
6.850038787E0,-2.947262287E0,-3.227383852E0,2.722207308E0
6.855038820E0,-2.626439333E0,-2.839523315E0,2.707842112E0
6.860038853E0,-2.398990154E0,-2.394201756E0,2.734178305E0
6.865038853E0,-2.183511972E0,-2.023100376E0,2.645592928E0
6.870038819E0,-1.912967205E0,-1.726219416E0,2.422932148E0
6.875038785E0,-1.666364431E0,-1.498770237E0,2.195482969E0
6.880038785E0,-1.460463047E0,-1.309628367E0,1.968033791E0
6.885038785E0,-1.304839969E0,-1.163581967E0,1.771709204E0
6.890038818E0,-1.180341482E0,-1.067813993E0,1.613691926E0
6.895038818E0,-1.122880578E0,-1.015141487E0,1.484405041E0
6.900038818E0,-1.228225470E0,-1.046266198E0,1.307234168E0
6.905038818E0,-1.405396342E0,-1.122880578E0,1.122880578E0
6.910038818E0,-1.675941229E0,-1.328781962E0,9.074024558E-1
6.915038818E0,-1.963245392E0,-1.719036818E0,7.038952708E-1
6.920038784E0,-2.238578558E0,-2.384624958E0,4.932055473E-1
6.925038784E0,-2.492363930E0,-3.464409828E0,2.370259613E-1
6.930038784E0,-2.640804529E0,-5.102343082E0,-9.337386489E-2
6.935038817E0,-2.159569979E0,-7.587524414E0,-6.177040339E-1
6.940038817E0,-9.935936928E-1,-1.098968506E1,-1.283292055E0
6.945038817E0,6.943184882E-2,-1.412608910E1,-1.647210717E0
6.950038783E0,1.489193439E0,-1.787570763E1,-1.865083098E0
6.955038749E0,3.136404276E0,-2.171361351E1,-2.422932148E0
6.960038715E0,5.595548630E0,-2.628683853E1,-3.313575268E0
6.965038715E0,8.375216484E0,-3.114467430E1,-3.945644379E0
6.970038748E0,1.157147598E1,-3.572986984E1,-3.998316765E0
6.975038781E0,1.474888134E1,-3.960847473E1,-4.271255970E0
6.980038814E0,1.653734970E1,-4.287177277E1,-4.489128113E0
6.985039114E0,1.774642181E1,-4.572595978E1,-4.592078686E0
6.990039114E0,1.811273384E1,-4.767244720E1,-4.893748283E0
6.995039080E0,1.787092018E1,-4.865646362E1,-5.202899456E0
7.000039046E0,1.665706062E1,-4.817044067E1,-5.435137272E0
7.005039046E0,1.517026043E1,-4.695897293E1,-5.564424038E0
7.010039046E0,1.343655968E1,-4.470363617E1,-5.456685066E0
7.015039079E0,1.172949314E1,-4.199789047E1,-5.186140060E0
7.020039079E0,1.001524544E1,-3.906499100E1,-4.766855717E0
7.025039079E0,8.372822762E0,-3.600520325E1,-4.280832767E0
7.030039045E0,6.845322132E0,-3.276076126E1,-3.708618402E0
7.035038345E0,5.562029839E0,-2.973688316E1,-3.136404276E0
7.040038311E0,4.465186119E0,-2.675610161E1,-2.547430515E0
7.045037644E0,3.560178041E0,-2.409345055E1,-2.039859772E0
7.050037677E0,5.703287601E0,-1.957319832E1,4.721365929E0
7.055037043E0,9.629778862E0,-1.438226891E1,1.786134338E1
7.060036409E0,1.072153473E1,-1.074787045E1,2.622458839E1
7.065035509E0,1.097771454E1,-8.087912560E0,2.967702866E1
7.070034609E0,1.070238113E1,-6.318597794E0,2.944718361E1
7.075033675E0,9.986514091E0,-5.286696434E0,2.695721436E1
7.080032775E0,9.045593262E0,-4.893748283E0,2.302803040E1
7.085032108E0,8.260294914E0,-4.853046894E0,1.859875679E1
7.090031241E0,7.879617214E0,-4.807557106E0,1.517504883E1
7.095030341E0,7.922712803E0,-4.467580318E0,1.418115616E1
7.100030341E0,8.585906982E0,-3.473986626E0,1.693718147E1
7.105029441E0,9.265859604E0,-2.614468336E0,1.894112778E1
7.110029441E0,9.799766541E0,-1.982398987E0,1.772487450E1
7.115029441E0,1.034085655E1,-1.280897856E0,1.479676533E1
7.120028741E0,1.077181244E1,-8.044517636E-1,1.174625301E1
7.125028041E0,1.114052010E1,-7.613561153E-1,9.591471672E0
7.130028041E0,1.161696625E1,-1.039083481E0,8.380004883E0
7.135028041E0,1.207186413E1,-1.347935557E0,7.166144848E0
7.140027741E0,1.245014858E1,-1.644816518E0,5.396830082E0
7.145027741E0,1.275660610E1,-1.867477298E0,3.524264812E0
7.150027741E0,1.300560284E1,-1.968033791E0,1.606509328E0
7.155028474E0,1.310855389E1,-1.982398987E0,-2.394201607E-2
7.160028074E0,1.299842072E1,-1.915361404E0,-1.302445769E0
7.165028074E0,1.262971306E1,-1.788468719E0,-2.205059767E0
7.170028107E0,1.206707573E1,-1.635239720E0,-2.712630510E0
7.175028107E0,1.151880360E1,-1.446097851E0,-2.746149302E0
7.180028107E0,1.095137787E1,-1.177947283E0,-1.960851192E0
7.185028773E0,1.041747093E1,-8.786720037E-1,-6.919242740E-1
7.190028773E0,9.720758438E0,-5.386953950E-1,1.259350061E0
7.195029439E0,8.875604630E0,-3.016694188E-1,3.047818661E0
7.200029405E0,7.786243439E0,-4.477157295E-1,4.252102375E0
7.205030071E0,6.917148113E0,-9.935936928E-1,5.076006889E0
7.210030737E0,6.282684326E0,-1.759738207E0,5.576395035E0
7.215031670E0,5.842151642E0,-2.643198729E0,5.650615215E0
7.220032570E0,5.509357452E0,-3.572149038E0,5.234024048E0
7.225033470E0,5.277119637E0,-4.443638325E0,4.723760128E0
7.230034336E0,5.327397823E0,-5.509357452E0,4.288015366E0
7.235034302E0,5.564424038E0,-6.725611687E0,4.153939724E0
7.240035202E0,6.160580158E0,-8.494926453E0,4.695029736E0
7.245036135E0,6.893206120E0,-1.053957558E1,6.100725174E0
7.250036168E0,8.054393768E0,-1.332882023E1,8.526051521E0
7.255037068E0,9.739912033E0,-1.673127937E1,1.092504120E1
7.260037068E0,1.233522606E1,-2.088043213E1,1.255549335E1
7.265037068E0,1.582387733E1,-2.571223068E1,1.347965527E1
7.270037734E0,2.019090080E1,-3.136494064E1,1.373822880E1
7.275038400E0,2.420358276E1,-3.659178162E1,1.375259399E1
7.280038366E0,2.739295959E1,-4.114794922E1,1.334079075E1
7.285038366E0,2.939929962E1,-4.437562943E1,1.245972538E1
7.290038699E0,2.936099243E1,-4.521120834E1,1.059943008E1
7.295038732E0,2.799151039E1,-4.423197937E1,8.016086578E0
7.300038732E0,2.607854271E1,-4.228040314E1,4.992209911E0
7.305037965E0,2.385403061E1,-3.984789658E1,1.819593310E0
7.310038331E0,2.147658730E1,-3.725737000E1,-1.091755986E0
7.315038297E0,1.912787628E1,-3.468839264E1,-3.531447411E0
7.320038263E0,1.690126801E1,-3.217897034E1,-5.356128693E0
7.325038263E0,1.494999409E1,-2.989968872E1,-6.656179905E0
7.330038296E0,1.313728428E1,-2.767308044E1,-7.597101212E0
7.335038329E0,1.153316879E1,-2.569307709E1,-8.370428085E0
7.340038362E0,1.001763916E1,-2.381811714E1,-9.062353134E0
7.345038362E0,8.691251755E0,-2.210386848E1,-9.526827812E0
7.350038362E0,7.482179642E0,-2.053806114E1,-9.847650528E0
7.355038328E0,6.285078526E0,-1.910632896E1,-1.006312943E1
7.360038294E0,5.123890877E0,-1.779191208E1,-1.007270622E1
7.365038294E0,4.074931145E0,-1.658283997E1,-9.833285332E0
7.370038327E0,3.026270866E0,-1.542883396E1,-9.287407875E0
7.375038360E0,2.061407566E0,-1.438226891E1,-8.636184692E0
7.380038360E0,1.192312479E0,-1.333121395E1,-7.829339027E0
7.385039026E0,4.764461517E-1,-1.236156273E1,-7.053617477E0
7.390038992E0,-1.221042871E-1,-1.134881496E1,-6.313809395E0
7.395038958E0,-6.177040339E-1,-1.035522175E1,-5.648221016E0
7.400038924E0,-1.036689281E0,-9.364022255E0,-5.066430092E0
7.405038924E0,-1.376665950E0,-8.384793282E0,-4.565742493E0
7.410038957E0,-1.680729628E0,-7.455843449E0,-4.173093796E0
7.415038990E0,-1.910573006E0,-6.562806129E0,-3.847482204E0
7.420039023E0,-2.114080191E0,-5.705681801E0,-3.588908434E0
7.425039023E0,-2.264914751E0,-4.944325924E0,-3.380612850E0
7.430039023E0,-2.389413357E0,-4.259284973E0,-3.160346270E0
7.435039056E0,-2.470816135E0,-3.684676409E0,-2.954444885E0
7.440039056E0,-2.530671120E0,-3.213018656E0,-2.794033289E0
7.445039056E0,-2.624045134E0,-2.832340717E0,-2.734178305E0
7.450039089E0,-2.782062292E0,-2.552218914E0,-2.774879694E0
7.455039089E0,-3.045424461E0,-2.391807556E0,-2.966415882E0
7.460039089E0,-3.519476414E0,-2.382230759E0,-3.414131641E0
7.465039089E0,-4.086902142E0,-2.432508945E0,-3.960009575E0
7.470039089E0,-4.881777287E0,-2.566584110E0,-4.651933670E0
7.475039089E0,-5.696105003E0,-2.717418909E0,-5.315426826E0
7.480039055E0,-6.584353924E0,-2.901772499E0,-5.992986202E0
7.485039021E0,-7.419930458E0,-3.069366693E0,-6.625055313E0
7.490039021E0,-8.205228806E0,-3.196259260E0,-7.149385452E0
7.495039054E0,-8.945036888E0,-3.268085241E0,-7.474997044E0
7.500039087E0,-9.577106476E0,-3.246537447E0,-7.496544838E0
7.505039087E0,-9.845256805E0,-3.028665066E0,-7.120655060E0
7.510039087E0,-9.572318077E0,-2.545036316E0,-6.263530731E0
7.515039053E0,-9.057564735E0,-1.980004787E0,-5.334580898E0
7.520039053E0,-8.284236908E0,-1.271321058E0,-4.347870350E0
7.525039053E0,-7.518092632E0,-6.320692301E-1,-3.526659012E0
7.530039086E0,-6.988974094E0,-1.723825186E-1,-3.734954596E0
7.535039086E0,-6.706458092E0,1.101332754E-1,-4.419696331E0
7.540039086E0,-6.237194538E0,1.867477298E-1,-4.537012100E0
7.545039086E0,-5.562029839E0,-6.943184882E-2,-4.070142746E0
7.550039086E0,-4.683058739E0,-6.320692301E-1,-2.980781078E0
7.555039086E0,-3.351882458E0,-1.292868972E0,-3.687070608E-1
7.560039052E0,-2.504334927E0,-2.224213362E0,2.856282711E0
7.565039052E0,-2.458845139E0,-3.256114244E0,4.553771496E0
7.570039052E0,-2.935291290E0,-3.976768970E0,4.613626480E0
7.575039085E0,-3.256114244E0,-4.259284973E0,4.486733913E0
7.580039085E0,-3.375824451E0,-4.125209332E0,4.481945515E0
7.585039018E0,-3.320757866E0,-3.811569214E0,4.446032524E0
7.590038984E0,-3.102885485E0,-3.390189648E0,4.376600742E0
7.595038984E0,-2.837129116E0,-2.913743496E0,4.118026733E0
7.600038984E0,-2.578555346E0,-2.506729126E0,3.718195200E0
7.605039017E0,-2.348711967E0,-2.200271368E0,3.339911461E0
7.610039050E0,-2.166752577E0,-1.924938202E0,3.033453465E0
7.615039050E0,-2.051830769E0,-1.692700624E0,2.710236311E0
7.620039050E0,-1.991975784E0,-1.525106430E0,2.312798738E0
7.625039050E0,-1.934514999E0,-1.434126854E0,1.910573006E0
7.630039050E0,-1.889025092E0,-1.381454349E0,1.525106430E0
7.635038950E0,-1.829170108E0,-1.333570361E0,1.206677675E0
7.640038916E0,-1.783680320E0,-1.323993564E0,9.097966552E-1
7.645038916E0,-1.786074519E0,-1.374271750E0,6.703764796E-1
7.650038916E0,-1.841141105E0,-1.455674648E0,5.913678408E-1
7.655038949E0,-1.893813491E0,-1.582567334E0,5.674257874E-1
7.660038949E0,-1.958456993E0,-1.908178806E0,6.248866320E-1
7.665038949E0,-2.013523579E0,-2.355894566E0,6.751648784E-1
7.670038915E0,-2.018311977E0,-7.015310287E0,2.561795712E-1
7.675038915E0,-1.338358760E0,-9.830891609E0,-4.525041282E-1
7.680038915E0,-3.112462163E-1,-1.678155899E1,-2.097320795E0
7.685038948E0,2.973598480E0,-2.509452629E1,-5.787084579E0
7.690038948E0,1.056591129E1,-3.555748749E1,-9.593865395E0
7.695038948E0,1.938405609E1,-4.725106812E1,-1.401835060E1
7.700038948E0,2.701467514E1,-5.576036072E1,-1.682225990E1
7.705038948E0,3.058443069E1,-5.864058304E1,-1.754770279E1
7.710038948E0,3.585436630E1,-6.323984528E1,-1.753094292E1
7.715038914E0,3.674501038E1,-6.629275513E1,-1.693478775E1
7.720038914E0,3.290201569E1,-6.839007568E1,-1.561079407E1
7.725038914E0,2.558294296E1,-6.575405884E1,-1.437987423E1
7.730038947E0,1.790204430E1,-6.007949829E1,-1.088673401E1
7.735038980E0,1.159781265E1,-5.342571259E1,-8.312967300E0
7.740038980E0,6.572382927E0,-4.677222824E1,-5.873276234E0
7.745038946E0,3.344699860E0,-4.012083435E1,-3.995922565E0
7.750038912E0,1.086967587E0,-3.289004517E1,-2.444479942E0
7.755038878E0,5.770025849E-1,-2.947112656E1,-1.719036818E0
7.760038844E0,2.130839527E-1,-2.510649681E1,-8.714894056E-1
7.765038444E0,9.816227108E-2,-2.302084732E1,-4.165911078E-1
7.770038477E0,4.070143029E-2,-1.994429779E1,4.309562966E-2
7.775038510E0,1.508347094E-1,-1.474648666E1,-2.293645144E0
7.780038543E0,2.274491638E-1,-1.159302425E1,1.999158382E0
7.785038643E0,3.473986626E0,-1.220833397E1,1.263928986E1
7.790038643E0,1.753333855E1,-2.355894566E0,6.247130585E1
7.795038609E0,3.613449097E1,7.427113056E0,7.743327332E1
7.800038609E0,2.302324295E1,-2.995146275E0,7.270921326E1
7.805038609E0,1.611597061E1,-8.454225540E0,4.966442108E1
7.810038642E0,8.664915085E0,-1.280927849E1,1.440621090E1
7.815038642E0,6.694487095E0,-1.300081444E1,4.788403399E-3
7.820038642E0,4.474762917E0,-9.972148895E0,-8.614637375E0
7.825038608E0,3.531447411E0,-8.030451775E0,-8.719982147E0
7.830038574E0,2.604891539E0,-7.743147373E0,-6.692092896E0
7.835037874E0,1.889025092E0,-7.094318867E0,-4.510675907E0
7.840037874E0,1.328781962E0,-5.760748386E0,-2.473210335E0
7.845037907E0,1.024718285E0,-4.795586109E0,-1.529894829E0
7.850037940E0,-1.460463107E-1,-2.363077164E0,2.499546528E0
7.855037973E0,-3.536235809E0,1.216254473E0,1.920449066E1
7.860038006E0,-1.218918037E1,9.141361237E0,7.107875824E1
7.865038006E0,-6.445490360E0,8.669703484E0,6.323026657E1
7.870037972E0,1.453280449E0,2.808398485E0,2.478567314E1
7.875037938E0,2.480392933E0,-1.288080573E0,4.704606533E0
7.880037938E0,1.963245392E0,-2.662352324E0,-2.169146776E0
7.885037938E0,1.781286120E0,-2.674323320E0,-3.809175014E0
7.890037971E0,2.542642117E0,-2.664746523E0,-3.641580820E0
7.895037971E0,2.853888512E0,-2.616862535E0,-3.854664803E0
7.900037971E0,3.292027235E0,-2.485181332E0,-4.209006786E0
7.905037971E0,3.452438831E0,-2.360682964E0,-4.089296341E0
7.910037971E0,3.751713991E0,-2.205059767E0,-3.742137194E0
7.915038371E0,3.938461781E0,-2.116474390E0,-3.598485231E0
7.920038337E0,4.091690540E0,-1.991975784E0,-3.711012602E0
7.925038337E0,4.268861771E0,-1.963245392E0,-3.318363667E0
7.930038337E0,5.260360241E0,-1.821987510E0,2.561795712E-1
7.935038370E0,8.226776123E0,-2.061407566E0,1.009904194E1
7.940038370E0,9.938630104E0,-4.405331135E0,1.383399677E1
7.945038370E0,8.456619263E0,-5.820603371E0,9.677662849E0
7.950038336E0,6.012139797E0,-7.010521889E0,3.055001259E0
7.955038336E0,5.653009415E0,-7.834127426E0,8.667010069E-1
7.960038336E0,5.614702225E0,-9.534010887E0,-1.963245422E-1
7.965038369E0,5.990592003E0,-1.141106415E1,4.357447028E-1
7.970038369E0,6.967426300E0,-1.389624596E1,2.085349798E0
7.975038369E0,8.293813705E0,-1.733940697E1,4.015076160E0
7.980038369E0,1.074308205E1,-2.242947960E1,5.590760231E0
7.985039035E0,1.268956852E1,-2.566434669E1,5.973832607E0
7.990039035E0,1.719096756E1,-3.110876083E1,5.667374611E0
7.995039001E0,2.095704651E1,-3.451121902E1,5.542876244E0
8.000038967E0,2.904735374E1,-4.187578583E1,1.108545303E1
8.005038967E0,3.125959587E1,-4.847929382E1,3.166421509E1
8.010038967E0,3.540665054E1,-5.764699173E1,3.450643158E1
8.015039000E0,3.867473602E1,-5.781219101E1,1.894591713E1
8.020039000E0,3.552636337E1,-5.417060852E1,8.664915085E0
8.025039000E0,2.719902992E1,-4.545541382E1,1.508347034E0
8.030038966E0,1.891239738E1,-3.483443832E1,-4.683058739E0
8.035038799E0,1.558206367E1,-2.996672630E1,-7.441478252E0
8.040038765E0,1.168160915E1,-2.438554192E1,-1.091067600E1
8.045038765E0,9.699210167E0,-2.165375900E1,-1.149486160E1
8.050038131E0,5.976226807E0,-1.849341202E1,-1.166724396E1
8.055037264E0,4.388571739E0,-1.752375984E1,-1.162175465E1
8.060036630E0,1.975216389E0,-1.684380722E1,-1.137515163E1
8.065035730E0,9.911994934E-1,-1.583106041E1,-1.059943008E1
8.070035063E0,8.403648138E-1,-1.500027180E1,-1.008707142E1
8.075034363E0,1.005564690E0,-1.435114384E1,-1.022114658E1
8.080033696E0,9.983820915E-1,-1.367597961E1,-1.008707142E1
8.085032796E0,9.313444495E-1,-1.288828659E1,-1.022593498E1
8.090031929E0,8.714894056E-1,-1.210538292E1,-1.015410900E1
8.095031029E0,1.086967587E0,-1.168879223E1,-9.938630104E0
8.100030129E0,1.606509328E0,-1.122671127E1,-9.514857292E0
8.105030095E0,1.544260144E0,-1.109024143E1,-9.275436401E0
8.110030561E0,1.596932530E0,-1.057548809E1,-8.854057312E0
8.115030861E0,1.544260144E0,-1.010861874E1,-8.303390503E0
8.120030861E0,1.424550056E0,-9.447818756E0,-7.532457829E0
8.125030527E0,1.154005170E0,-8.617031097E0,-6.730400085E0
8.130030560E0,6.631938815E-1,-7.388805866E0,-5.540482044E0
8.135030593E0,3.447650373E-1,-6.610690117E0,-4.951508522E0
8.140030793E0,-1.005564705E-1,-5.375282288E0,-4.165910721E0
8.145030793E0,-4.022258818E-1,-4.721365929E0,-3.770867586E0
8.150030793E0,-7.158663273E-1,-3.627215624E0,-3.239354849E0
8.155029859E0,-8.954314590E-1,-3.095702887E0,-2.999934673E0
8.160029859E0,-1.072602391E0,-2.387019157E0,-2.796427488E0
8.165029859E0,-1.110909581E0,-1.821987510E0,-2.688688517E0
8.170029892E0,-1.024718285E0,-1.388636947E0,-2.521094322E0
8.175029892E0,-1.005564690E0,-1.132457376E0,-2.200271368E0
8.180029892E0,-1.130063176E0,-9.576807022E-1,-1.841141105E0
8.185030025E0,-1.285686255E0,-9.193734527E-1,-1.786074519E0
8.190030025E0,-1.771709204E0,-1.185129881E0,-2.154781580E0
8.195030025E0,-2.173935175E0,-1.383848548E0,-2.463633537E0
8.200030658E0,-3.201047659E0,-1.623268723E0,-3.138798475E0
8.205031558E0,-3.926490784E0,-1.781286120E0,-3.603273630E0
8.210032224E0,-4.491522312E0,-1.776497602E0,-3.916913986E0
8.215033157E0,-5.133467674E0,-1.850717902E0,-4.240131378E0
8.220033823E0,-5.952284813E0,-1.924938202E0,-4.838681698E0
8.225034489E0,-6.270713329E0,-2.047042370E0,-5.047276497E0
8.230035122E0,-6.342539787E0,-1.865083098E0,-4.805162907E0
8.235035888E0,-6.311414719E0,-1.666364431E0,-4.625597477E0
8.240036754E0,-6.289866924E0,-1.216254473E0,-4.019864559E0
8.245037654E0,-6.222829342E0,-9.121908545E-1,-3.394978046E0
8.250038554E0,-5.363311291E0,-4.309562966E-2,-2.245761156E0
8.255038587E0,-4.232948780E0,4.716577232E-1,-1.496376038E0
8.260038120E0,-3.351882458E0,6.751648784E-1,-1.063025594E0
8.265037820E0,-2.803610086E0,7.781155705E-1,-8.619126081E-1
8.270037820E0,-3.734954596E0,1.268926859E-1,-4.453215122E0
8.275038153E0,-5.521328449E0,-4.357447028E-1,-1.003679276E1
8.280038119E0,-3.766079187E0,6.081272364E-1,-6.196493149E0
8.285038119E0,-2.777273893E0,4.788403213E-2,-3.643975019E0
8.290037952E0,-1.759738207E0,-1.917755604E0,6.536170840E-1
8.295037985E0,-2.964021683E0,-4.161122322E0,5.799055576E0
8.300037985E0,-4.704606533E0,-8.973767281E0,5.231629848E0
8.305038885E0,-5.207687855E0,-9.040804863E0,5.123890877E0
8.310038918E0,-4.826710701E0,-6.845322132E0,5.787084579E0
8.315038884E0,-4.886565685E0,-5.538087845E0,5.590760231E0
8.320038850E0,-4.654327869E0,-4.141968727E0,4.654327869E0
8.325038850E0,-4.390965939E0,-3.186682463E0,4.352658749E0
8.330038883E0,-4.024652958E0,-2.169146776E0,4.323928356E0
8.335038916E0,-2.858676910E0,-1.541865945E0,4.563348293E0
8.340038949E0,-2.126051188E0,-9.145850539E-1,4.343081951E0
8.345038949E0,-1.898601890E0,-7.781155705E-1,3.787626982E0
8.350038949E0,-1.817199111E0,-6.967126727E-1,2.815581083E0
8.355038915E0,-1.640028119E0,-5.817909837E-1,1.917755604E0
8.360038881E0,-1.517923832E0,-6.368576288E-1,1.151610970E0
8.365038881E0,-1.398213744E0,-6.655880809E-1,4.596867263E-1
8.370038914E0,-1.264138460E0,-9.097966552E-1,-1.197100878E-1
8.375038947E0,-1.273715258E0,-1.007958889E0,-4.070142806E-1
8.380038947E0,-1.314416766E0,-1.067813993E0,-3.734954596E-1
8.385039047E0,-1.525106430E0,-1.312022567E0,-1.723825186E-1
8.390039047E0,-2.042253971E0,-1.932120800E0,-1.675941236E-2
8.395039047E0,-2.559401512E0,-2.782062292E0,-2.394201607E-2
8.400039047E0,-3.201047659E0,-4.292803764E0,-1.029506698E-1
8.405039013E0,-3.845088005E0,-7.089530468E0,-4.692635238E-1
8.410039013E0,-4.113238335E0,-1.171273422E1,-1.680729628E0
8.415039013E0,-3.016694069E0,-1.837609673E1,-4.843470097E0
8.420039046E0,2.798821688E0,-2.915748596E1,-1.420509815E1
8.425039046E0,8.933065414E0,-3.614167023E1,-1.790443802E1
8.430039046E0,1.981740570E1,-4.711938477E1,-1.960671616E1
8.435038579E0,2.683750534E1,-5.330360794E1,-2.051172447E1
8.440038579E0,3.729807281E1,-6.075945282E1,-2.230737495E1
8.445038579E0,4.054221344E1,-6.389615631E1,-2.268087196E1
8.450038612E0,4.047517776E1,-6.537337494E1,-2.025315094E1
8.455038612E0,3.649601364E1,-6.404459381E1,-1.613991165E1
8.460038545E0,2.714396286E1,-5.889197540E1,-1.100883865E1
8.465038545E0,2.152207756E1,-5.489126205E1,-7.530063629E0
8.470038545E0,1.437029743E1,-4.709783936E1,-3.548206806E0
8.475038545E0,1.144697762E1,-4.300824356E1,-2.051830769E0
8.480038511E0,7.747935772E0,-3.717117691E1,-4.740519226E-1
8.485038477E0,6.182127953E0,-3.418770218E1,1.460463107E-1
8.490038477E0,4.460397720E0,-2.994278336E1,8.283938169E-1
8.495038510E0,3.722983599E0,-2.707931900E1,1.146822572E0
8.500038543E0,3.373430252E0,-2.463244438E1,1.388636947E0
8.505037843E0,-6.679822803E-1,-1.706167984E1,8.016086578E0
8.510037843E0,-7.015310287E0,-9.809343338E0,2.990447617E1
8.515037809E0,-1.154005170E0,-1.087715721E1,3.659656906E1
8.520037775E0,1.487816811E1,-9.596260071E0,5.878184128E1
8.525037741E0,2.500593948E1,-5.155015469E0,7.545565796E1
8.530037741E0,2.478806877E1,-5.578789234E0,7.747158051E1
8.535037774E0,1.600344276E1,-1.126741219E1,4.755034256E1
8.540037807E0,1.078857231E1,-1.721969795E1,1.990599060E1
8.545037840E0,8.157344818E0,-1.491168690E1,1.084573388E0
8.550037840E0,5.394435883E0,-1.037437534E1,-1.125783539E1
8.555037840E0,3.572149038E0,-7.774271965E0,-1.021875191E1
8.560037806E0,1.936909199E0,-6.620266914E0,-6.629843712E0
8.565037806E0,1.012747288E0,-6.457461357E0,-4.874594688E0
8.570037806E0,-7.900865376E-2,-5.588366032E0,-2.458845139E0
8.575037839E0,-3.232172430E-1,-4.378994942E0,-1.079784989E0
8.580037839E0,8.738836050E-1,1.149216771E0,4.651933670E0
8.585038272E0,4.781220913E0,1.290504646E1,3.543538284E1
8.590038238E0,1.080533123E1,1.972163773E1,6.485383606E1
8.595038204E0,1.013495541E1,1.391539955E1,4.522317886E1
8.600038170E0,7.199663639E0,6.459855556E0,2.042313957E1
8.605038170E0,4.675876141E0,2.061407566E0,3.766079187E0
8.610038170E0,5.006575108E0,-1.675941229E0,-3.773261786E0
8.615038203E0,5.363311291E0,-3.213018656E0,-5.210082054E0
8.620038236E0,6.074388981E0,-4.692635536E0,-7.496544838E0
8.625038269E0,6.471826553E0,-5.044882298E0,-8.164526939E0
8.630038269E0,6.716034889E0,-5.375282288E0,-8.509291649E0
8.635038569E0,6.732794285E0,-5.176563263E0,-8.133402824E0
8.640038535E0,6.488585949E0,-4.659116745E0,-7.233182430E0
8.645038535E0,6.172551155E0,-4.027047157E0,-6.186916351E0
8.650038535E0,5.978621006E0,-3.435679436E0,-4.906018734E0
8.655039268E0,5.913977623E0,-2.940079689E0,-4.256890774E0
8.660039268E0,6.648997307E0,-2.011129379E0,-2.849099934E-1
8.665039268E0,9.083900452E0,-6.967126727E-1,1.130811405E1
8.670039268E0,1.067843914E1,-7.924807668E-1,2.039440918E1
8.675039268E0,9.443030357E0,-1.711854219E0,1.635539055E1
8.680039268E0,7.415142059E0,-3.775655985E0,7.067982674E0
8.685039234E0,6.488585949E0,-4.805162907E0,3.241749048E0
8.690039234E0,6.110301971E0,-5.619490623E0,2.181117773E0
8.695039234E0,6.186916351E0,-6.701669693E0,2.525882721E0
8.700039267E0,6.723217487E0,-8.372822762E0,3.114856482E0
8.705039267E0,7.178115845E0,-9.577106476E0,3.572149038E0
8.710039267E0,8.099884033E0,-1.253633976E1,6.299443722E0
8.715039233E0,8.655338287E0,-1.470578575E1,8.722375870E0
8.720039199E0,1.000088024E1,-1.902731895E1,1.185638618E1
8.725039165E0,1.190666389E1,-2.222357941E1,1.294574833E1
8.730039165E0,1.475845814E1,-2.842964935E1,1.219875717E1
8.735039165E0,1.907999229E1,-3.464529419E1,1.080293751E1
8.740039198E0,2.415330505E1,-4.180635452E1,8.909123421E0
8.745039231E0,2.794602013E1,-4.846253204E1,6.835745335E0
8.750039264E0,3.073287010E1,-5.507561874E1,5.303455830E0
8.755039264E0,3.167858124E1,-5.712744904E1,5.346551895E0
8.760039264E0,2.971294022E1,-5.683535385E1,2.331952572E0
8.765039230E0,2.713199234E1,-5.406047440E1,-3.351882473E-2
8.770039230E0,2.207753181E1,-4.463899231E1,-3.366247654E0
8.775039230E0,1.837609673E1,-3.743693542E1,-7.146991253E0
8.780039263E0,1.481831264E1,-3.225318909E1,-1.052042198E1
8.785038963E0,1.256985855E1,-2.826923752E1,-1.246690750E1
8.790038963E0,1.045338345E1,-2.451512909E1,-1.245014858E1
8.795038929E0,9.555558205E0,-2.245820999E1,-1.181568432E1
8.800038895E0,8.135796547E0,-1.996345139E1,-1.135839176E1
8.805038861E0,7.513304234E0,-1.857960320E1,-1.109263611E1
8.810038861E0,6.155791759E0,-1.630511284E1,-1.040549946E1
8.815038894E0,5.351340294E0,-1.513674164E1,-9.835680008E0
8.820038927E0,4.197035789E0,-1.340543461E1,-8.710405350E0
8.825038960E0,3.768473387E0,-1.208862400E1,-8.075942039E0
8.830038960E0,3.543418407E0,-1.095377159E1,-7.446266651E0
8.835038293E0,3.071760893E0,-9.974543571E0,-6.926724911E0
8.840038259E0,2.339135170E0,-8.930671692E0,-6.244377136E0
8.845038259E0,1.855506301E0,-7.977779388E0,-5.662586212E0
8.850038259E0,6.224924326E-1,-7.099107265E0,-4.996998310E0
8.855038292E0,-3.734954596E-1,-6.716034889E0,-4.596867085E0
8.860038325E0,-1.335964561E0,-5.825392246E0,-4.034229755E0
8.865038325E0,-2.042253971E0,-5.394435883E0,-3.746925592E0
8.870038325E0,-3.160346270E0,-4.620809078E0,-3.284844637E0
8.875038325E0,-3.651157618E0,-3.866635799E0,-3.126827478E0
8.880038325E0,-3.634398222E0,-3.052607059E0,-2.983175278E0
8.885038325E0,-3.557783842E0,-2.355894566E0,-2.875436306E0
8.890038291E0,-3.727771997E0,-1.762132406E0,-2.911349297E0
8.895038291E0,-3.485957623E0,-1.470039845E0,-2.815581083E0
8.900038291E0,-2.882618904E0,-1.022324085E0,-2.533065319E0
8.905038324E0,-2.305616140E0,-7.996633649E-1,-2.327163935E0
8.910038324E0,-1.599326730E0,-5.770025849E-1,-1.814804912E0
8.915038324E0,-1.307234168E0,-4.141969085E-1,-1.544260144E0
8.920038290E0,-1.446097851E0,-2.513911724E-1,-1.474828243E0
8.925038290E0,-1.482010841E0,-4.118026793E-1,-1.944091797E0
8.930038290E0,-1.304839969E0,-5.147533417E-1,-2.109291792E0
8.935038323E0,-1.807622313E0,-8.236053586E-1,-3.217807055E0
8.940038323E0,-2.667140722E0,-9.816226959E-1,-3.761290789E0
8.945038323E0,-3.545812607E0,-1.051054597E0,-4.000710964E0
8.950038323E0,-5.078401089E0,-1.144428372E0,-4.721365929E0
8.955038323E0,-5.755959988E0,-1.309628367E0,-5.126285076E0
8.960038323E0,-6.869264126E0,-1.606509328E0,-5.581183434E0
8.965038289E0,-7.807791233E0,-1.599326730E0,-5.614702225E0
8.970038289E0,-8.183680534E0,-1.300051570E0,-4.999392509E0
8.975038289E0,-8.717587471E0,-9.074024558E-1,-4.484339714E0
8.980038322E0,-8.794201851E0,-2.130839527E-1,-3.351882458E0
8.985039022E0,-7.984961987E0,4.094084799E-1,-2.288856745E0
8.990039022E0,-6.036081791E0,1.343147159E0,-9.097966552E-1
8.995038988E0,-5.116708279E0,1.510741234E0,-4.596867263E-1
9.000038954E0,-3.986345768E0,1.455674648E0,-4.932055473E-1
9.005038954E0,-3.466804028E0,1.410184860E0,-7.900865674E-1
9.010038954E0,-3.907337189E0,1.225831270E0,-3.490746021E0
9.015038987E0,-6.052841187E0,2.018311977E0,-1.026184750E1
9.020038987E0,-4.204218388E0,2.647987127E0,-6.048052788E0
9.025038987E0,-3.114856482E0,1.199495077E0,-6.560112834E-1
9.030038987E0,-2.849100113E0,-1.082179189E0,3.696647406E0
9.035039020E0,-4.738125324E0,-4.192247391E0,2.944868088E0
9.040039020E0,-4.982633114E0,-5.351340294E0,2.437297344E0
9.045038986E0,-4.139574528E0,-4.788403511E0,3.078943491E0
9.050038319E0,-3.210624456E0,-3.557783842E0,3.979163170E0
9.055037652E0,-2.896984100E0,-2.779668093E0,4.165910721E0
9.060037685E0,-1.912967205E0,-1.510741234E0,3.423708439E0
9.065036785E0,-2.140416384E0,-1.091755986E0,2.978386879E0
9.070036785E0,-1.829170108E0,-1.297657371E0,3.548206806E0
9.075036085E0,-1.608903527E0,-1.247379065E0,3.603273630E0
9.080035418E0,-1.764526606E0,-8.307880163E-1,2.784456491E0
9.085034484E0,-1.865083098E0,-7.565677166E-1,2.087743998E0
9.090033817E0,-1.984793186E0,-8.212111592E-1,1.233013868E0
9.095032950E0,-2.035071373E0,-8.930372596E-1,6.224924326E-1
9.100032083E0,-1.867477298E0,-9.888052940E-1,-3.591302410E-2
9.105032116E0,-1.632845521E0,-8.906430602E-1,-3.519476354E-1
9.110031482E0,-1.594538331E0,-7.422025204E-1,-3.327940404E-1
9.115030815E0,-1.790862918E0,-8.714894056E-1,-6.009446383E-1
9.120030115E0,-1.917755604E0,-9.457096457E-1,-8.451532125E-1
9.125030081E0,-2.116474390E0,-1.170764685E0,-7.374141216E-1
9.130030081E0,-2.264914751E0,-1.936909199E0,-3.232172430E-1
9.135029414E0,-2.430114746E0,-2.741360903E0,-1.268926859E-1
9.140029447E0,-2.762908697E0,-4.728548527E0,-6.751648784E-1
9.145029447E0,-3.232172251E0,-7.008127689E0,-1.362300754E0
9.150028780E0,-3.897760391E0,-1.251239777E1,-3.658340216E0
9.155028080E0,-3.050212860E0,-1.710238075E1,-5.526116848E0
9.160028046E0,-4.213795066E-1,-2.755097771E1,-1.134402657E1
9.165028012E0,4.556165695E0,-3.684317398E1,-1.443254757E1
9.170028012E0,1.188272190E1,-4.654717255E1,-1.753573227E1
9.175028045E0,1.914224052E1,-5.486732101E1,-1.889085007E1
9.180028078E0,2.774730110E1,-6.055833817E1,-1.748066521E1
9.185028078E0,3.171209908E1,-6.305549240E1,-1.654932022E1
9.190028078E0,3.556945801E1,-6.694636536E1,-1.396567822E1
9.195028078E0,3.487753296E1,-6.669018555E1,-1.190187550E1
9.200028711E0,2.926043701E1,-6.260059357E1,-8.487744331E0
9.205029377E0,2.353320694E1,-5.827666473E1,-6.337751389E0
9.210029377E0,1.737292671E1,-5.186469269E1,-5.135861874E0
9.215030310E0,1.352275085E1,-4.517768860E1,-3.555389643E0
9.220030310E0,1.080772591E1,-3.922779846E1,-2.497152328E0
9.225030976E0,8.782231331E0,-3.380942154E1,-2.552218914E0
9.230031609E0,7.199663639E0,-2.910241890E1,-2.195482969E0
9.235031842E0,6.464643955E0,-2.730916214E1,-1.642422318E0
9.240032508E0,5.588366032E0,-2.503227615E1,-6.943184733E-1
9.245033374E0,5.217264652E0,-2.394740486E1,2.585737705E-1
9.250033574E0,4.898836136E0,-2.146701050E1,4.659116745E0
9.255033574E0,6.931513309E0,-1.815583038E1,1.748305893E1
9.260034240E0,2.358348465E1,-7.611466408E0,7.000376129E1
9.265034940E0,3.521272278E1,-1.096544385E0,7.737580872E1
9.270035606E0,2.973209381E1,-2.540247917E0,7.758889771E1
9.275035606E0,2.131378174E1,-8.492532730E0,5.759910583E1
9.280035572E0,1.052521038E1,-1.465999603E1,1.533785439E1
9.285036205E0,8.427888870E0,-1.527799988E1,1.230619669E0
9.290036171E0,5.514145851E0,-8.916306496E0,-4.577713490E0
9.295036171E0,3.957615376E0,-5.930737019E0,-7.340921879E0
9.300036871E0,2.659958124E0,-4.563348293E0,-6.196493149E0
9.305037571E0,1.707065821E0,-4.357447147E0,-3.971980572E0
9.310037604E0,6.584054828E-1,-3.981557369E0,-1.941697598E0
9.315037604E0,3.567360640E-1,-1.857900500E0,5.530605912E-1
9.320037604E0,2.233790159E0,7.565976620E0,1.119798088E1
9.325037570E0,4.477157116E0,1.517504883E1,3.919906616E1
9.330037570E0,1.120995140E1,1.588612652E1,5.525039291E1
9.335037570E0,1.122431660E1,1.089391708E1,3.852629852E1
9.340037603E0,9.225158691E0,3.581725836E0,1.381963158E1
9.345037603E0,8.502109528E0,7.278373241E-1,4.340687752E0
9.350037603E0,8.346486092E0,-2.925714493E0,-1.628057122E0
9.355037569E0,8.368034363E0,-4.850652695E0,-5.748777390E0
9.360037535E0,8.698433876E0,-5.787084579E0,-8.176498413E0
9.365037501E0,9.122207642E0,-6.225223541E0,-9.838073730E0
9.370037501E0,9.431059837E0,-6.136638165E0,-1.041028786E1
9.375037501E0,9.574711800E0,-5.799055576E0,-9.962572098E0
9.380037534E0,9.316138268E0,-4.881777287E0,-8.542811394E0
9.385038234E0,9.038411140E0,-4.311957359E0,-7.395988464E0
9.390038267E0,8.662521362E0,-3.189076662E0,-5.195716858E0
9.395038267E0,9.371204376E0,-1.790862918E0,-1.089361787E0
9.400038933E0,1.040071106E1,-3.639186621E-1,5.667374611E0
9.405038899E0,1.078378391E1,5.602431893E-1,1.114530849E1
9.410038899E0,9.739912033E0,7.398083210E-1,1.066407394E1
9.415038899E0,7.822156429E0,-5.195417404E-1,7.683292389E0
9.420038932E0,6.318597794E0,-3.026270866E0,4.254496574E0
9.425038932E0,5.715258598E0,-4.151545525E0,3.287238836E0
9.430038932E0,5.578789234E0,-5.293879032E0,2.937685490E0
9.435038932E0,5.789478779E0,-5.935525417E0,3.011905670E0
9.440038932E0,6.400000572E0,-7.235576630E0,3.002328873E0
9.445038932E0,7.616254807E0,-8.796596527E0,3.162740469E0
9.450038898E0,9.091083527E0,-1.103038692E1,4.256890774E0
9.455038898E0,1.073589993E1,-1.470578575E1,9.026439667E0
9.460038898E0,1.335276222E1,-2.073438454E1,1.370231533E1
9.465038931E0,1.531151867E1,-2.572659492E1,1.670494461E1
9.470038931E0,2.091155624E1,-3.623265076E1,1.820850182E1
9.475038931E0,2.473300171E1,-4.361637115E1,1.775360489E1
9.480038897E0,2.962674904E1,-5.393358231E1,1.326417637E1
9.485038863E0,3.149901581E1,-5.830300140E1,9.909899712E0
9.490038863E0,3.191800117E1,-6.167882538E1,5.334580898E0
9.495038896E0,2.980631447E1,-5.972276306E1,2.952050686E0
9.500038929E0,2.338716125E1,-5.181201935E1,-1.900996208E0
9.505038929E0,1.904647255E1,-4.591989136E1,-4.841075897E0
9.510038929E0,1.382920837E1,-3.703710175E1,-9.938630104E0
9.515038929E0,1.227058315E1,-3.247824478E1,-1.152119827E1
9.520038929E0,1.122431660E1,-2.592770767E1,-1.147570801E1
9.525038929E0,1.026184750E1,-2.334167099E1,-1.122192287E1
9.530038895E0,8.356062889E0,-2.061228180E1,-1.183244419E1
9.535038895E0,6.881235123E0,-1.927152824E1,-1.151162148E1
9.540038895E0,5.899612427E0,-1.709519958E1,-1.087715721E1
9.545038928E0,5.272331238E0,-1.559403419E1,-1.055394077E1
9.550038928E0,4.826710701E0,-1.432480812E1,-1.003918743E1
9.555038928E0,4.486733913E0,-1.322826385E1,-9.373599052E0
9.560038894E0,3.658340216E0,-1.216763210E1,-8.605060577E0
9.565038860E0,3.016694069E0,-1.162175465E1,-8.281843185E0
9.570038826E0,2.264914751E0,-1.079096603E1,-8.044816971E0
9.575038826E0,1.927332401E0,-1.022114658E1,-7.774271965E0
9.580038859E0,1.273715258E0,-9.457395554E0,-7.484573841E0
9.585038892E0,6.177040339E-1,-9.000102997E0,-7.240365028E0
9.590038925E0,2.154781520E-1,-8.214805603E0,-6.589142323E0
9.595038925E0,-2.729389966E-1,-7.522881031E0,-5.722441196E0
9.600038925E0,-8.236053586E-1,-6.759130478E0,-5.066430092E0
9.605038891E0,-1.711854219E0,-6.158185959E0,-4.383783340E0
9.610038857E0,-2.834734917E0,-5.420772076E0,-3.718195200E0
9.615038857E0,-3.189076662E0,-4.903624535E0,-3.426102638E0
9.620038890E0,-3.452438831E0,-3.967192173E0,-2.908955097E0
9.625038923E0,-3.442862034E0,-3.366247654E0,-2.674323320E0
9.630038923E0,-3.268085241E0,-2.540247917E0,-2.396595955E0
9.635038923E0,-3.016694069E0,-1.910573006E0,-2.126051188E0
9.640038889E0,-2.640804529E0,-1.479616642E0,-1.817199111E0
9.645038855E0,-2.238578558E0,-1.249773264E0,-1.565807939E0
9.650038821E0,-2.078166962E0,-1.089361787E0,-1.455674648E0
9.655038821E0,-2.147598982E0,-8.834604025E-1,-1.424550056E0
9.660038854E0,-2.391807556E0,-7.254431248E-1,-1.489193439E0
9.665038887E0,-2.643198729E0,-7.661445141E-1,-1.618480325E0
9.670038920E0,-3.220201254E0,-8.212111592E-1,-1.884236693E0
9.675038920E0,-3.600879431E0,-8.954314590E-1,-2.049436569E0
9.680038920E0,-4.331110954E0,-9.552865028E-1,-2.341529369E0
9.685038886E0,-4.980238914E0,-1.024718285E0,-2.664746523E0
9.690038886E0,-5.418377876E0,-1.122880578E0,-2.954444885E0
9.695038886E0,-6.019322395E0,-1.316810966E0,-3.466804028E0
9.700038919E0,-7.225999832E0,-1.589749932E0,-4.450820923E0
9.705038919E0,-8.040028572E0,-1.632845521E0,-4.915595531E0
9.710038919E0,-8.600272179E0,-1.541865945E0,-4.872200489E0
9.715038919E0,-9.028834343E0,-1.496376038E0,-4.616020679E0
9.720038919E0,-9.409511566E0,-1.256955862E0,-3.416525841E0
9.725038919E0,-9.057564735E0,-7.038952708E-1,-2.604891539E0
9.730038885E0,-7.261912823E0,4.070142806E-1,-1.467645645E0
9.735038851E0,-5.921160221E0,1.201889277E0,-7.661445141E-1
9.740038851E0,-4.857835293E0,1.680729628E0,-3.998316824E-1
9.745038884E0,-5.004180908E0,2.224213362E0,-2.858676910E0
9.750038917E0,-5.200505257E0,3.375824451E0,-6.050446987E0
9.755038917E0,-4.232948780E0,3.588908434E0,-5.483021259E0
9.760038917E0,-1.881842494E0,2.284068346E0,-2.782062292E0
9.765038883E0,9.528923035E-1,1.553836942E0,1.034295082E0
9.770038883E0,3.270479441E0,-8.858546019E-1,7.726387978E0
9.775038883E0,-1.484405100E-1,-3.280056238E0,6.213252544E0
9.780038916E0,-3.351882458E0,-5.494992256E0,4.618414879E0
9.785038916E0,-4.055777550E0,-4.781220913E0,4.350264549E0
9.790038916E0,-4.201824188E0,-3.869029999E0,4.285621166E0
9.795038916E0,-4.925172329E0,-2.949656487E0,4.062960148E0
9.800038916E0,-4.888959885E0,-2.535459518E0,4.106055737E0
9.805038916E0,-3.509899616E0,-2.154781580E0,4.515464306E0
9.810038882E0,-2.130839586E0,-1.623268723E0,4.410119534E0
9.815038882E0,-1.989581585E0,-1.381454349E0,3.916913986E0
9.820038882E0,-1.893813491E0,-1.256955862E0,2.578555346E0
9.825038915E0,-1.716642618E0,-1.297657371E0,1.563413739E0
9.830038915E0,-1.649604917E0,-1.364694953E0,7.206547260E-1
9.835038281E0,-1.599326730E0,-1.410184860E0,1.556231081E-1
9.840038247E0,-1.398213744E0,-1.450886250E0,-7.900865376E-2
9.845038213E0,-1.139639974E0,-1.580173135E0,-2.896983922E-1
9.850038179E0,-9.816226959E-1,-1.896207690E0,-7.350199223E-1
9.855038179E0,-9.169792533E-1,-2.030282974E0,-8.475474119E-1
9.860038179E0,-1.010353088E0,-2.382230759E0,-8.930372596E-1
9.865038212E0,-1.233013868E0,-2.695871115E0,-8.044517636E-1
9.870038245E0,-1.640028119E0,-3.591302633E0,-8.212111592E-1
9.875038278E0,-2.140416384E0,-4.762067318E0,-1.034295082E0
9.880038278E0,-2.698265314E0,-6.795043468E0,-1.589749932E0
9.885038278E0,-3.323152065E0,-1.069519806E1,-2.913743496E0
9.890038244E0,-2.645592928E0,-1.702097893E1,-8.075942039E0
9.895038244E0,1.211466074E0,-2.619346428E1,-1.287631607E1
9.900038244E0,1.158584118E1,-3.964678192E1,-1.763389397E1
9.905038277E0,1.887169647E1,-4.775863647E1,-1.818456078E1
9.910038277E0,2.963872147E1,-5.834849167E1,-1.982937622E1
9.915038277E0,3.362506485E1,-6.155911636E1,-2.061706924E1
9.920038243E0,3.548566055E1,-6.543563080E1,-2.133532906E1
9.925038209E0,3.419249344E1,-6.730549622E1,-2.042074394E1
9.930038175E0,2.878638458E1,-6.456653595E1,-1.682225990E1
9.935038175E0,2.250609398E1,-6.011062241E1,-1.173667622E1
9.940038208E0,1.586697292E1,-5.428553009E1,-6.483797550E0
9.945038241E0,1.268956852E1,-4.994454193E1,-4.151545525E0
9.950038274E0,1.001524544E1,-4.268502426E1,-1.608903527E0
9.955038274E0,9.014469147E0,-3.906259918E1,-6.536170840E-1
9.960038274E0,7.637802601E0,-3.385969925E1,2.154781520E-1
9.965038240E0,6.644208908E0,-3.111354828E1,5.267243981E-1
9.970038240E0,5.550058842E0,-2.703382874E1,9.217676520E-1
9.975038240E0,4.639962673E0,-2.411739159E1,1.173158884E0
9.980038273E0,3.979163170E0,-2.154841423E1,1.307234168E0
9.985038939E0,3.277662039E0,-1.741362762E1,1.043871999E0
9.990038939E0,2.851494312E0,-8.514080048E0,1.445170116E1
9.995038939E0,8.511686325E0,-7.489362240E0,3.289722824E1
1.000003894E1,3.012234879E1,1.920149803E0,7.583155060E1
1.000503894E1,3.331142426E1,2.394201756E0,7.810604095E1
1.001003894E1,2.244145203E1,-5.411195278E0,6.686017609E1
1.001503890E1,1.375977612E1,-1.065928555E1,3.368013382E1
1.002003890E1,9.014469147E0,-1.250760937E1,9.222764015E0
1.002503890E1,5.945102215E0,-1.102320385E1,-4.575319290E0
1.003003894E1,4.156333923E0,-8.456619263E0,-8.528446198E0
1.003503894E1,4.079719543E0,-6.869264126E0,-7.379229069E0
1.004003894E1,3.325546265E0,-6.663362503E0,-5.265148640E0
1.004503890E1,2.971204281E0,-6.404788971E0,-4.225766182E0
1.005003824E1,2.193088770E0,-5.135861874E0,-2.566584110E0
1.005503857E1,1.754949808E0,-3.842693806E0,-9.959878922E-1
1.006003860E1,1.711854219E0,1.977610588E0,8.212410927E0
1.006503770E1,3.493140221E0,1.149007320E1,5.544192886E1
1.007003704E1,7.611466408E0,1.819413757E1,6.199246597E1
1.007503674E1,8.401553154E0,1.224185276E1,3.746087646E1
1.008003584E1,7.032069683E0,5.981015205E0,1.640806198E1
1.008503517E1,5.861305237E0,1.127668977E0,3.325546265E0
1.009003427E1,6.167762756E0,-2.918531895E0,-4.503493309E0
1.009503337E1,6.541258335E0,-4.256890774E0,-6.210858345E0
1.010003247E1,6.950666904E0,-5.542876244E0,-6.854898930E0
1.010503250E1,7.197269440E0,-5.734412193E0,-6.962637901E0
1.011003254E1,7.259518623E0,-5.480627060E0,-6.562806129E0
1.011503187E1,6.988974094E0,-5.028122902E0,-6.134243965E0
1.012003113E1,6.519710541E0,-4.402936935E0,-5.478232861E0
1.012503110E1,6.055235386E0,-3.778050184E0,-4.790797710E0
1.013003043E1,5.669768810E0,-3.253720045E0,-4.261679173E0
1.013503043E1,5.430348873E0,-2.770091295E0,-3.691859007E0
1.014003047E1,5.945102215E0,-2.037465572E0,-2.035071403E-1
1.014503047E1,8.609848976E0,-1.347935557E0,1.091307068E1
1.015003047E1,9.268254280E0,-3.059789658E0,1.724603271E1
1.015503047E1,6.924330711E0,-4.429273129E0,1.394652462E1
1.016003047E1,4.596867085E0,-5.456685066E0,5.748777390E0
1.016503047E1,4.091690540E0,-5.564424038E0,1.142034173E0
1.017003043E1,4.541800499E0,-6.265924931E0,-1.194706678E0
1.017503043E1,5.344157696E0,-7.427113056E0,-2.003946781E0
1.018003043E1,6.536469936E0,-9.814131737E0,-1.900996208E0
1.018503046E1,7.630620003E0,-1.181568432E1,-7.350199223E-1
1.019003047E1,1.038155746E1,-1.681268311E1,3.239354849E0
1.019503046E1,1.232564926E1,-2.054524422E1,5.933131218E0
1.020003110E1,1.538573837E1,-2.773533058E1,1.140867043E1
1.020503073E1,1.702816010E1,-3.444897079E1,2.024357414E1
1.021003070E1,1.914224052E1,-4.161481857E1,2.537943649E1
1.021503160E1,2.334885406E1,-4.788074112E1,2.211583900E1
1.022003230E1,2.656456566E1,-5.307137299E1,1.743517494E1
1.022503263E1,2.931550407E1,-5.648101425E1,1.316840839E1
1.023003356E1,3.029952049E1,-5.691436386E1,5.887641430E0
1.023503426E1,2.905214119E1,-5.452016068E1,1.268926859E0
1.024003513E1,2.463244438E1,-4.675307465E1,-5.696105003E0
1.024503533E1,2.149095345E1,-4.116470718E1,-8.703222275E0
1.025003620E1,1.669297218E1,-3.328509140E1,-1.201200962E1
1.025503620E1,1.322347546E1,-2.851823425E1,-1.300320911E1
1.026003620E1,1.049408531E1,-2.521423531E1,-1.314925480E1
1.026503690E1,8.418312073E0,-2.267847633E1,-1.278294182E1
1.027003760E1,6.704063892E0,-2.082057571E1,-1.187793350E1
1.027503760E1,5.432743073E0,-1.915900040E1,-1.114052010E1
1.028003823E1,4.599261284E0,-1.736095428E1,-1.038155746E1
1.028503819E1,4.211400986E0,-1.651101303E1,-9.646537781E0
1.029003816E1,3.560178041E0,-1.523250961E1,-8.715193748E0
1.029503816E1,3.409343243E0,-1.455704594E1,-8.468590736E0
1.030003819E1,3.193865061E0,-1.343416500E1,-8.368034363E0
1.030503823E1,3.043030262E0,-1.253155136E1,-8.121431351E0
1.031003826E1,2.691082716E0,-1.171033955E1,-7.932289600E0
1.031503826E1,2.264914751E0,-1.109024143E1,-7.831733227E0
1.032003826E1,1.572990537E0,-1.035043335E1,-7.458237648E0
1.032503822E1,1.161187768E0,-9.651326180E0,-6.991368294E0
1.033003823E1,3.854664862E-1,-8.818143845E0,-5.964255810E0
1.033503822E1,-5.458779931E-1,-8.368034363E0,-5.313032627E0
1.034003826E1,-1.575384736E0,-7.345710278E0,-4.161122322E0
1.034503826E1,-1.996764183E0,-6.704063892E0,-3.610456228E0
1.035003826E1,-2.377442360E0,-5.504569054E0,-2.930502892E0
1.035503826E1,-2.650381327E0,-4.450820923E0,-2.604891539E0
1.036003826E1,-2.652775526E0,-3.390189648E0,-2.391807556E0
1.036503826E1,-2.506729126E0,-2.489969730E0,-2.243366957E0
1.037003822E1,-2.164358377E0,-1.596932530E0,-2.114080191E0
1.037503819E1,-2.023100376E0,-1.151610970E0,-1.963245392E0
1.038003819E1,-1.790862918E0,-5.698199868E-1,-1.673547029E0
1.038503819E1,-1.587355733E0,-2.873041928E-1,-1.455674648E0
1.039003822E1,-1.213860273E0,-4.788403213E-2,-1.122880578E0
1.039503889E1,-9.121908545E-1,6.224924326E-2,-9.457096457E-1
1.040003889E1,-7.589619160E-1,2.154781520E-1,-7.158663273E-1
1.040503886E1,-7.206547260E-1,4.070142806E-1,-6.224924326E-1
1.041003886E1,-8.331822157E-1,5.339069963E-1,-6.105214357E-1
1.041503886E1,-1.134851575E0,5.961562395E-1,-6.272808313E-1
1.042003889E1,-1.589749932E0,3.734954596E-1,-6.177040339E-1
1.042503889E1,-1.845929503E0,1.053448766E-1,-7.230489254E-1
1.043003889E1,-2.360682964E0,-2.633621991E-1,-1.091755986E0
1.043503889E1,-2.674323320E0,-4.189853072E-1,-1.288080573E0
1.044003889E1,-3.078943491E0,-6.009446383E-1,-1.649604917E0
1.044503889E1,-3.414131641E0,-8.068459630E-1,-2.030282974E0
1.045003885E1,-3.907337189E0,-1.007958889E0,-2.633621931E0
1.045503885E1,-4.448426723E0,-1.221042871E0,-3.153163671E0
1.046003885E1,-4.946720123E0,-1.240196466E0,-3.366247654E0
1.046503889E1,-5.418377876E0,-1.120486379E0,-3.220201254E0
1.047003889E1,-6.052841187E0,-1.043871999E0,-2.841917515E0
1.047503889E1,-6.220435143E0,-8.451532125E-1,-2.370259762E0
1.048003885E1,-5.633855820E0,-1.939303428E-1,-1.465251446E0
1.048503882E1,-5.018546104E0,1.843535304E-1,-1.084573388E0
1.049003879E1,-4.213795185E0,4.572925270E-1,-7.062895298E-1
1.049503878E1,-3.711012602E0,6.177040339E-1,-6.416460276E-1
1.050003879E1,-3.380612850E0,6.320692301E-1,-8.714894056E-1
1.050503882E1,-6.481403351E0,-2.346317619E-1,-8.672098160E0
1.051003885E1,-4.819528103E0,1.048660398E0,-6.699275494E0
1.051503888E1,-3.687070608E0,7.876923680E-1,-1.335964561E0
1.052003888E1,-3.138798475E0,-8.523358107E-1,4.975450516E0
1.052503888E1,-3.957615376E0,-2.468421936E0,3.272873640E0
1.053003885E1,-5.032911301E0,-4.886565685E0,2.837129116E0
1.053503885E1,-4.778826714E0,-4.920383930E0,3.390189648E0
1.054003885E1,-4.501099110E0,-4.110844135E0,3.191470861E0
1.054503888E1,-4.323928356E0,-3.402160645E0,2.863465309E0
1.055003888E1,-4.060565948E0,-2.837129116E0,3.172317266E0
1.055503888E1,-3.569754839E0,-2.382230759E0,3.751713991E0
1.056003885E1,-3.019088268E0,-2.329558372E0,3.265691042E0
1.056503882E1,-2.719813108E0,-2.363077164E0,2.712630510E0
1.057003878E1,-2.509123325E0,-2.047042370E0,2.250549555E0
1.057503878E1,-2.279279947E0,-1.738190413E0,2.257732153E0
1.058003881E1,-1.742978811E0,-1.400607944E0,2.185906172E0
1.058503885E1,-1.525106430E0,-1.300051570E0,2.118868589E0
1.059003888E1,-1.443703651E0,-1.419761658E0,1.484405041E0
1.059503915E1,-1.568202138E0,-1.558625340E0,8.140285611E-1
1.060003915E1,-1.831564307E0,-1.781286120E0,1.436520964E-1
1.060503911E1,-2.284068346E0,-2.145204782E0,-4.812345505E-1
1.061003908E1,-2.791639090E0,-2.839523315E0,-8.403648138E-1
1.061503908E1,-2.980781078E0,-3.378218651E0,-1.132457376E0
1.062003911E1,-3.323152065E0,-4.594472885E0,-1.982398987E0
1.062503914E1,-3.797203779E0,-5.722441196E0,-3.019088268E0
1.063003914E1,-4.309563160E0,-9.419088364E0,-4.831499100E0
1.063503914E1,-3.294421434E0,-1.404708099E1,-7.570765018E0
1.064003914E1,-5.793967843E-1,-2.046862793E1,-1.154274559E1
1.064503914E1,3.730166197E0,-2.878399086E1,-1.364246082E1
1.065003914E1,9.433453560E0,-3.843770981E1,-1.521096230E1
1.065503911E1,1.782064247E1,-4.867322159E1,-1.759558678E1
1.066003911E1,3.085736847E1,-5.858312225E1,-1.881423569E1
1.066503911E1,3.659656906E1,-6.141546249E1,-1.802175522E1
