"Time (s)","Acceleration x (m/s^2)","Acceleration y (m/s^2)","Acceleration z (m/s^2)"
7.824323000E-3,1.533799291E0,5.740381718E0,7.286144733E0
1.267432300E-2,1.294517040E0,5.766702652E0,7.018148899E0
1.752484400E-2,1.098305583E0,5.766702652E0,6.812366009E0
2.237526100E-2,1.107876897E0,5.812166214E0,6.884150982E0
2.722567800E-2,1.028913736E0,5.852844238E0,7.106683254E0
3.207609400E-2,9.906286001E-1,5.881557941E0,7.496713161E0
3.692651100E-2,9.954141974E-1,5.936593056E0,7.927421570E0
4.177692800E-2,1.014556766E0,5.984449387E0,8.331808090E0
4.662734400E-2,1.036092162E0,6.010770321E0,8.638090134E0
5.147776100E-2,1.014556766E0,6.001199245E0,8.877371788E0
5.632823000E-2,9.547362328E-1,5.960521221E0,8.994620323E0
6.117864600E-2,5.599204898E-1,6.049055576E0,8.946763992E0
6.602906300E-2,4.139583111E-1,5.970092297E0,8.863015175E0
7.087948000E-2,5.910272002E-1,5.783452511E0,8.796015739E0
7.572989600E-2,8.183453679E-1,5.639883041E0,8.662017822E0
8.058031300E-2,1.007378340E0,5.498706341E0,8.537590981E0
8.543073000E-2,1.057627559E0,5.429314613E0,8.468199730E0
9.028114600E-2,1.004985452E0,5.388636589E0,8.334200859E0
9.513156300E-2,1.000199914E0,5.359922886E0,8.214560509E0
9.998198000E-2,1.002592683E0,5.335994720E0,8.032705307E0
1.048323960E-1,1.002592683E0,5.331208706E0,7.824530125E0
1.096828130E-1,9.738788009E-1,5.309673309E0,7.618747234E0
1.145332300E-1,9.954141974E-1,5.316852093E0,7.506284714E0
1.193836460E-1,7.154539824E-1,5.395814896E0,7.283751965E0
1.242340630E-1,8.829515576E-1,5.321637630E0,7.238288403E0
1.290844800E-1,1.083948612E0,5.271388054E0,7.209574699E0
1.339349480E-1,1.196411371E0,5.285745144E0,7.207181931E0
1.387853650E-1,1.110269666E0,5.357530117E0,7.223931789E0
1.436357820E-1,9.714859724E-1,5.407779217E0,7.247859955E0
1.484861980E-1,7.298108935E-1,5.491528034E0,7.262216568E0
1.533366150E-1,1.627119333E-1,5.668596745E0,7.118647575E0
1.581870320E-1,1.866401732E-1,5.678168297E0,7.312466145E0
1.630374480E-1,2.632105052E-1,5.702096462E0,7.621140003E0
1.678878650E-1,3.110669553E-1,5.726024628E0,7.960920811E0
1.727382820E-1,3.876372576E-1,5.747560024E0,8.288737297E0
1.775886980E-1,4.522434771E-1,5.759523869E0,8.623732567E0
1.824391150E-1,5.096712112E-1,5.788238049E0,9.018548965E0
1.872895320E-1,6.029912829E-1,5.800201893E0,9.360722542E0
1.921399480E-1,6.747759581E-1,5.790630817E0,9.722038269E0
1.969903650E-1,7.824530005E-1,5.749952793E0,1.003310490E1
2.018407820E-1,9.020941257E-1,5.678168297E0,1.029870892E1
2.066912510E-1,1.026520967E0,5.558526993E0,1.049491978E1
2.115416670E-1,1.150947690E0,5.501099110E0,1.066002464E1
2.163920840E-1,1.222732425E0,5.426921844E0,1.075573826E1
2.212425010E-1,1.246660590E0,5.405386448E0,1.081795120E1
2.260929170E-1,1.249053478E0,5.364708424E0,1.080120182E1
2.309433340E-1,1.272981644E0,5.343173027E0,1.062652493E1
2.357937510E-1,1.275374413E0,5.288137913E0,1.039920712E1
2.406441670E-1,1.316052437E0,5.201996326E0,1.012881851E1
2.454945840E-1,1.330409408E0,5.111069202E0,9.844072342E0
2.502507820E-1,1.390229940E0,5.027320385E0,9.473184586E0
2.550060940E-1,1.409372568E0,4.881358147E0,9.044869423E0
2.597614070E-1,1.380658627E0,4.728217602E0,8.609375954E0
2.645167190E-1,1.339980721E0,4.644468784E0,8.166703224E0
2.692720840E-1,1.275374413E0,4.563112736E0,7.776673794E0
2.740273960E-1,1.162911773E0,4.481756687E0,7.467999458E0
2.787827090E-1,1.060020447E0,4.429114819E0,7.219145775E0
2.835380210E-1,9.355936646E-1,4.390829563E0,7.063612461E0
2.882933340E-1,8.422735929E-1,4.333401680E0,7.044469833E0
2.930486460E-1,7.609176040E-1,4.271188259E0,7.171289444E0
2.978039590E-1,7.130611539E-1,4.249652863E0,7.429714203E0
3.025592710E-1,6.747759581E-1,4.261617184E0,7.846065521E0
3.073145840E-1,6.675975323E-1,4.283152580E0,8.236095428E0
3.120698960E-1,6.652047038E-1,4.345366001E0,8.652446747E0
3.168252090E-1,6.604190469E-1,4.383651257E0,9.064012527E0
3.215805210E-1,6.628118753E-1,4.402793884E0,9.477970123E0
3.263358860E-1,4.331009090E-1,4.493721008E0,9.755537987E0
3.310911980E-1,4.163511395E-1,4.493721008E0,1.010728264E1
3.358465110E-1,5.216353536E-1,4.405186653E0,1.039442158E1
3.406018230E-1,6.221339107E-1,4.290330887E0,1.055474091E1
3.453571360E-1,7.680960894E-1,4.130012035E0,1.060738277E1
3.501124480E-1,8.925228715E-1,3.991228104E0,1.054277611E1
3.548677610E-1,9.140582681E-1,3.917050600E0,1.045184898E1
3.596230730E-1,1.012163997E0,3.761517286E0,1.042313576E1
3.643783860E-1,1.134197950E0,3.591626883E0,1.039202881E1
3.691336980E-1,1.220339537E0,3.443271875E0,1.031306553E1
3.738890630E-1,1.299302697E0,3.347558975E0,1.018385315E1
3.786443760E-1,1.165304661E0,3.340380430E0,9.992427826E0
3.833996880E-1,1.060020447E0,3.340380430E0,9.822537422E0
3.881550010E-1,9.738788009E-1,3.335594654E0,9.650253296E0
3.929103130E-1,9.451649189E-1,3.273381472E0,9.470791817E0
3.976656260E-1,8.901300430E-1,3.201596737E0,9.226723671E0
4.024209380E-1,7.345965505E-1,3.175275564E0,8.925228119E0
4.071762510E-1,6.412764788E-1,3.172882795E0,8.635697365E0
4.119315630E-1,6.460621357E-1,3.108276606E0,8.405985832E0
4.166868760E-1,5.312066078E-1,3.077169895E0,8.219346046E0
4.214421880E-1,4.091726840E-1,3.058027267E0,8.011170387E0
4.261975010E-1,2.943171859E-1,3.060420275E0,7.903493404E0
4.309528130E-1,2.129612118E-1,3.029313564E0,7.881958008E0
4.357081780E-1,8.135596663E-2,2.991028309E0,7.925028801E0
4.404634900E-1,-3.349951655E-2,3.000599623E0,7.999206066E0
4.452188030E-1,-1.244267747E-1,3.038884640E0,8.114061356E0
4.499741150E-1,-2.679961324E-1,3.038884640E0,8.312665939E0
4.547294280E-1,-3.948157430E-1,3.062813044E0,8.511270523E0
4.594847400E-1,-4.689932466E-1,3.086741209E0,8.760123253E0
4.642400530E-1,-5.072783828E-1,3.079562664E0,9.092725754E0
4.689953650E-1,-6.245267391E-1,3.038884640E0,9.475577354E0
4.737506780E-1,-6.197410822E-1,3.041277647E0,9.844072342E0
4.785059900E-1,-4.570291340E-1,3.077169895E0,1.017188931E1
4.832613030E-1,-2.416750938E-1,3.201596737E0,1.049491978E1
4.880166150E-1,-1.196411345E-2,3.311666489E0,1.079402256E1
4.927719800E-1,1.651047617E-1,3.500699520E0,1.104766178E1
4.975272920E-1,2.967100143E-1,3.670589924E0,1.127737331E1
5.022826050E-1,4.091726840E-1,3.806980848E0,1.141615677E1
5.070379170E-1,4.977070987E-1,3.873979807E0,1.144726372E1
5.117932300E-1,5.551348329E-1,3.936193228E0,1.134676456E1
5.165485420E-1,5.694918036E-1,3.976871252E0,1.108833981E1
5.213038550E-1,5.168496966E-1,3.979264021E0,1.071506023E1
5.260591670E-1,4.498506486E-1,3.981656790E0,1.022931671E1
5.308144800E-1,3.541377485E-1,3.979264021E0,9.734002113E0
5.355698440E-1,2.368894368E-1,3.976871252E0,9.284152031E0
5.403251570E-1,1.531406492E-1,4.022335052E0,8.843872070E0
5.450804690E-1,7.896314561E-2,4.060619831E0,8.477770805E0
5.498357820E-1,5.503492057E-2,4.089334011E0,8.173882484E0
5.545910940E-1,2.632104978E-2,4.120440483E0,7.869993687E0
5.593464070E-1,-1.052841991E-1,4.165904045E0,7.554141045E0
5.641017190E-1,-2.249253243E-1,4.201796532E0,7.401000500E0
5.688570320E-1,-2.919243574E-1,4.242474556E0,7.355536938E0
5.736123440E-1,-3.493520916E-1,4.285545349E0,7.415357590E0
5.783676570E-1,-4.019941986E-1,4.287938118E0,7.561319351E0
5.831229690E-1,-4.546363056E-1,4.350151539E0,7.740781307E0
5.878783340E-1,-5.072783828E-1,4.374079704E0,7.951349735E0
5.926336460E-1,-5.335994363E-1,4.347758770E0,8.133204460E0
5.973889590E-1,-5.096712112E-1,4.273581028E0,8.312665939E0
6.021442710E-1,-4.522434771E-1,4.187439442E0,8.494520187E0
6.068995840E-1,-3.804588020E-1,4.098905087E0,8.669196129E0
6.116548960E-1,-2.632105052E-1,3.974478483E0,8.843872070E0
6.164102090E-1,-1.459621787E-1,3.818944931E0,8.989834785E0
6.211655210E-1,-4.785645287E-3,3.663411379E0,9.138189316E0
6.259208340E-1,3.828516230E-2,3.529413462E0,9.298508644E0
6.306761980E-1,4.067798331E-2,3.412165165E0,9.430113792E0
6.354315110E-1,7.896314561E-2,3.328416348E0,9.597611427E0
6.401868230E-1,3.278166950E-1,3.414557934E0,9.655039787E0
6.449421360E-1,-2.273181528E-1,3.553341627E0,9.604789734E0
6.496974480E-1,-4.307080805E-1,3.424129248E0,9.870393753E0
6.544527610E-1,-2.464607358E-1,3.297309637E0,1.002114105E1
6.592080730E-1,-7.178468257E-2,3.175275564E0,1.001156998E1
6.639633860E-1,-5.503492057E-2,3.122633457E0,9.896714211E0
6.687186980E-1,-2.632104978E-2,3.177668571E0,9.729216576E0
6.734740630E-1,1.483550072E-1,3.282952785E0,9.552147865E0
6.782293760E-1,-1.268195957E-1,3.254238844E0,9.509077072E0
6.829846880E-1,-2.799602449E-1,3.223132133E0,9.422935486E0
6.877400010E-1,1.435693540E-2,3.416950703E0,9.226723671E0
6.924953130E-1,-4.067798331E-2,3.416950703E0,9.171689034E0
6.972506260E-1,-3.278166950E-1,3.321237803E0,9.016156197E0
7.020059380E-1,-6.221338734E-2,3.584448338E0,8.755337715E0
7.067612510E-1,-2.392822644E-3,3.594019651E0,8.717052460E0
7.115165630E-1,1.914258115E-2,3.651447296E0,8.484949112E0
7.162718760E-1,9.092725813E-2,3.646661758E0,8.372486115E0
7.210272400E-1,8.614161611E-2,3.651447296E0,8.317451477E0
7.257825530E-1,3.110669367E-2,3.639483213E0,8.303094864E0
7.305378650E-1,-3.589234129E-2,3.629911900E0,8.334200859E0
7.352931780E-1,-1.292124242E-1,3.601198196E0,8.394021988E0
7.400484900E-1,-2.488535494E-1,3.586841106E0,8.492127419E0
7.448038030E-1,-3.828516304E-1,3.572484255E0,8.685946465E0
7.495591150E-1,-5.910272002E-1,3.541377544E0,8.910871506E0
7.543144280E-1,-7.393822074E-1,3.503092289E0,9.154939651E0
7.590697400E-1,-8.901300430E-1,3.481556892E0,9.363115311E0
7.638251050E-1,-1.048056364E0,3.498306751E0,9.542576790E0
7.685804170E-1,-1.170090318E0,3.515056372E0,9.717252731E0
7.733357300E-1,-1.306481123E0,3.519842148E0,9.839286804E0
7.780910420E-1,-1.368694544E0,3.522234917E0,9.918250084E0
7.828463550E-1,-1.344766378E0,3.455235958E0,9.968499184E0
7.876016670E-1,-1.462014675E0,3.457628727E0,9.920642853E0
7.923569800E-1,-1.574477315E0,3.474378586E0,9.879964828E0
7.971122920E-1,-1.617548108E0,3.541377544E0,9.877572060E0
8.018676570E-1,-1.847259045E0,3.527020693E0,9.719645500E0
8.066229690E-1,-1.835294962E0,3.613162279E0,9.506684303E0
8.113782820E-1,-1.694118381E0,3.804588079E0,9.389435768E0
8.161335940E-1,-1.502692580E0,3.991228104E0,9.298508644E0
8.208889070E-1,-1.272981644E0,4.091726780E0,9.128618240E0
8.256442190E-1,-1.194018483E0,4.163511276E0,8.877371788E0
8.303995320E-1,-1.194018483E0,4.141975880E0,8.666803360E0
8.351548440E-1,-1.124626637E0,4.091726780E0,8.487341881E0
8.399101570E-1,-1.074377418E0,4.031906128E0,8.286344528E0
8.446655210E-1,-1.028913736E0,3.940979004E0,8.073383331E0
8.494207820E-1,-9.427721500E-1,3.790230989E0,7.896314621E0
8.541761460E-1,-8.063812256E-1,3.670589924E0,7.841279984E0
8.589314590E-1,-6.221339107E-1,3.608376503E0,7.824530125E0
8.636867710E-1,-4.354937077E-1,3.560520172E0,7.793423176E0
8.684420840E-1,-3.254238665E-1,3.565305710E0,7.733603001E0
8.731973960E-1,-2.368894368E-1,3.596412420E0,7.728816986E0
8.779527090E-1,-9.332008660E-2,3.637090445E0,7.762316704E0
8.827080210E-1,-8.135596663E-2,3.620340586E0,7.767102242E0
8.874633860E-1,-5.503492057E-2,3.663411379E0,7.817351341E0
8.922186980E-1,-6.460621208E-2,3.739981890E0,7.977670670E0
8.969740110E-1,-1.196411345E-2,3.816552162E0,8.173882484E0
9.017293230E-1,6.460621208E-2,3.852444410E0,8.456234932E0
9.064846360E-1,1.387837082E-1,3.890729666E0,8.673981667E0
9.112399480E-1,2.321037948E-1,3.926621914E0,8.860622406E0
9.159952610E-1,2.632105052E-1,3.991228104E0,9.042476654E0
9.207505730E-1,2.703889608E-1,4.079762459E0,9.226723671E0
9.255058860E-1,2.488535494E-1,4.122833252E0,9.403793335E0
9.302612510E-1,2.321037948E-1,4.187439442E0,9.521040916E0
9.350165630E-1,2.153540403E-1,4.216153622E0,9.602396965E0
9.397718760E-1,2.823530734E-1,4.295116425E0,9.743574142E0
9.445271880E-1,3.445664644E-1,4.333401680E0,9.750752449E0
9.492825010E-1,3.852444589E-1,4.354937077E0,9.738788605E0
9.540378130E-1,3.062812984E-1,4.395615101E0,9.803394318E0
9.587931260E-1,2.177468538E-1,4.409972191E0,9.820143700E0
9.635484380E-1,1.962114573E-1,4.450650215E0,9.722038269E0
9.683037510E-1,1.316052526E-1,4.486542225E0,9.662218094E0
9.730591150E-1,7.417750359E-2,4.498506546E0,9.578469276E0
9.778144280E-1,1.435693540E-2,4.517649174E0,9.420542717E0
9.825697400E-1,-2.392822644E-3,4.572684288E0,9.183652878E0
9.873250530E-1,-9.092725813E-2,4.632504463E0,9.016156197E0
9.920803650E-1,-1.459621787E-1,4.699503899E0,8.827122688E0
9.968356780E-1,-2.153540403E-1,4.766502857E0,8.616554260E0
1.001590990E0,-3.206382394E-1,4.838287354E0,8.441878319E0
1.006346303E0,-3.996013701E-1,4.938786030E0,8.286344528E0
1.011101615E0,-4.737788737E-1,5.029713154E0,8.166703224E0
1.015856980E0,-5.455635786E-1,5.099104881E0,8.018348694E0
1.020612292E0,-6.388836503E-1,5.190032482E0,7.939385414E0
1.025367605E0,-6.939185858E-1,5.268995285E0,7.951349735E0
1.030122917E0,-7.106683254E-1,5.367101192E0,7.896314621E0
1.034878230E0,-6.771687865E-1,5.486742496E0,7.846065521E0
1.039633542E0,-6.556333899E-1,5.572884083E0,7.858029366E0
1.044388855E0,-6.340979934E-1,5.642275810E0,7.872386456E0
1.049144167E0,-6.317051649E-1,5.709274769E0,7.915457249E0
1.053899532E0,-5.790630579E-1,5.793023586E0,7.996813297E0
1.058654844E0,-5.335994363E-1,5.876772404E0,8.152346611E0
1.063410157E0,-5.958128572E-1,5.989234924E0,8.202595711E0
1.068165469E0,-6.173482537E-1,6.084948063E0,8.295916557E0
1.072920782E0,-5.359922647E-1,6.132804394E0,8.420342445E0
1.077676094E0,-4.187439680E-1,6.178267956E0,8.523234367E0
1.082431407E0,-3.756731451E-1,6.199803352E0,8.597412109E0
1.087186719E0,-2.967100143E-1,6.235695839E0,8.673981667E0
1.091942032E0,-1.698904037E-1,6.254838467E0,8.760123253E0
1.096697396E0,-3.589234129E-2,6.271588326E0,8.874979019E0
1.101452709E0,7.178468257E-2,6.276373863E0,8.932407379E0
1.106208021E0,9.332008660E-2,6.290730953E0,8.843872070E0
1.110963334E0,1.531406492E-1,6.281159401E0,8.776873589E0
1.115718646E0,2.775674164E-1,6.247660160E0,8.705088615E0
1.120473959E0,3.732803464E-1,6.202196121E0,8.616554260E0
1.125229271E0,4.522434771E-1,6.178267956E0,8.511270523E0
1.129984584E0,5.144568682E-1,6.118447304E0,8.360522270E0
1.134739948E0,5.934200287E-1,6.082555294E0,8.236095428E0
1.139495261E0,6.843472719E-1,6.022734642E0,8.121239662E0
1.144250573E0,7.202396393E-1,5.946164131E0,8.025527000E0
1.149005886E0,7.417750359E-1,5.886343479E0,7.956135273E0
1.153761198E0,7.393822074E-1,5.826523304E0,7.908278942E0
1.158516511E0,7.609176040E-1,5.807380676E0,7.896314621E0
1.163271823E0,7.130611539E-1,5.778666496E0,7.908278942E0
1.168027136E0,6.723831892E-1,5.769095421E0,7.922635555E0
1.172782501E0,5.910272002E-1,5.759523869E0,7.970492363E0
1.177537813E0,5.096712112E-1,5.759523869E0,8.011170387E0
1.182293126E0,4.570291340E-1,5.747560024E0,8.123632431E0
1.187048438E0,4.259224236E-1,5.699703693E0,8.243273735E0
1.191803751E0,3.828516304E-1,5.685346603E0,8.413164139E0
1.196559063E0,3.206382394E-1,5.630311489E0,8.532805443E0
1.201314376E0,2.392822653E-1,5.599205017E0,8.604590416E0
1.206069688E0,1.555334777E-1,5.568098068E0,8.717052460E0
1.210825001E0,9.810572863E-2,5.513063431E0,8.762516975E0
1.215580365E0,5.024927482E-2,5.491528034E0,8.750552177E0
1.220335678E0,2.153540403E-2,5.465207100E0,8.762516975E0
1.225090990E0,4.785645287E-3,5.407779217E0,8.800801277E0
1.229846303E0,-3.349951655E-2,5.383851051E0,8.839086533E0
1.234601615E0,-8.135596663E-2,5.388636589E0,8.870193481E0
1.239356928E0,-7.417750359E-2,5.391029358E0,8.886942863E0
1.244112240E0,-6.699903309E-2,5.359922886E0,8.886942863E0
1.248867605E0,-5.982056633E-2,5.364708424E0,8.886942863E0
1.253622917E0,-1.674975827E-2,5.371886730E0,8.946763992E0
1.258378230E0,-4.785645287E-3,5.364708424E0,8.961120605E0
1.263133542E0,-2.632104978E-2,5.386243820E0,8.980263710E0
1.267888855E0,-2.871387079E-2,5.395814896E0,8.977870941E0
1.272644167E0,-5.742774159E-2,5.424529076E0,8.946763992E0
1.277399480E0,-9.092725813E-2,5.436492920E0,8.877371788E0
1.282154792E0,-1.244267747E-1,5.498706341E0,8.822337151E0
1.286910157E0,-1.651047617E-1,5.551348686E0,8.793622971E0
1.291665469E0,-2.177468538E-1,5.613562107E0,8.810373306E0
1.296420782E0,-2.679961324E-1,5.661418438E0,8.922835350E0
1.301176094E0,-2.847459018E-1,5.692524910E0,9.087940216E0
1.305931407E0,-2.919243574E-1,5.714060307E0,9.231510162E0
1.310686719E0,-1.986042857E-1,5.704489231E0,9.375079155E0
1.315442032E0,-1.746760458E-1,5.642275810E0,9.458827972E0
1.320197344E0,-2.392822653E-1,5.575276852E0,9.296115875E0
1.324952657E0,-3.613162339E-1,5.347958565E0,9.267401695E0
1.329708021E0,-1.770688742E-1,5.024927616E0,9.207581520E0
1.334463334E0,-7.657032460E-2,4.922036171E0,9.217152596E0
1.339218646E0,-2.177468538E-1,5.020142078E0,9.202795982E0
1.343973959E0,-3.086741269E-1,5.096712112E0,9.018548965E0
1.348729271E0,-3.900300860E-1,5.151747227E0,8.987442017E0
1.353484584E0,-3.828516304E-1,5.094319344E0,8.994620323E0
1.358239896E0,-3.349951804E-1,5.029713154E0,9.133403778E0
1.362995209E0,-2.943171859E-1,4.807180882E0,9.178867340E0
1.367750573E0,-2.751746178E-1,4.570291042E0,9.083154678E0
1.372505886E0,-2.297109663E-1,4.247260094E0,8.939585686E0
1.377261198E0,-2.297109663E-1,3.926621914E0,8.784051895E0
1.382016511E0,-1.866401732E-1,3.739981890E0,8.676374435E0
1.386771823E0,-1.100698411E-1,3.567698479E0,8.681160927E0
1.391527136E0,4.618147612E-1,3.905086517E0,8.506484032E0
1.396282448E0,4.498506486E-1,3.522234917E0,8.652446747E0
1.401037761E0,1.244267747E-1,3.266202927E0,8.370093346E0
1.405793073E0,3.397808075E-1,3.235096216E0,8.640482903E0
1.410548438E0,1.435693540E-2,3.151347399E0,8.214560509E0
1.415303751E0,-5.982056633E-2,3.026920557E0,8.037490845E0
1.420059063E0,-3.756731451E-1,2.873780012E0,7.946564198E0
1.424814376E0,-5.264210105E-1,2.739781857E0,7.965706348E0
1.429569688E0,-6.269195080E-1,2.617748022E0,8.032705307E0
1.434325001E0,-1.009771109E0,2.691925526E0,8.063812256E0
1.439080313E0,-1.404586911E0,2.679961443E0,8.372486115E0
1.443835626E0,-1.634297848E0,2.852244616E0,8.776873589E0
1.448590990E0,-1.514656782E0,3.297309637E0,9.159725189E0
1.453346303E0,-1.210768223E0,3.816552162E0,9.399007797E0
1.458101615E0,-9.355936646E-1,4.273581028E0,9.530612946E0
1.462856928E0,-7.704889178E-1,4.615755081E0,9.650253296E0
1.467612240E0,-7.202396393E-1,4.821537495E0,9.750752449E0
1.472367553E0,-6.652047038E-1,4.962714195E0,9.805787086E0
1.477122865E0,-6.652047038E-1,5.096712112E0,9.812965393E0
1.481878230E0,-6.771687865E-1,5.218746185E0,9.829715729E0
1.486633542E0,-6.604190469E-1,5.359922886E0,9.853643417E0
1.491388855E0,-6.317051649E-1,5.438885689E0,9.731609344E0
1.496144167E0,-6.580262184E-1,5.563312531E0,9.803394318E0
1.500899480E0,-6.245267391E-1,5.685346603E0,9.815358162E0
1.505654792E0,-5.335994363E-1,5.807380676E0,9.803394318E0
1.510410105E0,-4.067798555E-1,5.871986866E0,9.757930756E0
1.515165417E0,-3.230310678E-1,5.898307800E0,9.705288887E0
1.519920730E0,-2.512463629E-1,5.900700569E0,9.556933403E0
1.524676094E0,-1.962114573E-1,5.874379635E0,9.377471924E0
1.529431407E0,-1.794617027E-1,5.783452511E0,9.119047165E0
1.534186719E0,-2.009970993E-1,5.635097504E0,8.879764557E0
1.538942032E0,-2.727817893E-1,5.436492920E0,8.654839516E0
1.543697344E0,-2.847459018E-1,5.242674351E0,8.413164139E0
1.548452657E0,-2.871387303E-1,5.082355499E0,8.219346046E0
1.553207969E0,-2.368894368E-1,4.950749874E0,8.044670105E0
1.557963282E0,-1.722832322E-1,4.867001057E0,7.951349735E0
1.562718646E0,-8.853443712E-2,4.709074974E0,7.879564762E0
1.567473959E0,-4.546362907E-2,4.536791801E0,7.831708431E0
1.572229271E0,-3.828516230E-2,4.338187218E0,7.800601959E0
1.576984584E0,-9.332008660E-2,4.141975880E0,7.781459332E0
1.581739896E0,-1.387837082E-1,3.950550079E0,7.750352383E0
1.586495209E0,6.221338734E-2,4.189832687E0,7.580461979E0
1.591250521E0,6.604190469E-1,4.149154663E0,7.848458290E0
1.596005834E0,5.264210105E-1,4.007977962E0,7.434499741E0
1.600761146E0,4.498506486E-1,3.694518089E0,7.527820110E0
1.605516511E0,2.440679073E-1,3.486342669E0,7.520641804E0
1.610271823E0,7.178468257E-2,3.316452265E0,7.525427341E0
1.615027136E0,-1.148554832E-1,3.156133175E0,7.415357590E0
1.619782448E0,-2.632105052E-1,3.072384357E0,7.379465103E0
1.624537761E0,-4.378865361E-1,2.971885681E0,7.460821152E0
1.629293073E0,-5.647061467E-1,3.067598581E0,7.566105366E0
1.634048386E0,-4.666004181E-1,3.378665686E0,7.771887779E0
1.638803698E0,-2.488535494E-1,3.804588079E0,8.020741463E0
1.643559063E0,-1.914258115E-2,4.163511276E0,8.300702095E0
1.648314376E0,-4.785645287E-3,4.421936035E0,8.657232285E0
1.653069688E0,-1.076770201E-1,4.642076015E0,8.973084450E0
1.657825001E0,-2.608176768E-1,4.694717884E0,9.126225471E0
1.662580313E0,-4.139583111E-1,4.754538536E0,9.329615593E0
1.667335626E0,-5.072783828E-1,4.807180882E0,9.516255379E0
1.672090938E0,-5.599204898E-1,4.941178799E0,9.659825325E0
1.676846251E0,-5.240281820E-1,5.070391178E0,9.808179855E0
1.681601615E0,-4.450650215E-1,5.175675392E0,9.915857315E0
1.686356928E0,-3.852444589E-1,5.252245903E0,9.949356079E0
1.691112240E0,-2.967100143E-1,5.290530682E0,9.896714211E0
1.695867553E0,-2.129612118E-1,5.331208706E0,9.856036186E0
1.700622865E0,-1.555334777E-1,5.355136871E0,9.829715729E0
1.705378178E0,-1.124626622E-1,5.309673309E0,9.655039787E0
1.710133490E0,-1.483550072E-1,5.218746185E0,9.430113792E0
1.714888803E0,-2.009970993E-1,5.099104881E0,9.186046600E0
1.719644167E0,-2.512463629E-1,4.955535889E0,8.973084450E0
1.724399480E0,-2.967100143E-1,4.819144726E0,8.791230202E0
1.729154792E0,-3.134597540E-1,4.682754040E0,8.642875671E0
1.733910105E0,-3.014956415E-1,4.582255363E0,8.477770805E0
1.738665417E0,-2.871387303E-1,4.455435753E0,8.334200859E0
1.743420730E0,-2.560320199E-1,4.345366001E0,8.197810173E0
1.748176042E0,-2.057827413E-1,4.208974838E0,8.145168304E0
1.752931355E0,-1.435693651E-1,4.106083870E0,8.147561073E0
1.757686667E0,-8.853443712E-2,4.094119549E0,8.212167740E0
1.762442032E0,-6.221338734E-2,3.976871252E0,8.238488197E0
1.767197344E0,-9.571290761E-2,3.833301783E0,8.298309326E0
1.771952657E0,-9.332008660E-2,3.749552965E0,8.327022552E0
1.776707969E0,-1.100698411E-1,3.682554007E0,8.386843681E0
1.781463282E0,-6.699903309E-2,3.656233072E0,8.465806961E0
1.786218594E0,7.178467698E-3,3.632304668E0,8.597412109E0
1.790973907E0,1.914258115E-2,3.646661758E0,8.736195564E0
1.795729219E0,8.853443712E-2,3.629911900E0,8.894122124E0
1.800484584E0,1.124626622E-1,3.608376503E0,9.013762474E0
1.805239896E0,1.028913707E-1,3.565305710E0,9.092725754E0
1.809995209E0,9.092725813E-2,3.498306751E0,9.114261627E0
1.814750521E0,9.571290761E-2,3.426522017E0,9.154939651E0
1.819505834E0,9.332008660E-2,3.376272678E0,9.188439369E0
1.824261146E0,5.982056633E-2,3.357130051E0,9.212367058E0
1.829016459E0,2.392822644E-3,3.309273720E0,9.212367058E0
1.833771771E0,7.178467698E-3,3.294916868E0,9.174081802E0
1.838527084E0,-6.939185411E-2,3.285345554E0,9.090332985E0
1.843282448E0,-1.411765367E-1,3.256631613E0,8.968298912E0
1.848037761E0,-1.794617027E-1,3.242274761E0,8.834300995E0
1.852793073E0,-2.440679073E-1,3.232703447E0,8.709874153E0
1.857548386E0,-2.943171859E-1,3.244667530E0,8.621339798E0
1.862303698E0,-3.302095234E-1,3.256631613E0,8.573483467E0
1.867059011E0,-3.421736360E-1,3.314059258E0,8.566305161E0
1.871814323E0,-3.445664644E-1,3.349951744E0,8.573483467E0
1.876569636E0,-3.134597540E-1,3.438486099E0,8.590232849E0
1.881324948E0,-3.038884699E-1,3.512663603E0,8.630910873E0
1.886080313E0,-2.632105052E-1,3.594019651E0,8.671588898E0
1.890835626E0,-2.177468538E-1,3.658625841E0,8.693124771E0
1.895590938E0,-1.411765367E-1,3.720839262E0,8.784051895E0
1.900346251E0,-9.810572863E-2,3.799802303E0,8.908478737E0
1.905101563E0,-4.067798331E-2,3.864408493E0,9.049654961E0
1.909856876E0,-3.110669367E-2,3.936193228E0,9.131011009E0
1.914612188E0,-3.349951655E-2,3.993621111E0,9.178867340E0
1.919367501E0,-2.392822644E-3,4.051048756E0,9.188439369E0
1.924122865E0,4.785645287E-3,4.108476639E0,9.150154114E0
1.928878178E0,-4.785645287E-3,4.185046673E0,9.097511292E0
1.933633490E0,-1.914258115E-2,4.259224415E0,9.104690552E0
1.938388803E0,-5.503492057E-2,4.323830605E0,9.068798065E0
1.943144115E0,-4.785645381E-2,4.383651257E0,9.030512810E0
1.947899428E0,-4.067798331E-2,4.417150497E0,8.944371223E0
1.952654740E0,4.785645287E-3,4.419543266E0,8.877371788E0
1.957410053E0,2.632104978E-2,4.445864677E0,8.819944382E0
1.962165365E0,2.632104978E-2,4.436293125E0,8.807980537E0
1.966920730E0,1.435693540E-2,4.450650215E0,8.877371788E0
1.971676042E0,-2.632104978E-2,4.436293125E0,8.985049248E0
1.976431355E0,-6.221338734E-2,4.448257446E0,9.119047165E0
1.981186667E0,-1.531406492E-1,4.431507587E0,9.274580956E0
1.985941980E0,-1.842473447E-1,4.441078663E0,9.396614075E0
1.990697292E0,-2.009970993E-1,4.429114819E0,9.485149384E0
1.995452605E0,-2.727817893E-1,4.405186653E0,9.528220177E0
2.000207917E0,-2.871387303E-1,4.362115860E0,9.547362328E0
2.004963230E0,-3.206382394E-1,4.283152580E0,9.509077072E0
2.009718542E0,-3.230310678E-1,4.211368084E0,9.446864128E0
2.014473907E0,-2.991028428E-1,4.113262177E0,9.415757179E0
2.019229219E0,-2.536391914E-1,4.031906128E0,9.406186104E0
2.023984532E0,-1.842473447E-1,3.945764542E0,9.427721024E0
2.028739844E0,-2.057827413E-1,3.873979807E0,9.410971642E0
2.033495157E0,-1.818545163E-1,3.809373617E0,9.327222824E0
2.038250469E0,-1.698904037E-1,3.780659676E0,9.171689034E0
2.043005782E0,-1.914258152E-1,3.795016766E0,8.949156761E0
2.047761094E0,-1.962114573E-1,3.744767427E0,8.733802795E0
2.052516407E0,-2.560320199E-1,3.730410576E0,8.571090698E0
2.057271719E0,-3.493520916E-1,3.780659676E0,8.511270523E0
2.062027084E0,-2.823530734E-1,3.677768469E0,8.370093346E0
2.066782396E0,-3.421736360E-1,3.668197155E0,8.245666504E0
2.071537709E0,-3.996013701E-1,3.730410576E0,8.181060791E0
2.076293021E0,-5.240281820E-1,3.804588079E0,8.149953842E0
2.081048334E0,-6.101697683E-1,3.921836376E0,8.204988480E0
2.085803646E0,-7.417750359E-1,4.015156269E0,8.341380119E0
2.090558959E0,-8.446664214E-1,4.120440483E0,8.465806961E0
2.095314271E0,-8.973084688E-1,4.223331928E0,8.602197647E0
2.100069584E0,-9.116654396E-1,4.273581028E0,8.767302513E0
2.104824896E0,-9.164510965E-1,4.309473515E0,8.961120605E0
2.109580261E0,-8.805587292E-1,4.347758770E0,9.195617676E0
2.114335573E0,-8.183453679E-1,4.371686935E0,9.406186104E0
2.119090886E0,-7.561319470E-1,4.338187218E0,9.564111710E0
2.123846198E0,-6.340979934E-1,4.314259052E0,9.650253296E0
2.128601511E0,-5.383850932E-1,4.252045631E0,9.678967476E0
2.133356823E0,-4.163511395E-1,4.194618225E0,9.623932838E0
2.138112136E0,-3.469592929E-1,4.137190342E0,9.585647583E0
2.142867448E0,-3.397808075E-1,4.065405846E0,9.552147865E0
2.147622761E0,-3.254238665E-1,4.048655987E0,9.509077072E0
2.152378126E0,-3.326023519E-1,3.974478483E0,9.437292099E0
2.157133438E0,-2.919243574E-1,3.926621914E0,9.343972206E0
2.161888751E0,-2.679961324E-1,3.869194269E0,9.200403214E0
2.166644063E0,-2.201396823E-1,3.833301783E0,9.052047729E0
2.171399376E0,-1.579262912E-1,3.778266907E0,8.870193481E0
2.176154688E0,-7.178468257E-2,3.725624800E0,8.685946465E0
2.180910001E0,-3.349951655E-2,3.675375462E0,8.508877754E0
2.185665313E0,-2.632104978E-2,3.637090445E0,8.394021988E0
2.190420626E0,-5.742774159E-2,3.646661758E0,8.327022552E0
2.195175990E0,-9.810572863E-2,3.672982693E0,8.307880402E0
2.199931303E0,-1.316052526E-1,3.785445452E0,8.334200859E0
2.204686615E0,-2.368894368E-1,3.859622955E0,8.386843681E0
2.209441928E0,-3.493520916E-1,3.912265062E0,8.470592499E0
2.214197240E0,-4.067798555E-1,3.967299938E0,8.573483467E0
2.218952553E0,-4.594219327E-1,4.024727821E0,8.709874153E0
2.223707865E0,-5.670989752E-1,4.118047714E0,8.896514893E0
2.228463178E0,-6.604190469E-1,4.197010994E0,9.037691116E0
2.233218490E0,-7.896314859E-1,4.292723656E0,9.229117393E0
2.237973803E0,-8.877372146E-1,4.431507587E0,9.458827972E0
2.242729167E0,-9.810572863E-1,4.467400074E0,9.738788605E0
2.247484480E0,-1.021735311E0,4.469792843E0,1.012164021E1
2.252239792E0,-1.045663476E0,4.378865242E0,1.036092186E1
2.256995105E0,-1.162911773E0,4.438685894E0,1.064088249E1
2.261750417E0,-1.205982566E0,4.500899315E0,1.082273674E1
2.266505730E0,-1.194018483E0,4.455435753E0,1.091127110E1
2.271261042E0,-1.103091240E0,4.319045067E0,1.109551907E1
2.276016355E0,-1.009771109E0,4.144368649E0,1.123908806E1
2.280771667E0,-8.805587292E-1,4.012763500E0,1.122233772E1
2.285526980E0,-7.824530005E-1,3.850051641E0,1.105723381E1
2.290282292E0,-7.417750359E-1,3.627519131E0,1.079880905E1
2.295037657E0,-6.795616150E-1,3.366701365E0,1.040399265E1
2.299792969E0,-5.455635786E-1,3.177668571E0,9.896714211E0
2.304548282E0,-3.876372576E-1,3.192025423E0,9.444471359E0
2.309303594E0,-3.756731451E-1,3.278167009E0,8.882157326E0
2.314058907E0,-2.512463629E-1,3.024527788E0,8.360522270E0
2.318814219E0,-1.674975902E-1,2.730210543E0,7.987242222E0
2.323569532E0,-7.417750359E-2,2.488535643E0,7.582854748E0
2.328324844E0,-3.589234129E-2,2.287538528E0,7.281359196E0
2.333080157E0,-1.196411345E-2,2.098505497E0,7.042077065E0
2.337835469E0,-8.374879509E-2,2.115255117E0,6.896114826E0
2.342590782E0,-2.129612118E-1,2.359323025E0,6.960721016E0
2.347346146E0,-3.206382394E-1,2.723032236E0,7.121040344E0
2.352101459E0,-4.713860750E-1,3.101098061E0,7.467999458E0
2.356856771E0,-5.958128572E-1,3.448057413E0,7.936992645E0
2.361612084E0,-7.130611539E-1,3.661018610E0,8.449056625E0
2.366367396E0,-8.231309652E-1,3.787838221E0,8.953942299E0
2.371122709E0,-9.571290612E-1,3.905086517E0,9.449256897E0
2.375878021E0,-1.052842021E0,3.991228104E0,9.930213928E0
2.380633334E0,-1.086341500E0,4.086941242E0,1.036092186E1
2.385388646E0,-1.043270707E0,4.218546391E0,1.069830990E1
2.390143959E0,-1.004985452E0,4.333401680E0,1.097348499E1
2.394899271E0,-1.021735311E0,4.414757729E0,1.120558834E1
2.399654636E0,-9.954141974E-1,4.469792843E0,1.141615677E1
2.404409948E0,-1.031306505E0,4.472185612E0,1.161715412E1
2.409165261E0,-1.026520967E0,4.460221291E0,1.173918819E1
2.413920573E0,-1.021735311E0,4.438685894E0,1.173918819E1
2.418675886E0,-9.858429432E-1,4.352544308E0,1.161236858E1
2.423431198E0,-9.140582681E-1,4.256831646E0,1.135394382E1
2.428186511E0,-8.374879360E-1,4.144368649E0,1.100698376E1
2.432941823E0,-7.776673436E-1,4.010370731E0,1.058106136E1
2.437697136E0,-7.250252366E-1,3.866801500E0,1.011924744E1
2.442452448E0,-6.699903607E-1,3.716053486E0,9.600004196E0
2.447207761E0,-6.125625968E-1,3.598805189E0,9.142974854E0
2.451963126E0,-5.599204898E-1,3.488735437E0,8.630910873E0
2.456718438E0,-5.575276613E-1,3.388236761E0,8.173882484E0
2.461473751E0,-5.886343718E-1,3.311666489E0,7.726424217E0
2.466229063E0,-6.077769399E-1,3.263810158E0,7.341179848E0
2.470984376E0,-6.652047038E-1,3.232703447E0,7.008577347E0
2.475739688E0,-7.082754970E-1,3.266202927E0,6.800402164E0
2.480495001E0,-7.704889178E-1,3.304488182E0,6.692724705E0
2.485250313E0,-8.327022791E-1,3.388236761E0,6.699903488E0
2.490005626E0,-8.733802438E-1,3.512663603E0,6.817151546E0
2.494760938E0,-8.781659007E-1,3.641875982E0,7.101897717E0
2.499516251E0,-8.709874153E-1,3.795016766E0,7.518248558E0
2.504271563E0,-8.183453679E-1,3.952943087E0,8.073383331E0
2.509026928E0,-8.111668825E-1,4.082155228E0,8.693124771E0
2.513782240E0,-7.824530005E-1,4.197010994E0,9.274580956E0
2.518537553E0,-7.106683254E-1,4.295116425E0,9.908679008E0
2.523292865E0,-5.455635786E-1,4.366901398E0,1.057149029E1
2.528048178E0,-3.158525825E-1,4.350151539E0,1.114337540E1
2.532803490E0,-1.220339537E-1,4.319045067E0,1.154776192E1
2.537558803E0,5.264209956E-2,4.240081787E0,1.188754272E1
2.542314115E0,2.488535494E-1,4.151547432E0,1.207179070E1
2.547069428E0,3.828516304E-1,4.036691666E0,1.210050392E1
2.551824740E0,4.378865361E-1,3.890729666E0,1.194975662E1
2.556580053E0,4.689932466E-1,3.737588882E0,1.162672520E1
2.561335365E0,4.833501875E-1,3.610769272E0,1.121994495E1
2.566090678E0,4.737788737E-1,3.443271875E0,1.073180962E1
2.570846042E0,4.689932466E-1,3.273381472E0,1.026520920E1
2.575601355E0,4.450650215E-1,3.115455151E0,9.844072342E0
2.580356667E0,4.139583111E-1,2.955136061E0,9.444471359E0
2.585111980E0,3.708875179E-1,2.885744095E0,9.068798065E0
2.589867292E0,2.799602449E-1,2.861815929E0,8.736195564E0
2.594622605E0,1.387837082E-1,2.907279491E0,8.475378036E0
2.599377917E0,-2.632104978E-2,3.007778168E0,8.279166222E0
2.604133230E0,-2.560320199E-1,3.117847919E0,8.126026154E0
2.608888542E0,-4.474578202E-1,3.220739365E0,8.047062874E0
2.613643855E0,-6.269195080E-1,3.297309637E0,8.013563156E0
2.618399167E0,-8.303094506E-1,3.395415306E0,8.049455643E0
2.623154480E0,-1.043270707E0,3.462414265E0,8.159524918E0
2.627909792E0,-1.172483087E0,3.522234917E0,8.329415321E0
2.632665157E0,-1.311266780E0,3.565305710E0,8.463413239E0
2.637420469E0,-1.397408366E0,3.605983734E0,8.628518105E0
2.642175782E0,-1.452443361E0,3.637090445E0,8.776873589E0
2.646931094E0,-1.476371527E0,3.720839262E0,8.958727837E0
2.651686407E0,-1.433300734E0,3.795016766E0,9.128618240E0
2.656441719E0,-1.440479279E0,3.897907972E0,9.334401131E0
2.661197032E0,-1.433300734E0,3.950550079E0,9.501898766E0
2.665952344E0,-1.378265858E0,4.000799656E0,9.655039787E0
2.670707657E0,-1.342373490E0,4.043870449E0,9.760323524E0
2.675462969E0,-1.304088354E0,4.063013077E0,9.891928673E0
2.680218282E0,-1.270588875E0,4.031906128E0,9.994820595E0
2.684973594E0,-1.208375454E0,3.984049797E0,1.010249710E1
2.689728907E0,-1.138983607E0,3.945764542E0,1.019103146E1
2.694484271E0,-1.031306505E0,3.864408493E0,1.019820976E1
2.699239584E0,-9.427721500E-1,3.814159393E0,1.014078236E1
2.703994896E0,-8.327022791E-1,3.684946775E0,9.990034103E0
2.708750209E0,-7.274180651E-1,3.613162279E0,9.817750931E0
2.713505521E0,-6.197410822E-1,3.512663603E0,9.585647583E0
2.718260834E0,-5.240281820E-1,3.450450182E0,9.315258980E0
2.723016146E0,-4.522434771E-1,3.397808075E0,9.054440498E0
2.727771459E0,-3.469592929E-1,3.352344513E0,8.822337151E0
2.732526771E0,-2.895315289E-1,3.333201885E0,8.580661774E0
2.737282084E0,-2.321037948E-1,3.297309637E0,8.365307808E0
2.742037396E0,-1.818545163E-1,3.259024382E0,8.178668022E0
2.746792709E0,-1.698904037E-1,3.230310678E0,7.980063438E0
2.751548021E0,-1.268195957E-1,3.206382275E0,7.865208149E0
2.756303334E0,-1.172483116E-1,3.192025423E0,7.783852100E0
2.761058698E0,-1.124626622E-1,3.201596737E0,7.707281590E0
2.765814011E0,-4.307080805E-2,3.227917671E0,7.688138962E0
2.770569323E0,1.435693540E-2,3.263810158E0,7.704888821E0
2.775324636E0,5.024927482E-2,3.323630571E0,7.776673794E0
2.780079948E0,5.024927482E-2,3.378665686E0,7.941778183E0
2.784835261E0,3.589234129E-2,3.493520975E0,8.219346046E0
2.789590573E0,-5.024927482E-2,3.582055569E0,8.544769287E0
2.794345886E0,-1.004985496E-1,3.672982693E0,8.908478737E0
2.799101198E0,-1.794617027E-1,3.749552965E0,9.274580956E0
2.803856511E0,-2.153540403E-1,3.847658873E0,9.578469276E0
2.808611823E0,-2.153540403E-1,3.888336897E0,9.815358162E0
2.813367136E0,-1.794617027E-1,3.929014683E0,9.985248566E0
2.818122448E0,-1.531406492E-1,3.964907169E0,1.011924744E1
2.822877761E0,-1.100698411E-1,3.938585997E0,1.024606609E1
2.827633073E0,-7.178468257E-2,3.862015724E0,1.039442158E1
2.832388386E0,-5.264209956E-2,3.852444410E0,1.051406288E1
2.837143751E0,-4.546362907E-2,3.850051641E0,1.059781170E1
2.841899063E0,-6.939185411E-2,3.842873096E0,1.058584690E1
2.846654376E0,-9.092725813E-2,3.830909014E0,1.054756260E1
2.851409688E0,-1.459621787E-1,3.780659676E0,1.046620655E1
2.856165001E0,-2.057827413E-1,3.718446493E0,1.031785107E1
2.860920313E0,-2.273181528E-1,3.610769272E0,1.014556789E1
2.865675626E0,-1.555334777E-1,3.491128206E0,9.918250084E0
2.870430938E0,-8.614161611E-2,3.364308596E0,9.671789169E0
2.875186251E0,-2.153540403E-2,3.218346357E0,9.418149948E0
2.879941563E0,-3.110669367E-2,3.132204771E0,9.147761345E0
2.884696876E0,-6.939185411E-2,3.038884640E0,8.853444099E0
2.889452188E0,-1.124626622E-1,2.964707375E0,8.547162056E0
2.894207501E0,-1.435693651E-1,2.907279491E0,8.238488197E0
2.898962813E0,-1.986042857E-1,2.880958557E0,7.898707390E0
2.903718126E0,-2.512463629E-1,2.907279491E0,7.633104324E0
2.908473438E0,-3.158525825E-1,2.950350285E0,7.453642368E0
2.913228803E0,-3.445664644E-1,3.053241730E0,7.389036179E0
2.917984115E0,-3.828516304E-1,3.153740168E0,7.467999458E0
2.922739428E0,-4.091726840E-1,3.244667530E0,7.712067604E0
2.927494740E0,-4.259224236E-1,3.357130051E0,8.104490280E0
2.932250053E0,-4.594219327E-1,3.476771355E0,8.528019905E0
2.937005365E0,-4.881358147E-1,3.613162279E0,8.965906143E0
2.941760678E0,-5.024927258E-1,3.692125320E0,9.358329773E0
2.946515990E0,-5.455635786E-1,3.739981890E0,9.698110580E0
2.951271303E0,-5.096712112E-1,3.771088600E0,1.000678444E1
2.956026615E0,-4.713860750E-1,3.809373617E0,1.032742214E1
2.960781928E0,-4.402793646E-1,3.876372576E0,1.066481018E1
2.965537240E0,-4.139583111E-1,3.917050600E0,1.102134132E1
2.970292553E0,-3.469592929E-1,3.955335855E0,1.129172993E1
2.975047865E0,-3.206382394E-1,3.950550079E0,1.147358418E1
2.979803178E0,-3.302095234E-1,3.905086517E0,1.150469112E1
2.984558490E0,-3.900300860E-1,3.847658873E0,1.138026428E1
2.989313803E0,-4.618147612E-1,3.795016766E0,1.110030460E1
2.994069115E0,-5.575276613E-1,3.723232031E0,1.070309544E1
2.998824428E0,-5.910272002E-1,3.639483213E0,1.026520920E1
3.003579792E0,-5.910272002E-1,3.572484255E0,9.870393753E0
3.008335105E0,-5.479564071E-1,3.519842148E0,9.439684868E0
3.013090417E0,-5.144568682E-1,3.397808075E0,9.049654961E0
3.017845730E0,-5.288137794E-1,3.335594654E0,8.642875671E0
3.022601042E0,-5.503492355E-1,3.297309637E0,8.216953278E0
3.027356355E0,-5.790630579E-1,3.292523861E0,7.858029366E0
3.032111667E0,-6.364908218E-1,3.304488182E0,7.585247993E0
3.036866980E0,-6.915257573E-1,3.361915827E0,7.386643410E0
3.041622292E0,-7.513462901E-1,3.476771355E0,7.288537979E0
3.046377605E0,-8.398807645E-1,3.572484255E0,7.290930748E0
3.051132917E0,-9.355936646E-1,3.699303865E0,7.422535896E0
3.055888230E0,-1.038485050E0,3.881158352E0,7.613961697E0
3.060643542E0,-1.141376376E0,4.024727821E0,7.898707390E0
3.065398855E0,-1.256231904E0,4.170690060E0,8.190631866E0
3.070154167E0,-1.287338614E0,4.311866283E0,8.539983749E0
3.074909480E0,-1.232303619E0,4.484149456E0,8.896514893E0
3.079664792E0,-1.170090318E0,4.491328239E0,9.202795982E0
3.084420105E0,-1.088734269E0,4.491328239E0,9.425328255E0
3.089175417E0,-1.093519926E0,4.572684288E0,9.726823807E0
3.093930782E0,-9.355936646E-1,4.599005222E0,9.925428391E0
3.098686094E0,-7.441678643E-1,4.560719967E0,1.011206818E1
3.103441407E0,-6.293123364E-1,4.512863636E0,1.027478027E1
3.108196719E0,-5.096712112E-1,4.431507587E0,1.039920712E1
3.112952032E0,-3.780659735E-1,4.364508629E0,1.047099209E1
3.117707344E0,-2.560320199E-1,4.235296249E0,1.049013424E1
3.122462657E0,-1.483550072E-1,4.158725739E0,1.046381378E1
3.127217969E0,-5.024927482E-2,4.036691666E0,1.036331463E1
3.131973282E0,2.392822690E-2,3.943371773E0,1.021974564E1
3.136728594E0,5.742774159E-2,3.838087559E0,1.004028416E1
3.141483907E0,1.196411327E-1,3.766302824E0,9.820143700E0
3.146239219E0,1.004985496E-1,3.682554007E0,9.600004196E0
3.150994532E0,1.148554832E-1,3.608376503E0,9.425328255E0
3.155749844E0,1.100698411E-1,3.529413462E0,9.276973724E0
3.160505157E0,1.363908947E-1,3.476771355E0,9.214759827E0
3.165260469E0,1.148554832E-1,3.419343472E0,9.205188751E0
3.170015782E0,1.220339537E-1,3.373879910E0,9.207581520E0
3.174771094E0,1.076770201E-1,3.345165968E0,9.212367058E0
3.179526407E0,6.221338734E-2,3.330809116E0,9.193224907E0
3.184281719E0,1.196411345E-2,3.323630571E0,9.164510727E0
3.189037032E0,-3.110669367E-2,3.280559778E0,9.075976372E0
3.193792344E0,-1.124626622E-1,3.275774240E0,9.008976936E0
3.198547657E0,-1.818545163E-1,3.268595695E0,8.956335068E0
3.203303021E0,-2.225325108E-1,3.247060299E0,8.927620888E0
3.208058334E0,-2.344966233E-1,3.251846075E0,8.958727837E0
3.212813646E0,-2.464607358E-1,3.249453068E0,8.989834785E0
3.217568959E0,-2.919243574E-1,3.242274761E0,9.068798065E0
3.222324271E0,-3.589234054E-1,3.256631613E0,9.066405296E0
3.227079584E0,-3.852444589E-1,3.294916868E0,9.047262192E0
3.231834896E0,-4.378865361E-1,3.321237803E0,8.944371223E0
3.236590209E0,-5.048855543E-1,3.357130051E0,8.812766075E0
3.241345521E0,-5.551348329E-1,3.416950703E0,8.721838951E0
3.246100834E0,-6.221339107E-1,3.460021496E0,8.662017822E0
3.250856146E0,-6.723831892E-1,3.517449379E0,8.659625053E0
3.255611459E0,-7.010970116E-1,3.570091486E0,8.724231720E0
3.260366771E0,-7.393822074E-1,3.620340586E0,8.796015739E0
3.265122084E0,-7.824530005E-1,3.699303865E0,8.858229637E0
3.269877396E0,-8.350951076E-1,3.775874138E0,8.913264275E0
3.274632709E0,-8.685946465E-1,3.833301783E0,8.963513374E0
3.279388021E0,-9.140582681E-1,3.900300980E0,9.037691116E0
3.284143334E0,-9.332008362E-1,4.019941807E0,9.126225471E0
3.288898646E0,-9.882357717E-1,4.127619267E0,9.238688469E0
3.293653959E0,-9.810572863E-1,4.216153622E0,9.389435768E0
3.298409271E0,-9.738788009E-1,4.333401680E0,9.595218658E0
3.303164584E0,-9.667003751E-1,4.388436794E0,9.889535904E0
3.307919896E0,-9.954141974E-1,4.465006828E0,1.015513897E1
3.312675209E0,-9.643075466E-1,4.476971149E0,1.037767220E1
3.317430521E0,-8.853443861E-1,4.484149456E0,1.047577763E1
3.322185834E0,-7.800601721E-1,4.426722050E0,1.050688457E1
3.326941146E0,-6.580262184E-1,4.323830605E0,1.038006496E1
3.331696459E0,-5.264210105E-1,4.201796532E0,1.017906761E1
3.336451771E0,-3.948157430E-1,4.086941242E0,9.932606697E0
3.341207084E0,-2.464607358E-1,3.957728624E0,9.693324089E0
3.345962396E0,-1.244267747E-1,3.864408493E0,9.485149384E0
3.350717709E0,-2.871387079E-2,3.790230989E0,9.260223389E0
3.355473073E0,4.546362907E-2,3.704089403E0,9.064012527E0
3.360228334E0,1.148554832E-1,3.641875982E0,8.846264839E0
3.364983698E0,1.842473447E-1,3.591626883E0,8.618947029E0
3.369739011E0,1.962114573E-1,3.567698479E0,8.429914474E0
3.374494323E0,2.488535494E-1,3.529413462E0,8.245666504E0
3.379249636E0,2.584248483E-1,3.467200041E0,8.073383331E0
3.384004948E0,2.895315289E-1,3.443271875E0,7.946564198E0
3.388760261E0,3.110669553E-1,3.409772158E0,7.891529083E0
3.393515573E0,2.823530734E-1,3.390629768E0,7.898707390E0
3.398270886E0,1.674975902E-1,3.436093330E0,7.989634991E0
3.403026198E0,4.785645381E-2,3.488735437E0,8.140382767E0
3.407781511E0,-8.374879509E-2,3.550948858E0,8.341380119E0
3.412536823E0,-2.321037948E-1,3.663411379E0,8.568697929E0
3.417292136E0,-3.493520916E-1,3.744767427E0,8.779266357E0
3.422047448E0,-4.546363056E-1,3.818944931E0,8.953942299E0
3.426802761E0,-6.029912829E-1,3.907479286E0,9.111868858E0
3.431558073E0,-6.747759581E-1,3.962514400E0,9.267401695E0
3.436313386E0,-7.322037220E-1,4.043870449E0,9.420542717E0
3.441068698E0,-8.111668825E-1,4.110869408E0,9.602396965E0
3.445824011E0,-8.805587292E-1,4.141975880E0,9.834501266E0
3.450579323E0,-9.188438654E-1,4.187439442E0,1.007139015E1
3.455334636E0,-9.690931439E-1,4.206582069E0,1.031306553E1
3.460089948E0,-9.786644578E-1,4.213760853E0,1.048534870E1
3.464845261E0,-9.667003751E-1,4.163511276E0,1.055713367E1
3.469600573E0,-9.667003751E-1,4.053441525E0,1.051645565E1
3.474355886E0,-9.523434043E-1,3.924229145E0,1.038245773E1
3.479111198E0,-9.451649189E-1,3.792623997E0,1.013121128E1
3.483866511E0,-9.379864931E-1,3.668197155E0,9.820143700E0
3.488621823E0,-9.355936646E-1,3.560520172E0,9.444471359E0
3.493377136E0,-9.020941257E-1,3.443271875E0,9.121439934E0
3.498132448E0,-9.044869542E-1,3.371487141E0,8.841479301E0
3.502887761E0,-8.925228715E-1,3.352344513E0,8.585447311E0
3.507643073E0,-9.212366939E-1,3.345165968E0,8.382058144E0
3.512398386E0,-9.355936646E-1,3.366701365E0,8.260024071E0
3.517153698E0,-9.451649189E-1,3.395415306E0,8.164310455E0
3.521909011E0,-9.714859724E-1,3.407379389E0,8.114061356E0
3.526664323E0,-9.643075466E-1,3.409772158E0,8.068597794E0
3.531419636E0,-9.308080077E-1,3.416950703E0,8.011170387E0
3.536174948E0,-8.853443861E-1,3.448057413E0,7.968099594E0
3.540930261E0,-8.590233326E-1,3.505485058E0,7.960920811E0
3.545685573E0,-8.398807645E-1,3.594019651E0,8.018348694E0
3.550440886E0,-8.183453679E-1,3.689732552E0,8.173882484E0
3.555196198E0,-8.159525394E-1,3.816552162E0,8.456234932E0
3.559951511E0,-7.968099117E-1,3.984049797E0,8.853444099E0
3.564706823E0,-7.776673436E-1,4.106083870E0,9.363115311E0
3.569462136E0,-7.657032609E-1,4.213760853E0,9.824930191E0
3.574217448E0,-7.465606928E-1,4.268795490E0,1.021496010E1
3.578972761E0,-5.814558864E-1,4.285545349E0,1.048295593E1
3.583728073E0,-3.996013701E-1,4.249652863E0,1.062891865E1
3.588483386E0,-2.368894368E-1,4.141975880E0,1.058824062E1
3.593238698E0,-7.417750359E-2,3.952943087E0,1.033220863E1
3.597994011E0,3.110669367E-2,3.761517286E0,9.920642853E0
3.602749323E0,1.292124242E-1,3.589233875E0,9.456435204E0
3.607504636E0,2.297109663E-1,3.452843189E0,8.997013092E0
3.612259948E0,3.254238665E-1,3.397808075E0,8.595019341E0
3.617015261E0,3.828516304E-1,3.352344513E0,8.260024071E0
3.621770573E0,3.876372576E-1,3.330809116E0,7.936992645E0
3.626525886E0,3.852444589E-1,3.385843992E0,7.716853142E0
3.631281198E0,3.852444589E-1,3.443271875E0,7.527820110E0
3.636036511E0,3.541377485E-1,3.529413462E0,7.417750359E0
3.640791823E0,3.182454109E-1,3.634697676E0,7.434499741E0
3.645547136E0,2.584248483E-1,3.718446493E0,7.477570534E0
3.650302448E0,2.057827413E-1,3.799802303E0,7.580461979E0
3.655057761E0,1.483550072E-1,3.866801500E0,7.704888821E0
3.659813073E0,7.657032460E-2,3.945764542E0,7.872386456E0
3.664568386E0,-7.178467698E-3,4.022335052E0,8.068597794E0
3.669323698E0,-7.896314561E-2,4.091726780E0,8.303094864E0
3.674079011E0,-1.794617027E-1,4.163511276E0,8.530412674E0
3.678834323E0,-2.703889608E-1,4.252045631E0,8.738588333E0
3.683589636E0,-3.493520916E-1,4.352544308E0,8.915657043E0
3.688344948E0,-4.043870270E-1,4.405186653E0,9.054440498E0
3.693100261E0,-4.139583111E-1,4.450650215E0,9.145368576E0
3.697855573E0,-4.354937077E-1,4.491328239E0,9.286544800E0
3.702610886E0,-4.905286431E-1,4.560719967E0,9.451649666E0
3.707366198E0,-5.718846321E-1,4.613361835E0,9.647860527E0
3.712121511E0,-6.053841114E-1,4.651647091E0,9.896714211E0
3.716876823E0,-6.843472719E-1,4.685146809E0,1.010967541E1
3.721632136E0,-7.513462901E-1,4.692325115E0,1.029153061E1
3.726387448E0,-7.968099117E-1,4.634897232E0,1.040399265E1
3.731142761E0,-8.470591903E-1,4.584648132E0,1.035852909E1
3.735898073E0,-8.805587292E-1,4.462614059E0,1.019581699E1
3.740653386E0,-8.853443861E-1,4.352544308E0,9.930213928E0
3.745408698E0,-9.140582681E-1,4.240081787E0,9.631111145E0
3.750164011E0,-9.044869542E-1,4.132404804E0,9.327222824E0
3.754919323E0,-9.355936646E-1,4.055834293E0,9.078369141E0
3.759674636E0,-9.260223508E-1,4.022335052E0,8.920442581E0
3.764429948E0,-9.523434043E-1,4.007977962E0,8.807980537E0
3.769185261E0,-9.834501147E-1,3.981656790E0,8.796015739E0
3.773940573E0,-1.012163997E0,3.940979004E0,8.807980537E0
3.778695886E0,-1.040877819E0,3.914657831E0,8.848658562E0
3.783451198E0,-9.954141974E-1,3.862015724E0,8.843872070E0
3.788206511E0,-9.762716293E-1,3.795016766E0,8.788837433E0
3.792961823E0,-9.499505758E-1,3.701696634E0,8.712266922E0
3.797717136E0,-9.068797827E-1,3.622733593E0,8.609375954E0
3.802472448E0,-8.733802438E-1,3.570091486E0,8.504091263E0
3.807227761E0,-8.614161611E-1,3.529413462E0,8.437092781E0
3.811983073E0,-8.183453679E-1,3.522234917E0,8.386843681E0
3.816738334E0,-8.279166222E-1,3.560520172E0,8.396414757E0
3.821493646E0,-8.542376757E-1,3.601198196E0,8.453842163E0
3.826248959E0,-8.781659007E-1,3.675375462E0,8.535198212E0
3.831004271E0,-9.236295223E-1,3.761517286E0,8.628518105E0
3.835759584E0,-9.499505758E-1,3.873979807E0,8.724231720E0
3.840514896E0,-1.000199914E0,3.957728624E0,8.855836868E0
3.845270209E0,-1.052842021E0,4.065405846E0,8.965906143E0
3.850025521E0,-1.091127157E0,4.127619267E0,9.052047729E0
3.854780834E0,-1.103091240E0,4.168296814E0,9.119047165E0
3.859536146E0,-1.122233868E0,4.237689018E0,9.171689034E0
3.864291459E0,-1.107876897E0,4.256831646E0,9.181260109E0
3.869046771E0,-1.086341500E0,4.290330887E0,9.140582085E0
3.873802084E0,-1.064806104E0,4.299902439E0,9.092725754E0
3.878557396E0,-1.031306505E0,4.323830605E0,9.030512810E0
3.883312709E0,-1.002592683E0,4.350151539E0,8.989834785E0
3.888068021E0,-9.834501147E-1,4.352544308E0,8.963513374E0
3.892823334E0,-1.002592683E0,4.395615101E0,8.925228119E0
3.897578646E0,-1.012163997E0,4.409972191E0,8.889336586E0
3.902333959E0,-9.930213690E-1,4.448257446E0,8.870193481E0
3.907089271E0,-9.954141974E-1,4.455435753E0,8.870193481E0
3.911844584E0,-9.786644578E-1,4.472185612E0,8.918049812E0
3.916599896E0,-9.906286001E-1,4.474578381E0,9.035298347E0
3.921355209E0,-9.738788009E-1,4.491328239E0,9.116654396E0
3.926110521E0,-9.547362328E-1,4.476971149E0,9.214759827E0
3.930865834E0,-9.236295223E-1,4.445864677E0,9.260223389E0
3.935621146E0,-8.997012973E-1,4.409972191E0,9.281759262E0
3.940376459E0,-8.757730722E-1,4.357329845E0,9.243474007E0
3.945131771E0,-7.920243144E-1,4.307080746E0,9.176474571E0
3.949887084E0,-7.465606928E-1,4.254438877E0,9.092725754E0
3.954642396E0,-6.699903607E-1,4.168296814E0,8.977870941E0
3.959397657E0,-6.101697683E-1,4.089334011E0,8.848658562E0
3.964152969E0,-5.766702294E-1,4.019941807E0,8.707481384E0
3.968908282E0,-5.623133183E-1,3.964907169E0,8.559126854E0
3.973663594E0,-5.886343718E-1,3.917050600E0,8.465806961E0
3.978418907E0,-5.910272002E-1,3.912265062E0,8.417949677E0
3.983174219E0,-6.005984545E-1,3.909872293E0,8.451449394E0
3.987929532E0,-6.101697683E-1,3.921836376E0,8.520841599E0
3.992684844E0,-6.317051649E-1,3.905086517E0,8.599804878E0
3.997440157E0,-6.436693072E-1,3.921836376E0,8.669196129E0
4.002195469E0,-6.101697683E-1,3.933800459E0,8.733802795E0
4.006950782E0,-6.388836503E-1,3.909872293E0,8.764909744E0
4.011706094E0,-6.269195080E-1,3.943371773E0,8.800801277E0
4.016461407E0,-5.886343718E-1,3.945764542E0,8.843872070E0
4.021216719E0,-5.168496966E-1,3.962514400E0,8.918049812E0
4.025972032E0,-4.402793646E-1,3.964907169E0,8.973084450E0
4.030727344E0,-3.684946895E-1,4.024727821E0,9.023334503E0
4.035482657E0,-3.469592929E-1,4.089334011E0,9.095118523E0
4.040237969E0,-3.230310678E-1,4.185046673E0,9.198010445E0
4.044993282E0,-3.421736360E-1,4.290330887E0,9.351150513E0
4.049748594E0,-3.780659735E-1,4.381258488E0,9.511469841E0
4.054503907E0,-4.211367965E-1,4.484149456E0,9.681360245E0
4.059259219E0,-4.929214716E-1,4.539184570E0,9.872786522E0
4.064014480E0,-5.216353536E-1,4.610969067E0,9.990034103E0
4.068769792E0,-5.359922647E-1,4.634897232E0,1.012642574E1
4.073525105E0,-5.934200287E-1,4.644468784E0,1.025563812E1
4.078280417E0,-6.053841114E-1,4.615755081E0,1.032263660E1
4.083035730E0,-6.101697683E-1,4.572684288E0,1.029392338E1
4.087791042E0,-6.245267391E-1,4.500899315E0,1.017428207E1
4.092546355E0,-6.508477330E-1,4.429114819E0,1.004028416E1
4.097301667E0,-6.604190469E-1,4.331008911E0,9.908679008E0
4.102056980E0,-6.915257573E-1,4.252045631E0,9.757930756E0
4.106812292E0,-7.178468108E-1,4.216153622E0,9.635896683E0
4.111567605E0,-7.633104324E-1,4.165904045E0,9.535398483E0
4.116322917E0,-8.087740541E-1,4.168296814E0,9.401400566E0
4.121078230E0,-8.470591903E-1,4.139583111E0,9.260223389E0
4.125833542E0,-8.853443861E-1,4.084548473E0,9.064012527E0
4.130588855E0,-8.709874153E-1,4.051048756E0,8.841479301E0
4.135344167E0,-8.757730722E-1,4.027120590E0,8.614161491E0
4.140099480E0,-8.590233326E-1,3.988835335E0,8.429914474E0
4.144854740E0,-8.422735929E-1,3.984049797E0,8.329415321E0
4.149610053E0,-8.303094506E-1,3.979264021E0,8.267202377E0
4.154365365E0,-7.848458290E-1,4.036691666E0,8.209774017E0
4.159120678E0,-7.489534616E-1,4.103690624E0,8.243273735E0
4.163875990E0,-7.417750359E-1,4.146761417E0,8.295916557E0
4.168631303E0,-6.963114142E-1,4.177868366E0,8.394021988E0
4.173386615E0,-6.628118753E-1,4.208974838E0,8.480163574E0
4.178141928E0,-6.005984545E-1,4.206582069E0,8.559126854E0
4.182897240E0,-5.216353536E-1,4.187439442E0,8.595019341E0
4.187652553E0,-4.570291340E-1,4.161118507E0,8.616554260E0
4.192407865E0,-4.043870270E-1,4.144368649E0,8.575876236E0
4.197163178E0,-3.637090325E-1,4.108476639E0,8.563912392E0
4.201918490E0,-3.804588020E-1,4.151547432E0,8.568697929E0
4.206673803E0,-4.115654826E-1,4.163511276E0,8.638090134E0
4.211429115E0,-4.953143001E-1,4.225724697E0,8.752944946E0
4.216184428E0,-5.551348329E-1,4.323830605E0,8.908478737E0
4.220939688E0,-6.125625968E-1,4.417150497E0,9.095118523E0
4.225695001E0,-6.580262184E-1,4.498506546E0,9.300901413E0
4.230450313E0,-6.891329288E-1,4.601397991E0,9.456435204E0
4.235205626E0,-7.178468108E-1,4.630111694E0,9.616754532E0
4.239960938E0,-7.393822074E-1,4.634897232E0,9.791430473E0
4.244716251E0,-7.704889178E-1,4.627718925E0,9.946963310E0
4.249471563E0,-8.135597110E-1,4.615755081E0,1.009053326E1
4.254226876E0,-8.231309652E-1,4.584648132E0,1.017906761E1
4.258982188E0,-8.662018180E-1,4.524827480E0,1.024845982E1
4.263737501E0,-8.973084688E-1,4.421936035E0,1.020538902E1
4.268492813E0,-8.997012973E-1,4.352544308E0,1.011924744E1
4.273248126E0,-8.973084688E-1,4.177868366E0,9.954142570E0
4.278003438E0,-8.590233326E-1,4.046263218E0,9.753145218E0
4.282758698E0,-8.279166222E-1,3.893122435E0,9.544969559E0
4.287514011E0,-7.824530005E-1,3.737588882E0,9.296115875E0
4.292269323E0,-7.417750359E-1,3.574877024E0,9.052047729E0
4.297024636E0,-6.819544435E-1,3.440878868E0,8.767302513E0
4.301779948E0,-6.484549642E-1,3.302095175E0,8.465806961E0
4.306535261E0,-6.077769399E-1,3.182454109E0,8.224131584E0
4.311290573E0,-5.527420044E-1,3.072384357E0,8.015955925E0
4.316045886E0,-5.647061467E-1,2.993421078E0,7.843672752E0
4.320801198E0,-5.862415433E-1,2.957528830E0,7.635497093E0
4.325556511E0,-6.340979934E-1,2.947957516E0,7.479963779E0
4.330311823E0,-7.058826685E-1,3.005385160E0,7.369893551E0
4.335067136E0,-8.159525394E-1,3.098705292E0,7.334001541E0
4.339822396E0,-9.188438654E-1,3.251846075E0,7.439285755E0
4.344577709E0,-1.016949654E0,3.428914785E0,7.695317745E0
4.349333021E0,-1.081555843E0,3.646661758E0,8.118846893E0
4.354088334E0,-1.127019525E0,3.828516245E0,8.647661209E0
4.358843646E0,-1.167697430E0,4.012763500E0,9.188439369E0
4.363598959E0,-1.148554921E0,4.197010994E0,9.681360245E0
4.368354271E0,-1.112662554E0,4.350151539E0,1.012881851E1
4.373109584E0,-1.067198873E0,4.476971149E0,1.057627583E1
4.377864896E0,-9.810572863E-1,4.553541660E0,1.099741268E1
4.382620209E0,-7.968099117E-1,4.515256405E0,1.133480072E1
4.387375521E0,-6.484549642E-1,4.469792843E0,1.156211948E1
4.392130834E0,-5.240281820E-1,4.359723091E0,1.163629627E1
4.396886094E0,-4.450650215E-1,4.237689018E0,1.155015469E1
4.401641407E0,-3.852444589E-1,4.115654945E0,1.130369377E1
4.406396719E0,-3.493520916E-1,4.000799656E0,1.086580753E1
4.411152032E0,-3.278166950E-1,3.933800459E0,1.032024384E1
4.415907344E0,-2.608176768E-1,3.833301783E0,9.784252167E0
4.420662657E0,-1.962114573E-1,3.711267948E0,9.257830620E0
4.425417969E0,-1.914258152E-1,3.598805189E0,8.784051895E0
4.430173282E0,-1.938186288E-1,3.505485058E0,8.367700577E0
4.434928594E0,-2.129612118E-1,3.452843189E0,7.984848976E0
4.439683855E0,-2.847459018E-1,3.407379389E0,7.652246952E0
4.444439167E0,-3.493520916E-1,3.433700562E0,7.377072334E0
4.449194480E0,-3.948157430E-1,3.450450182E0,7.118647575E0
4.453949792E0,-4.474578202E-1,3.503092289E0,6.908079147E0
4.458705105E0,-4.977070987E-1,3.536591768E0,6.704689026E0
4.463460417E0,-5.527420044E-1,3.579662561E0,6.549155712E0
4.468215730E0,-5.958128572E-1,3.646661758E0,6.453442574E0
4.472971042E0,-6.628118753E-1,3.759124279E0,6.470192432E0
4.477726355E0,-7.322037220E-1,3.905086517E0,6.606583118E0
4.482481667E0,-8.111668825E-1,4.106083870E0,6.924828529E0
4.487236980E0,-8.781659007E-1,4.345366001E0,7.420143127E0
4.491992240E0,-9.355936646E-1,4.601397991E0,8.044670105E0
4.496747553E0,-9.930213690E-1,4.802394867E0,8.657232285E0
4.501502865E0,-9.643075466E-1,4.957928658E0,9.221938133E0
4.506258178E0,-9.595218897E-1,5.072783947E0,9.753145218E0
4.511013490E0,-9.044869542E-1,5.127819061E0,1.029392338E1
4.515768803E0,-8.350951076E-1,5.115854740E0,1.090170002E1
4.520524115E0,-7.465606928E-1,5.046463013E0,1.139940739E1
4.525279428E0,-6.604190469E-1,4.941178799E0,1.180857944E1
4.530034688E0,-5.718846321E-1,4.795216560E0,1.209093285E1
4.534790001E0,-5.096712112E-1,4.606183529E0,1.223689461E1
4.539545313E0,-4.689932466E-1,4.445864677E0,1.224885941E1
4.544300626E0,-4.785645306E-1,4.292723656E0,1.211246777E1
4.549055938E0,-5.240281820E-1,4.139583111E0,1.186600780E1
4.553811251E0,-5.766702294E-1,3.988835335E0,1.149033451E1
4.558566563E0,-6.293123364E-1,3.840480328E0,1.100219822E1
4.563321876E0,-7.178468108E-1,3.708875179E0,1.043988514E1
4.568077188E0,-7.848458290E-1,3.591626883E0,9.865608215E0
4.572832448E0,-8.279166222E-1,3.495913982E0,9.322437286E0
4.577587761E0,-8.853443861E-1,3.395415306E0,8.791230202E0
4.582343073E0,-9.236295223E-1,3.311666489E0,8.224131584E0
4.587098386E0,-1.009771109E0,3.237488985E0,7.680960655E0
4.591853698E0,-1.057627559E0,3.189632654E0,7.219145775E0
4.596609011E0,-1.076770186E0,3.194418192E0,6.848258495E0
4.601364323E0,-1.136590719E0,3.223132133E0,6.573083878E0
4.606119636E0,-1.172483087E0,3.297309637E0,6.374479294E0
4.610874948E0,-1.215553880E0,3.373879910E0,6.290730953E0
4.615630209E0,-1.217946768E0,3.486342669E0,6.343372822E0
4.620385521E0,-1.203589797E0,3.632304668E0,6.513263226E0
4.625140834E0,-1.165304661E0,3.790230989E0,6.817151546E0
4.629896146E0,-1.150947690E0,3.974478483E0,7.216753006E0
4.634651459E0,-1.112662554E0,4.139583111E0,7.678567886E0
4.639406771E0,-1.043270707E0,4.304687977E0,8.126026154E0
4.644162084E0,-9.547362328E-1,4.436293125E0,8.549555779E0
4.648917396E0,-8.303094506E-1,4.541577339E0,8.908478737E0
4.653672657E0,-6.628118753E-1,4.606183529E0,9.276973724E0
4.658427969E0,-4.881358147E-1,4.649254322E0,9.650253296E0
4.663183282E0,-3.158525825E-1,4.694717884E0,1.004028416E1
4.667938594E0,-1.842473447E-1,4.699503899E0,1.038485050E1
4.672693907E0,-1.172483116E-1,4.706682205E0,1.073898792E1
4.677449219E0,-5.024927482E-2,4.692325115E0,1.101655579E1
4.682204532E0,-1.674975827E-2,4.666004181E0,1.115533924E1
4.686959792E0,4.785645381E-2,4.615755081E0,1.116251755E1
4.691715105E0,3.828516230E-2,4.570291042E0,1.104526901E1
4.696470417E0,2.153540403E-2,4.488935471E0,1.083470058E1
4.701225730E0,-7.178467698E-3,4.362115860E0,1.052124119E1
4.705981042E0,-3.828516230E-2,4.237689018E0,1.011685371E1
4.710736355E0,-2.871387079E-2,4.086941242E0,9.655039787E0
4.715491667E0,-6.460621208E-2,3.964907169E0,9.200403214E0
4.720246980E0,-1.411765367E-1,3.864408493E0,8.803194046E0
4.725002240E0,-2.033899277E-1,3.773481369E0,8.382058144E0
4.729757553E0,-3.014956415E-1,3.706482172E0,7.968099594E0
4.734512865E0,-3.900300860E-1,3.672982693E0,7.604390144E0
4.739268178E0,-4.642075896E-1,3.656233072E0,7.317251682E0
4.744023490E0,-5.694918036E-1,3.687339783E0,7.109076023E0
4.748778803E0,-6.939185858E-1,3.711267948E0,7.063612461E0
4.753534115E0,-7.944171429E-1,3.785445452E0,7.121040344E0
4.758289428E0,-8.709874153E-1,3.866801500E0,7.341179848E0
4.763044688E0,-9.475577474E-1,3.943371773E0,7.601997375E0
4.767800001E0,-9.858429432E-1,4.000799656E0,7.925028801E0
4.772555313E0,-1.012163997E0,4.031906128E0,8.257631302E0
4.777310626E0,-1.055234790E0,4.063013077E0,8.542376518E0
4.782065938E0,-1.086341500E0,4.115654945E0,8.843872070E0
4.786821251E0,-1.122233868E0,4.130012035E0,9.152546883E0
4.791576563E0,-1.138983607E0,4.163511276E0,9.432506561E0
4.796331823E0,-1.103091240E0,4.175475597E0,9.729216576E0
4.801087136E0,-1.079162955E0,4.177868366E0,9.999606133E0
4.805842448E0,-1.024128079E0,4.204189301E0,1.019103146E1
4.810597761E0,-9.451649189E-1,4.206582069E0,1.034656525E1
4.815353073E0,-8.662018180E-1,4.192225456E0,1.038724327E1
4.820108386E0,-8.470591903E-1,4.177868366E0,1.042313576E1
4.824863646E0,-8.255237937E-1,4.161118507E0,1.040877819E1
4.829618959E0,-8.183453679E-1,4.106083870E0,1.030827999E1
4.834374271E0,-7.800601721E-1,4.058227062E0,1.016231823E1
4.839129584E0,-7.633104324E-1,3.969692707E0,9.918250084E0
4.843884896E0,-7.250252366E-1,3.905086517E0,9.580862045E0
4.848640209E0,-7.322037220E-1,3.857230186E0,9.224330902E0
4.853395521E0,-7.441678643E-1,3.816552162E0,8.855836868E0
4.858150782E0,-7.585247755E-1,3.795016766E0,8.571090698E0
4.862906094E0,-7.944171429E-1,3.804588079E0,8.374878883E0
4.867661407E0,-8.518448472E-1,3.795016766E0,8.207381248E0
4.872416719E0,-8.279166222E-1,3.778266907E0,8.111668587E0
4.877172032E0,-8.590233326E-1,3.806980848E0,8.006384850E0
4.881927344E0,-8.997012973E-1,3.828516245E0,7.929814339E0
4.886682605E0,-9.355936646E-1,3.857230186E0,7.903493404E0
4.891437917E0,-9.523434043E-1,3.931407690E0,7.893921852E0
4.896193230E0,-9.906286001E-1,3.967299938E0,7.901100159E0
4.900948542E0,-9.978070259E-1,3.993621111E0,7.927421570E0
4.905703855E0,-9.786644578E-1,4.034298897E0,7.975277901E0
4.910459167E0,-9.571290612E-1,4.058227062E0,8.059026718E0
4.915214480E0,-9.164510965E-1,4.074976921E0,8.188239098E0
4.919969740E0,-8.685946465E-1,4.089334011E0,8.307880402E0
4.924725053E0,-8.398807645E-1,4.113262177E0,8.432307243E0
4.929480365E0,-8.111668825E-1,4.141975880E0,8.602197647E0
4.934235678E0,-8.015955687E-1,4.177868366E0,8.750552177E0
4.938990990E0,-7.992027402E-1,4.237689018E0,8.910871506E0
4.943746303E0,-7.657032609E-1,4.266402721E0,9.030512810E0
4.948501563E0,-7.657032609E-1,4.302295208E0,9.114261627E0
4.953256876E0,-7.633104324E-1,4.297509670E0,9.162117958E0
4.958012188E0,-7.992027402E-1,4.304687977E0,9.186046600E0
4.962767501E0,-8.303094506E-1,4.297509670E0,9.190832138E0
4.967522813E0,-8.398807645E-1,4.292723656E0,9.176474571E0
4.972278126E0,-8.398807645E-1,4.283152580E0,9.171689034E0
4.977033386E0,-8.255237937E-1,4.273581028E0,9.138189316E0
4.981788698E0,-8.327022791E-1,4.271188259E0,9.085547447E0
4.986544011E0,-8.446664214E-1,4.271188259E0,8.985049248E0
4.991299323E0,-8.590233326E-1,4.290330887E0,8.913264275E0
4.996054636E0,-8.709874153E-1,4.311866283E0,8.889336586E0
5.000809896E0,-8.901300430E-1,4.352544308E0,8.915657043E0
5.005565209E0,-8.949156404E-1,4.378865242E0,9.004191399E0
5.010320521E0,-8.685946465E-1,4.386044025E0,9.068798065E0
5.015075834E0,-8.303094506E-1,4.359723091E0,9.126225471E0
5.019831146E0,-7.944171429E-1,4.290330887E0,9.171689034E0
5.024586459E0,-7.920243144E-1,4.247260094E0,9.195617676E0
5.029341719E0,-7.657032609E-1,4.225724697E0,9.195617676E0
5.034097032E0,-7.393822074E-1,4.194618225E0,9.221938133E0
5.038852344E0,-7.034898400E-1,4.185046673E0,9.236295700E0
5.043607657E0,-6.987041831E-1,4.216153622E0,9.281759262E0
5.048362969E0,-6.747759581E-1,4.173082829E0,9.365508080E0
5.053118282E0,-6.652047038E-1,4.149154663E0,9.451649666E0
5.057873542E0,-6.460621357E-1,4.098905087E0,9.506684303E0
5.062628855E0,-6.484549642E-1,4.031906128E0,9.540184021E0
5.067384167E0,-6.436693072E-1,3.981656790E0,9.561718941E0
5.072139480E0,-6.005984545E-1,3.919443607E0,9.525827408E0
5.076894792E0,-5.838487148E-1,3.845266104E0,9.418149948E0
5.081650053E0,-5.742774606E-1,3.773481369E0,9.250652313E0
5.086405365E0,-5.862415433E-1,3.663411379E0,9.068798065E0
5.091160678E0,-5.742774606E-1,3.577269793E0,8.874979019E0
5.095915990E0,-5.742774606E-1,3.507878065E0,8.673981667E0
5.100671303E0,-6.077769399E-1,3.452843189E0,8.513663292E0
5.105426615E0,-5.958128572E-1,3.471985579E0,8.374878883E0
5.110181876E0,-6.317051649E-1,3.491128206E0,8.269595146E0
5.114937188E0,-6.699903607E-1,3.550948858E0,8.221738815E0
5.119692501E0,-7.274180651E-1,3.651447296E0,8.250452042E0
5.124447813E0,-7.968099117E-1,3.742374659E0,8.300702095E0
5.129203126E0,-8.494520187E-1,3.814159393E0,8.370093346E0
5.133958386E0,-9.092726111E-1,3.871587038E0,8.429914474E0
5.138713698E0,-9.260223508E-1,3.926621914E0,8.492127419E0
5.143469011E0,-9.212366939E-1,3.986442566E0,8.556734085E0
5.148224323E0,-9.906286001E-1,4.041477680E0,8.652446747E0
5.152979636E0,-9.786644578E-1,4.115654945E0,8.767302513E0
5.157734896E0,-9.834501147E-1,4.177868366E0,8.891729355E0
5.162490209E0,-9.954141974E-1,4.273581028E0,9.054440498E0
5.167245521E0,-9.738788009E-1,4.345366001E0,9.221938133E0
5.172000834E0,-9.882357717E-1,4.424329281E0,9.372686386E0
5.176756146E0,-9.762716293E-1,4.476971149E0,9.485149384E0
5.181511407E0,-9.906286001E-1,4.486542225E0,9.566504478E0
5.186266719E0,-9.810572863E-1,4.505684853E0,9.628718376E0
5.191022032E0,-9.762716293E-1,4.517649174E0,9.638289452E0
5.195777344E0,-9.355936646E-1,4.508078098E0,9.626325607E0
5.200532657E0,-8.925228715E-1,4.474578381E0,9.561718941E0
5.205287917E0,-8.973084688E-1,4.450650215E0,9.466006279E0
5.210043230E0,-8.494520187E-1,4.414757729E0,9.384650230E0
5.214798542E0,-8.350951076E-1,4.390829563E0,9.260223389E0
5.219553855E0,-8.327022791E-1,4.326223373E0,9.147761345E0
5.224309167E0,-8.398807645E-1,4.292723656E0,9.085547447E0
5.229064480E0,-8.135597110E-1,4.244867325E0,8.989834785E0
5.233819740E0,-7.704889178E-1,4.192225456E0,8.822337151E0
5.238575053E0,-7.489534616E-1,4.134797573E0,8.647661209E0
5.243330365E0,-7.178468108E-1,4.053441525E0,8.513663292E0
5.248085678E0,-6.963114142E-1,3.981656790E0,8.384450912E0
5.252840990E0,-7.489534616E-1,3.936193228E0,8.286344528E0
5.257596251E0,-7.824530005E-1,3.933800459E0,8.250452042E0
5.262351563E0,-8.135597110E-1,3.957728624E0,8.315058708E0
5.267106876E0,-8.398807645E-1,4.000799656E0,8.451449394E0
5.271862188E0,-8.614161611E-1,4.070191383E0,8.604590416E0
5.276617501E0,-8.446664214E-1,4.101297855E0,8.796015739E0
5.281372761E0,-8.159525394E-1,4.110869408E0,8.977870941E0
5.286128073E0,-7.944171429E-1,4.082155228E0,9.135796547E0
5.290883386E0,-7.704889178E-1,4.110869408E0,9.274580956E0
5.295638698E0,-7.872386575E-1,4.139583111E0,9.418149948E0
5.300393959E0,-8.135597110E-1,4.146761417E0,9.590433121E0
5.305149271E0,-8.327022791E-1,4.134797573E0,9.724431038E0
5.309904584E0,-8.231309652E-1,4.134797573E0,9.805787086E0
5.314659896E0,-8.111668825E-1,4.149154663E0,9.882357597E0
5.319415209E0,-8.231309652E-1,4.149154663E0,9.899106979E0
5.324170469E0,-8.111668825E-1,4.158725739E0,9.918250084E0
5.328925782E0,-8.183453679E-1,4.185046673E0,9.908679008E0
5.333681094E0,-8.255237937E-1,4.194618225E0,9.930213928E0
5.338436407E0,-8.159525394E-1,4.199403763E0,9.887143135E0
5.343191719E0,-8.135597110E-1,4.144368649E0,9.786644936E0
5.347946980E0,-8.015955687E-1,4.108476639E0,9.602396965E0
5.352702292E0,-7.944171429E-1,4.036691666E0,9.377471924E0
5.357457605E0,-7.992027402E-1,3.979264021E0,9.073583603E0
5.362212917E0,-7.968099117E-1,3.940979004E0,8.796015739E0
5.366968230E0,-8.135597110E-1,3.940979004E0,8.513663292E0
5.371723490E0,-8.135597110E-1,3.950550079E0,8.329415321E0
5.376478803E0,-8.207381964E-1,3.976871252E0,8.216953278E0
5.381234115E0,-8.853443861E-1,4.031906128E0,8.118846893E0
5.385989428E0,-8.997012973E-1,4.051048756E0,8.059026718E0
5.390744688E0,-9.475577474E-1,4.070191383E0,8.018348694E0
5.395500001E0,-9.738788009E-1,4.118047714E0,7.972885132E0
5.400255313E0,-9.762716293E-1,4.153940201E0,7.960920811E0
5.405010626E0,-9.547362328E-1,4.206582069E0,7.987242222E0
5.409765938E0,-9.499505758E-1,4.230510235E0,8.035098076E0
5.414521198E0,-9.403793216E-1,4.218546391E0,8.075776100E0
5.419276511E0,-8.781659007E-1,4.271188259E0,8.178668022E0
5.424031823E0,-8.207381964E-1,4.304687977E0,8.255238533E0
5.428787136E0,-7.920243144E-1,4.323830605E0,8.401200294E0
5.433542396E0,-7.465606928E-1,4.366901398E0,8.595019341E0
5.438297709E0,-7.010970116E-1,4.443471432E0,8.834300995E0
5.443053021E0,-6.771687865E-1,4.520041943E0,9.104690552E0
5.447808334E0,-6.628118753E-1,4.594219685E0,9.391828537E0
5.452563646E0,-6.340979934E-1,4.656432629E0,9.664610863E0
5.457318907E0,-6.077769399E-1,4.718646049E0,9.858428955E0
5.462074219E0,-6.053841114E-1,4.716253281E0,1.002353382E1
5.466829532E0,-5.551348329E-1,4.699503899E0,1.016710377E1
5.471584844E0,-5.359922647E-1,4.701896667E0,1.032742214E1
5.476340157E0,-5.359922647E-1,4.661218643E0,1.046859932E1
5.481095417E0,-4.953143001E-1,4.622933388E0,1.052602673E1
5.485850730E0,-4.666004181E-1,4.555934429E0,1.058106136E1
5.490606042E0,-4.498506486E-1,4.474578381E0,1.055234814E1
5.495361355E0,-4.426721931E-1,4.374079704E0,1.047099209E1
5.500116667E0,-4.522434771E-1,4.247260094E0,1.032502937E1
5.504871928E0,-4.785645306E-1,4.122833252E0,1.012642574E1
5.509627240E0,-4.929214716E-1,4.024727821E0,9.913464546E0
5.514382553E0,-4.905286431E-1,3.866801500E0,9.631111145E0
5.519137865E0,-5.288137794E-1,3.747160196E0,9.320044518E0
5.523893126E0,-5.694918036E-1,3.622733593E0,8.997013092E0
5.528648438E0,-6.508477330E-1,3.498306751E0,8.659625053E0
5.533403751E0,-6.771687865E-1,3.409772158E0,8.384450912E0
5.538159063E0,-7.441678643E-1,3.323630571E0,8.135597229E0
5.542914323E0,-8.327022791E-1,3.302095175E0,7.968099594E0
5.547669636E0,-9.379864931E-1,3.330809116E0,7.838887215E0
5.552424948E0,-1.036092162E0,3.373879910E0,7.788637638E0
5.557180261E0,-1.112662554E0,3.433700562E0,7.783852100E0
5.561935573E0,-1.215553880E0,3.503092289E0,7.881958008E0
5.566690834E0,-1.282552958E0,3.627519131E0,8.068597794E0
5.571446146E0,-1.347159147E0,3.732803345E0,8.353343964E0
5.576201459E0,-1.385444283E0,3.828516245E0,8.595019341E0
5.580956771E0,-1.402194023E0,3.876372576E0,8.807980537E0
5.585712032E0,-1.373480201E0,3.917050600E0,8.932407379E0
5.590467344E0,-1.313659668E0,3.955335855E0,9.011369705E0
5.595222657E0,-1.275374413E0,4.007977962E0,9.109476089E0
5.599977969E0,-1.246660590E0,4.086941242E0,9.212367058E0
5.604733282E0,-1.220339537E0,4.163511276E0,9.310472488E0
5.609488542E0,-1.179661512E0,4.273581028E0,9.418149948E0
5.614243855E0,-1.119840980E0,4.335794449E0,9.501898766E0
5.618999167E0,-1.045663476E0,4.414757729E0,9.559326172E0
5.623754480E0,-9.643075466E-1,4.436293125E0,9.568898201E0
5.628509740E0,-9.164510965E-1,4.493721008E0,9.554540634E0
5.633265053E0,-8.566305041E-1,4.517649174E0,9.523433685E0
5.638020365E0,-8.422735929E-1,4.498506546E0,9.482755661E0
5.642775678E0,-7.896314859E-1,4.493721008E0,9.410971642E0
5.647530938E0,-7.752745152E-1,4.469792843E0,9.293723106E0
5.652286251E0,-7.513462901E-1,4.455435753E0,9.193224907E0
5.657041563E0,-7.489534616E-1,4.429114819E0,9.044869423E0
5.661796876E0,-7.513462901E-1,4.383651257E0,8.903693199E0
5.666552188E0,-7.561319470E-1,4.374079704E0,8.750552177E0
5.671307448E0,-7.968099117E-1,4.359723091E0,8.606983185E0
5.676062761E0,-8.159525394E-1,4.366901398E0,8.458627701E0
5.680818073E0,-8.566305041E-1,4.357329845E0,8.307880402E0
5.685573386E0,-8.709874153E-1,4.354937077E0,8.183453560E0
5.690328646E0,-8.733802438E-1,4.342973232E0,8.073383331E0
5.695083959E0,-8.853443861E-1,4.316651821E0,7.999206066E0
5.699839271E0,-8.829515576E-1,4.268795490E0,7.898707390E0
5.704594584E0,-8.542376757E-1,4.256831646E0,7.853243828E0
5.709349896E0,-8.350951076E-1,4.223331928E0,7.884350777E0
5.714105157E0,-8.063812256E-1,4.225724697E0,7.968099594E0
5.718860469E0,-7.800601721E-1,4.240081787E0,8.090133667E0
5.723615782E0,-7.489534616E-1,4.259224415E0,8.224131584E0
5.728371094E0,-7.345965505E-1,4.254438877E0,8.384450912E0
5.733126355E0,-7.609176040E-1,4.259224415E0,8.556734085E0
5.737881667E0,-7.680960894E-1,4.271188259E0,8.709874153E0
5.742636980E0,-7.920243144E-1,4.261617184E0,8.901300430E0
5.747392292E0,-8.159525394E-1,4.321437836E0,9.095118523E0
5.752147553E0,-7.824530005E-1,4.371686935E0,9.315258980E0
5.756902865E0,-7.585247755E-1,4.386044025E0,9.554540634E0
5.761658178E0,-6.843472719E-1,4.388436794E0,9.774680138E0
5.766413490E0,-6.556333899E-1,4.378865242E0,9.942177773E0
5.771168751E0,-6.317051649E-1,4.354937077E0,1.007378292E1
5.775924063E0,-5.838487148E-1,4.338187218E0,1.012881851E1
5.780679376E0,-5.455635786E-1,4.264009953E0,1.016710377E1
5.785434688E0,-5.120640397E-1,4.220939159E0,1.017667484E1
5.790190001E0,-4.618147612E-1,4.156332970E0,1.009531879E1
5.794945261E0,-4.211367965E-1,4.084548473E0,9.927821159E0
5.799700573E0,-4.139583111E-1,4.000799656E0,9.705288887E0
5.804455886E0,-3.948157430E-1,3.924229145E0,9.415757179E0
5.809211198E0,-4.283152521E-1,3.866801500E0,9.169296265E0
5.813966459E0,-4.163511395E-1,3.816552162E0,8.963513374E0
5.818721771E0,-4.402793646E-1,3.816552162E0,8.772088051E0
5.823477084E0,-4.402793646E-1,3.830909014E0,8.614161491E0
5.828232396E0,-4.283152521E-1,3.828516245E0,8.501698494E0
5.832987657E0,-4.187439680E-1,3.814159393E0,8.461020470E0
5.837742969E0,-4.307080805E-1,3.811766386E0,8.415556908E0
5.842498282E0,-4.570291340E-1,3.799802303E0,8.365307808E0
5.847253594E0,-4.689932466E-1,3.826123476E0,8.341380119E0
5.852008855E0,-5.168496966E-1,3.850051641E0,8.374878883E0
5.856764167E0,-5.551348329E-1,3.862015724E0,8.413164139E0
5.861519480E0,-5.958128572E-1,3.907479286E0,8.453842163E0
5.866274792E0,-6.125625968E-1,3.940979004E0,8.551948547E0
5.871030105E0,-6.269195080E-1,3.967299938E0,8.604590416E0
5.875785365E0,-5.886343718E-1,4.118047714E0,8.671588898E0
5.880540678E0,-6.771687865E-1,4.082155228E0,8.683553696E0
5.885295990E0,-7.896314859E-1,4.022335052E0,8.659625053E0
5.890051251E0,-8.446664214E-1,3.972085476E0,8.666803360E0
5.894806563E0,-8.829515576E-1,3.979264021E0,8.683553696E0
5.899561876E0,-9.164510965E-1,4.048655987E0,8.767302513E0
5.904317188E0,-9.451649189E-1,4.132404804E0,8.800801277E0
5.909072501E0,-9.810572863E-1,4.146761417E0,8.769695282E0
5.913827761E0,-1.045663476E0,4.137190342E0,8.786444664E0
5.918583073E0,-1.115055323E0,4.120440483E0,8.827122688E0
5.923338386E0,-1.172483087E0,4.125226021E0,8.882157326E0
5.928093698E0,-1.198804140E0,4.120440483E0,8.913264275E0
5.932848959E0,-1.225125194E0,4.115654945E0,8.930013657E0
5.937604271E0,-1.229910851E0,4.120440483E0,8.925228119E0
5.942359584E0,-1.239482164E0,4.108476639E0,8.915657043E0
5.947114896E0,-1.284945726E0,4.151547432E0,8.939585686E0
5.951870157E0,-1.342373490E0,4.192225456E0,8.968298912E0
5.956625469E0,-1.368694544E0,4.216153622E0,9.008976936E0
5.961380782E0,-1.378265858E0,4.256831646E0,9.064012527E0
5.966136094E0,-1.380658627E0,4.242474556E0,9.104690552E0
5.970891355E0,-1.390229940E0,4.249652863E0,9.121439934E0
5.975646667E0,-1.390229940E0,4.259224415E0,9.142974854E0
5.980401980E0,-1.390229940E0,4.228117466E0,9.087940216E0
5.985157292E0,-1.414158225E0,4.134797573E0,8.992227554E0
5.989912553E0,-1.411765337E0,4.118047714E0,8.865407944E0
5.994667865E0,-1.371087432E0,4.077369690E0,8.740981102E0
5.999423178E0,-1.311266780E0,4.055834293E0,8.590232849E0
6.004178490E0,-1.323230863E0,4.036691666E0,8.506484032E0
6.008933751E0,-1.330409408E0,4.010370731E0,8.456234932E0
6.013689063E0,-1.282552958E0,4.036691666E0,8.417949677E0
6.018444376E0,-1.249053478E0,4.024727821E0,8.465806961E0
6.023199688E0,-1.222732425E0,4.058227062E0,8.516056061E0
6.027954948E0,-1.210768223E0,4.125226021E0,8.573483467E0
6.032710261E0,-1.198804140E0,4.182653904E0,8.638090134E0
6.037465573E0,-1.155733347E0,4.268795490E0,8.719446182E0
6.042220886E0,-1.134197950E0,4.326223373E0,8.822337151E0
6.046976146E0,-1.074377418E0,4.390829563E0,8.941978455E0
6.051731459E0,-9.930213690E-1,4.436293125E0,9.068798065E0
6.056486771E0,-9.020941257E-1,4.472185612E0,9.219545364E0
6.061242084E0,-8.135597110E-1,4.512863636E0,9.375079155E0
6.065997396E0,-7.298108935E-1,4.515256405E0,9.509077072E0
6.070752657E0,-6.388836503E-1,4.503292084E0,9.647860527E0
6.075507969E0,-5.192425251E-1,4.465006828E0,9.714859962E0
6.080263282E0,-3.972085714E-1,4.421936035E0,9.710074425E0
6.085018594E0,-2.775674164E-1,4.345366001E0,9.652647018E0
6.089773855E0,-1.770688742E-1,4.249652863E0,9.535398483E0
6.094529167E0,-5.982056633E-2,4.163511276E0,9.387042999E0
6.099284480E0,-7.178467698E-3,4.065405846E0,9.229117393E0
6.104039792E0,4.067798331E-2,3.979264021E0,9.066405296E0
6.108795053E0,1.100698411E-1,3.857230186E0,8.939585686E0
6.113550365E0,1.435693651E-1,3.799802303E0,8.781659126E0
6.118305678E0,1.722832322E-1,3.732803345E0,8.669196129E0
6.123060938E0,1.722832322E-1,3.692125320E0,8.496912956E0
6.127816251E0,1.627119333E-1,3.646661758E0,8.350951195E0
6.132571563E0,1.196411327E-1,3.632304668E0,8.204988480E0
6.137326876E0,5.742774159E-2,3.653840065E0,8.097311974E0
6.142082136E0,-6.460621208E-2,3.754338741E0,8.082955360E0
6.146837448E0,-1.674975902E-1,3.859622955E0,8.078168869E0
6.151592761E0,-3.278166950E-1,3.993621111E0,8.147561073E0
6.156348073E0,-4.474578202E-1,4.158725739E0,8.245666504E0
6.161103334E0,-5.742774606E-1,4.285545349E0,8.398807526E0
6.165858646E0,-6.843472719E-1,4.409972191E0,8.602197647E0
6.170613959E0,-7.872386575E-1,4.491328239E0,8.872586250E0
6.175369271E0,-8.566305041E-1,4.572684288E0,9.157332420E0
6.180124532E0,-9.044869542E-1,4.642076015E0,9.427721024E0
6.184879844E0,-9.212366939E-1,4.649254322E0,9.683753014E0
6.189635157E0,-9.116654396E-1,4.632504463E0,9.853643417E0
6.194390469E0,-8.877372146E-1,4.596612453E0,9.961320877E0
6.199145730E0,-8.949156404E-1,4.524827480E0,1.004985523E1
6.203901042E0,-9.308080077E-1,4.491328239E0,1.005703354E1
6.208656355E0,-9.571290612E-1,4.400400639E0,9.997213364E0
6.213411667E0,-9.762716293E-1,4.335794449E0,9.870393753E0
6.218166928E0,-1.002592683E0,4.273581028E0,9.678967476E0
6.222922240E0,-9.930213690E-1,4.197010994E0,9.463613510E0
6.227677553E0,-9.834501147E-1,4.106083870E0,9.250652313E0
6.232432865E0,-9.762716293E-1,4.055834293E0,9.004191399E0
6.237188126E0,-9.858429432E-1,4.019941807E0,8.760123253E0
6.241943438E0,-1.002592683E0,3.945764542E0,8.556734085E0
6.246698751E0,-1.007378340E0,3.929014683E0,8.367700577E0
6.251454063E0,-1.040877819E0,3.897907972E0,8.219346046E0
6.256209323E0,-1.095912814E0,3.914657831E0,8.145168304E0
6.260964636E0,-1.201196909E0,3.917050600E0,8.121239662E0
6.265719948E0,-1.301695466E0,3.984049797E0,8.149953842E0
6.270475261E0,-1.392622828E0,4.070191383E0,8.271987915E0
6.275230521E0,-1.462014675E0,4.139583111E0,8.441878319E0
6.279985834E0,-1.512263894E0,4.252045631E0,8.678768158E0
6.284741146E0,-1.524227977E0,4.321437836E0,8.920442581E0
6.289496459E0,-1.517049551E0,4.371686935E0,9.140582085E0
6.294251719E0,-1.450050473E0,4.374079704E0,9.370293617E0
6.299007032E0,-1.438086390E0,4.388436794E0,9.573683739E0
6.303762344E0,-1.328016520E0,4.393222332E0,9.769894600E0
6.308517657E0,-1.263410330E0,4.390829563E0,9.966106415E0
6.313272917E0,-1.153340459E0,4.393222332E0,1.012403297E1
6.318028230E0,-1.069591761E0,4.395615101E0,1.023170948E1
6.322783542E0,-9.595218897E-1,4.364508629E0,1.030349445E1
6.327538855E0,-8.901300430E-1,4.316651821E0,1.033460140E1
6.332294115E0,-8.207381964E-1,4.271188259E0,1.033699417E1
6.337049428E0,-7.106683254E-1,4.218546391E0,1.024367332E1
6.341804740E0,-6.077769399E-1,4.113262177E0,1.005942631E1
6.346560001E0,-5.144568682E-1,4.031906128E0,9.789037704E0
6.351315313E0,-4.211367965E-1,3.929014683E0,9.473184586E0
6.356070626E0,-3.254238665E-1,3.838087559E0,9.147761345E0
6.360825938E0,-2.895315289E-1,3.744767427E0,8.827122688E0
6.365581198E0,-2.560320199E-1,3.665804386E0,8.537590981E0
6.370336511E0,-2.632105052E-1,3.610769272E0,8.295916557E0
6.375091823E0,-3.086741269E-1,3.553341627E0,8.061419487E0
6.379847136E0,-3.541377485E-1,3.594019651E0,7.877171993E0
6.384602396E0,-4.115654826E-1,3.644268990E0,7.747959614E0
6.389357709E0,-4.857429862E-1,3.723232031E0,7.637889862E0
6.394113021E0,-6.149554253E-1,3.838087559E0,7.621140003E0
6.398868334E0,-6.867401004E-1,3.945764542E0,7.609176159E0
6.403623594E0,-7.824530005E-1,4.055834293E0,7.666603565E0
6.408378907E0,-8.662018180E-1,4.168296814E0,7.788637638E0
6.413134219E0,-9.044869542E-1,4.259224415E0,7.980063438E0
6.417889532E0,-9.475577474E-1,4.338187218E0,8.214560509E0
6.422644792E0,-9.667003751E-1,4.441078663E0,8.511270523E0
6.427400105E0,-9.906286001E-1,4.515256405E0,8.829515457E0
6.432155417E0,-9.930213690E-1,4.613361835E0,9.176474571E0
6.436910730E0,-1.002592683E0,4.675575256E0,9.530612946E0
6.441665990E0,-9.690931439E-1,4.747360229E0,9.839286804E0
6.446421303E0,-9.451649189E-1,4.766502857E0,1.008335495E1
6.451176615E0,-9.068797827E-1,4.790431023E0,1.026520920E1
6.455931876E0,-8.781659007E-1,4.792823792E0,1.043509960E1
6.460687188E0,-8.279166222E-1,4.706682205E0,1.046620655E1
6.465442501E0,-7.872386575E-1,4.642076015E0,1.043270683E1
6.470197813E0,-7.417750359E-1,4.517649174E0,1.034417248E1
6.474953073E0,-6.771687865E-1,4.398007870E0,1.016471100E1
6.479708386E0,-6.077769399E-1,4.264009953E0,9.930213928E0
6.484463698E0,-4.929214716E-1,4.158725739E0,9.688538551E0
6.489219011E0,-3.996013701E-1,4.024727821E0,9.377471924E0
6.493974271E0,-3.014956415E-1,3.907479286E0,9.028120041E0
6.498729584E0,-2.679961324E-1,3.780659676E0,8.697910309E0
6.503484896E0,-2.440679073E-1,3.663411379E0,8.427521706E0
6.508240209E0,-2.823530734E-1,3.605983734E0,8.228917122E0
6.512995469E0,-3.541377485E-1,3.574877024E0,8.090133667E0
6.517750782E0,-4.354937077E-1,3.603590965E0,7.980063438E0
6.522506094E0,-5.120640397E-1,3.663411379E0,7.927421570E0
6.527261355E0,-6.029912829E-1,3.728017569E0,7.927421570E0
6.532016667E0,-6.939185858E-1,3.811766386E0,7.970492363E0
6.536771980E0,-7.776673436E-1,3.888336897E0,8.097311974E0
6.541527292E0,-8.446664214E-1,3.998406649E0,8.315058708E0
6.546282553E0,-9.260223508E-1,4.110869408E0,8.645268440E0
6.551037865E0,-9.427721500E-1,4.201796532E0,8.975478172E0
6.555793178E0,-9.810572863E-1,4.264009953E0,9.346364975E0
6.560548438E0,-8.901300430E-1,4.273581028E0,9.688538551E0
6.565303751E0,-8.327022791E-1,4.287938118E0,9.951749802E0
6.570059063E0,-7.848458290E-1,4.307080746E0,1.014556789E1
6.574814376E0,-7.537391186E-1,4.314259052E0,1.029153061E1
6.579569636E0,-7.322037220E-1,4.254438877E0,1.035852909E1
6.584324948E0,-6.699903607E-1,4.197010994E0,1.037527943E1
6.589080261E0,-5.934200287E-1,4.103690624E0,1.029631615E1
6.593835521E0,-5.383850932E-1,4.029513359E0,1.001874828E1
6.598590834E0,-4.594219327E-1,3.940979004E0,9.659825325E0
6.603346146E0,-3.445664644E-1,3.826123476E0,9.253045082E0
6.608101459E0,-2.871387303E-1,3.723232031E0,8.841479301E0
6.612856771E0,-2.416750938E-1,3.644268990E0,8.489734650E0
6.617612032E0,-2.344966233E-1,3.608376503E0,8.243273735E0
6.622367344E0,-2.416750938E-1,3.622733593E0,8.090133667E0
6.627122657E0,-2.632105052E-1,3.663411379E0,7.982456207E0
6.631877917E0,-3.469592929E-1,3.749552965E0,7.944170952E0
6.636633230E0,-4.354937077E-1,3.866801500E0,7.972885132E0
6.641388542E0,-5.264210105E-1,3.991228104E0,8.063812256E0
6.646143855E0,-6.029912829E-1,4.101297855E0,8.233702660E0
6.650899115E0,-6.508477330E-1,4.220939159E0,8.437092781E0
6.655654428E0,-7.178468108E-1,4.290330887E0,8.719446182E0
6.660409740E0,-7.417750359E-1,4.386044025E0,9.006584167E0
6.665165053E0,-7.680960894E-1,4.431507587E0,9.317651749E0
6.669920313E0,-8.231309652E-1,4.476971149E0,9.568898201E0
6.674675626E0,-8.303094506E-1,4.500899315E0,9.803394318E0
6.679430938E0,-8.279166222E-1,4.479363918E0,9.990034103E0
6.684186198E0,-8.327022791E-1,4.467400074E0,1.013360405E1
6.688941511E0,-7.848458290E-1,4.414757729E0,1.022213840E1
6.693696823E0,-7.776673436E-1,4.371686935E0,1.027238750E1
6.698452084E0,-7.489534616E-1,4.304687977E0,1.021974564E1
6.703207396E0,-7.106683254E-1,4.216153622E0,1.008574772E1
6.707962709E0,-6.747759581E-1,4.113262177E0,9.863214493E0
6.712718021E0,-6.317051649E-1,3.993621111E0,9.559326172E0
6.717473282E0,-5.862415433E-1,3.881158352E0,9.238688469E0
6.722228594E0,-5.431707501E-1,3.785445452E0,8.922835350E0
6.726983907E0,-4.809573591E-1,3.735196114E0,8.611768723E0
6.731739219E0,-4.689932466E-1,3.692125320E0,8.391629219E0
6.736494480E0,-4.666004181E-1,3.716053486E0,8.236095428E0
6.741249792E0,-5.120640397E-1,3.737588882E0,8.114061356E0
6.746005105E0,-5.670989752E-1,3.795016766E0,8.015955925E0
6.750760365E0,-6.101697683E-1,3.847658873E0,7.934599876E0
6.755515678E0,-6.819544435E-1,3.869194269E0,7.860422611E0
6.760270990E0,-7.393822074E-1,3.940979004E0,7.834101200E0
6.765026251E0,-7.992027402E-1,3.998406649E0,7.884350777E0
6.769781563E0,-8.398807645E-1,4.065405846E0,8.044670105E0
6.774536876E0,-8.231309652E-1,4.170690060E0,8.236095428E0
6.779292188E0,-7.848458290E-1,4.290330887E0,8.477770805E0
6.784047448E0,-7.537391186E-1,4.371686935E0,8.738588333E0
6.788802761E0,-7.010970116E-1,4.462614059E0,9.030512810E0
6.793558073E0,-6.221339107E-1,4.527220249E0,9.324830055E0
6.798313334E0,-5.288137794E-1,4.587040901E0,9.602396965E0
6.803068646E0,-4.091726840E-1,4.555934429E0,9.822537422E0
6.807823959E0,-2.536391914E-1,4.508078098E0,1.002831936E1
6.812579271E0,-9.332008660E-2,4.445864677E0,1.017906761E1
6.817334532E0,6.699903309E-2,4.390829563E0,1.025324535E1
6.822089844E0,1.914258152E-1,4.357329845E0,1.026999474E1
6.826845157E0,2.656033039E-1,4.290330887E0,1.020299530E1
6.831600417E0,2.943171859E-1,4.237689018E0,1.007856941E1
6.836355730E0,2.632105052E-1,4.153940201E0,9.951749802E0
6.841111042E0,2.009970993E-1,4.065405846E0,9.726823807E0
6.845866355E0,1.627119333E-1,3.986442566E0,9.466006279E0
6.850621615E0,1.172483116E-1,3.931407690E0,9.181260109E0
6.855376928E0,8.614161611E-2,3.900300980E0,8.886942863E0
6.860132240E0,6.221338734E-2,3.873979807E0,8.568697929E0
6.864887501E0,-7.178467698E-3,3.859622955E0,8.305487633E0
6.869642813E0,-1.914258115E-2,3.835694790E0,8.116454124E0
6.874398126E0,-5.982056633E-2,3.797409534E0,7.994420528E0
6.879153386E0,-1.004985496E-1,3.790230989E0,7.951349735E0
6.883908698E0,-1.651047617E-1,3.783052683E0,7.977670670E0
6.888664011E0,-2.225325108E-1,3.806980848E0,8.066205025E0
6.893419271E0,-2.967100143E-1,3.850051641E0,8.173882484E0
6.898174584E0,-3.397808075E-1,3.878765583E0,8.271987915E0
6.902929896E0,-3.661018610E-1,3.914657831E0,8.341380119E0
6.907685209E0,-3.684946895E-1,3.933800459E0,8.425128937E0
6.912440469E0,-3.804588020E-1,3.945764542E0,8.559126854E0
6.917195782E0,-4.139583111E-1,3.957728624E0,8.736195564E0
6.921951094E0,-4.618147612E-1,3.967299938E0,8.941978455E0
6.926706355E0,-4.881358147E-1,3.979264021E0,9.087940216E0
6.931461667E0,-5.048855543E-1,4.022335052E0,9.164510727E0
6.936216980E0,-5.072783828E-1,4.010370731E0,9.171689034E0
6.940972240E0,-5.288137794E-1,4.053441525E0,9.126225471E0
6.945727553E0,-5.431707501E-1,4.055834293E0,9.071190834E0
6.950482865E0,-5.647061467E-1,4.046263218E0,9.054440498E0
6.955238126E0,-5.647061467E-1,4.048655987E0,9.071190834E0
6.959993438E0,-5.790630579E-1,4.036691666E0,9.121439934E0
6.964748751E0,-5.766702294E-1,4.039084435E0,9.181260109E0
6.969504063E0,-6.053841114E-1,4.058227062E0,9.178867340E0
6.974259323E0,-5.934200287E-1,4.051048756E0,9.092725754E0
6.979014636E0,-6.053841114E-1,4.034298897E0,8.956335068E0
6.983769948E0,-6.029912829E-1,4.015156269E0,8.807980537E0
6.988525209E0,-6.460621357E-1,4.046263218E0,8.705088615E0
6.993280521E0,-6.604190469E-1,4.130012035E0,8.693124771E0
6.998035834E0,-7.489534616E-1,4.235296249E0,8.762516975E0
7.002791094E0,-7.920243144E-1,4.342973232E0,8.855836868E0
7.007546407E0,-8.542376757E-1,4.469792843E0,8.977870941E0
7.012301719E0,-8.853443861E-1,4.596612453E0,9.140582085E0
7.017056980E0,-9.164510965E-1,4.661218643E0,9.315258980E0
7.021812292E0,-9.068797827E-1,4.733003139E0,9.477970123E0
7.026567605E0,-8.685946465E-1,4.756931305E0,9.611968994E0
7.031322865E0,-7.752745152E-1,4.768895626E0,9.719645500E0
7.036078178E0,-7.106683254E-1,4.713860512E0,9.781859398E0
7.040833490E0,-6.412764788E-1,4.670789719E0,9.769894600E0
7.045588751E0,-5.503492355E-1,4.601397991E0,9.712467194E0
7.050344063E0,-4.929214716E-1,4.500899315E0,9.616754532E0
7.055099376E0,-4.235295951E-1,4.388436794E0,9.533005714E0
7.059854688E0,-3.589234054E-1,4.256831646E0,9.461220741E0
7.064609948E0,-3.134597540E-1,4.130012035E0,9.320044518E0
7.069365261E0,-2.584248483E-1,4.015156269E0,9.116654396E0
7.074120573E0,-2.153540403E-1,3.914657831E0,8.827122688E0
7.078875834E0,-1.794617027E-1,3.826123476E0,8.518448830E0
7.083631146E0,-1.579262912E-1,3.701696634E0,8.152346611E0
7.088386459E0,-1.435693651E-1,3.591626883E0,7.807780266E0
7.093141719E0,-1.411765367E-1,3.515056372E0,7.513463020E0
7.097897032E0,-1.555334777E-1,3.460021496E0,7.319644451E0
7.102652292E0,-1.651047617E-1,3.469592810E0,7.219145775E0
7.107407605E0,-2.105683982E-1,3.519842148E0,7.156932354E0
7.112162917E0,-2.392822653E-1,3.620340586E0,7.207181931E0
7.116918230E0,-2.727817893E-1,3.756731510E0,7.338787079E0
7.121673490E0,-3.278166950E-1,3.881158352E0,7.558926582E0
7.126428803E0,-4.283152521E-1,4.039084435E0,7.869993687E0
7.131184115E0,-5.455635786E-1,4.201796532E0,8.300702095E0
7.135939376E0,-6.604190469E-1,4.357329845E0,8.779266357E0
7.140694688E0,-7.369893789E-1,4.522434711E0,9.260223389E0
7.145450001E0,-7.776673436E-1,4.620540619E0,9.669396400E0
7.150205261E0,-7.968099117E-1,4.668396950E0,1.002353382E1
7.154960573E0,-7.848458290E-1,4.725824833E0,1.030588722E1
7.159715886E0,-7.944171429E-1,4.744967461E0,1.052124119E1
7.164471146E0,-8.685946465E-1,4.740181446E0,1.072463131E1
7.169226459E0,-8.901300430E-1,4.699503899E0,1.084427261E1
7.173981771E0,-8.733802438E-1,4.622933388E0,1.086820030E1
7.178737032E0,-8.350951076E-1,4.563112736E0,1.070788097E1
7.183492344E0,-7.657032609E-1,4.462614059E0,1.042313576E1
7.188247657E0,-7.082754970E-1,4.340580463E0,1.004028416E1
7.193002917E0,-6.771687865E-1,4.244867325E0,9.583254814E0
7.197758230E0,-6.460621357E-1,4.151547432E0,9.114261627E0
7.202513542E0,-6.364908218E-1,4.046263218E0,8.659625053E0
7.207268803E0,-6.101697683E-1,3.964907169E0,8.303094864E0
7.212024115E0,-5.647061467E-1,3.897907972E0,7.977670670E0
7.216779428E0,-5.024927258E-1,3.842873096E0,7.702496052E0
7.221534688E0,-4.809573591E-1,3.835694790E0,7.456035137E0
7.226290001E0,-4.378865361E-1,3.823730469E0,7.262216568E0
7.231045313E0,-3.900300860E-1,3.850051641E0,7.130611420E0
7.235800573E0,-3.445664644E-1,3.897907972E0,7.130611420E0
7.240555886E0,-2.919243574E-1,4.017549038E0,7.216753006E0
7.245311146E0,-2.727817893E-1,4.139583111E0,7.458428383E0
7.250066459E0,-2.823530734E-1,4.287938118E0,7.831708431E0
7.254821771E0,-2.895315289E-1,4.426722050E0,8.329415321E0
7.259577032E0,-2.679961324E-1,4.579862595E0,8.827122688E0
7.264332344E0,-2.033899277E-1,4.661218643E0,9.253045082E0
7.269087657E0,-9.332008660E-2,4.697110653E0,9.566504478E0
7.273842917E0,5.024927482E-2,4.689932346E0,9.858428955E0
7.278598230E0,1.316052526E-1,4.656432629E0,1.010967541E1
7.283353542E0,2.033899277E-1,4.608576298E0,1.035374355E1
7.288108803E0,1.986042857E-1,4.539184570E0,1.057866859E1
7.292864115E0,2.129612118E-1,4.460221291E0,1.073180962E1
7.297619428E0,2.344966233E-1,4.354937077E0,1.076770210E1
7.302374688E0,2.368894368E-1,4.247260094E0,1.066241741E1
7.307130001E0,2.297109663E-1,4.101297855E0,1.042074299E1
7.311885313E0,1.698904037E-1,3.943371773E0,1.007378292E1
7.316640573E0,1.196411327E-1,3.795016766E0,9.647860527E0
7.321395886E0,5.742774159E-2,3.684946775E0,9.190832138E0
7.326151146E0,3.110669367E-2,3.555734396E0,8.755337715E0
7.330906459E0,1.674975827E-2,3.498306751E0,8.379665375E0
7.335661771E0,-5.264209956E-2,3.471985579E0,8.075776100E0
7.340417032E0,-1.435693651E-1,3.438486099E0,7.774280548E0
7.345172344E0,-2.225325108E-1,3.440878868E0,7.534998417E0
7.349927657E0,-3.206382394E-1,3.503092289E0,7.326822758E0
7.354682917E0,-4.618147612E-1,3.598805189E0,7.226324558E0
7.359438230E0,-5.694918036E-1,3.696911097E0,7.233502865E0
7.364193542E0,-7.106683254E-1,3.826123476E0,7.343572617E0
7.368948803E0,-8.039883971E-1,4.003192425E0,7.580461979E0
7.373704115E0,-9.164510965E-1,4.187439442E0,7.956135273E0
7.378459428E0,-1.012163997E0,4.359723091E0,8.379665375E0
7.383214688E0,-1.057627559E0,4.539184570E0,8.817551613E0
7.387970001E0,-1.110269666E0,4.706682205E0,9.255437851E0
7.392725313E0,-1.127019525E0,4.840680122E0,9.667003632E0
7.397480573E0,-1.083948612E0,4.934000492E0,1.002831936E1
7.402235886E0,-1.048056364E0,4.967499733E0,1.036092186E1
7.406991198E0,-9.882357717E-1,4.986642361E0,1.065045357E1
7.411746459E0,-8.949156404E-1,4.948357105E0,1.087059307E1
7.416501771E0,-7.968099117E-1,4.876572609E0,1.096869946E1
7.421257032E0,-7.082754970E-1,4.723432064E0,1.094477081E1
7.426012344E0,-6.340979934E-1,4.608576298E0,1.078923702E1
7.430767657E0,-5.838487148E-1,4.479363918E0,1.051167011E1
7.435522917E0,-5.383850932E-1,4.338187218E0,1.015274620E1
7.440278230E0,-4.187439680E-1,4.218546391E0,9.729216576E0
7.445033542E0,-3.565305769E-1,4.091726780E0,9.286544800E0
7.449788803E0,-2.799602449E-1,3.960121393E0,8.841479301E0
7.454544115E0,-2.512463629E-1,3.852444410E0,8.463413239E0
7.459299376E0,-2.057827413E-1,3.761517286E0,8.145168304E0
7.464054688E0,-2.321037948E-1,3.706482172E0,7.881958008E0
7.468810001E0,-2.081755698E-1,3.672982693E0,7.664210796E0
7.473565261E0,-2.153540403E-1,3.658625841E0,7.501499176E0
7.478320573E0,-2.608176768E-1,3.625126362E0,7.362715244E0
7.483075886E0,-3.206382394E-1,3.625126362E0,7.293323517E0
7.487831146E0,-3.924229145E-1,3.625126362E0,7.302894592E0
7.492586459E0,-4.618147612E-1,3.668197155E0,7.386643410E0
7.497341771E0,-5.455635786E-1,3.713660717E0,7.573283672E0
7.502097032E0,-6.364908218E-1,3.778266907E0,7.850851059E0
7.506852344E0,-7.082754970E-1,3.921836376E0,8.212167740E0
7.511607605E0,-7.728816867E-1,4.024727821E0,8.573483467E0
7.516362917E0,-8.350951076E-1,4.127619267E0,8.944371223E0
7.521118230E0,-8.566305041E-1,4.220939159E0,9.224330902E0
7.525873490E0,-9.140582681E-1,4.302295208E0,9.506684303E0
7.530628803E0,-9.499505758E-1,4.359723091E0,9.765109062E0
7.535384063E0,-9.738788009E-1,4.383651257E0,1.000199890E1
7.540139376E0,-9.690931439E-1,4.426722050E0,1.023888779E1
7.544894688E0,-9.810572863E-1,4.417150497E0,1.043988514E1
7.549649948E0,-1.000199914E0,4.407579422E0,1.054516983E1
7.554405261E0,-9.786644578E-1,4.390829563E0,1.058824062E1
7.559160573E0,-9.882357717E-1,4.347758770E0,1.054756260E1
7.563915834E0,-9.810572863E-1,4.273581028E0,1.042313576E1
7.568671146E0,-9.212366939E-1,4.199403763E0,1.017667484E1
7.573426407E0,-8.614161611E-1,4.110869408E0,9.872786522E0
7.578181719E0,-8.231309652E-1,4.034298897E0,9.525827408E0
7.582937032E0,-7.704889178E-1,4.019941807E0,9.188439369E0
7.587692292E0,-7.106683254E-1,4.003192425E0,8.860622406E0
7.592447605E0,-6.867401004E-1,3.931407690E0,8.628518105E0
7.597202865E0,-5.910272002E-1,3.905086517E0,8.432307243E0
7.601958178E0,-5.168496966E-1,3.850051641E0,8.228917122E0
7.606713490E0,-4.498506486E-1,3.821337700E0,8.025527000E0
7.611468751E0,-3.517449200E-1,3.818944931E0,7.872386456E0
7.616224063E0,-3.062812984E-1,3.816552162E0,7.762316704E0
7.620979376E0,-2.392822653E-1,3.850051641E0,7.716853142E0
7.625734636E0,-1.651047617E-1,3.854837179E0,7.704888821E0
7.630489948E0,-6.221338734E-2,3.914657831E0,7.764709473E0
7.635245209E0,4.785645287E-3,3.955335855E0,7.848458290E0
7.640000521E0,8.374879509E-2,3.981656790E0,7.958528042E0
7.644755834E0,1.603191197E-1,4.027120590E0,8.097311974E0
7.649511094E0,1.674975902E-1,4.110869408E0,8.305487633E0
7.654266407E0,1.387837082E-1,4.201796532E0,8.616554260E0
7.659021667E0,1.004985496E-1,4.285545349E0,8.953942299E0
7.663776980E0,4.546362907E-2,4.378865242E0,9.334401131E0
7.668532292E0,1.435693540E-2,4.465006828E0,9.664610863E0
7.673287553E0,1.435693540E-2,4.476971149E0,9.951749802E0
7.678042865E0,1.914258115E-2,4.476971149E0,1.015513897E1
7.682798126E0,1.435693540E-2,4.383651257E0,1.028435135E1
7.687553438E0,5.982056633E-2,4.311866283E0,1.030827999E1
7.692308751E0,7.417750359E-2,4.197010994E0,1.025324535E1
7.697064011E0,5.982056633E-2,4.101297855E0,1.017428207E1
7.701819323E0,1.914258115E-2,3.976871252E0,9.992427826E0
7.706574584E0,-4.307080805E-2,3.873979807E0,9.743574142E0
7.711329896E0,-1.244267747E-1,3.802195072E0,9.432506561E0
7.716085209E0,-2.081755698E-1,3.718446493E0,9.102297783E0
7.720840469E0,-3.158525825E-1,3.692125320E0,8.807980537E0
7.725595782E0,-4.331009090E-1,3.704089403E0,8.571090698E0
7.730351042E0,-5.096712112E-1,3.744767427E0,8.422736168E0
7.735106355E0,-5.551348329E-1,3.778266907E0,8.307880402E0
7.739861667E0,-6.340979934E-1,3.802195072E0,8.250452042E0
7.744616928E0,-6.580262184E-1,3.806980848E0,8.228917122E0
7.749372240E0,-6.939185858E-1,3.785445452E0,8.224131584E0
7.754127501E0,-7.417750359E-1,3.778266907E0,8.226524353E0
7.758882813E0,-7.920243144E-1,3.787838221E0,8.255238533E0
7.763638126E0,-8.901300430E-1,3.854837179E0,8.379665375E0
7.768393386E0,-1.000199914E0,3.948157310E0,8.585447311E0
7.773148698E0,-1.083948612E0,4.077369690E0,8.824729919E0
7.777903959E0,-1.162911773E0,4.185046673E0,9.049654961E0
7.782659271E0,-1.194018483E0,4.287938118E0,9.257830620E0
7.787414584E0,-1.182054400E0,4.371686935E0,9.509077072E0
7.792169844E0,-1.189232826E0,4.441078663E0,9.745966911E0
7.796925157E0,-1.184447169E0,4.534399033E0,9.982855797E0
7.801680417E0,-1.158126116E0,4.529613495E0,1.017906761E1
7.806435730E0,-1.129412293E0,4.536791801E0,1.037527943E1
7.811190990E0,-1.103091240E0,4.520041943E0,1.050449181E1
7.815946303E0,-1.081555843E0,4.441078663E0,1.051645565E1
7.820701615E0,-1.038485050E0,4.350151539E0,1.043988514E1
7.825456876E0,-9.403793216E-1,4.242474556E0,1.024128056E1
7.830212188E0,-8.422735929E-1,4.084548473E0,9.934999466E0
7.834967448E0,-7.106683254E-1,3.952943087E0,9.604789734E0
7.839722761E0,-6.173482537E-1,3.833301783E0,9.255437851E0
7.844478073E0,-5.168496966E-1,3.739981890E0,8.915657043E0
7.849233334E0,-4.426721931E-1,3.696911097E0,8.635697365E0
7.853988646E0,-4.091726840E-1,3.656233072E0,8.350951195E0
7.858743907E0,-4.067798555E-1,3.615555048E0,8.152346611E0
7.863499219E0,-4.163511395E-1,3.617947817E0,8.006384850E0
7.868254480E0,-4.259224236E-1,3.625126362E0,7.929814339E0
7.873009792E0,-4.426721931E-1,3.605983734E0,7.884350777E0
7.877765053E0,-4.307080805E-1,3.603590965E0,7.920242786E0
7.882520365E0,-4.163511395E-1,3.603590965E0,7.946564198E0
7.887275678E0,-4.259224236E-1,3.617947817E0,8.015955925E0
7.892030938E0,-4.354937077E-1,3.661018610E0,8.183453560E0
7.896786251E0,-4.689932466E-1,3.725624800E0,8.410771370E0
7.901541563E0,-4.977070987E-1,3.799802303E0,8.671588898E0
7.906296823E0,-5.335994363E-1,3.873979807E0,8.963513374E0
7.911052136E0,-5.838487148E-1,3.929014683E0,9.250652313E0
7.915807396E0,-6.029912829E-1,3.972085476E0,9.506684303E0
7.920562709E0,-6.340979934E-1,4.041477680E0,9.700503349E0
7.925317969E0,-7.010970116E-1,4.120440483E0,9.911071777E0
7.930073282E0,-7.728816867E-1,4.175475597E0,1.006899738E1
7.934828542E0,-7.992027402E-1,4.261617184E0,1.022453117E1
7.939583855E0,-8.039883971E-1,4.297509670E0,1.035852909E1
7.944339115E0,-7.728816867E-1,4.321437836E0,1.044467068E1
7.949094428E0,-7.369893789E-1,4.275974274E0,1.045663452E1
7.953849740E0,-7.489534616E-1,4.230510235E0,1.037527943E1
7.958605001E0,-7.417750359E-1,4.177868366E0,1.019581699E1
7.963360313E0,-7.345965505E-1,4.120440483E0,9.939785004E0
7.968115573E0,-7.298108935E-1,4.086941242E0,9.645467758E0
7.972870886E0,-7.106683254E-1,4.012763500E0,9.348757744E0
7.977626198E0,-6.723831892E-1,3.964907169E0,9.044869423E0
7.982381459E0,-5.910272002E-1,3.864408493E0,8.755337715E0
7.987136771E0,-5.072783828E-1,3.797409534E0,8.496912956E0
7.991892032E0,-4.618147612E-1,3.720839262E0,8.250452042E0
7.996647344E0,-4.211367965E-1,3.689732552E0,8.037490845E0
8.001402605E0,-3.708875179E-1,3.672982693E0,7.841279984E0
8.006157917E0,-3.541377485E-1,3.651447296E0,7.676175117E0
8.010913178E0,-3.230310678E-1,3.661018610E0,7.554141045E0
8.015668490E0,-3.014956415E-1,3.677768469E0,7.491927624E0
8.020423751E0,-2.632105052E-1,3.694518089E0,7.491927624E0
8.025179063E0,-2.703889608E-1,3.763910055E0,7.625925541E0
8.029934376E0,-2.656033039E-1,3.838087559E0,7.798209190E0
8.034689636E0,-2.608176768E-1,3.969692707E0,8.102097511E0
8.039444948E0,-2.823530734E-1,4.094119549E0,8.434700012E0
8.044200209E0,-2.512463629E-1,4.216153622E0,8.767302513E0
8.048955521E0,-2.321037948E-1,4.295116425E0,9.078369141E0
8.053710782E0,-2.560320199E-1,4.352544308E0,9.367900848E0
8.058466094E0,-2.847459018E-1,4.390829563E0,9.611968994E0
8.063221407E0,-3.397808075E-1,4.417150497E0,9.820143700E0
8.067976667E0,-4.187439680E-1,4.479363918E0,1.001635551E1
8.072731980E0,-4.929214716E-1,4.527220249E0,1.017428207E1
8.077487240E0,-5.192425251E-1,4.577469826E0,1.036810017E1
8.082242553E0,-5.335994363E-1,4.606183529E0,1.049491978E1
8.086997813E0,-5.312066078E-1,4.603790760E0,1.061456108E1
8.091753126E0,-5.359922647E-1,4.570291042E0,1.068156052E1
8.096508386E0,-5.264210105E-1,4.474578381E0,1.066481018E1
8.101263698E0,-5.120640397E-1,4.369294167E0,1.053799057E1
8.106019011E0,-5.072783828E-1,4.252045631E0,1.032024384E1
8.110774271E0,-4.809573591E-1,4.113262177E0,1.000917721E1
8.115529584E0,-4.713860750E-1,3.976871252E0,9.614361763E0
8.120284844E0,-4.642075896E-1,3.826123476E0,9.176474571E0
8.125040157E0,-4.737788737E-1,3.696911097E0,8.779266357E0
8.129795417E0,-5.240281820E-1,3.615555048E0,8.434700012E0
8.134550730E0,-5.886343718E-1,3.570091486E0,8.171489716E0
8.139305990E0,-6.795616150E-1,3.550948858E0,8.008777618E0
8.144061303E0,-7.513462901E-1,3.567698479E0,7.901100159E0
8.148816563E0,-8.135597110E-1,3.596412420E0,7.838887215E0
8.153571876E0,-8.614161611E-1,3.622733593E0,7.836493969E0
8.158327136E0,-8.709874153E-1,3.672982693E0,7.898707390E0
8.163082448E0,-8.997012973E-1,3.716053486E0,8.013563156E0
8.167837761E0,-9.116654396E-1,3.742374659E0,8.161917686E0
8.172593021E0,-9.427721500E-1,3.790230989E0,8.336593628E0
8.177348334E0,-9.595218897E-1,3.847658873E0,8.523234367E0
8.182103594E0,-9.523434043E-1,3.962514400E0,8.693124771E0
8.186858907E0,-9.714859724E-1,4.086941242E0,8.894122124E0
8.191614167E0,-9.834501147E-1,4.197010994E0,9.142974854E0
8.196369480E0,-1.040877819E0,4.335794449E0,9.415757179E0
8.201124740E0,-1.050449133E0,4.438685894E0,9.659825325E0
8.205880053E0,-1.048056364E0,4.551148891E0,9.863214493E0
8.210635313E0,-1.000199914E0,4.630111694E0,1.005464077E1
8.215390626E0,-8.973084688E-1,4.661218643E0,1.021974564E1
8.220145886E0,-8.590233326E-1,4.661218643E0,1.030827999E1
8.224901198E0,-8.374879360E-1,4.642076015E0,1.029870892E1
8.229656459E0,-8.111668825E-1,4.591826439E0,1.022213840E1
8.234411771E0,-7.728816867E-1,4.512863636E0,1.009053326E1
8.239167032E0,-7.250252366E-1,4.417150497E0,9.863214493E0
8.243922344E0,-7.154539824E-1,4.335794449E0,9.588040352E0
8.248677657E0,-6.891329288E-1,4.216153622E0,9.276973724E0
8.253432917E0,-6.604190469E-1,4.115654945E0,8.968298912E0
8.258188230E0,-5.886343718E-1,4.027120590E0,8.654839516E0
8.262943490E0,-5.599204898E-1,3.940979004E0,8.389236450E0
8.267698803E0,-5.479564071E-1,3.890729666E0,8.130811691E0
8.272454063E0,-5.144568682E-1,3.833301783E0,7.901100159E0
8.277209376E0,-4.881358147E-1,3.785445452E0,7.707281590E0
8.281964636E0,-4.450650215E-1,3.747160196E0,7.580461979E0
8.286719948E0,-4.474578202E-1,3.704089403E0,7.534998417E0
8.291475209E0,-4.402793646E-1,3.675375462E0,7.546962738E0
8.296230521E0,-4.570291340E-1,3.689732552E0,7.621140003E0
8.300985782E0,-4.546363056E-1,3.716053486E0,7.793423176E0
8.305741094E0,-4.426721931E-1,3.785445452E0,8.023134232E0
8.310496355E0,-4.091726840E-1,3.847658873E0,8.295916557E0
8.315251667E0,-3.661018610E-1,3.902693748E0,8.604590416E0
8.320006928E0,-3.373879790E-1,3.955335855E0,8.951549530E0
8.324762240E0,-2.871387303E-1,4.000799656E0,9.308079720E0
8.329517501E0,-2.679961324E-1,4.039084435E0,9.647860527E0
8.334272813E0,-2.201396823E-1,4.070191383E0,9.918250084E0
8.339028073E0,-1.986042857E-1,4.063013077E0,1.018863869E1
8.343783386E0,-1.938186288E-1,4.082155228E0,1.041356373E1
8.348538698E0,-2.225325108E-1,4.089334011E0,1.056191921E1
8.353293959E0,-2.249253243E-1,4.089334011E0,1.065523911E1
8.358049219E0,-2.560320199E-1,4.039084435E0,1.066959572E1
8.362804532E0,-2.871387303E-1,4.000799656E0,1.057866859E1
8.367559844E0,-3.110669553E-1,3.979264021E0,1.039202881E1
8.372315105E0,-3.326023519E-1,3.950550079E0,1.015513897E1
8.377070365E0,-3.349951804E-1,3.931407690E0,9.858428955E0
8.381825678E0,-3.517449200E-1,3.914657831E0,9.580862045E0
8.386580990E0,-3.780659735E-1,3.897907972E0,9.291330338E0
8.391336251E0,-4.139583111E-1,3.881158352E0,9.059226990E0
8.396091511E0,-4.713860750E-1,3.871587038E0,8.851051331E0
8.400846823E0,-4.833501875E-1,3.842873096E0,8.657232285E0
8.405602136E0,-5.168496966E-1,3.828516245E0,8.494520187E0
8.410357396E0,-5.144568682E-1,3.833301783E0,8.362915039E0
8.415112709E0,-5.479564071E-1,3.840480328E0,8.291130066E0
8.419867969E0,-5.168496966E-1,3.850051641E0,8.224131584E0
8.424623282E0,-5.168496966E-1,3.864408493E0,8.209774017E0
8.429378542E0,-4.689932466E-1,3.862015724E0,8.190631866E0
8.434133855E0,-4.283152521E-1,3.857230186E0,8.173882484E0
8.438889115E0,-3.948157430E-1,3.842873096E0,8.178668022E0
8.443644428E0,-3.780659735E-1,3.821337700E0,8.190631866E0
8.448399688E0,-3.780659735E-1,3.821337700E0,8.233702660E0
8.453154948E0,-3.708875179E-1,3.816552162E0,8.286344528E0
8.457910261E0,-3.254238665E-1,3.792623997E0,8.362915039E0
8.462665573E0,-3.134597540E-1,3.818944931E0,8.432307243E0
8.467420834E0,-3.206382394E-1,3.828516245E0,8.530412674E0
8.472176146E0,-3.014956415E-1,3.838087559E0,8.621339798E0
8.476931407E0,-3.254238665E-1,3.854837179E0,8.731410027E0
8.481686719E0,-3.397808075E-1,3.902693748E0,8.851051331E0
8.486441980E0,-3.637090325E-1,3.919443607E0,8.949156761E0
8.491197240E0,-3.876372576E-1,3.950550079E0,9.001798630E0
8.495952553E0,-4.115654826E-1,4.003192425E0,9.044869423E0
8.500707865E0,-4.378865361E-1,4.027120590E0,9.075976372E0
8.505463126E0,-5.000999570E-1,4.074976921E0,9.090332985E0
8.510218438E0,-6.101697683E-1,4.194618225E0,9.174081802E0
8.514973698E0,-7.250252366E-1,4.283152580E0,9.298508644E0
8.519728959E0,-7.944171429E-1,4.407579422E0,9.470791817E0
8.524484271E0,-8.590233326E-1,4.546362877E0,9.674181938E0
8.529239532E0,-9.092726111E-1,4.625326157E0,9.920642853E0
8.533994844E0,-9.260223508E-1,4.685146809E0,1.011685371E1
8.538750157E0,-9.643075466E-1,4.689932346E0,1.026520920E1
8.543505417E0,-9.379864931E-1,4.694717884E0,1.032742214E1
8.548260678E0,-9.140582681E-1,4.613361835E0,1.033699417E1
8.553015990E0,-8.805587292E-1,4.532006264E0,1.032024384E1
8.557771251E0,-8.685946465E-1,4.450650215E0,1.024606609E1
8.562526563E0,-8.063812256E-1,4.345366001E0,1.012403297E1
8.567281823E0,-7.920243144E-1,4.242474556E0,9.961320877E0
8.572037136E0,-7.657032609E-1,4.149154663E0,9.760323524E0
8.576792396E0,-7.130611539E-1,4.019941807E0,9.466006279E0
8.581547709E0,-6.364908218E-1,3.933800459E0,9.190832138E0
8.586302969E0,-5.862415433E-1,3.826123476E0,8.851051331E0
8.591058282E0,-5.479564071E-1,3.720839262E0,8.528019905E0
8.595813542E0,-5.024927258E-1,3.644268990E0,8.219346046E0
8.600568855E0,-4.689932466E-1,3.560520172E0,7.984848976E0
8.605324115E0,-4.331009090E-1,3.519842148E0,7.822137356E0
8.610079428E0,-3.924229145E-1,3.503092289E0,7.695317745E0
8.614834688E0,-3.613162339E-1,3.505485058E0,7.652246952E0
8.619589948E0,-3.373879790E-1,3.565305710E0,7.659425259E0
8.624345261E0,-3.421736360E-1,3.627519131E0,7.762316704E0
8.629100521E0,-3.445664644E-1,3.716053486E0,7.944170952E0
8.633855834E0,-3.421736360E-1,3.811766386E0,8.193024635E0
8.638611094E0,-3.541377485E-1,3.950550079E0,8.470592499E0
8.643366407E0,-3.804588020E-1,4.120440483E0,8.829515457E0
8.648121667E0,-4.378865361E-1,4.271188259E0,9.260223389E0
8.652876980E0,-5.072783828E-1,4.402793884E0,9.657432556E0
8.657632240E0,-5.192425251E-1,4.500899315E0,9.992427826E0
8.662387553E0,-5.407779217E-1,4.529613495E0,1.027238750E1
8.667142813E0,-5.216353536E-1,4.505684853E0,1.050688457E1
8.671898126E0,-4.522434771E-1,4.517649174E0,1.067198944E1
8.676653386E0,-4.067798555E-1,4.465006828E0,1.073659515E1
8.681408698E0,-3.780659735E-1,4.441078663E0,1.073898792E1
8.686163959E0,-3.541377485E-1,4.390829563E0,1.066959572E1
8.690919271E0,-2.919243574E-1,4.316651821E0,1.047099209E1
8.695674532E0,-2.584248483E-1,4.208974838E0,1.018385315E1
8.700429792E0,-2.440679073E-1,4.115654945E0,9.846465111E0
8.705185105E0,-2.440679073E-1,4.043870449E0,9.535398483E0
8.709940417E0,-2.560320199E-1,3.996013880E0,9.217152596E0
8.714695678E0,-2.727817893E-1,3.957728624E0,8.989834785E0
8.719450938E0,-2.871387303E-1,3.924229145E0,8.800801277E0
8.724206251E0,-2.679961324E-1,3.862015724E0,8.606983185E0
8.728961511E0,-2.416750938E-1,3.783052683E0,8.415556908E0
8.733716823E0,-2.033899277E-1,3.668197155E0,8.200202942E0
8.738472084E0,-1.938186288E-1,3.562912941E0,8.006384850E0
8.743227396E0,-1.842473447E-1,3.507878065E0,7.834101200E0
8.747982657E0,-2.009970993E-1,3.443271875E0,7.740781307E0
8.752737969E0,-2.656033039E-1,3.452843189E0,7.733603001E0
8.757493230E0,-3.086741269E-1,3.500699520E0,7.822137356E0
8.762248490E0,-3.302095234E-1,3.572484255E0,7.999206066E0
8.767003803E0,-3.732803464E-1,3.672982693E0,8.226524353E0
8.771759063E0,-4.091726840E-1,3.763910055E0,8.461020470E0
8.776514376E0,-4.546363056E-1,3.828516245E0,8.662017822E0
8.781269636E0,-4.713860750E-1,3.900300980E0,8.834300995E0
8.786024948E0,-5.072783828E-1,3.986442566E0,9.035298347E0
8.790780209E0,-5.407779217E-1,4.108476639E0,9.241081238E0
8.795535469E0,-5.862415433E-1,4.232903481E0,9.466006279E0
8.800290782E0,-6.197410822E-1,4.352544308E0,9.676574707E0
8.805046094E0,-6.149554253E-1,4.417150497E0,9.860821724E0
8.809801355E0,-6.269195080E-1,4.505684853E0,1.002114105E1
8.814556615E0,-6.867401004E-1,4.575077057E0,1.017428207E1
8.819311928E0,-7.633104324E-1,4.689932346E0,1.038963604E1
8.824067188E0,-8.398807645E-1,4.785645485E0,1.062413216E1
8.828822501E0,-9.044869542E-1,4.857429981E0,1.086341476E1
8.833577761E0,-8.949156404E-1,4.847858906E0,1.102134132E1
8.838333073E0,-8.350951076E-1,4.800002098E0,1.108355427E1
8.843088334E0,-7.345965505E-1,4.711467743E0,1.101416302E1
8.847843594E0,-6.604190469E-1,4.582255363E0,1.080838013E1
8.852598907E0,-6.149554253E-1,4.436293125E0,1.047817039E1
8.857354167E0,-5.886343718E-1,4.299902439E0,1.009292603E1
8.862109480E0,-5.886343718E-1,4.173082829E0,9.662218094E0
8.866864740E0,-5.288137794E-1,4.005585194E0,9.219545364E0
8.871620053E0,-4.498506486E-1,3.905086517E0,8.798408508E0
8.876375313E0,-3.613162339E-1,3.761517286E0,8.405985832E0
8.881130626E0,-3.062812984E-1,3.622733593E0,8.039883614E0
8.885885886E0,-2.775674164E-1,3.486342669E0,7.690532207E0
8.890641146E0,-2.775674164E-1,3.409772158E0,7.362715244E0
8.895396459E0,-2.488535494E-1,3.330809116E0,7.020541668E0
8.900151719E0,-2.273181528E-1,3.287738323E0,6.692724705E0
8.904907032E0,-2.249253243E-1,3.302095175E0,6.463014126E0
8.909662292E0,-2.225325108E-1,3.364308596E0,6.372086525E0
8.914417605E0,-2.368894368E-1,3.483949661E0,6.448657036E0
8.919172865E0,-2.919243574E-1,3.615555048E0,6.685546398E0
8.923928126E0,-3.565305769E-1,3.833301783E0,7.013363361E0
8.928683438E0,-4.426721931E-1,4.024727821E0,7.444071293E0
8.933438698E0,-5.359922647E-1,4.213760853E0,7.941778183E0
8.938194011E0,-6.245267391E-1,4.398007870E0,8.487341881E0
8.942949271E0,-6.867401004E-1,4.553541660E0,9.016156197E0
8.947704532E0,-6.819544435E-1,4.716253281E0,9.437292099E0
8.952459844E0,-6.388836503E-1,4.797609329E0,9.829715729E0
8.957215105E0,-5.742774606E-1,4.840680122E0,1.014796066E1
8.961970417E0,-5.072783828E-1,4.907679081E0,1.049731255E1
8.966725678E0,-4.618147612E-1,4.972285271E0,1.083230782E1
8.971480938E0,-4.187439680E-1,5.020142078E0,1.113858986E1
8.976236251E0,-4.474578202E-1,5.046463013E0,1.140897846E1
8.980991511E0,-5.000999570E-1,5.103890896E0,1.166022491E1
8.985746823E0,-5.479564071E-1,5.134997368E0,1.181815147E1
8.990502084E0,-5.742774606E-1,5.094319344E0,1.184207916E1
8.995257396E0,-5.766702294E-1,5.008177757E0,1.165543938E1
9.000012657E0,-5.766702294E-1,4.862215519E0,1.124148083E1
9.004767917E0,-5.240281820E-1,4.694717884E0,1.064327526E1
9.009523230E0,-4.737788737E-1,4.486542225E0,9.990034103E0
9.014278490E0,-4.235295951E-1,4.292723656E0,9.303294182E0
9.019033803E0,-3.684946895E-1,4.120440483E0,8.731410027E0
9.023789063E0,-3.421736360E-1,3.962514400E0,8.214560509E0
9.028544376E0,-3.565305769E-1,3.857230186E0,7.783852100E0
9.033299636E0,-3.732803464E-1,3.768695593E0,7.398607731E0
9.038054896E0,-4.163511395E-1,3.694518089E0,7.068397999E0
9.042810209E0,-4.689932466E-1,3.656233072E0,6.812366009E0
9.047565469E0,-5.335994363E-1,3.639483213E0,6.675975323E0
9.052320782E0,-5.862415433E-1,3.634697676E0,6.606583118E0
9.057076042E0,-6.005984545E-1,3.629911900E0,6.644868374E0
9.061831303E0,-6.221339107E-1,3.641875982E0,6.812366009E0
9.066586615E0,-6.699903607E-1,3.653840065E0,7.018148899E0
9.071341876E0,-6.915257573E-1,3.696911097E0,7.286144733E0
9.076097136E0,-6.891329288E-1,3.692125320E0,7.551748276E0
9.080852448E0,-6.819544435E-1,3.766302824E0,7.846065521E0
9.085607709E0,-6.604190469E-1,3.821337700E0,8.209774017E0
9.090363021E0,-6.532405615E-1,3.890729666E0,8.571090698E0
9.095118282E0,-6.436693072E-1,3.952943087E0,8.896514893E0
9.099873594E0,-6.173482537E-1,4.003192425E0,9.205188751E0
9.104628855E0,-5.934200287E-1,4.079762459E0,9.516255379E0
9.109384115E0,-5.886343718E-1,4.137190342E0,9.779465675E0
9.114139428E0,-6.317051649E-1,4.192225456E0,1.001156998E1
9.118894688E0,-6.436693072E-1,4.223331928E0,1.023888779E1
9.123650001E0,-7.369893789E-1,4.244867325E0,1.043270683E1
9.128405261E0,-7.944171429E-1,4.261617184E0,1.057149029E1
9.133160521E0,-8.877372146E-1,4.254438877E0,1.069591713E1
9.137915834E0,-9.092726111E-1,4.230510235E0,1.072463131E1
9.142671094E0,-9.284151793E-1,4.165904045E0,1.064327526E1
9.147426355E0,-9.116654396E-1,4.077369690E0,1.047338486E1
9.152181667E0,-8.781659007E-1,4.012763500E0,1.025085258E1
9.156936928E0,-8.590233326E-1,3.967299938E0,9.899106979E0
9.161692240E0,-8.159525394E-1,3.905086517E0,9.540184021E0
9.166447501E0,-7.345965505E-1,3.830909014E0,9.166903496E0
9.171202761E0,-6.915257573E-1,3.751945972E0,8.800801277E0
9.175958073E0,-6.364908218E-1,3.680161238E0,8.453842163E0
9.180713334E0,-5.958128572E-1,3.641875982E0,8.142775536E0
9.185468646E0,-5.886343718E-1,3.577269793E0,7.879564762E0
9.190223907E0,-5.910272002E-1,3.546163082E0,7.645068169E0
9.194979167E0,-6.077769399E-1,3.572484255E0,7.489534855E0
9.199734480E0,-6.101697683E-1,3.603590965E0,7.381857872E0
9.204489740E0,-5.982056856E-1,3.620340586E0,7.326822758E0
9.209245001E0,-5.982056856E-1,3.644268990E0,7.357929707E0
9.214000313E0,-5.766702294E-1,3.656233072E0,7.412964344E0
9.218755573E0,-5.479564071E-1,3.689732552E0,7.525427341E0
9.223510886E0,-5.240281820E-1,3.696911097E0,7.640282631E0
9.228266146E0,-4.689932466E-1,3.756731510E0,7.793423176E0
9.233021407E0,-4.618147612E-1,3.778266907E0,7.915457249E0
9.237776719E0,-4.259224236E-1,3.826123476E0,8.078168869E0
9.242531980E0,-4.378865361E-1,3.885943890E0,8.279166222E0
9.247287240E0,-4.594219327E-1,3.976871252E0,8.511270523E0
9.252042553E0,-5.144568682E-1,4.036691666E0,8.764909744E0
9.256797813E0,-5.431707501E-1,4.094119549E0,8.989834785E0
9.261553126E0,-5.814558864E-1,4.125226021E0,9.181260109E0
9.266308386E0,-6.340979934E-1,4.170690060E0,9.427721024E0
9.271063646E0,-7.154539824E-1,4.180261135E0,9.628718376E0
9.275818959E0,-7.513462901E-1,4.213760853E0,9.791430473E0
9.280574219E0,-7.896314859E-1,4.199403763E0,9.925428391E0
9.285329532E0,-7.944171429E-1,4.185046673E0,9.985248566E0
9.290084792E0,-7.968099117E-1,4.122833252E0,9.975677490E0
9.294840053E0,-7.992027402E-1,4.067798615E0,9.887143135E0
9.299595365E0,-8.279166222E-1,4.003192425E0,9.777072906E0
9.304350626E0,-8.446664214E-1,3.945764542E0,9.619147301E0
9.309105886E0,-8.590233326E-1,3.905086517E0,9.420542717E0
9.313861198E0,-8.303094506E-1,3.847658873E0,9.236295700E0
9.318616459E0,-8.350951076E-1,3.787838221E0,9.032905579E0
9.323371719E0,-8.207381964E-1,3.728017569E0,8.853444099E0
9.328127032E0,-8.135597110E-1,3.711267948E0,8.688339233E0
9.332882292E0,-8.279166222E-1,3.704089403E0,8.518448830E0
9.337637553E0,-8.877372146E-1,3.696911097E0,8.401200294E0
9.342392865E0,-9.212366939E-1,3.708875179E0,8.346165657E0
9.347148126E0,-9.643075466E-1,3.730410576E0,8.334200859E0
9.351903438E0,-9.930213690E-1,3.783052683E0,8.374878883E0
9.356658698E0,-9.714859724E-1,3.826123476E0,8.427521706E0
9.361413959E0,-9.523434043E-1,3.866801500E0,8.499305725E0
9.366169271E0,-9.308080077E-1,3.885943890E0,8.583054543E0
9.370924532E0,-8.877372146E-1,3.885943890E0,8.623732567E0
9.375679792E0,-8.398807645E-1,3.897907972E0,8.647661209E0
9.380435105E0,-7.633104324E-1,3.895515203E0,8.626125336E0
9.385190365E0,-6.915257573E-1,3.914657831E0,8.592626572E0
9.389945626E0,-6.029912829E-1,3.960121393E0,8.590232849E0
9.394700938E0,-5.479564071E-1,4.003192425E0,8.621339798E0
9.399456198E0,-5.216353536E-1,4.029513359E0,8.666803360E0
9.404211459E0,-4.618147612E-1,4.072584152E0,8.767302513E0
9.408966771E0,-3.948157430E-1,4.134797573E0,8.898907661E0
9.413722032E0,-3.182454109E-1,4.182653904E0,9.040083885E0
9.418477292E0,-2.392822653E-1,4.225724697E0,9.171689034E0
9.423232605E0,-1.196411327E-1,4.254438877E0,9.276973724E0
9.427987865E0,-4.067798331E-2,4.275974274E0,9.367900848E0
9.432743178E0,0.000000000E0,4.275974274E0,9.430113792E0
9.437498438E0,5.503492057E-2,4.290330887E0,9.480362892E0
9.442253698E0,1.220339537E-1,4.295116425E0,9.528220177E0
9.447009011E0,1.411765367E-1,4.319045067E0,9.568898201E0
9.451764271E0,1.387837082E-1,4.352544308E0,9.616754532E0
9.456519532E0,1.316052526E-1,4.357329845E0,9.662218094E0
9.461274844E0,1.196411327E-1,4.374079704E0,9.693324089E0
9.466030105E0,8.614161611E-2,4.417150497E0,9.726823807E0
9.470785365E0,2.871387079E-2,4.412364960E0,9.779465675E0
9.475540626E0,-1.674975827E-2,4.386044025E0,9.812965393E0
9.480295938E0,-2.632104978E-2,4.319045067E0,9.774680138E0
9.485051198E0,-4.307080805E-2,4.199403763E0,9.633503914E0
9.489806511E0,-3.828516230E-2,4.060619831E0,9.382257462E0
9.494561771E0,-5.982056633E-2,3.926621914E0,9.073583603E0
9.499317032E0,-1.124626622E-1,3.790230989E0,8.738588333E0
9.504072344E0,-1.770688742E-1,3.713660717E0,8.439485550E0
9.508827605E0,-2.919243574E-1,3.672982693E0,8.226524353E0
9.513582865E0,-3.996013701E-1,3.670589924E0,8.133204460E0
9.518338126E0,-5.575276613E-1,3.728017569E0,8.106883049E0
9.523093438E0,-6.628118753E-1,3.778266907E0,8.190631866E0
9.527848698E0,-7.704889178E-1,3.862015724E0,8.298309326E0
9.532603959E0,-8.662018180E-1,3.885943890E0,8.453842163E0
9.537359271E0,-9.667003751E-1,3.976871252E0,8.614161491E0
9.542114532E0,-1.043270707E0,4.051048756E0,8.755337715E0
9.546869844E0,-1.081555843E0,4.110869408E0,8.877371788E0
9.551625105E0,-1.155733347E0,4.165904045E0,8.985049248E0
9.556380365E0,-1.215553880E0,4.216153622E0,9.099904060E0
9.561135626E0,-1.284945726E0,4.271188259E0,9.243474007E0
9.565890938E0,-1.354337573E0,4.326223373E0,9.394221306E0
9.570646198E0,-1.404586911E0,4.405186653E0,9.568898201E0
9.575401459E0,-1.430907965E0,4.443471432E0,9.753145218E0
9.580156771E0,-1.442872047E0,4.479363918E0,9.891928673E0
9.584912032E0,-1.421336651E0,4.496113777E0,9.937392235E0
9.589667292E0,-1.390229940E0,4.481756687E0,9.908679008E0
9.594422605E0,-1.347159147E0,4.419543266E0,9.801001549E0
9.599177865E0,-1.304088354E0,4.364508629E0,9.676574707E0
9.603933126E0,-1.217946768E0,4.304687977E0,9.499505997E0
9.608688438E0,-1.122233868E0,4.285545349E0,9.298508644E0
9.613443698E0,-1.004985452E0,4.199403763E0,9.090332985E0
9.618198959E0,-8.638089895E-1,4.132404804E0,8.843872070E0
9.622954219E0,-7.752745152E-1,4.053441525E0,8.599804878E0
9.627709532E0,-6.771687865E-1,3.986442566E0,8.355736732E0
9.632464792E0,-6.245267391E-1,3.957728624E0,8.171489716E0
9.637220105E0,-5.670989752E-1,3.950550079E0,8.020741463E0
9.641975365E0,-5.479564071E-1,3.950550079E0,7.905886173E0
9.646730626E0,-5.096712112E-1,4.003192425E0,7.872386456E0
9.651485886E0,-4.546363056E-1,4.060619831E0,7.929814339E0
9.656241198E0,-4.139583111E-1,4.137190342E0,8.073383331E0
9.660996459E0,-3.972085714E-1,4.242474556E0,8.279166222E0
9.665751719E0,-3.661018610E-1,4.314259052E0,8.559126854E0
9.670507032E0,-3.373879790E-1,4.398007870E0,8.884550095E0
9.675262292E0,-2.943171859E-1,4.462614059E0,9.224330902E0
9.680017553E0,-2.057827413E-1,4.498506546E0,9.525827408E0
9.684772865E0,-1.603191197E-1,4.510470867E0,9.812965393E0
9.689528126E0,-1.004985496E-1,4.498506546E0,1.006181908E1
9.694283386E0,-8.135596663E-2,4.469792843E0,1.026999474E1
9.699038646E0,-2.871387079E-2,4.426722050E0,1.042313576E1
9.703793959E0,7.178467698E-3,4.419543266E0,1.050927734E1
9.708549219E0,3.349951655E-2,4.328616142E0,1.058584690E1
9.713304480E0,3.349951655E-2,4.252045631E0,1.055952644E1
9.718059792E0,3.828516230E-2,4.173082829E0,1.048295593E1
9.722815053E0,0.000000000E0,4.077369690E0,1.028435135E1
9.727570313E0,-2.392822644E-3,3.960121393E0,9.994820595E0
9.732325573E0,-4.067798331E-2,3.871587038E0,9.631111145E0
9.737080886E0,-1.196411327E-1,3.747160196E0,9.260223389E0
9.741836146E0,-1.818545163E-1,3.684946775E0,8.903693199E0
9.746591407E0,-2.751746178E-1,3.646661758E0,8.633303642E0
9.751346719E0,-3.373879790E-1,3.596412420E0,8.324629784E0
9.756101980E0,-4.091726840E-1,3.565305710E0,7.989634991E0
9.760857240E0,-4.498506486E-1,3.579662561E0,7.757531166E0
9.765612501E0,-5.168496966E-1,3.582055569E0,7.590033531E0
9.770367813E0,-6.101697683E-1,3.622733593E0,7.482356548E0
9.775123073E0,-6.891329288E-1,3.704089403E0,7.456035137E0
9.779878334E0,-7.848458290E-1,3.823730469E0,7.544569969E0
9.784633646E0,-8.949156404E-1,3.950550079E0,7.733603001E0
9.789388907E0,-9.284151793E-1,4.103690624E0,8.020741463E0
9.794144167E0,-9.451649189E-1,4.244867325E0,8.391629219E0
9.798899428E0,-9.571290612E-1,4.376472473E0,8.791230202E0
9.803654740E0,-9.643075466E-1,4.488935471E0,9.142974854E0
9.808410001E0,-9.260223508E-1,4.589433670E0,9.439684868E0
9.813165261E0,-9.068797827E-1,4.642076015E0,9.683753014E0
9.817920573E0,-8.614161611E-1,4.670789719E0,9.870393753E0
9.822675834E0,-8.183453679E-1,4.694717884E0,1.002114105E1
9.827431094E0,-7.752745152E-1,4.687539577E0,1.010010433E1
9.832186355E0,-7.250252366E-1,4.670789719E0,1.014796066E1
9.836941667E0,-6.652047038E-1,4.646861553E0,1.018146038E1
9.841696928E0,-6.484549642E-1,4.610969067E0,1.014556789E1
9.846452188E0,-6.005984545E-1,4.555934429E0,1.007617569E1
9.851207448E0,-5.623133183E-1,4.512863636E0,9.966106415E0
9.855962761E0,-5.383850932E-1,4.438685894E0,9.815358162E0
9.860718021E0,-5.264210105E-1,4.352544308E0,9.604789734E0
9.865473282E0,-4.833501875E-1,4.247260094E0,9.327222824E0
