Time (s),Acceleration x (m/s^2),Acceleration y (m/s^2),Acceleration z (m/s^2)
9.003257564,8.982426043135362,-2.0753195883082345,-0.051697026980881695
9.008012981,9.987481127317423,-2.3732027910959532,0.09522952099173887
9.012768398,10.977085832067464,-2.6679559471922616,0.24070654227258323
9.017523762,11.9478881188442,-2.9588715177945515,0.38399162648612906
9.022279179,12.896555564032317,-3.2452460487097334,0.5243465562892746
9.027034596,13.819790918776993,-3.526382123380427,0.6610412370209188
9.031790012,14.714348026592853,-3.801590372842841,0.7933577477032253
9.036545429,15.57704803658327,-4.070191544391558,0.9205945182314278
9.041300794,16.4047958386556,-4.3315186288276974,1.0420706324602445
9.04605621,17.194596635584016,-4.584919044117731,1.1571302504415284
9.050811627,17.943572555699024,-4.829756871186258,1.2651471352551988
9.055567044,18.648979199750162,-5.065415135535661,1.3655292607865914
9.06032246,19.308222006291157,-5.291298126594774,1.4577234666685348
9.065077877,19.918872311863023,-5.506833745310525,1.541220115778917
9.069833241,20.478682975353625,-5.711475869574456,1.6155576985907691
9.074588658,20.985603430245742,-5.904706726488118,1.6803273178257605
9.079344075,21.437794024111454,-6.086039259886199,1.735176976959136
9.084099491,21.833639501797876,-6.255019480543767,1.7798155881384223
9.088854908,22.171761487417264,-6.411228784769167,1.8140166102838842
9.093610325,22.451029820565967,-6.554286224496788,1.8376212280086974
9.098365689,22.670572604105345,-6.683850708645441,1.8505409878848758
9.103121106,22.829784824331902,-6.799623111740504,1.8527598211124787
9.107876523,22.928335409722333,-6.90134826218253,1.844335400008395
9.112631939,22.966172602337128,-6.988816779796342,1.8253997973842226
9.117387356,22.94352752720905,-7.061866731068692,1.7961594392510847
9.122142721,22.86091586003271,-7.120385071143311,1.7568943592076687
9.126898137,22.71913751188763,-7.164308844162674,1.7079567758661807
9.131653554,22.519274270799812,-7.193626117612391,1.6497690231208326
9.136408971,22.262685363032247,-7.208376631523039,1.5828208682990441
9.141164387,21.951000921791476,-7.208652149317993,1.5076662565875933
9.145919804,21.586113377290424,-7.194596503395293,1.424919522488367
9.150675169,21.170166809248034,-7.166405334806491,1.335251110892977
9.155430585,20.70554433000066,-7.124325532183812,1.2393828518524597
9.160186002,20.194853592393894,-7.068654379847218,1.1380828343042684
9.164941419,19.64091054062152,-6.999738428317992,1.0321599249240143
9.169696835,19.046721543596057,-6.91797210197295,0.9224579789474884
9.174452252,18.4154640689932,-6.823796058236195,0.8098497903605963
9.179207616,17.750466071749404,-6.717695310720335,0.6952308293968924
9.183963033,17.05518428357844,-6.600197125559193,0.5795128158716333
9.18871845,16.333181600140012,-6.471868696553443,0.4636171774271222
9.193473866,15.588103769961922,-6.333314601568432,0.34846844197846155
9.198229283,14.823655594140911,-6.185174040669916,0.2349876131274488
9.2029847,14.04357684827961,-6.028117856228821,0.12408557579417981
9.207740064,13.251618138284133,-5.862845336783743,0.016656576971830674
9.212495481,12.45151689997808,-5.690080809661989,-0.08642817603511659
9.217250898,11.646973749346829,-5.510570031882159,-0.18432675952994232
9.222006314,10.841629385586689,-5.325076394225117,-0.2762325801117475
9.226761731,10.039042242588842,-5.134376959053631,-0.36138018454548054
9.231517148,9.242667075561156,-4.939258358021563,-0.4390507919300052
9.236272512,8.455834657929003,-4.74051258089282,-0.5085775052310506
9.241027929,7.681732749481937,-4.538932691059414,-0.5693501575724639
9.245783346,6.923388480125662,-4.33530850684554,-0.6208197495523845
9.250538762,6.18365227485582,-4.1304222901534695,-0.662502439186832
9.255294179,5.465183425246169,-3.925044485306284,-0.693983055302266
9.260049596,4.77043739168125,-3.719929551038391,-0.7149181151198203
9.264805012,4.101654899604609,-3.5158119275983464,-0.7250383344279656
9.269560377,3.460852872745799,-3.3134021790598314,-0.7241506235329649
9.274315794,2.8498172269564273,-3.113383348366561,-0.7121395650793938
9.27907121,2.2700975302535595,-2.9164075594970393,-0.6889683716819363
9.283826627,1.7230035182701062,-2.7230928975138684,-0.6546793224256494
9.288582044,1.2096034396970616,-2.534020593210087,-0.6093936779403325
9.29333746,0.7307241933401718,-2.349732534615635,-0.553311074331188
9.298092825,0.2869532067824907,-2.1707291228352177,-0.48670839712931624
9.302848241,-0.1213580039813069,-1.997467484653812,-0.4099381378471207
9.307603658,-0.4940886643972987,-1.8303600492010024,-0.3234262377732443
9.312359075,-0.8313420402622143,-1.6697734908399655,-0.22766942628725204
9.317114491,-1.1334372937166737,-1.5160280354343503,-0.12323206409493886
9.321869908,-1.4008999922219583,-1.3693971222998393,-0.01074250521515616
9.326625273,-1.6344513738145898,-1.2301074094985391,0.10911100487054963
9.331380689,-1.8349964789302502,-1.09833910571842,0.23558487387444282
9.336136106,-2.003611265700469,-0.9742266078564438,0.3678851255189058
9.340891523,-2.1415288317593446,-0.857859419683436,0.5051727522408822
9.345646939,-2.250124871071362,-0.7492833237203683,0.646569425842575
9.350402356,-2.330902498876021,-0.6485017758089113,0.7911635304247469
9.355157773,-2.3854765812987977,-0.5554774899096447,0.9380164782123992
9.359913137,-2.415557708266546,-0.47013417948061953,1.086169265235292
9.364668554,-2.4229359488869506,-0.3923584214161521,1.2346492203433745
9.369423971,-2.4094645272834674,-0.3220016089647459,1.3824768977903066
9.374179387,-2.3770435540234476,-0.25888196127120533,1.528673060676778
9.378934804,-2.3276039438714045,-0.20278655916389446,1.6722657000000918
9.383690221,-2.2630916448496317,-0.15347337949517628,1.8122970320209384
9.388445585,-2.1854522967073247,-0.11067330369616601,1.9478304152559116
9.393201002,-2.096616429062245,-0.07409208016053433,2.0779571277612696
9.397956419,-1.9984853008193773,-0.043412224531357076,2.201802945614983
9.402711835,-1.8929174731031748,-0.018294846797975953,2.318534464735605
9.407467252,-1.7817161979891831,0.0016186008609067359,2.4273651104527962
9.412222669,-1.6666176949386557,0.01670465654437549,2.5275607825506925
9.416978085,-1.5492803761925256,0.02735625770777661,2.618445087758927
9.42173345,-1.4312750716230385,0.033981218847892514,2.699404116724409
9.426488866,-1.3140762927951923,0.03700076606552719,2.7698907281629683
9.431244283,-1.1990545653493998,0.03684811369201608,2.829428308925232
9.4359997,-1.0874698483688967,0.03396706573125189,2.8776139848698277
9.440755116,-0.980466049247366,0.028810623070091475,2.9141212635093767
9.445510533,-0.8790666328594674,0.021839576232312474,2.938702095230152
9.45026595,-0.7841713147107943,0.01352106288785813,2.951188345384776
9.455021314,-0.6965538193462953,0.004327069384432442,2.9514926746455794
9.459776731,-0.6168606777363477,-0.005267143751121518,2.939608829619674
9.464532148,-0.5456110307045915,-0.01478471109923812,2.9156113498100567
9.469287564,-0.4831973997455479,-0.023748943309964448,2.8796547005376745
9.474042981,-0.4298873818185903,-0.03168523425433891,2.831971844464649
9.478798398,-0.38582622090017454,-0.038123106082448004,2.7728722670070995
9.483553814,-0.35104020619755044,-0.042598400772053166,2.70273947335978
9.488309179,-0.32544084487525266,-0.0446556233447036,2.622027977193792
9.493064596,-0.30882975574491667,-0.04385043829619768,2.5312598033744362
9.497820012,-0.30090422940959916,-0.039752316986130395,2.431020529270354
9.502575429,-0.301263399651135,-0.031947329820717366,2.3219548913764685
9.507330846,-0.30941497028384995,-0.020041073118965906,2.2047619860623353
9.512086262,-0.3247824412258068,-0.0036617166522710963,2.0801900953156505
9.516841627,-0.34671277716535054,0.017536845934267766,1.9490311704161993
9.521597044,-0.37448446193806184,0.0438717652065652,1.8121150085717432
9.52635246,-0.40731588157156207,0.07562794727235224,1.6703031596620024
9.531107877,-0.4443739788854766,0.11305473616465236,1.524482602321899
9.535863294,-0.4847831225272966,0.15636259784590642,1.3755592305925022
9.54061871,-0.5276341333419441,0.20571983885903583,1.2244511942390413
9.545374127,-0.5719934109604706,0.26124939482112514,1.0720821375633254
9.550129544,-0.6169121034129821,0.3230257258488614,0.919374383108905
9.554884908,-0.6614352624250559,0.39107185762038765,0.7672421080504146
9.559640325,-0.7046109268931698,0.46535660809166235,0.6165845622552417
9.564395741,-0.7454990769339556,0.5457920408572235,0.46827937799478986
9.569151158,-0.783180400965004,0.6322311867340501,0.32317602204948903
9.573906575,-0.8167648186117479,0.7244660753143184,0.18208944146566203
9.578661991,-0.8453997029577357,0.8222261179371747,0.04579395443704813
9.583417408,-0.8682777468663823,0.9251768827301308,-0.08498256234801363
9.588172773,-0.8846444198775067,1.0329193010404618,-0.2095641390598381
9.592928189,-0.8938049645634376,1.144989342709015,-0.32733178083471653
9.597683606,-0.8951308842215753,1.2608581952327165,-0.43772808995508794
9.602439023,-0.8880658773465496,1.379932978909802,-0.5402613950715572
9.607194439,-0.8721311783893007,1.5015580265471966,-0.6345093424901016
9.611949856,-0.8469302687722888,1.6250167522132801,-0.7201219070251214
9.616705273,-0.8121529268886034,1.7495341288232045,-0.7968237828280366
9.621460689,-0.7675785907839523,1.8742797890385239,-0.8644161179396973
9.626216054,-0.7130790123459663,1.998371758058754,-0.92277756007593
9.630971471,-0.6486201870719128,2.1208808204174203,-0.9718645853328514
9.635726887,-0.5742635488366208,2.2408355159389766,-1.0117110860814265
9.640482304,-0.4901664245245136,2.3572277526720793,-1.0424271992771401
9.645237721,-0.39658174891011955,2.4690190170295754,-1.064197361694127
9.649993137,-0.29385704573339505,2.5751471536943247,-1.0772775843416174
9.654748554,-0.1824326863522641,2.6745336802352258,-1.0819919455658442
9.659503971,-0.06283944221381332,2.7660915939087714,-1.0787283137918182
9.664259335,0.06430464897271693,2.8487336208417786,-1.0679333297695686
9.669014752,0.19829808133730198,2.9213808507935193,-1.0501067046715704
9.673770169,0.3383603199749195,2.982971694219026,-1.0257949192321774
9.678525585,0.4836368563220779,3.0324710927344087,-0.9955844329607527
9.683281002,0.6332048521893641,3.068879909570978,-0.9600945270826862
9.688036419,0.7860793405036736,3.0912444232488148,-0.919969910747553
9.692791835,0.9412199453500473,3.098665845393111,-0.8758732199053287
9.697547252,1.097538077973125,3.09030978219796,-0.8284775344664035
9.702302616,1.2539045595548266,3.0654155583716434,-0.778459033247214
9.707058033,1.4091576161762494,3.023305322368041,-0.7264898983596426
9.71181345,1.562111186563208,2.9633928522326665,-0.6732315713891301
9.716568866,1.711563479050873,2.8851919823795447,-0.6193284530254073
9.721324283,1.8563057106679746,2.788324572966506,-0.5654021257957739
9.7260797,1.9951309583065593,2.672527945152337,-0.5120461662533347
9.730835116,2.1268430495933823,2.537661707326469,-0.45982159851717597
9.735590481,2.2502654193177896,2.383713899369552,-0.4092530256643246
9.740345898,2.364249856125904,2.2108063841406826,-0.36082545941741984
9.745101314,2.4676850637147507,2.0191994177380845,-0.3149818521822516
9.749856731,2.5595049610221476,1.8092953327237034,-0.27212131912975124
9.754612148,2.638696646978466,1.5816412715532229,-0.2325980220994079
9.759367564,2.704307957310418,1.336930911054271,-0.19672067207431437
9.764122981,2.755454543653625,1.076005123099952,-0.1647525932855788
9.768878398,2.7913264087539624,0.799851521760232,-0.13691228005813266
9.773633762,2.811193835711942,0.5096028532298256,-0.11337436790977054
9.778389179,2.8144126540964276,0.20653419162796624,-0.09427093470577859
9.783144596,2.8004287917154214,-0.10794108896316008,-0.07969304894834245
9.787900012,2.7687820685139903,-0.43227658853504264,-0.06969249350867984
9.792655429,2.7191091987754468,-0.7647994164495693,-0.06428361312851166
9.797410846,2.6511459789662597,-1.1037179959938712,-0.06344525605002702
9.802166262,2.5647286499636754,-1.4471311382844168,-0.06712279625071829
9.806921679,2.4597944330004413,-1.7930383763192976,-0.07523022966971572
9.811677096,2.3363812482004924,-2.13935153894143,-0.08765233763053243
9.81643246,2.1946266334613997,-2.483907531638225,-0.1042469074868129
9.821187877,2.03476589019641,-2.824482276556998,-0.12484699754410256
9.825943294,1.857129491340124,-3.1588057479895966,-0.14926323212618695
9.83069871,1.6621397958865143,-3.484578022009719,-0.17728611343544948
9.835454127,1.4503071225645503,-3.799486240103891,-0.20868833876083573
9.840209544,1.2222252424666116,-4.101222366801487,-0.24322711338502312
9.84496496,0.9785663561049879,-4.387501600932998,-0.28064645032731056
9.849720377,0.7200756243702104,-4.656081279866592,-0.3206794476018208
9.854475794,0.4475653253559341,-4.904780096669196,-0.36305053228936657
9.859231158,0.1619087102770635,-5.1314974324591,-0.4074776589438863
9.863986575,-0.13596636799067252,-5.334232591101944,-0.45367444819219027
9.868741991,-0.44508398068369476,-5.511103711592449,-0.5013522502706373
9.873497408,-0.7644267312529313,-5.660366125542102,-0.550222118007364
9.878252825,-1.0929423753777139,-5.780429923585957,-0.5999966745763169
9.883008241,-1.4295503843619202,-5.8698764955436635,-0.6503918631679654
9.887763658,-1.7731483854284469,-5.927473815020348,-0.7011285682967009
9.892519075,-2.1226184145078273,-5.952190249866037,-0.7519341014873135
9.897274439,-2.476832919219149,-5.943206695449591,-0.8025435472769871
9.902029856,-2.834660451995445,-5.899926847888728,-0.8527009685802133
9.906785273,-3.1949709959380277,-5.821985459006279,-0.9021604732200307
9.911540689,-3.5566408692392457,-5.709254443571972,-0.9506871455785942
9.916296106,-3.9185571581136784,-5.561846741912893,-0.9980578486950601
9.921051523,-4.279621633350702,-5.3801178765711315,-1.0440619026489206
9.925806939,-4.638754112117646,-5.1646651793604565,-1.0885016446503017
9.930562356,-4.994895234798705,-4.916324703568562,-1.131192874871689
9.935317721,-5.347008636641476,-4.63616587354333,-1.1719651897103687
9.940073137,-5.69408250568487,-4.3254839588498095,-1.2106622010076042
9.944828554,-6.03513053135616,-3.9857904912175015,-1.2471416362858505
9.949583971,-6.369192261565138,-3.618801768634771,-1.2812753126437677
9.954339387,-6.695332899535966,-3.2264256115450047,-1.312948977664756
9.959094804,-7.012642584650254,-2.810746550864939,-1.3420620159743923
9.963850221,-7.3202352138952325,-2.3740096367536214,-1.3685270289148903
9.968605637,-7.617246871723001,-1.9186030616894005,-1.3922693038392149
9.973361054,-7.902833945904799,-1.447039792866736,-1.413226195293989
9.978116471,-8.176171015147895,-0.9619384084701402,-1.431346441373054
9.982871835,-8.436448600764512,-0.46600333075678824,-1.446589435547811
9.987627252,-8.68287087945876,0.03799535369302233,-1.4589244692543175
9.992382669,-8.914653457210733,0.5472422997618953,-1.46832995541896
9.997138085,-9.131021305182756,1.0588973534824813,-1.4747926393503028
10.0018935,-9.331206957522754,1.570115869329576,-1.4783068016942995
10.00664892,-9.514449067985176,2.0780687258815935,-1.4788734584479284
10.01140434,-9.67999141763405,2.5799618788973295,-1.4764995648808208
10.01615975,-9.827082459766942,3.073055300314418,-1.4711972329379086
10.02091517,-9.954975480748463,3.554681162237438,-1.462982974613468
10.02567053,-10.062929446679064,4.022261136532992,-1.4518769863766086
10.03042595,-10.150210595685868,4.473322693042691,-1.4379024916681615
10.03518137,-10.216094824068946,4.9055142925094755,-1.4210851596310126
10.03993678,-10.25987090160529,5.316619383941415,-1.4014526185594947
10.0446922,-10.280844537096852,5.7045691301634935,-1.3790340821356353
10.04944762,-10.27834329986172,6.067453799567456,-1.3538601055040074
10.05420303,-10.251722386434876,6.403532776374518,-1.3259624867611306
10.05895845,-10.200371204436227,6.711243155875459,-1.2953743275500775
10.06371381,-10.12372072762268,6.989206904915875,-1.262130264095666
10.06846923,-10.021251557888263,7.236236581184883,-1.2262668770855214
10.07322465,-9.892502611784725,7.4513396175062,-1.1878232852438217
10.07798006,-9.737080331420403,7.633721189203947,-1.1468419233027474
10.08273548,-9.554668302827109,7.782785693608099,-1.103369500483182
10.0874909,-9.345037149587846,7.89813688075181,-1.0574581307362152
10.09224631,-9.108054556220424,7.979576683163146,-1.0091666210708887
10.09700173,-8.843695264957699,8.027102800253454,-0.9585618994661879
10.10175715,-8.55205088144401,8.040905099090383,-0.9057205592250466
10.10651251,-8.233339319610668,8.021360898322689,-0.850730492196029
10.11126793,-7.887913713618263,7.969029205774565,-0.7936925790689691
10.11602335,-7.516270625207866,7.8846439828823165,-0.7347224009784832
10.12077876,-7.1190573779904875,7.769106510871597,-0.6739519329993349
10.12553418,-6.6970783560015015,7.623476934549418,-0.6115311768952226
10.1302896,-6.251300112120801,7.448965059987193,-0.5476296878104288
10.13504501,-5.782855142583586,7.246920482347811,-0.4824379476058307
10.13980043,-5.293044196676194,7.018822119767019,-0.41616853637426243
10.14455579,-4.7833370057489795,6.766267228604304,-0.3490570534540088
10.14931121,-4.255371332818582,6.490959974573827,-0.28136274010922263
10.15406663,-3.7109502631882734,6.194699633284072,-0.21336875806958067
10.15882204,-3.1520376775468004,5.879368492583012,-0.1453820814085526
10.16357746,-2.580751871702751,5.546919527846636,-0.07773296382806094
10.16833288,-1.9993573111976737,5.199363919983877,-0.010773949264607173
10.17308829,-1.4102545341890473,4.838758484484304,0.055121599267075654
10.17784371,-0.8159682418139739,4.467193078333397,0.11956146964279554
10.18259913,-0.21913364123322412,4.086778050085907,0.1821370774918241
10.18735454,0.377518867928907,3.6996317968354924,0.24242644818965242
10.19210996,0.9711805486738535,3.307868490265605,0.29999769149784183
10.19686533,1.5589825855094355,2.91358603243634,0.35441294475013196
10.20162074,2.1380155887156302,2.518854300466155,0.40523274796561315
10.20637616,2.7053501670240085,2.1257037377726222,0.4520208009703142
10.21113158,3.258058375318241,1.7361143479496133,0.49434903886368703
10.21588699,3.793235829740969,1.3520051455483297,0.5318029485795578
10.22064241,4.308024270675974,0.9752241158886201,0.563987036701942
10.22539782,4.799634344613326,0.6075387335651199,0.5905303480866329
10.23015324,5.265368369014949,0.2506270867254535,0.6110919272365876
10.23490866,5.702642839958839,-0.0939303481871889,0.625366110791477
10.23966402,6.109010440381414,-0.4246582384456063,0.6330875408466191
10.24441944,6.482181306976721,-0.7401931924430337,0.6340357957809194
10.24917486,6.820043316274681,-1.0392897823740284,0.6280395478687398
10.25393027,7.120681155488689,-1.3208257537167438,0.6149801741209925
10.25868569,7.382393952054962,-1.5838063857287576,0.594794766362432
10.26344111,7.603711247981677,-1.8273679714093762,0.5674785057999671
10.26819652,7.783407121322605,-2.0507803913793805,0.5330863840265225
10.27295194,7.92051227686571,-2.2534487637675125,0.49173426545370835
10.27770736,8.014323950840517,-2.434914161159371,0.44359929567591116
10.28246277,8.06441349964885,-2.594853395605761,0.38891966705809305
10.28721819,8.07063157011849,-2.7330778832825553,0.3279937579302559
10.29197355,8.033110778390354,-2.8495316113307596,0.26117866605840323
10.29672897,7.952265855889245,-2.9442882403176704,0.18888816117101362
10.30148439,7.82879125325936,-3.0175473861768816,0.11159008556846113
10.3062398,7.6636562258619145,-3.0696301348340445,0.029803236253665755
10.31099522,7.458097456536719,-3.1009738504107163,-0.05590623360547904
10.31575064,7.213609301910214,-3.1121263434203237,-0.14492885203268185
10.32050605,6.931931776783006,-3.1037394684215776,-0.2366162591089544
10.32526147,6.615036416493252,-3.0765622211025163,-0.3302859832689442
10.33001689,6.265110179394802,-3.0314334028985357,-0.4252265128661499
10.3347723,5.8845375707725225,-2.9692739174314853,-0.5207026113774792
10.33952767,5.475881185901221,-2.891078758044894,-0.6159608237030006
10.34428308,5.041860883829035,-2.7979087405310517,-0.7102351206922684
10.3490385,4.585331814910583,-2.690882030843155,-0.8027526295294031
10.35379392,4.109261533838036,-2.571165514861457,-0.8927393993640171
10.35854934,3.6167064354308645,-2.43996605633542,-0.9794261549587275
10.36330475,3.1107877525478282,-2.29852168977079,-1.062053996037635
10.36806017,2.59466735457436,-2.1480927968983092,-1.1398800056825673
10.37281559,2.0715235817174853,-1.9899533179862463,-1.2121827363773208
10.377571,1.5445273452149004,-1.8253820521334432,-1.2782675461888389
10.38232642,1.016818716392324,-1.6556541033159096,-1.3374717596513666
10.38708178,0.49148421786869145,-1.4820325309635223,-1.3891696281501675
10.3918372,-0.028464982175405253,-1.3057602649428417,-1.4327770632524621
10.39659262,-0.5401137868849589,-1.1280523448587454,-1.467756114242062
10.40134803,-1.0406626306710174,-0.9500885424743857,-1.493619159437242
10.40610345,-1.5274455340080353,-0.7730064237194842,-1.5099327811999785
10.41085887,-1.9979466265496546,-0.597894903162502,-1.5163212974295532
10.41561428,-2.4498150347255807,-0.4257883389986082,-1.5124699268632191
10.4203697,-2.880878052883894,-0.2576612107302862,-1.4981275701392516
10.42512512,-3.289152539349045,-0.09442341508142342,-1.4731091923354025
10.42988053,-3.6728544997808923,0.06308379139931125,-1.4372977953651567
10.4346359,-4.030406839368041,0.21409118188278964,-1.3906459702469354
10.43939131,-4.360445282361162,0.35790426717192303,-1.3331770199769892
10.44414673,-4.661822472348706,0.49390531566600676,-1.2649856438436664
10.44890215,-4.933610279909225,0.6215546866088403,-1.1862381739815635
10.45365756,-5.175100356298841,0.7403914854203276,-1.0971723552125443
10.45841298,-5.385802982958972,0.8500335573516088,-0.9980966600539408
10.4631684,-5.56544427699354,0.950176842843193,-0.8893891323290112
10.46792381,-5.713961822400326,1.040594124660004,-0.7714957550702297
10.47267923,-5.831498805768774,1.1211332030319165,-0.6449283412348972
10.4774346,-5.918396743436829,1.1917145405871183,-0.5102619490051743
10.48219001,-5.975186894834598,1.2523284237884795,-0.36813182700029207
10.48694543,-6.002580464034834,1.3030316918279028,-0.21922989850392988
10.49170085,-6.001457698424328,1.343944087452378,-0.06430079776261999
10.49645626,-5.972855999851569,1.3752442869435253,0.09586252445969813
10.50121168,-5.917957169431072,1.397165668413119,0.2604236045718344
10.5059671,-5.838073912151105,1.4099918786740497,0.42850765311485606
10.51072251,-5.734635731270625,1.4140522591558966,0.5992070944368494
10.51547793,-5.609174344967045,1.409717190613188,0.7715874239212784
10.52023335,-5.463308758647084,1.3973934146954776,0.9446933430480359
10.52498876,-5.298730125699078,1.3775193878123966,1.1175551281513498
10.52974413,-5.117186527301998,1.3505607191594151,1.2891951846013452
10.53449954,-4.920467798364605,1.3170057403114432,1.4586347344454706
10.53925496,-4.710390521934236,1.2773612484955996,1.6249005824794371
10.54401038,-4.488783308644651,1.2321484595978756,1.7870319034171034
10.54876579,-4.257472471058354,1.1818992002494295,1.9440869913752858
10.55352121,-4.018268195161328,1.1271523611300358,2.0951499123122783
10.55827663,-3.772951302887468,1.0684506261318099,2.23933700037304
10.56303204,-3.523260690566897,1.0063374845144901,2.3758031403275757
10.56778746,-3.2708815188358575,0.9413545259449976,2.5037477804712016
10.57254288,-3.0174342200229956,0.8740390116176727,2.622420623468082
10.57729824,-2.764464379477351,0.8049217087131015,2.7311269465549723
10.58205371,-2.513433537802818,0.7345249704220052,2.8292325070956705
10.58680908,-2.2657109515568115,0.6633610397214867,2.916167994489341
10.59156449,-2.022566340704402,0.5919305520764699,2.9914329947329166
10.59631991,-1.785163642061166,0.5207212102427322,3.0545994394148948
10.60107532,-1.5545557791995634,0.4502066033331009,3.1053145164855724
10.60583074,-1.3316804509390365,0.3808451422101897,3.1433030256921044
10.61058616,-1.1173569326917443,0.3130790839923758,3.168369166924778
10.61534158,-0.9122838776862213,0.24733361988830885,3.1803977547031055
10.62009699,-0.7170380985258666,0.18401600259495665,3.1793548564811207
10.62485241,-0.5320743037426694,0.12351469201272804,3.16528785633597
10.62960777,-0.3577257590502225,0.06619850097086342,3.138324949044341
10.63436319,-0.19420583889704782,0.012415725919170227,3.098674072761442
10.63911861,-0.04161043058111656,-0.03750674901925599,3.0466212916804283
10.64387402,0.1000788495743134,-0.08326438281296947,2.9825286432345086
10.64862944,0.23099067087097302,-0.12457594805089171,2.90683146756388
10.65338486,0.35135927877297135,-0.16118454327358578,2.820035240006679
10.65814027,0.4615191084402843,-0.1928586466226247,2.7227119302006946
10.66289569,0.5618987703258042,-0.2193932081790716,2.6154959139581426
10.66765111,0.6530144587899462,-0.24061077655063612,2.4990794663989497
10.67240652,0.735462836516628,-0.256362653725978,2.3742078669253104
10.67716189,0.8099134492960283,-0.26653007087512426,2.241674148530419
10.6819173,0.8771007274816839,-0.2710253765634806,2.1023135256970122
10.68667272,0.937815632155193,-0.2697932276886679,1.9569975367946355
10.69142814,0.9928970057577333,-0.26281177227883035,1.8066279384683486
10.69618355,1.0432226886417744,-0.25009381206085735,1.6521303910643128
10.70093897,1.0897004645715442,-0.23168793139081084,1.494447975681703
10.70569439,1.1332588995495274,-0.20767957773352125,1.334534584969732
10.7104498,1.1748381393719933,-0.17819207740813706,1.1733482312688537
10.71520522,1.215380731938987,-0.14338756883152773,1.0118443170767892
10.71996064,1.2558225404955146,-0.10346783405402891,0.8509689140579533
10.72471605,1.2970838136094125,-0.05867500804865993,0.6916520978805701
10.72947147,1.3400604767677886,-0.00929214403065243,0.5348013870395593
10.73422684,1.3856157089843613,0.04435638790809416,0.3812953344769738
10.73898225,1.4345718657480533,0.10190469231537885,0.23197732119698064
10.74373767,1.4877028070113845,0.16294535397232165,0.08764960112357464
10.74849309,1.5457266857320615,0.22702968163263965,-0.05093235389628295
10.7532485,1.6092992487666269,0.2936682137898346,-0.18306516081926377
10.75800392,1.6790076976962998,0.36233150983432477,-0.3081024369478545
10.76275934,1.7553651524773817,0.4324512490903854,-0.42545927099750025
10.76751475,1.8388057557051924,0.503421658961878,-0.5346162104133472
10.77227017,1.9296804498232163,0.5746012917100393,-0.6351227240489704
10.77702558,2.0282534538512924,0.6453151671706938,-0.7266001020517017
10.78178095,2.1346994601909586,0.7148572959373917,-0.8087437578355487
10.78653637,2.249101565836346,0.7824935941664117,-0.8813249003215756
10.79129178,2.3714499459286076,0.8474651972155877,-0.9441915481525177
10.7960472,2.5016412710971454,0.9089921748724369,-0.9972688613071423
10.80080262,2.6394788634795927,0.9662776460633243,-1.0405587693989173
10.80555803,2.7846735797472495,1.0185122858069298,-1.0741388798898348
10.81031345,2.936845402953069,1.0648792119408965,-1.0981606535130175
10.81506887,3.09552571873541,1.1045592339414667,-1.1128468388370971
10.81982428,3.2601602457725294,1.1367364410098855,-1.1184881649027651
10.82457965,3.4301125861790918,1.1606041014277997,-1.1154393038270052
10.82933506,3.604668359601703,1.17537083988792,-1.1041141373244399
10.83409048,3.783039885127908,1.180267054221296,-1.0849803903064472
10.8388459,3.9643713765103485,1.1745515281221635,-1.0585537232805986
10.84360131,4.147744616851352,1.1575181926087281,-1.0253913952220903
10.84835673,4.332185077798629,1.1285029862140268,-0.9860856175329104
10.85311215,4.516668445678785,1.0868907620365864,-0.9412567203422052
10.85786756,4.700127513663315,1.0321221883918974,-0.8915462484558897
10.86262298,4.881459395754624,0.9637005885565821,-0.8376100980600755
10.8673784,5.059533015495571,0.8811986637917381,-0.7801117977786494
10.87213381,5.233196819979967,0.7842650423867836,-0.719716029191686
10.87688918,5.40128666795063,0.6726305958768041,-0.6570824725362263
10.8816446,5.562633839395935,0.5461144619175538,-0.59286005304911
10.88640001,5.7160731129368205,0.40462971166526235,-0.5276816522354312
10.89115543,5.860450856307566,0.24818859803936635,-0.4621593362209718
10.89591085,5.994633074329619,0.07690732008620296,-0.39688014032627417
10.90066626,6.117513357996451,-0.10898976204829368,-0.33240243528444186
10.90542168,6.228020677731575,-0.3091665271512847,-0.26925288645646656
10.9101771,6.3251269636917025,-0.5231721730092246,-0.20792400340617703
10.91493251,6.4078544162983215,-0.7504390401502933,-0.1488722637268376
10.91968793,6.475282491074397,-0.9902812406701959,-0.09251678245515559
10.92444329,6.526554503341758,-1.2418941504522332,-0.03923848705955887
10.92919871,6.560883800356486,-1.504354819159473,0.010620251919591374
10.93395413,6.5775594510329505,-1.7766233476626574,0.05675559253296012
10.93870954,6.5759514067565465,-2.057545277180257,0.09890185834215305
10.94346496,6.555515091449702,-2.3458550285136623,0.1368309035285557
10.94822038,6.515795385619696,-2.640180423476867,0.17035126255993235
10.95297579,6.4564299775633955,-2.9390483137870604,0.1993071287069405
10.95773121,6.377152064242674,-3.2408913347627015,0.22357719201129594
10.96248663,6.277792393121409,-3.544055791482587,0.24307335629834825
10.96724204,6.158280643512017,-3.8468106731550944,0.25773934846268076
10.97199741,6.018646151668902,-4.147357777330387,0.2675492309094061
10.97675282,5.859017988483906,-4.443842909577353,0.2725058281246523
10.98150824,5.6796244026878835,-4.7343681067708445,0.27263907967552686
10.98626366,5.480791646239342,-5.017004813630776,0.26800433390950207
10.99101908,5.26294220223526,-5.289807923063647,0.258680598940378
10.99577449,5.026592439313166,-5.550830571649615,0.24476876989575672
11.00052991,4.772349720209462,-5.798139562812908,0.22638985349796414
11.00528533,4.500908995910079,-6.029831272379568,0.20368321244844426
11.01004074,4.21304892055159,-6.244047874968921,0.17680485243647123
11.01479616,3.909627525637356,-6.438993715594357,0.1459257737106528
11.01955158,3.5915774949316894,-6.612951639542419,0.11123040705553507
11.02430694,3.2599010834452664,-6.764299085554676,0.07291515089663873
11.02906236,2.9156647253238073,-6.891523742928932,0.031187022400646875
11.03381777,2.5599933764569274,-6.993238572614275,-0.013737568849223216
11.03857319,2.19406463851503,-7.068195995780856,-0.061633920455016956
11.04332861,1.8191027121124563,-7.115301060643013,-0.11227001027538314
11.04808402,1.4363722279895605,-7.133623409325277,-0.16540734722339825
11.05283944,1.047172006480845,-7.1224078810289555,-0.22080170771082147
11.05759486,0.652828796948336,-7.081083605398975,-0.2782037688494516
11.06235027,0.2546910500884169,-7.0092714605190505,-0.3373596522128046
11.06710569,-0.14587722319201865,-6.906789793064469,-0.39801139414817066
11.07186105,-0.5475024525563532,-6.773658323415309,-0.4598973602825174
11.07661647,-0.9488073157993172,-6.610100185424616,-0.5227526229119348
11.08137189,-1.3484163024452371,-6.41654207831274,-0.586309320295484
11.0861273,-1.7449609862569877,-6.193612535953844,-0.6502970163841728
11.09088272,-2.137084964801288,-5.942138345730556,-0.714443078118583
11.09563814,-2.5234484311418135,-5.66313917432954,-0.7784730850482692
11.10039355,-2.902732351078528,-5.357820480672486,-0.8421112825799657
11.10514897,-3.273642228707804,-5.027564816176485,-0.9050810855641995
11.10990439,-3.6349114529595066,-4.673921629474579,-0.9671056331445389
11.1146598,-3.9853042277066977,-4.298595706516788,-1.0279083890686742
11.11941517,-4.323618097698323,-3.9034343876068434,-1.08721377511641
11.12417058,-4.648686091855911,-3.4904137103987365,-1.1447478213807953
11.128926,-4.959378514542921,-3.061623632185381,-1.2002388185826098
11.13368142,-5.254604424279145,-2.619252486181162,-1.253417964883868
11.13843684,-5.533312847669283,-2.16557082556772,-1.3040200097345314
11.14319225,-5.794493783532673,-1.7029148067836057,-1.3517839056186804
11.14794767,-6.037179058126436,-1.2336692607651478,-1.3964534824133727
11.15270308,-6.260443097009199,-0.7602505980728357,-1.4377781585234208
11.1574585,-6.463403682504139,-0.2850896911254263,-1.4755136997542715
11.16221392,-6.645222767633259,0.1893851261051508,-1.509423032985538
11.16696928,-6.805107417415141,0.6607648039442481,-1.5392771185532337
11.1717247,-6.942310946239936,1.1266759355973097,-1.5648558835858255
11.17648012,-7.056134315562781,1.5847966009092473,-1.585949218421652
11.18123553,-7.145927849505822,2.0328715742149917,-1.6023580391547316
11.18599095,-7.2110933173962115,2.4687267828928854,-1.6138954205136073
11.19074637,-7.251086422129538,2.8902829120670224,-1.6203878039208042
11.19550178,-7.265419721856727,3.2955680607185123,-1.6216762852519533
11.2002572,-7.253666000099383,3.6827293650708444,-1.6176179854128308
11.20501262,-7.21546208618996,4.050043516323929,-1.6080875045363914
11.20976803,-7.150513114068732,4.395926111455713,-1.5929784576434092
11.21452345,-7.058597193116963,4.718939787745364,-1.572205086294672
11.21927881,-6.9395704500654976,5.017801103776541,-1.5457039373248251
11.22403423,-6.793372386342849,5.2913861418428665,-1.513435596331458
11.22878965,-6.620031480825156,5.5387348187877254,-1.4753864602375037
11.23354506,-6.419670954174094,5.7590539042467555,-1.431570529922977
11.23830048,-6.192514598174651,5.951718756897732,-1.3820312006044844
11.2430559,-5.938892562098547,6.1162738005333885,-1.3268430243447047
11.24781131,-5.659246978501384,6.25243177243304,-1.2661134158701752
11.25256673,-5.354137303360552,6.360071786485899,-1.1999842698685834
11.25732215,-5.024245240353183,6.439236262668668,-1.1286334552283124
11.26207756,-4.670379116529086,6.490126782662102,-1.0522761493384079
11.26683293,-4.293477576710351,6.513098938494518,-0.971165973607262
11.27158835,-3.8946124666166453,6.508656247066815,-0.8855958897901971
11.27634376,-3.4749907798966313,6.477443208253377,-0.7958988155828391
11.28109918,-3.0359555518660133,6.420237588055611,-0.7024479173526665
11.2858546,-2.578985592767394,6.337942011108301,-0.6056565380292742
11.29061001,-2.1056939657486238,6.231574948800621,-0.5059777192712355
11.29536543,-1.6178251294427932,6.102261190458839,-0.40390327926377456
11.30012085,-1.1172506818803563,5.951221885523902,-0.2999624109846315
11.30487626,-0.6059636612339059,5.779764244521559,-0.19471977051165965
11.30963168,-0.08607137928570327,5.589270985943225,-0.08877303087051297
11.3143871,0.44021321480520653,5.381189614999674,0.017250116039689747
11.31914246,0.9705816202089882,5.157021618618178,0.12269551878916733
11.32389788,1.5026412761793375,4.918311659033053,0.22688668718134214
11.32865329,2.0339283932793406,4.666636845849034,0.32912946429680223
11.33340871,2.56192203513312,4.403596163509979,0.4287172282718318
11.33816413,3.0840593408596972,4.130800127664067,0.5249365897919741
11.34291954,3.597751759358416,3.849860739960846,0.6170735378946784
11.34767496,4.100402149700905,3.562381806300404,0.7044199727038697
11.35243038,4.58942258705134,3.2699496784026265,0.7862805496609547
11.35718579,5.062252700774376,2.9741244727007587,0.8619797462854035
11.36194116,5.5163783607226,2.6764318140141286,0.9308690501761717
11.36669658,5.94935051916029,2.378355144458354,0.9923341565973609
11.37145199,6.358804009393975,2.081328631068391,1.0458020564035906
11.37620741,6.742476097936348,1.7867306991632288,1.0907478911786532
11.38096283,7.098224584922678,1.4958782129267203,1.1267014532784558
11.38571824,7.4240452475424865,1.2100213200712504,1.1532532148666652
11.39047366,7.718088423524644,0.9303389735460913,1.1700597823971093
11.39522908,7.978674536464396,0.6579351395811828,1.176848690765724
11.39998449,8.204308372476635,0.3938356973285745,1.1734224727553282
11.40473991,8.39369192889292,0.13898603041786242,1.1596619617001163
11.40949532,8.545735670902738,-0.10575069547031911,1.1355288056250914
11.41425069,8.659568051090078,-0.3395945824168265,1.1010671874422702
11.41900611,8.73454316911751,-0.5618493994154418,1.0564047574888364
11.42376152,8.770246473521997,-0.7719023619976793,1.001752792332166
11.42851694,8.766498434017116,-0.9692233328367257,0.9374055984475544
11.43327236,8.723356140386977,-1.1533634929656185,0.8637391822574934
11.43802777,8.641112812606611,-1.3239535417069581,0.7812092101008539
11.44278319,8.520295235690714,-1.4807014907649731,0.6903482836749524
11.44753861,8.361659161224816,-1.6233901237039023,0.5917625587037398
11.45229402,8.166182744756519,-1.7518741957545063,0.4861277370975741
11.45704939,7.935058113500344,-1.8660774501545072,0.3741844656501264
11.4618048,7.669681181609056,-1.9659895258042728,0.25673317734712964
11.46656022,7.371639850218027,-2.051662826861025,0.1346284146471165
11.47131564,7.042700746291331,-2.12320941810072,0.008772677638436619
11.47607105,6.6847946677401815,-2.18079800063531,-0.11989015624319707
11.48082647,6.300000912136689,-2.224651011165642,-0.25038179029184837
11.48558189,5.890530672480338,-2.2550418747791947,-0.3816967897031907
11.4903373,5.458709685904293,-2.272292426893958,-0.512810127100888
11.49509272,5.006960320168131,-2.2767705049441593,-0.6426849297906203
11.49984814,4.537783278812199,-2.268887695562944,-0.7702803625846667
11.50460355,4.053739099755595,-2.2490972092060884,-0.8945595772040404
11.50935892,3.557429614717107,-2.217891842207464,-1.014497657651894
11.51411434,3.051479528634522,-2.175801976792487,-1.1290894911691982
11.51886975,2.5385182694637023,-2.1233935630093628,-1.237357496690222
11.52362517,2.0211622495444375,-2.061266023130003,-1.3383591465445452
11.52838058,1.5019976704032614,-1.9900500189906236,-1.4311942212488205
11.533136,0.9835639935966269,-1.9104050261047636,-1.5150117405118553
11.53789142,0.4683381908962901,-1.823016665304987,-1.5890165159685696
11.54264684,-0.041280122424415464,-1.7285937532404145,-1.6524752738074413
11.54740225,-0.5429825773360206,-1.6278650471270628,-1.7047223001641587
11.55215767,-1.0345648802098737,-1.521575675956409,-1.745164570050146
11.55691303,-1.5139385084887675,-1.4104832683107562,-1.7732863308392606
11.56166845,-1.9791412114660845,-1.2953538039182861,-1.7886531214284564
11.56642387,-2.428346267227649,-1.1769572303645626,-1.7909152157157666
11.57117928,-2.8598704600303586,-1.0560628971914865,-1.7798104831591377
11.5759347,-3.272180755793353,-0.9334348670986322,-1.7551666605207197
11.58069012,-3.663899666283502,-0.8098271686760442,-1.7169030286756677
11.58544553,-4.033809304445896,-0.6859790575955088,-1.6650314876908232
11.59020095,-4.380854143866577,-0.562610353837536,-1.599657023013359
11.59495637,-4.704142504528928,-0.44041692153006023,-1.520977555930434
11.59971178,-5.0029467950124715,-0.32006635543968964,-1.4292831725828452
11.60446715,-5.276702548363783,-0.20219393420990753,-1.3249547277345057
11.60922256,-5.52500629534139,-0.08739889523888542,-1.2084618221775427
11.61397798,-5.7476123248589195,0.02375892019749849,-1.0803601560314098
11.6187334,-5.944428387412718,0.13076201018623276,-0.94128826418067
11.62348881,-6.115510403194701,0.2331377103914709,-0.7919636445621946
11.62824423,-6.261056242505404,0.33046022250360113,-0.6331782948113701
11.63299965,-6.381398651981429,0.42235215732843817,-0.4657936777682306
11.63775506,-6.476997405949684,0.5084855863704565,-0.2907351414245835
11.64251048,-6.548430767757461,0.5885826052994294,-0.10898582401337684
11.6472659,-6.5963863509835,0.6624154220813366,0.07841991990103574
11.65202126,-6.621651474759792,0.7298059915591802,0.27040353126964994
11.65677668,-6.625103110779279,0.7906252266215955,0.46584965005171947
11.6615321,-6.607697521730593,0.844791823518908,0.6636138588750218
11.66628751,-6.570459691771378,0.8922707451320719,0.8625307103241189
11.67104293,-6.514472649202378,0.933071410893704,1.0614219764507606
11.67579835,-6.4408667797797055,0.9672456454902767,1.2591050544655613
11.68055376,-6.3508092261806475,0.9948854403635262,1.4544014582060325
11.68530918,-6.245493465112646,1.0161205823142658,1.6461453209682584
11.6900646,-6.126129148541873,1.0311162021365978,1.8331918318005052
11.69482001,-5.993932289664787,1.040070293130432,2.0144255246449285
11.69957538,-5.850115867717633,1.043211244547554,2.1887683381349468
11.70433079,-5.69588091866361,1.040795428591957,2.3551873638347236
11.70908621,-5.5324081713262485,1.0331048717081888,2.5127022026595665
11.71384163,-5.360850280713563,1.0204450318811085,2.660391853445798
11.71859704,-5.182324702116155,1.0031426939992263,2.797401064223143
11.72335246,-4.997907241051491,0.9815439855668912,2.922946085442575
11.72810788,-4.80862630528868,0.9560125057975183,3.0363197746766257
11.73286329,-4.615457876157959,0.9269275529515147,3.1368960134125183
11.73761871,-4.419321207403885,0.89468242814612,3.2241334078099047
11.74237408,-4.221075251343637,0.8596827890316132,3.297578256186673
11.74712949,-4.021515804371535,0.8223450237781356,3.356866776221209
11.75188491,-3.8213733571007547,0.7830946146471925,3.4017265942429207
11.75664033,-3.6213116286820712,0.7423644607989619,3.4319775074399175
11.76139574,-3.421926760013925,0.7005931316433585,3.447531537351613
11.76615116,-3.2237471365847554,0.6582230247689985,3.448392299689914
11.77090658,-3.0272338085416024,0.6156984061500902,3.4346537213487287
11.77566199,-2.832781473240755,0.5734633148389526,3.40649814034038
11.78041741,-2.6407199839377133,0.5319593195692404,3.3641938282578288
11.78517282,-2.451316347280882,0.4916231204305578,3.3080919776817623
11.78992824,-2.2647771717050147,0.4528839948060699,3.238623198755355
11.79468361,-2.081251528478164,0.4161610928774608,3.1562935699743084
11.79943902,-1.9008341868741796,0.3818605940037692,3.0616802881482683
11.80419444,-1.7235691846373864,0.35037274099178123,2.9554269616031084
11.80894986,-1.5494536945775932,0.32206877453252986,2.8382385891962176
11.81370527,-1.378442147824632,0.297297794755885,2.7108762658247247
11.81846069,-1.2104505740222964,0.27638358086958437,2.57415165302375
11.82321611,-1.0453611185757952,0.2596214031328644,2.4289212511405007
11.82797152,-0.8830266969980878,0.2472748638954605,2.276080507550354
11.83272694,-0.7232757464342167,0.23957280604463413,2.1165577935521993
11.83748236,-0.565917034577953,0.23670632791739107,1.951308281032783
11.84223772,-0.41074448643399014,0.23882594357589004,1.781307748791205
11.84699314,-0.2575419897371861,0.24603892638421532,1.6075463475853466
11.85174855,-0.10608814034486137,0.2584068721757957,1.431022352469834
11.85650397,0.04383911040181506,0.2759435160948772,1.2527359307780936
11.86125939,0.1924579434672619,0.2986128345600536,1.0736829540951207
11.8660148,0.3399783310646211,0.32632746084009756,0.8948488827188255
11.87077022,0.48659790137819914,0.3589474395439332,0.7172027513689366
11.87552564,0.6324980420333391,0.39627934199479875,0.5416912852251998
11.88028105,0.7778402733377429,0.43807576106873597,0.36923317571094133
11.88503642,0.9227629200950449,0.4840352007135484,0.200713545740207
11.88979184,1.0673781082957308,0.5338023721120574,0.036978634389961414
11.89454725,1.211769110208501,0.5869689053935463,-0.12116926886284475
11.89930267,1.3559880582951875,0.643074482989952,-0.2729766100810603
11.90405808,1.5000540449293307,0.7016083982121467,-0.41774304666740886
11.9088135,1.6439516211124503,0.762011540393903,-0.5548255827260139
11.91356892,1.7876297032723498,0.8236788059885772,-0.6836423338048442
11.91832434,1.931000892810432,0.8859619332325718,-0.8036758910641266
11.92307975,2.0739412083303406,0.9481727563060891,-0.9144762551991731
11.92783512,2.216290225399288,1.0095868732215523,-1.015663310673837
11.93259053,2.3578516132683593,1.069447719864068,-1.1069288108838224
11.93734595,2.4983940523094903,1.1269710406164883,-1.1880378447716624
11.94210137,2.6376525102401107,1.1813497437486509,-1.2588297553203314
11.94685678,2.775329849808149,1.2317591271687083,-1.3192184805215048
11.9516122,2.9110987358053784,1.2773624571687465,-1.3691922881099836
11.95636762,3.044603805306305,1.3173168794103152,-1.408812876804735
11.96112303,3.175464062092606,1.3507796375706878,-1.4382138194385827
11.96587845,3.3032754546594876,1.3769145707745312,-1.4575983287606995
11.97063387,3.4276135976871185,1.3948988560815077,-1.4672363383559701
11.97538923,3.5480366001008505,1.403929956861383,-1.4674609124566103
11.98014465,3.66408796861324,1.4032327321745384,-1.4586640279448184
11.98490006,3.7752995622813095,1.3920666570053157,-1.4412918017394494
11.98965548,3.881194579004301,1.3697330990865106,-1.415839258435099
11.9944109,3.9812905579814912,1.3355825953261622,-1.3828447433714222
11.99916631,4.075102383371583,1.2890220691916037,-1.3428840874898789
12.00392173,4.1621452748271075,1.2295219293406823,-1.2965646259893673
12.00867715,4.241937751093957,1.156622988968448,-1.244519165394216
12.01343256,4.314004553861746,1.0699431445967786,-1.1873999844893968
12.01818793,4.37787952055451,0.9691837523357091,-1.1258729443835176
12.02294335,4.433108396615228,0.8541356390298209,-1.0606117722332513
12.02769876,4.479251579865556,0.7246846852741963,-0.9922925722945424
12.03245418,4.515886791517321,0.5808169171889505,-0.9215886072552806
12.0372096,4.542611670171526,0.42262304423879155,-0.8491653824595901
12.04196501,4.559046286442413,0.2503023814049025,-0.7756760558208974
12.04672043,4.564835576463596,0.064166095723439,-0.7017571871866937
12.05147585,4.559651692274893,-0.13536028041935327,-0.6280248331328647
12.05623126,4.543196265827957,-0.3477351238812267,-0.555070987330339
12.06098663,4.515202581094619,-0.572299834452304,-0.4834603634051252
12.06574204,4.475437645727035,-0.8082788350291025,-0.4137275167474613
12.07049746,4.423704150327688,-1.0547805015238922,-0.34637430329203284
12.07525288,4.359842300161303,-1.3107990612396148,-0.2818676754793392
12.08000829,4.283731501530263,-1.575217493407684,-0.22063781698749554
12.08476371,4.195291883322979,-1.8468114598587786,-0.1630766175520915
12.08951913,4.094485633551607,-2.1242542871806913,-0.10953648716336128
12.09427454,3.9813181310307146,-2.4061230140191454,-0.060329505588838345
12.09902996,3.8558388536634096,-2.6909055082254363,-0.015726899296127778
12.10378538,3.718142047037449,-2.9770086482267817,0.0240411656345987
12.10854074,3.568367140133607,-3.262767551238526,0.058785488339701625
12.11329616,3.4066988987953364,-3.5464558177714793,0.08835745034809038
12.11805158,3.2333673119453645,-3.826296747405015,0.11264835954006011
12.12280699,3.0486472099797233,-4.100475465177241,0.13158853502264165
12.12756241,2.8528576189680317,-4.36715188148779,0.14514614753195818
12.13231783,2.6463608580730362,-4.624474391555326,0.15332583166884473
12.13707324,2.4295613910021236,-4.8705942037702625,0.15616708904407262
12.14182866,2.202904445401162,-5.1036801703254415,0.15374250474386264
12.14658402,1.9668744168827461,-5.3219339788545685,0.1461558028375763
12.15133944,1.721993076715395,-5.523605550936277,0.13353976944434362
12.15609486,1.4688176039379455,-5.7070084826008065,0.11605407380202955
12.16085027,1.2079384637471828,-5.870535353682662,0.0938830186267519
12.16560569,0.9399771545050737,-6.012672727215524,0.0672332507365892
12.17036111,0.6655838457758437,-6.132015657263204,0.03633146149251385
12.17511652,0.3854349296134681,-6.227281523810046,0.0014221042391036826
12.17987194,0.10023050707096413,-6.297323016753099,-0.037234847180777554
12.1846273,-0.1893081681980324,-6.341140097739613,-0.07936607838620387
12.18938272,-0.48244126712807,-6.357890778583954,-0.12468703637054444
12.19413814,-0.7784129603785775,-6.346900568201725,-0.1729039408785363
12.19889355,-1.0764539673881706,-6.307670456261935,-0.22371569670057895
12.20364897,-1.3757840538606263,-6.239883320847444,-0.27681570198407257
12.20840439,-1.6756144507982929,-6.143408669024908,-0.33189355086856637
12.2131598,-1.9751501672256726,-6.018305642989204,-0.38863663144930244
12.21791522,-2.2735921685382174,-5.864824249901733,-0.44673162224298396
12.22267064,-2.570139393236333,-5.68340480007461,-0.5058658919467373
12.22742605,-2.8639905828376766,-5.474675564976444,-0.565728808303136
12.23218142,-3.154345903089842,-5.239448692748193,-0.626012962262133
12.23693684,-3.4404083392369325,-4.97871444363489,-0.6864153133053702
12.24169225,-3.721384853947137,-4.693633830228793,-0.7466382606695011
12.24644767,-3.9964873033974775,-4.385529767161992,-0.8063906431209813
12.25120308,-4.264933114614821,-4.055876851558262,-0.8653886667369032
12.2559585,-4.525945735053727,-3.706289908985344,-0.9233567558114238
12.26071392,-4.778754873149192,-3.338511449770424,-0.9800283170391326
12.26546934,-5.0225965560658,-2.954398187320457,-1.0351464031655948
12.2702247,-5.256713038220344,-2.5559067735121763,-1.0884642619907081
12.27498012,-5.48035260151289,-2.1450789064201956,-1.1397457617959308
12.27973553,-5.69276929528616,-1.7240259631296222,-1.1887656938369775
12.28449095,-5.893222670212885,-1.2949133060181912,-1.2353099627883755
12.28924637,-6.080977565081665,-0.8599444057034469,-1.2791756833322996
12.29400178,-6.255304008761895,-0.42134491860299994,-1.320171204034121
12.2987572,-6.415477301686435,0.018653147908074652,-1.358116078912325
12.30351262,-6.560778342085054,0.4578270544701241,-1.39284100423251
12.30826798,-6.690494261762182,0.8939786092613206,-1.4241877345063552
12.3130234,-6.803919434144926,1.3249489894482307,-1.4520089885055103
12.31777881,-6.90035691339206,1.7486329914380065,-1.4761683539239623
12.32253423,-6.979120357456835,2.1629926030599345,-1.4965401984320768
12.32728965,-7.039536480197703,2.5660697979881264,-1.5130095953054084
12.33204506,-7.080948068132706,2.955998460932066,-1.525472273374313
12.33680048,-7.102717586537848,3.3310153613802727,-1.5338346032496377
12.3415559,-7.104231387635078,3.6894701039041533,-1.538013633976176
12.34631126,-7.08490452089854,4.029833994061712,-1.537937195810418
12.35106668,-7.044186132246784,4.350707770593527,-1.5335440852829834
12.3558221,-6.981565425238541,4.650828166675694,-1.5247843479299783
12.36057751,-6.896578143486224,4.929073275288662,-1.5116196721175024
12.36533293,-6.7888135195017565,5.1844667060803316,-1.4940239044158639
12.37008835,-6.6579216212913614,5.416180533249632,-1.47198369321969
12.37484376,-6.503621014460485,5.623537045771204,-1.4454992629610428
12.37959918,-6.325706644661259,5.806009322576658,-1.4145853165003004
12.38435454,-6.1240578332459,5.963220665988097,-1.3792720582607096
12.38910996,-5.8986462683669325,6.094942936654404,-1.3396063255611417
12.39386538,-5.6495438649052865,6.201093842341908,-1.2956528105806673
12.39862079,-5.376930359884717,6.281733241043224,-1.2474953506328523
12.40337621,-5.081100505691259,6.33705852587669,-1.19523826005696
12.40813163,-4.762470721541624,6.367399165084014,-1.1390076730928727
12.41288704,-4.42158506419595,6.373210475080808,-1.0789528635910246
12.41764246,-4.059120381810234,6.355066708014593,-1.0152475043039728
12.42239783,-3.6758905200163907,6.313653537723212,-0.9480908258256504
12.42715324,-3.272849456785623,6.249760029471642,-0.8777086330542077
12.43190866,-2.851093252380421,6.164270179481176,-0.804354135490954
12.43666408,-2.411860712739418,6.058154110134853,-0.72830854695218
12.44141949,-1.9565326789438127,5.932459005908317,-0.6498814105877884
12.44617491,-1.4866298718826247,5.788299873585943,-0.5694106066554252
12.45093033,-1.0038092396448142,5.6268502082244485,-0.48726200337330056
12.45568569,-0.5098587751736534,5.449332643670251,-0.4038287153197311
12.46044111,-0.00669079290051176,5.257009663281947,-0.3195299391089505
12.46519652,0.5036663250036415,5.051174442919405,-0.234809342270948
12.46995194,1.019077879880324,4.833141894289461,-0.15013298827659163
12.47470736,1.5373140503346212,4.604239972416269,-0.06598678845988556
12.47946277,2.0560624519552055,4.365801306341355,0.017126519728241175
12.48421819,2.5729419660623756,4.119155207147799,0.09869085903447097
12.48897361,3.0855177216997287,3.865620102019928,0.1781807434805936
12.49372902,3.5913170981266043,3.6064964372419586,0.2550656227547124
12.49848439,4.087846600169285,3.343060086736486,0.3288145962028313
12.5032398,4.572609445996852,3.076556295916938,0.3989014403303463
12.50799522,5.043123696127183,2.8081941833867416,0.4648098818332303
12.51275064,5.496940743567712,2.5391418156781453,0.5260390374005113
12.51750605,5.931663977772061,2.270521863248125,0.5821089325295062
12.52226147,6.344967429447936,2.0034078397682893,0.6325660051479071
12.52701689,6.7346141991811175,1.7388209215942427,0.6769884968207912
12.53177225,7.0984744703995215,1.477727340167935,0.7149916355466478
12.53652767,7.43454290651748,1.2210363367836492,0.7462325200418882
12.54128309,7.740955233476718,0.9695986662844738,0.770414625724584
12.5460385,8.016003812880927,0.7242056334357565,0.7872918662994038
12.55079392,8.258152018182635,0.48558864256380424,0.7966721602489959
12.55554934,8.466047237476996,0.25441923730408433,0.7984204667081636
12.56030475,8.638532341570833,0.03130960290763444,0.792461268402353
12.56506012,8.774655474870197,-0.18318650140158038,0.7787804895257464
12.56981553,8.873678048711641,-0.3885724178706179,0.7574268435009873
12.57457095,8.93508084143118,-0.5844069168697855,0.7285126101768001
12.57932637,8.958568136163569,-0.7703022237594184,0.6922138452162688
12.58408178,8.944069855569932,-0.9459218004406663,0.6487700271310047
12.5888372,8.891741681817994,-1.1109779411409766,0.5984831501516281
12.59359262,8.80196317947698,-1.265229246339534,0.5417162740047098
12.59834803,8.675333967719194,-1.4084780419268117,0.47889154455705096
12.6031034,8.512668015488128,-1.5405678122320619,0.410487702023995
12.60785881,8.314986158307647,-1.6613807149998607,0.33703709597132775
12.61261423,8.083506957508035,-1.7708352434385026,0.2591222287744779
12.61736965,7.8196360413214965,-1.8688840949758994,0.17737185171144243
12.62212506,7.524954082182173,-1.9555122984243216,0.09245664058953681
12.62688048,7.201203575430422,-2.030735641134572,0.005084480763727766
12.6316359,6.850274591420416,-2.094599425795244,-0.08400460547446005
12.63639126,6.474189675918818,-2.147177573231643,-0.17404385298240324
12.64114668,6.075088072999732,-2.1885720732893184,-0.26424543004178896
12.6459021,5.655209440845207,-2.218912771013052,-0.3538063545325728
12.65065751,5.21687722446662,-2.238357460220201,-0.4419146048797918
12.65541293,4.762481840953699,-2.247092241702357,-0.5277553780311994
12.66016835,4.294463823131963,-2.245332089383778,-0.6105174444200937
12.66492376,3.81529705721679,-2.233321555717306,-0.6893995480946467
12.66967918,3.3274722397887286,-2.211335538275006,-0.7636167992992093
12.67443454,2.8334806694652235,-2.1796800235292606,-0.8324070070736753
12.67918996,2.3357984790678374,-2.138692721606639,-0.8950369008249538
12.68394538,1.8368714048961692,-2.0887435075223535,-0.9508081917371186
12.68870079,1.3391001809332943,-2.030234590084891,-0.9990634265311633
12.69345621,0.8448266373725918,-1.9636003391664163,-1.0391915869945945
12.69821163,0.3563205746793483,-1.889306715129571,-1.0706333891011621
12.70296704,-0.12423252354247402,-1.8078502605064106,-1.0928862364349428
12.70772241,-0.5947428832377568,-1.719756632786248,-1.1055087854201164
12.71247782,-1.0532268897637735,-1.6255786769801026,-1.108125085278117
12.71723324,-1.4978165535870245,-1.5258940555297598,-1.1004282627992785
12.72198866,-1.9267679576039973,-1.421302469258749,-1.0821837287966674
12.72674408,-2.338468659403182,-1.3124225153874958,-1.0532318876789153
12.73149949,-2.731444029762805,-1.1998882371187651,-1.0134903335178425
12.73625486,-3.1043625168722664,-1.0843454245175626,-0.962955516111424
12.74101027,-3.456039833745977,-0.9664477290841248,-0.9017038600724453
12.74576569,-3.785442073634083,-0.846852655166889,-0.8298923198806962
12.75052111,-4.091687764685516,-0.7262174906286383,-0.747758354632279
12.75527652,-4.374048880698655,-0.6051952372478255,-0.6556193080393764
12.76003194,-4.631950829676745,-0.4844305983794973,-0.5538711820231829
12.76478736,-4.864971446307017,-0.36455607753058433,-0.4429867958922293
12.76954277,-5.072839018630087,-0.24618823682461888,-0.3235133274992519
12.77429814,-5.255429383280442,-0.12992415894713918,-0.19606923782383373
12.77905355,-5.412762127925886,-0.01633815017772822,-0.0613405860396962
12.78380897,-5.544995943984711,0.09402128437777392,0.07992325181266724
12.78856439,-5.652423177347251,0.20063416914159238,0.22691444104202835
12.7933198,-5.73546362962436,0.3030114729800946,0.37877209733008327
12.79807522,-5.794657667303199,0.4006972009936312,0.5345882138320905
12.80283058,-5.8306587009789785,0.49327016082683606,0.6934140669807063
12.807586,-5.844225101381831,0.5803454083228571,0.8542670550367877
12.81234142,-5.836211623042556,0.6615753841965201,1.016137916960571
12.81709684,-5.807560409951428,0.7366507597402249,1.177998272890565
12.82185225,-5.7592916603144335,0.8053010151994457,1.3388084215231681
12.82660767,-5.692494029449755,0.8672947791600544,1.4975253241438473
12.83136309,-5.608314851033707,0.9224399608830729,1.6531107002140406
12.83611845,-5.50795025732459,0.9705837098124724,1.8045391555863255
12.84087387,-5.392635278556891,1.0116122372935,1.9508062619000042
12.84562928,-5.2636340001828765,1.0454505347579013,2.090936504645702
12.8503847,-5.12222985385234,1.072062020237175,2.223991017755687
12.85514012,-4.969716113932502,1.0914481411187116,2.349075024290121
12.85989553,-4.8073866661231275,1.1036479556819145,2.4653449058331343
12.86465095,-4.636527108578862,1.1087377093192585,2.572014827694036
12.86940631,-4.458406239229635,1.1068304137313207,2.6683628530910584
12.87416173,-4.274267976018623,1.0980754291861368,2.753736487243562
12.87891715,-4.085323749858155,1.0826580416807272,2.8275576015361175
12.88367256,-3.8927454034889215,1.0607990191287675,2.889326698179214
12.88842798,-3.697658623306231,1.0327541240682945,2.938626486413028
12.8931834,-3.5011369256988236,0.9988135552262231,2.9751247516057724
12.89793881,-3.3041962145332704,0.9593012867680283,2.998576508086794
12.90269418,-3.1077899220094984,0.9145742721810922,3.0088254349954786
12.9074496,-2.9128047410814175,0.8650214793526616,3.005804601811313
12.91220501,-2.7200569539158415,0.8110627243493133,2.9895364966517683
12.91696043,-2.530289357474366,0.7531472735551884,2.9601323759787013
12.92171585,-2.3441687842992374,0.6917521870739177,2.9177909590928475
12.92647126,-2.16228421398278,0.627380380519877,2.8627964947271627
12.93122668,-1.9851454685623258,0.560558387355088,2.795516230165476
12.93598204,-1.8131824831412902,0.49183380958242023,2.7163973156363137
12.94073746,-1.646745141327645,0.4217724507035311,2.6259631783466446
12.94549288,-1.4861036635449925,0.35095513123124467,2.5248094015603155
12.95024829,-1.3314495348390132,0.27997419356874825,2.4135991447412026
12.95500371,-1.1828969573932753,0.20942970959992963,2.2930581411162194
12.95975913,-1.0404848115218794,0.13992541074554996,2.163969309202224
12.96451449,-0.9041791074031114,0.0720643663940826,2.0271670150011296
12.96926991,-0.7738759082717813,0.006444442378323231,1.8835310217912018
12.97402533,-0.6494047042131892,-0.05634642358972702,1.7339801647954263
12.97878074,-0.5305322140909741,-0.11573508800767444,1.5794657885332266
12.98353616,-0.41696659146333537,-0.17116816379886382,1.4209649853764459
12.98829158,-0.3083620085634073,-0.22211703016757145,1.2594736747199282
12.99304699,-0.20432359053275007,-0.2680828393314826,1.0959995632019384
12.99780236,-0.10441267013386765,-0.30860146792990817,0.9315550275130495
13.00255777,-0.008152331179487462,-0.34324836029537176,0.7671499624414804
13.00731319,0.08496679306086169,-0.37164321095564884,0.6037846378437144
13.01206861,0.17548050217807962,-0.3934544346327615,0.4424426091553707
13.01682402,0.26394482932815716,-0.40840337354449224,0.2840837268689612
13.02157944,0.35092969996747564,-0.4162681939221488,0.12963729113155512
13.0263348,0.43701249025845396,-0.4168874262813528,-0.020004601725591147
13.03109022,0.5227715287748773,-0.4101631070828525,-0.16399347334428613
13.03584564,0.6087795870713787,-0.3960634829715224,-0.30153059038508184
13.04060105,0.6955974064932443,-0.37462524275071823,-0.4318727564757153
13.04535647,0.7837673101999515,-0.3459552465738238,-0.5543377211939934
13.05011189,0.8738069506456148,-0.3102317264186053,-0.6683091587022975
13.0548673,0.9662032435745302,-0.2677049366357913,-0.7732411695540533
13.05962267,1.0614065398214574,-0.21869723811287112,-0.8686622605428049
13.06437809,1.1598250857432433,-0.16360260426615056,-0.9541787592707918
13.0691335,1.2618198218876584,-0.10288554159999275,-1.0294776223720514
13.07388892,1.367699567530816,-0.03707942192386537,-1.0943285990218972
13.07864434,1.4777166360412186,0.03321577249866763,-1.148585714471575
13.08339975,1.5920629227247023,0.10733628555861362,-1.1921880418120163
13.08815512,1.710866502926583,0.18455799645384527,-1.2251597339182279
13.09291053,1.8341887737538836,0.264100388403213,-1.2476092914732961
13.09766595,1.9620221678645189,0.34513106032553104,-1.2597280470715468
13.10242137,2.094288462408856,0.4267707614370625,-1.2617878496979573
13.10717678,2.2308377005141384,0.5080989254281001,-1.254137938604237
13.1119322,2.3714477368566733,0.588159677694784,-1.2372010015844979
13.11668762,2.515824413143549,0.6659682859173223,-1.211468422221345
13.12144298,2.6636023640793525,0.740518020920371,-1.1774947375816778
13.1261984,2.8143464498977644,0.8107873910992994,-1.135891354175253
13.13095381,2.9675538077158463,0.8757477098437972,-1.0873196021088232
13.13570923,3.1226565103302493,0.9343709516900535,-1.032483236810926
13.14046465,3.2790248170150353,0.985637849770024,-0.9721205174562552
13.14522001,3.4359709960585687,1.0285461846666188,-0.9069960001004179
13.14997543,3.5927536932565354,1.062119212937726,-0.837892184527988
13.15473085,3.7485828147193465,1.085414182130825,-0.7656011502394978
13.15948626,3.902624886585212,1.097530877866118,-0.6909163108053037
13.16424168,4.0540088488769985,1.0976201473591276,-0.6146244078485825
13.1689971,4.201832235978121,1.0848923424804258,-0.5374978565353927
13.17375251,4.345167692125822,1.0586256240707437,-0.4602875437985644
13.17850788,4.483069766998945,1.0181740677606557,-0.3837161686850494
13.18326329,4.61458193395108,0.9629755100318498,-0.3084722012668813
13.18801871,4.7387437716881475,0.8925590717541735,-0.23520452259503477
13.19277413,4.854598249123444,0.8065522949924501,-0.1645177933600175
13.19752954,4.961199052636278,0.7046878275581387,-0.09696858349185804
13.20228496,5.05761789489435,0.5868095886506214,-0.033062279205983626
13.20704033,5.142951744699964,0.45287834807375793,0.026749231650983828
13.21179574,5.216329917961798,0.3029766510305879,0.08206911030208502
13.21655116,5.276920970890533,0.1373130205153282,0.1325563825152149
13.22130658,5.323939337893876,-0.043774630044528855,0.177926060803957
13.22606199,5.356651658421031,-0.23981643990011162,0.21794862710538623
13.23081741,5.374382739181999,-0.4502089637350966,0.2524489398750855
13.23557282,5.376521100763063,-0.674214515016996,0.28130463778139964
13.24032819,5.362524060790388,-0.9109615471444127,0.3044441174197529
13.24508361,5.331922309742083,-1.159446125069877,0.3218441626375116
13.24983902,5.28432394063805,-1.418534534876522,0.333527296311693
13.25459444,5.219417900274903,-1.686967072815954,0.3395589126004255
13.25934986,5.1369768370427975,-1.9633630481725495,0.3400442331649968
13.26410522,5.036859327886043,-2.246227025414245,0.3351251198387841
13.26886064,4.919011473913011,-2.5339563199759927,0.3249767711667809
13.27361605,4.783467860204602,-2.8248497486263795,0.3098043301562248
13.27837147,4.63035188065859,-3.1171176199402324,0.2898394329297277
13.28312689,4.459875433621639,-3.40889293332272,0.26533673051863743
13.2878823,4.272337998955853,-3.6982437366839083,0.23657041741415943
13.29263767,4.068125112235017,-3.9831865736084353,0.2038308001945193
13.29739309,3.847706256934581,-4.26170093110146,0.16742093779620296
13.3021485,3.6116322005944173,-4.531744579203317,0.12765338251974945
13.30690392,3.3605318057782867,-4.791269674506877,0.08484704844757635
13.31165934,3.095108351048601,-5.038239481450709,0.03932423205776837
13.31641475,2.8161354009914037,-5.270645548724838,-0.0085921915809253
13.32117012,2.524452267470278,-5.486525163684257,-0.05858137490863095
13.32592553,2.220959106699507,-5.68397889573576,-0.11032688569987824
13.33068095,1.9066116984177932,-5.861188030614088,-0.1635188582173879
13.33543637,1.5824159545341052,-6.0164316916040965,-0.21785589222314566
13.34019178,1.2494222053259112,-6.148103441330115,-0.2730466880314608
13.3449472,0.9087193118597958,-6.254727158865966,-0.3288114100284523
13.34970256,0.5614286540150824,-6.334971991670261,-0.3848827757072536
13.35445798,0.2086980444856767,-6.387666190179721,-0.44100687207578915
13.3592134,-0.14830437954008016,-6.411809644675376,-0.4969437061015144
13.36396881,-0.5083962337557161,-6.406584959101717,-0.5524675005094889
13.36872423,-0.8703868783031828,-6.371366914672912,-0.6073667506230387
13.37347965,-1.2330832673137722,-6.305730197110812,-0.6614440619344926
13.37823501,-1.5952955994148936,-6.209455284916576,-0.7145157916317647
13.38299043,-1.9558427122412778,-6.08253242176886,-0.7664115202917886
13.38774585,-2.313557165104376,-5.925163623447211,-0.816973382279396
13.39250126,-2.667289956337047,-5.737762697966412,-0.8660552849480544
13.39725668,-3.0159148256109125,-5.520953286127973,-0.9135220473989607
13.4020121,-3.3583320968984416,-5.275564957620221,-0.9592484891559143
13.40676746,-3.6934720248551205,-5.002627424295136,-1.0031184974593823
13.41152288,-4.020297616219435,-4.703362956576853,-1.0450240987689037
13.41627829,-4.337806908148886,-4.37917711054349,-1.084864555317908
13.42103371,-4.645034696807684,-4.031647891690451,-1.1225455011545034
13.42578913,-4.941053721469331,-3.6625134964981445,-1.1579781244553395
13.43054454,-5.224975321434537,-3.2736587845438763,-1.1910783955469317
13.43529991,-5.495949594947722,-2.8671006419221365,-1.2217663358106479
13.44005533,-5.753165100925412,-2.4449724012212184,-1.2499653239941293
13.44481074,-5.9958481554607985,-2.0095074846539,-1.2756014430812046
13.44956616,-6.223261785288519,-1.5630224359994458,-1.2986028791950177
13.45432158,-6.434704409275409,-1.1078995048041453,-1.318899389865516
13.45907694,-6.629508326434361,-0.6465689435893438,-1.3364218604727736
13.46383236,-6.807038094987944,-0.18149117595083766,-1.3511019654121694
13.46858777,-6.966688891556716,0.2848610096724683,-1.3628719462612107
13.47334319,-7.107884942344036,0.750020089410671,-1.3716645146071358
13.47809861,-7.230078118920249,1.211541109882579,-1.3774128833362136
13.48285402,-7.33274678966439,1.6670185295532247,-1.3800509276541029
13.48760939,-7.415395014064058,2.114102461370725,-1.3795134759821959
13.4923648,-7.477552161031954,2.550514190808992,-1.3757367308460862
13.49712022,-7.5187730243944975,2.974060853054299,-1.3686588203779042
13.50187564,-7.5386384989811654,3.382649163879923,-1.35822048148302
13.50663105,-7.536756869498884,3.774298110577542,-1.3443658756101733
13.51138647,-7.512765751778701,4.147150521961663,-1.3270435372058569
13.51614189,-7.466334712155473,4.499483449724574,-1.3062074533658876
13.52089725,-7.3971685757814765,4.829717307072523,-1.2818182711028403
13.52565267,-7.305011418683183,5.136423724398299,-1.2538446262425793
13.53040809,-7.189651221491578,5.41833209553261,-1.222264585418745
13.5351635,-7.050925145231687,5.674334801673845,-1.1870671900515453
13.53991892,-6.888725371662052,5.903491113247326,-1.1482540885957555
13.54467428,-6.703005432813292,6.105029782538633,-1.105841240668247
13.5494297,-6.493786937052184,6.278350351859777,-1.0598606738373226
13.55418512,-6.261166582713591,6.423023213141775,-1.0103622708409292
13.55894053,-6.0053233356853015,6.5387884650848545,-0.9574155618657881
13.56369595,-5.726525634936166,6.62555362316517,-0.9011114934319262
13.56845131,-5.42513848040697,6.683390245684688,-0.8415641425892391
13.57320673,-5.101630251263342,6.712529545495086,-0.7789123426947527
13.57796215,-4.75657909927993,6.713357061989867,-0.7133211850551111
13.58271756,-4.390678761943421,6.686406471542529,-0.6449833591679526
13.58747298,-4.004743642568771,6.632352616958992,-0.5741202931427586
13.5922284,-3.599713010226796,6.552003837913727,-0.5009830551429395
13.59698376,-3.1766541805483484,6.4462936849288415,-0.4258529764806946
13.60173918,-2.736764549473325,6.316272099366213,-0.3490419575143894
13.6064946,-2.2813723656770737,6.163096141223195,-0.2708924189521542
13.61125001,-1.8119361435655408,5.988020345307363,-0.19177686367362717
13.61600543,-1.3300426371061445,5.792386784653809,-0.11209701772381804
13.62076079,-0.8374033149925094,5.57761491788523,-0.03228252357222041
13.62551621,-0.3358492993329488,5.345191294668826,0.0472108361177511
13.63027163,0.1726752471768272,5.096659190582593,0.12590340025839145
13.63502704,0.6861212771258259,4.83360823965384,0.20329438651493736
13.63978246,1.202344524888156,4.557664129641367,0.2788651470664128
13.64453788,1.719116627296819,4.270478421830363,0.3520829187638276
13.64929324,2.2341376183901933,3.973718553692951,0.42240505520495675
13.65404866,2.745049695536206,3.669058079225583,0.48928371868896153
13.65880408,3.249452133404752,3.3581671981107837,0.5521709988766932
13.66355949,3.7449172037332117,3.04270362107828,0.6105244121044907
13.66831491,4.229006942881265,2.724303814952627,0.6638127208927174
13.67307027,4.6992905958278985,2.4045746668334727,0.7115219979834866
13.67782569,5.153362554439067,2.0850856026377924,0.7531618444291167
13.68258111,5.588860599424926,1.7673611909184919,0.7882716582614426
13.68733652,6.003484249308072,1.452874258692449,0.8164268404931978
13.69209194,6.3950130157999805,1.1430395422903337,0.8372448198189678
13.6968473,6.761324363042286,0.8392078932411099,0.8503907773238033
13.70160272,7.100411168034782,0.5426610569625013,0.8555829584136287
13.70635814,7.410398481213021,0.2546070402861917,0.8525974712028231
13.71111355,7.689559389811618,-0.02382391792457546,0.8412724880084937
13.71586897,7.936329792928701,-0.2915827612812041,0.8215117875514014
13.72062439,8.149321906810224,-0.5477044075018406,0.7932875971929534
13.72537975,8.327336332306825,-0.7913099145956528,0.7566427142078871
13.73013517,8.469372533705728,-1.0216080260355944,0.7116919007863702
13.73489058,8.57463759869301,-1.2378961075953487,0.6586225586780889
13.739646,8.642553172393548,-1.4395604975045078,0.5976946967417311
13.74440142,8.672760483736035,-1.6260763008132462,0.5292402091860193
13.74915684,8.66512340936288,-1.7970066679328998,0.4536614850125424
13.7539122,8.619729548421175,-1.9520016058277452,0.37142937097983864
13.75866762,8.536889310118568,-2.0907963778150056,0.28308051198728906
13.76342303,8.417133044054554,-2.213209553844301,0.18921409456877142
13.76817845,8.261206270166884,-2.3191407769214822,0.09048802140743997
13.77293387,8.070063089897166,-2.408568312570785,-0.012385452506071164
13.77768923,7.844857882312428,-2.4815464466555386,-0.11864458828906711
13.78244465,7.586935408066676,-2.5382027924864774,-0.22748349886849462
13.78720006,7.29781946005233,-2.5787355610921043,-0.3380579109834921
13.79195548,6.979200212263389,-2.6034108390674193,-0.4494913087786129
13.7967109,6.632920427691917,-2.612559906895355,-0.560881410677961
13.80146626,6.260960691961327,-2.606576617477513,-0.6713069278738555
13.80622168,5.865423841917864,-2.5859148403699974,-0.7798345497466092
13.8109771,5.448518757840701,-2.551085962643567,-0.8855260989693746
13.81573251,5.012543684902094,-2.5026564233576414,-0.9874457971380393
13.82048793,4.559869244808818,-2.441245246447183,-1.084667580854564
13.82524335,4.092921292813224,-2.3675215272809766,-1.1762824087931916
13.82999871,3.614163768781705,-2.2822018217704008,-1.2614055027764381
13.83475413,3.1260816839190855,-2.186047383827139,-1.3391834700384166
13.83950954,2.631164377375954,-2.079861197114847,-1.4088012586127585
13.84426496,2.1318891696267457,-1.9644847502727187,-1.4694889018425974
13.84902038,1.630705532217714,-1.8407945109759405,-1.5205280105438845
13.85377574,1.1300198859192903,-1.7096980632303886,-1.5612579722091735
13.85853116,0.6321811310260568,-1.5721298840239109,-1.5910818160589957
13.86328658,0.13946700417263724,-1.4290467495312393,-1.6094717012579556
13.86804199,-0.3459286545761523,-1.2814227767774042,-1.6159739841670404
13.87279741,-0.821907652309533,-1.1302441228234934,-1.610213820283002
13.87755282,-1.2864781518120034,-0.9765033786957823,-1.5918992581974054
13.88230819,-1.7377642906472466,-0.8211937081899666,-1.560824786195898
13.88706361,-2.174014675119237,-0.6653027917293081,-1.5168742961580168
13.89181902,-2.593609724454842,-0.5098066426732082,-1.4600234335300282
13.89657444,-2.9950678508493387,-0.3556633682479086,-1.3903413060377543
13.90132986,-3.3770504705868127,-0.20380695003632857,-1.3079915273677414
13.90608522,-3.738365850174889,-0.055141120050738866,-1.2132325752227673
13.91084064,-4.077971799225981,0.08946659196980476,-1.1064174460502527
13.91559605,-4.394977228721333,0.22919056612035577,-0.987992591646408
13.92035147,-4.688642599499677,0.36325248381578906,-0.8584961261494967
13.92510689,-4.958379291588103,0.4909263364411676,-0.7185552959734081
13.92986225,-5.203747930589698,0.6115429897134326,-0.5688832101383497
13.93461767,-5.424455712911717,0.724494248691485,-0.4102748341977187
13.93937309,-5.620352777195484,0.8292363757872103,-0.24360225740205116
13.9441285,-5.791427674866357,0.9252930224871766,-0.06980924969794748
13.94888392,-5.937801998219194,1.0122575446756534,0.11009486755425545
13.95363928,-6.059724229845243,1.0897946813005635,0.29504200579146034
13.9583947,-6.157562882407089,1.157641586462004,0.48391270947021503
13.96315012,-6.231799002647836,1.2156082156245698,0.6755441257735587
13.96790553,-6.283018117925694,1.2635770773377235,0.8687384896716379
13.97266095,-6.311901707354939,1.3015023723433945,1.0622720626749906
13.97741631,-6.319218282694601,1.3294085519734637,1.2549044562398428
13.98217173,-6.3058141663694816,1.3473883369877833,1.4453882636412922
13.98692715,-6.2726040553819065,1.3556002461835293,1.6324789173196643
13.99168256,-6.220561460371155,1.3542656909675694,1.8149446823369846
13.99643798,-6.150709108729554,1.3436656974193113,1.9915766907758807
14.00119335,-6.064109399504877,1.3241373209986915,2.1611989168138837
14.00594876,-5.961854995738339,1.296069820785296,2.3226779879946156
14.01070418,-5.845059636713796,1.2599006597949232,2.474932725147173
14.0154596,-5.714849248078976,1.2161113954136367,2.616943301826838
14.02021501,-5.572353421793621,1.1652235193614704,2.7477599145124287
14.02497038,-5.418697330415428,1.1077943000345971,2.8665108575894256
14.02972579,-5.254994131589018,1.0444126718719497,2.9724099027842876
14.03448121,-5.082337909095618,0.9756952069499398,3.0647628913696066
14.03923663,-4.901797186837493,0.9022821938459927,3.1429734589732323
14.04399204,-4.714409042084849,0.82483383854658,3.2065478267159238
14.04874741,-4.521173834633634,0.744026592448857,3.2550986079588475
14.05350282,-4.32305055961485,0.6605496038770996,3.288347596339486
14.05825824,-4.120952823873817,0.5751012824001516,3.3061275172178175
14.06301366,-3.915745439272586,0.48838595977557114,3.3083827405210533
14.06776908,-3.708241620963748,0.40111062754170096,3.2951689678587464
14.07252444,-3.49920077447433,0.3139817289907516,3.2666519204153976
14.07727986,-3.2893268520386414,0.22770198231929836,3.2231050663030287
14.08203527,-3.079267255728261,0.14296721202702029,3.1649064365980437
14.08679069,-2.8696122623373137,0.06046316699932941,3.092534588071454
14.09154611,-2.6608949426087443,-0.019137693953473842,3.0065637775792493
14.09630147,-2.453591545233868,-0.09517946513500784,2.9076584182162892
14.10105689,-2.2481223141586844,-0.16702611767408185,2.796566890756404
14.1058123,-2.0448527061352992,-0.23406489142252512,2.674114785779636
14.11056772,-1.8440949742244503,-0.2957097574508158,2.541197652418908
14.11532314,-1.6461100821524044,-0.35140494806520417,2.398773329026257
14.1200785,-1.451109914117004,-0.40062854555362803,2.247853929441183
14.12483392,-1.2592597448637213,-0.442896115089607,2.0894975561284075
14.12958934,-1.0706809356015634,-0.4777643615551642,1.9247998084437257
14.13434475,-0.8854538225229392,-0.5048347846508962,1.7548851509102112
14.13910017,-0.7036207662006785,-0.5237573016857389,1.5808982028919067
14.14385553,-0.5251893318081469,-0.5342338029921991,1.4039950076938488
14.14861095,-0.35013557180560156,-0.5360216010850081,1.2253343361160398
14.15336637,-0.178407384352575,-0.5289367315515732,1.0460690769884957
14.15812178,-0.009927922180136795,-0.5128570612980347,0.8673377652713825
14.1628772,0.155400972030475,-0.4877251582246724,0.6902562969056143
14.16763256,0.3176953265449332,-0.4535508757038683,0.5159098786833298
14.17238798,0.47708561945409234,-0.4104136054093233,0.3453452608744457
14.1771434,0.6337133962071967,-0.3584641531124616,0.17956330006745683
14.18189881,0.7877279454516195,-0.29792619401566933,0.019511899522691344
14.18665423,0.939283051799518,-0.2290972670005865,-0.13392062583513062
14.1914096,1.0885338430895832,-0.15234927077472898,-0.27991171295271017
14.19616501,1.2356337486245328,-0.06812842921152616,-0.4177101963880676
14.20092043,1.3807315837247893,0.023045301923048572,-0.5466413907219693
14.20567585,1.5239687747252746,0.1205794093115431,-0.6661115652309061
14.21043126,1.665476737219294,0.22381059425984995,-0.7756117678649642
14.21518663,1.8053744188583678,0.33200715354582855,-0.874720957275724
14.21994204,1.943766016278319,0.44437197370245785,-0.9631084034399573
14.22469746,2.0807388737033707,0.5600461373415722,-1.0405353192113134
14.22945288,2.21636156851488,0.6781131339640236,-1.1068556869499786
14.23420824,2.3506821866706873,0.7976036615895752,-1.1620162464510975
14.23896366,2.483726788493057,0.9175009994991024,-1.2060556130102793
14.24371908,2.6154980631908558,1.036746926402453,-1.2391024978813223
14.24847449,2.745974168720439,1.1542481523978076,-1.2613730079868457
14.25322991,2.875107752503764,1.2688832271511687,-1.2731670091280547
14.25798527,3.0028251487398774,1.3795098808179063,-1.2748635512371804
14.26274069,3.129025750381145,1.4849727484923458,-1.2669153802592685
14.26749611,3.2535815583400125,1.5841114237754765,-1.249842598419307
14.27225152,3.376336915613982,1.6757687829494659,-1.2242255737327787
14.27700694,3.4971084374445263,1.7587995186817003,-1.1906972292766609
14.2817623,3.6156851490455355,1.8320788211886936,-1.1499348582965234
14.28651772,3.7318288402901545,1.8945111450372907,-1.102651615626358
14.29127314,3.8452746433739677,1.9450390008047342,-1.0495878341713825
14.29602855,3.955731835999829,1.9826517123162046,-0.9915023105642056
14.30078397,4.062884869586515,2.0063940819275277,-0.9291636978067764
14.30553934,4.166394619521136,2.01537490821625,-0.8633421350826189
14.31029475,4.265899852524676,2.0087753024033286,-0.7948012359673224
14.31505017,4.3610189046898995,1.985856751734608,-0.7242905458614913
14.31980559,4.451351562544003,1.9459688797465544,-0.6525385674712073
14.32456095,4.536481138427661,1.8885568546505958,-0.5802464394755639
14.32931637,4.615976730447926,1.813168397846227,-0.5080823382028913
14.33407178,4.689395656218564,1.7194603447134058,-0.43667665541840345
14.3388272,4.756286048587582,1.6072047092956292,-0.36661798757052294
14.34358256,4.816189600636186,1.4762942032964983,-0.2984499534878787
14.34833798,4.868644446467622,1.326747158105834,-0.23266883905241875
14.3530934,4.913188163697277,1.1587117966008715,-0.16972204933190266
14.35784881,4.949360883045995,0.9724697996093382,-0.11000733158376812
14.36260423,4.97670848986715,0.7684391106251534,-0.05387271692705957
14.3673596,4.994785901564034,0.547175922061151,-0.0016171146728017726
14.37211501,5.003160403448358,0.3093757872948125,0.04650851849920176
14.37687043,5.0014150235446495,0.0558738050951512,0.09029952202327657
14.38162585,4.9891519242236315,-0.21235617340849844,0.12959548233843943
14.38638121,4.965995785586835,-0.4942033605340314,0.16427788937277513
14.39113663,4.9315971526243505,-0.7884229109034153,0.19426759362193005
14.39589204,4.885635715849692,-1.0936398984823812,0.21952214639709366
14.40064746,4.8278234938681495,-1.408354421874084,0.24003308535071202
14.40540288,4.757907886358306,-1.7309478626369756,0.2558232050963672
14.41015824,4.675674567018534,-2.0596903151371904,0.26694383580232867
14.41491366,4.580950187661966,-2.392749198461895,0.27347214406886206
14.41966908,4.473604866413113,-2.7281990507286484,0.27550846845308524
14.42442449,4.353554434728897,-3.0640324936127588,0.2731737033044349
14.42917991,4.220762419829811,-3.3981723402421133,0.2666067465937484
14.43393527,4.075241741217885,-3.7284848030793607,0.2559620288852236
14.43869069,3.917056102335625,-4.052793740380434,0.2414071410610413
14.44344611,3.7463210610705855,-4.3688958606782675,0.22312057790301032
14.44820152,3.563204765692077,-4.674576784941321,0.20128961348246557
14.45295689,3.36792834588825,-4.967627846124657,0.17610832289376635
14.4577123,3.1607659518717295,-5.245863486364693,0.14777576345789986
14.46246772,2.9420444381162656,-5.5071390937085765,0.11649432718885007
14.46722314,2.7121426922511094,-5.749369103656594,0.08246827494275284
14.4719785,2.471490613949767,-5.9705451765247615,0.045902461047035104
14.47673392,2.2205677531347665,-6.168754250210807,0.007001255115852594
14.48148934,1.9599016212330294,-6.342196259765898,-0.034032334956713206
14.48624475,1.6900656933679927,-6.4892013105182675,-0.07699733821456156
14.49100017,1.411677123206126,-6.608246090548266,-0.12169529739786486
14.49575553,1.1253941957260372,-6.697969311193183,-0.16793055484039118
14.50051095,0.8319135465206835,-6.7571859710278375,-0.21551035942657673
14.50526637,0.5319671794556375,-6.78490024943029,-0.26424481067231964
14.51002178,0.22631931765490013,-6.780316850332758,-0.31394665980736175
14.5147772,-0.08423687412493404,-6.742850634918455,-0.36443099111475313
14.51953256,-0.39888265474567064,-6.672134403607339,-0.41551480959800263
14.52428798,-0.7167771160151722,-6.568024712352477,-0.4670165631387437
14.5290434,-1.0370605905779826,-6.430605635656074,-0.5187556285271778
14.53379881,-1.3588580117077993,-6.260190418339394,-0.570551791006476
14.53855418,-1.6812821782187135,-6.057320989347471,-0.6222247462638094
14.5433096,-2.003436878826271,-5.822765342910499,-0.6735936521759891
14.54806501,-2.3244198328450394,-5.557512824179636,-0.7244767551338358
14.55282043,-2.643325408244299,-5.262767386862552,-0.7746911124426408
14.55757579,-2.959247083789226,-4.939938918346902,-0.8240524280933658
14.56233121,-3.271279629114371,-4.590632752519048,-0.8723750140567056
14.56708663,-3.578520984872798,-4.216637511475451,-0.9194718830924606
14.57184204,-3.880073834287108,-3.819911434358798,-0.965154971843914
14.57659741,-4.175046867122362,-3.4025673645634487,-1.0092354849251335
14.58135283,-4.462555746898919,-2.966856575540344,-1.0515243429086003
14.58610824,-4.741723801787338,-2.51515162038302,-1.091832712010857
14.59086366,-5.0116824689820865,-2.0499283913632786,-1.129972593577307
14.59561908,-5.271571531350506,-1.5737475730289037,-1.1657574577124477
14.60037444,-5.520539193560518,-1.0892356673484482,-1.1990029147386534
14.60512986,-5.757742052411085,-0.5990657629808781,-1.2295274263505003
14.60988527,-5.982345022571052,-0.10593821413415622,-1.2571530626820933
14.61464069,-6.193521284351936,0.38743861184230566,-1.2817063118381944
14.61939605,-6.390452324421665,0.8783673650292166,-1.303018946038626
14.62415147,-6.5723281432837615,1.3641803746104122,-1.3209289449058308
14.62890689,-6.7383477046003835,1.8422578009343789,-1.3352814727534723
14.6336623,-6.887719700777095,2.310045144177611,-1.345929903744383
14.63841767,-7.019663706510879,2.7650699835310255,-1.3527368869099778
14.64317308,-7.1334117871956195,3.20495782946604,-1.3555754425080517
14.6479285,-7.228210622233049,3.627446981283725,-1.354330082083922
14.65268392,-7.303324194546089,4.0304022928209005,-1.3488979466094138
14.65743934,-7.358037087139834,4.411827760810394,-1.339189959593472
14.6621947,-7.391658415639707,4.769877862818059,-1.3251319943574709
14.66695012,-7.403526412571928,5.1028675847035005,-1.3066660561876697
14.67170553,-7.393013664900174,5.4092810909582845,-1.2837514805779557
14.67646095,-7.359532991113419,5.687779004856949,-1.2563661482899757
14.68121631,-7.302543928094604,5.937204278910738,-1.2245077166272962
14.68597173,-7.221559781263252,6.156586649438174,-1.1881948642670233
14.69072715,-7.116155174340066,6.345145681959498,-1.147468544291493
14.69548256,-6.985974017889439,6.502292426400103,-1.1023932367963218
14.70023793,-6.830737799028003,6.627629712593807,-1.053058188767018
14.70499335,-6.650254078944956,6.720951127166496,-0.9995786250459258
14.70974876,-6.444425070877382,6.782238722403664,-0.9420969104367726
14.71450418,-6.2132561596316185,6.811659516011682,-0.8807836395672949
14.71925954,-5.956864215165068,6.80956084767038,-0.8158386281804059
14.72401496,-5.675485547374204,6.7764646639359825,-0.7474917770284484
14.72877038,-5.3694833470554135,6.71306080747704,-0.6760037773949092
14.73352579,-5.039354458861888,6.620199389956112,-0.6016666253756517
14.73828116,-4.685735335766746,6.498882330258101,-0.5248039104206962
14.74303658,-4.309407030839611,6.35025414134104,-0.44577084238175935
14.74779199,-3.9112990908436176,6.175592049843884,-0.3649539806497835
14.75254741,-3.4924922271049006,5.976295532799987,-0.28277062920635154
14.75730277,-3.0542196522021285,5.753875355427359,-0.19966786287707475
14.76205819,-2.5978669861866095,5.509942193042384,-0.11612115297339648
14.76681361,-2.1249706531102546,5.246194918723333,-0.032632564815504805
14.77156902,-1.6372147073176024,4.964408636502177,0.05027149491416921
14.77632439,-1.1364260488846567,4.6664225376824024,0.13204299677801143
14.7810798,-0.6245680084244091,4.3541276554878,0.21211548216743312
14.78583522,-0.10373230296332736,4.029454590772007,0.28990773375978146
14.79059064,0.4238706134936474,3.694361279063987,0.364827917340455
14.795346,0.9559227589753245,3.350820866839851,0.4362781817820532
14.80010142,1.4900113243629538,3.0008097625941756,0.5036596958987191
14.80485684,2.023642776685089,2.6462959260065486,0.5663780923359237
14.80961225,2.5542582549948785,2.2892274562315102,0.6238492794665306
14.81436762,3.079250129908616,1.9315215380470898,0.6755055722143347
14.81912303,3.5959795807914654,1.5750538022064042,0.7208020814923431
14.82387845,4.1017950295902486,1.2216481537130053,0.7592232892551837
14.82863387,4.59405125742815,0.8730671187174307,0.7902897221085347
14.83338923,5.070129019217859,0.5310027572194116,0.8135646216766372
14.83814465,5.527454962645469,0.1970681848725923,0.8286604958182778
14.84290006,5.963521650842731,-0.1272102567055655,0.8352454231471047
14.84765548,6.375907482757898,-0.44040014511280906,0.8330489763324677
14.85241085,6.762296301487102,-0.741169404341386,0.8218676294128366
14.85716626,7.12049647859901,-1.0282919820991436,0.801569522107725
14.86192168,7.44845926206339,-1.3006527466032387,0.7720984696572285
14.8666771,7.744296177461622,-1.557251573676181,0.7334771282880862
14.87143246,8.006295277576395,-1.7972065975586273,0.6858092512672909
14.87618788,8.232936044839244,-2.0197566030778,0.6292809957965056
14.88094329,8.422902764475477,-2.2242625428983906,0.5641612643998435
14.88569871,8.575096202999465,-2.410208171459819,0.49080108454134797
14.89045408,8.688643446341255,-2.5771997965994338,0.4096320465534139
14.89520949,8.762905774018082,-2.724965160411768,0.3211638329824203
14.89996491,8.79748447044561,-2.853351472205606,0.2259808830388565
14.90472033,8.79222450173331,-2.96232262808609,0.12473824484061918
14.90947569,8.747216015730045,-3.051955663262894,0.018156676068300667
14.91423111,8.66279365378193,-3.1224364941468616,-0.09298293941663613
14.91898652,8.539533693433276,-3.1740550170490938,-0.20784578569314605
14.92374194,8.37824907092315,-3.207199638225294,-0.32554984197058956
14.9284973,8.17998235978549,-3.2223513155811325,-0.44517306221056174
14.93325272,7.94599680643285,-3.2200771951946945,-0.5657609248616069
14.93800814,7.677765544892297,-3.2010239257332413,-0.6863342697942987
14.94276355,7.376959130750229,-3.1659107308544563,-0.8058973398336471
14.94751897,7.045431548971577,-3.115522314015886,-0.923445945346559
14.95227434,6.685204861903647,-3.050701662286356,-1.0379756720075972
14.95702975,6.298452672931416,-2.9723428066325477,-1.14849005399218
14.96178517,5.887482588442105,-2.881383586870892,-1.2540086373684296
14.96654053,5.45471786632906,-2.7787984610710166,-1.3535748614895273
14.97129595,5.002678443198944,-2.6655913922966454,-1.4462636900153518
14.97605137,4.533961534390283,-2.54278884034451,-1.5311889281593292
14.98080678,4.051222000425105,-2.411432882493374,-1.6075101691080673
14.98556215,3.557152670325496,-2.272574484994178,-1.6744393203098966
14.99031756,3.0544648063208926,-2.1272669458686813,-1.7312466691838222
14.99507298,2.5458688860059953,-1.9765595293051172,-1.7772664572253063
14.9998284,2.0340558671839934,-1.8214913123877148,-1.8119019408567445
15.00458376,1.5216790877185737,-1.6630852659984088,-1.8346299260719428
15.00933918,1.0113369382051052,-1.5023425934179764,-1.8450047712785644
15.0140946,0.5055564298773488,-1.3402373522506514,-1.8426618579976906
15.01885001,0.006777764654129323,-1.177711387428925,-1.827320531661542
15.02360538,-0.48266000084756294,-1.0156696046965321,-1.7987865146284896
15.02836079,-0.9605321199149311,-0.854975614580117,-1.7569537913498992
15.03311621,-1.4247400852940075,-0.6964477760738198,-1.7018059625001074
15.03787158,-1.8733222732724337,-0.5408556669944093,-1.633417062048832
15.04262699,-2.3044632646978163,-0.3889170044348568,-1.5519518295900936
15.04738241,-2.716501817697391,-0.2412950343667105,-1.4576654299172245
15.05213782,-3.107937478486999,-0.09859640466055766,-1.3509026124020924
15.05689319,-3.477435827253907,0.038630469069468966,-1.2320963036459538
15.06164861,-3.8238323655672644,0.16989654018978992,-1.1017656279483137
15.06640402,-4.146135060251173,0.29477277044276945,-0.9605133516307637
15.07115944,-4.4435255664067945,0.41289027675627976,-0.8090227494940329
15.0759148,-4.715359159522817,0.5239399947935047,-0.6480538948445225
15.08067022,-4.96116341351291,0.6276718730937865,-0.4784393785483739
15.08542564,-5.180635668147634,0.7238936161184062,-0.30107946726801066
15.09018105,-5.373639335774315,0.8124689989219118,-0.11693671617804348
15.09493642,-5.540199103517089,0.8933157805286303,0.07296994315645647
15.09969184,-5.68049509340197,0.9664032474040687,0.26757161355279907
15.10444725,-5.794856049127221,1.0317494226523805,0.4657563098725383
15.10920267,-5.883751624516961,1.089417980702415,0.6663762661633376
15.11395803,-5.947783854980297,1.1395149111982006,0.8682556291613968
15.11871345,-5.987677899350507,1.1821849794850035,1.0701984892973677
15.12346887,-6.004272145006492,1.2176080343447129,1.2709971946375367
15.12822423,-5.9985077738946915,1.2459952163222212,1.469440887572283
15.13297965,-5.971417890802203,1.2675851219244203,1.6643241986207766
15.13773506,-5.924116317941169,1.282639979992527,1.8544560265666232
15.14249048,-5.85778616158537,1.291441896472135,2.0386683294203087
15.14724585,-5.773668257071705,1.2942892224594522,2.2158248466237147
15.15200126,-5.673049597772314,1.2914930976413235,2.3848296697368667
15.15675668,-5.557251851490291,1.2833742169972506,2.5446355768645326
15.1615121,-5.427620064063443,1.2702598629120105,2.694252045516963
15.16626746,-5.285511644827638,1.252481237758624,2.8327528595710647
15.17102288,-5.132285722138295,1.230371123728313,2.9592832285388955
15.17577829,-4.969292949586852,1.2042618874699929,3.0730663414848394
15.18053371,-4.797865835128073,1.1744838373329032,3.1734092837198697
15.18528908,-4.619309656289235,1.141363931167028,3.2597082518930636
15.19004449,-4.4348940151471545,1.1052248232588904,3.331453012252141
15.19479991,-4.245845076990946,1.0663842305423021,3.388230557449596
15.19955527,-4.05333852672597,1.0251545910601922,3.42972792896179
15.20431069,-3.8584932673584147,0.9818429819246561,3.455734184489897
15.20906611,-3.6623658755908934,0.9367512597294034,3.4661415021088327
15.21382152,-3.4659458208971636,0.8901763834049911,3.4609454249384455
15.21857689,-3.2701514466263237,0.8424108777216134,3.440244261338646
15.2233323,-3.075826704857941,0.7937433948951771,3.4042376658145623
15.22808772,-2.8837386309602002,0.7444593319289267,3.3532244348109903
15.23284314,-2.6945755390613164,0.6948414623316891,3.287599559281052
15.2375985,-2.5089459157841203,0.6451705425917154,3.2078505822319396
15.24235392,-2.3273779863899606,0.5957258561274735,3.1145533142778787
15.24710934,-2.1503199247060856,0.5467856602574479,3.008366963510098
15.2518647,-1.978140675719035,0.4986275049327632,2.8900287377608356
15.25662012,-1.8111313574395598,0.4515283954985977,2.7603479777321596
15.26137553,-1.6495072065606171,0.4057647755525602,2.620199878703834
15.26613095,-1.4934100305276286,0.3616123100123499,2.4705188568968253
15.27088631,-1.3429111269238294,0.31934545274173015,2.3122916143249514
15.27564173,-1.1980146295830296,0.2792367874426782,2.1465499533701955
15.28039715,-1.0586612396487536,0.24155613491496625,1.9743633895935102
15.28515251,-0.9247322989753892,0.20656942412869658,1.7968316086460387
15.28990793,-0.7960541628552826,0.17453732879316627,1.615076810755573
15.29466335,-0.6724028290545537,0.14571367521573977,1.430235984273315
15.29941876,-0.5535087805198969,0.12034363123550626,1.2434531482670548
15.30417413,-0.43906199983581445,0.09866168990635309,1.0558716031704574
15.30892954,-0.3287171145056572,0.08088946539770253,0.8686262280270456
15.31368496,-0.2220986333129656,0.06723332225751039,0.6828358628526124
15.31844038,-0.11880623529313848,0.05788186269494238,0.49959581501055383
15.32319574,-0.018420074124934148,0.05300329982713899,0.3199705291576227
15.32795116,0.07949393802651576,0.05274274782795225,0.1449864611579266
15.33270658,0.17537890206007567,0.05721946255500849,-0.02437480273490986
15.33746194,0.26968179270338344,0.06652406847222427,-0.18718313925320057
15.34221736,0.3628484413287405,0.08071580950865026,-0.342566151090817
15.34697277,0.4553186725980468,0.09981986289678935,-0.4897150558895994
15.35172819,0.5475216254403322,0.12382475601400873,-0.6278901572382931
15.35648355,0.6398712872372967,0.15267992681091147,-0.7564258535746864
15.36123897,0.7327622680068266,0.1862934685546536,-0.8747351411293788
15.36599439,0.8265658387881388,0.22453009934391308,-0.9823135676938052
15.37074975,0.9216262553662452,0.2672093961537168,-1.078742595054375
15.37550517,1.0182573850005108,0.3141043320136548,-1.1636923294212425
15.38026058,1.1167396500465885,0.36494015326745444,-1.2369235811027437
15.385016,1.2173172983955687,0.4193936316530059,-1.2982892170178328
15.38977137,1.3201960065989953,0.4770927231342381,-1.3477347723336146
15.39452678,1.4255408174906243,0.5376166619852115,-1.3852982904701447
15.3992822,1.533474410149045,0.6004965145754877,-1.4111093638770018
15.40403756,1.644075696284137,0.6652162126691602,-1.4253873514040982
15.40879298,1.7573787337043965,0.7312140808998676,-1.4284387519267492
15.4135484,1.8733719445877592,0.7978848675228721,-1.4206537185564059
15.41830381,1.9919976241508905,0.8645822816740047,-1.4025017046632449
15.42305918,2.1131517246917135,0.9306220342547951,-1.374526245356371
15.4278146,2.236683901804023,0.9952853732982984,-1.3373388999156577
15.43257001,2.3623978140700874,1.0578230984801291,-1.2916124119300436
15.43732538,2.490051673375973,1.1174600337547387,-1.2380731779590977
15.44208079,2.619359047786495,1.1733999323749564,-1.1774931433450304
15.44683621,2.7499899209607217,1.2248307850017741,-1.1106812605837768
15.45159163,2.8815720113327288,1.270930499105719,-1.0384746524929123
15.45634699,3.013692351806145,1.310872916083561,-0.9617296227382833
15.46110241,3.1458991277204897,1.3438341311276858,-0.881312652771684
15.46585782,3.2777037681365266,1.3689990796158091,-0.7980915182280137
15.47061319,3.408583283410183,1.3855683524382418,-0.712926649965076
15.47536861,3.5379828406388603,1.3927652011125464,-0.626662855607419
15.48012402,3.6653185677579088,1.38984269165168,-0.5401215070043718
15.48487944,3.7899805766302856,1.3760909638822847,-0.4540932876841682
15.4896348,3.9113361951758887,1.3508445502326445,-0.36933158233373714
15.49439022,4.0287333982452,1.3134897049594358,-0.28654657761715474
15.49914564,4.141504426453689,1.2634716914319748,-0.20640013028902382
15.503901,4.248969581515175,1.2003019715320888,-0.12950144462382152
15.50865642,4.350441185711599,1.1235652375613852,-0.056403586799231874
15.51341184,4.445227691968033,1.032926223404411,0.012399150775339726
15.51816725,4.5326379295092565,0.9281362282326816,0.07647303688461787
15.52292262,4.611985468198101,0.8090392829311872,0.1354458568601919
15.52767803,4.6825930823423345,0.6755778868873201,0.18900706597968192
15.53243345,4.743797291984107,0.5277982410165792,0.23690718412403264
15.53718881,4.794952956501466,0.3658549021090588,0.2789564868444902
15.54194423,4.835437891880308,0.1900147839091715,0.31502305856380597
15.54669965,4.864657479424114,0.0006604318474862913,0.34503028273154857
15.55145501,4.882049230125783,-0.2017074990010939,0.36895385133188385
15.55621043,4.887087265600835,-0.4164686294608026,0.386818382084185
15.56096585,4.8792866736004,-0.6428821674710347,0.3986937353745286
15.56572126,4.858207694052409,-0.8800872019975766,0.4046911228443063
15.57047663,4.823459690840074,-1.1271040312208214,0.404959093582217
15.57523204,4.7747048655808575,-1.3828365709892239,0.39967947147497235
15.57998746,4.711661672542153,-1.6460758835398424,0.3890633011898231
15.58474283,4.634107897932898,-1.9155048594876862,0.3733468452927236
15.58949824,4.541883371255127,-2.189704077371628,0.35278766469332584
15.59425366,4.434892280551699,-2.4671588541852176,0.32766080937180764
15.59900908,4.313105067128833,-2.7462674872631307,0.2982551445007504
15.60376444,4.176559878894266,-3.025350672842715,0.26486983671643094
15.60851986,4.025363565111794,-3.3026620698785694,0.22781102513300944
15.61327527,3.8596921992984212,-3.576399959586449,0.1873887010162347
15.61803064,3.679791121232794,-3.8447199320903156,0.14391381847931134
15.62278605,3.485974493606084,-4.1057485118601855,0.09769565603871534
15.62754147,3.2786243737492797,-4.357597613861911,0.049039445527448156
15.63229684,3.058189306155517,-4.598379703097548,-0.001755718965390687
15.63705225,2.825182447168382,-4.8262235121827,-0.05439868344250574
15.64180767,2.5801792390574474,-5.039290155487805,-0.10860774288918792
15.64656308,2.323814656412353,-5.235789464784252,-0.1641118558273709
15.65131845,2.0567800529870683,-5.41399636073555,-0.22065156747534
15.65607387,1.7798196416104357,-5.572267067212357,-0.27797964822962046
15.66082928,1.4937266435732097,-5.70905497138937,-0.3358614578197002
15.66558465,1.1993391471500363,-5.82292593193079,-0.39407504884191574
15.67034006,0.8975357177288795,-5.912572840298268,-0.4524110263713623
15.67509548,0.5892308044360947,-5.976829246311701,-0.5106721830151885
15.67985085,0.27536999018126124,-6.01468186851224,-0.5686729312279721
15.68460626,-0.043074866241370996,-6.0252818225244775,-0.6262385570707958
15.68936168,-0.365110545887229,-6.0079544163483245,-0.6832043218928244
15.6941171,-0.6897273918556259,-5.962207380144205,-0.7394144405989969
15.69887246,-1.0159041855681783,-5.887737419376076,-0.7947209671328879
15.70362788,-1.3426129242091012,-5.784435003841091,-0.8489826193934362
15.70838329,-1.6688234465615663,-5.652387330716488,-0.9020635768244202
15.71313866,-1.9935078555746715,-5.491879426714197,-0.9538322841885044
15.71789408,-2.315644688233359,-5.303393382032624,-1.0041602944711234
15.72264949,-2.6342227868370336,-5.087605736212832,-1.0529211824530285
15.72740486,-2.948244830756765,-4.845383062378951,-1.0999895582419714
15.73216027,-3.256730494208505,-4.5777758208492845,-1.145240206837186
15.73691569,-3.5587192034764468,-4.286010575068089,-1.1885473753358602
15.74167111,-3.8532724760716968,-3.9714806817555277,-1.2297842233722704
15.74642647,-4.139475834083899,-3.6357355828426585,-1.2688224447082173
15.75118189,-4.416440294005201,-3.280468839064209,-1.3055320590187434
15.75593725,-4.683303445189566,-2.907505054037588,-1.3397813643109566
15.76069267,-4.9392301386308555,-2.5187858432884167,-1.371437034615739
15.76544809,-5.183412816814128,-2.116355005078306,-1.4003643468982327
15.7702035,-5.415071523942512,-1.702343049423285,-1.4264275254993999
15.77495887,-5.633453643727348,-1.2789512391547155,-1.449490198997212
15.77971428,-5.83783341902548,-0.8484352932568109,-1.4694159695774656
15.7844697,-6.0275113138839345,-0.4130888987837978,-1.4860690968746377
15.78922506,-6.2018132839902504,0.02477282625581101,-1.4993152969337913
15.79398048,-6.360090025985898,0.4628297805934705,-1.5090226537254825
15.7987359,-6.501716279317718,0.8987731036813799,-1.5150626368985656
15.80349126,-6.626090255995764,1.3303210463246131,-1.5173112162209679
15.80824668,-6.732633273573279,1.7552343637460457,-1.515650061045371
15.8130021,-6.8207896647348685,2.1713311132743924,-1.5099678123389166
15.81775746,-6.890027033039937,2.576500746404804,-1.5001614151517293
15.82251288,-6.93983691866513,2.9687173937353952,-1.4861375004131931
15.82726829,-6.969735930509647,3.346052251152207,-1.4678138060880326
15.83202371,-6.9792673918948696,3.706684986442823,-1.4451206285412634
15.83677908,-6.968003536473643,4.048914097040014,-1.4180022952115243
15.84153449,-6.935548279056363,4.371166161600183,-1.386418649370527
15.84628986,-6.881540573038623,4.672003940394342,-1.3503465370161036
15.85104527,-6.805658352140038,4.950133291843668,-1.3097812850296944
15.85580069,-6.707623039413196,5.2044088847972105,-1.2647381588034716
15.86055611,-6.58720459118023,5.433838698166827,-1.2152537866853113
15.86531147,-6.444227027990525,5.637587311158762,-1.161387537781048
15.87006689,-6.278574389216183,5.814977998451762,-1.10322283881648
15.8748223,-6.090197032909364,5.965493655171082,-1.0408684148207812
15.87957767,-5.879118188472744,6.088776586307068,-0.9744594373197066
15.88433309,-5.645440657010572,6.184627204220332,-0.9041585625598808
15.8890885,-5.389353543405973,6.2530016859256605,-0.8301568411151216
15.89384387,-5.1111388956043475,6.294008648803517,-0.7526744791450097
15.89859928,-4.811178120505657,6.307904909141455,-0.6719614306270091
15.9033547,-4.48995804234245,6.2950903924322885,-0.5882977990469883
15.90811006,-4.148076468402866,6.256102267706971,-0.5019940262689105
15.91286548,-3.7862471283691983,6.191608380456286,-0.41339084560670625
15.9176209,-3.4053038572936827,6.102400060003859,-0.32285897554451515
15.92237626,-3.006203898227588,5.989384377633519,-0.23079853020253457
15.92713168,-2.590030208657147,5.853575931436988,-0.13763812266348738
15.9318871,-2.1579926650838503,5.696088232817128,-0.04383363781704999
15.93664246,-1.711428072223517,5.518124767940281,0.05013334738573803
15.94139788,-1.2517988972829943,5.320969805265865,0.1437575162945075
15.94615329,-0.7806906654676616,5.105979017692627,0.23651215453481603
15.95090866,-0.29980797009713644,4.874569984967133,0.32785189459646563
15.95566408,0.1890309307532362,4.628212638932139,0.41721587112023284
15.96041949,0.6839009395443638,4.368419711076025,0.5040312892023312
15.96517486,1.1827783545163948,4.096737238772436,0.5877174014434005
15.96993027,1.6835504819977591,3.814735183614321,0.6676898820160808
15.97468569,2.1840265720377623,3.523998212343688,0.7433655776565432
15.97944111,2.6819500034007415,3.226116688024072,0.814167606178707
15.98419647,3.1750116248859177,2.9226779162543606,0.8795307629118777
15.98895189,3.660864142303176,2.6152576883340104,0.9389071845081518
15.9937073,4.137137424352419,2.3054121603071365,0.9917722080977557
15.99846267,4.601454586177172,1.994670103672156,1.037630352139714
16.00321808,5.051448696585279,1.6845255601872051,1.0760213339692866
16.00797345,5.484779943990659,1.3764309296297133,1.1065260285661178
16.01272887,5.899153087144992,1.0717905156978578,1.1287722643108442
16.01748428,6.292335009690039,0.7719545517067663,1.142440345710642
16.0222397,6.662172192312334,0.4782137245946435,1.1472681918084848
16.02699506,7.006607912631807,0.19179421314889283,1.1430559836643532
16.03175048,7.323698980914877,-0.08614674582480354,1.1296702255201951
16.0365059,7.611631819661135,-0.3545247518065262,1.107047141306393
16.04126126,7.8687376977941454,-0.6123315863423735,1.075195348922759
16.04601668,8.093506936369284,-0.8586380047726213,1.0341977763114216
16.0507721,8.284601912852283,-1.0925959729449404,0.984212802871897
16.05552746,8.4408687049819,-1.3134403535463428,0.925474625346408
16.06028288,8.561347232338038,-1.520490053026794,0.8582928584525239
16.06503829,8.645279773228879,-1.713148646799088,0.7830513880022809
16.06979366,8.692117755936172,-1.8909045071541386,0.7002064993306966
16.07454908,8.701526746544102,-2.0533304648767414,0.6102843078459219
16.07930444,8.673389580280473,-2.200083041664756,0.5138775223365502
16.08405986,8.607807608970816,-2.3309012958750457,0.41164157578544847
16.08881527,8.505100063061425,-2.4456053284773027,0.30429016288338584
16.09357069,8.365801551905282,-2.544094498974725,0.19259022800357295
16.09832605,8.190657749963282,-2.626345402078396,0.07735645181925864
16.10308147,7.98061933874144,-2.6924096548500946,-0.04055471120355481
16.10783689,7.736834294252969,-2.742411540735918,-0.16025138866810543
16.11259225,7.460638627238954,-2.776545551391371,-0.2808129807285582
16.11734767,7.153545698094278,-2.7950738595462603,-0.40129712407005913
16.12210309,6.817234240361759,-2.798323746617076,-0.520746866436024
16.12685845,6.453535235883993,-2.786684997828165,-0.6381979874552407
16.13161387,6.064417791546003,-2.7606072660942442,-0.7526864007774364
16.13636928,5.6519741724279005,-2.720597394995513,-0.8632555724804352
16.14112465,5.2184041493949795,-2.667216681945703,-0.9689638917183989
16.14588006,4.765998820614388,-2.601078055787973,-1.0688919321394792
16.15063548,4.297124065967642,-2.5228431387637587,-1.1621495470644219
16.15539085,3.8142037908652977,-2.4332191610613165,-1.2478827475845815
16.16014626,3.319703112058937,-2.3329556968683702,-1.3252803197037026
16.16490163,2.816111633309475,-2.2228411938771213,-1.3935801431495636
16.16965704,2.305926953457317,-2.103699273315208,-1.4520751794898434
16.17441246,1.791638543238088,-1.9763847845593463,-1.5001191002427003
16.17916782,1.275712119465685,-1.841779606933926,-1.5371315268368244
16.18392324,0.7605746354071576,-1.7007882010139015,-1.5626028539684744
16.18867866,0.2485999941438433,-1.5543329221081132,-1.5760986268238932
16.19343402,-0.2579044221498647,-1.4033491189050031,-1.5772634416562799
16.19818944,-0.7567103288905042,-1.2487800497299812,-1.5658243391309832
16.20294486,-1.2456801583355481,-1.0915716567861524,-1.541593661152899
16.20770022,-1.7227776718554397,-0.9326672447236758,-1.5044713446015736
16.21245564,-2.1860775283237377,-0.7730021139041389,-1.4544466291869558
16.21721105,-2.633773783106713,-0.613498201077659,-1.3915991609171978
16.22196642,-3.064187302296331,-0.45505878121673543,-1.3160994767692582
16.22672184,-3.4757720857981647,-0.2985632842056939,-1.2282088595783651
16.23147725,-3.8671205007244245,-0.14486227911473415,-1.1282785548333312
16.23623262,-4.236967433389259,0.005227323016866805,-1.0167483433242674
16.24098803,-4.5841933742553165,0.15092679953835614,-0.8941444659659378
16.24574345,-4.907826455658855,0.2914998346386964,-0.7610769000498693
16.25049881,-5.207043467244339,0.4262563848506465,-0.6182359898732745
16.25525423,-5.481169878909029,0.5545561552501452,-0.466388439160709
16.26000965,-5.729678905777179,0.6758116553075105,-0.3063726778136253
16.26476501,-5.952189654340034,0.7894908092267191,-0.13909362111177412
16.26952043,-6.148464393427806,0.8951191019758746,0.03448315463501238
16.27427585,-6.318404998098593,0.9922812489791235,0.21333778996932587
16.27903121,-6.462048618778696,1.0806223845115521,0.3964030376205563
16.28378663,-6.579562632001537,1.1598487711003136,0.5825716331471472
16.28854204,-6.671238932804761,1.229728039549885,0.7707040927282657
16.29329741,-6.737487632188526,1.290088976419011,0.9596368840165624
16.29805283,-6.778830225924687,1.3408208827078019,1.1481909101510415
16.30280824,-6.7958923033362755,1.3818725339722564,1.3351802413655174
16.30756361,-6.789395866362172,1.413250777855149,1.5194210231652987
16.31231902,-6.7601513302667176,1.435018809884621,1.6997404848746078
16.31707439,-6.709049277791761,1.4472941721373822,1.8749859676070237
16.3218298,-6.637052038425498,1.4502465218031766,2.044033886518725
16.32658522,-6.5451851637360035,1.444095217641272,2.205798538716891
16.33134058,-6.434528868211142,1.429106771631556,2.359240665608413
16.336096,-6.306209502523645,1.405592210711241,2.5033756770729036
16.34085142,-6.161391122460976,1.3739043893996323,2.637281445016755
16.34560678,-6.001267211993329,1.3344352885279578,2.7601055760567976
16.3503622,-5.827052613363015,1.287613328490667,2.871072077677384
16.35511762,-5.639975711014708,1.2339007177746488,2.9694873393831913
16.35987298,-5.441270909966568,1.1737908494202292,3.0547453600304704
16.3646284,-5.232171443062906,1.107805749976907,3.1263321642948334
16.36938381,-5.013902535569325,1.0364935778861335,3.183829364551313
16.37413918,-4.787674949857174,0.9604261614496543,3.226916838619187
16.3788946,-4.554678927587723,0.8801965609366118,3.2553745081974292
16.38365001,-4.316078542000491,0.7964166351555034,3.2690832168462824
16.38840538,-4.073006468794959,0.7097145900709204,3.2680247196438947
16.39316079,-3.8265591807574055,0.6207324857770137,3.252280808818277
16.39791616,-3.577792568648658,0.5301236782499937,3.2220316104018414
16.40267158,-3.327717988697399,0.4385501736188589,3.177553096002253
16.40742699,-3.0772987350752503,0.3466798750212205,3.119213860963598
16.41218236,-2.827446933826722,0.2551837052766666,3.047471225495153
16.41693777,-2.579020852902132,0.16473259247363473,2.962866718896555
16.42169319,-2.332822621273267,0.07599430999563783,2.8660210090078038
16.42644855,-2.0895963486640197,-0.010369832635785333,2.7576283396821357
16.43120397,-1.850026636234166,-0.09370844660324762,2.638450538642422
16.43595934,-1.6147374676270243,-0.17338366157579724,2.5093106567566204
16.44071475,-1.3842914691301764,-0.24877485244334244,2.371086297766616
16.44547017,-1.1591895272923745,-0.31928247790117315,2.2247026950271134
16.45022559,-0.9398707521826463,-0.3843320089190144,2.071125589043108
16.45498095,-0.7267127745680768,-0.443377920625686,1.9113539567092204
16.45973637,-0.5200323656065656,-0.4959077170878033,1.746412640311226
16.46449173,-0.3200863681437549,-0.5414459549317712,1.5773449216882298
16.46924715,-0.12707292928273406,-0.5795582288084757,1.4052050845851276
16.47400256,0.05886697552991818,-0.6098550793648968,1.2310510062326219
16.47875793,0.23764773617650511,-0.6319957826814896,1.0559368176337611
16.48351335,0.4092370282974798,-0.6456919790630669,0.8809056709455765
16.48826871,0.5736534695588218,-0.6507110986366292,0.7069826517248973
16.49302413,0.7309640214429988,-0.6468795414133577,0.5351678736162154
16.49777954,0.8812811474771448,-0.6340855703122611,0.3664297932056071
16.50253491,1.0247597406535476,-0.6122818771177337,0.2016987831282432
16.50729032,1.1615938351237365,-0.5814877834497035,0.041861001970656765
16.51204574,1.2920131198489366,-0.5417910415500339,-0.11224740007523587
16.51680111,1.4162792745310728,-0.4933492029937717,-0.2598457005975776
16.52155652,1.5346821506136303,-0.4363905272434973,-0.4002136102045626
16.52631189,1.6475358222548515,-0.3712144061681306,-0.5326958248153443
16.5310673,1.7551745338120313,-0.2981912851098305,-0.65670608698512
16.53582272,1.8579485714726034,-0.2177620656701047,-0.7717307194601197
16.54057814,1.9562200872264153,-0.1304369799912117,-0.8773315957915058
16.5453335,2.0503589034348724,-0.0367939308645172,-0.9731485148606817
16.55008892,2.140738325867522,0.06252370352422049,-1.0589009485307073
16.55484428,2.227730992301274,0.16680979699882847,-1.1343891342902508
16.5595997,2.311704782690054,0.27529872737882033,-1.199494487687297
16.56435512,2.3930188156284804,0.38716914114631235,-1.2541793126144072
16.56911048,2.472019554503576,0.5015482145538235,-1.2984857912389811
16.5738659,2.5490370455313407,0.6175163905823287,-1.3325342398556945
16.57862126,2.6243813090221195,0.7341125668033653,-1.3565206228692384
16.58337668,2.6983389049873523,0.8503397048587198,-1.3707133259091546
16.5881321,2.7711696948845135,0.9651708280005186,-1.3754492024944769
16.59288746,2.8431038229536223,1.0775553690744177,-1.3711289272076495
16.59764288,2.914338942745855,1.1864258277303767,-1.358211709718803
16.60239829,2.985037716137109,1.2907046927833234,-1.3372094439189695
16.60715366,3.0553256124912136,1.3893115836626924,-1.3086803813661705
16.61190908,3.1252890343963053,1.481170563738619,-1.2732224273884891
16.61666449,3.1949737938035687,1.565217577849098,-1.231466162729724
16.62141986,3.2643839588974894,1.6404079664521412,-1.1840676951456428
16.62617527,3.333481087982434,1.705724009420185,-1.1317014448939304
16.63093069,3.4021838623137595,1.7601824535411141,-1.0750529660455483
16.63568605,3.470368125289792,1.8028419792563428,-1.0148119020468782
16.64044147,3.537867330869726,1.8328105640057952,-0.9516651688996867
16.64519684,3.6044733995611526,1.849252701686155,-0.88629045266323
16.64995225,3.66993797584599,1.8513964400331604,-0.8193500998488291
16.65470767,3.7339740764773937,1.8385402000246949,-0.7514854699707023
16.65946303,3.796258114718187,1.8100593434504926,-0.683311809419169
16.66421845,3.8564322814402336,1.7654124563905211,-0.6154136952836284
16.66897387,3.9141072602871425,1.7041473172999768,-0.5483410870146599
16.67372923,3.968865251035787,1.625906518577748,-0.4826060130072578
16.67848465,4.020263272984843,1.5304327098410226,-0.4186799083790951
16.68324001,4.06783671862255,1.417573429687311,-0.35699160946214603
16.68799543,4.111103126848921,1.2872854906388218,-0.2979259998743198
16.69275085,4.149566144459872,1.1396388794466514,-0.2418232925362023
16.69750621,4.182719644226439,0.974820132248186,-0.18897892169712174
16.70226163,4.210051967501932,0.79313514152057,-0.1396440090159642
16.70701699,4.231050258670694,0.5950113496595145,-0.09402635814334455
16.71177241,4.245204857797222,0.3809992825857196,-0.05229192327725689
16.71652782,4.252013716557543,0.15177337618243464,-0.01456668910304361
16.72128319,4.2509868010942276,-0.09186795138880068,0.019061107121973463
16.72603861,4.241650444078286,-0.34900302745994743,0.048538484811335034
16.73079397,4.223551607239087,-0.6185884971235245,0.07384503427455873
16.73554939,4.19626201516495,-0.8994617824419305,0.09499010431536171
16.7403048,4.159382121481685,-1.1903444687102815,0.11200992141890474
16.74506017,4.11254486971172,-1.4898466549466967,0.12496468674936025
16.74981558,4.055419213182789,-1.7964723017934807,0.13393568719291224
16.754571,3.987713361116204,-2.1086256044628824,0.13902245068777497
16.75932637,3.9091777212546344,-2.424618410867574,0.1403399735165164
16.76408178,3.81960751296432,-2.742678695459787,0.13801604621951424
16.76883715,3.7188450287099295,-3.0609600875849385,0.13218870351965684
16.77359256,3.606781526259528,-3.3775524394925953,0.12300382105052893
16.77834798,3.483358738900594,-3.690493403753383,0.1106128776012164
16.78310335,3.348569996052319,-3.997780972939745,0.09517089673309122
16.78785876,3.202460951523977,-4.297386916333073,0.07683457709312169
16.79261413,3.045129920993145,-4.587271029532752,0.05576061740178928
16.79736954,2.8767278340449645,-4.86539609372436,0.03210424015440687
16.80212496,2.6974578095378736,-5.129743422686221,0.006017917217615581
16.80688032,2.5075743663931394,-5.378328858081395,-0.02234969981178734
16.81163574,2.307382285264958,-5.609219057849905,-0.052854641885852455
16.81639116,2.097235139878351,-5.82054790911609,-0.08535827540973956
16.82114652,1.877533519966174,-6.010532886342723,-0.1197277449145539
16.82590194,1.6487229705604496,-6.17749116775734,-0.1558362065007075
16.8306573,1.4112916748677427,-6.319855318538895,-0.19356285561644926
16.83541272,1.1657679101622045,-6.436188348033276,-0.23279275586310008
16.84016814,0.9127173082021446,-6.525197950448543,-0.2734164789537469
16.8449235,0.6527399537488152,-6.585749744060215,-0.3153295693898981
16.84967892,0.386467356905098,-6.616879332860014,-0.35843185060007715
16.85443428,0.11455933717132909,-6.617803026708538,-0.4026265920634046
16.8591897,-0.16229914076700733,-6.587927071308927,-0.4478195592947593
16.86394512,-0.4434011376132893,-6.526855257623184,-0.49391797051759057
16.86870048,-0.7280208730439511,-6.434394801599412,-0.5408293853849756
16.8734559,-1.0154167781959578,-6.3105604090383,-0.5884605521528037
16.87821131,-1.3048344230841527,-6.155576466652044,-0.6367162401538128
16.88296668,-1.5955092761407694,-5.969877328173906,-0.6854980842015608
16.8877221,-1.8866692554322422,-5.754105692891866,-0.7347034666766379
16.89247746,-2.1775370349014844,-5.5091091022170655,-0.7842244615446355
16.89723288,-2.467332074395972,-5.235934606840509,-0.8339468623997088
16.90198824,-2.755272349232175,-4.93582168176263,-0.8837493136945953
16.90674366,-3.040575763291619,-4.610193488304395,-0.9335025604147675
16.91149908,-3.322461238655484,-4.26064660070722,-0.9830688264044172
16.91625444,-3.600149484065313,-3.888939329928067,-1.0323013253683895
16.92100986,-3.872863453670016,-3.496978788699881,-1.0810439018866544
16.92576527,-4.139828516454628,-3.086806849839801,-1.1291307943943116
16.93052064,-4.40027236557181,-2.660585154131989,-1.176386510656094
16.93527605,-4.6534247056452305,-2.220579325042921,-1.222625810340189
16.94003142,-4.898516764795113,-1.7691425456087335,-1.2676537973934228
16.94478684,-5.134780686142953,-1.3086986490502095,-1.3112661332245144
16.94954225,-5.361448860416954,-0.841724870102552,-1.3532493867913873
16.95429762,-5.577753266833385,-0.37073439948151876,-1.3933815383801347
16.95905303,-5.782924893691754,0.1017411203317071,-1.4314326509560888
16.9638084,-5.976193313051896,0.5731690237686198,-1.467165718046261
16.96856381,-6.156786485269618,1.0410328450203783,-1.5003376916703512
16.97331923,-6.323930868814008,1.502849208917093,-1.5307006889532646
16.9780746,-6.476851908512464,1.9561842683409085,-1.558003372361022
16.98283001,-6.614774971142544,2.3986695719949567,-1.5819924962463285
16.98758538,-6.736926791200468,2.8280172525012905,-1.6024146114801747
16.99234079,-6.842537481881202,3.242034431869206,-1.6190179200294155
16.99709616,-6.930843156997224,3.638636749379567,-1.631554271890542
17.00185158,-7.001089198940014,4.0158609258182425,-1.6397812972395116
17.00660699,-7.052534196021173,4.371876287645319,-1.6434646665628416
17.01136236,-7.08445455975967,4.704995184942757,-1.6423804706810206
17.01611777,-7.096149819045083,5.013682247658333,-1.6363177109605207
17.02087319,-7.086948573763692,5.296562435577671,-1.6250808877541738
17.02562855,-7.056215075608696,5.552427848438875,-1.6084926723528603
17.03038397,-7.00335638861669,5.780243273496156,-1.5863966445873905
17.03513934,-6.927830066728359,5.979150458499815,-1.5586600747747716
17.03989475,-6.829152270662314,6.148471108383094,-1.5251767250427162
17.04465012,-6.70690623196287,6.287708613856313,-1.4858696412929204
17.04940553,-6.560750958615569,6.396548529544984,-1.440693903310694
17.05416095,-6.390430064525737,6.474857828203105,-1.3896392969630316
17.05891631,-6.195780594839121,6.522682965795212,-1.3327328692277134
17.06367173,-5.9767417109164,6.540246799759447,-1.2700413241118311
17.0684271,-5.733363093010982,6.527944409426514,-1.201673215445836
17.07318251,-5.465812915459034,6.486337873299566,-1.127780891139592
17.07793793,-5.174385248480536,6.416150062692085,-1.0485621428264185
17.08269329,-4.859506742459893,6.318257515147624,-0.9642615149941552
17.08744871,-4.521742454751082,6.19368245425146,-0.8751712288070043
17.09220408,-4.161800685556253,6.043584025022778,-0.7816316779079978
17.09695949,-3.780536698172925,5.869248816155063,-0.6840314565277661
17.10171491,-3.378955209782518,5.672080742028351,-0.5828068841178664
17.10647027,-2.9582115518063796,5.453590358708367,-0.47844099537692986
17.11122569,-2.5196114134870147,5.215383689133185,-0.3714619698768871
17.11598105,-2.0646090985396386,4.959150633430137,-0.26244098147727024
17.12073647,-1.5948042422264928,4.686653040863836,-0.15198945427917704
17.12549184,-1.1119369547953475,4.39971252034082,-0.04075571893062746
17.13024725,-0.6178813766766417,4.100198066729547,0.07057892944907862
17.13500267,-0.1146376509764828,3.7900135805294837,0.18130476269291693
17.13975803,0.39567766050356096,3.471085358655815,0.29068872329242407
17.14451345,0.9108426704018542,3.145349634285616,0.39798007500967697
17.14926881,1.4285426995481938,2.814740243794186,0.5024165663665409
17.15402423,1.9463841618460345,2.4811764987226166,0.6032310639024085
17.15877965,2.4619096906225884,2.146551340357545,0.6996586024549067
17.16353501,2.972614377799698,1.812719853736052,0.7909437893276393
17.16829043,3.4759629796931946,1.4814882165359897,0.8763484878268463
17.17304579,3.969407927247938,1.1546031561738066,0.95515969317126
17.17780121,4.450407964158232,0.8337419853503435,1.026697500486255
17.18255663,4.916447223797364,0.5205032822399517,1.0903230512601199
17.18731199,5.365054545452545,0.21639827668739248,1.1454463324307984
