Time (s),Acceleration x (m/s^2),Acceleration y (m/s^2),Acceleration z (m/s^2)
9.000050962,-3.3257022249781634,2.9638693511560024,0.5942434953774304
9.004840806,-3.3376086342026245,2.55641332625738,0.4278383609402969
9.009617317,-3.3441294368903227,2.140934803186334,0.2640861364603719
9.014380546,-3.3452385950352834,1.7195535562508824,0.10401265318571291
9.019170337,-3.3409117753030957,1.2943991578501557,-0.05138998938111438
9.0239469,-3.3311250286894665,0.8675916830980294,-0.20117320186075702
9.028710129,-3.3158537654568483,0.4412231714836206,-0.344441170517564
9.033499973,-3.295072066428532,0.017340132454444948,-0.4803594757883274
9.038276483,-3.268752363273057,-0.40207264438571955,-0.6081629426793693
9.04303966,-3.236865510930539,-0.8151067481071697,-0.7271626189465551
9.047829504,-3.1993812649785496,-1.2199430912892226,-0.8367517985386006
9.052606067,-3.1562691655301927,-1.614863010095815,-0.9364110333972229
9.057369296,-3.1074998174425272,-1.9982574478290043,-1.025712104163558
9.062159087,-3.0530465450053175,-2.3686342112737746,-1.1043209459239023
9.06693565,-2.9928873889324574,-2.7246233464535954,-1.1719995452798455
9.071698879,-2.927007404925148,-3.064980729129687,-1.2286068382071622
9.076488723,-2.8554012160899354,-3.3885900030803824,-1.2740986453081538
9.081265233,-2.7780757655022605,-3.6944630257242386,-1.3085266844791215
9.086028462,-2.695053209706365,-3.981738997106775,-1.3320367029659106
9.090818306,-2.6063738886746446,-4.24968245616501,-1.3448657726999274
9.095594817,-2.5120993028073078,-4.4976803290034155,-1.3473387952998357
9.100358046,-2.4123150234364674,-4.725238209016376,-1.3398642663013507
9.10514789,-2.307133460746548,-4.931976039326735,-1.322929351957401
9.1099244,-2.1966964126995636,-5.117623355355178,-1.2970943361874732
9.114687629,-2.081177320815229,-5.282014230470933,-1.2629864997415574
9.119477473,-1.9607831634917612,-5.425082051516275,-1.2212934980841823
9.124253983,-1.8357559246548443,-5.5468542342482765,-1.1727563085148585
9.129017212,-1.7063735843868295,-5.6474469718911395,-1.1181618202338646
9.133807056,-1.5729505882049994,-5.727060093355214,-1.058335143169179
9.138583567,-1.4358377621865153,-5.785972091452567,-0.994131712327614
9.143346796,-1.2954216516267987,-5.824535365779175,-0.9264292643022896
9.14813664,-1.1521232710254106,-5.843171710008268,-0.8561197615026616
9.152913202,-1.0063962628159813,-5.842368059338324,-0.7841013378020609
9.157676379,-0.8587244714605602,-5.8226725009484035,-0.711270336707305
9.162466223,-0.7096189484581158,-5.784690538686685,-0.63851350990608
9.167242785,-0.559614412628039,-5.729081592967493,-0.5667004402201496
9.172005962,-0.4092651988447458,-5.656555708048359,-0.4966762487051474
9.176795806,-0.2591407372694531,-5.567870431528979,-0.4292546410206911
9.181572317,-0.10982061398712023,-5.463827825061047,-0.3652113433492726
9.186335546,0.038110727407215314,-5.345271560912644,-0.3052779731437319
9.19112539,0.18406957569536905,-5.213084056297778,-0.2501363849298948
9.1959019,0.3274787588527175,-5.068183596421767,-0.2004135264673105
9.200665129,0.46777358776217415,-4.911521398147699,-0.15667683605574953
9.205454973,0.6044078530197429,-4.744078569110206,-0.11943020794163497
9.210231535,0.7368597890235744,-4.566862921916353,-0.08911054971083608
9.214994712,0.8646379192329066,-4.380905609557052,-0.0660849530146989
9.219784556,0.9872866976890768,-4.187257555931868,-0.050648496452586185
9.224561067,1.1043918642984332,-3.986985663997422,-0.04302269633789333
9.229324296,1.215585434624802,-3.781168793025316,-0.04335461693699842
9.23411414,1.3205502487844059,-3.5708935054295563,-0.05171664632988237
9.23889065,1.4190240084791175,-3.357249592343272,-0.06810693724294309
9.243653879,1.5108027364491385,-3.1413253954353513,-0.09245050419489348
9.248443723,1.5957435989292055,-2.9242029502476488,-0.12460095942211387
9.253220285,1.6737670392231412,-2.7069529834671253,-0.16434286082489016
9.257983462,1.744858179301146,-2.4906298028288996,-0.21139463620091184
9.262773306,1.8090674562737328,-2.2762661235490858,-0.2654120398876682
9.267549817,1.8665104715009133,-2.0648678791355835,-0.3259920910868732
9.272313098,1.9173670416727693,-1.8574090670704808,-0.3926774378965332
9.277102942,1.961879453132946,-1.6548266812792058,-0.46496108758557636
9.281879452,2.0003499327153373,-1.4580157836578358,-0.5422914419464365
9.286642681,2.033137360179406,-1.267824766403452,-0.6240775765764597
9.291432473,2.0606532587497908,-1.0850508556529281,-0.7096947044978323
9.296209035,2.0833571110902693,-0.9104359051186377,-0.798489767390447
9.300972212,2.1017510580711583,-0.7446625261080289,-0.8897871016052703
9.305762056,2.1163740467274104,-0.5883505975868583,-0.9828941307469367
9.310538619,2.1277955016654406,-0.4420541968366684,-1.0771070416588342
9.315301796,2.1366086006972234,-0.3062589878028312,-1.1717164058274383
9.32009164,2.143423240547371,-0.18138010045165204,-1.2660127133018042
9.324868202,2.148858782045457,-0.0677605303462228,-1.3592917909990099
9.329631379,2.1535366662893605,0.03432991682195022,-1.4508600815623423
9.334421275,2.158072993880452,0.12469511588238338,-1.5400397625923958
9.339197785,2.163071158521483,0.20321253345188786,-1.6261736889408813
9.343961015,2.169114624051646,0.2698325509839058,-1.708630142751639
9.348750858,2.1767599303878167,0.32457719691662595,-1.7868073770240607
9.353527369,2.1865300089023183,0.3675382917645617,-1.8601379386832004
9.358290598,2.1989078816277576,0.39887501683523935,-1.9280927565303139
9.363080442,2.214330811562185,0.41881092429911765,-1.9901849781208718
9.367856952,2.233184963560288,0.42763041347772185,-2.0459735377234085
9.372633515,2.255800627207515,0.4256747053040091,-2.095066435236904
9.377410025,2.282448045080717,0.4133373537939875,-2.1371237034865516
9.382186535,2.3133338822732648,0.3910593398832525,-2.1718600388716025
9.386949765,2.348598366267083,0.3593237989694648,-2.1990470680758913
9.391739608,2.3883131202217918,0.3186504388392312,-2.2185152216121757
9.396516119,2.4324797073249345,0.2695897092652138,-2.2301551834806776
9.401279348,2.4810288986351434,0.2127167883778172,-2.2339188853365743
9.406069192,2.53382067145696,0.1486254538761587,-2.2298200135273825
9.410845754,2.590644939420708,0.07792190915184057,-2.2179339985520454
9.415608931,2.651223008969386,0.0012186353530585503,-2.198397459388741
9.420398775,2.715209749904807,-0.08087165976596124,-2.171407080221056
9.425175285,2.782196460188164,-0.16774192671080496,-2.1372179046588173
9.429938515,2.851714397585471,-0.25879642578558,-2.0961410425015177
9.434728358,2.9232389432547925,-0.35345608169824994,-2.0485407958384863
9.439504869,2.996194355176701,-0.4511634818480528,-1.9948312238486328
9.444281431,3.069959062542175,-0.5513874636948584,-1.9354721779704176
9.449057942,3.143871445918412,-0.6536272417440419,-1.8709648502434262
9.453834504,3.2172360423302218,-0.7574160299987066,-1.8018468869772948
9.458597733,3.2893301094909506,-0.8623241211455227,-1.7286871272013096
9.463387577,3.3594104794773627,-0.967961389244874,-1.6520800305523526
9.468164035,3.426720629301003,-1.0739791883537477,-1.5726398625001166
9.472927265,3.490497894106244,-1.1800716254323016,-1.4909947063239675
9.477717108,3.5499807480284185,-1.2859761922024429,-1.407780371337376
9.482493671,3.6044160779275685,-1.3914737474517649,-1.3236342657995233
9.487256848,3.6530663761667626,-1.4963878486724298,-1.239189301023301
9.492046744,3.6952167803168985,-1.6005834398853482,-1.1550678906050122
9.496823254,3.730181890219797,-1.7039649109328123,-1.071876105647469
9.501586431,3.7573122963407823,-1.8064735522398243,-0.9901980434709836
9.506376275,3.776000757870166,-1.908084437768212,-0.9105904636959593
9.511152837,3.7856879745714354,-2.008802777280973,-0.8335777417569624
9.515929348,3.785867902766652,-2.1086597867545644,-0.7596471858403645
9.520705858,3.7760925728171277,-2.207708132538802,-0.6892447588883345
9.525482421,3.755976372669122,-2.3060170104828117,-0.6227712426726625
9.530258931,3.7251997691960415,-2.40366692564185,-0.5605788760282162
9.535035442,3.683512445968184,-2.500744241355545,-0.5029684941481407
9.539812004,3.6307358425799343,-2.5973355684959647,-0.4501871903344779
9.544588515,3.5667650866820426,-2.693522066615417,-0.4024265156922797
9.549365077,3.4915703153937243,-2.7893737287212823,-0.3598212259177326
9.554141587,3.405197387876442,-2.8849437206737973,-0.32244857764687307
9.55891815,3.307767995645163,-2.9802628449823327,-0.2903281700262769
9.56369466,3.1994791817329737,-3.075334197266135,-0.26342232054092396
9.568471223,3.0806022840682545,-3.1701280819395437,-0.24163695796088414
9.5732344,2.951481322234518,-3.264577251761123,-0.22482300972685856
9.578024244,2.812530849986209,-3.358572533672636,-0.21277825626925598
9.582800754,2.6642332983355557,-3.451958900764782,-0.20524962068240804
9.587563983,2.5071358356277433,-3.5445320471833606,-0.20193585889487467
9.592353879,2.341846771818457,-3.636035519301352,-0.20249061304999336
9.597130337,2.169031534304605,-3.7261584525267626,-0.2065257892817864
9.601893619,1.9894082423426007,-3.8145339587173264,-0.2136152204062175
9.60668341,1.803742906535324,-3.9007382043685532,-0.22329857412495394
9.611459921,1.6128442793064566,-3.9842902145470336,-0.23508546800984095
9.616223202,1.4175583819868727,-4.064652431920654,-0.24845975369943896
9.621012994,1.2187627344450516,-4.141232054116682,-0.2628839343627281
9.625789504,1.0173603144275098,-4.213383165957712,-0.2778036815837791
9.630552785,0.8142732761474633,-4.280409675886652,-0.2926524204262189
9.635342577,0.6104364611789324,-4.3415690581642945,-0.3068559545797302
9.64011914,0.4067907391833036,-4.396076894312785,-0.3198371071756386
9.64489565,0.20427622110910024,-4.443112198895512,-0.33102035701188726
9.649672212,0.003825392951096971,-4.481823506155031,-0.33983645436852356
9.654448723,-0.1936437763567978,-4.51133568531538,-0.3457270050202315
9.659211952,-0.38723469410378597,-4.5307574434673,-0.3481490150195833
9.664001796,-0.5760789065198092,-4.539189465813255,-0.34657939177485225
9.668778306,-0.7593426976334564,-4.535733133582474,-0.3405193983439773
9.673541535,-0.9362334538044221,-4.519499750158208,-0.32949905739885943
9.678331379,-1.106005721284372,-4.489620196042077,-0.31308149898864235
9.683107942,-1.2679668829022939,-4.445254923458136,-0.290867242310805
9.687871119,-1.4214823798121852,-4.385604191968992,-0.26249839658454827
9.692660962,-1.5659804054106738,-4.309918437790057,-0.22766276026732019
9.697437473,-1.7009560011594915,-4.217508661972237,-0.18609779173243063
9.702200702,-1.8259744881175017,-4.107756716754318,-0.13759441857194382
9.706990546,-1.9406741734731714,-3.9801253656048767,-0.08200064723944217
9.711767108,-2.0447682784041277,-3.834167991083826,-0.0192249299792724
9.716530285,-2.1380460424907377,-3.669537825764768,0.05076075803915289
9.721320129,-2.220372971023899,-3.4859965849877437,0.12791818165976776
9.72609664,-2.2916902050450214,-3.283422385940195,0.21214050108397725
9.730859869,-2.3520130096782097,-3.061816845216441,0.30325037228207746
9.735649712,-2.4014283937283336,-2.8213112562994187,0.4009985430745697
9.740426223,-2.440091891780984,-2.5621717590436934,0.5050629907195064
9.745202785,-2.4682235581196315,-2.2848034248396374,0.6150486397308222
9.749979296,-2.4861032386225066,-1.989753193200686,0.7304876901707456
9.754755858,-2.4940652015633864,-1.677711607470997,0.8508405779030783
9.759519035,-2.492492220430157,-1.3495133087620375,0.9754975800026084
9.764308879,-2.4818092113809365,-1.0061362579462143,1.1037810710170557
9.769085442,-2.4624765348896545,-0.6486996656870702,1.2349484292724706
9.773848671,-2.4349830756494426,-0.27846062031080077,1.3681955871351548
9.778638515,-2.399839217023119,0.10319058696660605,1.5026612151390195
9.783415025,-2.357569826336078,0.4947364302493513,1.637431526684747
9.788178254,-2.3087073651803895,0.8945393917277612,1.7715456866929666
9.792968098,-2.25378523476005,1.3008504504773708,1.9040018033168908
9.797744608,-2.1933314602952643,1.7118187790914976,2.033763476343782
9.802507837,-2.127862810721252,2.125502600088364,2.1597668695544074
9.807297681,-2.0578794404363094,2.539881143844003,2.28092826757243
9.812074192,-1.9838601288240147,2.952867639206147,2.3961520710388
9.816837421,-1.9062581810140495,3.3623232569642076,2.5043391775603405
9.821627265,-1.8254980402773167,3.7660719150843094,2.6043956899808753
9.826403775,-1.7419726489187353,4.161915843186514,2.695241888231814
9.831167004,-1.6560415806798015,4.5476517922482325,2.7758213964091127
9.835956848,-1.5680299534935245,4.921087764079016,2.8451104727876353
9.84073341,-1.4782281170101912,5.2800601239333265,2.902127347158363
9.84549664,-1.386892094950928,5.622450949060817,2.9459415271108433
9.850286431,-1.294244748629656,5.946205456513285,2.9756829926908934
9.855062994,-1.2004776155765964,6.24934934564651,2.990551197283258
9.859826223,-1.1057533665919566,6.530005884916921,2.9898237916339023
9.864616067,-1.01020881592875,6.786412569068488,2.9728649876386664
9.869392577,-0.91395841253975,7.0169371717548445,2.939133478856744
9.874155754,-0.8170981351973723,7.220093020032482,2.888189835626647
9.87894565,-0.7197097105785087,7.394553320900594,2.8197032941582814
9.88372216,-0.6218650708960864,7.539164376022081,2.73345786106667
9.88848539,-0.5236309661944937,7.652957528794852,2.6293576575467843
9.893275233,-0.4250736459349094,7.735159697905274,2.5074314308378716
9.898051744,-0.3262635250161452,7.785202363235035,2.3678361648848223
9.902814973,-0.2272797510074801,7.8027288833558694,2.2108597272674833
9.907604817,-0.12821459219493792,7.7876000386836575,2.0369224955918477
9.912381327,-0.029177570061091597,7.73989771053697,1.8465779136111928
9.917144556,0.06970073506795668,7.659926623732838,1.6405119353043895
9.9219344,0.16826527042131806,7.548214098839648,1.419541323889545
9.92671091,0.2663335475991542,7.405507779671169,1.184610782199667
9.93147414,0.36369318067880796,7.232771321903041,0.9367889009071567
9.936263983,0.46009996847292156,7.031178049653583,0.6772629216792984
9.941040494,0.5552765554591469,6.802102608298848,0.4073323234117057
9.945817056,0.6489116974337953,6.547110663465526,0.12840125116439377
9.950593567,0.740660149538338,6.267946717816576,-0.1580301807337805
9.955370129,0.8301431861203903,5.966520138648635,-0.4503756677872934
9.960133358,0.9169497540377559,5.644889510194955,-0.7469735205867786
9.964923202,1.0006382535768286,5.30524544463494,-1.0460984275119993
9.969699712,1.080738934158969,4.949892004950478,-1.3459740934083793
9.974476223,1.15675688539957,4.581226910780498,-1.644786659971655
9.979252785,1.2281755977614772,4.201720715187755,-1.9406988009394575
9.984029296,1.2944610609089897,3.8138951556823524,-2.231864372914861
9.988792525,1.3550663618608212,3.420300896888142,-2.5164434909603015
9.993582369,1.409436739107072,3.0234948948345477,-2.7926178872051297
9.998358879,1.457015042894569,2.6260176239095876,-3.0586064007619975
10.00312211,1.497247545756352,2.230370416842154,-3.312680438342826
10.00791195,1.5295900409812242,1.8389931754280493,-3.553179237157106
10.01268846,1.5535141601526035,1.4542427147543775,-3.778524755024269
10.01745169,1.5685138343504221,1.0783720060821946,-3.9872360072773247
10.02224154,1.5741118174228415,0.7135105830163052,-4.177942666231995
10.0270181,1.5698661842545438,0.36164637185002796,-4.349397737086174
10.03178128,1.5553767125355478,0.02460919974073347,-4.500489124501155
10.03657112,1.5302910534783303,-0.2959437766859759,-4.630249907345168
10.04134768,1.4943105955217195,-0.598540495010331,-4.737867146021997
10.04611091,1.447195925617242,-0.8819040557834201,-4.822689058698499
10.05090075,1.3887717956850838,-1.1449602549639974,-4.884230420927549
10.05567726,1.3189315079937143,-1.3868424315965926,-4.922176068849994
10.06044049,1.2376406436072667,-1.606893525078152,-4.9363824204169235
10.06523034,1.1449400735038515,-1.8046652918269426,-4.92687697223249
10.0700069,1.040948211775598,-1.9799147002593116,-4.893855779724844
10.07477008,0.92586249120308,-2.1325976020476745,-4.837678980424461
10.07955992,0.7999600590665177,-2.262859858268754,-4.758864467955013
10.08433643,0.6635977029735499,-2.3710261714406706,-4.658079863561623
10.08909966,0.5172110237550579,-2.45758693170779,-4.5361329616013375
10.09388956,0.36131287758872965,-2.5231834253998495,-4.393960846786474
10.09866607,0.19649111406177946,-2.568591778044155,-4.232617896008916
10.10342924,0.023405641125297083,-2.594706013872295,-4.053262887530878
10.10821909,-0.1572151484753173,-2.602520611939735,-3.857145445660114
10.11299565,-0.3445785518436254,-2.593112926723147,-3.6455920498039274
10.11775888,-0.5378322920064067,-2.5676258196824238,-3.4199918331179804
10.12254867,-0.7360697740625178,-2.527250818800289,-3.1817823881298932
10.12732523,-0.9383358185860161,-2.4732120866579734,-2.9324357851238685
10.13208846,-1.1436328279614243,-2.40675143557491,-2.673444994023755
10.13687831,-1.3509273394775945,-2.3291145823992125,-2.4063108820950694
10.14165487,-1.55915691658929,-2.2415387874393335,-2.132529938044652
10.14641805,-1.7672373268019959,-2.1452419734653048,-1.8535828484707533
10.15120789,-1.974069951498442,-2.041413373187504,-1.5709240262342299
10.1559844,-2.17854937024395,-1.93120570836798,-1.285972163735067
10.16074763,-2.3795710601014686,-1.8157288616382141,-1.0001018586153787
10.16553747,-2.5760391493350276,-1.6960449638104316,-0.7146363357020948
10.17031398,-2.7668741643349595,-1.5731647854039705,-0.4308412670129701
10.17507721,-2.9510207082667472,-1.44804529158932,-0.14991967101240575
10.17986706,-3.127455009521271,-1.3215881951109805,0.12699214735326708
10.18464362,-3.2951922775299223,-1.1946393224525629,0.3988276731554938
10.1894068,-3.4532938033629828,-1.0679885953091814,0.6645923496818503
10.19419664,-3.600873743588924,-0.94237042356653,0.923364929559003
10.1989732,-3.7371055288588053,-0.8184643093685353,1.1742981121394844
10.20373643,-3.861227843483075,-0.6968954769861788,1.4166185744886208
10.20852628,-3.972550127782397,-0.5782353721070581,1.6496264950143749
10.21330278,-4.070457560114278,-0.463001916404693,1.8726946489760699
10.21806602,-4.1544154802925775,-0.3516594545406668,2.0852671317886275
10.22285586,-4.223973221619047,-0.24461838396346028,2.2868577493437825
10.22763237,-4.278767325297745,-0.1422345058276857,2.4770481091676597
10.2323956,-4.318524117674347,-0.04480817335050752,2.6554854493900257
10.23718544,-4.343061636267309,0.047416659643298206,2.8218802483059537
10.24196195,-4.352290894415854,0.1342533716648141,2.9760036613499374
10.24672518,-4.346216476778937,0.21557346323809215,3.1176848330676594
10.25151502,-4.324936459270146,0.2913070794347712,3.2468081295073556
10.25629159,-4.288641647677149,0.3614431480869656,3.363310332217547
10.26105476,-4.237614129761381,0.4260290279374868,3.467177829495778
10.26584466,-4.172225136908394,0.4851695763573682,3.558443834316066
10.27062117,-4.092932214203228,0.5390255647989279,3.6371856520354
10.2753844,-4.000275702480117,0.5878113910042195,3.703522015005525
10.28017424,-3.894874542207251,0.6317920592391553,3.757610495889645
10.28495075,-3.7774214164526203,0.6712794226129324,3.799645006948808
10.28971398,-3.6486772580951756,0.7066277041474107,3.8298533889014243
10.29450383,-3.509465154550626,0.7382283350903339,3.848495090217363
10.29928034,-3.360663691384931,0.7665041695031116,3.8558589358361113
10.30404362,-3.203199784150089,0.791903152908001,3.8522609831222807
10.30883346,-3.0380410554457504,0.8148915392725229,3.8380424621421714
10.31360997,-2.866187821435915,0.8359467643877767,3.813567796794839
10.3183732,-2.688664758699165,0.8555500943644594,3.779222702698944
10.32316299,-2.5065123282323722,0.874179175221902,3.7354123568034647
10.32793956,-2.3207780385121475,0.8923006132055846,3.6825596323432026
10.33270278,-2.132507633587948,0.9103627155094122,3.6211033910410055
10.33749258,-1.9427362951038512,0.9287885176243608,3.551496822563463
10.34226914,-1.7524799488504388,0.9479692168604498,3.474205819455969
10.34703237,-1.5627267669390243,0.9682581221187014,3.3897073744126045
10.35182221,-1.3744289560363294,0.9899652182711045,3.2984879860171747
10.35659878,-1.188494920394699,1.0133524301417918,3.2010420592065834
10.36136195,-1.0057818857586844,1.0386296566352202,3.0978702877867805
10.3661518,-0.8270890667075773,1.0659516304800716,2.989478008416682
10.37092831,-0.6531514556394593,1.0954156436771953,2.8763735184774424
10.37569154,-0.48463430635491617,1.1270601632928827,2.759066353968721
10.38048138,-0.3221283789123945,1.1608643469361868,2.638065527814196
10.38525794,-0.16614600495048767,1.19674845233755,2.513877733567046
10.39002112,-0.017118023925294882,1.2345751211718503,2.3870055243539765
10.39481096,0.1246083692961687,1.2741515038987177,2.257945481761569
10.39958753,0.2587708362283014,1.315232180128464,2.127186393869141
10.40435075,0.38519214888585357,1.3575228179895706,1.9952074652916103
10.4091406,0.5037794821413383,1.400684506232603,1.8624765844932984
10.41391711,0.6145227536680938,1.444338684370358,1.729448674522434
10.41868034,0.7174920343948091,1.4880725890202045,1.5965641526514953
10.42347018,0.8128340658178019,1.5314451287831967,1.4642475223059903
10.42824669,0.9007679334977531,1.5739930954924641,1.3329061173356058
10.43300992,0.9815799583396967,1.6152376165405853,1.2029290143743392
10.43779977,1.0556178785678374,1.6546907513008688,1.074686123994824
10.44257628,1.1232844054266156,1.691862134412943,0.9485274658278147
10.4473395,1.1850302443483818,1.7262655698928602,0.8247826270504722
10.45212935,1.2413466804349835,1.7574254825954738,0.7037603979280506
10.45690591,1.2927578324621007,1.784883137407973,0.5857485727046216
10.46166914,1.3398126831505623,1.808202541565633,0.47101389934519045
10.46645898,1.383076995140995,1.826975951519049,0.35980215767230234
10.47123549,1.4231252219849642,1.8408289127207038,0.25233834250058057
10.47599872,1.4605325215611984,1.8494247684377603,0.1488269265634545
10.48078857,1.4958669756326872,1.8524685821628735,0.04945217740262528
10.48556508,1.529682113709079,1.8497104273263536,-0.045621497005731676
10.49032831,1.5625098318803703,1.8409480077549467,-0.1362491972537308
10.49511815,1.5948537878552922,1.8260285825939804,-0.22230519642665716
10.49989466,1.6271833423057522,1.8048501800592684,-0.3036826351375213
10.50467122,1.6599281042778045,1.7773620951641522,-0.38029325902654354
10.50944778,1.69347312557065,1.7435646771518645,-0.45206720489874014
10.5142243,1.7281547763945921,1.7035084224207413,-0.5189528365309832
10.51898752,1.7642573230304666,1.6572923979989629,-0.5809166264253569
10.52377732,1.8020102181291249,1.6050620289816138,-0.6379430756576004
10.52855388,1.8415861058597827,1.5470062907997977,-0.6900346605539942
10.53331711,1.8830995371631625,1.483354353840844,-0.7372117921709496
10.53810695,1.926606384537777,1.4143717338729775,-0.7795127723172506
10.54288346,1.9721039407294765,1.3403560069962304,-0.8169937280320735
10.54764669,2.0195316811381874,1.2616321524428726,-0.8497285049871677
10.55243654,2.068772665526639,1.1785475904495262,-0.8778084993258828
10.55721305,2.119655550590059,1.0914669855705048,-0.9013424072068643
10.56197633,2.1719571810138305,1.0007668881545912,-0.9204558720425271
10.56676617,2.225405722705561,0.9068302882386181,-0.9352910112898067
10.57154268,2.2796842978657783,0.8100411568131342,-0.9460058076763869
10.57630586,2.33443507744661,0.7107790492991997,-0.9527733537629394
10.58109575,2.3892637824108567,0.6094138451703102,-0.9557809434537861
10.58587226,2.4437445411881713,0.5063006960042881,-0.9552290091217844
10.59064883,2.4974250470155632,0.4017752519105192,-0.9513299080654433
10.59542534,2.5498319556408875,0.2961492332997781,-0.9443065667754061
10.60020185,2.600476461345656,0.18970641138057695,-0.9343909957229899
10.60496508,2.6488599875628243,0.08269905657915849,-0.9218226909180511
10.60975492,2.694479927615235,-0.024655090742407917,-0.9068469411861003
10.61453148,2.736835371273907,-0.13217527840558152,-0.8897130619072048
10.61929471,2.7754327538488996,-0.23971958674644508,-0.8706725768321658
10.6240845,2.8097913662866523,-0.34718612350504036,-0.8499773696165404
10.62886107,2.839448667213804,-0.45451354128922766,-0.8278778260462427
10.6336243,2.86396534105472,-0.5616808579329059,-0.804620986795026
10.63841414,2.882930050299299,-0.6687065689213624,-0.7804487292105314
10.64319065,2.8959638347289447,-0.7756470503498929,-0.7555959953040946
10.64795388,2.9027241158835797,-0.8825942604755139,-0.7302890819729584
10.65274372,2.9029082711631755,-0.9896727576365646,-0.7047440085481125
10.65752023,2.8962567485429394,-1.0970360619295412,-0.6791649759503572
10.6622968,2.8825556997657302,-1.2048623973006434,-0.6537429308720101
10.66707331,2.8616391168978126,-1.3133498594079747,-0.6286542472650263
10.67184982,2.833390464153821,-1.4227110625872956,-0.6040595358193929
10.67661305,2.797743803768363,-1.5331673264439944,-0.5801025899541168
10.68140289,2.75468442124413,-1.6449424689919467,-0.5569094741236489
10.68617945,2.7042489613536533,-1.7582562788891383,-0.5345877570769225
10.69094268,2.64652509164589,-1.8733177442170301,-0.5132258892907346
10.69573252,2.5816507147889056,-1.9903181194628652,-0.4928927203938892
10.70050904,2.5098127548015405,-2.1094239159303654,-0.4736371492983276
10.70527227,2.431245545065466,-2.2307699037267894,-0.45548789724585237
10.71006211,2.3462288479543045,-2.354452215713315,-0.43845339229884134
10.71483862,2.2550855369639353,-2.4805216453048615,-0.42252175310592455
10.71960185,2.158178972397348,-2.6089772307155124,-0.4076608601313615
10.72439169,2.055910101015966,-2.7397602181183345,-0.39381850393701606
10.7291682,1.9487143087421757,-2.8727484951579916,-0.380922602431537
10.73393143,1.8370580536574783,-3.0077515842434583,-0.36888148201850923
10.73872128,1.7214353043808694,-3.1445062819998824,-0.3575842209580103
10.74349784,1.6023638066196337,-3.2826730271681126,-0.34690105664650656
10.74827435,1.4803811984432702,-3.4218330741508507,-0.33668386160637426
10.75305091,1.356040992856129,-3.5614865433671583,-0.3267666955792325
10.75782742,1.2299084448036395,-3.701051412606898,-0.3169664432420742
10.76259065,1.1025563191199397,-3.8398635056425023,-0.30708354885764744
10.76738049,0.9745605763062961,-3.977177525409956,-0.29690286079968903
10.772157,0.8464959944506942,-4.112169169088575,-0.28619460045457873
10.77692023,0.7189317479292353,-4.243938351414892,-0.27471547148692527
10.78171008,0.5924269665620425,-4.371513550649671,-0.2622099267763348
10.78648664,0.4675263024323968,-4.493857278918511,-0.24841161133084078
10.79124987,0.34475553544946225,-4.609872665304519,-0.23304499994148103
10.79603966,0.22461725276936406,-4.718411126177459,-0.21582724798242744
10.80081622,0.1075866411991218,-4.818281082850651,-0.19647027227374894
10.80557945,-0.005892564460330655,-4.908257671841203,-0.17468307604899944
10.8103693,-0.11541193059906751,-4.9870933779334345,-0.1501743276852714
10.81514581,-0.22060192169018283,-5.053529505191563,-0.12265519704731391
10.81990904,-0.3211351921430877,-5.106308386436965,-0.09184244639678064
10.82469888,-0.4167295179790306,-5.144186217966303,-0.05746176534040321
10.82947539,-0.5071503115738241,-5.1659463938641235,-0.01925133180435655
10.83423862,-0.5922126621347512,-5.170413203433036,0.023034426031754932
10.83902852,-0.671782845273792,-5.156465746143531,0.0696208983188807
10.84380502,-0.7457792472221243,-5.123051911132108,0.12070922990013953
10.84856825,-0.8141726531145697,-5.069202262700898,0.17647216700484492
10.8533581,-0.8769858545820738,-4.99404366960494,0.23704986177890924
10.85813461,-0.9342925398643752,-4.896812514328995,0.30254568681435445
10.86289784,-0.9862154400296859,-4.776867319268226,0.3730221161791909
10.86768768,-1.032923717855047,-4.6337006299492485,0.44849673337338947
10.87246419,-1.0746296015550825,-4.4669500013231955,0.5289384299616329
10.87722742,-1.1115842836818859,-4.276407941777123,0.6142638610386989
10.88201726,-1.144073125579974,-4.062030680684903,0.7043342247145545
10.88679383,-1.1724102286744023,-3.82394563862028,0.7989524319516422
10.891557,-1.1969324540877924,-3.562457494121818,0.8978607300010806
10.89634685,-1.2179929900641606,-3.2780527564286355,1.0007388375707043
10.90112341,-1.235954581249911,-2.9714027693630913,1.107202643669485
10.90588664,-1.2511825444597018,-2.6433650872378944,1.2168035160575879
10.91067648,-1.264037702060607,-2.2949831791812936,1.3290282599889547
10.91545305,-1.274869366811889,-1.9274844334755723,1.4432997629146391
10.92021622,-1.2840085113778383,-1.5422764482245488,1.558978354828254
10.92500607,-1.2917612522849047,-1.1409416088395719,1.675363906127369
10.92978263,-1.2984027721081233,-0.7252299666318536,1.7916986752461532
10.93454581,-1.3041717951504286,-0.297050446554422,1.907170907516118
10.93933565,-1.3092657207746174,0.1415395738768439,2.0209191754644116
10.94411221,-1.3138365051152567,0.5883462581297806,2.132037439666223
10.94887544,-1.31798736678261,1.041052805638974,2.2395807988747394
10.95366529,-1.3217703761123276,1.4972343621535227,2.34257188892722
10.95844185,-1.3251849709977994,1.954374244019907,2.4400078820659794
10.96320502,-1.3281774255659744,2.409881359509957,2.530868031680687
10.96799487,-1.3306412810537958,2.8611086951643014,2.6141217018229574
10.97277138,-1.3324187314400946,3.305372720842337,2.688736816046574
10.97753461,-1.333302940049927,3.739973554263919,2.753688656187137
10.98232445,-1.3330412479728533,4.162215714694984,2.8079689385565447
10.98710102,-1.3313392212694093,4.569429286323481,2.850595092507331
10.99186424,-1.3278654719554384,4.9589913048875305,2.8806196642145947
10.99665409,-1.3222571777029193,5.3283471762127625,2.8971397667067413
11.0014306,-1.3141262168835297,5.6750319323923275,2.8993064955900105
11.00619383,-1.3030658287416848,5.996691130319065,2.8863342284808957
11.01098367,-1.288657702886728,6.291101198099435,2.857509724785944
11.01576018,-1.2704793977936601,6.556189037491961,2.812200941096753
11.02052341,-1.2481119845754174,6.790050694860088,2.7498654761690506
11.02531325,-1.2211478100382762,6.990968919141587,2.670058558439361
11.03008982,-1.1891982721220333,7.157429432930004,2.5724404885991863
11.03485299,-1.1519015013999998,7.2881357518356005,2.4567834501957204
11.03964289,-1.1089298444163507,7.38202239773774,2.3229776027914317
11.0444194,-1.0599970482026055,7.438266363278233,2.1710363750148614
11.04918263,-1.0048650501925682,7.456296697942598,2.0011008788831757
11.05397247,-0.9433502837651593,7.435802100334636,1.8134433720109313
11.05874898,-0.875329416608211,7.376736416774871,1.6084697006543849
11.06351221,-0.8007444468538557,7.279321963130668,1.3867206639023972
11.06830206,-0.7196070903590895,7.144050604770492,1.1488722476514077
11.07307862,-0.6320024014879121,6.97168254865147,0.8957346862245216
11.0778418,-0.5380915791728735,6.763242821691751,0.628250319522232
11.08263164,-0.43811391972627195,6.5200154306056195,0.34749022431514537
11.0874082,-0.332387887641081,6.2435352201067404,0.05464960960285744
11.09218471,-0.22131128529819963,5.935577468586479,-0.24895802220989893
11.09696128,-0.1053605119557317,5.598145282794435,-0.5619079342784384
11.10173779,0.01491108845012696,5.233454875429229,-0.8826724076684819
11.10651435,0.1388757823761115,4.843918831650423,-1.2096301472463458
11.11129086,0.26583488789845827,4.432127492133229,-1.5410767878789795
11.11606742,0.3950230773265151,4.000828601214232,-1.8752364341449927
11.12084398,0.5256135086582497,3.5529053887489668,-2.2102741531369703
11.12562044,0.6567237457869177,3.0913532733821865,-2.5443093264060743
11.130397,0.7874224200583636,2.619255392908757,-2.875429753816191
11.13516023,0.9167365787060188,2.1397571841654757,-3.2017063891944346
11.13995008,1.0436596587839102,1.6560402502859957,-3.521208575328458
11.14472664,1.1671600183235291,1.1712957669521402,-3.832019634172739
11.14948987,1.2861899494009752,0.6886976912146971,-4.132252657153635
11.15427971,1.3996950905735566,0.2113760462530434,-4.42006633027461
11.15905622,1.5066241488853587,-0.25760943715688617,-4.693680619450692
11.1638194,1.6059388346964305,-0.7152950368944425,-4.951392133382818
11.16860924,1.6966239063880737,-1.1588378258634477,-5.191588974653638
11.17338581,1.7776972168822738,-1.5855392418242762,-5.412764884999314
11.17814904,1.8482196500567076,-1.9928671582622417,-5.613532488413351
11.18293888,1.90730483259636,-2.378476181802726,-5.79263543660776
11.18771539,1.95412850569713,-2.740225913906223,-5.94895926643039
11.19247867,1.987937441568146,-3.076196931860122,-6.081540789479189
11.19726846,2.008057792291898,-3.384704267571861,-6.189575852119025
11.20204502,2.0139027640272578,-3.664308194189801,-6.272425331519429
11.2068082,2.0049795190052437,-3.9138221727237834,-6.329619271834785
11.2115981,1.980895222536191,-4.132317865881987,-6.360859113277859
11.21637461,1.9413621720012966,-4.319127193821321,-6.3660180203617776
11.22113784,1.8862019663769132,-4.473841481311501,-6.345139366053192
11.22592768,1.8153486937515293,-4.596307819240889,-6.298433469590389
11.23070424,1.7288511280852015,-4.686622826966637,-6.2262727153718425
11.23546747,1.6268739359570497,-4.745124050846188,-6.1291852004299665
11.24025726,1.5096979014758283,-4.77237926761552,-6.007847071444375
11.24503383,1.3777191843978962,-4.769173980784895,-5.863073721148057
11.24979706,1.2314476332347761,-4.736497406207332,-5.695810019421379
11.2545869,1.071504181662263,-4.675527241428982,-5.507119756777436
11.25936341,0.8986173626148737,-4.587613503843732,-5.298174477472088
11.26412664,0.7136189796978687,-4.474261706169093,-5.070241876171411
11.26891648,0.5174389796133373,-4.337115615344458,-4.824673925939725
11.27369305,0.3110995720035905,-4.177939813770421,-4.562894896223545
11.27845628,0.09570864453846548,-3.9986022512476445,-4.286389407611546
11.28324612,-0.12754747853988593,-3.801056943598184,-3.9966906557772597
11.28802263,-0.3574118864938142,-3.587326941345352,-3.6953689205926716
11.29278586,-0.5925654933755068,-3.359487660411733,-3.3840204584328495
11.2975757,-0.8316359633014081,-3.1196506376474424,-3.0642568568534445
11.30235221,-1.0732071019204419,-2.8699477478147046,-2.7376949120003773
11.30711544,-1.3158286646699449,-2.6125158959123325,-2.405947071192075
11.31190528,-1.5580265296500855,-2.349482179952684,-2.0706124667791146
11.3166818,-1.7983131789177453,-2.082949505232731,-1.7332685531081105
11.32144503,-2.03519842651889,-1.8149826227261736,-1.3954633465650441
11.32623487,-2.267200324484946,-1.5475945626152245,-1.0587082594225188
11.33101143,-2.492856169454575,-1.2827334404215032,-0.7244715113753796
11.33577466,-2.7107335233518617,-1.0222696287119124,-0.3941720980299332
11.3405645,-2.9194411532675453,-0.7679833120679729,-0.06917429384158158
11.34534102,-3.1176397902833606,-0.5215524751849198,0.24921733070813895
11.35010424,-3.3040526056361177,-0.28454140954454066,0.5597623916139381
11.35489409,-3.4774753049845755,-0.05838985749868153,0.8612886797976628
11.35967065,-3.636785746072629,0.15559706136280044,1.1526956565037036
11.36443383,-3.7809529902090624,0.3562579810691184,1.4329574559131526
11.36922367,-3.909045702893882,0.5425833122710193,1.7011253987159274
11.37400023,-4.020239823395033,0.7137219976752927,1.9563300261596726
11.37876346,-4.113825427043345,0.8689868537473383,2.197782670194987
11.38355331,-4.189212707501543,1.007858372407606,2.424776580361571
11.38832987,-4.245937009689089,1.1299868810294889,2.6366876313416228
11.3930931,-4.283662848284708,1.2351929868958995,2.8329746365786423
11.39788289,-4.3021868527978695,1.3234662621080224,3.013179293342839
11.40265945,-4.301439588750889,1.394962155572913,3.1769257836113165
11.40742263,-4.2814862155329045,1.4499971490833208,3.3239200536221842
11.41221247,-4.242525954390642,1.4890422038333282,3.453948793381359
11.41698904,-4.184890353996356,1.5127145714215506,3.566878136051556
11.42175226,-4.109040355352981,1.5217680690942732,3.6626520961535984
11.42654211,-4.015562171922835,1.5170819423975108,3.741290764771821
11.43131862,-3.9051620144247816,1.4996484593212653,3.8028882792720586
11.4360819,-3.7786597025200024,1.470559398225053,3.847610584241665
11.44087169,-3.636981217569704,1.43099160710381,3.87569299940528
11.44564825,-3.4811502619213512,1.3821918238517654,3.887437609244949
11.45041148,-3.3122789009296545,1.325460955924725,3.8832104881079306
11.45520133,-3.1315573742647387,1.2621380231138108,3.863438773844218
11.45997784,-2.9402431730476737,1.1935839690743224,3.828607602521861
11.46474107,-2.73964948894419,1.1211655459476184,3.779256916488899
11.46953091,-2.531133150380417,1.0462394720739558,3.715978157909618
11.47430747,-2.3160821691967257,0.9701370556353197,3.6394108597835557
11.4790707,-2.0959030278799577,0.8941494672911827,3.5502391461804077
11.48386049,-1.872007842576777,0.8195138326735452,3.449188152768346
11.48863706,-1.645801540115195,0.7474003012059638,3.3370203774780745
11.49340028,-1.4186691881706424,0.6789002313385832,3.2145319692328433
11.49819013,-1.1919636165702903,0.615015614182796,3.0825489601439915
11.50296664,-0.9669934646683976,0.556649837936348,2.941923443692589
11.50772987,-0.7450117849313714,0.5045998747301086,2.7935296987024003
11.51251971,-0.5272053265696212,0.45954995001232796,2.638260257023409
11.51729622,-0.314684615458974,0.4220667327828303,2.477021912395817
11.5220595,-0.10847493784138908,0.3925960633465559,2.310731669289876
11.5268493,0.09049167460646462,0.3714612141373496,2.1403126336001463
11.53162586,0.2813833718979908,0.35886265883729623,1.966689851599363
11.53638909,0.46347425114904245,0.3548793057008607,1.7907861090406927
11.54117893,0.6361489003459866,0.3594711329122607,1.6135177081790217
11.54595544,0.7989056758590555,0.3724831472256908,1.435790246177901
11.55071867,0.9513586855161441,0.3936505723513948,1.258494423314284
11.55550852,1.0932384662263015,0.4226051608110867,1.0825019131236453
11.56028508,1.224391362635868,0.45888251245079825,0.9086613288513865
11.56504831,1.344777630660553,0.5019302744983423,0.7377943211895857
11.5698381,1.454468306549213,0.551117091905682,0.570691841343777
11.57461466,1.5536408980616774,0.6057421725776163,0.4081106011773565
11.57937789,1.6425739691138657,0.6650453298008949,0.2507697587658161
11.58416773,1.721640702624485,0.7282173636221577,0.0993478534130637
11.58894424,1.7913015380682258,0.7944106439754803,-0.04551999071181934
11.59370753,1.8520959902005258,0.8627497609344574,-0.1832445784188236
11.59849732,1.904633763418835,0.9323421114668211,-0.3132848663157257
11.60327388,1.9495852821932955,1.002288297431016,-0.4351498914140913
11.60803711,1.9876717619436424,1.071692216237419,-0.5484004074039739
11.61282695,2.019654946713737,1.1396707335817664,-0.652650235122822
11.61760352,2.046326640054884,1.2053628369060114,-0.7475673377743697
11.62236674,2.068498153697597,1.2679381786642732,-0.8328746346765867
11.62715659,2.0869897948681277,1.3266049299113825,-0.9083505695631996
11.6319331,2.1026205075071087,1.3806168769575793,-0.9738294505778685
11.63669633,2.1161977752815644,1.4292797065612826,-1.0292015789393847
11.64148617,2.128507885456176,1.4719564380582542,-1.0744131817364557
11.64626268,2.140306642989634,1.5080719736503412,-1.1094661614989751
11.65102591,2.1523106144435125,1.5371167505333392,-1.1344176713388943
11.65581575,2.1651889721964754,1.5586494904325208,-1.1493795199314543
11.66059226,2.179556001487036,1.5722990533217935,-1.1545174058160437
11.66535549,2.1959643259691415,1.5777654125815161,-1.1500499757769544
11.67014534,2.2148989014417535,1.5748197785928209,-1.1362476976518467
11.6749219,2.2367718217784334,1.5633039067846832,-1.1134315339274574
11.67969841,2.261917975448064,1.5431286344609008,-1.0819713989587858
11.68447497,2.290591585101613,1.5142716983397297,-1.0422843796313164
11.68925154,2.322963656331367,1.4767748916031942,-0.9948326968992871
11.69401471,2.359120354802107,1.4307406252861758,-0.9401213841400192
11.69880461,2.399062323473525,1.376327963895045,-0.8786956580967987
11.70358112,2.442704943567655,1.3137482090625616,-0.8111379599154586
11.7083443,2.489879534272345,1.2432601076738259,-0.7380646480142795
11.71313414,2.5403354768951996,1.165164762173282,-0.6601223316835865
11.7179107,2.5937432392972584,1.0798003207484488,-0.5779838443792131
11.72267393,2.6496982660234156,0.9875365239829558,-0.49234386803144725
11.72746378,2.7077256888141044,0.888769182680405,-0.4039142331564043
11.73224029,2.767285801475488,0.7839146592008616,-0.3134189327012919
11.73700352,2.8277802328592645,0.673404422072148,-0.2215888990915584
11.74179336,2.888558742466097,0.5576797409674333,-0.12915660297276865
11.74656992,2.9489265554089177,0.43718658638855196,-0.03685053819341426
11.75133315,3.008152147477305,0.31237079547522306,0.054610339391338775
11.75612299,3.065475386927532,0.18367356211312713,0.14452215140819896
11.7608995,3.1201159372606977,0.05152730572289842,0.232201548756441
11.76566273,3.1712818244031857,-0.08364803145146588,0.31699101319933787
11.77045258,3.2181780721482323,-0.22144821424511846,0.39826395077893567
11.77522914,3.260015311337265,-0.3614874338623227,0.4754295242194888
11.77999232,3.2960182710401758,-0.503400486164475,0.5479371769713434
11.78478221,3.325434063960379,-0.6468443866789959,0.6152808071894994
11.78955872,3.3475401834344147,-0.7914994085721493,0.6770025555893372
11.79432195,3.3616521356278177,-0.9370695384353246,0.7326961766540028
11.7991118,3.36713063767983,-1.0832823531273716,0.7820099680068262
11.80388831,3.3633883204015187,-1.229888328865077,0.8246492378857532
11.80866487,3.349895882453983,-1.3766596011238619,0.8603782955889429
11.81344138,3.3261876514992568,-1.52338820065816,0.8890219545614589
11.81821794,3.2918665164055314,-1.6698837971097018,0.9104665425543602
11.82299445,3.2466082029800694,-1.815970987332716,0.9246604181087388
11.82777102,3.1901648736841106,-1.9614861708479412,0.9316139975415647
11.83254752,3.1223680391755515,-2.1062740598577876,0.9313993015634581
11.83731075,3.0431307762274216,-2.2501838760923194,0.9241490354582695
11.8421006,2.95244925258268,-2.3930652914301915,0.9100552211931339
11.84687716,2.8504035646787442,-2.534764173695319,0.8893674037575491
11.85164039,2.737157898908019,-2.6751182031335254,0.8623904573901614
11.85643023,2.6129600310661307,-2.813952428631605,0.8294820201468693
11.86120674,2.4781401817138633,-2.9510748355649987,0.791049587525621
11.86596997,2.333109247213041,-3.0862719991262684,0.747547297618123
11.87075982,2.178356427123865,-3.219304898055022,0.6994724414961951
11.87553638,2.0144462684472093,-3.3499049638680236,0.6473617331701933
11.88029956,1.8420151459179124,-3.4777704399768505,0.5917873732992721
11.8850894,1.66176719548707,-3.6025631234567763,0.5333529397385077
11.88986596,1.474469715929528,-3.7239055596859307,0.4726891360394047
11.89462919,1.280948052160207,-3.841378756666809,0.4104494264872892
11.89941904,1.0820799743170189,-3.9545204816882586,0.34730558356205454
11.90419555,0.8787895695604061,-4.062824198176838,0.28394317118675216
11.90895878,0.6720406689418404,-4.165738695130992,0.22105698498839613
11.91374862,0.4628298393293001,-4.262668455376131,0.15934646905277497
11.91852518,0.2521789797360806,-4.352974801961832,0.09951112710288325
11.92328841,0.04112757179694803,-4.435977854313247,0.04224594430929558
11.92807825,-0.16927535521936304,-4.510959317261347,-0.011763166307699545
11.93285476,-0.3779794743806385,-4.577166116852924,-0.06184388189844391
11.93761799,-0.5839415467056095,-4.63381488690824,-0.10734194486956194
11.94240784,-0.7861338558923457,-4.680097299634445,-0.1476255915860937
11.9471844,-0.9835526002579698,-4.715186222167263,-0.18208993480005872
11.95194763,-1.1752261463962281,-4.738242668654777,-0.21016130237513664
11.95673747,-1.36022304718437,-4.748423504413554,-0.2313015355793857
11.96151398,-1.5376597266058298,-4.7448898448851775,-0.24501224880917802
11.96627721,-1.7067077354226525,-4.726816077877534,-0.2508390491207683
11.97106706,-1.866600484988288,-4.693399423344373,-0.24837570869789755
11.97584357,-2.0166393712732265,-4.643869931313883,-0.2372682768056935
11.9806068,-2.1561992072184113,-4.577500806154171,-0.21721911033035565
11.98539669,-2.284732888565702,-4.493618934796118,-0.1879907941624289
11.9901732,-2.4017752262215066,-4.391615488377702,-0.14940991494045489
11.99493643,-2.506945887130521,-4.270956461392757,-0.10137064448060651
11.99972628,-2.5999513959074405,-4.13119300993384,-0.04383808296539437
12.00450279,-2.6805861614014503,-3.9719714509064783,0.02314869297297979
12.00926602,-2.74873250602879,-3.7930427869214567,0.09947393535079017
12.01405586,-2.80435969091951,-3.5942716266508463,0.18494294226992736
12.01883242,-2.847521946335659,-3.3756443774573945,0.2792802455485948
12.02359565,-2.8783555340035996,-3.1372765957484314,0.3821283227705515
12.02838549,-2.897074885476084,-2.87941939037583,0.49304688244057665
12.033162,-2.903967877824415,-2.602464785035829,0.6115127641822455
12.03792523,-2.899390324207052,-2.306949956530709,0.7369204887513083
12.04271508,-2.8837597715417864,-1.9935602765541578,0.8685834857751036
12.04749164,-2.857548710141969,-1.6631310951698688,1.0057360210105397
12.05225487,-2.8212773104594753,-1.3166482143841864,1.1475358396756359
12.05704471,-2.775505809823433,-0.9552470102775547,1.2930675379203418
12.06182122,-2.7208266771605656,-0.5802101721322134,1.4413466703393634
12.06658445,-2.6578566860976687,-0.19296403690546712,1.5913245968474754
12.0713743,-2.5872290266323423,0.2049264926551234,1.7418940663200921
12.07615086,-2.5095855828286,0.6117644477434244,1.8918955264256252
12.08091404,-2.4255694989086916,1.0257287017927588,2.040124138910932
12.08570393,-2.335818148852918,1.4448832665318783,2.1853374678835795
12.09048044,-2.2409566153193055,1.8671879426401103,2.3262637965223867
12.09524367,-2.14159177240378,2.2905102787224565,2.461611016283815
12.10003352,-2.0383070535374146,2.712638778543372,2.590076022784678
12.10481008,-1.9316579708663386,3.1312972821103116,2.7103545444439203
12.10957325,-1.822168436158904,3.5441604313402895,2.8211513237725088
12.1143631,-1.710327916093335,3.94887011573997,2.9211905669130536
12.11913966,-1.5965894371700344,4.343052777959613,3.009226574429222
12.12390289,-1.4813684379795913,4.724337443621965,3.084054464932542
12.12869273,-1.3650424497661855,5.090374325068232,3.1445209023020277
12.1334693,-1.2479515708547828,5.438853835298262,3.1895347365347817
12.13823253,-1.1303996871180602,5.767525837020872,3.2180774674936847
12.14302232,-1.0126563794606873,6.074218942746388,3.2292134401012467
12.14779888,-0.8949594501841727,6.3568596753647935,3.222099679118272
12.15256211,-0.7775179928193645,6.613491294618274,3.1959952717773934
12.15735195,-0.6605159243501689,6.842292093209639,3.150270207347405
12.16212846,-0.5441158945413304,7.041592966916218,3.084413584214862
12.16689169,-0.4284634842201256,7.20989406594707,2.998041097252695
12.17168154,-0.31369160276612124,7.345880339824078,2.8909017210608403
12.1764581,-0.19992499465850422,7.448435795193235,2.7628835081205305
12.18122133,-0.08728476565884374,7.516656295081896,2.6140184250900487
12.18601117,0.024107158946364653,7.5498607391355765,2.444486155519996
12.19078768,0.1341237286248609,7.5476004772553225,2.254616803298314
12.19555091,0.24262869478381432,7.509666823799239,2.044892438209316
12.20034075,0.34947284579854476,7.436096556095612,1.8159474331042387
12.20511732,0.45449061814784053,7.32717529940047,1.5685675512848805
12.20988055,0.5574971441627138,7.183438720518961,1.3036877527216404
12.21467039,0.6582857883173389,7.005671473911062,1.022388698568234
12.2194469,0.7566262148901043,6.794903866946546,0.7258919449792475
12.22421013,0.8522630204635453,6.55240623472897,0.41555382934246793
12.22899997,0.9449149553169689,6.2796810392106455,0.09285806455825076
12.23377654,1.034274748446079,5.978452731813071,-0.24059293019445158
12.23853976,1.120009541846439,5.650655443131533,-0.5830879207582196
12.24332961,1.2017619309487888,5.298418587274673,-0.9328179167494767
12.24810612,1.2791515998156031,4.924050491758072,-1.2878883298333772
12.25286935,1.3517775319768215,4.5300201864650855,-1.6463321501410006
12.25765919,1.4192207706001216,4.118937506872267,-2.006124045919513
12.26243575,1.4810476950008158,3.6935316874017814,-2.3651952780229597
12.26721227,1.536813774225121,3.256628640312187,-2.721449307603767
12.27198883,1.5860677525157152,2.811127133864887,-3.072777962580837
12.27676534,1.6283562158136966,2.359974100477556,-3.417078016372047
12.28152857,1.6632284830054327,1.9061393210414568,-3.7522680211972963
12.28631841,1.6902417603834112,1.4525897453482808,-4.076305228160317
12.29109497,1.708966492822679,1.0022637204174074,-4.387202417452275
12.2958582,1.7189918405802513,0.558045408176032,-4.6830444545216725
12.30064805,1.7199312065150623,0.12273968114608733,-4.962004382074835
12.30542461,1.7114277350232403,-0.3009522107415182,-5.222358853546055
12.31018778,1.6931597012378277,-0.7104559076295691,-5.462502711599672
12.31497768,1.6648457072580591,-1.1033458488060197,-5.680962515891847
12.31975419,1.6262496016502066,-1.4773655362595388,-5.87640882856892
12.32451742,1.5771850396351281,-1.8304458755648365,-6.047667074945252
12.32930726,1.517519604885299,-2.1607213321841083,-6.19372681179974
12.33408378,1.4471784207007112,-2.466543663296909,-6.313749257875378
12.338847,1.366147189986376,-2.7464930164433827,-6.4070729709394705
12.34363685,1.274474621117775,-2.9993862297676284,-6.473217592746858
12.34841341,1.1722742193864715,-3.2242822271340925,-6.511885625967327
12.35317664,1.059725446544721,-3.4204844742330267,-6.522962252835895
12.35796648,0.9370742679350912,-3.5875405430162757,-6.506513250072163
12.36274299,0.8046331151644829,-3.7252389114014863,-6.462781094498618
12.36750622,0.6627802947974577,-3.8336031935084502,-6.392179386150013
12.37229607,0.511958874432994,-3.9128840473382547,-6.295285739974214
12.37707263,0.3526750790309462,-3.9635490410416883,-6.172833314446985
12.38183586,0.1854962321869469,-3.9862707775459043,-6.025701156957373
12.3866257,0.011048278180349255,-3.9819135826397587,-5.854903552885968
12.39140221,-0.16998707952984587,-3.9515190558836095,-5.661578568802605
12.39616544,-0.3568755891384099,-3.8962907691220052,-5.44697598066469
12.40095534,-0.5488339790015111,-3.8175783760755913,-5.2124447753147
12.40573185,-0.7450337756587903,-3.716861370290605,-4.95942040758395
12.41049508,-0.9446053874839799,-3.595732699059895,-4.689411985541481
12.41528492,-1.1466424349345081,-3.455882409031379,-4.403989542891471
12.42006143,-1.35020631344363,-3.299081466350835,-4.104771540677467
12.42482466,-1.5543309797379585,-3.127165861679496,-3.793412721034363
12.4296145,-1.7580279561894776,-2.9420210795429678,-3.4715924146122035
12.43439107,-1.9602915503051015,-2.7455669832120884,-3.1410033814387606
12.4391543,-2.1601042874129233,-2.539743141371222,-2.8033412433756406
12.44394414,-2.3564425539423963,-2.3264946016516848,-2.4602945458651555
12.44872065,-2.5482824463532485,-2.107758099124078,-2.1135354681143315
12.45348388,-2.734605816684121,-1.8854486756166229,-1.7647111848009343
12.45827372,-2.9144064999103443,-1.6614466790096694,-1.4154358692763844
12.46305029,-3.0866967010991435,-1.4375851113387859,-1.067283318466037
12.46781352,-3.2505135122423154,-1.2156373015387991,-0.7217801735643768
12.47260336,-3.404925520188417,-0.9973048937462784,-0.38039970862577954
12.47737992,-3.549039458720629,-0.7842061654536225,-0.044556161889369575
12.4821431,-3.682006849971368,-0.5778647203477631,0.2844004076949483
12.48693294,-3.803030573694238,-0.37969863516942465,0.6051887454695508
12.4917095,-3.911371298069957,-0.19101017334584383,0.9166005042937841
12.49647273,-4.006353702807539,-0.012976205203121207,1.2175038175799149
12.50126258,-4.087372423893236,0.15336050827289743,1.5068463353208823
12.50603909,-4.1538976490061446,0.3070990048491991,1.7836577232672712
12.51080232,-4.205480293146764,0.4474866239547722,2.047051634883196
12.51559216,-4.241756685227427,0.5739241752310125,2.2962271749946312
12.52036872,-4.262452698014357,0.6859696432162133,2.530469881497596
12.52513195,-4.267387255804879,0.7833403220122546,2.749152256450917
12.5299218,-4.2564751568472925,0.8659133007244362,2.9517338802559965
12.53469831,-4.229729151375479,0.9337242496245882,3.1377611426452163
12.53946154,-4.187261221865886,0.9869644870799644,3.3068666223025573
12.54425138,-4.129283019966683,1.0259763372125912,3.458768143754583
12.54902794,-4.056105424148515,1.051246817172045,3.5932675364215294
12.55379117,-3.968137192756628,1.063399720288888,3.710249117063871
12.55858102,-3.865882698110029,1.063186186940576,3.8096779137246646
12.56335752,-3.7499387381868643,1.0514738785341502,3.8915976467741618
12.56812075,-3.6209904331106464,1.0292348914009442,3.9561284807037294
12.5729106,-3.4798062240972016,0.9975325663409541,4.003464558712636
12.57768716,-3.3272320028038407,0.957507365718618,4.033871330760942
12.58245039,-3.164184409282282,0.9103620030619912,4.047682684604579
12.58724023,-2.991643347140789,0.857346019797946,4.045297888449173
12.59201674,-2.8106437751612248,0.7997400099811053,4.0271783533537455
12.59677997,-2.622266845449062,0.7388396967510819,3.9938442234728697
12.60156982,-2.427630469043189,0.6759400640038526,3.945870802714774
12.60634638,-2.227879400506929,0.6123197436184844,3.8838848274533495
12.61110961,-2.0241749430103138,0.5492258527324911,3.808560596548922
12.61589945,-1.8176843843676131,0.48785946718927253,3.72061597200334
12.62067596,-1.6095702819742574,0.42936190659637374,3.6208082658750844
12.62543919,-1.4009797202815164,0.3748019936649309,3.509930031264111
12.63022904,-1.1930336682586296,0.3251644358562023,3.3888047768765075
12.6350056,-0.9868165662741322,0.2813394609645407,3.2582826256713346
12.63976883,-0.783366272036573,0.2441138201390888,3.1192359383806387
12.64455867,-0.5836644936363908,0.2141632519628684,2.9725549224605645
12.64933518,-0.3886278342228911,0.1920464796151665,2.819143246549904
12.65409841,-0.19909956734101,0.17820079008315529,2.6599136800966288
12.65888825,-0.01584225441905142,0.1729392203253477,2.495783777751646
12.66366482,0.16046869362763236,0.176449350827458,2.327671628574448
12.66842805,0.32925042021292245,0.1887936827750865,2.156491690973813
12.67321789,0.49001691535461833,0.20991155173488288,1.9831507353102724
12.6779944,0.6423821349462345,0.23962250891021358,1.8085439167565014
12.68275763,0.7860619028789472,0.2776310813081276,1.6335510008794578
12.68754747,0.9208745705348838,0.3235328050130737,1.4590327631312794
12.69232404,1.0467404275168644,0.3768214115171223,1.2858275808751753
12.69708726,1.163679876795302,0.43689703577466404,1.114748232824846
12.70187711,1.2718104061934137,0.5030753061843622,0.9465789161529744
12.70665362,1.3713424059549681,0.5745971707905173,0.7820724864477708
12.71141685,1.462573898825183,0.6506393103783401,0.621947920563639
12.71620674,1.5458842644238564,0.7303249876170035,0.4668879975231454
12.72098325,1.6217270534705654,0.8127351818513486,0.3175371881968478
12.72574648,1.6906219993937859,0.8969198614550641,0.17449974069053079
12.73053633,1.7531463448130207,0.981909249719675,0.03833794537553624
12.73531289,1.8099256081830557,1.066724945933218,-0.09042943852593965
12.74007607,1.8616239214238626,1.1503907704828074,-0.21132861378959897
12.74486596,1.9089340724840136,1.2319432114216475,-0.32393205211882486
12.74964247,1.952567387307756,1.3104413599279368,-0.42785969416393393
12.7544057,1.9932435834622926,1.384976233374789,-0.5227800567466483
12.75919555,2.03168072279194,1.4546793971589895,-0.6084112573924553
12.76397211,2.0685853831950856,1.5187308097345793,-0.6845219613379351
12.76873534,2.1046431604483926,1.5763658291474756,-0.7509322505751885
12.77352518,2.1405096005257387,1.626881333457009,-0.8075144085455879
12.77830169,2.176801651734742,1.669640921470312,-0.8541936081896119
12.78306492,2.2140897148988428,1.7040791739357484,-0.8909484855895541
12.78785476,2.2528903593829366,1.729704968495581,-0.9178115767162619
12.79263133,2.293659763471497,1.7461038540804361,-0.9348695909916693
12.79739456,2.3367879296363356,1.7529395018871141,-0.9422634925619358
12.8021844,2.382593718402483,1.7499542605193026,-0.9401883582980194
12.80696091,2.431320738403516,1.7369688522372295,-0.9288929805063829
12.81172414,2.48313412428843,1.7138812555482341,-0.9086791820573314
12.81651398,2.5381182279388046,1.6806648266014692,-0.8799008120980483
12.82129055,2.596275241682711,1.6373657180665666,-0.8429623917792947
12.82605378,2.6575247647527402,1.584099659397189,-0.7983173816645737
12.83084362,2.721704316178584,1.5210481665787996,-0.7464660459858113
12.83562013,2.7885707887419446,1.448454252572814,-0.6879528939945513
12.84038336,2.8578028296659945,1.3666177116429639,-0.6233636856213339
12.84517325,2.929004124446784,1.27589005159408,-0.5533219975819781
12.84994977,3.001707550712145,1.1766691477759312,-0.4784853566773595
12.85472633,3.0753801592603667,1.0693936917107234,-0.3995409586357238
12.85950284,3.1494289295731206,0.954537505663865,-0.3172010024893715
12.86427935,3.22320723729676,0.8326037926683959,-0.23219768119500894
12.86904258,3.2960219617494,0.7041193896329848,-0.14527787824499572
12.87383247,3.367141152838682,0.5696290892744578,-0.057197626924599815
12.87860898,3.4358021692681797,0.4296900946369516,0.031283606521706815
12.88337221,3.501220193864692,0.28486666770903035,0.11940875219633074
12.88816206,3.562597027412592,0.1357250309107195,0.20642901439183567
12.89293862,3.6191300595301983,-0.01717142320202936,0.29160973541635415
12.89770185,3.670021313765391,-0.17326656292258144,0.3742361854962626
12.90249169,3.714486464085427,-0.3320155431422508,0.4536192223244725
12.9072682,3.751763721181102,-0.4928883860286805,0.5291007677189385
12.91203143,3.781122489468363,-0.6553730837632284,0.6000590528657983
12.91682128,3.801871699394456,-0.8189781981677198,0.6659135875357359
12.92159784,3.813367724700586,-0.9832349402738039,0.7261298123606873
12.92636107,3.8150218006561,-1.147698721332678,0.7802233966968056
12.93115091,3.8063068668311395,-1.3119501750690772,0.8277641477993982
12.93592742,3.7867637664517795,-1.4755956587835177,0.8683795000633069
12.94070398,3.756006743451551,-1.6382672478972808,0.901757556025127
12.94548049,3.7137281876966717,-1.799622244538791,0.9276496537723093
12.95025706,3.6597025883188175,-1.9593422257555209,0.9458724384526623
12.95503357,3.593789664535259,-2.11713166098232,0.9563094188290443
12.95981013,3.515936652719438,-2.272716131648998,0.9589119933881325
12.96458664,3.426179737762712,-2.425840188439855,0.9536999344973935
12.96934987,3.3246446258852353,-2.576264883903449,0.9407613236037338
12.97413971,3.211546264928252,-2.7237650200132264,0.9202519355352695
12.97891628,3.0871877266618983,-2.8681261520315933,0.8923940755861176
12.9836795,2.951958273599051,-3.0091413917405845,0.8574748791106024
12.98846935,2.806330640040841,-3.146608054859245,0.8158440895944293
12.99324586,2.6508575634565723,-3.2803241993247454,0.7679113372912468
12.99800909,2.4861676077365815,-3.410085103077753,0.7141429461708774
13.00279898,2.3129603243204824,-3.535679732029267,0.6550583018085744
13.00757549,2.132000800723342,-3.6568872509357777,0.5912258167231708
13.01233872,1.9441136486519408,-3.7734736318842037,0.5232585324420507
13.01712857,1.7501764858750364,-3.885188416860818,0.4518093992963438
13.02190513,1.5511129674847643,-3.9917616922847543,0.37756627587452773
13.02668164,1.3478854234060014,-4.09290133424113,0.3012466905377668
13.0314582,1.1414871602799166,-4.188290583269289,0.22359240773601521
13.03623471,0.932934487502986,-4.277586006799972,0.14536384220856147
13.04099794,0.7232585295078223,-4.360415905613433,0.06733436446348419
13.04578779,0.513496889402546,-4.436379218023006,-0.009715459001587138
13.05056435,0.3046852326990098,-4.505044971959625,-0.08500364778642291
13.05532758,0.09784886375088163,-4.565952330834261,-0.15775257051305439
13.06011742,-0.10600562872084024,-4.618611274031505,-0.22719464988726837
13.06489393,-0.30589857747106697,-4.6625039471199194,-0.29257797536207175
13.06965716,-0.5008852122323763,-4.697086710283528,-0.3531717942716597
13.074447,-0.6900633222811694,-4.721792905966557,-0.4082718585307069
13.07922357,-0.8725805240186514,-4.736036358112867,-0.45720561042956026
13.0839868,-1.0476410535346,-4.739215605490924,-0.49933719694436085
13.08877664,-1.2145120075817766,-4.730718860337186,-0.5340723065384846
13.0935532,-1.372528961192427,-4.7099296710468,-0.5608628250407244
13.09831643,-1.521100896157307,-4.676233254245293,-0.5792113075502421
13.10310628,-1.659714381565607,-4.629023447791376,-0.5886752614609442
13.10788279,-1.787936955361977,-4.567710222626007,-0.5888712318527412
13.11264602,-1.9054196642001986,-4.49172767840992,-0.5794786750446466
13.11743586,-2.0118987275495024,-4.4005424360753596,-0.5602435995843249
13.12221242,-2.107196300896877,-4.293662330224009,-0.5309819470451825
13.12697565,-2.1912203220292388,-4.17064529609445,-0.49158267842991415
13.13176549,-2.26396343402216,-4.031108339777752,-0.44201052635121424
13.136542,-2.32550098901404,-3.8747364764775996,-0.38230836897409576
13.14130523,-2.3759881482673832,-3.7012915197772713,-0.3125991794286164
13.14609508,-2.4156561063210886,-3.510620604909332,-0.23308750450262736
13.15087164,-2.4448074798814927,-3.302664330687534,-0.14406042923705953
13.15563487,-2.4638109149781613,-3.0774644077729163,-0.04588798955291409
13.16042471,-2.473094978292394,-2.8351707050217976,0.06097699728565318
13.16520122,-2.473141410062613,-2.576047590551564,0.17599970566505221
13.16996445,-2.4644778264026552,-2.300479469648653,0.2985646902688263
13.1747543,-2.447669968203868,-2.0089754275450757,0.4279778941139839
13.17953086,-2.423313602028216,-1.702172891274989,0.5634692724954931
13.18429409,-2.392026185478425,-1.3808402312958092,0.7041960238953509
13.18908393,-2.35443841527108,-1.0458782304866503,0.8492464156396808
13.19386049,-2.3111857803161846,-0.6983203557678095,0.9976441910968811
13.19862367,-2.262900244144873,-0.3393317761199352,1.1483535459455112
13.20341357,-2.210202180734516,0.029792919695211036,1.3002846622395787
13.20819008,-2.153692685005042,0.40763334191630596,1.4522997890796987
13.21295331,-2.093946373949922,0.7926482798501483,1.603219856460184
13.21774315,-2.031504786544153,1.1831820556646486,1.7518316039879078
13.22251971,-1.9668704803720631,1.57747225102868,1.896895199165368
13.22728294,-1.900501910635289,1.9736587913910468,2.037152311719831
13.23207279,-1.8328091632944337,2.3697943573892575,2.1713346020283177
13.2368493,-1.764150599052107,2.763856076737782,2.2981725738767196
13.24161258,-1.6948304490198223,3.1537584331386195,2.4164047351640945
13.24640237,-1.6250973863543154,3.5373673114506157,2.524787004933458
13.25117893,-1.5551440810386241,3.9125150807554596,2.6221023011498237
13.25594216,-1.4851077277064386,4.277016599431327,2.7071702405760156
13.260732,-1.4150715196608878,4.628686009458558,2.7788568794548647
13.26550857,-1.3450670268489575,4.965354171619423,2.8360844211405243
13.27027174,-1.2750774221643375,5.284886579641809,2.8778408142161296
13.27506164,-1.2050414893029382,5.585201580093332,2.903189162116101
13.27983815,-1.1348583363547788,5.864288716121844,2.9112768631174264
13.28460138,-1.0643927320753943,6.120227006925259,2.901344398083218
13.28939128,-0.9934809759964526,6.351202970989058,2.872733682757033
13.29416778,-0.9219372088840122,6.555528199521919,2.82489590178195
13.29893102,-0.8495600662851568,6.731656287060346,2.75739874286156
13.30372086,-0.7761395749199905,6.878198928851263,2.669932951432908
13.30849737,-0.701464189533891,6.9939409993088235,2.562318128786554
13.31326065,-0.6253278666704672,7.07785443251164,2.4345076997769657
13.31805044,-0.5475370718225887,7.129110734292555,2.2865929802360028
13.322827,-0.4679176177176864,7.147091965943447,2.1188062790414848
13.32759023,-0.38632123420182096,7.131400051919644,1.9315229755358188
13.33238008,-0.302631774324009,7.081864278188155,1.725262519605747
13.33715664,-0.2167709667016299,6.998546863977418,1.5006883091774523
13.34191987,-0.12870363091140688,6.88174650754306,1.2586064081251487
13.34670971,-0.03844228032314041,6.731999825998486,0.9999630766185456
13.35148622,0.05394895468367946,6.550080630071991,0.7258410956933644
13.35624945,0.14835114094940008,6.336996996623891,0.4374548782107052
13.3610393,0.24458814224211115,6.09398612464748,0.13614436924360596
13.36581586,0.34242504225939185,5.822506984018102,-0.17663224980728384
13.37059237,0.4415674182407187,5.524230790146532,-0.49930702746240274
13.37536893,0.5416614818496193,5.201029361618264,-0.8302118409529581
13.38014544,0.6422950932863187,4.854961441545946,-1.1675890775432693
13.384922,0.7429996439793739,4.488257086452349,-1.5096033359975112
13.38969852,0.8432527927985781,4.103300248825741,-1.854354073316978
13.39447508,0.9424820306122931,3.7026097009079573,-2.19988910937011
13.39925159,1.0400690382194036,3.2888184676943006,-2.544218889597739
13.40402815,1.1353547932497645,2.8646519564600683,-2.885331393692894
13.40880471,1.2276453725839027,2.4329049882797853,-3.2212075661500488
13.41356794,1.3162183882051457,1.9964179538470794,-3.5498371330107212
13.41835779,1.400329986135745,1.5580523312932786,-3.869234658182148
13.4231343,1.4792223301964043,1.1206658174831605,-4.177455682556497
13.42789752,1.5521314848028849,0.6870873362528445,-4.472612779984354
13.43268737,1.618295603979964,0.26009219702582226,-4.752891356132527
13.43746393,1.6769633273635716,-0.1576223150608647,-5.016565009566211
13.44222716,1.7274022783027403,-0.5634606312506357,-5.262010269238971
13.447017,1.7689075543990922,-0.9549515849283416,-5.487720519216568
13.45179357,1.8008100971126637,-1.3297698033796388,-5.692318920359416
13.4565568,1.8224848246666492,-1.685755522295508,-5.874570140643215
13.46134664,1.8333584117232684,-2.0209325481858436,-6.033390712039377
13.46612315,1.8329166006035955,-2.3335241069668,-6.1678578439783
13.47088643,1.8207109328506121,-2.6219663358196175,-6.277216542850989
13.47567622,1.7963647979316273,-2.884919201651804,-6.36088491442013
13.48045278,1.7595787099052058,-3.121274665682973,-6.4184575608078624
13.48521602,1.7101347448520854,-3.3301619629620034,-6.4497070242404595
13.49000586,1.6479001008165002,-3.510949929919324,-6.4545832735804
13.49478237,1.5728297721877276,-3.6632463902473376,-6.433211273892782
13.4995456,1.484968354289256,-3.7868946920565265,-6.385886720642196
13.50433544,1.384451007935464,-3.881967567062474,-6.313070055898157
13.509112,1.2715036203461882,-3.948758546927811,-6.215378912730351
13.51387523,1.1464422025298822,-3.987771218918329,-6.093579155792934
13.51866508,1.0096715663655829,-3.9997066330714253,-5.948574701791476
13.52344164,0.8616833271143489,-3.985449188338879,-5.7813963141343425
13.52820487,0.7030532783733187,-3.9460513279238456,-5.593189572418629
13.53299471,0.5344381863190902,-3.882717366148725,-5.385202220010539
13.53777122,0.3565720485827119,-3.796786752450122,-5.158771092055292
13.54253445,0.17026186048590683,-3.6897170544003286,-4.915308821715808
13.5473243,-0.023617072106465492,-3.5630669128037926,-4.6562905141126825
13.55210086,-0.22412623814440968,-3.4184791893676545,-4.383240565305454
13.55686409,-0.4302694141933881,-3.257664492393998,-4.097719788016211
13.56165393,-0.6409985182976,-3.0823852296103467,-3.8013129871805784
13.56643044,-0.8552198024799172,-2.8944403010108823,-3.4956171074418116
13.57119372,-1.0718003645295209,-2.6956505097678414,-3.1822300521141615
13.57598357,-1.2895749615639724,-2.487844736962339,-2.862740249841446
13.58076008,-1.5073531082234066,-2.2728468967915734,-2.5387170221611255
13.58552331,-1.7239264411566748,-2.052463663509055,-2.21170178330744
13.59031315,-1.938076328646429,-1.8284729400524127,-1.883200083425946
13.59508971,-2.148581699768275,-1.602613021563788,-1.554674488310821
13.59985294,-2.3542270614391207,-1.3765723953760878,-1.2275382732183744
13.60464279,-2.553810664360444,-1.151980113237858,-0.9031498957815499
13.6094193,-2.7461527708244735,-0.9303966724234913,-0.5828082040874447
13.61418258,-2.9301039694510296,-0.7133053507665649,-0.26774833101191914
13.61897242,-3.104553474823039,-0.5021039571066602,0.04086177459549958
13.62374898,-3.2684373439729812,-0.29809698285468017,0.341924224783939
13.62851221,-3.4207465368415164,-0.10248817050323651,0.6344135131731172
13.633302,-3.5605347443879154,0.08362645279947346,0.9173783038312763
13.63807857,-3.6869259062260547,0.2592649988818749,1.1899427035310712
13.6428418,-3.7991213395505725,0.42356549898515483,1.451307029001544
13.64763164,-3.8964064025798,0.5757909271203508,1.700748083651306
13.65240815,-3.9781566185584274,0.715333348255469,1.9376189655505724
13.65717143,-4.04384319017005,0.8417170770572306,2.1613484373525402
13.66196128,-4.093037838479825,0.9546007431006226,2.3714398970550605
13.66673778,-4.1254169048120195,1.0537781734874947,2.5674699949036754
13.67150102,-4.140764658219838,1.1391780224095183,2.7490869459754244
13.67629091,-4.138975755852812,1.2108620982918132,2.9160085900484356
13.68106742,-4.120056809220905,1.2690223618202343,3.0680202503090026
13.68583065,-4.084127016606343,1.313976591521212,3.2049724403908786
13.69062049,-4.031417830837066,1.346162736880847,3.326778465459763
13.69539706,-3.962271642115888,1.3661320016943264,3.4334119580194726
13.70016023,-3.8771394672070305,1.3745407220437766,3.5249043833825096
13.70495008,-3.7765776485591154,1.3721411237474836,3.601342543811508
13.70972664,-3.661243579415137,1.3597710630930029,3.662866104549602
13.71448987,-3.5318904831791493,1.3383428719642467,3.709665159533638
13.71927971,-3.3893612869581555,1.3088314439013948,3.741977849655812
13.72405628,-3.234581640162994,1.2722617109754246,3.760088042090111
13.7288195,-3.068552139389395,1.229695672366228,3.7643230754745134
13.73360935,-2.892339830623187,1.182219143950657,3.755051572635508
13.73838591,-2.707069069204085,1.1309284038338585,3.7326813200108733
13.74314914,-2.513911826944231,1.0769169114694122,3.697657210906583
13.74793893,-2.314077544223406,1.021262277726256,3.6504592481562073
13.75271549,-2.108802632550145,0.9650136598858349,3.591600600555717
13.75747872,-1.8993397396875336,0.9091797490082373,3.5216257064727654
13.76226857,-1.6869468946588178,0.854717507357776,3.4411084170569044
13.76704513,-1.4728766534133468,0.8025218006817008,3.3506501702707463
13.77180836,-1.2583653672989974,0.7534160542627466,3.250878185335925
13.7765982,-1.0446226955074802,0.7081440431538154,3.1424436650504055
13.78137471,-0.8328214792954028,0.6673629063973484,3.0260199908288063
13.78613794,-0.6240880902351025,0.6316374530523685,2.9023008924582077
13.79092779,-0.419493357400593,0.601435805264115,2.7719985718217246
13.79570435,-0.22004416971730928,0.5771264011000848,2.6358417576742204
13.80046758,-0.026675840114286437,0.5589763579989293,2.494573667383764
13.80525742,0.1597546921588685,0.5471511768704647,2.3489498517097007
13.81003398,0.338474755627313,0.5417157474764385,2.1997359003928207
13.81479721,0.5088008833432638,0.542636597955884,2.0477049896672583
13.81958706,0.6701427509388461,0.5497853154158869,1.8936352576558364
13.82436357,0.8220060876260062,0.5629430505228897,1.7383069996470002
13.8291268,0.9639945451695489,0.5818060070954738,1.5824996819854482
13.83391664,1.0958105233512148,0.6059918078751811,1.426988780239398
13.8386932,1.2172549637815484,0.6350466199700879,1.2725424540312735
13.84345643,1.3282261368451107,0.6684529179399388,1.1199180771534867
13.84824628,1.4287174588404004,0.7056377591140537,0.9698586471325233
13.85302284,1.5188143877787865,0.7459814444710654,0.8230891030747838
13.85778602,1.5986904566464684,0.7888264391908787,0.6803125842845986
13.86257591,1.6686025120541284,0.83348642967303,0.5422066647482934
13.86735242,1.7288852339910596,0.8792553981756037,0.40941960022266777
13.87211565,1.7799450188127406,0.9254166019837821,0.2825666255245336
13.87690549,1.8222533126224874,0.9712513508881726,0.16222633984084683
13.88168206,1.8563394858790279,1.0160474845040266,0.048937217535242994
13.88644528,1.882783342387472,1.0591074594077323,-0.056805718989285305
13.89123513,1.9022073568228162,1.0997559650575985,-0.1545540293342517
13.89601169,1.9152687346109842,1.1373469968678704,-0.2439087551621776
13.90077492,1.9226513863641725,1.1712703244830138,-0.3245230600999512
13.90556477,1.9250579061247732,1.200957303114522,-0.39610458253296466
13.91034128,1.9232016384073134,1.2258859856226962,-0.458417477848839
13.91511784,1.9177989134904843,1.2455855027481504,-0.5112841302707662
13.91989435,1.909561523777949,1.2596396884616667,-0.5545865178178725
13.92467091,1.8991895066942532,1.2676899367670897,-0.5882672169582307
13.92943414,1.8873642920844997,1.2694372854044247,-0.6123300360910479
13.93422398,1.8747422650305867,1.2646437306804503,-0.6268402690860606
13.93900055,1.861948788717207,1.2531327860284505,-0.631924561735517
13.94377706,1.8495727264459692,1.2347893048195102,-0.6277703851906254
13.94855362,1.838161496817425,1.2095585953875747,-0.6146251113403158
13.95333013,1.8282166911265767,1.1774448631688723,-0.5927946857261953
13.95810669,1.820190276876433,1.1385090212698887,-0.562641894055313
13.9628832,1.814481405871737,1.0928659166231083,-0.5245842187887345
13.96765976,1.8114338395925642,1.0406810240896023,-0.47909128283026287
13.97242299,1.8113339985105947,0.9821666653237587,-0.4266818782630293
13.97721284,1.8144096357695227,0.9175778128350215,-0.36792057968924324
13.9819894,1.8208291292815433,0.8472075423953498,-0.3034139443939457
13.98675263,1.830701379867224,0.7713821987078241,-0.23380630570090524
13.99154247,1.8440762966556117,0.6904563400635795,-0.15977517188255577
13.99631898,1.8609458446428226,0.6048075276157541,-0.08202625092845861
14.00109555,1.8812456231823191,0.51483102401185,-0.0012881310234665177
14.00587206,1.904856938380533,0.4209344646567744,0.08169334306538902
14.01064862,1.9316093270552392,0.3235325630911096,0.1661609473901714
14.01541185,1.961283485254488,0.22304191011113103,0.25135215081513856
14.02020169,1.9936145505083278,0.11987592448121244,0.3365053153878024
14.02497825,2.0282956841641706,0.014440011410128857,0.42086595405017563
14.02974148,2.06498189848358,-0.0928730167301515,0.5036929720630084
14.03453133,2.103294072738759,-0.20168720486637828,0.5842648180167718
14.03930784,2.1428231033402696,-0.31164735463688403,0.6618854716461161
14.04407107,2.1831341349822915,-0.42242251154816995,0.7358901985686775
14.04886096,2.2237708228245463,-0.5337089965370826,0.8056510062770821
14.05363747,2.264259579788244,-0.6452329433897508,0.870581741008559
14.0584007,2.3041137680847035,-0.756752309146552,0.9301427713019446
14.06319055,2.34283780002863,-0.8680583310689253,0.9838452109216438
14.06796711,2.3799311198430955,-0.9789764107694382,1.031254641174335
14.07273034,2.414892045303797,-1.0893664134695642,1.0719943002831582
14.07752018,2.447221455409618,-1.1991223777815936,1.1057477152730166
14.08229669,2.4764263174640937,-1.308171638659048,1.1322607596546082
14.08705992,2.5020230536193346,-1.4164733730355799,1.1513431280025093
14.09184982,2.523540752673716,-1.5240165840856723,1.162869226266207
14.09662633,2.5405242373779076,-1.6308175460039867,1.166778484304559
14.10138956,2.5525370004391816,-1.7369167368048255,1.1630751046159369
14.1061794,2.5591640237161144,-1.8423752920199312,1.1518272683725936
14.11095596,2.560014494831596,-1.9472710174518397,1.1331658264060807
14.11571919,2.554724433804438,-2.0516940044087466,1.1072825084774416
14.12050904,2.5429592395543574,-2.1557418961125587,1.0744276888131161
14.1252856,2.5244161624769985,-2.259514859145633,1.0349077493896708
14.13004883,2.4988267048706434,-2.363110318720099,0.9890820847684311
14.13483867,2.465958945985482,-2.466617521029865,0.9373597934271243
14.13961518,2.425619783070046,-2.570111989824202,0.8801961005894996
14.14437841,2.377657074241103,-2.67364994752737,0.818088556705822
14.14916825,2.321961663489763,-2.7772627736724895,0.7515730543004305
14.15394482,2.2584692627630676,-2.8809515750823507,0.6812197042126541
14.15870805,2.1871621608982177,-2.984681943064989,0.6076286104855287
14.16349789,2.1080707243875128,-3.088378972848787,0.5314255812178952
14.16827445,2.021274650855539,-3.1919226195608466,0.4532578103484136
14.17303768,1.9269039332498148,-3.2951434633447296,0.37378956234772037
14.17782753,1.8251394915931982,-3.397818953888137,0.29369788801960434
14.18260404,1.716213430020596,-3.4996702018549684,0.21366839508856503
14.18736726,1.6004088797442995,-3.6003593815691106,0.1343910922422326
14.19215716,1.4780593933796522,-3.699487805739178,0.05655632022799453
14.19693367,1.3495478624281543,-3.796594728907827,-0.019149221114454586
14.2016969,1.215304937324563,-3.89115693147051,-0.09204634511157594
14.20648674,1.075806937981461,-3.9825891303598673,-0.16146714846243798
14.21126331,0.9315732519363491,-4.070245255719716,-0.2267586808847309
14.21603982,0.7831632268078706,-4.153420625070201,-0.2872865180994041
14.22081638,0.6311725736104598,-4.231355037639829,-0.34243824419719177
14.22559289,0.47622930736221725,-4.30323680179878,-0.3916268513918354
14.23035612,0.3189892611173422,-4.368207697969807,-0.434294066910804
14.23514602,0.16013121879119624,-4.42536886810947,-0.4699136181727426
14.23992252,0.00035172063874474804,-4.4737876109221215,-0.4979944482471528
14.24468581,-0.15964039724889595,-4.512505049465326,-0.5180838936237181
14.2494756,-0.3191296617007242,-4.5405446248065005,-0.5297708352294032
14.25425216,-0.47739974655146444,-4.556921356000206,-0.5326888311272023
14.25901539,-0.6337393050432211,-4.560651793038699,-0.5265192352466095
14.26380523,-0.7874477704679446,-4.550764575841184,-0.5109943008882145
14.26858174,-0.9378410429468742,-4.5263114991383215,-0.48590026087463956
14.27334497,-1.0842569793567545,-4.486378970706932,-0.4510803684828171
14.27813487,-1.2260606038270665,-4.430099739308945,-0.406437875173979
14.28291138,-1.362648958110762,-4.356664759392326,-0.351938913174531
14.28767466,-1.4934555146548034,-4.265335052541121,-0.2876152436519943
14.29246445,-1.6179540805952868,-4.155453421079947,-0.21356682493835918
14.29724102,-1.7356621284235696,-4.026455867234889,-0.12996415018915622
14.30200424,-1.8461434988923016,-3.877882571772778,-0.037050300166692716
14.30679409,-1.949010433863199,-3.709388288937077,0.06485734532984778
14.31157065,-2.043924911027724,-3.520752019586633,0.17536579423381135
14.31633388,-2.130599268308093,-3.311885831523094,0.29400558230664026
14.32112372,-2.2087961226031703,-3.0828427048227107,0.42023041775720693
14.32590023,-2.2783276045640353,-2.833823290244472,0.5534173757022391
14.33066346,-2.3390539474390097,-2.5651814800305806,0.692867680621818
14.33545336,-2.3908814830633447,-2.2774287021417754,0.8378081074588986
14.34022987,-2.4337601114118312,-1.9712368607798487,0.9873930252349061
14.3449931,-2.467680321619465,-1.6474398578259613,1.1407071020250015
14.34978294,-2.492669851852678,-1.3070336417016049,1.2967686873704722
14.3545595,-2.5087900826031055,-0.9511747423121282,1.4545338870658602
14.35932273,-2.516132262535052,-0.5811772632138871,1.6129013438536408
14.36411258,-2.5148136677296895,-0.19850831492839485,1.770717733678166
14.36888914,-2.504973794065696,0.19521811355837818,1.9267839795528376
14.37365232,-2.4867706787628268,0.5982488344669736,2.0798621739622942
14.37844221,-2.4603774409507815,1.0087006671006444,2.2286831870968142
14.38321872,-2.4259791225213623,1.4245711297855153,2.371954923336355
14.38798195,-2.383769899533888,1.8437505617504153,2.508371173535077
14.3927718,-2.3339507214460684,2.2640356022665795,2.6366209970914203
14.39754836,-2.27672742113585,2.6831439375727615,2.7553985565499377
14.40231159,-2.2123093238811045,3.0987302094605353,2.8634133190192257
14.40710143,-2.14090836893577,3.508402963341245,2.9594005328956863
14.41187799,-2.062738743708348,3.9097424986780562,3.042131884825211
14.41664122,-1.978017018219447,4.30031947132726,3.1104262399608955
14.42143107,-1.8869627566505733,4.677714085924801,3.1631603678283593
14.42620758,-1.789799573412783,5.0395357071347275,3.1992795560132916
14.43097081,-1.6867565932347448,5.383442711381101,3.2178080140881784
14.4357607,-1.5780702681571401,5.707162395547279,3.217858970555304
14.44053721,-1.4639864986859799,6.008510755861588,3.198644366246065
14.44530044,-1.3447630013363914,6.285411948549647,3.159484048882067
14.45009029,-1.2206718602833102,6.535917243631953,3.0998143755143657
14.45486685,-1.092002196985664,6.7582232843988645,3.019196132179789
14.45963008,-0.9590628886605053,6.950689467585808,2.917321683144201
14.46441992,-0.8221852644594878,7.111854263117064,2.794021265501532
14.46919648,-0.681725707227405,7.240450297562984,2.649268348812445
14.47395971,-0.538068088935444,7.335418032311995,2.483183984134659
14.47874956,-0.3916259694347076,7.395917876081733,2.2960400724454
14.48352607,-0.2428444911641987,7.42134058195031,2.088261489235707
14.4882893,-0.0922019068525266,7.411315791691839,1.8604270100145124
14.49307919,0.05978931706534061,7.365718604897435,1.6132689905602022
14.4978557,0.2125818718604342,7.284674067125388,1.3476717659109747
14.50261893,0.36559349576463046,7.168559490037055,1.0646687431755857
14.50740878,0.5182074159879716,7.018004536940564,0.7654381751286341
14.51218534,0.669773369940954,6.833889029123356,0.4512976140539399
14.51694857,0.8196092233662944,6.617338451504778,0.12369705821562123
14.52173841,0.9670031941747945,6.369717160149833,-0.21578918353333248
14.52651497,1.1112166817791558,6.092619318703847,-0.5654718703204297
14.53129148,1.251487692732976,5.787857615483235,-0.9235573992010683
14.53606805,1.3870348446512202,5.457449837461049,-1.288159501657934
14.54084456,1.517061921859678,5.103603401431966,-1.6573119888742138
14.54560784,1.6407629481012935,4.728697965990243,-2.028982455120641
14.55039768,1.757327733985321,4.335266270408508,-2.4010868358441178
14.55517419,1.8659478497684963,3.925973367901315,-2.7715047045547423
14.55993742,1.9658229675778032,3.503594440955635,-3.1380951805496853
14.56472726,2.056167511354719,3.0709914052783156,-3.498713308051842
14.56950383,2.136217547579177,2.6310885263065344,-3.851226756611279
14.57426706,2.205237845126399,2.1868472879950893,-4.193532682722445
14.5790569,2.2625290283502477,1.7412407675717125,-4.523574583661434
14.58383346,2.307434743672984,1.2972277819816054,-4.839358966723071
14.58859669,2.3393487566586226,0.8577270816719513,-5.138971650622961
14.59338654,2.3577218938542766,0.4255918750319267,-5.42059351119859
14.59816305,2.362068741715145,0.0035849720107079745,-5.682515481109059
14.60292633,2.351974013812425,-0.4056451620514292,-5.923152613462329
14.60771612,2.3270984974067854,-0.7995871518289018,-6.1410570228296235
14.61249268,2.2871844915284223,-1.1758879699953662,-6.3349295248697235
14.61725591,2.232060651169385,-1.5323724289941538,-6.5036298089796025
14.62204575,2.1616461564593124,-1.8670606404414936,-6.6461849981465315
14.62682232,2.075954132541422,-2.178183194597495,-6.761796476898295
14.63158555,1.9750942566010428,-2.4641938386043316,-6.849844900926872
14.63637539,1.8592745044955432,-2.7237794684613696,-6.909893338266331
14.64115195,1.7288020106645672,-2.9558672984077785,-6.941688529266416
14.64591518,1.5840830385588744,-3.159629133527788,-6.945160289313138
14.65070502,1.425622079644265,-3.334482744495205,-6.920419113390106
14.65548154,1.2540201132002968,-3.4800904206137537,-6.86775207407988
14.66024477,1.0699720666037795,-3.5963548496051767,-6.787617132883961
14.66503466,0.8742635194539697,-3.683412532463273,-6.680636007384953
14.66981117,0.6677666974421639,-3.7416249856943917,-6.547585753322981
14.6745744,0.451435804105548,-3.771568011457083,-6.389389231543738
14.67936424,0.22630174014571666,-3.774019330056771,-6.2071046357819375
14.68414081,-0.0065337395616578905,-3.749944870811364,-6.00191425914142
14.68890404,-0.24590438175824725,-3.7004840085185857,-5.775112675559362
14.69369388,-0.4905862552874129,-3.6269340158354635,-5.528094507893116
14.69847044,-0.7393049900684467,-3.530733978930861,-5.262341946650752
14.70323367,-0.9907433906018145,-3.4134483965578593,-4.979412172797534
14.70802352,-1.2435493825270494,-3.276750652681972,-4.68092482469956
14.71280008,-1.4963442533316025,-3.122406521362315,-4.36854963362183
14.71756325,-1.747731150702349,-2.9522578310982444,-4.043994335002566
14.72235315,-1.9963038037774947,-2.7682063856428956,-3.708992944768241
14.72712966,-2.240655433194176,-2.572198210423576,-3.3652944720363105
14.73189289,-2.479387814952189,-2.366208168921287,-3.0146521224567437
14.73668273,-2.7111204605628596,-2.1522249720749773,-2.6588130308384113
14.7414593,-2.9344998717588715,-1.9322365862895494,-2.299508548032699
14.74622252,-3.1482088223700546,-1.7082160322984872,-1.9384450954982815
14.75101237,-3.35097561307858,-1.482107558525352,-1.5772955916368079
14.75578893,-3.541583237022788,-1.255813169548925,-1.2176914470026041
14.76055216,-3.718878386171183,-1.0311794939075656,-0.8612151209650034
14.765342,-3.8817802208239085,-0.8099849869184454,-0.5093932303198642
14.77011857,-4.0292888184512705,-0.5939274840772637,-0.16369020082985722
14.7748818,-4.1604932141560464,-0.38461214829552337,0.17449754366037656
14.77967164,-4.274578943750376,-0.18353988710690164,0.5038468526872375
14.78444815,-4.370835001674547,0.007903650566829441,0.8231125702854605
14.78921138,-4.448660129338475,0.18845835996596985,1.1311316878656938
14.79400128,-4.507568354517271,0.3569990911905672,1.4268269099957376
14.79877778,-4.547193708931358,0.5125440204344942,1.7092096202939648
14.80354102,-4.567294058891043,0.6542618208223019,1.9773822455534698
14.80833086,-4.567753992533612,0.7814774846750212,2.2305400284945693
14.81310742,-4.548586716257027,0.8936766684557228,2.467972230362808
14.81787065,-4.5099349221275595,0.990508455574628,2.6890627924838877
14.82266049,-4.452070597311728,1.071786458920495,2.893290490505521
14.82743706,-4.375393756232386,1.1374882130657429,3.0802286166623056
14.83220028,-4.28043008649755,1.187752834519617,3.249544224530912
14.83699013,-4.167827510825663,1.2228769563906163,3.4009969680706926
14.84176664,-4.038351678981645,1.2433089708056013,3.5344375630097455
14.84652987,-3.8928804156312324,1.249641638049966,3.6498058945829963
14.85131977,-3.732397161416432,1.2426031454175543,3.7471287919278558
14.85609628,-3.557983455023696,1.2230467210486897,3.8265174865870915
14.8608595,-3.370810513426164,1.1919389284623287,3.888164770770607
14.86564935,-3.1721299759387227,1.1503467858959728,3.932341870206051
14.87042591,-2.9632638854296665,1.0994238707600368,3.9593950462929217
14.87518914,-2.745593987161759,1.0403955832841052,3.969741942567953
14.87997898,-2.520550432402513,0.9745437545949636,3.9638676909757766
14.88475555,-2.289599980208943,0.903190792895497,3.9423207940137823
14.88951878,-2.054233796668884,0.8276835670709796,3.905708799472049
14.89430862,-1.8159549563339803,0.7493772299654639,3.8546937852845917
14.89908513,-1.5762657555517867,0.6696191837964094,3.7899876730730977
14.90384841,-1.3366549518656035,0.5897333877528926,3.7123473904193918
14.90863825,-1.0985850476033259,0.5110052027970784,3.622569903771706
14.91341476,-0.8634797391855847,0.4346669611127353,3.5214871460683477
14.91817799,-0.632711656384081,0.361884437550248,3.409960865458442
14.92296789,-0.40759051745739405,0.29374438779324064,3.2888774236702294
14.9277444,-0.18935182646172988,0.231243302775356,3.1591425743432833
14.93250763,0.020853762186710575,0.17527751105201253,3.021676252723715
14.93729747,0.22197028988157613,0.12663474032750507,2.877407408332765
14.94207404,0.41304543391620385,0.08598722618183595,2.727268911578086
14.94683727,0.5932384323185614,0.05388643052053833,2.5721925640642604
14.95162711,0.7618268944124547,0.030759405058536204,2.4131042410018977
14.95640367,0.9182124105386094,0.01690680723738037,2.250919192958506
14.9611669,1.0619248886959576,0.012502548438250449,2.0865375333682983
14.96595674,1.1926255616380275,0.017595028134790545,1.9208399376738172
14.97073325,1.3101086248368956,0.032109883473999276,1.754683579565767
14.97549648,1.41430148338769,0.05585416226076227,1.5888983292761547
14.98028638,1.5052636040023528,0.08852180891298003,1.4242832378823391
14.98506289,1.5831839863253474,0.1297003379822531,1.2616033296421556
14.98982612,1.6483772855120238,0.17887855844359624,1.1015867211939767
14.99461596,1.701278635026553,0.23545520403649972,0.9449220820546447
14.99939253,1.7424372346966697,0.29874832013554103,0.7922564455844542
15.00415575,1.7725087840062312,0.3680052554618941,0.6441933739124931
15.0089456,1.7922468542227232,0.4424131069610165,0.5012914745898708
15.01372216,1.802493305062696,0.5211094680231324,0.3640632611949633
15.01848539,1.8041678620528558,0.6031933336908043,0.23297434488911203
15.02327523,1.7982569794677272,0.6877360214500658,0.10844293908810906
15.0280518,1.7858021206739305,0.773791972556942,-0.00916034495451957
15.03281503,1.7678875928407374,0.8604093065490317,-0.11951243761665872
15.03760487,1.7456280761974554,0.9466400105740661,-0.22233751429820248
15.04238138,1.7201559891689564,1.0315496553591224,-0.3174064933793823
15.04714461,1.6926088295907558,1.1142265409160061,-0.40453635986616876
15.0519345,1.6641166286308386,1.1937901872111458,-0.4835893449940222
15.05671102,1.6357896480420828,1.2693990977254996,-0.5544719900186623
15.06147424,1.6087064432330238,1.3402577367705404,-0.6171341194153076
15.06626409,1.5839024049594073,1.4056226743131366,-0.6715677450294991
15.07104065,1.5623588819678724,1.464807864648794,-0.7178059186668091
15.07580388,1.5449929764552295,1.517189037374628,-0.7559215463962206
15.08059372,1.5326480944079064,1.5622071906590715,-0.7860261735886486
15.08537029,1.5260853241473238,1.5993711877625192,-0.8082687454473794
15.0901468,1.5259757087418515,1.6282594681443519,-0.8228343434934073
15.09492336,1.5328934710377025,1.6485208943116214,-0.8299428941204806
15.09969987,1.5473102434491584,1.6598747648249979,-0.8298478409309289
15.10447643,1.5695903479257831,1.6621100325676361,-0.8228347681463554
15.10925299,1.5999871644263555,1.6550837754785648,-0.8092199580547197
15.1140295,1.638640618664462,1.6387189744075092,-0.7893488613709739
15.11879273,1.6855758118098711,1.6130016594796224,-0.7635944557951249
15.12358263,1.7407028061927636,1.5779774922410161,-0.7323554652982303
15.12835914,1.8038175717857179,1.5337478557305557,-0.6960544112564627
15.13312237,1.8746040882257056,1.48046552831899,-0.6551354671781267
15.13791221,1.9526375862989582,1.4183300195210238,-0.6100620922359601
15.14268878,2.0373889011310298,1.3475826469330179,-0.5613144257644628
15.147452,2.1282298969158866,1.268501433020869,-0.509386435314006
15.15224185,2.2244399101688352,1.1813958988998297,-0.4547828238094079
15.15701841,2.3252131456545726,1.0866018298885678,-0.3980157150920502
15.16178164,2.429666946869914,0.9844760849037989,-0.3396011497521719
15.16657148,2.5368508517798944,0.8753915190020385,-0.280055433304818
15.17134805,2.6457563348495774,0.7597320856841987,-0.2198913857702865
15.17611128,2.7553271285820116,0.637888182872566,-0.15961454552179122
15.18090112,2.8644700118988644,0.5102523035345405,-0.09971938118185282
15.18567763,2.972065948712572,0.377215048501098,-0.04068556393161809
15.19044086,3.076981457677907,0.2391615548600468,0.01702565052494845
15.19523075,3.1780800930638575,0.09646838819603754,0.07297488534698261
15.20000727,3.274233916762549,-0.050499059218302625,0.1267479112303801
15.20477049,3.3643348426487885,-0.2013886294253134,0.17795868563094866
15.20956034,3.4473057369354483,-0.355862892376448,0.22625213330801144
15.2143369,3.5221111619523335,-0.5136000545870825,0.271306644484807
15.21910013,3.587767655958088,-0.6742942749352192,0.31283627231785727
15.22388997,3.643353448140129,-0.8376553894906815,0.35059261651539136
15.22866654,3.6880175157519295,-1.003408056883214,0.3843663847530298
15.23342976,3.7209878991990926,-1.1712903448377232,0.4139886279284919
15.23821961,3.741579200585059,-1.3410517869059124,0.4393316492145785
15.24299617,3.7491992015110776,-1.5124509460042717,0.4603095902753642
15.24777268,3.743354546546974,-1.685252528120172,0.47687870091593737
15.25254924,3.7236554495336995,-1.8592240955227266,0.4890373009077989
15.25732575,3.689819390576466,-2.0341324340996847,0.4968254448675437
15.26210232,3.641673782122932,-2.2097396341389106,0.5003243029416807
15.26687888,3.5791575928284725,-2.3857989480870745,0.4996552716740546
15.27165539,3.5023219279556645,-2.5620504926355876,0.4949788307448066
15.27641862,3.4113295748121106,-2.7382168659528503,0.4864931621870765
15.28120846,3.306453531166015,-2.9139987539979693,0.474432549146209
15.28598502,3.188074543628089,-3.08907060255401,0.45906557122030994
15.29074825,3.0566776915045346,-3.2630764338009017,0.44069311292888064
15.2955381,2.9128480593354174,-3.4356258877736683,0.4196462009857156
15.30031466,2.7572655478753307,-3.6062905697862604,0.3962836849992411
15.30507789,2.5906988783419234,-3.7746007847380745,0.3709897752851351
15.30986773,2.4139988482642596,-3.9400427380820933,0.34417145093164964
15.3146443,2.2280908994589295,-4.102056281049421,0.3162557511836568
15.31942081,2.033967060169184,-4.26003327440819,0.287686963410957
15.32419737,1.8326773250758843,-4.413316640489258,0.2589237210678798
15.32897393,1.6253205394976613,-4.561200167359369,0.23043602484094938
15.33373716,1.4130348580025536,-4.702929121829734,0.2027021993973515
15.338527,1.1969878527266193,-4.837701719466086,0.17620579659755792
15.34330352,0.9783663525057025,-4.9646714899676185,0.15143245358507457
15.34806674,0.7583660999787672,-5.082950565299348,0.12886671082106485
15.35285664,0.5381813196718448,-5.191613905932997,0.1089887911115247
15.35763315,0.318994295352739,-5.289704467646228,0.09227133645189672
15.36239638,0.10196505937246732,-5.376239297711777,0.07917609580438649
15.36718622,-0.11177869991630202,-5.450216535099104,0.07015055456546669
15.37196279,-0.32115140437281203,-5.510623274619585,0.06562449618104463
15.37672602,-0.5251189167018394,-5.556444239926482,0.06600648845109379
15.38151586,-0.7227073268188859,-5.586671195154799,0.07168029142901207
15.38629242,-0.9130110874535672,-5.600313010028065,0.08300119004969671
15.39105565,-1.0952003965496182,-5.596406278812922,0.10029226212285554
15.39584549,-1.2685277299377735,-5.574026380026169,0.12384060042337716
15.400622,-1.4323334353503012,-5.532298851854363,0.15389351565098608
15.40538529,-1.5860503078627062,-5.470410948397079,0.19065475456175554
15.41017513,-1.7292070771797021,-5.3876232345313975,0.23428077441155234
15.41495164,-1.8614307489347015,-5.283281072665684,0.28487712100047335
15.41971487,-1.982447755575007,-5.15682585298041,0.3424949630395484
15.42450477,-2.092083887683949,-5.007805819905957,0.40712783999030205
15.42928128,-2.1902629938748888,-4.835886351462499,0.47870868335771044
15.4340445,-2.2770044566279344,-4.64085955453333,0.5571071719663043
15.4388344,-2.352419472310627,-4.422653047924581,0.6421274796384868
15.44361091,-2.4167061854959733,-4.181337815791429,0.7335064691117474
15.44838747,-2.4701437496467085,-3.9171350260793396,0.8309123796880484
15.45316398,-2.5130854072182536,-3.6304217212708028,0.9339440489577585
15.45794055,-2.545950701286471,-3.3217353011971813,1.0421307018952906
15.46270378,-2.5692169472520763,-2.9917767294569884,1.1549323344125366
15.46749362,-2.5834101066338144,-2.64141240589517,1.271740713555112
15.47227018,-2.5890952152570974,-2.271674657734532,1.3918810130507624
15.47703341,-2.5868665251964855,-1.8837608115061357,1.5146141005091447
15.48182325,-2.577337523636342,-1.4790308170733755,1.6391394903960976
15.48659977,-2.5611309924439967,-1.0590034039597938,1.7645989738416485
15.49136305,-2.538869269836516,-0.6253507591443869,1.8900809313230698
15.49615289,-2.511164870243531,-0.179891724835559,2.0146253266983507
15.5009294,-2.478611610516454,0.2754164752178283,2.13722937109131
15.50569263,-2.4417763801808237,0.7384879614114535,2.256853833533374
15.51048252,-2.401191680622002,1.2071193446820871,2.372429963128185
15.51525904,-2.3573490431129525,1.6790022495920136,2.482866975878276
15.52002227,-2.3106934187068138,2.151737156403828,2.587060049103071
15.52481211,-2.2616186145432917,2.622848489820288,2.6838987582515434
15.52958867,-2.2104638312810048,3.08980086646834,2.772275885111988
15.5343519,-2.1575113353176274,3.5500163966983225,2.8510965226540548
15.53914174,-2.1029852775673503,4.0008929190956,2.9192873993546056
15.54391831,-2.0470516487043877,4.439823028806773,2.9758063441820584
15.54868154,-1.989819340198705,4.864213744173738,3.019651811975046
15.55347138,-1.9313422622676866,5.271506641115898,3.0498723875567135
15.55824794,-1.8716224545345979,5.659198271905692,3.065576185608327
15.56301117,-1.810614112554345,6.024860674873309,3.0659400622288646
15.56780102,-1.7482284429384556,6.366161774338289,3.0502185533698776
15.57257758,-1.6843392511126654,6.680885465733579,3.017752455048084
15.57734081,-1.6187891584989185,6.966951179426303,2.9679769604695663
15.58213065,-1.5513963400225672,7.222432718070137,2.900429270022969
15.58690716,-1.4819616682685262,7.4455761663060915,2.8147555916032996
15.59167044,-1.4102761473515828,7.634816678055788,2.7107174510150216
15.59646029,-1.3361285176985536,7.788793955292847,2.588197235375976
15.6012368,-1.2593129125870313,7.906366242822221,2.447202896575074
15.60600002,-1.1796364485433815,7.986622676068744,2.287871746939383
15.61078992,-1.0969266345782513,8.028893833032255,2.11047328529284
15.61556643,-1.0110384896513451,8.032760357293801,1.915410998459821
15.62032966,-0.9218612635911777,7.998059536160791,1.7032230908988122
15.6251195,-0.8293246638442727,7.924889736618159,1.4745821034647397
15.62989607,-0.7334044988083546,7.813612621577317,1.2302933912127294
15.6346593,-0.6341276580183349,7.664853089818815,0.9712924395899899
15.63944914,-0.5315763599411701,7.479496904811216,0.6986410082447629
15.6442257,-0.42589160934530534,7.258686000033792,0.41352210195935135
15.64900227,-0.31727581781897557,7.003811471290496,0.1172337788519
15.65377878,-0.20599455267817668,6.716504289532448,-0.1888181830441629
15.65855534,-0.09237739093741529,6.3986237906838666,-0.50312872846246
15.66331857,0.023182133988176642,6.052244021708494,-0.8241030329940093
15.66810841,0.14022749472611057,5.67963804451335,-1.150067021048296
15.67288497,0.25824103351034117,5.283260321141594,-1.4792788263324168
15.6776482,0.37664670943372625,4.865727324935601,-1.8099411156212444
15.68243805,0.49481370295695865,4.4297965428180435,-2.1402141847590035
15.68721456,0.612060842573596,3.9783440533873757,-2.46822972418133
15.69199112,0.7276618101423309,3.5143408839942434,-2.7921051399422776
15.69676768,0.8408510732343721,3.040828367200584,-3.109958305427939
15.70154419,0.9508304848366222,2.560892732864376,-3.4199226087491086
15.70630742,1.0567764828405477,2.0776391863575645,-3.720162151292981
15.71109732,1.1578478139224346,1.5941657358912074,-4.008886944114175
15.71587383,1.2531936987548906,1.1135370423360915,-4.284367940802296
15.72063706,1.3419623481448593,0.6387585730261041,-4.544951738272616
15.7254269,1.4233097329025162,0.17275134656519586,-4.789074770781487
15.73020346,1.4964085042708422,-0.2816724416062082,-5.015276817687889
15.73496669,1.5604569568534967,-0.7218326234249708,-5.222213642512656
15.73975654,1.614687922432134,-1.1452028063336532,-5.408668580270906
15.7445331,1.6583774811149359,-1.5494303867118697,-5.573562892673354
15.74929633,1.6908533761496265,-1.9323545614192246,-5.715964717761466
15.75408617,1.7115030207916007,-2.29202208658964,-5.835096453408024
15.75886273,1.7197809904065557,-2.626700555260667,-5.930340434669692
15.76362596,1.715215901368017,-2.934888996042046,-6.001242794876774
15.76841581,1.6974165911557173,-3.215325636939407,-6.047515440315519
15.77319237,1.666077531391921,-3.4669927347789473,-6.069036116817634
15.7779556,1.6209834253930648,-3.6891184418803764,-6.065846598623386
15.78274544,1.5620129603088446,-3.8811757629097086,-6.038149078565143
15.787522,1.4891416977556664,-4.042878736668598,-5.986300878286713
15.79228523,1.4024440957445972,-4.174176049680092,-5.910807626100046
15.79707508,1.302094660907023,-4.27524234421755,-5.812315069800655
15.80185159,1.18836823574643,-4.346467521314039,-5.691599705003047
15.80661487,1.0616394316884565,-4.3884443609583474,-5.549558408353319
15.81140471,0.9223812249301251,-4.401954789635317,-5.3871972703857045
15.81618122,0.771162738184871,-4.387955121702667,-5.205619825236147
15.82094445,0.6086462370942328,-4.347560587521364,-5.006014873984681
15.8257343,0.43558337504914874,-4.282029439468706,-4.7896440949177395
15.83051086,0.2528107241819033,-4.19274689874065,-4.55782962719819
15.83527409,0.061244633232640594,-4.081209172876636,-4.311941804050394
15.84006393,-0.1381245450430787,-3.9490077377133463,-4.053387197599152
15.84484049,-0.3442388129974153,-3.797814039374882,-3.7835971202940306
15.84960372,-0.5559794289030564,-3.6293647332744348,-3.504016707993464
15.85439357,-0.7721743037328789,-3.4454475392037565,-3.2160946878945267
15.85917013,-0.9916058471189437,-3.247887755526628,-2.9212739112006565
15.86393336,-1.2130192143638447,-3.0385354421609425,-2.620982706474053
15.8687232,-1.4351309047341394,-2.8192532521516394,-2.3166270858832587
15.87349977,-1.656637659234455,-2.591904865861379,-2.009583813787845
15.87826299,-1.8762256034284022,-2.358343960810627,-1.7011943257815096
15.88305284,-2.092579577377175,-2.120403634695714,-1.3927594667146566
15.8878294,-2.3043925903213553,-1.8798861898778443,-1.085534998667173
15.89259263,-2.5103753326256975,-1.6385531856147693,-0.7807278149371198
15.89738247,-2.7092656723873714,-1.3981156708260305,-0.4794927849044901
15.90215898,-2.899838059647008,-1.1602245270155005,-0.1829301491208981
15.90692226,-3.0809127577207387,-0.9264608796806971,0.10791661290177941
15.91171211,-3.251364819112502,-0.6983265767694704,0.3920625064052208
15.91648862,-3.4101327234739998,-0.4772347805849649,0.6685823804564791
15.9212519,-3.5562265978548186,-0.2645007678313998,0.9366119465648823
15.92604174,-3.6887359447209818,-0.061333073552327394,1.1953484691335108
15.93081825,-3.806836809497907,0.13117485665476003,1.4440511377998408
15.93558148,-3.9097983252163657,0.3120523271520419,1.682041136241593
15.94037138,-3.9969885764306285,0.4804581848004694,1.9087014290808901
15.94514789,-4.067879727804917,0.6356865717088717,2.123476295092321
15.94991112,-4.122052364864482,0.7771714834018605,2.325870639571504
15.95470096,-4.159198995980796,0.9044900005739318,2.515449121019359
15.95947752,-4.179126666686378,1.0173640896022695,2.691835127330964
15.96424075,-4.18175864101056,1.1156608964256707,2.8547096348140113
15.9690306,-4.167135110514525,1.1993914888709947,3.003809980087229
15.97380716,-4.135412900276927,1.2687080328755762,3.1389285707147585
15.97857039,-4.086864151802527,1.3238994174781706,3.2599115557917857
15.98336023,-4.021873974890857,1.3653853714139093,3.3666574730830385
15.9881368,-3.9409370730445135,1.3937091403589228,3.459115885149412
15.99290002,-3.8446533592990235,1.4095288181447856,3.537286013423518
15.99768987,-3.733722590959776,1.413607447440986,3.6012153764111496
16.00246643,-3.6089380624775225,1.4068020252913571,3.6509984359297643
16.00722966,-3.47117940569207,1.3900515662383923,3.686775253356476
16.0120195,-3.3214045562040075,1.364364390293225,3.7087301561365402
16.01679607,-3.1606409540132567,1.3308048144425981,3.7170904132671185
16.0215593,-2.98997605602103,1.290479434537235,3.7121249171275728
16.02634914,-2.810547247589044,1.2445231891846187,3.6941428679028587
16.03112565,-2.6235312499373897,1.1940853986314977,3.6634924559738433
16.03588893,-2.430133129388368,1.1403159695165253,3.6205595370296235
16.04067878,-2.2315750228405515,1.0843519507439918,3.5657662942131867
16.04545529,-2.029084700876296,1.027304616582596,3.4995698811637723
16.05021852,-1.82388409513459,0.9702472405653636,3.4224610391210457
16.05500841,-1.6171779196990783,0.9142037081403671,3.334962680068566
16.05978492,-1.4101425170584287,0.8601380977182507,3.23762842608231
16.0645482,-1.2039150576604727,0.8089453393540117,3.1310410926749013
16.06933799,-0.9995832183948412,0.7614430385201535,3.0158111012716757
16.07411456,-0.7981754598789543,0.7183645301087577,2.8925748034647434
16.07887778,-0.6006520155871423,0.6803532057250143,2.7619926978583442
16.08366763,-0.4078966978795377,0.6479581360934961,2.624747519581144
16.08844419,-0.2207096168413074,0.6216309903414969,2.4815421831906272
16.09320742,-0.03980089737999406,0.6017242352231122,2.333097561805758
16.09799732,0.1342145318606543,0.5884905800920373,2.180150088733999
16.10277383,0.30082101747742696,0.5820836176967569,2.023449172335578
16.10753706,0.4596050823082705,0.5825595967539685,1.8637544200828895
16.1123269,0.6102571178534176,0.5898802498627426,1.701832673411466
16.11710346,0.7525718532531057,0.6039165897419221,1.5384548607055712
16.12186669,0.8864476018385172,0.6244535780451645,1.374392681322517
16.12665654,1.0118843020160653,0.6511955641245071,1.2104151386807873
16.1314331,1.1289803846260094,0.6837723860574962,1.0472849449007862
16.13619633,1.2379285137429743,0.7217460230228855,0.885754823116487
16.14098617,1.3390102619796662,0.7646176867041198,0.7265637362548114
16.14576273,1.4325897945313872,0.8118352397814195,0.5704330727816092
16.15052596,1.5191066482630464,0.8628008316508682,0.4180628207238278
16.15531581,1.5990677029028888,0.9168786451473746,0.2701277613685376
16.16009237,1.6730384507030993,0.9734026530844218,0.12727371361008388
16.1648556,1.741633678622698,1.0316842896618543,-0.0098861408491984
16.16964544,1.8055076830800991,1.0910199489988766,-0.14077482218396228
16.17442195,1.8653441415488436,1.150698230969042,-0.26485497875982766
16.17918518,1.9218457677192482,1.2100068629207985,-0.3816321478204913
16.18397508,1.9757238776533341,1.268239234600112,-0.4906578242784671
16.18875159,2.027687993370361,1.324700492555157,-0.5915323123100577
16.19351482,2.0784356076698924,1.3787131494335962,-0.6839073353720144
16.19830471,2.1286422297926664,1.4296221728146221,-0.7674883810423504
16.20308122,2.1789518258153375,1.4767995274688281,-0.8420367576569993
16.20784445,2.229967760574357,1.5196481541145992,-0.9073713400243442
16.2126343,2.282244339566119,1.5576053767373532,-0.9633699815625586
16.21741086,2.336279039909804,1.5901457392441436,-1.009970570062255
16.22218742,2.392505509434785,1.61678328051089,-1.0471717039948802
16.22696393,2.4512874027163587,1.637073264597633,-1.0750329660073037
16.23174049,2.5129131128739224,1.6506133899163264,-1.0936747702338463
16.23650372,2.5775914483980116,1.6570445073225744,-1.103277760677441
16.24129357,2.645448295068122,1.6560508823906408,-1.104081739519555
16.24607013,2.716524293747756,1.647360041460392,-1.0963841071311005
16.25083336,2.7907735550138666,1.6307422443561301,-1.0805378000681989
16.2556232,2.8680634208916533,1.6060096289211179,-1.0569487197010747
16.26039977,2.948175272437797,1.5730150736749704,-1.026072652442227
16.26516299,3.0308063698485443,1.5316508250312184,-0.9884116926000978
16.26995284,3.1155726995900253,1.4818469347351273,-0.9445101900757994
16.2747294,3.2020127911320473,1.4235695517115168,-0.8949502565081479
16.27949263,3.289592454465402,1.356819110631887,-0.8403468740244905
16.28428247,3.3777103788650713,1.2816284575138357,-0.7813426596136943
16.28905904,3.465704523486417,1.1980609507867293,-0.7186023448034481
16.29382226,3.55285922152328,1.1062085746180874,-0.6528070346839457
16.29861211,3.6384129119754136,1.0061900998957034,-0.584648312550392
16.30338867,3.7215664066721645,0.8981493269962478,-0.5148222568630055
16.3081519,3.8014915951145776,0.782253443154158,-0.4440234362064798
16.31294174,3.877340485901537,0.6586915256314758,-0.37293894580461384
16.31771831,3.94825448093241,0.5276732197306256,-0.30224254619095653
16.32248154,4.013373777165421,0.3894276178015076,-0.2325889610795501
16.32727138,4.071846790426577,0.24420236169385,-0.16460838750461504
16.33204789,4.122839496625138,0.09226298661986823,-0.09890126704886187
16.33681112,4.165544587815377,-0.06610748078438293,-0.03603336254893771
16.34160102,4.199190343981649,-0.23060866313290856,0.023468819914097674
16.34637758,4.223049126340456,-0.4009227107147705,0.07912222865553374
16.35114075,4.236445404370103,-0.5767139229178906,0.13049105341130643
16.3559306,4.238763236548869,-0.7576281240731679,0.17719007636841613
16.36070716,4.2294531336217505,-0.9432918110666614,0.21888756663079376
16.36548372,4.208038242788552,-1.1333110955805248,0.2553077022095753
16.37026028,4.174119801200537,-1.3272704687900247,0.28623250808475925
16.3750368,4.127381817312658,-1.524731420685676,0.31150330312475505
16.37981336,4.067594948758313,-1.7252309498960687,0.3310216527088236
16.38458987,3.9946195553132764,-1.9282800030027347,0.3447498278654475
16.38936643,3.90840791502001,-2.133361884933872,0.3527107757079493
16.39412966,3.809005600487637,-2.339930684177013,0.3549876099224294
16.3989195,3.696552020624292,-2.547409758339079,0.35172263391629094
16.40369607,3.5712801404811265,-2.7551903270717895,0.3431159127536692
16.4084593,3.433515398390582,-2.962630220613462,0.3294234129809576
16.41324914,3.283673845075522,-3.1690528331822567,0.31095473176196237
16.4180257,3.1222595338296024,-3.3737463311549427,0.28807043839471685
16.42278893,2.949861194230147,-3.5759631662985423,0.26117905237956024
16.42757878,2.767148224230461,-3.774919944177237,0.23073368295036623
16.43235534,2.5748660370238805,-3.969797697114041,0.1972283556268559
16.43711857,2.3738307999407184,-4.159742609637551,0.16119405215869756
16.44190841,2.1649236030824373,-4.343867242086721,0.12319449136559933
16.44668497,1.9490840958280462,-4.521252294865599,0.08382167975479919
16.4514482,1.7273036303122316,-4.690948951602862,0.04369126211428975
16.45623805,1.500617953001686,-4.851981834060112,0.0034377031615107395
16.46101461,1.2700994889238644,-5.003352594996581,-0.036290668511097045
16.46577784,1.0368492679806145,-5.144044167389529,-0.07483672364624613
16.47056768,0.8019885488733913,-5.273025679593017,-0.11153967370596013
16.47534424,0.5666502030390392,-5.389258036428718,-0.14574026384071603
16.48012075,0.33196992811189874,-5.491700156079351,-0.17678599399603676
16.48489732,0.09907736727154094,-5.57931584217543,-0.20403634841002974
16.48967388,-0.13091278299315182,-5.651081259721121,-0.2268680175645413
16.49443711,-0.35690958889951424,-5.705992972528874,-0.24468009983125338
16.49922695,-0.5778545270873049,-5.743076488664523,-0.2568992718162501
16.50400346,-0.7927298687945173,-5.761395249143018,-0.26298491625769
16.50876674,-1.0005667034485135,-5.760059983920105,-0.2624341942100072
16.51355659,-1.2004525045272594,-5.738238348311276,-0.2547870444275332
16.5183331,-1.3915381424002118,-5.695164742637793,-0.23963108779811323
16.52309633,-1.5730442526542645,-5.630150208574807,-0.21660640891939376
16.52788622,-1.7442668738834541,-5.542592287856848,-0.18541018099638637
16.53266273,-1.904582275804271,-5.431984723134848,-0.14580109458167828
16.53742596,-2.05345090684738,-5.297926877180243,-0.09760354549328264
16.54221586,-2.190420400372643,-5.140132745428109,-0.040711532604434365
16.54699237,-2.315127590761613,-4.958439438037401,0.024907787756094656
16.5517556,-2.4272995051072424,-4.752815011116423,0.09921094691183976
16.55654544,-2.5267533129703037,-4.52336553233305,0.18207546565477092
16.561322,-2.613395235268644,-4.270341273565947,0.2732976686346064
16.56608523,-2.6872184330515694,-3.9941419322822638,0.37259106321411006
16.57087508,-2.748299916693668,-3.6953207936098775,0.47958532845327284
16.57565164,-2.7967965348209405,-3.3745877561351456,0.5938259522347245
16.58041487,-2.832940119078484,-3.0328111557006387,0.714774546453541
16.58520471,-2.8570318750772556,-2.6710183323644068,0.841809862568608
16.58998128,-2.869436121436936,-2.2903948959902394,0.9742295234002083
16.5947445,-2.870573488011383,-1.8922826558019226,1.1112524823355636
16.59953435,-2.860913691379531,-1.4781761889284917,1.2520222179790494
16.60431091,-2.8409680105880413,-1.0497180326746303,1.395610669900276
16.60907414,-2.811281588944753,-0.6086924950253455,1.541022918136229
16.61386398,-2.772425688426513,-0.15701808778281093,1.687202604294618
16.61864055,-2.7249900220565464,0.30326140311814587,1.8330380849642967
16.62340378,-2.6695752864132225,0.7699871849168614,1.9773692988642972
16.62819362,-2.60678601104753,1.240897026358396,2.1189953183956898
16.63297018,-2.5372238336675115,1.7136380781900116,2.256682544802726
16.63773341,-2.4614812992965702,2.1857808839015638,2.389173494829441
16.64252325,-2.3801362684922007,2.654834505124738,2.515196116394806
16.64729982,-2.293747004847574,3.118262672042,2.6334735621172793
16.65206305,-2.202847996198943,3.573500854816117,2.742734342851344
16.65685289,-2.107946547744609,4.0179741375212155,2.8417227785695336
16.66162945,-2.009520168888328,4.44911576152516,2.929209660396559
16.66639268,-1.908014759336411,4.8643861911443365,3.0040030348986715
16.67118253,-1.8038435843328737,5.261292541257317,3.0649590196553347
16.67595909,-1.6973870145328203,5.637408195048911,3.1109925576808966
16.68072232,-1.588992993296436,5.990392430658887,3.1410880173993387
16.68551216,-1.4789781832140563,6.3180098685361745,3.154309544491978
16.69028872,-1.367629734355037,6.618149546896187,3.1498110718762717
16.69505195,-1.2552076089873685,6.888843430896139,3.126845894215163
16.6998418,-1.141947391296843,7.128284161963949,3.0847757136973786
16.70461836,-1.0280635058698044,7.334841857051429,3.0230790645052683
16.70938159,-0.9137527652558333,7.507079773270223,2.941359024629827
16.71417143,-0.7991981646465676,7.643768661212456,2.839350125748186
16.71894799,-0.6845728405151918,7.743899640078112,2.7169243749425314
16.72371122,-0.5700441099917877,7.806695439393295,2.5740963062350333
16.72850107,-0.45577750890439606,7.83161986550409,2.411026985298502
16.73327758,-0.34194074886752196,7.818385366068003,2.228026897276457
16.73804086,-0.2287075175332208,7.76695858232237,2.025557655363189
16.7428307,-0.11626105104454115,7.677563796859323,1.8042324765758877
16.74760727,-0.004797413729005412,7.550684203852057,1.5648153808913736
16.75237049,0.10547157298777439,7.387060949031052,1.3082190804929863
16.75716034,0.21431580275194004,7.18768990805746,1.0355015371563094
16.76193685,0.3214847995929819,6.953816194098608,0.7478611777052613
16.76670013,0.4267061099532894,6.6869264081461575,0.4466307699326058
16.77148997,0.5296841965576004,6.3887386686703715,0.13326997434434942
16.77626648,0.6300998510061063,6.0611904803036305,-0.1906433995172394
16.78102971,0.7276101340768835,5.706424524130786,-0.5234233896797726
16.78581961,0.8218488452615385,5.326772474597861,-0.8632870747969756
16.79059612,0.9124275161149722,4.9247369698376815,-1.208366893028727
16.7953594,0.9989369156247362,4.502971883193281,-1.5567240018938977
16.80014924,1.0809490499857302,4.064261063768626,-1.906362580033744
16.80492575,1.1580196338363833,3.611495732846032,-2.2552449577512124
16.80970232,1.2296910050922858,3.147650740896683,-2.6013074494310935
16.81447888,1.2954954509291987,2.6757599066072197,-2.9424767477022225
16.81925539,1.354958908142697,2.198890674773341,-3.2766867266873505
16.82401862,1.407604996950434,1.7201183439385956,-3.6018954901188946
16.82880852,1.4529593431933967,1.242500127067657,-3.9161024897061405
16.83358502,1.4905541397399393,0.7690493190484732,-4.217365530094202
16.83834825,1.5199328936789742,0.30270985309083115,-4.503817469130298
16.84313815,1.5406553016984255,-0.15366846618398075,-4.773682416009888
16.84791466,1.5523021920839684,-0.5973537622620557,-5.025291225417723
16.85267789,1.5544804683145452,-1.025754628333431,-5.2570960834144795
16.85746773,1.5468279865870382,-1.4364411239651211,-5.467683981116468
16.8622443,1.529018298125598,-1.8271639471220098,-5.6557888758814165
16.86700753,1.5007651872510552,-2.195871513392133,-5.8203023476791245
16.87179737,1.461826938491068,-2.540724691075244,-5.960282571809206
16.87657393,1.41201027138118,-2.8601089643272974,-6.074961449469891
16.88133716,1.3511738911436053,-3.152643829356562,-6.163749766080451
16.886127,1.279231617658917,-3.4171892743774,-6.226240284609472
16.89090357,1.1961550725261685,-3.6528492559983463,-6.262208727517161
16.8956668,1.1019759204171529,-3.858972162817054,-6.271612654137475
16.90045664,0.9967876718691422,-4.035148344836448,-6.254588295169926
16.9052332,0.8807470586676517,-4.181204873448779,-6.2114454556819485
16.90999643,0.7540749923609059,-4.297197769889775,-6.142660637780675
16.91478633,0.617057114606143,-4.383401994117256,-6.048868562840474
16.91956284,0.47004394680482897,-4.440299520680371,-5.930852292565625
16.92432607,0.31345064595862215,-4.468565845940873,-5.789532160534642
16.92911591,0.1477563733743574,-4.469055274818439,-5.625953732964408
16.93389247,-0.02649671769269693,-4.442785327275359,-5.441275020289241
16.9386557,-0.2087048704190751,-4.39092058705022,-5.236753160257998
16.94344555,-0.3982044853891281,-4.314756289833672,-5.013730788720139
16.94822211,-0.594274252776236,-4.215701917139964,-4.773622306003842
16.95298534,-0.796137656623358,-4.095265027020698,-4.517900234685551
16.95777518,-1.0029658544168318,-3.9550355145311933,-4.248081848748462
16.96255174,-1.2138809370679577,-3.796670454648764,-3.9657162351054107
16.96731497,-1.4279595754803138,-3.621879639716616,-3.6723719268782955
16.97210482,-1.6442370597499385,-3.4324118841491167,-3.3696252243600133
16.97688138,-1.8617117356080706,-3.230042132442945,-3.0590492949795656
16.98164461,-2.0793498399974295,-3.0165593732790077,-2.742204118721644
16.98643445,-2.296090733744994,-2.7937553330294285,-2.4206273212169984
16.99121102,-2.5108525242209567,-2.5634138965618503,-2.095825913877613
16.99597424,-2.722538064671971,-2.3273011822811993,-1.7692689395776857
17.00076409,-2.9300413096033777,-2.087156182529524,-1.4423810039596865
17.00554065,-3.1322539973478944,-1.8446818706350274,-1.1165366569623263
17.01030388,-3.3280726222969497,-1.601536673067813,-0.7930555770923291
17.01509372,-3.516405650863635,-1.3593262105004627,-0.4731985026739418
17.01987028,-3.6961809275580584,-1.1195952264089246,-0.15816385034149338
17.02463352,-3.86635321064542,-0.8838196471939676,0.15091503759620403
17.02942336,-4.025911770785099,-0.6533987531965445,0.45297206792198086
17.03419992,-4.173887981381995,-0.4296474822206734,0.7470100327319784
17.03896315,-4.309362826858931,-0.2137889303685022,1.032101735099969
17.04375299,-4.431474254712739,-0.006947152554958978,1.3073906261047776
17.04852956,-4.539424298196481,0.1898596076751666,1.5720909761895998
17.05329278,-4.632485897737884,0.3757251140810804,1.825487610191905
17.05808263,-4.710009350099424,0.5498606102876852,2.0669352437459243
17.06285919,-4.771428314561386,0.7115994249183162,2.29585746636842
17.06762242,-4.816265305151524,0.8604005774466361,2.511745421931912
17.07241226,-4.844136597583662,0.9958512703675596,2.7141562399738888
17.07718883,-4.85475647982917,1.117668174436861,2.9027112715264796
17.08195206,-4.847940776981862,1.225697437345069,3.0770941812586723
17.0867419,-4.823609585019949,1.3199133712394566,3.2370489441346426
17.09151846,-4.781789154576699,1.400415800067287,3.382377789923265
17.09628169,-4.722612874769554,1.4674260730042323,3.51293913313961
17.10107154,-4.6463213179891,1.5212817746884726,3.6286455197425003
17.1058481,-4.553261318654251,1.5624301862572785,3.7294616155316755
17.11061133,-4.443884071666394,1.591420573074087,3.8154022550347424
17.11540117,-4.318742249107027,1.608895395376769,3.8865305640233836
17.12017773,-4.178486146241333,1.6155805566785852,3.9429561638161004
17.12494096,-4.023858879962398,1.612274821361571,3.984833461260306
17.12973081,-3.855690674507661,1.5998385472229322,4.012360024686512
17.13450737,-3.674892280771337,1.5791818904655917,4.025775043078545
17.1392706,-3.4824475869436107,1.5512526494969514,4.0253578630906235
17.14406044,-3.279405489518627,1.5170239197219304,4.0114265962807645
17.148837,-3.066871104790414,1.4774817341801345,3.98433678697255
17.15360023,-2.845996411563474,1.4336128643342543,3.9444801294759357
17.15839008,-2.617970425629314,1.3863929515490137,3.8922832219405086
17.16316664,-2.3840090152342635,1.336775132830528,3.828206342760469
17.16792987,-2.145344473909088,1.2856793143165064,3.7527422340289465
17.17271971,-1.903214972290121,1.2339822329643033,3.666414874910866
17.17749628,-1.6588540136148455,1.1825084310484142,3.5697782259299062
17.1822595,-1.4134800181920262,1.1320222496984178,3.463414923134396
17.18704935,-1.168286160292514,1.083220927227409,3.3479348991465363
17.19182591,-0.9244305767963545,1.036728866120451,3.2239739065735695
17.19658914,-0.6830270609381643,0.993093110117742,3.0921919186109035
17.20137898,-0.44513634697989235,0.9527800506253093,2.9532713822881758
17.20615555,-0.21175808285603143,0.9161733603135177,2.807915301909023
17.21091878,0.016176422094415614,0.8835731316249235,2.6568451337887757
17.21570862,0.23781059822978595,0.8551961792924332,2.5007984781850277
17.22048518,0.4523681015771327,0.8311774490959187,2.3405265600077687
17.22524841,0.6591573338192621,0.8115724601613014,2.1767914960892596
17.23003825,0.8575749593444989,0.7963606952933662,2.010363353086636
17.23481482,1.047108396781182,0.7854498432289223,1.842017006145824
