"Time (s)","Gyroscope x (rad/s)","Gyroscope y (rad/s)","Gyroscope z (rad/s)"
1.548308800E-2,1.495091617E-1,-6.398808211E-2,-2.115882933E-1
2.033340100E-2,1.098029464E-1,-1.695149764E-2,-2.121991515E-1
2.518371300E-2,7.803797722E-2,5.574141070E-2,-2.158643454E-1
3.003402600E-2,6.520981342E-2,1.650862098E-1,-2.250273079E-1
3.488433800E-2,7.620538026E-2,3.019199073E-1,-2.390772104E-1
3.973465100E-2,1.000291109E-1,4.283689260E-1,-2.494619042E-1
4.458496300E-2,1.177441850E-1,5.041161776E-1,-2.506836355E-1
4.943527600E-2,1.232419685E-1,5.193877816E-1,-2.433532625E-1
5.428558800E-2,1.110246703E-1,4.864010811E-1,-2.244164497E-1
5.913579700E-2,8.414662629E-2,4.161516428E-1,-1.993709952E-1
6.398610900E-2,4.688387364E-2,3.312414289E-1,-1.767689884E-1
6.883642200E-2,4.734201822E-3,2.438877672E-1,-1.651625633E-1
7.368673400E-2,-3.924806044E-2,1.699731201E-1,-1.682168841E-1
7.853704700E-2,-7.834340632E-2,1.137735620E-1,-1.840993762E-1
8.338735900E-2,-1.119409725E-1,7.345648855E-2,-2.091448307E-1
8.823767200E-2,-1.437059343E-1,4.718930274E-2,-2.360228747E-1
9.308798400E-2,-1.748600453E-1,3.191768378E-2,-2.574031353E-1
9.793829700E-2,-2.102901936E-1,2.397644334E-2,-2.683987021E-1
1.027886090E-1,-2.530507445E-1,1.908952370E-2,-2.629009187E-1
1.076389220E-1,-3.049742281E-1,1.420260593E-2,-2.409097999E-1
1.124892340E-1,-3.617846668E-1,1.298087649E-2,-2.067013681E-1
1.173395470E-1,-4.216494262E-1,1.847865991E-2,-1.657734364E-1
1.221898590E-1,-4.772381186E-1,3.802633286E-2,-1.230128929E-1
1.270401720E-1,-5.187768936E-1,8.078686893E-2,-8.391755074E-2
1.318904840E-1,-5.487092733E-1,1.339320987E-1,-5.581776798E-2
1.367407970E-1,-5.615374446E-1,1.980729103E-1,-4.237874225E-2
1.415911090E-1,-5.597048402E-1,2.683223486E-1,-3.932442144E-2
1.464414220E-1,-5.487092733E-1,3.342957497E-1,-4.176788032E-2
1.512917340E-1,-5.371028781E-1,3.825540543E-1,-4.970912263E-2
1.561420470E-1,-5.254964232E-1,4.088212550E-1,-5.765036494E-2
1.609923590E-1,-5.138899684E-1,4.112647176E-1,-6.681333482E-2
1.658426720E-1,-5.035052896E-1,3.935496211E-1,-7.231111825E-2
1.706929840E-1,-4.937314689E-1,3.648389876E-1,-7.536543906E-2
1.755432970E-1,-4.802924395E-1,3.306305707E-1,-7.719803602E-2
1.803936090E-1,-4.662425518E-1,2.939786613E-1,-7.658717036E-2
1.852439220E-1,-4.473057389E-1,2.579376400E-1,-7.536543906E-2
1.900942340E-1,-4.253146052E-1,2.243400961E-1,-7.292198390E-2
1.949445470E-1,-4.008800089E-1,1.937968582E-1,-7.108938694E-2
1.997948590E-1,-3.733910918E-1,1.644753367E-1,-7.231111825E-2
2.046451720E-1,-3.397935331E-1,1.339320987E-1,-7.597630471E-2
2.094954840E-1,-3.074176908E-1,9.789107740E-2,-8.269581944E-2
2.143457970E-1,-2.756527364E-1,5.757400393E-2,-9.124792367E-2
2.191961090E-1,-2.475529462E-1,1.237001177E-2,-1.004109010E-1
2.240464220E-1,-2.249509543E-1,-3.100138716E-2,-1.126281917E-1
2.288967340E-1,-2.054032832E-1,-6.215549260E-2,-1.291215420E-1
2.337470470E-1,-1.895207912E-1,-7.254019380E-2,-1.474474818E-1
2.385973590E-1,-1.797469556E-1,-6.093376130E-2,-1.633299738E-1
2.434476720E-1,-1.748600453E-1,-3.894263133E-2,-1.737146676E-1
2.482037650E-1,-1.748600453E-1,-1.572976820E-2,-1.792124510E-1
2.529589740E-1,-1.834121495E-1,2.596175298E-3,-1.767689884E-1
2.577141820E-1,-1.907425225E-1,1.114828233E-2,-1.694386154E-1
2.624693900E-1,-1.937968582E-1,1.175914705E-2,-1.572213173E-1
2.672245990E-1,-1.913533956E-1,6.872228812E-3,-1.443931609E-1
2.719798070E-1,-1.821904182E-1,-4.581485991E-4,-1.315650046E-1
2.767350150E-1,-1.675296724E-1,-8.399390616E-3,-1.236237586E-1
2.814902240E-1,-1.485928595E-1,-1.817322709E-2,-1.211803034E-1
2.862454320E-1,-1.259908676E-1,-2.916879393E-2,-1.266780794E-1
2.910006400E-1,-1.039997265E-1,-4.444041103E-2,-1.388953775E-1
2.957558490E-1,-7.712167501E-2,-5.787943676E-2,-1.529452652E-1
3.005110570E-1,-4.780016840E-2,-7.070759684E-2,-1.682168841E-1
3.052662650E-1,-2.031125315E-2,-8.231402934E-2,-1.798233241E-1
3.100214740E-1,7.788525894E-3,-8.659008145E-2,-1.859319657E-1
3.147766820E-1,2.916879393E-2,-8.475748450E-2,-1.859319657E-1
3.195318900E-1,4.688387364E-2,-7.620538026E-2,-1.822667718E-1
3.242870990E-1,5.910116807E-2,-6.276635826E-2,-1.786015928E-1
3.290423070E-1,6.643154472E-2,-4.444041103E-2,-1.792124510E-1
3.337975150E-1,7.192932814E-2,-2.244928107E-2,-1.810450554E-1
3.385527240E-1,7.620538026E-2,-1.069013379E-3,-1.822667718E-1
3.433079320E-1,8.353576064E-2,1.603520103E-2,-1.828776449E-1
3.480631400E-1,9.208786488E-2,2.886336111E-2,-1.847102344E-1
3.528183490E-1,1.049160287E-1,3.619373962E-2,-1.853211075E-1
3.575735570E-1,1.244636998E-1,3.924806044E-2,-1.853211075E-1
3.623287650E-1,1.507308781E-1,3.741546720E-2,-1.847102344E-1
3.670839740E-1,1.873827726E-1,3.130681813E-2,-1.859319657E-1
3.718391820E-1,2.246455252E-1,7.483093534E-3,-1.810450554E-1
3.765943900E-1,2.588539422E-1,-3.955349326E-2,-1.743255407E-1
3.813495990E-1,2.869537175E-1,-1.061377525E-1,-1.688277572E-1
3.861048590E-1,3.077231348E-1,-1.873827726E-1,-1.608865112E-1
3.908600150E-1,3.205513060E-1,-2.722929716E-1,-1.529452652E-1
3.956152240E-1,3.297142684E-1,-3.462076187E-1,-1.474474818E-1
4.003704840E-1,3.352120519E-1,-4.011854529E-1,-1.456148922E-1
4.051256920E-1,3.400989771E-1,-4.372264743E-1,-1.505018175E-1
4.098809010E-1,3.388772309E-1,-4.592176080E-1,-1.590539217E-1
4.146361090E-1,3.315468729E-1,-4.738783538E-1,-1.712712198E-1
4.193913170E-1,3.217730224E-1,-4.830413163E-1,-1.853211075E-1
4.241465260E-1,3.126100600E-1,-4.891499579E-1,-1.969275326E-1
4.289017340E-1,3.065013885E-1,-4.934260249E-1,-2.024253160E-1
4.336569420E-1,3.071122766E-1,-5.013672709E-1,-1.987601221E-1
4.384121510E-1,3.138317764E-1,-5.154171586E-1,-1.908188909E-1
4.431673590E-1,3.236056268E-1,-5.386300087E-1,-1.804341823E-1
4.479225670E-1,3.376555145E-1,-5.679515004E-1,-1.749363989E-1
4.526777760E-1,3.535379767E-1,-5.972730517E-1,-1.749363989E-1
4.574329840E-1,3.681987524E-1,-6.180424690E-1,-1.822667718E-1
4.621881920E-1,3.853029609E-1,-6.210967898E-1,-1.950949430E-1
4.669434010E-1,3.993528485E-1,-6.039925218E-1,-2.079230994E-1
4.716986610E-1,4.066832364E-1,-5.716167092E-1,-2.189186662E-1
4.764538700E-1,4.048506320E-1,-5.276344419E-1,-2.274707705E-1
4.812090780E-1,3.859138191E-1,-4.781544209E-1,-2.274707705E-1
4.859642860E-1,3.565923274E-1,-4.189005196E-1,-2.189186662E-1
4.907194950E-1,3.174969554E-1,-3.510945439E-1,-2.048687786E-1
4.954747030E-1,2.704603672E-1,-2.765690386E-1,-1.877645552E-1
5.002299110E-1,2.179260105E-1,-1.959348768E-1,-1.767689884E-1
5.049851200E-1,1.611155868E-1,-1.128572673E-1,-1.706603467E-1
5.097403280E-1,1.049160287E-1,-2.916879393E-2,-1.718820781E-1
5.144955360E-1,4.688387364E-2,4.780016840E-2,-1.767689884E-1
5.192507450E-1,-9.315688163E-3,1.107192412E-1,-1.828776449E-1
5.240059530E-1,-6.673697382E-2,1.565341055E-1,-1.865428388E-1
5.287611610E-1,-1.217148080E-1,1.852447391E-1,-1.840993762E-1
5.335164220E-1,-1.754709035E-1,2.005163580E-1,-1.737146676E-1
5.382716300E-1,-2.249509543E-1,2.047924101E-1,-1.590539217E-1
5.430268380E-1,-2.677114904E-1,2.005163580E-1,-1.419496983E-1
5.477820470E-1,-3.019199073E-1,1.962403059E-1,-1.248454899E-1
5.525372550E-1,-3.251327872E-1,1.944077164E-1,-1.101847365E-1
5.572924630E-1,-3.342957497E-1,1.937968582E-1,-9.980003536E-2
5.620476720E-1,-3.330740333E-1,1.956294477E-1,-9.124792367E-2
5.668028800E-1,-3.202458620E-1,1.950185746E-1,-8.269581944E-2
5.715580880E-1,-2.994764447E-1,1.925751269E-1,-7.780890167E-2
5.763132970E-1,-2.695440948E-1,1.876882017E-1,-7.475458086E-2
5.810685570E-1,-2.365573794E-1,1.754709035E-1,-7.047852129E-2
5.858237650E-1,-2.017380893E-1,1.540906429E-1,-6.498073786E-2
5.905789740E-1,-1.705839932E-1,1.302669197E-1,-5.276344717E-2
5.953341820E-1,-1.437059343E-1,1.082757786E-1,-3.688096255E-2
6.000893900E-1,-1.259908676E-1,8.933897316E-2,-1.611155830E-2
6.048445990E-1,-1.180496216E-1,8.078686893E-2,9.544761851E-3
6.095998070E-1,-1.217148080E-1,7.528908551E-2,3.092502989E-2
6.143550150E-1,-1.308777779E-1,6.429351866E-2,4.375318810E-2
6.191102240E-1,-1.498145908E-1,5.879573524E-2,5.230529606E-2
6.238654840E-1,-1.754709035E-1,6.856957078E-2,6.207913160E-2
6.286206920E-1,-2.047924101E-1,8.994983882E-2,7.002037764E-2
6.333759010E-1,-2.371682525E-1,1.174387559E-1,7.063124329E-2
6.381311090E-1,-2.744309902E-1,1.516471803E-1,6.879864633E-2
6.428863170E-1,-3.147480786E-1,1.950185746E-1,6.635518372E-2
6.476415260E-1,-3.587303460E-1,2.408334464E-1,6.268999726E-2
6.523967340E-1,-4.008800089E-1,2.823722363E-1,4.925097153E-2
6.571519420E-1,-4.424188137E-1,3.245218992E-1,3.031416424E-2
6.619071510E-1,-4.766272306E-1,3.746128380E-1,1.259908639E-2
6.666624110E-1,-5.028944016E-1,4.369210303E-1,-5.115992390E-3
6.714176200E-1,-5.175551772E-1,5.096139312E-1,-2.222020552E-2
6.761728280E-1,-5.273290277E-1,5.933024287E-1,-2.893971838E-2
6.809280360E-1,-5.352702737E-1,6.501128674E-1,-2.466366626E-2
6.856832450E-1,-5.413789153E-1,6.568323374E-1,-1.611155830E-2
6.904384530E-1,-5.474875569E-1,6.354520917E-1,-7.559451740E-3
6.951936610E-1,-5.499309897E-1,5.969675779E-1,8.323032409E-3
6.999488700E-1,-5.401571989E-1,5.707004070E-1,3.275762498E-2
7.047041300E-1,-5.236638188E-1,5.878046155E-1,6.024653837E-2
7.094593380E-1,-4.980075061E-1,6.501128674E-1,8.895718306E-2
7.142145470E-1,-4.692968726E-1,7.356339097E-1,1.127809063E-1
7.189697550E-1,-4.454731345E-1,8.235984445E-1,1.262199283E-1
7.237249630E-1,-4.326449931E-1,8.969022036E-1,1.243873388E-1
7.284801720E-1,-4.308123887E-1,9.402735829E-1,1.103374511E-1
7.332353800E-1,-4.350884259E-1,9.482148290E-1,8.345939964E-2
7.379906400E-1,-4.381427765E-1,9.256128669E-1,4.925097153E-2
7.427458490E-1,-4.393644929E-1,8.767436743E-1,7.712167688E-3
7.475010570E-1,-4.320341051E-1,8.113811612E-1,-3.810269013E-2
7.522562650E-1,-4.173733592E-1,7.515164018E-1,-7.841976732E-2
7.570114740E-1,-3.941605091E-1,7.008146048E-1,-1.144607887E-1
7.617666820E-1,-3.642281294E-1,6.574432254E-1,-1.474474818E-1
7.665218900E-1,-3.294088244E-1,6.165152788E-1,-1.810450554E-1
7.712771510E-1,-2.890917659E-1,5.749764442E-1,-2.170860767E-1
7.760323590E-1,-2.493855506E-1,5.340485573E-1,-2.543488145E-1
7.807875670E-1,-2.078467458E-1,4.912880063E-1,-2.952767611E-1
7.855427760E-1,-1.699731201E-1,4.344775677E-1,-3.410916328E-1
7.902979840E-1,-1.357647032E-1,3.654498458E-1,-3.924042583E-1
7.950531920E-1,-1.064431891E-1,2.909243405E-1,-4.424951673E-1
7.998084010E-1,-8.078686893E-2,2.188423127E-1,-4.919752181E-1
8.045636610E-1,-5.940660089E-2,1.528689116E-1,-5.371792316E-1
8.093188700E-1,-4.046979174E-2,1.015562713E-1,-5.768854022E-1
8.140740780E-1,-2.458730713E-2,6.734783947E-2,-6.092612743E-1
8.188292860E-1,-9.315688163E-3,4.780016840E-2,-6.343067288E-1
8.235844950E-1,-1.527161949E-4,3.558287397E-2,-6.508000493E-1
8.283397030E-1,2.901607659E-3,2.458730713E-2,-6.550761461E-1
8.330949110E-1,-2.596175298E-3,1.359174121E-2,-6.489674449E-1
8.378501720E-1,-2.153298259E-2,-1.679878100E-3,-6.281980872E-1
8.426053800E-1,-5.390881747E-2,-2.428187430E-2,-5.964331031E-1
8.473605880E-1,-9.666935354E-2,-4.627300799E-2,-5.524508357E-1
8.521157970E-1,-1.479819864E-1,-7.070759684E-2,-4.980838597E-1
8.568710050E-1,-2.041815519E-1,-9.453132749E-2,-4.357756674E-1
8.616262650E-1,-2.597702444E-1,-1.153007299E-1,-3.667479455E-1
8.663814740E-1,-3.123046160E-1,-1.293506175E-1,-2.952767611E-1
8.711366820E-1,-3.550651670E-1,-1.262962967E-1,-2.231947184E-1
8.758918900E-1,-3.837758005E-1,-1.036942974E-1,-1.547778696E-1
8.806470990E-1,-3.947713673E-1,-5.971203372E-2,-9.185878932E-2
8.854023070E-1,-3.917170465E-1,3.817904973E-3,-3.810269013E-2
8.901575670E-1,-3.727802336E-1,7.956513762E-2,4.657844082E-3
8.949127760E-1,-3.440696001E-1,1.565341055E-1,3.703367710E-2
8.996679840E-1,-3.098611534E-1,2.237292230E-1,5.597048625E-2
9.044231920E-1,-2.732092738E-1,2.787070572E-1,6.818778068E-2
9.091784010E-1,-2.365573794E-1,3.245218992E-1,7.673988491E-2
9.139336090E-1,-2.023489624E-1,3.599520624E-1,7.796161622E-2
9.186888700E-1,-1.693622619E-1,3.874409795E-1,7.490729541E-2
9.234440780E-1,-1.400407553E-1,4.106538594E-1,6.696604937E-2
9.281992860E-1,-1.113301069E-1,4.265363216E-1,5.352702737E-2
9.329544950E-1,-8.384118974E-2,4.332558513E-1,3.520108387E-2
9.377097030E-1,-5.635227636E-2,4.308123887E-1,1.198822167E-2
9.424649630E-1,-2.825249545E-2,4.234820008E-1,-1.366809942E-2
9.472201720E-1,4.123337101E-3,4.167625010E-1,-3.871355578E-2
9.519753800E-1,3.772090003E-2,4.143190384E-1,-5.765036494E-2
9.567305880E-1,7.376192510E-2,4.149298966E-1,-6.986765563E-2
9.614857970E-1,1.098029464E-1,4.149298966E-1,-7.597630471E-2
9.662410570E-1,1.415679157E-1,4.094321132E-1,-7.658717036E-2
9.709962650E-1,1.690568328E-1,3.947713673E-1,-7.414371520E-2
9.757514740E-1,1.892153621E-1,3.740019500E-1,-7.047852129E-2
9.805066820E-1,1.983783394E-1,3.501782417E-1,-6.559160352E-2
9.852618900E-1,1.953240186E-1,3.349066079E-1,-6.009382382E-2
9.900171510E-1,1.818849891E-1,3.287979662E-1,-5.520690605E-2
9.947723590E-1,1.519526094E-1,3.367392123E-1,-5.276344717E-2
9.995275670E-1,1.043051630E-1,3.550651670E-1,-5.520690605E-2
1.004282776E0,4.138609022E-2,3.794997334E-1,-5.642863363E-2
1.009037984E0,-3.191768378E-2,4.075995386E-1,-5.948295817E-2
1.013793245E0,-1.125518382E-1,4.393644929E-1,-6.436987966E-2
1.018548453E0,-1.931859851E-1,4.711294472E-1,-6.925679743E-2
1.023303661E0,-2.701549530E-1,5.016726851E-1,-7.536543906E-2
1.028058870E0,-3.397935331E-1,5.340485573E-1,-8.452841640E-2
1.032814078E0,-4.033234715E-1,5.639809370E-1,-9.430225194E-2
1.037569338E0,-4.534143806E-1,5.847502947E-1,-1.089630052E-1
1.042324547E0,-4.888445437E-1,5.878046155E-1,-1.266780794E-1
1.047079755E0,-5.083922148E-1,5.688678026E-1,-1.462257504E-1
1.051834963E0,-5.132791400E-1,5.371028781E-1,-1.633299738E-1
1.056590172E0,-5.041161776E-1,4.925097227E-1,-1.755472720E-1
1.061345432E0,-4.839576185E-1,4.399753511E-1,-1.828776449E-1
1.066100640E0,-4.576904476E-1,3.794997334E-1,-1.865428388E-1
1.070855849E0,-4.302015305E-1,3.184132576E-1,-1.840993762E-1
1.075611057E0,-4.063777924E-1,2.591593862E-1,-1.767689884E-1
1.080366265E0,-3.868301213E-1,1.992946416E-1,-1.633299738E-1
1.085121526E0,-3.721693754E-1,1.479819864E-1,-1.462257504E-1
1.089876734E0,-3.623955250E-1,1.119409725E-1,-1.254563481E-1
1.094631942E0,-3.550651670E-1,8.933897316E-2,-1.010217592E-1
1.099387151E0,-3.501782417E-1,8.689551800E-2,-7.108938694E-2
1.104142359E0,-3.446804583E-1,1.003345400E-1,-3.627009690E-2
1.108897620E0,-3.434587121E-1,1.241582632E-1,2.214384731E-3
1.113652828E0,-3.452913165E-1,1.510363221E-1,4.253146052E-2
1.118408036E0,-3.520108163E-1,1.766926348E-1,8.651372790E-2
1.123163297E0,-3.599520624E-1,1.999054998E-1,1.335503161E-1
1.127918505E0,-3.678933084E-1,2.231183648E-1,1.836412251E-1
1.132673713E0,-3.740019500E-1,2.396117151E-1,2.233474404E-1
1.137428922E0,-3.733910918E-1,2.457203567E-1,2.508363426E-1
1.142184130E0,-3.666715920E-1,2.383899838E-1,2.661079764E-1
1.146939390E0,-3.483456373E-1,2.218966335E-1,2.703840137E-1
1.151694599E0,-3.190241456E-1,1.962403059E-1,2.654971182E-1
1.156449807E0,-2.799287736E-1,1.638644785E-1,2.557232678E-1
1.161205015E0,-2.347247899E-1,1.308777779E-1,2.428951114E-1
1.165960276E0,-1.828012913E-1,9.544762224E-2,2.282343507E-1
1.170715484E0,-1.308777779E-1,5.757400393E-2,2.129627317E-1
1.175470692E0,-8.139773458E-2,2.214384824E-2,2.001345754E-1
1.180225901E0,-4.169152305E-2,-4.123337101E-3,1.885281354E-1
1.184981109E0,-1.175914705E-2,-2.122755162E-2,1.781434417E-1
1.189736370E0,7.788525894E-3,-3.711003438E-2,1.720348001E-1
1.194491578E0,1.817322709E-2,-4.993819445E-2,1.689804643E-1
1.199246786E0,1.817322709E-2,-5.726857483E-2,1.695913374E-1
1.204001995E0,4.734201822E-3,-5.482511222E-2,1.726456583E-1
1.208757255E0,-2.214384824E-2,-4.810560122E-2,1.756999791E-1
1.213512463E0,-6.001746282E-2,-3.894263133E-2,1.732565165E-1
1.218267672E0,-1.119409725E-1,-3.344484791E-2,1.689804643E-1
1.223022880E0,-1.699731201E-1,-3.222311661E-2,1.604283601E-1
1.227778140E0,-2.328922004E-1,-3.772090003E-2,1.476002038E-1
1.232533349E0,-2.988655865E-1,-5.726857483E-2,1.335503161E-1
1.237288557E0,-3.642281294E-1,-9.330959618E-2,1.170569658E-1
1.242043765E0,-4.265363216E-1,-1.452330947E-1,9.934188426E-2
1.246799026E0,-4.882336855E-1,-2.105956376E-1,8.040507883E-2
1.251554234E0,-5.432115197E-1,-2.814559340E-1,6.207913160E-2
1.256309442E0,-5.871937871E-1,-3.553705812E-1,4.741837829E-2
1.261064651E0,-6.128500700E-1,-4.317286909E-1,3.642281145E-2
1.265819911E0,-6.201804876E-1,-5.007563829E-1,2.848157100E-2
1.270575120E0,-6.110175252E-1,-5.532907844E-1,2.542724647E-2
1.275330328E0,-5.761982203E-1,-5.807796717E-1,2.481638081E-2
1.280085536E0,-5.212203860E-1,-5.789470673E-1,2.542724647E-2
1.284840797E0,-4.503600597E-1,-5.526798964E-1,2.664897591E-2
1.289596005E0,-3.703367710E-1,-5.093085170E-1,2.420551702E-2
1.294351213E0,-2.860374451E-1,-4.543306828E-1,1.992946304E-2
1.299106422E0,-2.017380893E-1,-3.914116025E-1,1.259908639E-2
1.303861682E0,-1.180496216E-1,-3.297142684E-1,5.268708803E-3
1.308616890E0,-3.985892609E-2,-2.710712552E-1,-1.450803829E-3
1.313372099E0,3.405570984E-2,-2.179260105E-1,-8.170315996E-3
1.318127359E0,9.941824526E-2,-1.641699076E-1,-1.672242396E-2
1.322882567E0,1.550069451E-1,-1.061377525E-1,-2.466366626E-2
1.327637776E0,1.996000707E-1,-4.627300799E-2,-3.260490671E-2
1.332392984E0,2.344193608E-1,8.704823442E-3,-4.298960790E-2
1.337148245E0,2.576322258E-1,4.963276163E-2,-5.398517475E-2
1.341903453E0,2.710712552E-1,8.078686893E-2,-6.620246917E-2
1.346658661E0,2.777907550E-1,1.088866442E-1,-7.964149863E-2
1.351413870E0,2.771798968E-1,1.339320987E-1,-9.124792367E-2
1.356169130E0,2.680169344E-1,1.571449637E-1,-1.040760875E-1
1.360924338E0,2.533561587E-1,1.791360974E-1,-1.138499230E-1
1.365679547E0,2.319758981E-1,1.944077164E-1,-1.211803034E-1
1.370434755E0,2.038761228E-1,2.029598206E-1,-1.217911690E-1
1.375190015E0,1.684459597E-1,2.054032832E-1,-1.126281917E-1
1.379945224E0,1.305723488E-1,2.023489624E-1,-9.552398324E-2
1.384700432E0,8.964440972E-2,1.919642538E-1,-7.231111825E-2
1.389455640E0,5.054906011E-2,1.711948514E-1,-4.543306679E-2
1.394210901E0,1.328630932E-2,1.357647032E-1,-1.611155830E-2
1.398966109E0,-2.214384824E-2,8.506292105E-2,1.076649129E-2
1.403721317E0,-5.268708616E-2,2.336557768E-2,3.520108387E-2
1.408476578E0,-7.589995116E-2,-4.505127668E-2,5.780307949E-2
1.413231786E0,-9.300415963E-2,-1.134681329E-1,7.429642975E-2
1.417986995E0,-1.033888608E-1,-1.757763475E-1,8.407026529E-2
1.422742203E0,-1.052214578E-1,-2.331976295E-1,8.651372790E-2
1.427497463E0,-1.009454057E-1,-2.771798968E-1,8.529199660E-2
1.432252672E0,-9.239330143E-2,-3.144426346E-1,8.590286225E-2
1.437007880E0,-8.078686893E-2,-3.480401933E-1,9.017891437E-2
1.441763140E0,-6.612611562E-2,-3.828594983E-1,9.567669779E-2
1.446518349E0,-4.474584386E-2,-4.152353406E-1,1.017853469E-1
1.451273557E0,-1.359174121E-2,-4.445568323E-1,1.072831303E-1
1.456028765E0,2.489273995E-2,-4.714348912E-1,1.140026376E-1
1.460784026E0,7.070759684E-2,-4.970912039E-1,1.188895553E-1
1.465539234E0,1.183550507E-1,-5.233584046E-1,1.188895553E-1
1.470294442E0,1.611155868E-1,-5.465712547E-1,1.133917719E-1
1.475049703E0,1.971566081E-1,-5.630646348E-1,9.750928730E-2
1.479804911E0,2.234237939E-1,-5.642863512E-1,7.796161622E-2
1.484560120E0,2.411388755E-1,-5.422952175E-1,5.352702737E-2
1.489315328E0,2.460257858E-1,-4.964803457E-1,2.787070535E-2
1.494070588E0,2.399171442E-1,-4.274526238E-1,2.825249685E-3
1.498825797E0,2.222020626E-1,-3.400989771E-1,-1.733328775E-2
1.503581005E0,1.934914142E-1,-2.460257858E-1,-2.832885459E-2
1.508336265E0,1.531743407E-1,-1.586721241E-1,-3.077231348E-2
1.513091474E0,1.024725661E-1,-8.781181276E-2,-2.649625950E-2
1.517846682E0,4.627300799E-2,-3.344484791E-2,-1.488982886E-2
1.522601942E0,-6.261364091E-3,9.926552884E-3,-1.450803829E-3
1.527357151E0,-5.146535859E-2,5.024362728E-2,1.198822167E-2
1.532112359E0,-8.689551800E-2,9.117157012E-2,2.176205814E-2
1.536867567E0,-1.156061590E-1,1.351538301E-1,2.848157100E-2
1.541622828E0,-1.339320987E-1,1.803578287E-1,3.092502989E-2
1.546378036E0,-1.492037177E-1,2.194531709E-1,3.092502989E-2
1.551133245E0,-1.608101577E-1,2.530507445E-1,2.909243479E-2
1.555888505E0,-1.693622619E-1,2.817613780E-1,2.970330045E-2
1.560643713E0,-1.730274558E-1,3.037525117E-1,3.153589368E-2
1.565398922E0,-1.748600453E-1,3.220784664E-1,3.459021822E-2
1.570154182E0,-1.742491722E-1,3.330740333E-1,3.825540841E-2
1.574909390E0,-1.748600453E-1,3.373500705E-1,4.253146052E-2
1.579664599E0,-1.736383140E-1,3.330740333E-1,4.680751264E-2
1.584419859E0,-1.718057245E-1,3.171915412E-1,5.230529606E-2
1.589175067E0,-1.663079411E-1,2.909243405E-1,5.658135191E-2
1.593930276E0,-1.540906429E-1,2.548833191E-1,5.902481079E-2
1.598685484E0,-1.320995092E-1,2.133445293E-1,5.963567272E-2
1.603440745E0,-1.033888608E-1,1.718057245E-1,5.963567272E-2
1.608195953E0,-6.856957078E-2,1.320995092E-1,5.780307949E-2
1.612951161E0,-3.191768378E-2,8.994983882E-2,5.291616172E-2
1.617706422E0,2.901607659E-3,3.802633286E-2,3.947713599E-2
1.622461630E0,3.283398226E-2,-1.939495653E-2,2.176205814E-2
1.627216838E0,5.787943676E-2,-7.376192510E-2,1.603520010E-3
1.631972099E0,7.987056673E-2,-1.244636998E-1,-1.488982886E-2
1.636727307E0,9.880737960E-2,-1.690568328E-1,-2.649625950E-2
1.641482515E0,1.128572673E-1,-1.996000707E-1,-3.138317913E-2
1.646237776E0,1.214093715E-1,-2.191477418E-1,-3.321577236E-2
1.650992984E0,1.244636998E-1,-2.283107042E-1,-3.138317913E-2
1.655748192E0,1.244636998E-1,-2.283107042E-1,-2.710712515E-2
1.660503453E0,1.195767820E-1,-2.203694731E-1,-2.588539571E-2
1.665258661E0,1.146898642E-1,-2.038761228E-1,-2.405280061E-2
1.670013870E0,1.091920808E-1,-1.727220118E-1,-2.160934173E-2
1.674769078E0,1.036942974E-1,-1.299614757E-1,-1.855501719E-2
1.679524338E0,9.514218569E-2,-8.109229803E-2,-1.427896414E-2
1.684279547E0,7.987056673E-2,-3.283398226E-2,-1.305723470E-2
1.689034755E0,5.543597788E-2,1.114828233E-2,-1.733328775E-2
1.693790015E0,2.916879393E-2,5.390881747E-2,-2.160934173E-2
1.698545224E0,4.581485991E-4,9.483675659E-2,-2.649625950E-2
1.703300432E0,-2.703076601E-2,1.314886510E-1,-2.832885459E-2
1.708055692E0,-5.085449293E-2,1.595884264E-1,-2.771798894E-2
1.712810901E0,-6.979130208E-2,1.754709035E-1,-2.160934173E-2
1.717566109E0,-8.200860023E-2,1.773035079E-1,-1.244636998E-2
1.722321370E0,-8.933897316E-2,1.565341055E-1,-3.283398226E-3
1.727076578E0,-8.994983882E-2,1.278234571E-1,6.490438245E-3
1.731831786E0,-8.506292105E-2,9.056070447E-2,1.748600416E-2
1.736587047E0,-7.284562290E-2,4.902189970E-2,2.603811212E-2
1.741342255E0,-5.085449293E-2,6.872228812E-3,2.970330045E-2
1.746097463E0,-2.031125315E-2,-3.344484791E-2,2.725984156E-2
1.750852724E0,1.695149764E-2,-7.559451461E-2,1.565340906E-2
1.755607932E0,5.971203372E-2,-1.171333194E-1,-3.894262947E-3
1.760363140E0,1.024725661E-1,-1.519526094E-1,-2.283107117E-2
1.765118401E0,1.434005052E-1,-1.831067204E-1,-3.932442144E-2
1.769873609E0,1.800523996E-1,-2.069304436E-1,-5.031998456E-2
1.774628817E0,2.124282271E-1,-2.191477418E-1,-5.581776798E-2
1.779384078E0,2.356410921E-1,-2.295324355E-1,-5.703949928E-2
1.784139286E0,2.515235841E-1,-2.399171442E-1,-5.337430909E-2
1.788894495E0,2.582430840E-1,-2.472475171E-1,-4.787652567E-2
1.793649755E0,2.539670467E-1,-2.515235841E-1,-3.993528336E-2
1.798404963E0,2.405280024E-1,-2.490801066E-1,-3.016144782E-2
1.803160172E0,2.203694731E-1,-2.380845547E-1,-2.160934173E-2
1.807915432E0,1.928805560E-1,-2.185368687E-1,-1.366809942E-2
1.812670640E0,1.580612659E-1,-1.886045039E-1,-9.392046370E-3
1.817425849E0,1.177441850E-1,-1.525634825E-1,-6.948587019E-3
1.822181109E0,7.254019380E-2,-1.134681329E-1,-1.061377581E-2
1.826936317E0,2.916879393E-2,-7.131846249E-2,-1.611155830E-2
1.831691526E0,-1.175914705E-2,-2.916879393E-2,-2.405280061E-2
1.836446786E0,-4.902189970E-2,1.542433538E-2,-3.138317913E-2
1.841201995E0,-7.651081681E-2,6.490438432E-2,-3.688096255E-2
1.845957203E0,-9.422589093E-2,1.143844277E-1,-4.054614902E-2
1.850712463E0,-1.027780026E-1,1.608101577E-1,-4.665479809E-2
1.855467672E0,-1.046105921E-1,1.986837685E-1,-5.276344717E-2
1.860222880E0,-1.009454057E-1,2.225074917E-1,-5.826122686E-2
1.864978140E0,-9.972367436E-2,2.316704690E-1,-6.436987966E-2
1.869733349E0,-9.972367436E-2,2.273944169E-1,-6.925679743E-2
1.874488557E0,-1.039997265E-1,2.157879770E-1,-7.353284955E-2
1.879243817E0,-1.107192412E-1,2.017380893E-1,-7.658717036E-2
1.883999026E0,-1.204930767E-1,1.913533956E-1,-7.841976732E-2
1.888754286E0,-1.302669197E-1,1.828012913E-1,-7.780890167E-2
1.893509495E0,-1.375972927E-1,1.754709035E-1,-7.658717036E-2
1.898264703E0,-1.412624866E-1,1.705839932E-1,-7.536543906E-2
1.903019911E0,-1.369864196E-1,1.632536054E-1,-7.475458086E-2
1.907775172E0,-1.296560466E-1,1.528689116E-1,-7.597630471E-2
1.912530380E0,-1.137735620E-1,1.400407553E-1,-7.903063297E-2
1.917285640E0,-9.789107740E-2,1.186604798E-1,-8.452841640E-2
1.922040849E0,-7.956513762E-2,9.483675659E-2,-9.185878932E-2
1.926796057E0,-5.940660089E-2,6.856957078E-2,-9.980003536E-2
1.931551317E0,-3.558287397E-2,3.985892609E-2,-1.065195426E-1
1.936306526E0,-1.237001177E-2,8.093958721E-3,-1.101847365E-1
1.941061734E0,1.511890348E-2,-2.306014486E-2,-1.132390574E-1
1.945816995E0,4.505127668E-2,-4.932733253E-2,-1.156825200E-1
1.950572203E0,7.742711157E-2,-7.315105945E-2,-1.169042438E-1
1.955327411E0,1.122464016E-1,-8.720094711E-2,-1.181259751E-1
1.960082672E0,1.446222365E-1,-9.697478265E-2,-1.175151095E-1
1.964837880E0,1.782197952E-1,-1.036942974E-1,-1.138499230E-1
1.969593088E0,2.093739063E-1,-1.110246703E-1,-1.089630052E-1
1.974348349E0,2.356410921E-1,-1.214093715E-1,-1.022434905E-1
1.979103557E0,2.594648004E-1,-1.299614757E-1,-9.246965498E-2
1.983858765E0,2.808450758E-1,-1.391244531E-1,-8.452841640E-2
1.988614026E0,3.003927469E-1,-1.464548260E-1,-7.964149863E-2
1.993369234E0,3.150535226E-1,-1.531743407E-1,-7.780890167E-2
1.998124442E0,3.278816640E-1,-1.592829973E-1,-8.025235683E-2
2.002879703E0,3.382663727E-1,-1.690568328E-1,-8.513928205E-2
2.007634911E0,3.431532979E-1,-1.806632578E-1,-8.880446851E-2
2.012390172E0,3.419315517E-1,-1.916588247E-1,-8.941533417E-2
2.017145380E0,3.370446563E-1,-1.941022873E-1,-8.697187155E-2
2.021900588E0,3.260490894E-1,-1.898262352E-1,-8.208495378E-2
2.026655849E0,3.095557392E-1,-1.647807807E-1,-7.047852129E-2
2.031411057E0,2.826776803E-1,-1.372918636E-1,-5.826122686E-2
2.036166265E0,2.521344423E-1,-1.140789986E-1,-5.337430909E-2
2.040921526E0,2.130390853E-1,-8.536835015E-2,-5.337430909E-2
2.045676734E0,1.666133702E-1,-5.238165334E-2,-5.703949928E-2
2.050431995E0,1.159115955E-1,-7.177661173E-3,-5.765036494E-2
2.055187203E0,6.093376130E-2,5.268708616E-2,-5.215258151E-2
2.059942411E0,5.345067009E-3,1.082757786E-1,-4.298960790E-2
2.064697672E0,-4.963276163E-2,1.547015011E-1,-3.504836559E-2
2.069452880E0,-1.003345400E-1,1.876882017E-1,-2.955058403E-2
2.074208088E0,-1.449276656E-1,2.017380893E-1,-2.893971838E-2
2.078963349E0,-1.779143661E-1,2.029598206E-1,-3.138317913E-2
2.083718557E0,-1.944077164E-1,1.962403059E-1,-3.688096255E-2
2.088473765E0,-1.931859851E-1,1.889099330E-1,-4.421133921E-2
2.093229026E0,-1.748600453E-1,1.815795600E-1,-5.398517475E-2
2.097984234E0,-1.443168074E-1,1.705839932E-1,-6.559160352E-2
2.102739442E0,-1.058323234E-1,1.540906429E-1,-8.147408813E-2
2.107494703E0,-6.062832847E-2,1.308777779E-1,-9.674570709E-2
2.112249911E0,-1.603520103E-2,1.033888608E-1,-1.114064679E-1
2.117005172E0,2.428187430E-2,7.651081681E-2,-1.236237586E-1
2.121760380E0,5.971203372E-2,6.001746282E-2,-1.340084672E-1
2.126515588E0,9.330959618E-2,5.818486959E-2,-1.401171088E-1
2.131270849E0,1.220202371E-1,7.284562290E-2,-1.431714296E-1
2.136026057E0,1.464548260E-1,9.605848789E-2,-1.419496983E-1
2.140781265E0,1.672242284E-1,1.235474050E-1,-1.388953775E-1
2.145536526E0,1.818849891E-1,1.492037177E-1,-1.364519149E-1
2.150291734E0,1.873827726E-1,1.669187993E-1,-1.321758628E-1
2.155046995E0,1.855501831E-1,1.766926348E-1,-1.278998107E-1
2.159802203E0,1.733328849E-1,1.785252392E-1,-1.236237586E-1
2.164557411E0,1.556178033E-1,1.730274558E-1,-1.205694377E-1
2.169312672E0,1.324049383E-1,1.638644785E-1,-1.169042438E-1
2.174067880E0,1.098029464E-1,1.534797698E-1,-1.126281917E-1
2.178823088E0,8.720094711E-2,1.430950761E-1,-1.071304083E-1
2.183578349E0,6.765327603E-2,1.339320987E-1,-9.857830405E-2
2.188333557E0,5.177079141E-2,1.235474050E-1,-8.819360286E-2
2.193088817E0,4.016435891E-2,1.125518382E-1,-7.536543906E-2
2.197844026E0,3.222311661E-2,9.544762224E-2,-6.070468575E-2
2.202599234E0,2.794706449E-2,7.223475724E-2,-4.543306679E-2
2.207354495E0,2.916879393E-2,4.046979174E-2,-2.893971838E-2
2.212109703E0,3.527744114E-2,6.872228812E-3,-1.122464053E-2
2.216864911E0,4.627300799E-2,-3.039052337E-2,8.323032409E-3
2.221620172E0,6.215549260E-2,-7.498364896E-2,2.725984156E-2
2.226375380E0,8.170316368E-2,-1.287397593E-1,4.314232618E-2
2.231130588E0,1.061377525E-1,-1.861610413E-1,5.780307949E-2
2.235885849E0,1.324049383E-1,-2.405280024E-1,7.063124329E-2
2.240641057E0,1.617264450E-1,-2.893971801E-1,8.040507883E-2
2.245396317E0,1.892153621E-1,-3.327685893E-1,8.590286225E-2
2.250151526E0,2.136499584E-1,-3.694204688E-1,8.773545176E-2
2.254906734E0,2.338084877E-1,-3.950767815E-1,8.529199660E-2
2.259661995E0,2.478583902E-1,-4.042397738E-1,8.162680268E-2
2.264417203E0,2.539670467E-1,-3.981311321E-1,7.735075057E-2
2.269172463E0,2.490801066E-1,-3.798051775E-1,7.124210149E-2
2.273927672E0,2.338084877E-1,-3.510945439E-1,6.696604937E-2
2.278682880E0,2.099847645E-1,-3.156643808E-1,6.268999726E-2
2.283438140E0,1.769980639E-1,-2.771798968E-1,5.780307949E-2
2.288193349E0,1.379027218E-1,-2.386954129E-1,5.108356848E-2
2.292948557E0,9.514218569E-2,-1.996000707E-1,4.375318810E-2
2.297703817E0,4.749473557E-2,-1.543960720E-1,3.581194952E-2
2.302459026E0,-3.817904973E-3,-1.000291109E-1,2.909243479E-2
2.307214286E0,-5.757400393E-2,-4.077522457E-2,2.176205814E-2
2.311969495E0,-1.101083755E-1,1.847865991E-2,1.076649129E-2
2.316724703E0,-1.632536054E-1,7.406735420E-2,-3.283398226E-3
2.321479963E0,-2.145662606E-1,1.229365394E-1,-2.160934173E-2
2.326235172E0,-2.622137070E-1,1.650862098E-1,-4.298960790E-2
2.330990380E0,-3.043633699E-1,2.017380893E-1,-6.498073786E-2
2.335745640E0,-3.404043913E-1,2.322813272E-1,-8.758273721E-2
2.340500849E0,-3.703367710E-1,2.561050653E-1,-1.077412739E-1
2.345256109E0,-3.923279047E-1,2.725984156E-1,-1.266780794E-1
2.350011317E0,-4.075995386E-1,2.835939825E-1,-1.425605714E-1
2.354766526E0,-4.167625010E-1,2.823722363E-1,-1.578321904E-1
2.359521786E0,-4.185950756E-1,2.719875574E-1,-1.700494885E-1
2.364276995E0,-4.137081802E-1,2.530507445E-1,-1.786015928E-1
2.369032255E0,-4.027126133E-1,2.273944169E-1,-1.834885031E-1
2.373787463E0,-3.868301213E-1,1.962403059E-1,-1.840993762E-1
2.378542672E0,-3.642281294E-1,1.638644785E-1,-1.804341823E-1
2.383297932E0,-3.355174661E-1,1.290451884E-1,-1.749363989E-1
2.388053140E0,-3.055851161E-1,9.300415963E-2,-1.663842946E-1
2.392808349E0,-2.744309902E-1,5.879573524E-2,-1.602756530E-1
2.397563609E0,-2.432768941E-1,2.764163166E-2,-1.535561383E-1
2.402318817E0,-2.139553875E-1,1.985310577E-3,-1.492800862E-1
2.407074078E0,-1.864664704E-1,-2.000582218E-2,-1.437823027E-1
2.411829286E0,-1.608101577E-1,-4.627300799E-2,-1.340084672E-1
2.416584547E0,-1.382081509E-1,-8.414662629E-2,-1.242346242E-1
2.421339755E0,-1.241582632E-1,-1.324049383E-1,-1.144607887E-1
2.426094963E0,-1.137735620E-1,-1.739437431E-1,-1.028543562E-1
2.430850224E0,-1.046105921E-1,-2.020435184E-1,-8.697187155E-2
2.435605432E0,-9.300415963E-2,-2.148716897E-1,-6.864593178E-2
2.440360640E0,-7.528908551E-2,-2.167042792E-1,-5.031998456E-2
2.445115901E0,-5.635227636E-2,-2.209803313E-1,-3.382663801E-2
2.449871109E0,-3.436114267E-2,-2.307541668E-1,-2.466366626E-2
2.454626370E0,-1.359174121E-2,-2.460257858E-1,-2.160934173E-2
2.459381578E0,4.123337101E-3,-2.570213675E-1,-2.405280061E-2
2.464136786E0,1.756236330E-2,-2.594648004E-1,-2.955058403E-2
2.468892047E0,2.611446939E-2,-2.539670467E-1,-3.382663801E-2
2.473647255E0,2.916879393E-2,-2.405280024E-1,-3.382663801E-2
2.478402515E0,2.977965772E-2,-2.264781147E-1,-3.077231348E-2
2.483157724E0,2.672533318E-2,-2.142608166E-1,-2.588539571E-2
2.487912932E0,2.183841541E-2,-2.057087123E-1,-2.099847607E-2
2.492668192E0,1.695149764E-2,-2.032652497E-1,-1.183550525E-2
2.497423401E0,1.511890348E-2,-2.044869810E-1,-1.450803829E-3
2.502178661E0,1.878409274E-2,-2.118173689E-1,1.198822167E-2
2.506933870E0,2.489273995E-2,-2.209803313E-1,2.420551702E-2
2.511689078E0,3.772090003E-2,-2.276998460E-1,3.520108387E-2
2.516444338E0,5.054906011E-2,-2.350302190E-1,4.192059487E-2
2.521199547E0,6.704241037E-2,-2.393062711E-1,4.375318810E-2
2.525954755E0,8.536835015E-2,-2.405280024E-1,4.192059487E-2
2.530710015E0,1.018617004E-1,-2.393062711E-1,3.703367710E-2
2.535465224E0,1.177441850E-1,-2.350302190E-1,2.848157100E-2
2.540220484E0,1.305723488E-1,-2.270889878E-1,1.931859925E-2
2.544975692E0,1.385135949E-1,-2.142608166E-1,1.076649129E-2
2.549730901E0,1.434005052E-1,-2.008218020E-1,3.436114406E-3
2.554486161E0,1.446222365E-1,-1.873827726E-1,-2.061668551E-3
2.559241370E0,1.397353113E-1,-1.769980639E-1,-8.170315996E-3
2.563996630E0,1.299614757E-1,-1.690568328E-1,-1.488982886E-2
2.568751838E0,1.146898642E-1,-1.623373181E-1,-2.222020552E-2
2.573507099E0,9.575305134E-2,-1.531743407E-1,-3.077231348E-2
2.578262307E0,7.376192510E-2,-1.427896470E-1,-4.115701467E-2
2.583017515E0,5.177079141E-2,-1.299614757E-1,-5.154171586E-2
2.587772776E0,3.039052337E-2,-1.165224537E-1,-5.642863363E-2
2.592527984E0,1.450803876E-2,-1.006399691E-1,-5.581776798E-2
2.597283192E0,3.512472380E-3,-8.414662629E-2,-5.093085021E-2
2.602038453E0,-1.985310577E-3,-7.131846249E-2,-3.993528336E-2
2.606793661E0,-1.985310577E-3,-6.398808211E-2,-2.893971838E-2
2.611548922E0,-7.635809598E-4,-6.093376130E-2,-1.672242396E-2
2.616304130E0,1.679878100E-3,-6.154462695E-2,-7.559451740E-3
2.621059338E0,6.566796452E-3,-6.032289565E-2,-2.290742996E-4
2.625814599E0,1.206457894E-2,-5.360338464E-2,5.879573524E-3
2.630569807E0,1.878409274E-2,-4.688387364E-2,1.137735695E-2
2.635325067E0,2.367101051E-2,-4.199695215E-2,2.054032870E-2
2.640080276E0,2.733619884E-2,-4.016435891E-2,3.031416424E-2
2.644835536E0,2.672533318E-2,-4.444041103E-2,4.130972922E-2
2.649590745E0,2.367101051E-2,-5.177079141E-2,5.230529606E-2
2.654345953E0,1.511890348E-2,-5.971203372E-2,6.207913160E-2
2.659101213E0,1.679878100E-3,-6.582067907E-2,6.879864633E-2
2.663856422E0,-1.420260593E-2,-6.887500733E-2,7.368556410E-2
2.668611630E0,-3.313941509E-2,-6.826414168E-2,7.612902671E-2
2.673366890E0,-5.024362728E-2,-6.643154472E-2,7.673988491E-2
2.678122099E0,-6.612611562E-2,-6.765327603E-2,7.796161622E-2
2.682877359E0,-7.834340632E-2,-6.887500733E-2,7.918334752E-2
2.687632567E0,-8.872810751E-2,-7.376192510E-2,8.162680268E-2
2.692387776E0,-9.605848789E-2,-8.170316368E-2,8.407026529E-2
2.697143036E0,-1.021671370E-1,-8.842267841E-2,8.590286225E-2
2.701898245E0,-1.070540547E-1,-9.269873053E-2,8.590286225E-2
2.706653505E0,-1.088866442E-1,-9.330959618E-2,8.651372790E-2
2.711408713E0,-1.094975099E-1,-8.964440972E-2,8.345939964E-2
2.716163974E0,-1.082757786E-1,-8.231402934E-2,7.796161622E-2
2.720919182E0,-1.015562713E-1,-7.131846249E-2,7.368556410E-2
2.725674390E0,-9.117157012E-2,-5.971203372E-2,6.757691503E-2
2.730429651E0,-8.017600328E-2,-4.749473557E-2,5.902481079E-2
2.735184859E0,-6.795870513E-2,-3.649916872E-2,4.864010960E-2
2.739940120E0,-6.062832847E-2,-2.733619884E-2,3.581194952E-2
2.744695328E0,-5.329795182E-2,-1.695149764E-2,2.115119249E-2
2.749450536E0,-4.596757516E-2,-4.734201822E-3,6.490438245E-3
2.754205797E0,-4.108065739E-2,9.926552884E-3,-6.337722298E-3
2.758961005E0,-3.741546720E-2,2.458730713E-2,-1.794415340E-2
2.763716265E0,-4.046979174E-2,3.680460155E-2,-2.710712515E-2
2.768471474E0,-4.474584386E-2,4.780016840E-2,-3.504836559E-2
2.773226682E0,-5.451968312E-2,5.146535859E-2,-3.871355578E-2
2.777981942E0,-6.673697382E-2,4.902189970E-2,-4.054614902E-2
2.782737151E0,-7.895427197E-2,3.985892609E-2,-3.810269013E-2
2.787492359E0,-9.117157012E-2,2.580903657E-2,-3.016144782E-2
2.792247620E0,-1.003345400E-1,1.359174121E-2,-1.855501719E-2
2.797002828E0,-1.113301069E-1,1.374445739E-3,-5.115992390E-3
2.801758088E0,-1.192713454E-1,-7.788525894E-3,8.933897130E-3
2.806513297E0,-1.259908676E-1,-1.572976820E-2,2.115119249E-2
2.811268557E0,-1.308777779E-1,-2.000582218E-2,3.214675933E-2
2.816023765E0,-1.327103674E-1,-2.183841541E-2,4.008800164E-2
2.820778974E0,-1.302669197E-1,-1.878409274E-2,4.741837829E-2
2.825534234E0,-1.223256737E-1,-1.267544460E-2,5.413788930E-2
2.830289442E0,-1.107192412E-1,-1.679878100E-3,5.963567272E-2
2.835044703E0,-9.666935354E-2,9.315688163E-3,6.085740402E-2
2.839799911E0,-8.445205539E-2,2.214384824E-2,6.085740402E-2
2.844555120E0,-7.162389904E-2,3.130681813E-2,5.658135191E-2
2.849310380E0,-6.123919412E-2,3.680460155E-2,5.108356848E-2
2.854065588E0,-5.146535859E-2,3.863719851E-2,4.497491941E-2
2.858820849E0,-4.108065739E-2,3.985892609E-2,4.130972922E-2
2.863576057E0,-3.069595434E-2,3.497200832E-2,3.947713599E-2
2.868331317E0,-1.970038936E-2,2.397644334E-2,4.008800164E-2
2.873086526E0,-8.704823442E-3,5.039634649E-3,4.375318810E-2
2.877841734E0,4.581485991E-4,-2.000582218E-2,4.619665071E-2
2.882596995E0,9.621120058E-3,-4.749473557E-2,4.864010960E-2
2.887352203E0,1.817322709E-2,-7.376192510E-2,4.986183718E-2
2.892107463E0,2.855792828E-2,-9.575305134E-2,4.925097153E-2
2.896862672E0,4.077522457E-2,-1.134681329E-1,4.802924395E-2
2.901617880E0,5.421425030E-2,-1.299614757E-1,4.741837829E-2
2.906373140E0,6.948586553E-2,-1.421787739E-1,4.802924395E-2
2.911128349E0,8.842267841E-2,-1.501200199E-1,5.108356848E-2
2.915883609E0,1.073594838E-1,-1.531743407E-1,5.291616172E-2
2.920638817E0,1.232419685E-1,-1.556178033E-1,5.474875495E-2
2.925394026E0,1.354592592E-1,-1.580612659E-1,5.535962060E-2
2.930149286E0,1.427896470E-1,-1.605047137E-1,5.169443041E-2
2.934904495E0,1.458439678E-1,-1.574503928E-1,4.864010960E-2
2.939659755E0,1.458439678E-1,-1.452330947E-1,4.497491941E-2
2.944414963E0,1.379027218E-1,-1.281288862E-1,3.947713599E-2
2.949170172E0,1.232419685E-1,-1.067486182E-1,3.336848691E-2
2.953925432E0,1.036942974E-1,-8.414662629E-2,2.725984156E-2
2.958680640E0,8.048143238E-2,-6.337722391E-2,2.237292193E-2
2.963435901E0,5.543597788E-2,-4.382954910E-2,1.809686981E-2
2.968191109E0,3.283398226E-2,-2.550360374E-2,1.687514037E-2
2.972946370E0,1.267544460E-2,-6.566796452E-3,1.565340906E-2
2.977701578E0,-5.650499370E-3,1.175914705E-2,1.382081583E-2
2.982456786E0,-2.336557768E-2,2.947422490E-2,8.933897130E-3
2.987212047E0,-3.863719851E-2,4.413498193E-2,2.214384731E-3
2.991967255E0,-5.146535859E-2,5.513054505E-2,-4.505127668E-3
2.996722515E0,-5.818486959E-2,6.856957078E-2,-1.000291109E-2
3.001477724E0,-5.940660089E-2,8.139773458E-2,-1.366809942E-2
3.006232932E0,-5.390881747E-2,9.361502528E-2,-1.427896414E-2
3.010988192E0,-4.230238497E-2,1.021671370E-1,-1.122464053E-2
3.015743401E0,-2.641990222E-2,9.789107740E-2,-5.726857111E-3
3.020498661E0,-8.093958721E-3,8.200860023E-2,-8.399390499E-4
3.025253870E0,9.621120058E-3,5.574141070E-2,5.268708803E-3
3.030009130E0,3.039052337E-2,2.031125315E-2,1.076649129E-2
3.034764338E0,4.871646687E-2,-1.939495653E-2,1.504254527E-2
3.039519547E0,6.948586553E-2,-5.849030241E-2,1.931859925E-2
3.044274807E0,9.025526792E-2,-9.269873053E-2,2.298378758E-2
3.049030015E0,1.116355360E-1,-1.177441850E-1,2.359465137E-2
3.053785276E0,1.305723488E-1,-1.385135949E-1,2.420551702E-2
3.058540484E0,1.482874304E-1,-1.611155868E-1,2.298378758E-2
3.063295692E0,1.647807807E-1,-1.873827726E-1,2.176205814E-2
3.068050953E0,1.794415265E-1,-2.167042792E-1,1.931859925E-2
3.072806161E0,1.934914142E-1,-2.435823381E-1,1.992946304E-2
3.077561422E0,2.105956376E-1,-2.674060464E-1,1.992946304E-2
3.082316630E0,2.240346521E-1,-2.875646055E-1,2.237292193E-2
3.087071890E0,2.386954129E-1,-3.058905303E-1,2.787070535E-2
3.091827099E0,2.545779049E-1,-3.174969554E-1,3.336848691E-2
3.096582307E0,2.686277926E-1,-3.236056268E-1,3.764454275E-2
3.101337567E0,2.802342176E-1,-3.242164850E-1,4.130972922E-2
3.106092776E0,2.912297845E-1,-3.162752390E-1,4.436405376E-2
3.110848036E0,2.997818887E-1,-2.985601723E-1,4.558578506E-2
3.115603245E0,3.089448512E-1,-2.686277926E-1,4.497491941E-2
3.120358453E0,3.181078434E-1,-2.301433086E-1,4.314232618E-2
3.125113713E0,3.223838806E-1,-1.892153621E-1,3.947713599E-2
3.129868922E0,3.242164850E-1,-1.495091617E-1,3.459021822E-2
3.134624182E0,3.205513060E-1,-1.171333194E-1,2.909243479E-2
3.139379390E0,3.132209182E-1,-8.781181276E-2,2.542724647E-2
3.144134599E0,3.010036349E-1,-6.215549260E-2,2.542724647E-2
3.148889859E0,2.893971801E-1,-3.772090003E-2,2.787070535E-2
3.153645067E0,2.765690386E-1,-1.695149764E-2,3.275762498E-2
3.158400328E0,2.637408674E-1,1.527161949E-4,3.520108387E-2
3.163155536E0,2.478583902E-1,1.237001177E-2,3.703367710E-2
3.167910797E0,2.319758981E-1,1.786779426E-2,3.642281145E-2
3.172666005E0,2.136499584E-1,1.359174121E-2,3.459021822E-2
3.177421213E0,1.983783394E-1,5.650499370E-3,3.336848691E-2
3.182176474E0,1.861610413E-1,-4.734201822E-3,3.214675933E-2
3.186931682E0,1.769980639E-1,-2.489273995E-2,3.397935256E-2
3.191686942E0,1.721111536E-1,-4.993819445E-2,3.642281145E-2
3.196442151E0,1.751654744E-1,-8.475748450E-2,4.253146052E-2
3.201197359E0,1.837175786E-1,-1.299614757E-1,5.108356848E-2
3.205952620E0,1.983783394E-1,-1.867718995E-1,6.330086291E-2
3.210707828E0,2.203694731E-1,-2.454149276E-1,8.040507883E-2
3.215463088E0,2.509126961E-1,-2.985601723E-1,1.005636156E-1
3.220218297E0,2.869537175E-1,-3.419315517E-1,1.207221523E-1
3.224973557E0,3.272708058E-1,-3.700313270E-1,1.366046369E-1
3.229728765E0,3.681987524E-1,-3.816377819E-1,1.494327933E-1
3.234483974E0,4.011854529E-1,-3.810268939E-1,1.567631811E-1
3.239239234E0,4.292852283E-1,-3.718639314E-1,1.579848975E-1
3.243994442E0,4.451677203E-1,-3.553705812E-1,1.585957706E-1
3.248749703E0,4.506655037E-1,-3.382663727E-1,1.573740393E-1
3.253504911E0,4.482220411E-1,-3.174969554E-1,1.610392332E-1
3.258260120E0,4.341721535E-1,-2.948949635E-1,1.671478748E-1
3.263015380E0,4.115701318E-1,-2.680169344E-1,1.756999791E-1
3.267770588E0,3.828594983E-1,-2.368628234E-1,1.836412251E-1
3.272525849E0,3.474293351E-1,-2.032652497E-1,1.891390085E-1
3.277281057E0,3.052796721E-1,-1.702785641E-1,1.879172772E-1
3.282036317E0,2.582430840E-1,-1.366809905E-1,1.824194938E-1
3.286791526E0,2.069304436E-1,-1.055268943E-1,1.732565165E-1
3.291546734E0,1.531743407E-1,-7.559451461E-2,1.628718227E-1
3.296301995E0,9.880737960E-2,-4.321868345E-2,1.524871141E-1
3.301057203E0,4.321868345E-2,-9.621120058E-3,1.421024203E-1
3.305812463E0,-1.053741761E-2,1.970038936E-2,1.292742640E-1
3.310567672E0,-6.734783947E-2,4.169152305E-2,1.152243689E-1
3.315322880E0,-1.235474050E-1,5.329795182E-2,9.506583214E-2
3.320078140E0,-1.766926348E-1,5.207622424E-2,7.612902671E-2
3.324833349E0,-2.218966335E-1,3.985892609E-2,5.597048625E-2
3.329588609E0,-2.554942071E-1,2.031125315E-2,3.459021822E-2
3.334343817E0,-2.756527364E-1,-3.512472380E-3,1.137735695E-2
3.339099078E0,-2.848156989E-1,-3.466657549E-2,-1.366809942E-2
3.343854286E0,-2.890917659E-1,-6.826414168E-2,-3.871355578E-2
3.348609495E0,-2.835939825E-1,-9.269873053E-2,-6.253728271E-2
3.353364755E0,-2.701549530E-1,-1.036942974E-1,-8.575014025E-2
3.358119963E0,-2.506072819E-1,-1.000291109E-1,-1.040760875E-1
3.362875224E0,-2.292270064E-1,-8.353576064E-2,-1.205694377E-1
3.367630432E0,-2.060141414E-1,-5.604684353E-2,-1.309541315E-1
3.372385640E0,-1.870773435E-1,-1.939495653E-2,-1.364519149E-1
3.377140901E0,-1.699731201E-1,2.336557768E-2,-1.364519149E-1
3.381896109E0,-1.559232324E-1,6.795870513E-2,-1.309541315E-1
3.386651370E0,-1.485928595E-1,1.064431891E-1,-1.211803034E-1
3.391406578E0,-1.430950761E-1,1.333212405E-1,-1.077412739E-1
3.396161838E0,-1.406516135E-1,1.455385387E-1,-9.002619982E-2
3.400917047E0,-1.406516135E-1,1.455385387E-1,-6.986765563E-2
3.405672255E0,-1.418733448E-1,1.382081509E-1,-4.665479809E-2
3.410427515E0,-1.406516135E-1,1.266017258E-1,-2.405280061E-2
3.415182724E0,-1.430950761E-1,1.107192412E-1,-5.115992390E-3
3.419937984E0,-1.516471803E-1,9.605848789E-2,7.712167688E-3
3.424693192E0,-1.644753367E-1,8.567378670E-2,1.320995111E-2
3.429448401E0,-1.840230078E-1,8.567378670E-2,1.382081583E-2
3.434203661E0,-2.060141414E-1,9.911280870E-2,1.198822167E-2
3.438958870E0,-2.316704690E-1,1.229365394E-1,6.490438245E-3
3.443714130E0,-2.597702444E-1,1.467602700E-1,-4.505127668E-3
3.448469338E0,-2.964221239E-1,1.455385387E-1,-4.237874225E-2
3.453224599E0,-3.171915412E-1,1.620318890E-1,-9.918916970E-2
3.457979807E0,-3.269653618E-1,1.809686869E-1,-1.498909444E-1
3.462735067E0,-3.251327872E-1,2.047924101E-1,-1.889862865E-1
3.467490276E0,-3.110828996E-1,2.249509543E-1,-2.109774202E-1
3.472245484E0,-2.921460867E-1,2.286161482E-1,-2.170860767E-1
3.477000745E0,-2.671006322E-1,2.163988501E-1,-2.085339576E-1
3.481755953E0,-2.347247899E-1,1.986837685E-1,-1.895971596E-1
3.486511213E0,-1.956294477E-1,1.754709035E-1,-1.663842946E-1
3.491266422E0,-1.528689116E-1,1.498145908E-1,-1.407279670E-1
3.496021630E0,-1.082757786E-1,1.253799945E-1,-1.126281917E-1
3.500776890E0,-6.246092543E-2,1.137735620E-1,-8.391755074E-2
3.505532099E0,-1.481347065E-2,1.149952933E-1,-4.604393244E-2
3.510287359E0,2.611446939E-2,1.137735620E-1,-5.726857111E-3
3.515042567E0,6.093376130E-2,1.064431891E-1,2.664897591E-2
3.519797828E0,8.720094711E-2,9.483675659E-2,4.864010960E-2
3.524553036E0,1.049160287E-1,8.139773458E-2,6.391172856E-2
3.529308245E0,1.177441850E-1,7.284562290E-2,7.796161622E-2
3.534063505E0,1.250745654E-1,5.635227636E-2,8.284853399E-2
3.538818713E0,1.256854236E-1,3.375028074E-2,7.735075057E-2
3.543573974E0,1.165224537E-1,1.114828233E-2,6.452259421E-2
3.548329182E0,9.636391699E-2,-4.581485991E-4,5.719221383E-2
3.553084390E0,6.154462695E-2,-2.290742937E-3,5.535962060E-2
3.557839651E0,1.878409274E-2,6.872228812E-3,5.597048625E-2
3.562594859E0,-3.313941509E-2,3.130681813E-2,5.658135191E-2
3.567350120E0,-9.850194305E-2,3.741546720E-2,3.092502989E-2
3.572105328E0,-1.614210159E-1,4.596757516E-2,-3.016144782E-2
3.576860588E0,-2.188423127E-1,6.429351866E-2,-9.124792367E-2
3.581615797E0,-2.719875574E-1,8.689551800E-2,-1.425605714E-1
3.586371005E0,-3.141372204E-1,1.125518382E-1,-1.749363989E-1
3.591126265E0,-3.410152495E-1,1.302669197E-1,-1.877645552E-1
3.595881474E0,-3.550651670E-1,1.412624866E-1,-1.828776449E-1
3.600636734E0,-3.538434207E-1,1.430950761E-1,-1.663842946E-1
3.605391942E0,-3.324631453E-1,1.375972927E-1,-1.425605714E-1
3.610147151E0,-2.964221239E-1,1.235474050E-1,-1.169042438E-1
3.614902411E0,-2.493855506E-1,1.015562713E-1,-9.063705802E-2
3.619657620E0,-1.919642538E-1,9.239330143E-2,-5.765036494E-2
3.624412880E0,-1.290451884E-1,9.422589093E-2,-1.977674663E-2
3.629168088E0,-6.795870513E-2,1.003345400E-1,1.076649129E-2
3.633923349E0,-1.175914705E-2,1.094975099E-1,2.848157100E-2
3.638678557E0,3.527744114E-2,1.156061590E-1,3.092502989E-2
3.643433765E0,7.009673119E-2,1.143844277E-1,2.298378758E-2
3.648189026E0,9.453132749E-2,1.039997265E-1,1.198822167E-2
3.652944234E0,1.091920808E-1,7.956513762E-2,2.825249685E-3
3.657699495E0,1.177441850E-1,4.413498193E-2,-8.399390499E-4
3.662454703E0,1.226311028E-1,1.985310577E-3,2.214384731E-3
3.667209911E0,1.281288862E-1,-4.566214234E-2,1.137735695E-2
3.671965172E0,1.299614757E-1,-9.330959618E-2,2.542724647E-2
3.676720380E0,1.330158114E-1,-1.366809905E-1,4.130972922E-2
3.681475640E0,1.366809905E-1,-1.745546162E-1,5.658135191E-2
3.686230849E0,1.464548260E-1,-2.050978541E-1,7.002037764E-2
3.690986109E0,1.598938555E-1,-2.270889878E-1,7.918334752E-2
3.695741317E0,1.782197952E-1,-2.386954129E-1,8.223766834E-2
3.700496526E0,1.977674663E-1,-2.399171442E-1,8.101594448E-2
3.705251786E0,2.130390853E-1,-2.331976295E-1,7.612902671E-2
3.710006995E0,2.264781147E-1,-2.222020626E-1,7.063124329E-2
3.714762255E0,2.356410921E-1,-2.142608166E-1,6.757691503E-2
3.719517463E0,2.423606068E-1,-2.124282271E-1,6.879864633E-2
3.724272672E0,2.460257858E-1,-2.215912044E-1,7.307469845E-2
3.729027932E0,2.515235841E-1,-2.338084877E-1,7.796161622E-2
3.733783140E0,2.588539422E-1,-2.454149276E-1,8.345939964E-2
3.738538401E0,2.667951882E-1,-2.570213675E-1,8.712458611E-2
3.743293609E0,2.741255760E-1,-2.692386508E-1,8.712458611E-2
3.748048870E0,2.802342176E-1,-2.826776803E-1,8.101594448E-2
3.752804078E0,2.838993967E-1,-2.924515009E-1,7.002037764E-2
3.757559286E0,2.869537175E-1,-2.955058515E-1,5.413788930E-2
3.762314547E0,2.881754637E-1,-2.900080681E-1,3.153589368E-2
3.767069755E0,2.887863219E-1,-2.747364342E-1,8.933897130E-3
3.771825015E0,2.887863219E-1,-2.509126961E-1,-1.427896414E-2
3.776580224E0,2.851211429E-1,-2.215912044E-1,-3.443750367E-2
3.781335432E0,2.777907550E-1,-1.922696829E-1,-5.031998456E-2
3.786090692E0,2.692386508E-1,-1.672242284E-1,-6.009382382E-2
3.790845901E0,2.564104795E-1,-1.531743407E-1,-6.864593178E-2
3.795601161E0,2.441931963E-1,-1.519526094E-1,-6.681333482E-2
3.800356370E0,2.325867712E-1,-1.562286615E-1,-5.887209252E-2
3.805111630E0,2.209803313E-1,-1.629481763E-1,-4.115701467E-2
3.809866838E0,2.099847645E-1,-1.678351015E-1,-1.855501719E-2
3.814622047E0,1.989891976E-1,-1.708894223E-1,6.490438245E-3
3.819377307E0,1.873827726E-1,-1.721111536E-1,2.970330045E-2
3.824132515E0,1.702785641E-1,-1.715002805E-1,4.558578506E-2
3.828887776E0,1.470656991E-1,-1.647807807E-1,5.352702737E-2
3.833642984E0,1.201876476E-1,-1.482874304E-1,5.413788930E-2
3.838398192E0,8.720094711E-2,-1.232419685E-1,4.802924395E-2
3.843153453E0,5.054906011E-2,-9.025526792E-2,3.581194952E-2
3.847908661E0,9.621120058E-3,-5.482511222E-2,2.176205814E-2
3.852663922E0,-2.947422490E-2,-1.939495653E-2,1.076649129E-2
3.857419130E0,-6.734783947E-2,1.542433538E-2,3.436114406E-3
3.862174338E0,-9.850194305E-2,5.085449293E-2,3.817904799E-4
3.866929599E0,-1.247691289E-1,8.139773458E-2,-2.290742996E-4
3.871684807E0,-1.424842030E-1,1.046105921E-1,-2.290742996E-4
3.876440067E0,-1.528689116E-1,1.223256737E-1,-4.505127668E-3
3.881195276E0,-1.614210159E-1,1.351538301E-1,-1.427896414E-2
3.885950536E0,-1.663079411E-1,1.473711282E-1,-3.199404106E-2
3.890705745E0,-1.693622619E-1,1.608101577E-1,-5.642863363E-2
3.895460953E0,-1.711948514E-1,1.760817766E-1,-8.575014025E-2
3.900216213E0,-1.724165827E-1,1.876882017E-1,-1.156825200E-1
3.904971422E0,-1.730274558E-1,1.974620372E-1,-1.407279670E-1
3.909726682E0,-1.711948514E-1,2.011272311E-1,-1.621082425E-1
3.914481890E0,-1.650862098E-1,2.005163580E-1,-1.767689884E-1
3.919237151E0,-1.534797698E-1,1.968511790E-1,-1.834885031E-1
3.923992359E0,-1.351538301E-1,1.870773435E-1,-1.859319657E-1
3.928747567E0,-1.125518382E-1,1.742491722E-1,-1.883754283E-1
3.933502828E0,-8.872810751E-2,1.589775532E-1,-1.908188909E-1
3.938258036E0,-6.246092543E-2,1.424842030E-1,-1.932623386E-1
3.943013297E0,-3.802633286E-2,1.266017258E-1,-1.957058012E-1
3.947768505E0,-1.359174121E-2,1.125518382E-1,-1.963166744E-1
3.952523713E0,1.084284950E-2,9.850194305E-2,-1.914297491E-1
3.957278974E0,3.649916872E-2,8.261945844E-2,-1.834885031E-1
3.962034182E0,6.093376130E-2,6.001746282E-2,-1.688277572E-1
3.966789390E0,8.475748450E-2,2.703076601E-2,-1.486692131E-1
3.971544651E0,1.079703495E-1,-1.145371422E-2,-1.260672212E-1
3.976299859E0,1.275180280E-1,-4.993819445E-2,-1.004109010E-1
3.981055120E0,1.434005052E-1,-8.231402934E-2,-7.353284955E-2
3.985810328E0,1.550069451E-1,-1.036942974E-1,-4.848739132E-2
3.990565588E0,1.617264450E-1,-1.177441850E-1,-2.649625950E-2
3.995320797E0,1.629481763E-1,-1.207985133E-1,-1.061377581E-2
4.000076005E0,1.592829973E-1,-1.146898642E-1,2.825249685E-3
4.004831265E0,1.495091617E-1,-1.030834317E-1,1.198822167E-2
4.009586474E0,1.379027218E-1,-8.903354406E-2,1.992946304E-2
4.014341734E0,1.244636998E-1,-7.498364896E-2,2.603811212E-2
4.019096942E0,1.098029464E-1,-6.520981342E-2,3.397935256E-2
4.023852203E0,9.758564830E-2,-5.543597788E-2,4.130972922E-2
4.028607411E0,9.025526792E-2,-4.627300799E-2,4.619665071E-2
4.033362620E0,8.414662629E-2,-3.772090003E-2,4.802924395E-2
4.038117880E0,8.170316368E-2,-2.672533318E-2,4.497491941E-2
4.042873088E0,8.231402934E-2,-1.328630932E-2,3.520108387E-2
4.047628349E0,8.659008145E-2,7.635809598E-4,2.054032870E-2
4.052383557E0,8.842267841E-2,1.298087649E-2,9.926552884E-4
4.057138765E0,8.720094711E-2,2.214384824E-2,-2.038761228E-2
4.061894026E0,8.781181276E-2,2.825249545E-2,-3.871355578E-2
4.066649234E0,8.720094711E-2,2.519817278E-2,-5.276344717E-2
4.071404495E0,9.086613357E-2,1.359174121E-2,-5.765036494E-2
4.076159703E0,1.012508348E-1,-7.788525894E-3,-5.154171586E-2
4.080914911E0,1.177441850E-1,-3.955349326E-2,-3.871355578E-2
4.085670172E0,1.391244531E-1,-7.376192510E-2,-2.222020552E-2
4.090425380E0,1.647807807E-1,-1.079703495E-1,-6.337722298E-3
4.095180640E0,1.892153621E-1,-1.360701323E-1,5.268708803E-3
4.099935849E0,2.130390853E-1,-1.525634825E-1,1.198822167E-2
4.104691057E0,2.338084877E-1,-1.537852138E-1,1.259908639E-2
4.109446317E0,2.527453005E-1,-1.403461844E-1,1.137735695E-2
4.114201526E0,2.643517256E-1,-1.177441850E-1,8.933897130E-3
4.118956786E0,2.704603672E-1,-9.086613357E-2,8.323032409E-3
4.123711995E0,2.674060464E-1,-6.582067907E-2,1.076649129E-2
4.128467255E0,2.606865466E-1,-4.688387364E-2,1.626427472E-2
4.133222463E0,2.490801066E-1,-3.283398226E-2,2.664897591E-2
4.137977672E0,2.362519503E-1,-2.489273995E-2,4.008800164E-2
4.142732932E0,2.209803313E-1,-1.878409274E-2,5.474875495E-2
4.147488140E0,2.038761228E-1,-1.511890348E-2,6.391172856E-2
4.152243401E0,1.837175786E-1,-1.389717404E-2,6.696604937E-2
4.156998609E0,1.598938555E-1,-1.511890348E-2,6.146826968E-2
4.161753817E0,1.287397593E-1,-1.389717404E-2,5.291616172E-2
4.166509078E0,9.758564830E-2,-1.023198478E-2,3.886627033E-2
4.171264286E0,6.398808211E-2,-5.345067009E-3,2.481638081E-2
4.176019547E0,2.977965772E-2,-4.581485991E-4,9.544761851E-3
4.180774755E0,-2.596175298E-3,5.650499370E-3,-3.283398226E-3
4.185529963E0,-3.069595434E-2,1.481347065E-2,-1.672242396E-2
4.190285224E0,-5.757400393E-2,2.703076601E-2,-3.016144782E-2
4.195040432E0,-7.834340632E-2,4.291325063E-2,-4.482220486E-2
4.199795692E0,-9.483675659E-2,5.818486959E-2,-5.826122686E-2
4.204550901E0,-1.070540547E-1,7.040216774E-2,-7.047852129E-2
4.209306161E0,-1.162170246E-1,7.773254067E-2,-8.147408813E-2
4.214061370E0,-1.186604798E-1,8.078686893E-2,-8.880446851E-2
4.218816578E0,-1.162170246E-1,7.895427197E-2,-9.246965498E-2
4.223571838E0,-1.064431891E-1,6.918043643E-2,-9.002619982E-2
4.228327047E0,-8.750637621E-2,4.963276163E-2,-8.636100590E-2
4.233082307E0,-6.185005978E-2,2.458730713E-2,-7.841976732E-2
4.237837515E0,-2.947422490E-2,-3.512472380E-3,-7.047852129E-2
4.242592724E0,7.177661173E-3,-2.855792828E-2,-6.253728271E-2
4.247347984E0,4.505127668E-2,-4.749473557E-2,-5.581776798E-2
4.252103192E0,7.925970852E-2,-6.093376130E-2,-5.154171586E-2
4.256858453E0,1.098029464E-1,-7.009673119E-2,-4.604393244E-2
4.261613661E0,1.299614757E-1,-7.620538026E-2,-3.932442144E-2
4.266368870E0,1.434005052E-1,-7.864884287E-2,-3.138317913E-2
4.271124130E0,1.476765573E-1,-7.925970852E-2,-2.099847607E-2
4.275879338E0,1.446222365E-1,-7.925970852E-2,-8.170315996E-3
4.280634599E0,1.348484010E-1,-7.681624591E-2,2.214384731E-3
4.285389807E0,1.201876476E-1,-6.948586553E-2,1.076649129E-2
4.290145015E0,1.024725661E-1,-5.849030241E-2,1.443168055E-2
4.294900276E0,8.048143238E-2,-4.627300799E-2,1.443168055E-2
4.299655484E0,5.543597788E-2,-3.405570984E-2,1.076649129E-2
4.304410745E0,2.794706449E-2,-2.122755162E-2,3.436114406E-3
4.309165953E0,-1.374445739E-3,-1.023198478E-2,-4.505127668E-3
4.313921161E0,-3.069595434E-2,-1.679878100E-3,-1.244636998E-2
4.318676422E0,-5.757400393E-2,2.596175298E-3,-2.099847607E-2
4.323431630E0,-8.078686893E-2,7.635809598E-4,-2.588539571E-2
4.328186890E0,-9.911280870E-2,-7.177661173E-3,-2.649625950E-2
4.332942099E0,-1.094975099E-1,-1.756236330E-2,-2.283107117E-2
4.337697359E0,-1.137735620E-1,-3.405570984E-2,-1.855501719E-2
4.342452567E0,-1.119409725E-1,-5.238165334E-2,-1.550069358E-2
4.347207776E0,-1.046105921E-1,-6.887500733E-2,-1.672242396E-2
4.351963036E0,-9.239330143E-2,-8.109229803E-2,-2.405280061E-2
4.356718245E0,-7.956513762E-2,-8.781181276E-2,-3.688096255E-2
4.361473505E0,-6.612611562E-2,-9.147699922E-2,-5.459604040E-2
4.366228713E0,-5.818486959E-2,-8.475748450E-2,-6.925679743E-2
4.370983922E0,-5.207622424E-2,-6.093376130E-2,-7.475458086E-2
4.375739182E0,-5.085449293E-2,-4.138609022E-2,-7.597630471E-2
4.380494390E0,-4.841103405E-2,-5.299251899E-2,-8.758273721E-2
4.385249651E0,-4.535670951E-2,-7.131846249E-2,-1.046869531E-1
4.390004859E0,-4.535670951E-2,-8.720094711E-2,-1.181259751E-1
4.394760067E0,-4.535670951E-2,-9.086613357E-2,-1.162933856E-1
4.399515328E0,-3.802633286E-2,-7.987056673E-2,-9.918916970E-2
4.404270536E0,-2.458730713E-2,-6.093376130E-2,-7.658717036E-2
4.409025797E0,-1.359174121E-2,-3.649916872E-2,-5.459604040E-2
4.413781005E0,-9.315688163E-3,-4.734201822E-3,-3.565923125E-2
4.418536213E0,-1.542433538E-2,2.580903657E-2,-1.977674663E-2
4.423291474E0,-3.069595434E-2,5.329795182E-2,-6.948587019E-3
4.428046682E0,-5.696314201E-2,8.506292105E-2,2.825249685E-3
4.432801942E0,-9.117157012E-2,1.284343153E-1,7.101302966E-3
4.437557151E0,-1.351538301E-1,1.803578287E-1,6.490438245E-3
4.442312359E0,-1.870773435E-1,2.328922004E-1,-8.399390499E-4
4.447067620E0,-2.451094985E-1,2.793179154E-1,-1.488982886E-2
4.451822828E0,-3.104720116E-1,3.141372204E-1,-3.199404106E-2
4.456578088E0,-3.776671588E-1,3.385718167E-1,-4.848739132E-2
4.461333297E0,-4.460839927E-1,3.556760252E-1,-6.559160352E-2
4.466088505E0,-5.120574236E-1,3.648389876E-1,-8.147408813E-2
4.470843765E0,-5.707004070E-1,3.678933084E-1,-9.674570709E-2
4.475598974E0,-6.171261668E-1,3.678933084E-1,-1.095738709E-1
4.480354234E0,-6.507236958E-1,3.660607338E-1,-1.211803034E-1
4.485109442E0,-6.702713966E-1,3.623955250E-1,-1.297324002E-1
4.489864651E0,-6.727148294E-1,3.593412042E-1,-1.388953775E-1
4.494619911E0,-6.580541134E-1,3.550651670E-1,-1.523344070E-1
4.499375120E0,-6.293434501E-1,3.471239209E-1,-1.694386154E-1
4.504130380E0,-5.878046155E-1,3.367392123E-1,-1.895971596E-1
4.508885588E0,-5.377137065E-1,3.239110410E-1,-2.097556889E-1
4.513640797E0,-4.790706933E-1,3.074176908E-1,-2.238055766E-1
4.518396057E0,-4.143190384E-1,2.921460867E-1,-2.305250913E-1
4.523151265E0,-3.446804583E-1,2.713766694E-1,-2.268599123E-1
4.527906526E0,-2.725984156E-1,2.469420880E-1,-2.134208828E-1
4.532661734E0,-1.986837685E-1,2.139553875E-1,-1.926514804E-1
4.537416942E0,-1.235474050E-1,1.718057245E-1,-1.633299738E-1
4.542172203E0,-4.841103405E-2,1.235474050E-1,-1.291215420E-1
4.546927411E0,2.611446939E-2,7.040216774E-2,-9.308052063E-2
4.551682672E0,9.514218569E-2,1.725693047E-2,-6.131555140E-2
4.556437880E0,1.574503928E-1,-3.100138716E-2,-3.321577236E-2
4.561193088E0,2.087630332E-1,-6.948586553E-2,-1.000291109E-2
4.565948349E0,2.472475171E-1,-9.697478265E-2,8.933897130E-3
4.570703557E0,2.710712552E-1,-1.104138121E-1,2.909243479E-2
4.575458817E0,2.838993967E-1,-1.104138121E-1,5.108356848E-2
4.580214026E0,2.838993967E-1,-1.024725661E-1,7.735075057E-2
4.584969234E0,2.747364342E-1,-8.903354406E-2,1.036179364E-1
4.589724495E0,2.582430840E-1,-7.437278330E-2,1.298851222E-1
4.594479703E0,2.338084877E-1,-6.154462695E-2,1.555414498E-1
4.599234963E0,2.050978541E-1,-4.932733253E-2,1.775325835E-1
4.603990172E0,1.727220118E-1,-4.321868345E-2,1.934150606E-1
4.608745380E0,1.348484010E-1,-3.649916872E-2,2.050214857E-1
4.613500640E0,9.819651395E-2,-2.855792828E-2,2.092975378E-1
4.618255849E0,6.154462695E-2,-1.756236330E-2,2.080758214E-1
4.623011109E0,2.672533318E-2,-4.123337101E-3,2.019671649E-1
4.627766317E0,-5.039634649E-3,1.053741761E-2,1.909715980E-1
4.632521526E0,-3.069595434E-2,2.764163166E-2,1.769217104E-1
4.637276786E0,-4.902189970E-2,3.985892609E-2,1.616500914E-1
4.642031995E0,-5.879573524E-2,4.963276163E-2,1.445458829E-1
4.646787255E0,-5.879573524E-2,5.268708616E-2,1.286633909E-1
4.651542463E0,-5.574141070E-2,4.780016840E-2,1.115591824E-1
4.656297672E0,-4.657844082E-2,3.741546720E-2,9.201150388E-2
4.661052932E0,-3.619373962E-2,2.397644334E-2,7.063124329E-2
4.665808140E0,-2.825249545E-2,8.704823442E-3,4.741837829E-2
4.670563401E0,-2.092211880E-2,-6.566796452E-3,2.420551702E-2
4.675318609E0,-1.542433538E-2,-1.878409274E-2,2.214384731E-3
4.680073817E0,-1.298087649E-2,-2.489273995E-2,-1.550069358E-2
4.684829078E0,-1.114828233E-2,-2.489273995E-2,-2.955058403E-2
4.689584286E0,-1.603520103E-2,-2.183841541E-2,-4.054614902E-2
4.694339495E0,-2.214384824E-2,-1.511890348E-2,-5.031998456E-2
4.699094755E0,-3.436114267E-2,-1.023198478E-2,-5.826122686E-2
4.703849963E0,-5.085449293E-2,-2.290742937E-3,-6.498073786E-2
4.708605224E0,-6.856957078E-2,1.481347065E-2,-6.864593178E-2
4.713360432E0,-8.994983882E-2,3.619373962E-2,-6.925679743E-2
4.718115692E0,-1.143844277E-1,5.818486959E-2,-6.803506613E-2
4.722870901E0,-1.394298822E-1,7.773254067E-2,-6.620246917E-2
4.727626109E0,-1.650862098E-1,9.422589093E-2,-6.314814836E-2
4.732381370E0,-1.864664704E-1,1.119409725E-1,-6.192641705E-2
4.737136578E0,-2.041815519E-1,1.272125840E-1,-5.887209252E-2
4.741891786E0,-2.194531709E-1,1.437059343E-1,-5.337430909E-2
4.746647047E0,-2.316704690E-1,1.577558219E-1,-4.909825698E-2
4.751402255E0,-2.408334464E-1,1.681405306E-1,-4.360047355E-2
4.756157515E0,-2.438877672E-1,1.785252392E-1,-3.932442144E-2
4.760912724E0,-2.420551628E-1,1.876882017E-1,-3.443750367E-2
4.765667932E0,-2.371682525E-1,1.919642538E-1,-2.832885459E-2
4.770423192E0,-2.298378795E-1,1.919642538E-1,-2.527453005E-2
4.775178401E0,-2.206749022E-1,1.858556122E-1,-2.283107117E-2
4.779933661E0,-2.054032832E-1,1.669187993E-1,-2.160934173E-2
4.784688870E0,-1.858556122E-1,1.424842030E-1,-2.038761228E-2
4.789444078E0,-1.620318890E-1,1.131627038E-1,-2.038761228E-2
4.794199338E0,-1.333212405E-1,8.384118974E-2,-2.099847607E-2
4.798954547E0,-9.850194305E-2,5.818486959E-2,-2.099847607E-2
4.803709807E0,-6.368265301E-2,3.191768378E-2,-2.222020552E-2
4.808465015E0,-3.252854943E-2,5.039634649E-3,-2.283107117E-2
4.813220224E0,-5.039634649E-3,-2.183841541E-2,-2.405280061E-2
4.817975484E0,1.511890348E-2,-4.444041103E-2,-2.222020552E-2
4.822730692E0,3.222311661E-2,-5.787943676E-2,-1.427896414E-2
4.827485953E0,4.505127668E-2,-7.192932814E-2,-6.337722298E-3
4.832241161E0,5.849030241E-2,-8.353576064E-2,1.603520010E-3
4.836996370E0,7.131846249E-2,-8.475748450E-2,1.198822167E-2
4.841751630E0,8.414662629E-2,-7.987056673E-2,2.420551702E-2
4.846506838E0,9.636391699E-2,-6.765327603E-2,3.703367710E-2
4.851262047E0,1.055268943E-1,-5.604684353E-2,4.619665071E-2
4.856017307E0,1.067486182E-1,-4.199695215E-2,5.047270283E-2
4.860772515E0,9.758564830E-2,-2.672533318E-2,4.986183718E-2
4.865527776E0,7.864884287E-2,-7.788525894E-3,4.802924395E-2
4.870282984E0,5.115992576E-2,2.031125315E-2,4.436405376E-2
4.875038192E0,1.389717404E-2,5.574141070E-2,4.069886729E-2
4.879793453E0,-3.069595434E-2,9.422589093E-2,3.459021822E-2
4.884548661E0,-7.895427197E-2,1.296560466E-1,2.664897591E-2
4.889303922E0,-1.278234571E-1,1.559232324E-1,1.870773360E-2
4.894059130E0,-1.773035079E-1,1.595884264E-1,-2.290742996E-4
4.898814338E0,-2.286161482E-1,1.339320987E-1,-5.765036494E-2
4.903569599E0,-2.542724609E-1,1.437059343E-1,-1.187368408E-1
4.908324807E0,-2.756527364E-1,1.534797698E-1,-1.572213173E-1
4.913080015E0,-2.915352285E-1,1.718057245E-1,-1.957058012E-1
4.917835276E0,-2.952004075E-1,2.054032832E-1,-2.213621289E-1
4.922590484E0,-3.061959743E-1,2.078467458E-1,-2.427423894E-1
4.927345745E0,-3.141372204E-1,2.109010667E-1,-2.574031353E-1
4.932100953E0,-3.171915412E-1,2.176205814E-1,-2.629009187E-1
4.936856161E0,-3.135263622E-1,2.273944169E-1,-2.598465979E-1
4.941611422E0,-3.055851161E-1,2.322813272E-1,-2.482401729E-1
4.946366630E0,-2.903134823E-1,2.383899838E-1,-2.262490392E-1
4.951121890E0,-2.683223486E-1,2.420551628E-1,-1.969275326E-1
4.955877099E0,-2.408334464E-1,2.420551628E-1,-1.578321904E-1
4.960632307E0,-2.121227980E-1,2.243400961E-1,-1.230128929E-1
4.965387567E0,-1.809686869E-1,1.968511790E-1,-9.918916970E-2
4.970142776E0,-1.485928595E-1,1.626427472E-1,-8.697187155E-2
4.974898036E0,-1.101083755E-1,1.290451884E-1,-8.575014025E-2
4.979653245E0,-6.979130208E-2,1.009454057E-1,-8.758273721E-2
4.984408453E0,-2.825249545E-2,7.834340632E-2,-8.880446851E-2
4.989163713E0,7.177661173E-3,5.207622424E-2,-8.819360286E-2
4.993918922E0,3.161225095E-2,2.153298259E-2,-8.636100590E-2
4.998674130E0,4.138609022E-2,-1.023198478E-2,-7.903063297E-2
5.003429390E0,4.077522457E-2,-3.588830680E-2,-6.925679743E-2
5.008184599E0,2.733619884E-2,-5.238165334E-2,-5.581776798E-2
5.012939859E0,8.399390616E-3,-5.299251899E-2,-4.237874225E-2
5.017695067E0,-1.175914705E-2,-3.527744114E-2,-2.832885459E-2
5.022450276E0,-3.313941509E-2,-2.290742937E-3,-1.550069358E-2
5.027205536E0,-5.757400393E-2,2.764163166E-2,-7.559451740E-3
5.031960745E0,-8.139773458E-2,4.902189970E-2,-4.505127668E-3
5.036715953E0,-1.058323234E-1,6.795870513E-2,-8.399390499E-4
5.041471213E0,-1.278234571E-1,8.200860023E-2,5.268708803E-3
5.046226422E0,-1.418733448E-1,9.056070447E-2,8.933897130E-3
5.050981682E0,-1.473711282E-1,9.666935354E-2,1.076649129E-2
5.055736890E0,-1.455385387E-1,1.058323234E-1,1.137735695E-2
5.060492099E0,-1.412624866E-1,1.137735620E-1,8.933897130E-3
5.065247359E0,-1.302669197E-1,1.162170246E-1,4.657844082E-3
5.070002567E0,-1.162170246E-1,1.143844277E-1,-8.399390499E-4
5.074757776E0,-9.789107740E-2,1.131627038E-1,-5.115992390E-3
5.079513036E0,-7.895427197E-2,1.094975099E-1,-6.948587019E-3
5.084268245E0,-5.696314201E-2,1.021671370E-1,-3.894262947E-3
5.089023505E0,-3.252854943E-2,8.384118974E-2,4.657844082E-3
5.093778713E0,-3.207040019E-3,5.390881747E-2,1.748600416E-2
5.098533922E0,2.916879393E-2,1.420260593E-2,3.459021822E-2
5.103289182E0,6.459894776E-2,-2.977965772E-2,5.108356848E-2
5.108044390E0,9.941824526E-2,-7.742711157E-2,6.513345987E-2
5.112799651E0,1.336266696E-1,-1.220202371E-1,7.368556410E-2
5.117554859E0,1.611155868E-1,-1.568395346E-1,7.490729541E-2
5.122310067E0,1.843284518E-1,-1.794415265E-1,7.246383280E-2
5.127065328E0,2.008218020E-1,-1.867718995E-1,6.635518372E-2
5.131820536E0,2.099847645E-1,-1.855501831E-1,6.268999726E-2
5.136575745E0,2.112064958E-1,-1.800523996E-1,6.146826968E-2
5.141331005E0,2.075413018E-1,-1.733328849E-1,6.452259421E-2
5.146086213E0,2.020435184E-1,-1.672242284E-1,7.124210149E-2
5.150841474E0,1.959348768E-1,-1.605047137E-1,7.857248187E-2
5.155596682E0,1.904370934E-1,-1.507308781E-1,8.529199660E-2
5.160351890E0,1.849393100E-1,-1.397353113E-1,8.895718306E-2
5.165107151E0,1.794415265E-1,-1.293506175E-1,8.834631741E-2
5.169862359E0,1.702785641E-1,-1.214093715E-1,8.101594448E-2
5.174617567E0,1.580612659E-1,-1.134681329E-1,6.940951198E-2
5.179372828E0,1.415679157E-1,-1.061377525E-1,5.597048625E-2
5.184128036E0,1.207985133E-1,-1.006399691E-1,4.375318810E-2
5.188883297E0,9.697478265E-2,-9.819651395E-2,3.581194952E-2
5.193638505E0,7.376192510E-2,-9.758564830E-2,3.336848691E-2
5.198393713E0,5.543597788E-2,-9.575305134E-2,3.214675933E-2
5.203148974E0,4.016435891E-2,-9.269873053E-2,3.153589368E-2
5.207904182E0,2.672533318E-2,-8.659008145E-2,2.848157100E-2
5.212659442E0,1.695149764E-2,-7.925970852E-2,2.115119249E-2
5.217414651E0,9.621120058E-3,-7.009673119E-2,1.015562657E-2
5.222169859E0,6.566796452E-3,-6.032289565E-2,-1.450803829E-3
5.226925120E0,6.566796452E-3,-4.932733253E-2,-1.305723470E-2
5.231680328E0,5.955931731E-3,-4.199695215E-2,-2.466366626E-2
5.236435536E0,4.123337101E-3,-3.711003438E-2,-3.504836559E-2
5.241190797E0,-1.527161949E-4,-3.405570984E-2,-4.115701467E-2
5.245946005E0,-3.207040019E-3,-3.222311661E-2,-4.298960790E-2
5.250701213E0,-2.596175298E-3,-2.733619884E-2,-3.993528336E-2
5.255456474E0,2.290742937E-3,-1.817322709E-2,-3.443750367E-2
5.260211682E0,1.145371422E-2,-5.345067009E-3,-2.710712515E-2
5.264966942E0,2.367101051E-2,6.872228812E-3,-2.160934173E-2
5.269722151E0,3.588830680E-2,2.031125315E-2,-1.672242396E-2
5.274477359E0,4.199695215E-2,3.252854943E-2,-1.550069358E-2
5.279232620E0,4.138609022E-2,4.413498193E-2,-1.733328775E-2
5.283987828E0,3.344484791E-2,5.757400393E-2,-1.794415340E-2
5.288743036E0,1.939495653E-2,7.467821985E-2,-1.488982886E-2
5.293498297E0,4.123337101E-3,9.789107740E-2,-1.000291109E-2
5.298253505E0,-1.053741761E-2,1.241582632E-1,-6.948587019E-3
5.303008713E0,-2.336557768E-2,1.461493969E-1,-5.115992390E-3
5.307763974E0,-3.680460155E-2,1.534797698E-1,-8.170315996E-3
5.312519182E0,-4.963276163E-2,1.510363221E-1,-1.427896414E-2
5.317274442E0,-6.246092543E-2,1.388190240E-1,-2.588539571E-2
5.322029651E0,-7.284562290E-2,1.211039424E-1,-3.627009690E-2
5.326784859E0,-7.773254067E-2,1.015562713E-1,-4.787652567E-2
5.331540120E0,-7.651081681E-2,8.200860023E-2,-5.703949928E-2
5.336295328E0,-6.856957078E-2,6.490438432E-2,-6.375901401E-2
5.341050536E0,-5.207622424E-2,4.413498193E-2,-6.620246917E-2
5.345805797E0,-3.130681813E-2,1.359174121E-2,-6.620246917E-2
5.350561005E0,-8.704823442E-3,-3.222311661E-2,-6.314814836E-2
5.355316213E0,1.634063199E-2,-8.353576064E-2,-5.703949928E-2
5.360071474E0,4.321868345E-2,-1.299614757E-1,-4.482220486E-2
5.364826682E0,7.070759684E-2,-1.647807807E-1,-2.893971838E-2
5.369581942E0,9.941824526E-2,-1.800523996E-1,-1.061377581E-2
5.374337151E0,1.293506175E-1,-1.788306683E-1,9.544761851E-3
5.379092359E0,1.568395346E-1,-1.611155868E-1,2.725984156E-2
5.383847620E0,1.788306683E-1,-1.397353113E-1,4.192059487E-2
5.388602828E0,1.892153621E-1,-1.226311028E-1,5.230529606E-2
5.393358036E0,1.904370934E-1,-1.098029464E-1,5.902481079E-2
5.398113297E0,1.812741160E-1,-9.819651395E-2,6.146826968E-2
5.402868505E0,1.672242284E-1,-8.048143238E-2,6.146826968E-2
5.407623765E0,1.488982886E-1,-5.543597788E-2,6.024653837E-2
5.412378974E0,1.305723488E-1,-2.122755162E-2,5.658135191E-2
5.417134182E0,1.091920808E-1,1.725693047E-2,4.925097153E-2
5.421889442E0,8.353576064E-2,5.574141070E-2,3.703367710E-2
5.426644651E0,5.238165334E-2,8.933897316E-2,2.054032870E-2
5.431399859E0,1.878409274E-2,1.149952933E-1,9.926552884E-4
5.436155120E0,-1.786779426E-2,1.351538301E-1,-1.611155830E-2
5.440910328E0,-5.390881747E-2,1.473711282E-1,-3.382663801E-2
5.445665536E0,-8.811724186E-2,1.534797698E-1,-4.421133921E-2
5.450420797E0,-1.162170246E-1,1.522580534E-1,-5.154171586E-2
5.455176005E0,-1.388190240E-1,1.461493969E-1,-5.765036494E-2
5.459931213E0,-1.534797698E-1,1.382081509E-1,-6.559160352E-2
5.464686474E0,-1.583666950E-1,1.302669197E-1,-7.475458086E-2
5.469441682E0,-1.571449637E-1,1.259908676E-1,-9.002619982E-2
5.474196942E0,-1.522580534E-1,1.217148080E-1,-1.059086844E-1
5.478952151E0,-1.443168074E-1,1.137735620E-1,-1.211803034E-1
5.483707359E0,-1.351538301E-1,9.789107740E-2,-1.333975941E-1
5.488462620E0,-1.241582632E-1,7.712167501E-2,-1.376736462E-1
5.493217828E0,-1.131627038E-1,5.329795182E-2,-1.352301836E-1
5.497973036E0,-1.003345400E-1,2.764163166E-2,-1.242346242E-1
5.502728297E0,-8.750637621E-2,5.039634649E-3,-1.095738709E-1
5.507483505E0,-7.467821985E-2,-1.572976820E-2,-9.430225194E-2
5.512238713E0,-6.185005978E-2,-3.222311661E-2,-8.147408813E-2
5.516993974E0,-5.085449293E-2,-4.688387364E-2,-7.231111825E-2
5.521749182E0,-4.046979174E-2,-5.787943676E-2,-6.803506613E-2
5.526504442E0,-3.313941509E-2,-6.215549260E-2,-6.436987966E-2
5.531259651E0,-2.641990222E-2,-5.971203372E-2,-5.948295817E-2
5.536014859E0,-2.275471389E-2,-4.749473557E-2,-5.154171586E-2
5.540770120E0,-2.153298259E-2,-3.100138716E-2,-4.054614902E-2
5.545525328E0,-2.397644334E-2,-1.206457894E-2,-2.466366626E-2
5.550280536E0,-2.580903657E-2,1.237001177E-2,-9.392046370E-3
5.555035797E0,-2.947422490E-2,4.169152305E-2,5.268708803E-3
5.559791005E0,-3.130681813E-2,7.345648855E-2,1.748600416E-2
5.564546213E0,-3.497200832E-2,1.039997265E-1,2.603811212E-2
5.569301474E0,-4.046979174E-2,1.308777779E-1,2.725984156E-2
5.574056682E0,-4.780016840E-2,1.565341055E-1,2.298378758E-2
5.578811890E0,-5.757400393E-2,1.815795600E-1,1.259908639E-2
5.583567151E0,-6.979130208E-2,2.029598206E-1,-8.399390499E-4
5.588322359E0,-8.323032409E-2,2.170097083E-1,-1.305723470E-2
5.593077620E0,-9.605848789E-2,2.231183648E-1,-2.283107117E-2
5.597832828E0,-1.046105921E-1,2.194531709E-1,-2.771798894E-2
5.602588036E0,-1.107192412E-1,2.041815519E-1,-2.710712515E-2
5.607343297E0,-1.101083755E-1,1.779143661E-1,-2.405280061E-2
5.612098505E0,-1.070540547E-1,1.467602700E-1,-2.160934173E-2
5.616853713E0,-1.003345400E-1,1.107192412E-1,-2.222020552E-2
5.621608974E0,-9.361502528E-2,7.834340632E-2,-2.649625950E-2
5.626364182E0,-8.261945844E-2,4.841103405E-2,-3.382663801E-2
5.631119390E0,-6.795870513E-2,2.336557768E-2,-3.749182448E-2
5.635874651E0,-4.902189970E-2,-2.290742937E-3,-3.810269013E-2
5.640629859E0,-2.825249545E-2,-2.672533318E-2,-3.077231348E-2
5.645385067E0,-6.261364091E-3,-5.482511222E-2,-2.038761228E-2
5.650140328E0,1.695149764E-2,-8.597921580E-2,-4.505127668E-3
5.654895536E0,4.016435891E-2,-1.140789986E-1,1.382081583E-2
5.659650745E0,6.276635826E-2,-1.409570426E-1,3.275762498E-2
5.664406005E0,8.292489499E-2,-1.653916389E-1,4.925097153E-2
5.669161213E0,1.018617004E-1,-1.824958473E-1,5.902481079E-2
5.673916474E0,1.165224537E-1,-1.898262352E-1,6.268999726E-2
5.678671682E0,1.256854236E-1,-1.855501831E-1,6.024653837E-2
5.683426890E0,1.287397593E-1,-1.721111536E-1,5.597048625E-2
5.688182151E0,1.238528341E-1,-1.495091617E-1,4.925097153E-2
5.692937359E0,1.104138121E-1,-1.189659163E-1,4.130972922E-2
5.697692567E0,8.964440972E-2,-8.109229803E-2,3.153589368E-2
5.702447828E0,6.582067907E-2,-3.833176568E-2,2.359465137E-2
5.707203036E0,4.138609022E-2,6.872228812E-3,1.565340906E-2
5.711958245E0,1.695149764E-2,5.574141070E-2,7.712167688E-3
5.716713505E0,-7.483093534E-3,1.021671370E-1,-2.290742996E-4
5.721468713E0,-3.008509055E-2,1.437059343E-1,-1.000291109E-2
5.726223922E0,-5.329795182E-2,1.760817766E-1,-2.222020552E-2
5.730979182E0,-7.773254067E-2,1.962403059E-1,-3.260490671E-2
5.735734390E0,-1.015562713E-1,2.035706937E-1,-4.176788032E-2
5.740489599E0,-1.235474050E-1,2.011272311E-1,-5.031998456E-2
5.745244859E0,-1.424842030E-1,1.931859851E-1,-5.520690605E-2
5.750000067E0,-1.571449637E-1,1.815795600E-1,-5.887209252E-2
5.754755276E0,-1.656970680E-1,1.675296724E-1,-5.887209252E-2
5.759510536E0,-1.687513888E-1,1.547015011E-1,-5.948295817E-2
5.764265745E0,-1.650862098E-1,1.443168074E-1,-6.192641705E-2
5.769020953E0,-1.565341055E-1,1.369864196E-1,-6.742420048E-2
5.773776213E0,-1.461493969E-1,1.302669197E-1,-7.536543906E-2
5.778531422E0,-1.296560466E-1,1.241582632E-1,-8.269581944E-2
5.783286630E0,-1.113301069E-1,1.137735620E-1,-8.941533417E-2
5.788041890E0,-9.178243577E-2,9.605848789E-2,-9.002619982E-2
5.792797099E0,-7.345648855E-2,6.979130208E-2,-8.941533417E-2
5.797552307E0,-5.635227636E-2,3.313941509E-2,-8.330668509E-2
5.802307567E0,-4.108065739E-2,-1.023198478E-2,-7.780890167E-2
5.807062776E0,-2.764163166E-2,-5.115992576E-2,-6.803506613E-2
5.811817984E0,-1.970038936E-2,-8.536835015E-2,-5.703949928E-2
5.816573245E0,-1.175914705E-2,-1.055268943E-1,-4.787652567E-2
5.821328453E0,-1.053741761E-2,-1.140789986E-1,-3.871355578E-2
5.826083661E0,-1.359174121E-2,-1.134681329E-1,-3.260490671E-2
5.830838922E0,-2.214384824E-2,-1.110246703E-1,-3.077231348E-2
5.835594130E0,-3.680460155E-2,-1.116355360E-1,-3.077231348E-2
5.840349390E0,-5.329795182E-2,-1.110246703E-1,-3.016144782E-2
5.845104599E0,-6.856957078E-2,-1.036942974E-1,-2.344193682E-2
5.849859807E0,-7.895427197E-2,-9.086613357E-2,-1.244636998E-2
5.854615067E0,-8.261945844E-2,-7.315105945E-2,-1.450803829E-3
5.859370276E0,-8.323032409E-2,-5.299251899E-2,8.323032409E-3
5.864125484E0,-8.261945844E-2,-3.283398226E-2,8.323032409E-3
5.868880745E0,-8.323032409E-2,-1.023198478E-2,4.046979360E-3
5.873635953E0,-8.567378670E-2,1.603520103E-2,-3.894262947E-3
5.878391161E0,-9.361502528E-2,4.718930274E-2,-1.488982886E-2
5.883146422E0,-1.052214578E-1,8.017600328E-2,-2.588539571E-2
5.887901630E0,-1.229365394E-1,1.156061590E-1,-3.504836559E-2
5.892656838E0,-1.443168074E-1,1.547015011E-1,-4.115701467E-2
5.897412099E0,-1.650862098E-1,1.980729103E-1,-4.909825698E-2
5.902167307E0,-1.840230078E-1,2.371682525E-1,-5.520690605E-2
5.906922515E0,-2.035706937E-1,2.628245652E-1,-6.375901401E-2
5.911677776E0,-2.206749022E-1,2.774853408E-1,-7.292198390E-2
5.916432984E0,-2.390008420E-1,2.817613780E-1,-8.208495378E-2
5.921188192E0,-2.506072819E-1,2.823722363E-1,-9.246965498E-2
5.925943453E0,-2.603811026E-1,2.805396616E-1,-1.016326249E-1
5.930698661E0,-2.658788860E-1,2.787070572E-1,-1.101847365E-1
5.935453870E0,-2.683223486E-1,2.780961990E-1,-1.150716543E-1
5.940209130E0,-2.640463114E-1,2.756527364E-1,-1.199585721E-1
5.944964338E0,-2.585485280E-1,2.646571696E-1,-1.230128929E-1
5.949719547E0,-2.487746775E-1,2.444986254E-1,-1.254563481E-1
5.954474807E0,-2.365573794E-1,2.151771188E-1,-1.291215420E-1
5.959230015E0,-2.206749022E-1,1.785252392E-1,-1.327867359E-1
5.963985224E0,-2.023489624E-1,1.382081509E-1,-1.346193254E-1
5.968740484E0,-1.791360974E-1,9.178243577E-2,-1.340084672E-1
5.973495692E0,-1.559232324E-1,3.375028074E-2,-1.266780794E-1
5.978250901E0,-1.369864196E-1,-3.161225095E-2,-1.181259751E-1
5.983006161E0,-1.278234571E-1,-8.842267841E-2,-1.065195426E-1
5.987761370E0,-1.211039424E-1,-1.183550507E-1,-9.185878932E-2
5.992516578E0,-1.149952933E-1,-1.256854236E-1,-6.925679743E-2
5.997271838E0,-1.046105921E-1,-1.226311028E-1,-4.360047355E-2
6.002027047E0,-8.994983882E-2,-1.244636998E-1,-1.733328775E-2
6.006782255E0,-6.307178736E-2,-1.317940801E-1,7.712167688E-3
6.011537515E0,-2.397644334E-2,-1.476765573E-1,3.153589368E-2
6.016292724E0,2.428187430E-2,-1.751654744E-1,5.230529606E-2
6.021047932E0,8.109229803E-2,-2.081521749E-1,7.063124329E-2
6.025803140E0,1.415679157E-1,-2.405280024E-1,8.895718306E-2
6.030558401E0,2.081521749E-1,-2.698495090E-1,1.060613990E-1
6.035313609E0,2.753472924E-1,-3.003927469E-1,1.225547493E-1
6.040068870E0,3.364337683E-1,-3.358229101E-1,1.396589577E-1
6.044824078E0,3.920224607E-1,-3.694204688E-1,1.555414498E-1
6.049579286E0,4.372264743E-1,-3.962985277E-1,1.708130687E-1
6.054334495E0,4.720457494E-1,-4.140135944E-1,1.842520833E-1
6.059089755E0,4.922043085E-1,-4.219548404E-1,1.952476501E-1
6.063844963E0,4.970912039E-1,-4.134027362E-1,2.025780380E-1
6.068600172E0,4.879282415E-1,-3.828594983E-1,2.068540901E-1
6.073355432E0,4.616610706E-1,-3.639226854E-1,2.044106275E-1
6.078110640E0,4.231765866E-1,-3.474293351E-1,1.915824711E-1
6.082865849E0,3.730856776E-1,-3.205513060E-1,1.726456583E-1
6.087621109E0,3.144426346E-1,-2.838993967E-1,1.476002038E-1
6.092376317E0,2.515235841E-1,-2.399171442E-1,1.182786897E-1
6.097131526E0,1.867718995E-1,-1.867718995E-1,8.712458611E-2
6.101886786E0,1.232419685E-1,-1.354592592E-1,5.597048625E-2
6.106641995E0,6.276635826E-2,-8.414662629E-2,2.603811212E-2
6.111397203E0,8.399390616E-3,-3.772090003E-2,-1.450803829E-3
6.116152463E0,-3.436114267E-2,1.985310577E-3,-2.527453005E-2
6.120907672E0,-6.368265301E-2,3.497200832E-2,-4.543306679E-2
6.125662880E0,-8.323032409E-2,5.696314201E-2,-6.375901401E-2
6.130418140E0,-9.178243577E-2,6.429351866E-2,-8.086322248E-2
6.135173349E0,-8.994983882E-2,5.574141070E-2,-9.491311759E-2
6.139928557E0,-8.017600328E-2,2.947422490E-2,-1.052978188E-1
6.144683817E0,-6.612611562E-2,-4.734201822E-3,-1.107956022E-1
6.149439026E0,-4.841103405E-2,-3.222311661E-2,-1.101847365E-1
6.154194234E0,-2.764163166E-2,-5.421425030E-2,-1.034652218E-1
6.158949495E0,-8.093958721E-3,-7.131846249E-2,-9.552398324E-2
6.163704703E0,1.023198478E-2,-8.170316368E-2,-8.452841640E-2
6.168459911E0,2.794706449E-2,-8.414662629E-2,-7.597630471E-2
6.173215172E0,4.444041103E-2,-7.925970852E-2,-7.047852129E-2
6.177970380E0,5.787943676E-2,-6.887500733E-2,-6.864593178E-2
6.182725588E0,6.520981342E-2,-6.093376130E-2,-7.108938694E-2
6.187480797E0,6.704241037E-2,-4.993819445E-2,-7.536543906E-2
6.192236057E0,6.215549260E-2,-3.833176568E-2,-7.903063297E-2
6.196991265E0,5.177079141E-2,-1.817322709E-2,-8.025235683E-2
6.201746474E0,3.711003438E-2,6.261364091E-3,-8.147408813E-2
6.206501734E0,1.939495653E-2,3.436114267E-2,-8.208495378E-2
6.211256942E0,-3.207040019E-3,6.612611562E-2,-8.391755074E-2
6.216012151E0,-2.764163166E-2,9.789107740E-2,-8.758273721E-2
6.220767411E0,-5.329795182E-2,1.217148080E-1,-9.552398324E-2
6.225522620E0,-7.895427197E-2,1.449276656E-1,-1.052978188E-1
6.230277828E0,-1.058323234E-1,1.711948514E-1,-1.181259751E-1
6.235033088E0,-1.272125840E-1,1.992946416E-1,-1.315650046E-1
6.239788297E0,-1.430950761E-1,2.212857604E-1,-1.425605714E-1
6.244543505E0,-1.540906429E-1,2.438877672E-1,-1.468366235E-1
6.249298765E0,-1.583666950E-1,2.646571696E-1,-1.492800862E-1
6.254053974E0,-1.504254490E-1,2.835939825E-1,-1.511126757E-1
6.258809182E0,-1.320995092E-1,3.019199073E-1,-1.498909444E-1
6.263564442E0,-1.064431891E-1,3.092502952E-1,-1.443931609E-1
6.268319651E0,-7.589995116E-2,3.025307953E-1,-1.346193254E-1
6.273074859E0,-4.230238497E-2,2.988655865E-1,-1.217911690E-1
6.277830067E0,-1.359174121E-2,3.446804583E-1,-1.052978188E-1
6.282585328E0,7.788525894E-3,3.043633699E-1,-8.697187155E-2
6.287340536E0,2.611446939E-2,1.595884264E-1,-6.009382382E-2
6.292095745E0,4.321868345E-2,6.307178736E-2,-1.550069358E-2
6.296851005E0,5.604684353E-2,-1.511890348E-2,3.397935256E-2
6.301606213E0,5.726857483E-2,-4.016435891E-2,8.529199660E-2
6.306361422E0,4.871646687E-2,-6.566796452E-3,1.396589577E-1
6.311116682E0,3.527744114E-2,1.970038936E-2,1.952476501E-1
6.315871890E0,1.939495653E-2,-1.023198478E-2,2.416733801E-1
6.320627099E0,-6.872228812E-3,-9.453132749E-2,2.722166181E-1
6.325382307E0,-2.397644334E-2,-1.592829973E-1,2.942077518E-1
6.330137567E0,-2.886336111E-2,-1.941022873E-1,3.149771392E-1
6.334892776E0,-3.313941509E-2,-2.264781147E-1,3.357465565E-1
6.339647984E0,-4.291325063E-2,-2.606865466E-1,3.589594066E-1
6.344403245E0,-5.146535859E-2,-2.924515009E-1,3.827831447E-1
6.349158453E0,-5.574141070E-2,-3.162752390E-1,4.090503156E-1
6.353913661E0,-5.085449293E-2,-3.303251266E-1,4.347066581E-1
6.358668922E0,-3.802633286E-2,-3.388772309E-1,4.560869038E-1
6.363424130E0,-1.908952370E-2,-3.455967605E-1,4.713585377E-1
6.368179338E0,9.621120058E-3,-3.504836559E-1,4.768563211E-1
6.372934599E0,5.054906011E-2,-3.474293351E-1,4.738020003E-1
6.377689807E0,1.036942974E-1,-3.321577311E-1,4.591412544E-1
6.382445015E0,1.727220118E-1,-3.046688139E-1,4.389826953E-1
6.387200224E0,2.515235841E-1,-2.716821134E-1,4.096612036E-1
6.391955484E0,3.400989771E-1,-2.331976295E-1,3.748418987E-1
6.396710692E0,4.347830117E-1,-1.910479665E-1,3.351356983E-1
6.401465901E0,5.331322551E-1,-1.507308781E-1,2.880991101E-1
6.406221161E0,6.272054315E-1,-1.201876476E-1,2.209039778E-1
6.410976370E0,7.249437571E-1,-9.147699922E-2,1.427132785E-1
6.415731578E0,8.214604259E-1,-7.192932814E-2,7.307469845E-2
6.420486838E0,8.898772597E-1,-6.215549260E-2,1.626427472E-2
6.425242047E0,9.253074527E-1,-5.482511222E-2,-2.344193682E-2
6.429997255E0,9.326378107E-1,-5.238165334E-2,-4.604393244E-2
6.434752515E0,9.075923562E-1,-5.543597788E-2,-5.093085021E-2
6.439507724E0,8.544471264E-1,-6.459894776E-2,-4.176788032E-2
6.444262932E0,7.719803452E-1,-7.742711157E-2,-1.794415340E-2
6.449018140E0,6.681333780E-1,-9.269873053E-2,1.626427472E-2
6.453773401E0,5.490147471E-1,-1.049160287E-1,5.413788930E-2
6.458528609E0,4.237874448E-1,-1.085812151E-1,9.323323518E-2
6.463283817E0,2.973384261E-1,-1.000291109E-1,1.298851222E-1
6.468039078E0,1.794415265E-1,-7.742711157E-2,1.610392332E-1
6.472794286E0,7.192932814E-2,-3.588830680E-2,1.854738146E-1
6.477549495E0,-1.298087649E-2,2.336557768E-2,1.976911128E-1
6.482304755E0,-7.406735420E-2,9.056070447E-2,1.989128441E-1
6.487059963E0,-1.070540547E-1,1.620318890E-1,1.903607398E-1
6.491815172E0,-1.125518382E-1,2.267835438E-1,1.756999791E-1
6.496570380E0,-1.009454057E-1,2.799287736E-1,1.640935540E-1
6.501325640E0,-7.162389904E-2,3.233001828E-1,1.543197185E-1
6.506080849E0,-3.497200832E-2,3.538434207E-1,1.463784724E-1
6.510836057E0,1.069013379E-3,3.691150546E-1,1.372154951E-1
6.515591317E0,2.855792828E-2,3.666715920E-1,1.274416596E-1
6.520346526E0,4.810560122E-2,3.568977416E-1,1.158352345E-1
6.525101734E0,5.604684353E-2,3.422369957E-1,1.023962051E-1
6.529856942E0,5.115992576E-2,3.214675784E-1,8.773545176E-2
6.534612203E0,3.527744114E-2,2.958112657E-1,7.246383280E-2
6.539367411E0,1.206457894E-2,2.628245652E-1,5.597048625E-2
6.544122620E0,-1.908952370E-2,2.231183648E-1,4.008800164E-2
6.548877880E0,-5.268708616E-2,1.828012913E-1,2.725984156E-2
6.553633088E0,-8.323032409E-2,1.455385387E-1,1.687514037E-2
6.558388297E0,-1.131627038E-1,1.119409725E-1,1.382081583E-2
6.563143505E0,-1.418733448E-1,8.628465235E-2,1.443168055E-2
6.567898765E0,-1.681405306E-1,7.284562290E-2,2.115119249E-2
6.572653974E0,-1.925751269E-1,7.162389904E-2,2.848157100E-2
6.577409182E0,-2.109010667E-1,7.895427197E-2,3.459021822E-2
6.582164442E0,-2.218966335E-1,9.178243577E-2,3.886627033E-2
6.586919651E0,-2.231183648E-1,1.070540547E-1,3.886627033E-2
6.591674859E0,-2.170097083E-1,1.229365394E-1,3.459021822E-2
6.596430120E0,-2.011272311E-1,1.345429718E-1,3.031416424E-2
6.601185328E0,-2.047924101E-1,1.137735620E-1,2.359465137E-2
6.605940536E0,-2.872591615E-1,7.635809598E-4,-1.366809942E-2
6.610695745E0,-3.575085998E-1,-5.849030241E-2,-7.353284955E-2
6.615451005E0,-3.459021747E-1,2.596175298E-3,-1.138499230E-1
6.620206213E0,-3.031416535E-1,1.088866442E-1,-1.572213173E-1
6.624961422E0,-2.353356630E-1,2.304487377E-1,-2.109774202E-1
6.629716630E0,-1.516471803E-1,3.391826749E-1,-2.555705607E-1
6.634471890E0,-7.284562290E-2,3.953822255E-1,-2.830594778E-1
6.639227099E0,-1.542433538E-2,3.843866587E-1,-2.897789776E-1
6.643982307E0,2.306014486E-2,3.281871080E-1,-2.836703360E-1
6.648737567E0,4.260781780E-2,2.463312149E-1,-2.683987021E-1
6.653492776E0,4.749473557E-2,1.687513888E-1,-2.506836355E-1
6.658247984E0,6.154462695E-2,1.339320987E-1,-2.335794270E-1
6.663003192E0,7.254019380E-2,1.314886510E-1,-2.231947184E-1
6.667758453E0,7.987056673E-2,1.547015011E-1,-2.225838602E-1
6.672513661E0,8.170316368E-2,1.913533956E-1,-2.317468226E-1
6.677268870E0,7.498364896E-2,2.304487377E-1,-2.500727773E-1
6.682024130E0,6.459894776E-2,2.664897740E-1,-2.751182318E-1
6.686779338E0,4.321868345E-2,2.866483033E-1,-2.977202237E-1
6.691534547E0,7.177661173E-3,2.835939825E-1,-3.111592531E-1
6.696289807E0,-3.741546720E-2,2.695440948E-1,-3.160461783E-1
6.701045015E0,-6.795870513E-2,2.738201320E-1,-3.172678947E-1
6.705800224E0,-8.567378670E-2,2.970330119E-1,-3.136027157E-1
6.710555432E0,-9.789107740E-2,3.263545036E-1,-3.087157905E-1
6.715310692E0,-1.131627038E-1,3.471239209E-1,-3.013854027E-1
6.720065901E0,-1.351538301E-1,3.520108163E-1,-2.958876193E-1
6.724821109E0,-1.632536054E-1,3.446804583E-1,-2.903898358E-1
6.729576317E0,-1.937968582E-1,3.355174661E-1,-2.861137986E-1
6.734331578E0,-2.261726856E-1,3.281871080E-1,-2.824485898E-1
6.739086786E0,-2.567159235E-1,3.287979662E-1,-2.793942690E-1
6.743841995E0,-2.842048407E-1,3.330740333E-1,-2.751182318E-1
6.748597255E0,-3.092502952E-1,3.397935331E-1,-2.683987021E-1
6.753352463E0,-3.269653618E-1,3.483456373E-1,-2.592357397E-1
6.758107672E0,-3.422369957E-1,3.556760252E-1,-2.476293147E-1
6.762862880E0,-3.520108163E-1,3.526217043E-1,-2.335794270E-1
6.767618140E0,-3.605629504E-1,3.361283541E-1,-2.219729871E-1
6.772373349E0,-3.672824502E-1,3.165806830E-1,-2.085339576E-1
6.777128557E0,-3.733910918E-1,2.909243405E-1,-1.932623386E-1
6.781883817E0,-3.776671588E-1,2.530507445E-1,-1.737146676E-1
6.786639026E0,-3.740019500E-1,2.060141414E-1,-1.462257504E-1
6.791394234E0,-3.630063832E-1,1.559232324E-1,-1.077412739E-1
6.796149442E0,-3.452913165E-1,9.850194305E-2,-5.887209252E-2
6.800904703E0,-3.184132576E-1,2.519817278E-2,-1.122464053E-2
6.805659911E0,-2.835939825E-1,-6.154462695E-2,3.092502989E-2
6.810415120E0,-2.408334464E-1,-1.470656991E-1,6.879864633E-2
6.815170328E0,-1.895207912E-1,-2.240346521E-1,1.017853469E-1
6.819925588E0,-1.308777779E-1,-2.826776803E-1,1.329394430E-1
6.824680797E0,-6.734783947E-2,-3.278816640E-1,1.628718227E-1
6.829436005E0,1.069013379E-3,-3.608683646E-1,1.903607398E-1
6.834191265E0,7.437278330E-2,-3.877464235E-1,2.092975378E-1
6.838946474E0,1.507308781E-1,-4.115701318E-1,2.196822464E-1
6.843701682E0,2.264781147E-1,-4.347830117E-1,2.209039778E-1
6.848456890E0,2.985601723E-1,-4.573850036E-1,2.160170525E-1
6.853212151E0,3.675878942E-1,-4.732674956E-1,2.068540901E-1
6.857967359E0,4.317286909E-1,-4.836521745E-1,1.940259188E-1
6.862722567E0,4.854847789E-1,-4.897608459E-1,1.787542999E-1
6.867477776E0,5.270236135E-1,-4.952586293E-1,1.659261435E-1
6.872233036E0,5.557342172E-1,-5.038107038E-1,1.530979872E-1
6.876988245E0,5.703949928E-1,-5.129737258E-1,1.439350098E-1
6.881743453E0,5.716167092E-1,-5.141954422E-1,1.408806890E-1
6.886498661E0,5.532907844E-1,-4.909825623E-1,1.512653977E-1
6.891253922E0,5.196931958E-1,-4.689914286E-1,1.702021956E-1
6.896009130E0,4.726566374E-1,-4.586067200E-1,1.921933293E-1
6.900764338E0,4.195113778E-1,-4.512763619E-1,2.105192691E-1
6.905519599E0,3.608683646E-1,-4.421133697E-1,2.251800299E-1
6.910274807E0,3.003927469E-1,-4.195113778E-1,2.270126194E-1
6.915030015E0,2.393062711E-1,-3.816377819E-1,2.178496569E-1
6.919785224E0,1.776089370E-1,-3.278816640E-1,1.983019859E-1
6.924540484E0,1.165224537E-1,-2.661843300E-1,1.714239269E-1
6.929295692E0,5.360338464E-2,-2.008218020E-1,1.359937787E-1
6.934050901E0,-1.114828233E-2,-1.379027218E-1,9.506583214E-2
6.938806109E0,-7.589995116E-2,-8.231402934E-2,4.558578506E-2
6.943561370E0,-1.382081509E-1,-3.588830680E-2,-6.948587019E-3
6.948316578E0,-1.968511790E-1,1.374445739E-3,-5.459604040E-2
6.953071786E0,-2.463312149E-1,3.313941509E-2,-9.674570709E-2
6.957826995E0,-2.872591615E-1,6.185005978E-2,-1.358410567E-1
6.962582255E0,-3.196350038E-1,9.117157012E-2,-1.706603467E-1
6.967337463E0,-3.434587121E-1,1.217148080E-1,-2.024253160E-1
6.972092672E0,-3.587303460E-1,1.485928595E-1,-2.293033600E-1
6.976847932E0,-3.691150546E-1,1.736383140E-1,-2.500727773E-1
6.981603140E0,-3.764454126E-1,1.937968582E-1,-2.665661275E-1
6.986358349E0,-3.849975169E-1,2.066250145E-1,-2.745073736E-1
6.991113557E0,-3.953822255E-1,2.139553875E-1,-2.781725526E-1
6.995868817E0,-4.069886506E-1,2.188423127E-1,-2.781725526E-1
7.000624026E0,-4.198168218E-1,2.249509543E-1,-2.763399482E-1
7.005379234E0,-4.326449931E-1,2.322813272E-1,-2.745073736E-1
7.010134442E0,-4.460839927E-1,2.414443046E-1,-2.738964856E-1
7.014889703E0,-4.583013058E-1,2.591593862E-1,-2.714530230E-1
7.019644911E0,-4.735729098E-1,2.768744528E-1,-2.665661275E-1
7.024400120E0,-4.882336855E-1,2.872591615E-1,-2.702313066E-1
7.029155380E0,-5.016726851E-1,2.884808779E-1,-2.806160152E-1
7.033910588E0,-5.132791400E-1,2.811505198E-1,-2.952767611E-1
7.038665797E0,-5.206094980E-1,2.713766694E-1,-3.074940443E-1
7.043421005E0,-5.230529904E-1,2.616028488E-1,-3.166570365E-1
7.048176265E0,-5.230529904E-1,2.536616027E-1,-3.221548200E-1
7.052931474E0,-5.193877816E-1,2.451094985E-1,-3.227656782E-1
7.057686682E0,-5.090031028E-1,2.371682525E-1,-3.215439618E-1
7.062441890E0,-4.937314689E-1,2.316704690E-1,-3.203222156E-1
7.067197151E0,-4.747946560E-1,2.267835438E-1,-3.191004992E-1
7.071952359E0,-4.564687014E-1,2.212857604E-1,-3.184896111E-1
7.076707567E0,-4.381427765E-1,2.157879770E-1,-3.184896111E-1
7.081462776E0,-4.216494262E-1,2.060141414E-1,-3.172678947E-1
7.086218036E0,-4.057669342E-1,1.925751269E-1,-3.129918277E-1
7.090973245E0,-3.898844421E-1,1.791360974E-1,-3.056614697E-1
7.095728453E0,-3.746128380E-1,1.644753367E-1,-2.971093655E-1
7.100483661E0,-3.587303460E-1,1.504254490E-1,-2.855029404E-1
7.105238922E0,-3.410152495E-1,1.394298822E-1,-2.714530230E-1
7.109994130E0,-3.233001828E-1,1.314886510E-1,-2.586248815E-1
7.114749338E0,-3.037525117E-1,1.284343153E-1,-2.421315312E-1
7.119504547E0,-2.860374451E-1,1.284343153E-1,-2.262490392E-1
7.124259807E0,-2.707658112E-1,1.327103674E-1,-2.097556889E-1
7.129015015E0,-2.567159235E-1,1.388190240E-1,-1.914297491E-1
7.133770224E0,-2.432768941E-1,1.455385387E-1,-1.694386154E-1
7.138525484E0,-2.335030586E-1,1.485928595E-1,-1.443931609E-1
7.143280692E0,-2.243400961E-1,1.516471803E-1,-1.162933856E-1
7.148035901E0,-2.139553875E-1,1.534797698E-1,-8.513928205E-2
7.152791109E0,-1.999054998E-1,1.577558219E-1,-5.581776798E-2
7.157546370E0,-1.846338809E-1,1.632536054E-1,-3.016144782E-2
7.162301578E0,-1.681405306E-1,1.663079411E-1,-8.170315996E-3
7.167056786E0,-1.485928595E-1,1.669187993E-1,7.712167688E-3
7.171811995E0,-1.290451884E-1,1.589775532E-1,1.870773360E-2
7.176567255E0,-1.088866442E-1,1.467602700E-1,2.725984156E-2
7.181322463E0,-9.117157012E-2,1.278234571E-1,3.703367710E-2
7.186077672E0,-7.406735420E-2,1.088866442E-1,4.558578506E-2
7.190832880E0,-6.001746282E-2,9.117157012E-2,5.169443041E-2
7.195588140E0,-4.413498193E-2,7.712167501E-2,5.719221383E-2
7.200343349E0,-2.886336111E-2,6.979130208E-2,6.085740402E-2
7.205098557E0,-1.175914705E-2,7.101303339E-2,5.963567272E-2
7.209853765E0,6.566796452E-3,8.017600328E-2,5.291616172E-2
7.214609026E0,2.428187430E-2,9.239330143E-2,4.192059487E-2
7.219364234E0,3.649916872E-2,9.972367436E-2,3.092502989E-2
7.224119442E0,4.444041103E-2,9.911280870E-2,2.237292193E-2
7.228874651E0,4.810560122E-2,9.239330143E-2,1.504254527E-2
7.233629911E0,4.871646687E-2,7.712167501E-2,9.544761851E-3
7.238385120E0,4.993819445E-2,6.185005978E-2,7.101302966E-3
7.243140328E0,5.421425030E-2,4.963276163E-2,1.015562657E-2
7.247895536E0,6.276635826E-2,4.046979174E-2,1.565340906E-2
7.252650797E0,7.376192510E-2,3.008509055E-2,2.054032870E-2
7.257406005E0,8.414662629E-2,1.908952370E-2,2.359465137E-2
7.262161213E0,9.758564830E-2,5.650499370E-3,2.359465137E-2
7.266916474E0,1.091920808E-1,-9.010255337E-3,1.992946304E-2
7.271671682E0,1.195767820E-1,-2.428187430E-2,1.565340906E-2
7.276426890E0,1.311832070E-1,-4.138609022E-2,1.015562657E-2
7.281182099E0,1.403461844E-1,-5.726857483E-2,9.926552884E-4
7.285937359E0,1.488982886E-1,-7.437278330E-2,-4.505127668E-3
7.290692567E0,1.562286615E-1,-9.208786488E-2,-6.337722298E-3
7.295447776E0,1.617264450E-1,-1.098029464E-1,-3.894262947E-3
7.300202984E0,1.672242284E-1,-1.311832070E-1,2.214384731E-3
7.304958192E0,1.684459597E-1,-1.537852138E-1,8.933897130E-3
7.309713453E0,1.666133702E-1,-1.727220118E-1,1.809686981E-2
7.314468661E0,1.623373181E-1,-1.824958473E-1,2.848157100E-2
7.319223870E0,1.525634825E-1,-1.843284518E-1,3.459021822E-2
7.323979130E0,1.391244531E-1,-1.788306683E-1,3.825540841E-2
7.328734338E0,1.232419685E-1,-1.715002805E-1,4.008800164E-2
7.333489547E0,1.006399691E-1,-1.641699076E-1,4.253146052E-2
7.338244755E0,7.620538026E-2,-1.519526094E-1,4.680751264E-2
7.343000015E0,5.177079141E-2,-1.311832070E-1,5.047270283E-2
7.347755224E0,3.039052337E-2,-1.006399691E-1,5.413788930E-2
7.352510432E0,9.621120058E-3,-5.849030241E-2,5.597048625E-2
7.357265640E0,-9.926552884E-3,-1.328630932E-2,5.535962060E-2
7.362020901E0,-2.886336111E-2,3.313941509E-2,5.108356848E-2
7.366776109E0,-5.024362728E-2,7.589995116E-2,4.314232618E-2
7.371531317E0,-7.162389904E-2,1.131627038E-1,3.459021822E-2
7.376286526E0,-9.300415963E-2,1.424842030E-1,2.603811212E-2
7.381041786E0,-1.094975099E-1,1.608101577E-1,1.748600416E-2
7.385796995E0,-1.235474050E-1,1.681405306E-1,1.198822167E-2
7.390552203E0,-1.351538301E-1,1.644753367E-1,9.544761851E-3
7.395307411E0,-1.394298822E-1,1.565341055E-1,1.015562657E-2
7.400062620E0,-1.394298822E-1,1.449276656E-1,1.259908639E-2
7.404817880E0,-1.320995092E-1,1.296560466E-1,1.320995111E-2
7.409573088E0,-1.204930767E-1,1.076649204E-1,1.320995111E-2
7.414328297E0,-1.064431891E-1,8.567378670E-2,8.323032409E-3
7.419083557E0,-8.872810751E-2,6.001746282E-2,9.926552884E-4
7.423838765E0,-7.284562290E-2,3.497200832E-2,-9.392046370E-3
7.428593974E0,-5.513054505E-2,9.926552884E-3,-1.794415340E-2
7.433349182E0,-3.924806044E-2,-1.328630932E-2,-2.649625950E-2
7.438104442E0,-2.336557768E-2,-3.772090003E-2,-3.260490671E-2
7.442859651E0,-7.483093534E-3,-6.093376130E-2,-3.565923125E-2
7.447614859E0,9.621120058E-3,-8.170316368E-2,-3.565923125E-2
7.452370067E0,2.794706449E-2,-9.453132749E-2,-3.382663801E-2
7.457125328E0,4.505127668E-2,-1.000291109E-1,-3.077231348E-2
7.461880536E0,6.093376130E-2,-9.941824526E-2,-2.588539571E-2
7.466635745E0,7.254019380E-2,-9.575305134E-2,-1.855501719E-2
7.471390953E0,8.231402934E-2,-9.147699922E-2,-1.183550525E-2
7.476146213E0,8.781181276E-2,-9.086613357E-2,-4.505127668E-3
7.480901422E0,8.964440972E-2,-9.392046183E-2,5.879573524E-3
7.485656630E0,8.720094711E-2,-9.758564830E-2,1.626427472E-2
7.490411838E0,8.536835015E-2,-1.006399691E-1,2.725984156E-2
7.495167099E0,8.048143238E-2,-9.941824526E-2,3.886627033E-2
7.499922307E0,7.498364896E-2,-9.514218569E-2,4.925097153E-2
7.504677515E0,7.009673119E-2,-8.475748450E-2,5.902481079E-2
7.509432724E0,6.398808211E-2,-7.192932814E-2,6.391172856E-2
7.514187984E0,5.665770918E-2,-5.971203372E-2,6.696604937E-2
7.518943192E0,4.444041103E-2,-4.993819445E-2,6.452259421E-2
7.523698401E0,2.855792828E-2,-3.894263133E-2,6.024653837E-2
7.528453609E0,1.145371422E-2,-2.733619884E-2,5.597048625E-2
7.533208870E0,-3.817904973E-3,-1.145371422E-2,5.047270283E-2
7.537964078E0,-1.908952370E-2,5.039634649E-3,4.925097153E-2
7.542719286E0,-2.641990222E-2,2.275471389E-2,4.864010960E-2
7.547474495E0,-3.069595434E-2,3.680460155E-2,4.864010960E-2
7.552229755E0,-3.191768378E-2,4.108065739E-2,4.680751264E-2
7.556984963E0,-2.947422490E-2,4.046979174E-2,4.436405376E-2
7.561740172E0,-2.703076601E-2,3.436114267E-2,3.703367710E-2
7.566495380E0,-2.703076601E-2,2.641990222E-2,2.664897591E-2
7.571250640E0,-2.886336111E-2,1.908952370E-2,1.320995111E-2
7.576005849E0,-3.375028074E-2,1.298087649E-2,-2.290742996E-4
7.580761057E0,-4.108065739E-2,6.872228812E-3,-1.122464053E-2
7.585516265E0,-4.780016840E-2,1.985310577E-3,-1.977674663E-2
7.590271526E0,-5.329795182E-2,-2.901607659E-3,-2.466366626E-2
7.595026734E0,-5.513054505E-2,-7.177661173E-3,-2.588539571E-2
7.599781942E0,-5.513054505E-2,-1.023198478E-2,-2.588539571E-2
7.604537151E0,-5.390881747E-2,-1.634063199E-2,-2.527453005E-2
7.609292411E0,-5.024362728E-2,-2.244928107E-2,-2.710712515E-2
7.614047620E0,-4.657844082E-2,-2.489273995E-2,-2.955058403E-2
7.618802828E0,-4.352411628E-2,-1.939495653E-2,-3.199404106E-2
7.623558036E0,-4.046979174E-2,-7.177661173E-3,-3.627009690E-2
7.628313297E0,-4.046979174E-2,5.039634649E-3,-3.932442144E-2
7.633068505E0,-4.413498193E-2,1.970038936E-2,-3.871355578E-2
7.637823713E0,-4.780016840E-2,3.313941509E-2,-3.810269013E-2
7.642578922E0,-5.207622424E-2,4.230238497E-2,-3.321577236E-2
7.647334182E0,-5.207622424E-2,4.780016840E-2,-2.344193682E-2
7.652089390E0,-5.024362728E-2,4.841103405E-2,-1.244636998E-2
7.656844599E0,-4.291325063E-2,4.596757516E-2,-8.399390499E-4
7.661599807E0,-3.191768378E-2,3.924806044E-2,1.015562657E-2
7.666355067E0,-1.970038936E-2,3.069595434E-2,1.809686981E-2
7.671110276E0,-9.315688163E-3,2.092211880E-2,2.298378758E-2
7.675865484E0,1.069013379E-3,9.315688163E-3,2.664897591E-2
7.680620692E0,1.145371422E-2,-3.512472380E-3,2.970330045E-2
7.685375953E0,2.122755162E-2,-1.572976820E-2,3.336848691E-2
7.690131161E0,3.100138716E-2,-2.733619884E-2,4.130972922E-2
7.694886370E0,3.955349326E-2,-3.955349326E-2,5.169443041E-2
7.699641578E0,4.993819445E-2,-4.932733253E-2,6.391172856E-2
7.704396838E0,6.032289565E-2,-5.665770918E-2,7.490729541E-2
7.709152047E0,7.131846249E-2,-6.459894776E-2,8.590286225E-2
7.713907255E0,8.048143238E-2,-7.376192510E-2,9.506583214E-2
7.718662463E0,9.086613357E-2,-8.414662629E-2,1.011744812E-1
7.723417724E0,1.030834317E-1,-9.392046183E-2,1.054505333E-1
7.728172932E0,1.140789986E-1,-1.024725661E-1,1.072831303E-1
7.732928140E0,1.232419685E-1,-1.073594838E-1,1.085048541E-1
7.737683349E0,1.287397593E-1,-1.110246703E-1,1.085048541E-1
7.742438557E0,1.336266696E-1,-1.140789986E-1,1.085048541E-1
7.747193817E0,1.385135949E-1,-1.183550507E-1,1.109483168E-1
7.751949026E0,1.415679157E-1,-1.232419685E-1,1.140026376E-1
7.756704234E0,1.464548260E-1,-1.281288862E-1,1.195004210E-1
7.761459442E0,1.525634825E-1,-1.293506175E-1,1.256090701E-1
7.766214703E0,1.580612659E-1,-1.281288862E-1,1.304959953E-1
7.770969911E0,1.611155868E-1,-1.238528341E-1,1.323285848E-1
7.775725120E0,1.605047137E-1,-1.238528341E-1,1.323285848E-1
7.780480328E0,1.605047137E-1,-1.262962967E-1,1.304959953E-1
7.785235588E0,1.568395346E-1,-1.311832070E-1,1.262199283E-1
7.789990797E0,1.525634825E-1,-1.354592592E-1,1.225547493E-1
7.794746005E0,1.458439678E-1,-1.385135949E-1,1.201112866E-1
7.799501213E0,1.397353113E-1,-1.360701323E-1,1.188895553E-1
7.804256474E0,1.348484010E-1,-1.330158114E-1,1.182786897E-1
7.809011682E0,1.287397593E-1,-1.269071549E-1,1.176678315E-1
7.813766890E0,1.226311028E-1,-1.146898642E-1,1.133917719E-1
7.818522099E0,1.159115955E-1,-9.758564830E-2,1.072831303E-1
7.823277359E0,1.079703495E-1,-7.742711157E-2,9.812015295E-2
7.828032567E0,1.000291109E-1,-5.299251899E-2,8.651372790E-2
7.832787776E0,9.086613357E-2,-3.161225095E-2,7.551816106E-2
7.837543036E0,8.170316368E-2,-1.634063199E-2,6.391172856E-2
7.842298245E0,7.437278330E-2,-5.955931731E-3,5.291616172E-2
7.847053453E0,6.704241037E-2,-1.679878100E-3,4.680751264E-2
7.851808661E0,6.215549260E-2,-2.290742937E-3,4.130972922E-2
7.856563870E0,5.971203372E-2,-2.290742937E-3,3.703367710E-2
7.861319130E0,5.665770918E-2,-5.345067009E-3,3.153589368E-2
7.866074338E0,5.360338464E-2,-4.123337101E-3,2.542724647E-2
7.870829547E0,5.054906011E-2,1.985310577E-3,1.931859925E-2
7.875584755E0,4.627300799E-2,1.237001177E-2,1.259908639E-2
7.880340015E0,4.199695215E-2,2.703076601E-2,4.046979360E-3
7.885095224E0,3.039052337E-2,4.169152305E-2,-6.948587019E-3
7.889850432E0,1.511890348E-2,5.451968312E-2,-1.794415340E-2
7.894605640E0,-2.596175298E-3,6.429351866E-2,-2.771798894E-2
7.899360901E0,-2.153298259E-2,7.040216774E-2,-3.627009690E-2
7.904116109E0,-3.985892609E-2,7.467821985E-2,-4.421133921E-2
7.908871317E0,-5.696314201E-2,7.834340632E-2,-4.909825698E-2
7.913626526E0,-7.223475724E-2,8.078686893E-2,-5.215258151E-2
7.918381786E0,-8.384118974E-2,8.323032409E-2,-5.826122686E-2
7.923136995E0,-9.422589093E-2,8.628465235E-2,-6.375901401E-2
7.927892203E0,-1.046105921E-1,8.750637621E-2,-7.108938694E-2
7.932647411E0,-1.119409725E-1,8.078686893E-2,-7.780890167E-2
7.937402620E0,-1.162170246E-1,6.673697382E-2,-8.391755074E-2
7.942157880E0,-1.180496216E-1,5.207622424E-2,-8.636100590E-2
7.946913088E0,-1.180496216E-1,3.619373962E-2,-8.575014025E-2
7.951668297E0,-1.149952933E-1,2.519817278E-2,-8.269581944E-2
7.956423505E0,-1.064431891E-1,1.908952370E-2,-7.658717036E-2
7.961178765E0,-9.605848789E-2,1.603520103E-2,-6.925679743E-2
7.965933974E0,-8.261945844E-2,1.542433538E-2,-6.131555140E-2
7.970689182E0,-6.673697382E-2,1.542433538E-2,-5.581776798E-2
7.975444390E0,-5.085449293E-2,1.420260593E-2,-5.215258151E-2
7.980199651E0,-3.558287397E-2,1.237001177E-2,-4.787652567E-2
7.984954859E0,-2.275471389E-2,6.872228812E-3,-4.298960790E-2
7.989710067E0,-1.359174121E-2,1.527161949E-4,-3.749182448E-2
7.994465276E0,-6.872228812E-3,-7.788525894E-3,-3.199404106E-2
7.999220536E0,-1.985310577E-3,-1.634063199E-2,-2.588539571E-2
8.003975745E0,-7.635809598E-4,-2.428187430E-2,-1.916588284E-2
8.008730953E0,2.901607659E-3,-2.855792828E-2,-1.122464053E-2
8.013486161E0,5.345067009E-3,-3.161225095E-2,-6.948587019E-3
8.018241422E0,9.010255337E-3,-3.283398226E-2,-8.170315996E-3
8.022996630E0,1.328630932E-2,-3.100138716E-2,-1.305723470E-2
8.027751838E0,1.817322709E-2,-2.489273995E-2,-2.344193682E-2
8.032507047E0,2.428187430E-2,-1.817322709E-2,-3.504836559E-2
8.037262307E0,2.733619884E-2,-6.566796452E-3,-4.604393244E-2
8.042017515E0,3.100138716E-2,8.093958721E-3,-5.520690605E-2
8.046772724E0,3.283398226E-2,1.908952370E-2,-5.887209252E-2
8.051527932E0,2.977965772E-2,2.764163166E-2,-5.581776798E-2
8.056283192E0,2.428187430E-2,3.008509055E-2,-4.970912263E-2
8.061038401E0,1.695149764E-2,2.641990222E-2,-3.871355578E-2
8.065793609E0,9.010255337E-3,1.970038936E-2,-2.527453005E-2
8.070548817E0,4.734201822E-3,1.664606482E-2,-1.427896414E-2
8.075304078E0,4.581485991E-4,1.725693047E-2,-4.505127668E-3
8.080059286E0,4.581485991E-4,2.153298259E-2,2.214384731E-3
8.084814495E0,-1.985310577E-3,2.580903657E-2,6.490438245E-3
8.089569703E0,-3.817904973E-3,2.703076601E-2,1.076649129E-2
8.094324963E0,-3.207040019E-3,2.397644334E-2,1.504254527E-2
8.099080172E0,-1.985310577E-3,1.970038936E-2,2.237292193E-2
8.103835380E0,4.123337101E-3,1.481347065E-2,3.336848691E-2
8.108590588E0,1.267544460E-2,1.359174121E-2,4.619665071E-2
8.113345797E0,2.183841541E-2,1.420260593E-2,6.024653837E-2
8.118101057E0,3.100138716E-2,1.237001177E-2,6.940951198E-2
8.122856265E0,3.649916872E-2,6.872228812E-3,6.818778068E-2
8.127611474E0,4.138609022E-2,1.985310577E-3,6.574432552E-2
8.132366682E0,4.260781780E-2,-5.345067009E-3,6.452259421E-2
8.137121942E0,3.894263133E-2,-1.389717404E-2,6.207913160E-2
8.141877151E0,3.222311661E-2,-2.489273995E-2,5.719221383E-2
8.146632359E0,2.122755162E-2,-3.649916872E-2,4.864010960E-2
8.151387567E0,6.566796452E-3,-4.749473557E-2,3.764454275E-2
8.156142828E0,-1.175914705E-2,-5.726857483E-2,2.298378758E-2
8.160898036E0,-2.764163166E-2,-6.093376130E-2,5.879573524E-3
8.165653245E0,-4.169152305E-2,-5.543597788E-2,-1.122464053E-2
8.170408453E0,-5.207622424E-2,-4.382954910E-2,-2.710712515E-2
8.175163713E0,-6.185005978E-2,-2.977965772E-2,-4.421133921E-2
8.179918922E0,-6.673697382E-2,-1.634063199E-2,-6.009382382E-2
8.184674130E0,-7.162389904E-2,-1.679878100E-3,-7.292198390E-2
8.189429338E0,-7.467821985E-2,1.114828233E-2,-8.513928205E-2
8.194184599E0,-7.956513762E-2,2.214384824E-2,-9.674570709E-2
8.198939807E0,-8.139773458E-2,3.130681813E-2,-1.071304083E-1
8.203695015E0,-8.445205539E-2,4.230238497E-2,-1.144607887E-1
8.208450224E0,-8.750637621E-2,5.390881747E-2,-1.211803034E-1
8.213205432E0,-9.239330143E-2,6.368265301E-2,-1.254563481E-1
8.217960692E0,-9.728021920E-2,7.040216774E-2,-1.297324002E-1
8.222715901E0,-1.046105921E-1,7.101303339E-2,-1.352301836E-1
8.227471109E0,-1.125518382E-1,7.101303339E-2,-1.395062506E-1
8.232226317E0,-1.223256737E-1,7.406735420E-2,-1.437823027E-1
8.236981578E0,-1.333212405E-1,7.895427197E-2,-1.468366235E-1
8.241736786E0,-1.424842030E-1,8.323032409E-2,-1.511126757E-1
8.246491995E0,-1.510363221E-1,8.445205539E-2,-1.572213173E-1
8.251247203E0,-1.547015011E-1,8.628465235E-2,-1.633299738E-1
8.256002463E0,-1.571449637E-1,8.933897316E-2,-1.694386154E-1
8.260757672E0,-1.571449637E-1,9.483675659E-2,-1.718820781E-1
8.265512880E0,-1.583666950E-1,9.666935354E-2,-1.737146676E-1
8.270268088E0,-1.559232324E-1,9.544762224E-2,-1.755472720E-1
8.275023349E0,-1.528689116E-1,9.300415963E-2,-1.724929363E-1
8.279778557E0,-1.473711282E-1,9.483675659E-2,-1.682168841E-1
8.284533765E0,-1.437059343E-1,9.972367436E-2,-1.621082425E-1
8.289288974E0,-1.400407553E-1,1.039997265E-1,-1.547778696E-1
8.294044234E0,-1.382081509E-1,1.070540547E-1,-1.468366235E-1
8.298799442E0,-1.388190240E-1,1.033888608E-1,-1.346193254E-1
8.303554651E0,-1.412624866E-1,9.544762224E-2,-1.211803034E-1
8.308309859E0,-1.394298822E-1,8.261945844E-2,-1.040760875E-1
8.313065067E0,-1.357647032E-1,6.673697382E-2,-8.330668509E-2
8.317820328E0,-1.278234571E-1,4.902189970E-2,-6.681333482E-2
8.322575536E0,-1.119409725E-1,3.436114267E-2,-5.826122686E-2
8.327330745E0,-9.544762224E-2,1.725693047E-2,-4.970912263E-2
8.332085953E0,-7.773254067E-2,1.374445739E-3,-3.810269013E-2
8.336841213E0,-5.940660089E-2,-6.566796452E-3,-2.588539571E-2
8.341596422E0,-4.108065739E-2,-1.695149764E-2,-1.611155830E-2
8.346351630E0,-2.153298259E-2,-2.306014486E-2,-6.337722298E-3
8.351106838E0,-3.817904973E-3,-2.367101051E-2,1.603520010E-3
8.355862099E0,1.023198478E-2,-2.367101051E-2,1.137735695E-2
8.360617307E0,2.000582218E-2,-3.222311661E-2,1.870773360E-2
8.365372515E0,2.611446939E-2,-4.627300799E-2,2.848157100E-2
8.370127724E0,3.100138716E-2,-6.276635826E-2,3.703367710E-2
8.374882984E0,3.344484791E-2,-7.803797722E-2,4.436405376E-2
8.379638192E0,3.711003438E-2,-8.720094711E-2,4.802924395E-2
8.384393401E0,4.260781780E-2,-8.842267841E-2,4.986183718E-2
8.389148609E0,4.688387364E-2,-8.170316368E-2,4.802924395E-2
8.393903817E0,5.238165334E-2,-7.315105945E-2,4.497491941E-2
8.398659078E0,5.360338464E-2,-6.765327603E-2,4.008800164E-2
8.403414286E0,5.177079141E-2,-6.826414168E-2,3.520108387E-2
8.408169495E0,4.932733253E-2,-7.131846249E-2,3.092502989E-2
8.412924703E0,4.810560122E-2,-7.376192510E-2,3.031416424E-2
8.417679963E0,4.688387364E-2,-7.315105945E-2,3.214675933E-2
8.422435172E0,4.627300799E-2,-6.643154472E-2,3.581194952E-2
8.427190380E0,4.566214234E-2,-5.360338464E-2,3.825540841E-2
8.431945588E0,4.260781780E-2,-4.077522457E-2,3.764454275E-2
8.436700849E0,3.772090003E-2,-2.550360374E-2,3.459021822E-2
8.441456057E0,2.733619884E-2,-8.399390616E-3,2.542724647E-2
8.446211265E0,1.328630932E-2,7.483093534E-3,1.443168055E-2
8.450966474E0,-3.817904973E-3,2.153298259E-2,2.825249685E-3
8.455721682E0,-2.092211880E-2,3.191768378E-2,-8.170315996E-3
8.460476942E0,-3.741546720E-2,3.863719851E-2,-1.855501719E-2
8.465232151E0,-5.146535859E-2,3.985892609E-2,-2.527453005E-2
8.469987359E0,-6.001746282E-2,3.924806044E-2,-2.893971838E-2
8.474742567E0,-6.185005978E-2,4.046979174E-2,-3.443750367E-2
8.479497828E0,-5.940660089E-2,3.985892609E-2,-3.749182448E-2
8.484253036E0,-5.451968312E-2,3.741546720E-2,-4.421133921E-2
8.489008245E0,-4.902189970E-2,3.252854943E-2,-5.154171586E-2
8.493763453E0,-4.596757516E-2,2.641990222E-2,-6.192641705E-2
8.498518713E0,-4.474584386E-2,2.092211880E-2,-7.170025259E-2
8.503273922E0,-4.535670951E-2,1.908952370E-2,-8.086322248E-2
8.508029130E0,-5.085449293E-2,1.603520103E-2,-8.452841640E-2
8.512784338E0,-5.696314201E-2,1.298087649E-2,-8.513928205E-2
8.517539599E0,-6.123919412E-2,9.926552884E-3,-7.964149863E-2
8.522294807E0,-6.185005978E-2,6.261364091E-3,-7.047852129E-2
8.527050015E0,-6.001746282E-2,5.039634649E-3,-5.887209252E-2
8.531805224E0,-5.451968312E-2,2.596175298E-3,-5.031998456E-2
8.536560484E0,-4.718930274E-2,3.817904973E-3,-4.543306679E-2
8.541315692E0,-4.108065739E-2,5.650499370E-3,-4.421133921E-2
8.546070901E0,-3.802633286E-2,7.483093534E-3,-4.421133921E-2
8.550826109E0,-3.680460155E-2,1.053741761E-2,-4.360047355E-2
8.555581317E0,-3.680460155E-2,1.847865991E-2,-4.176788032E-2
8.560336578E0,-3.924806044E-2,2.641990222E-2,-3.749182448E-2
8.565091786E0,-4.108065739E-2,3.191768378E-2,-2.955058403E-2
8.569846995E0,-4.291325063E-2,3.497200832E-2,-1.977674663E-2
8.574602203E0,-4.169152305E-2,3.375028074E-2,-1.000291109E-2
8.579357463E0,-3.985892609E-2,2.947422490E-2,-1.450803829E-3
8.584112672E0,-3.558287397E-2,2.336557768E-2,5.879573524E-3
8.588867880E0,-2.947422490E-2,1.786779426E-2,1.015562657E-2
8.593623088E0,-2.153298259E-2,1.603520103E-2,1.198822167E-2
8.598378297E0,-1.481347065E-2,1.908952370E-2,1.320995111E-2
8.603133557E0,-8.093958721E-3,2.519817278E-2,1.320995111E-2
8.607888765E0,-3.817904973E-3,3.069595434E-2,1.504254527E-2
8.612643974E0,-7.635809598E-4,3.191768378E-2,1.687514037E-2
8.617399182E0,1.069013379E-3,2.947422490E-2,2.359465137E-2
8.622154442E0,3.512472380E-3,2.153298259E-2,3.214675933E-2
8.626909651E0,9.621120058E-3,1.175914705E-2,4.253146052E-2
8.631664859E0,1.511890348E-2,3.207040019E-3,5.047270283E-2
8.636420067E0,2.244928107E-2,-5.345067009E-3,5.780307949E-2
8.641175328E0,2.733619884E-2,-1.084284950E-2,6.085740402E-2
8.645930536E0,3.405570984E-2,-1.511890348E-2,6.024653837E-2
8.650685745E0,3.772090003E-2,-1.756236330E-2,5.841394514E-2
8.655440953E0,3.894263133E-2,-1.939495653E-2,5.597048625E-2
8.660196213E0,4.016435891E-2,-1.878409274E-2,5.474875495E-2
8.664951422E0,4.321868345E-2,-1.817322709E-2,5.352702737E-2
8.669706630E0,4.321868345E-2,-2.061668597E-2,5.291616172E-2
8.674461838E0,4.566214234E-2,-2.367101051E-2,5.474875495E-2
8.679217099E0,4.932733253E-2,-2.733619884E-2,5.535962060E-2
8.683972307E0,5.482511222E-2,-2.916879393E-2,5.230529606E-2
8.688727515E0,6.154462695E-2,-2.916879393E-2,4.680751264E-2
8.693482724E0,6.765327603E-2,-2.855792828E-2,3.886627033E-2
8.698237932E0,6.948586553E-2,-2.916879393E-2,2.848157100E-2
8.702993192E0,7.131846249E-2,-2.977965772E-2,1.626427472E-2
8.707748401E0,6.948586553E-2,-3.405570984E-2,7.712167688E-3
8.712503609E0,6.704241037E-2,-3.772090003E-2,1.603520010E-3
8.717258817E0,6.215549260E-2,-4.016435891E-2,-2.061668551E-3
8.722014078E0,5.726857483E-2,-4.260781780E-2,-3.894262947E-3
8.726769286E0,5.238165334E-2,-4.260781780E-2,-8.399390499E-4
8.731524495E0,4.505127668E-2,-4.077522457E-2,9.926552884E-4
8.736279703E0,4.077522457E-2,-3.649916872E-2,2.825249685E-3
8.741034911E0,3.588830680E-2,-2.672533318E-2,2.214384731E-3
8.745790172E0,3.344484791E-2,-1.389717404E-2,-2.290742996E-4
8.750545380E0,3.039052337E-2,7.635809598E-4,-6.948587019E-3
8.755300588E0,2.916879393E-2,1.237001177E-2,-1.427896414E-2
8.760055797E0,2.733619884E-2,2.214384824E-2,-2.222020552E-2
8.764811057E0,2.489273995E-2,2.886336111E-2,-2.955058403E-2
8.769566265E0,2.733619884E-2,3.497200832E-2,-3.688096255E-2
8.774321474E0,3.222311661E-2,4.046979174E-2,-3.993528336E-2
8.779076682E0,3.955349326E-2,4.474584386E-2,-4.176788032E-2
8.783831942E0,4.688387364E-2,4.780016840E-2,-4.360047355E-2
8.788587151E0,5.360338464E-2,5.146535859E-2,-4.421133921E-2
8.793342359E0,5.849030241E-2,5.513054505E-2,-4.604393244E-2
8.798097567E0,6.032289565E-2,6.001746282E-2,-4.909825698E-2
8.802852776E0,6.093376130E-2,6.673697382E-2,-5.337430909E-2
8.807608036E0,6.032289565E-2,7.223475724E-2,-5.765036494E-2
8.812363245E0,5.971203372E-2,8.628465235E-2,-6.070468575E-2
8.817118453E0,5.849030241E-2,9.666935354E-2,-6.375901401E-2
8.821873661E0,5.543597788E-2,9.972367436E-2,-6.803506613E-2
8.826628922E0,4.505127668E-2,1.015562713E-1,-7.353284955E-2
8.831384130E0,3.039052337E-2,9.483675659E-2,-7.903063297E-2
8.836139338E0,1.145371422E-2,8.200860023E-2,-8.819360286E-2
8.840894547E0,-6.261364091E-3,7.040216774E-2,-9.369138628E-2
8.845649807E0,-2.275471389E-2,6.307178736E-2,-9.124792367E-2
8.850405015E0,-3.985892609E-2,6.123919412E-2,-8.697187155E-2
8.855160224E0,-5.757400393E-2,5.696314201E-2,-8.575014025E-2
8.859915432E0,-7.040216774E-2,5.024362728E-2,-9.002619982E-2
8.864670640E0,-8.078686893E-2,4.474584386E-2,-9.491311759E-2
8.869425901E0,-8.872810751E-2,4.413498193E-2,-9.552398324E-2
8.874181109E0,-9.361502528E-2,4.657844082E-2,-9.430225194E-2
8.878936317E0,-9.789107740E-2,4.535670951E-2,-9.369138628E-2
8.883691526E0,-9.728021920E-2,4.657844082E-2,-9.430225194E-2
8.888446786E0,-9.300415963E-2,5.329795182E-2,-9.124792367E-2
8.893201995E0,-8.384118974E-2,6.734783947E-2,-8.758273721E-2
8.897957203E0,-7.223475724E-2,8.323032409E-2,-8.758273721E-2
8.902712411E0,-5.940660089E-2,1.009454057E-1,-9.552398324E-2
8.907467672E0,-4.780016840E-2,1.229365394E-1,-1.059086844E-1
8.912222880E0,-3.863719851E-2,1.479819864E-1,-1.132390574E-1
8.916978088E0,-3.008509055E-2,1.681405306E-1,-1.175151095E-1
8.921733297E0,-2.092211880E-2,1.882990748E-1,-1.144607887E-1
8.926488557E0,-1.114828233E-2,2.047924101E-1,-1.046869531E-1
8.931243765E0,-2.596175298E-3,2.127336562E-1,-9.430225194E-2
8.935998974E0,6.566796452E-3,2.109010667E-1,-8.452841640E-2
8.940754182E0,1.023198478E-2,1.999054998E-1,-7.536543906E-2
8.945509390E0,1.145371422E-2,1.846338809E-1,-7.292198390E-2
8.950264651E0,7.788525894E-3,1.736383140E-1,-7.292198390E-2
8.955019859E0,-1.527161949E-4,1.705839932E-1,-7.292198390E-2
8.959775067E0,-1.237001177E-2,1.699731201E-1,-7.780890167E-2
8.964530276E0,-2.580903657E-2,1.724165827E-1,-8.147408813E-2
8.969285536E0,-4.108065739E-2,1.730274558E-1,-8.086322248E-2
8.974040745E0,-5.696314201E-2,1.669187993E-1,-8.147408813E-2
8.978795953E0,-6.795870513E-2,1.559232324E-1,-7.475458086E-2
8.983551161E0,-7.406735420E-2,1.320995092E-1,-6.681333482E-2
8.988306370E0,-6.979130208E-2,1.076649204E-1,-6.070468575E-2
8.993061630E0,-6.123919412E-2,9.422589093E-2,-5.276344717E-2
8.997816838E0,-4.902189970E-2,8.811724186E-2,-4.787652567E-2
9.002572047E0,-3.924806044E-2,7.956513762E-2,-5.154171586E-2
9.007327255E0,-2.947422490E-2,6.856957078E-2,-6.070468575E-2
9.012082515E0,-2.031125315E-2,4.841103405E-2,-7.414371520E-2
9.016837724E0,-2.336557768E-2,1.786779426E-2,-9.185878932E-2
9.021592932E0,-2.886336111E-2,1.527161949E-4,-1.052978188E-1
9.026348140E0,-3.191768378E-2,-9.010255337E-3,-1.095738709E-1
9.031103349E0,-3.436114267E-2,-1.389717404E-2,-1.083521396E-1
9.035858609E0,-3.313941509E-2,-1.206457894E-2,-1.028543562E-1
9.040613817E0,-2.886336111E-2,-1.084284950E-2,-9.613484144E-2
9.045369026E0,-1.847865991E-2,-7.788525894E-3,-9.124792367E-2
9.050124234E0,-5.039634649E-3,-3.512472380E-3,-8.575014025E-2
9.054879495E0,7.788525894E-3,-6.566796452E-3,-8.575014025E-2
9.059634703E0,2.000582218E-2,-1.328630932E-2,-9.613484144E-2
9.064389911E0,3.039052337E-2,-2.183841541E-2,-1.114064679E-1
9.069145120E0,3.894263133E-2,-2.733619884E-2,-1.266780794E-1
9.073900380E0,5.177079141E-2,-2.489273995E-2,-1.407279670E-1
9.078655588E0,6.459894776E-2,-1.634063199E-2,-1.517235339E-1
9.083410797E0,8.109229803E-2,-1.679878100E-3,-1.578321904E-1
9.088166005E0,9.575305134E-2,1.725693047E-2,-1.590539217E-1
9.092921213E0,1.055268943E-1,4.413498193E-2,-1.602756530E-1
9.097676474E0,1.098029464E-1,7.162389904E-2,-1.621082425E-1
9.102431682E0,1.091920808E-1,9.666935354E-2,-1.651625633E-1
9.107186890E0,9.880737960E-2,1.168278903E-1,-1.676060259E-1
9.111942099E0,8.414662629E-2,1.382081509E-1,-1.645517051E-1
9.116697359E0,6.215549260E-2,1.656970680E-1,-1.572213173E-1
9.121452567E0,3.466657549E-2,1.999054998E-1,-1.450040340E-1
9.126207776E0,-1.527161949E-4,2.286161482E-1,-1.309541315E-1
9.130962984E0,-4.046979174E-2,2.499964088E-1,-1.162933856E-1
9.135718245E0,-8.017600328E-2,2.603811026E-1,-9.980003536E-2
9.140473453E0,-1.180496216E-1,2.628245652E-1,-8.636100590E-2
9.145228661E0,-1.492037177E-1,2.603811026E-1,-7.780890167E-2
9.149983870E0,-1.748600453E-1,2.548833191E-1,-7.170025259E-2
9.154739078E0,-1.974620372E-1,2.426660359E-1,-6.559160352E-2
9.159494338E0,-2.176205814E-1,2.237292230E-1,-6.314814836E-2
9.164249547E0,-2.383899838E-1,1.986837685E-1,-6.192641705E-2
9.169004755E0,-2.573267817E-1,1.754709035E-1,-5.887209252E-2
9.173759963E0,-2.738201320E-1,1.516471803E-1,-5.581776798E-2
9.178515224E0,-2.848156989E-1,1.266017258E-1,-5.215258151E-2
9.183270432E0,-2.884808779E-1,1.009454057E-1,-4.360047355E-2
9.188025640E0,-2.848156989E-1,7.223475724E-2,-3.199404106E-2
9.192780849E0,-2.713766694E-1,4.718930274E-2,-2.099847607E-2
9.197536057E0,-2.512181401E-1,2.519817278E-2,-1.122464053E-2
9.202291317E0,-2.243400961E-1,8.093958721E-3,-3.283398226E-3
9.207046526E0,-1.937968582E-1,-4.734201822E-3,3.436114406E-3
9.211801734E0,-1.626427472E-1,-2.611446939E-2,8.933897130E-3
9.216556942E0,-1.339320987E-1,-5.665770918E-2,9.544761851E-3
9.221312203E0,-1.101083755E-1,-9.636391699E-2,9.544761851E-3
9.226067411E0,-8.994983882E-2,-1.366809905E-1,1.015562657E-2
9.230822620E0,-7.162389904E-2,-1.745546162E-1,1.443168055E-2
9.235577828E0,-5.696314201E-2,-2.050978541E-1,2.420551702E-2
9.240333036E0,-4.535670951E-2,-2.270889878E-1,3.459021822E-2
9.245088297E0,-3.680460155E-2,-2.405280024E-1,4.436405376E-2
9.249843505E0,-3.252854943E-2,-2.417497337E-1,5.108356848E-2
9.254598713E0,-2.947422490E-2,-2.270889878E-1,5.780307949E-2
9.259353922E0,-3.191768378E-2,-2.038761228E-1,6.452259421E-2
9.264109182E0,-3.985892609E-2,-1.763872057E-1,7.246383280E-2
9.268864390E0,-5.085449293E-2,-1.519526094E-1,8.162680268E-2
9.273619599E0,-6.246092543E-2,-1.330158114E-1,9.323323518E-2
9.278374807E0,-7.284562290E-2,-1.165224537E-1,1.030070707E-1
9.283130015E0,-7.895427197E-2,-1.067486182E-1,1.140026376E-1
9.287885276E0,-7.895427197E-2,-9.697478265E-2,1.237764731E-1
9.292640484E0,-7.528908551E-2,-8.964440972E-2,1.311068535E-1
9.297395692E0,-6.795870513E-2,-8.109229803E-2,1.353829056E-1
9.302150901E0,-5.696314201E-2,-7.009673119E-2,1.347720474E-1
9.306906161E0,-4.535670951E-2,-5.726857483E-2,1.274416596E-1
9.311661370E0,-3.375028074E-2,-4.444041103E-2,1.164461002E-1
9.316416578E0,-2.519817278E-2,-3.527744114E-2,1.042288020E-1
9.321171786E0,-1.908952370E-2,-2.855792828E-2,8.834631741E-2
9.325926995E0,-1.603520103E-2,-2.733619884E-2,7.246383280E-2
9.330682255E0,-1.114828233E-2,-2.977965772E-2,5.841394514E-2
9.335437463E0,-5.650499370E-3,-3.344484791E-2,4.314232618E-2
9.340192672E0,2.290742937E-3,-3.283398226E-2,3.214675933E-2
9.344947880E0,1.145371422E-2,-3.466657549E-2,2.054032870E-2
9.349703140E0,2.000582218E-2,-3.588830680E-2,7.712167688E-3
9.354458349E0,2.733619884E-2,-3.100138716E-2,-6.337722298E-3
9.359213557E0,2.733619884E-2,-2.428187430E-2,-1.916588284E-2
9.363968765E0,2.000582218E-2,-1.756236330E-2,-2.649625950E-2
9.368723974E0,7.788525894E-3,-1.145371422E-2,-3.016144782E-2
9.373479234E0,-5.039634649E-3,-6.566796452E-3,-2.832885459E-2
9.378234442E0,-2.031125315E-2,-5.345067009E-3,-2.160934173E-2
9.382989651E0,-3.191768378E-2,-4.734201822E-3,-1.488982886E-2
9.387744859E0,-3.924806044E-2,-6.566796452E-3,-8.170315996E-3
9.392500120E0,-4.352411628E-2,-1.084284950E-2,-5.115992390E-3
9.397255328E0,-4.535670951E-2,-1.756236330E-2,-2.061668551E-3
9.402010536E0,-4.474584386E-2,-2.000582218E-2,3.817904799E-4
9.406765745E0,-4.291325063E-2,-2.183841541E-2,-2.290742996E-4
