Time (s),Acceleration x (m/s^2),Acceleration y (m/s^2),Acceleration z (m/s^2)
6.002179535,0.39044540449077086,0.044995242754704866,-0.43221517357835204
6.007179568,2.429164052169609,-3.8454812571983927,0.14701363871135242
6.012179568,4.412349700258064,-7.670917678179141,0.6959100589953635
6.017179568,6.289693240397486,-11.354502010354102,1.1833780632779638
6.022179534,8.014385748244097,-14.823792221466938,1.5814841110484643
6.0271795,9.54464497414966,-18.0126857726819,1.8668129819685688
6.032179466,10.845049687092843,-20.863169582121476,2.021577170786153
6.037179466,11.887630746988977,-23.326792993429603,2.034422479139362
6.042179899,12.652677928696088,-25.365815072506187,1.9008906712668985
6.047179932,13.129233528867635,-26.95398856368373,1.6235205912995503
6.052179965,13.315257121510351,-28.07695595420159,1.2115905637622917
6.057179998,13.217459897689114,-28.732247932117456,0.6805256317286231
6.062179998,12.850821167964323,-28.928890430149593,0.051011736520245564
6.067179964,12.237813091187128,-28.686642565601932,-0.6521258802849512
6.07217993,11.407371773802522,-28.034903119356787,-1.4012117855502089
6.07717993,10.393662892285352,-27.011336736891238,-2.167102373871168
6.08217993,9.23469742479276,-25.66028190642664,-2.920584645039472
6.087179963,7.970857646301096,-24.03101034690726,-3.6337186192929227
6.092179963,6.643395168770455,-22.175911387088924,-4.281057389574415
6.097179296,5.292961600412487,-20.14867517923195,-4.840689273028619
6.102179262,3.958228599351525,-18.0025453469059,-5.295059417533021
6.107179228,2.6746480459129205,-15.788705289557587,-5.631542551581685
6.112179194,1.473395153141828,-13.55485337609126,-5.842753349697938
6.117179194,0.38052800699707173,-11.344011272526325,-5.92659520440972
6.122179227,-0.5836132798360638,-9.193597333482124,-5.8860612602353175
6.12717926,-1.404755452752131,-7.134784023049279,-5.728812756938718
6.132179293,-2.074787603428081,-5.192145369589454,-5.4665686276465975
6.137179293,-2.5916123688469113,-3.3835880920038437,-5.114346682138427
6.142179293,-2.9587716939868365,-1.720548761913458,-4.689600541276283
6.147179259,-3.184874568630677,-0.20842957380371477,-4.2112978945867265
6.152180125,-3.282861185328653,1.1527627486774537,-3.6989848648688444
6.157180091,-3.269143224212149,2.367616514491025,-3.1718785892682764
6.162179424,-3.1626632839718987,3.4443988384365136,-2.6480259061988853
6.16717879,-2.9839177759361943,4.394071496390636,-2.143560617836841
6.172177923,-2.7539869048567396,5.2292868855018515,-1.6720855152851175
6.177177956,-2.4936127906414067,5.963410381945288,-1.2441985270019342
6.182177322,-2.222362533872842,6.609611921463997,-0.8671752763881578
6.187176422,-1.9579073542367589,7.18006461996972,-0.5448132805012555
6.192175322,-1.715442145957209,7.685281944872356,-0.2774362314433556
6.197175022,-1.507262245007481,8.133617621681523,-0.062050493770354896
6.202174122,-1.3425062557749863,8.530944419896574,0.10735968140891372
6.207173222,-1.2270658086714437,8.880519524354316,0.23941652239288785
6.212172355,-1.1636554682805715,9.1830356767176,0.3448348265031526
6.217172355,-1.1520290065130623,9.436848964854226,0.4358347469255202
6.222171788,-1.1893221765750221,9.638366323527432,0.5255080393746245
6.227171088,-1.2704972001210182,9.78256874736161,0.6271652824482837
6.232184254,-1.3888605842367807,9.863640148704013,0.7536913136773045
6.23718422,-1.5366237300239443,9.875666941698649,0.916934846248919
6.24218422,-1.7054751323405284,9.813369995694048,1.127155977996305
6.24718492,-1.8871337879983776,9.672828733866542,1.3925521357195982
6.252184953,-2.073855647587646,9.452156963969667,1.7188790275462122
6.257184986,-2.2588684197534388,9.152091564652064,2.1091785715486906
6.262184986,-2.4367145664569128,8.77645839572696,2.563620738580084
6.267184986,-2.6034876702829255,8.332484673064329,3.079461022972383
6.272184952,-2.7569532358617095,7.830933405421486,3.651110077474377
6.277184552,-2.8965511152503827,7.286043128395918,4.270307156408057
6.282183885,-3.0232828283920354,6.715264828652787,4.926384623825605
6.287183518,-3.139492805669745,6.138797315298554,5.606607090442331
6.292183518,-3.248557759383313,5.578932006180342,6.296565892781523
6.297183518,-3.354502782814372,5.059227764545727,6.980607724698533
6.302183518,-3.461566214952108,4.603545633214455,7.642275352057397
6.307183518,-3.573737686601686,4.2349816285274615,8.26473862933291
6.312184184,-3.6942950293180155,3.974742685651298,8.831195856909968
6.317184817,-3.825365883426091,3.8410158652953754,9.325229384785723
6.322185683,-3.967538916775278,3.8478835817004855,9.731105436390013
6.327185683,-4.119547606128941,4.00433765383739,10.034015696815048
6.332186349,-4.278046594918064,4.313442465878659,10.220265925437468
6.337187282,-4.437496804929034,4.771692715413323,10.277423397807627
6.342187948,-4.590170859607005,5.368604473545012,10.194439544468782
6.347188214,-4.726285123857996,6.086569910150731,9.961766410889352
6.35218908,-4.834258962898457,6.900996351815842,9.571485484467543
6.357189946,-4.9010958802570475,7.78073964138687,9.017465165364126
6.362190146,-4.912875242623101,8.688830384205545,8.29555896823705
6.367190146,-4.855337582182876,9.583479954982153,7.403850808884691
6.372190746,-4.714541237308383,10.419341482579824,6.342946915258333
6.377191446,-4.477563597766947,11.1489898233141,5.116306526598419
6.382178279,-4.133216694366082,11.724574177886012,3.7305961605000166
6.387178279,-3.6727445243113266,12.099587902049473,2.196045397117777
6.392178279,-3.090468507445104,12.230692595988321,0.526776397318591
6.397178245,-2.384347955444595,12.079528101728954,-1.25892476458276
6.402178245,-1.5564244819209816,11.614436927972832,-3.1384289960738827
6.407178245,-0.6131228966346092,10.812031142856162,-5.084711161941649
6.412178278,0.4346137546261236,9.658532141903569,-7.066454332939869
6.417178278,1.571370872972093,8.150819034959719,-9.048337377251277
6.422178278,2.7774989948542683,6.297129718998638,-10.991524538873017
6.427178644,4.029540374761773,4.117369910280799,-12.854366217382271
6.432179277,5.300836508584174,1.6429992658956225,-14.593309142610831
6.437179643,6.562298749869903,-1.0835201440405464,-16.16400204409054
6.442179643,7.783315651376498,-4.00970987663219,-17.522570370196203
6.447179643,8.932762971513553,-7.074473604155264,-18.62702133080282
6.452179676,9.980075889923086,-10.209866848194359,-19.438729306291233
6.457179709,10.896338339437117,-13.343178374674356,-19.923942301928236
6.462179742,11.655341884658712,-16.399247069966073,-20.055243411952457
6.467179742,12.234566547103618,-19.302924376653888,-19.812897852728934
6.472179742,12.616038525468074,-21.981582510535723,-19.18601648459859
6.477179708,12.787024844521653,-24.367563611612105,-18.17347105877111
6.482179708,12.740532356219104,-26.400465337094943,-16.784504597506867
6.487179708,12.475587785629271,-28.029164407330608,-15.038991951194673
6.492179741,11.997286063537732,-29.213491002332336,-12.967320032828434
6.497179741,11.316605315283661,-29.92548296766325,-10.60987370082163
6.502179741,10.449997872704918,-30.150168494243978,-8.016130877428473
6.507179741,9.418776908254227,-29.885848079811062,-5.243388411205006
6.512180407,8.24832724188418,-29.143869890521042,-2.355157645654822
6.517180407,6.967176162133803,-27.947915872541778,0.5807150526445666
6.522180373,5.605965487540855,-26.33283794945629,3.4941330516454885
6.527180373,4.196369451714738,-24.343103336917448,6.314957636493012
6.532180373,2.7700043068704754,-22.030924516051318,8.975248776954286
6.537180406,1.3573748462826358,-19.454162000470987,11.411442849735785
6.542180406,-0.013099606850262588,-16.674096150254993,13.566372455584894
6.547180406,-1.31594173891617,-13.753167583828901,15.391040928194892
6.552180372,-2.5293235513962475,-10.752784149275264,16.846078369096332
6.557180338,-3.6356002403528374,-7.731286191689843,17.902825735801173
6.562180304,-4.621654859989563,-4.7421515392802025,18.54401622968377
6.567180304,-5.479046715097914,-1.8325080059999752,18.76404615774912
6.572180304,-6.203965055980364,0.9579948153522991,18.568848091686807
6.577180337,-6.796997796485568,3.597920194167964,17.975395828779863
6.58218037,-7.262732325422492,6.064369194077797,17.010882609260115
6.587180403,-7.609211791394815,8.342897797951935,15.711621306347682
6.592180403,-7.8472753544616936,10.427045484952277,14.12171853296242
6.597180403,-7.989814740257356,12.317510697307492,12.291574902190705
6.602180369,-8.05098198271029,14.021023222888294,10.276262384851384
6.607180369,-8.045384488670232,15.548976123466645,8.133828082758022
6.612180369,-7.9873034637570095,16.915890014755124,5.923572504796856
6.617180402,-7.889970247201984,18.13778975035935,3.7043495396354325
6.622180402,-7.7649321890490235,19.230577391598526,1.5329341264566858
6.627180402,-7.6215354224297025,20.208485410493456,-0.537498583541208
6.632180368,-7.466546390855671,21.082690249255936,-2.4587424049013245
6.637180334,-7.3039275195608475,21.860158759236988,-4.188742505468971
6.6421803,-7.134775257023141,22.542788984847974,-5.692562082446915
6.6471803,-6.95742117328516,23.126892728811143,-6.943111438215412
6.652180333,-6.767689213685778,23.60305095050439,-7.92162508298642
6.657180366,-6.559294898279573,23.95635502620226,-8.617880188796647
6.662180399,-6.324365546142593,24.16702802804049,-9.030157344978765
6.667180399,-6.054054787095742,24.211401289693136,-9.164951910215242
6.672180399,-5.739219967529295,24.063203464519695,-9.036451149456916
6.677180365,-5.371127786568974,23.695102868829633,-8.665798646120873
6.682180331,-4.9421517861536435,23.080429908975,-8.080173078591308
6.687180331,-4.446425275763191,22.194995503448066,-7.311713254203972
6.692180364,-3.8804149456714443,21.018914205044535,-6.3963252285655425
6.697180397,-3.2433837870139843,19.53833763873804,-5.372410336260895
6.702180397,-2.537716891402269,17.747005170116505,-4.279554950751884
6.707180397,-1.769090064966711,15.647524497448114,-3.1572236951442334
6.712180397,-0.9464687005421074,13.252305015120522,-2.0434975539029407
6.717180397,-0.08193268011382353,10.584081029342386,-0.9738968195063797
6.722180397,0.8096681454838606,7.675979732856219,0.019673967208933604
6.727180363,1.711214530795408,4.571109604050668,0.9098258935805031
6.732180363,2.603952640313318,1.321667764671582,1.6744022053170298
6.737180363,3.4682335958541226,-2.012411170237241,2.2969892483523395
6.742180396,4.284321833207867,-5.36521821972588,2.767206281885999
6.747180396,5.033231521636514,-8.66697589418448,3.080766097794253
6.752180396,5.697547500808275,-11.846397483016691,3.239306722604052
6.757180362,6.262186728929858,-14.833194491508548,3.250003727251128
6.762180362,6.7150583539158335,-17.56061631301477,3.1249825772123407
6.767180362,7.047585323668152,-19.967901928614342,2.880560326419944
6.772180395,7.255057845157537,-22.00252603907689,2.5363547568413067
6.777180395,7.336798632133763,-23.622131612619953,2.114305719046625
6.782180395,7.296131138135779,-24.79605687912702,1.6376571302646619
6.787180395,7.140154032785841,-25.506386267878568,1.1299484600695424
6.792180395,6.879337087607776,-25.748480154328337,0.6140616522956285
6.797180395,6.526964413298619,-25.530965738027625,0.11136372573045482
6.802180361,6.098459769489499,-24.87519903104325,-0.3590225748224184
6.807180327,5.610634819157053,-23.81423404181836,-0.7807969689262154
6.812180327,5.080904381075515,-22.391358312834825,-1.1408954196413978
6.81718036,4.5265128873484,-20.65827286412885,-1.4297359354130708
6.822180393,3.963813563238122,-18.67300851482662,-1.6413016887050922
6.827180393,3.4076366853891207,-16.49767906529965,-1.7730742747136374
6.832180393,2.8707761512311416,-14.19617483160923,-1.8258358040457454
6.837180359,2.363615104903329,-11.831897750840525,-1.8033625741544592
6.842180325,1.8939021516626358,-9.46563220364072,-1.7120352800148313
6.847180291,1.4666803842347402,-7.153634519590975,-1.5603912136060496
6.852180291,1.0843626233741184,-4.946009678700124,-1.3586428790073484
6.857180324,0.7469384425133649,-2.8854269200920077,-1.1181852157649683
6.862180357,0.4522920976453375,-1.0062077721411085,-0.8511105332072445
6.86718039,0.19660568803536296,0.666198625797799,-0.569746681762194
6.87218039,-0.025181132476613584,2.115356228557341,-0.2862302652650196
6.87718039,-0.21888477929205677,3.3336190463043365,-0.012123114956694386
6.882180356,-0.3905940813741506,4.321579514469564,0.24192298360421563
6.887180356,-0.5462166980140392,5.087235793999822,0.46645104790347797
6.892180356,-0.6910796187734071,5.644934926811525,0.6534330165330944
6.897180389,-0.8296033683062473,6.014154964394871,0.7964546169433802
6.902180389,-0.9650643844160909,6.2181920917535995,0.8908532655978233
6.907180389,-1.099454417815243,6.282818465259059,0.9338116080025729
6.912180355,-1.2334400160292558,6.23497319594583,0.9244091507456417
6.917180321,-1.3664194916541945,6.101542982245301,0.8636339264358409
6.922180287,-1.4966695042150113,5.908280760217173,0.7543554179441299
6.927180287,-1.6215687400754684,5.67890088696919,0.6012592174352023
6.932180287,-1.737882350135566,5.4343783303087845,0.4107432661203848
6.93718032,-1.8420879480067947,5.192467643676156,0.1907751352853591
6.942180353,-1.930722180687923,4.967445693606202,-0.04929026130901068
6.947180386,-2.0007262073187064,4.770070689344827,-0.29893286986641626
6.952180386,-2.04976885430951,4.607739516327145,-0.5467293779037221
6.957180386,-2.076527699151913,4.484816121470975,-0.7806536669150571
6.962180352,-2.0809107631672847,4.403096097931682,-0.9884135934891375
6.967180352,-2.064204714937576,4.362366953825236,-1.157820473122864
6.972180352,-2.0291393185018496,4.361020027881009,-1.2771860206717842
6.977180385,-1.979862104617032,4.396668759935564,-1.335739663209232
6.982180385,-1.9218217011037584,4.466729077719269,-1.3240571320931263
6.987180385,-1.8615627436467446,4.568920975584017,-1.234489144594247
6.992180385,-1.8064396334330364,4.701655792629221,-1.0615769166554763
6.997180385,-1.7642604629185263,4.864281012091247,-0.8024393472443052
7.002180385,-1.742876059685796,5.057163287926402,-0.4571151503496236
7.007180351,-1.7497321720531869,5.281600490271747,-0.028842192679869354
7.012180351,-1.791405216885926,5.539564444558154,0.47574393584450814
7.017180351,-1.8731436231191392,5.833287273593845,1.0465093228567055
7.022180384,-1.9984375524630589,6.164715322853898,1.6698344382581203
7.027180384,-2.168639609177475,6.534864955758833,2.3287525440608214
7.032180384,-2.3826580364128205,6.943123387548601,3.0032223633206976
7.03718035,-2.6367418318947347,7.386544525746893,3.6705389744694323
7.042180316,-2.9243742198155873,7.859193916398179,4.305881736426862
7.047180282,-3.2362870415576173,8.351597903846699,4.882992476182757
7.052180282,-3.56060397200843,8.85034972511624,5.374971353339797
7.057180282,-3.8831151758077156,9.337919426061356,5.755171942355865
7.062180315,-4.187680278265506,9.792705388499249,5.998171347610809
7.067180348,-4.45675056322657,10.189353295249884,6.080785810984888
7.072180381,-4.671995374260936,10.499354111220123,5.983097529621002
7.077180381,-4.815012051699317,10.691916838485138,5.689454538287705
7.082180381,-4.868093657554877,10.735095227322196,5.1894028022030145
7.087180347,-4.81502448909035,10.597131173454438,4.478508377411271
7.092180347,-4.641870209094969,10.247962112634392,3.5590278591086157
7.097180347,-4.3377275498025885,9.660826236407628,2.4403875339618426
7.10218038,-3.8953981628980907,8.813888646619517,1.13943579053209
7.10718038,-3.311952423215323,7.6918043930315205,-0.31956055335233025
7.11218038,-2.589151914206928,6.287131305162083,-1.905197347359463
7.117180346,-1.7337039139807218,4.601507056631445,-3.5795032469402246
7.122180312,-0.7573273574596532,2.6465111913630004,-5.2987993382470355
7.127180278,0.32338271984202394,0.4441438622120271,-7.014836452687176
7.132180278,1.487296621489018,-1.9731314966954494,-8.676185538155483
7.137180311,2.7092922956926193,-4.56281494942079,-10.229843581278635
7.142180344,3.96098376689412,-7.273277125681738,-11.623005278757665
7.147180377,5.211611361983697,-10.045132701977051,-12.804939577816656
7.152180377,6.429060446560589,-12.813040755443089,-13.72890099556757
7.157180377,7.580967589751891,-15.507867213289376,-14.35399892919348
7.162179677,8.635866939232182,-18.05912133555877,-14.646944599284302
7.16717901,9.564325579707305,-20.397558418234134,-14.583595366619967
7.17217811,10.34001518473231,-22.457826229158055,-14.150220321166309
7.177177243,10.940668700350537,-24.181024454965804,-13.344419434311789
7.182176609,11.348875359409599,-25.517045673099524,-12.175641083261455
7.187176642,11.552675074692267,-26.426573637392934,-10.665258971779988
7.192175975,11.545923980919655,-26.882630071944188,-8.846188604315643
7.197175075,11.328416015782478,-26.871584352920944,-6.7620443567752035
7.202174408,10.905759927329349,-26.393570387897107,-4.465859366403627
7.207173741,10.289025518431965,-25.462289532055653,-2.018410525101595
7.212173041,9.494185727743606,-24.104214368148074,0.5137911466107956
7.217172141,8.54139112135429,-22.357242398316238,3.0607689672358487
7.222171474,7.454119966477428,-20.268878686462127,5.551519306446245
7.227171307,6.258250202011806,-17.894050661912093,7.9165220434955925
7.232171007,4.981099536885176,-15.292675670251711,10.090217612804546
7.237171007,3.650477058293168,-12.527111861854726,12.013342389862059
7.242170573,2.2937847864214556,-9.659625392282463,13.635015173807165
7.247170573,0.937201367216409,-6.750001737987057,14.9144739654381
7.252170573,-0.39502664531047976,-3.8534166081928642,15.822376672060104
7.257169706,-1.6811670476207297,-1.0186632805488853,16.34160412443077
7.262169706,-2.9024449899611033,1.7131903668970359,16.467538045689988
7.267169706,-4.043339492008023,4.30966827809151,16.20782504516161
7.272169706,-5.091731501276568,6.747256352526186,15.58167270050614
7.277169706,-6.038906656968606,9.011282546756224,14.61874921375491
7.282169706,-6.879420897491171,11.095336912523353,13.357771625877229
7.287169672,-7.610841690203111,13.000282288304334,11.84487030423155
7.292169672,-8.233381764741265,14.732923747877848,10.131812251273109
7.297169672,-8.74944564433088,16.304418610883452,8.274155665090174
7.302169705,-9.163111926416288,17.72851855541846,6.329395577628573
7.307169738,-9.47957626505255,19.01974102923964,4.3551476734392285
7.312170404,-9.704581679344606,20.191568889063895,2.4074072889705636
7.317171037,-9.843864482405467,21.254775320253852,0.5389156310697758
7.322171903,-9.902645599507984,22.215965762934168,-1.2023340991435039
7.327172769,-9.885197393736453,23.07641959729756,-2.7744144204381005
7.332173402,-9.794514243284745,23.831301367712946,-4.142566661002924
7.337173368,-9.632110536080773,24.469294309013776,-5.280053138416997
7.342174068,-9.397962792703707,24.972688422491036,-6.168729125475659
7.347175001,-9.090604048571455,25.317932368056752,-6.7993157045667205
7.352175701,-8.707369197087875,25.476634246228077,-7.171366696960097
7.357176367,-8.244780380455676,25.416972211568982,-7.292935281906627
7.362177033,-7.699052290078435,25.105453011687555,-7.1799578564486914
7.367177233,-7.066688926770388,24.508936147256755,-6.855383577869495
7.372177899,-6.345136433989744,23.596824487634297,-6.348087426802779
7.377178099,-5.533451428529638,22.343309827056576,-5.691612087893464
7.382178432,-4.632941090790505,20.72955481682383,-4.922789036581348
7.387178432,-3.6477303498762437,18.745691470401265,-4.080291680923719
7.392178832,-2.5852129803964052,16.39252117199795,-3.203173371916792
7.397178798,-1.4563474509311012,13.68281164586987,-2.3294411576159337
7.402178764,-0.27576496904425757,10.642102246415597,-1.4947130913666364
7.40717963,0.9383337591151641,7.3089496684113415,-0.7310032725367188
7.41217963,2.164505298012853,3.7345711139477307,-0.06567475361251293
7.417179663,3.378613118659735,-0.018129731496887205,0.47940417931830726
7.422179696,4.55458554732681,-3.8761379697105784,0.8884703894334639
7.427179729,5.665353423644392,-7.758456620943674,1.152219850402279
7.432179762,6.683925577715206,-11.57871163293307,1.2678907649586872
7.437179762,7.584548641159261,-15.248126854681653,1.2390721924899968
7.442179728,8.343888663641213,-18.678739543819425,1.0752473305486168
7.447179694,8.942166282604633,-21.78670940675551,0.7910947003982097
7.452179694,9.36417551778292,-24.49556386749511,0.4055846067951902
7.457179694,9.600119328932566,-26.73922032185902,-0.059079250817169124
7.462179727,9.646203381421513,-28.464633309101913,-0.5786138205939071
7.467179727,9.504943006184119,-29.633931007680463,-1.1278422257504959
7.472179727,9.18515637996043,-30.225930672819114,-1.6818465310719222
7.477179727,8.70163801412138,-30.236955205763135,-2.21702829320575
7.482179727,8.074528733499308,-29.680910861228206,-2.7120265792743443
7.487179727,7.32841925685564,-28.588626459019345,-3.1484556480866392
7.492179693,6.4912421898152015,-27.00649431924963,-3.51143899756732
7.497179693,5.593020067563851,-24.9944894483414,-3.789931436622737
7.502179693,4.66454405939157,-22.623673684524476,-3.9768347981426584
7.507179726,3.736058875374058,-19.97331383615418,-4.068924783756951
7.512179726,2.836024837717203,-17.127756565342125,-4.0666155686783885
7.517180392,1.9900190514625866,-14.173207942764419,-3.9735949212405193
7.522180358,1.219825415893943,-11.194562804131607,-3.796365698571009
7.527180358,0.5427491443945995,-8.272419174049226,-3.5437298495230007
7.532180358,-0.028823340820184555,-5.480397229248685,-3.2262488203157322
7.537180391,-0.4876128424256044,-2.8828618677643805,-2.855709971861
7.542180391,-0.8313914294236097,-0.5331243340754414,-2.444622844715415
7.547180391,-1.0627013562030736,1.5278270894303076,-2.0057625073460765
7.552180391,-1.1883780903706838,3.272043261575185,-1.5517704998945385
7.557180391,-1.2189143047477269,4.68477841173748,-1.0948176976521837
7.562180391,-1.1677068011057374,5.764127059380587,-0.6463282801784727
7.567180357,-1.050230889378684,6.520179036559685,-0.21676019890154274
7.572180323,-0.8831868322719507,6.973755413392274,0.18456484997855072
7.577180323,-0.6836607908127296,7.1548016528480565,0.5495900339645424
7.582180323,-0.468338587742119,7.1005237291362455,0.8716186596619471
7.587180356,-0.25280494269775433,6.853358176355609,1.1453833221593035
7.592180356,-0.05095408147716435,6.458868217343152,1.3670946082747173
7.597180356,0.1254697474901796,5.963655548240646,1.534473110113432
7.602180322,0.2671908634496265,5.413371447503392,1.646766453361645
7.607180288,0.3675762122442413,4.850902148761242,1.70475111802283
7.612180254,0.4226680933820223,4.314792406028969,1.710717238001994
7.617180254,0.4310848328561857,3.8379584270782963,1.6684334569244896
7.622180287,0.39380381303487444,3.4467273901549547,1.5830883702906269
7.62718032,0.3138453462422564,3.1602261216106626,1.461205120605505
7.632180353,0.19587884779285253,2.9901267206037754,1.3105263069830437
7.637180353,0.04577463096147067,2.9407424722702245,1.1398674453006963
7.642180353,-0.12987454846087804,3.0094537490800706,0.9589386249915988
7.647180319,-0.3242382550430668,3.1874311552760726,0.7781355511163904
7.652180319,-0.5307165704836297,3.460612248684385,0.608302615141418
7.657180319,-0.7433706644494663,3.810879050951831,0.46047182686513694
7.662180352,-0.9572970714035899,4.217376465509969,0.3455822703823938
7.667180352,-1.1689298033317337,4.657906861680126,0.2741852122355442
7.672180352,-1.3762574782665176,5.110333613171463,0.25614014045818806
7.677180318,-1.5789458334720199,5.55392641430057,0.300306928299284
7.682180284,-1.778359268882585,5.970583797504564,0.41423909373233736
7.68718025,-1.9774784498328093,6.345873430533458,0.6038828986085258
7.69218025,-2.180714560969407,6.669838384222771,0.8732869987943163
7.69718025,-2.393624620915538,6.937527438466779,1.2243277615262846
7.702180283,-2.622536345669255,7.1492193463216935,1.6564563699319736
7.707180316,-2.8740952722396034,7.3103244534369765,2.1664753612451286
7.712180349,-3.1547509920119734,7.430961817441005,2.7483539435982447
7.717180349,-3.4702031228213297,7.525225634782298,3.3930928499671413
7.722180349,-3.824830851268338,7.610170892050458,4.088650331190684
7.727180315,-4.221132374963175,7.704563988080799,4.819941167128834
7.732180315,-4.659202272300615,7.827458634882715,5.568920418478821
7.737180315,-5.136275586579897,7.996669561507839,6.314763078034437
7.742180348,-5.646367055821081,8.227225454366803,7.03414967093923
7.747180348,-6.180032308215913,8.529887455759626,7.701665997678011
7.752180348,-6.724274923149588,8.909819979258913,8.290322452861597
7.757180348,-7.262619038695461,9.36549642832497,8.772194600212611
7.762180348,-7.775361659376796,9.887913722713773,9.119181900568032
7.767180348,-8.240011940952433,10.460176696735804,9.303875685207492
7.772180314,-8.631916550359788,11.05749701516085,9.3005207627964
7.777180314,-8.92506099264081,11.64763201745935,9.086047739638929
7.782180314,-9.093027046393182,12.191767731683369,8.641145675642628
7.787180347,-9.110076720498373,12.645828152433896,7.951337635020225
7.792180347,-8.952323996319418,12.96217074423882,7.008015572900657
7.797180347,-8.598947596573488,13.091607002631147,5.809386339283501
7.802180313,-8.033391665940135,12.985667748148384,4.361277839028494
7.807180279,-7.244497069895742,12.59901657854147,2.6777539635885907
7.812180279,-6.227504443808894,11.891902445884096,0.781489134196943
7.817180312,-4.984871454350582,10.832534453286195,-1.2961416216922457
7.822180345,-3.5268511298349066,9.399259334739364,-3.5152931413560635
7.827180345,-1.871785588367063,7.582425146485311,-5.8282264247477
7.832180345,-0.046079891214420216,5.385823658824161,-8.180242717707404
7.837180345,1.916166259424977,2.827618695843639,-10.510971954225461
7.842180345,3.973876180966033,-0.059312177738747536,-12.755995309966233
7.847180345,6.080053912826055,-3.2276703676314527,-14.84876412390882
7.852180311,8.183155429698342,-6.6166824818353875,-16.722760121299686
7.857180311,10.228729753293683,-10.153687980803124,-18.31382559882086
7.862180311,12.161270308422726,-13.756323692547138,-19.562577908857286
7.867180344,13.92620283045126,-17.33522853619932,-20.416811121081437
7.872180344,15.471925054621389,-20.797161767098686,-20.83378007709905
7.877180344,16.75180618195286,-24.048401932684467,-20.78225910143038
7.88218031,17.726051461641116,-26.99827341862538,-20.24427021532398
7.887180276,18.363339725348034,-29.562634847952722,-19.21638440047141
7.892180242,18.642149719397942,-31.667160284747613,-17.710514379614487
7.897180242,18.551704686502237,-33.25025120154146,-15.754137958277072
7.902180275,18.092483461217725,-34.26543458890611,-13.38991597946383
7.907180308,17.276269268663683,-34.68312937913583,-10.674696675065885
7.912179441,16.125732589172333,-34.49169739640283,-7.677926770977822
7.917179441,14.673569558738444,-33.69773350340149,-4.479517378102453
7.922179441,12.961240238479983,-32.32558953460507,-1.1672380959166089
7.927179407,11.03737011927945,-30.416165352199076,2.1662651091821608
7.932179373,8.955892546457672,-28.02503578889344,5.426714447826421
7.937179373,6.774019056268074,-25.220012726004526,8.52157950748143
7.942179406,4.550129023267439,-22.078265943811942,11.36345387330426
7.947179439,2.3416698825933167,-18.683143905756747,13.873287109698333
7.952179439,0.203155020899905,-15.120845847212307,15.98333001375455
7.957179439,-1.8156611376407856,-11.477099275178247,17.63965610270523
7.962179405,-3.6713615824279207,-7.833992322789063,18.80413330967438
7.967179371,-5.328141828210516,-4.267098603812675,19.455738987397307
7.972179337,-6.7587390739352555,-0.843013858948767,19.591141330897667
7.977179337,-7.944988725231466,2.3826001001570685,19.22451178077049
7.98217937,-8.877998655065388,5.366396232399096,18.386581757386764
7.987179403,-9.557948838293466,8.078109521110264,17.12300560630244
7.992179436,-9.993540371268715,10.500701928300854,15.492132557284593
7.997179436,-10.201132313760512,12.629904467206346,13.562319541068684
8.002179436,-10.203616430502207,14.473201199208654,11.408933045114596
8.007179402,-10.02908834142554,16.04832192172871,9.111193171296547
8.012179402,-9.709378782866052,17.38132847297554,6.749008720208977
8.017179402,-9.278510835337363,18.50439364987746,4.399940456657883
8.022179435,-8.771148415372547,19.45338150279707,2.1364126591875934
8.027179435,-8.22109847523384,20.26534317504273,0.023272675853049533
8.032179435,-7.659924612845445,20.976043587367293,-1.8842235352139045
8.037179435,-7.1157234362426465,21.617631256797253,-3.541943637562723
8.042179435,-6.612107156847338,22.216556456141955,-4.917893975909877
8.047179435,-6.167426574190543,22.791831828353423,-5.992703580658388
8.052179401,-5.794258072652619,23.353714687371028,-6.759584142956857
8.057179367,-5.49916688353387,23.90287204189068,-7.223793270108345
8.062180267,-5.282747188894927,24.430068567525954,-7.401647130506763
8.0671803,-5.139928179877103,24.9163951448585,-7.3191450234882405
8.072180333,-5.060524412469192,25.334032058371093,-7.0102817428948265
8.077180333,-5.0299991555319545,25.64751744660035,-6.5151333157763185
8.082180333,-5.0304012667602045,25.81546907610552,-5.877807422298648
8.087180299,-5.041429761076131,25.792686943183433,-5.144351304770854
8.092180299,-5.041575882583781,25.532546474625004,-4.36070714658351
8.097180299,-5.009290322062912,24.989577950042435,-3.570797828911018
8.102180332,-4.924123331066757,24.12211777089281,-2.8148150683541955
8.107180332,-4.767787858029597,22.894911727355716,-2.127768070204316
8.112180332,-4.525100318968545,21.281549656755406,-1.5383352539557775
8.117180332,-4.184759933923745,19.2666149002006,-1.0680456647906966
8.122180332,-3.7399353510012596,16.84744069936309,-0.7308014738505799
8.127180332,-3.188636158804292,14.03537900251256,-0.5327391815417851
8.132180298,-2.5338564770232552,10.85650485200382,-0.4724151040418423
8.137180298,-1.783487751834353,7.351701256277273,-0.5412905302420001
8.142180298,-0.9500078160279541,3.5760946436895087,-0.7244834897568598
8.147180331,-0.04996284999691111,-0.40216119367157444,-1.0017471270147082
8.152180331,0.8967322550876016,-4.503725442600165,-1.348628919225314
8.157180331,1.8676418006321434,-8.640478117187207,-1.737760198845065
8.162179631,2.8387655841158694,-12.718410106060384,-2.1402217112524147
8.167178731,3.7855587008984344,-16.640883841081735,-2.526928622859096
8.172178064,4.683966622646462,-20.312130245511995,-2.8699779909853214
8.177177197,5.511426020118649,-23.64082975680302,-3.1439035927198686
8.182176563,6.247782865325129,-26.543613850827132,-3.32678729339643
8.187175696,6.876083127505751,-28.94832029351529,-3.4011826880898024
8.192175029,7.383197981081933,-30.79684174136645,-3.354815353094909
8.197174129,7.760254608832011,-32.04742402407219,-3.181034474115972
8.202173229,8.002854792727685,-32.676297063527805,-2.879002562920805
8.207172562,8.111075763717784,-32.67855623498623,-2.4536228571344556
8.212171628,8.089260472162888,-32.06825236370252,-1.9152168973614878
8.217170728,7.945616758817899,-30.877691296256078,-1.2789766150505164
8.222170728,7.691655904904362,-29.15598592604993,-0.5642251523148774
8.227170094,7.341509677488823,-26.96694183047923,0.20647194330810964
8.232170094,6.911170433525766,-24.386389914468257,1.0082987475141907
8.237169427,6.417700749235478,-21.49910389325743,1.8152357261629775
8.242168993,5.87845755443133,-18.395456034779468,2.601113234315201
8.247168959,5.31037137995198,-15.167970972883733,3.340626549537788
8.252168925,4.729314732396871,-11.907934890247322,4.0102720365509885
8.257168025,4.149585479859954,-8.70220678230087,4.589170404271752
8.262168058,3.583522128477285,-5.630361083227292,5.059750493127074
8.267168091,3.041258621559867,-2.762268150382884,5.408275142151869
8.272168124,2.530617378056161,-0.1561925726701536,5.625198942183685
8.277167724,2.0571312049755694,2.14253937767959,5.705355612124492
8.282167724,1.6241778748662057,4.1022810009048385,5.647979937249394
8.28716769,1.233205863797632,5.705221182617391,5.456575391913814
8.29216769,0.884026211533052,6.946987105595465,5.138643570355892
8.29716769,0.5751437961931385,7.835748090836103,4.705295310049575
8.302167723,0.30410147376785956,8.39089328067686,4.170765914410662
8.307167756,0.06781233901965153,8.641369460029116,3.5518581980773094
8.312168422,-0.13714146190274712,8.62377398161482,2.8673372588702644
8.317169288,-0.3142607202209272,8.380301537891278,2.1373000582302963
8.322169921,-0.4669443796593983,7.956642630117379,1.3825412625087892
8.327170787,-0.5983750865850325,7.399926431644527,0.6239345917617125
8.33217142,-0.7114767873639272,6.756791894627904,-0.1181536326122145
8.337172286,-0.8089408937016346,6.071659091276844,-0.8244047602336286
8.342172986,-0.8933127997306048,5.385258656265848,-1.4770306357038547
8.347173919,-0.9671264525682349,4.733461549848236,-2.0601903094870693
8.352174852,-1.0330713972794803,4.146434906982691,-2.5603343929134854
8.357175518,-1.0941743383227347,3.648133175630292,-2.9664730235892836
8.362176084,-1.1539758539498988,3.2561177723817765,-3.270365415565815
8.36717695,-1.2166825223643405,2.9816837532576224,-3.4666308216909925
8.37217695,-1.2872754088829153,2.830259069965364,-3.552782497027536
8.377177616,-1.3715576353737635,2.802031281029985,-3.529187984033673
8.382177649,-1.4761265713491858,2.89274841131565,-3.398960793089751
8.387177449,-1.6082599536607594,3.0946352001933364,-3.167790361977994
8.392177849,-1.7757098190730511,3.39736337243076,-2.8437190341231244
8.397177849,-1.986403370903469,3.7890148825238654,-2.436876564506001
8.402177849,-2.24805564175187,4.256980342116918,-1.9591840467713473
8.407178749,-2.567704865404498,4.788740949136538,-1.4240397744527997
8.412178715,-2.951187566381149,5.372490932717126,-0.8459991076392892
8.417178715,-3.4025761719613112,5.997568366948542,-0.24045883596530687
8.422178715,-3.9236070484528462,6.654674616105313,0.37664601323427377
8.427179148,-4.513130834435938,7.335876044804531,0.9891280634061357
8.432179181,-5.1666193848548465,8.034395432125654,1.5808143622846726
8.437179181,-5.8757642612725,8.744214372458448,2.1357946446775777
8.442179147,-6.628200423274997,9.459521397585558,2.638653208159696
8.447179113,-7.4073856939767575,10.174052861118424,3.0746873413124636
8.452179113,-8.192661810630158,10.880383623006313,3.430115744644546
8.457179113,-8.959516460853715,11.569230974781894,3.692280774037139
8.462179146,-9.680057659626636,12.228837125119988,3.849848542107054
8.467179146,-10.323702294589754,12.844492645377711,3.893010740866072
8.472179146,-10.858070016651789,13.398255903095478,3.813691348344108
8.477179146,-11.250062398803006,13.86891239469135,3.605760113137567
8.482179146,-11.467096039456816,14.232203845361308,3.2652529455698236
8.487179146,-11.478447710982518,14.461340814299422,2.7905972147648397
8.492179112,-11.256660421990789,14.527795201585162,2.1828375882787636
8.497179112,-10.778951983141932,14.402351411979208,1.4458555556137556
8.502179112,-10.028562821794898,14.056377901095587,0.5865732374967386
8.507179145,-8.995977716899683,13.463265277852745,-0.384870382861177
8.512179478,-7.6799570390250995,12.599963867077387,-1.4549848838567752
8.517179478,-6.088317101591376,11.448543377503476,-2.606851290462974
8.522179444,-4.238406376025179,9.997690711494464,-3.8201192237788977
8.52717941,-2.1572344865799025,8.2440595073004,-5.071095186157243
8.532179376,0.1187761768274671,6.193387068965944,-6.332937869360821
8.537180242,2.5444311186988484,3.861301055124481,-7.575974300719276
8.542180275,5.066794505491096,1.2737495825893363,-8.768147489120489
8.547180308,7.626589736800028,-1.5329960602086288,-9.875602014236978
8.552180341,10.159931124484235,-4.512797643626924,-10.863408741107733
8.557180374,12.60033026256175,-7.610574531972088,-11.696423606166928
8.562180374,14.880904598887259,-10.763681757539707,-12.34026836195794
8.56718034,16.93670228841665,-13.903702048588544,-12.762413541422703
8.572180306,18.707047573081063,-16.958588143902656,-12.933336073443728
8.577180306,20.137805545075537,-19.85506990055157,-12.82771640639679
8.582180306,21.18346485069035,-22.521222624183963,-12.425633178740961
8.587180339,21.808942023588127,-24.889080083118923,-11.713707905515603
8.592180339,21.9910217190021,-26.897168955183197,-10.686148248733229
8.597180339,21.71936286248457,-28.492841846159624,-9.345636505219288
8.602180305,20.997020980619787,-29.634293923807498,-7.704010125792721
8.607180271,19.840460604148486,-30.292163402929468,-5.782683440709463
8.612180237,18.279056900267925,-30.450637531587507,-3.612764431967147
8.617180237,16.354110485754163,-30.108011535766362,-1.234827628796063
8.62218027,14.117421692880697,-29.276676014631686,1.3016856658539881
8.627180303,11.629488995343154,-27.982536565315172,3.9394553917073125
8.632180336,8.957410183208863,-26.263896425624107,6.61465836143948
8.637180336,6.172574122775933,-24.169857513116554,9.25871211750823
8.642180336,3.348235812228551,-21.758316482887114,11.800347019179364
8.647180302,0.5570683771591708,-19.09364951745082,14.167945033334075
8.652180302,-2.131216851578763,-16.24419184114749,16.292062378473574
8.657180302,-4.652096438160655,-13.27962499879932,18.108033345986392
8.662180335,-6.9482291852814235,-10.268386633197695,19.558535790557148
8.667180335,-8.971150624429422,-7.2752139675443095,20.595987014604443
8.672180335,-10.682611288691797,-4.358923716875603,21.184635288722976
8.677180335,-12.05551605208935,-1.5705181400513375,21.30222079990987
8.682180335,-13.074437305419199,1.0483098608175438,20.94110205768721
8.687180335,-13.735691688152944,3.4662192080879515,20.108777065934976
8.692180301,-14.046987869808255,5.662778362602994,18.82776713249672
8.697180267,-14.026670617478798,7.628527503052472,17.13486956175873
8.702180267,-13.702603017454503,9.364555455519747,15.079820363666625
8.707180267,-13.110743050585791,10.88162142389813,12.723437881990455
8.7121803,-12.293481724577582,12.198869378222676,10.135341756212574
8.7171803,-11.297817011650634,13.342198292112712,7.3913579281867765
8.7221803,-10.173440828240246,14.34236389130859,4.570729218309336
8.727180266,-8.970815622685501,15.232896938208668,1.7532531356006555
8.732180266,-7.739313450471186,16.047929217240995,-0.9835345041610162
8.737180266,-6.5254842824616555,16.82002122721183,-3.567018765803182
8.742180299,-5.371512079730464,17.578085049413307,-5.931907110807863
8.747180299,-4.313907190835037,18.34549193803594,-8.022287282220463
8.752180299,-3.3824723172766076,19.13844705209019,-9.793273127149313
8.757180299,-2.5995672095344893,19.96470378303389,-11.212189317861863
8.762180299,-1.9796849562345598,20.822677750664557,-12.259266040637725
8.767180299,-1.5293406836779095,21.701006075136487,-12.927834783112164
8.772180265,-1.2472620888570995,22.57858122243095,-13.224035844692185
8.777180265,-1.1248608387128918,23.42507082589269,-13.166066550670449
8.782180265,-1.1469547885421574,24.20191582006184,-12.783015707999251
8.787180298,-1.2927034470539969,24.863779580135727,-12.11334399235981
8.792180298,-1.5367133108930349,25.360401265351687,-11.203081251958618
8.797180298,-1.8502656864144675,25.638788006306946,-10.10381985183164
8.802180264,-2.2026174095278237,25.645663776822456,-8.87058794198799
8.80718023,-2.562324419714104,25.330078587814516,-7.559687708716839
8.812180196,-2.8985393936885058,24.64607083671803,-6.226581105318427
8.817180196,-3.182237541781936,23.555268913461827,-4.923899349653596
8.822180196,-3.387329089715666,22.02931594842906,-3.6996432025373993
8.827180229,-3.4916226633579655,20.052004089087543,-2.5956297493089515
8.832180262,-3.4776104266588024,17.621011932065,-1.6462292399656018
8.837180295,-3.3330530469158974,14.749150634294542,-0.8774233488656211
8.842180295,-3.0513500828500244,11.465040603358963,-0.30620443202082903
8.847180295,-2.631688980514475,7.813161207894147,0.05967587774518716
8.852180261,-2.078973340403738,3.853240148059219,0.22161113661873472
8.857180261,-1.403538339546749,-0.3410237483203554,0.18971038625525624
8.862180261,-0.6206680343710235,-4.6838814468111485,-0.017942841757239467
8.867180294,0.2500643618713823,-9.08004558006267,-0.37631011900143807
8.872180294,1.1856063220453612,-13.427711065254083,-0.8546543033300927
8.877180294,2.160353905797945,-17.621974640698546,-1.4179818683734589
8.88218026,3.147161291134618,-21.558519153327527,-2.0286138286382767
8.887180226,4.1183921360086,-25.1374088813528,-2.6478223816761153
8.892180192,5.04697082857235,-28.26682901165628,-3.2374672722718483
8.897180192,5.907391036702339,-30.866597179424236,-3.7615654176261115
8.902180225,6.676640059238716,-32.87127906984757,-4.187729919565939
8.907180258,7.335000538181104,-34.2327542733833,-4.488420426414777
8.912180291,7.866696275659004,-34.922102777493215,-4.6419557401061
8.917180291,8.260356216581147,-34.93071553200679,-4.633251116879999
8.922180291,8.509279861858749,-34.27057236608849,-4.45425618739241
8.927180257,8.611497943231196,-32.97367437909304,-4.104083974106677
8.932180223,8.569633331093502,-31.090662579238625,-3.5888361893168153
8.937180189,8.390577872745363,-28.688696739712128,-2.9211439982385197
8.942180189,8.08501016146353,-25.848705211936196,-2.1194560015871646
8.947180189,7.666786352427212,-22.662145433777212,-1.2071157167944304
8.952180222,7.152240704841635,-19.227434618799823,-0.21127881981069105
8.957180255,6.559434520953094,-15.646220062528267,0.8382744825604826
8.962180288,5.9073917547851105,-12.019658875007803,1.9103744992660021
8.967180288,5.215357071476517,-8.444868509726945,2.9736880117959714
8.972180288,4.502107928380768,-5.011693365736224,3.997882446776623
8.977180254,3.7853467505513865,-1.7999104558563643,4.954681945851777
8.982180254,3.0811929271567307,1.1230296895089888,5.8187774647430555
8.987180254,2.403787584314173,3.7036603676527053,6.568562922090076
8.992180287,1.7650172857818558,5.903518593697935,7.186680027704318
8.997180287,1.1743563333195115,7.699522221810555,7.66036502689731
9.002180287,0.6388214972639036,9.083727536805267,7.981600542447743
9.007180253,0.1630280588566144,10.062516077942538,8.147084433494548
9.012180219,-0.25066783417731686,10.655281019883168,8.1580347289018
9.017180185,-0.6019582150270554,10.892700385330162,8.019855005787283
9.022180185,-0.8923229999738401,10.81469630643723,7.7416879994106615
9.027180218,-1.1247399874575903,10.468186335721402,7.335886802239709
9.032180251,-1.303384122714651,9.904734506915467,6.8174328938206274
9.037180284,-1.4333333791886127,9.178206752677712,6.203328676941512
9.042180284,-1.5202961986477774,8.342527888587794,5.511989474505968
9.047180284,-1.570372409812946,7.449626318772092,4.762656384760862
9.05218025,-1.5898561082679414,6.547638650314107,3.9748473079815656
9.057180216,-1.5850853332108574,5.67943030425287,3.167859121729185
9.062180216,-1.5623397143472353,4.8814707795001615,2.3603296454942018
9.067180249,-1.52778375623787,4.183084264866137,1.5698639379028374
9.072180282,-1.4874502196275798,3.606078582305682,0.8127258253673165
9.077180282,-1.447255267036096,3.164738698205229,0.10359252910177545
9.082180282,-1.4130347673458103,2.8661558818000126,-0.5446320731838199
9.087180282,-1.3905895031304518,2.710850529363499,-1.1209516132237958
9.092180282,-1.3857260979433923,2.693636091955583,-1.6163657739586863
9.097180282,-1.4042803759946507,2.8046636973051013,-2.023920405069158
9.102180248,-1.4521106562230872,3.030582082553265,-2.3387261554725955
9.107180248,-1.5350501817696072,3.3557453987728216,-2.5579519644532343
9.112180248,-1.6588104235297338,3.763402270477434,-2.6807989534273364
9.117180281,-1.8288302277893025,4.2368030773266865,-2.708459371369168
9.122181081,-2.0500695353001133,4.760168590703497,-2.644064302865237
9.127181081,-2.3267505321888566,5.319471602056262,-2.4926227883886245
9.132181047,-2.662053456298763,5.902993701949479,-2.260953710892798
9.137181047,-3.0577786898663764,6.501631505977304,-1.957610176409796
9.142181047,-3.513990959966746,7.108939925916165,-1.5927941914803154
9.14718108,-4.028665109564586,7.720914117828125,-1.1782574508599122
9.15218108,-4.597355645228696,8.335526133146331,-0.7271824056100378
9.15718108,-5.21291384746391,8.95204670421921,-0.2540368766419557
9.162180413,-5.865276549017909,9.570196530557967,0.22560456745993665
9.167179513,-6.541349795078782,10.18918414443191,0.6952786168194934
9.172178846,-7.225008564977622,10.806697910986202,1.1378956739640715
9.177178812,-7.897230522717829,11.41792681691604,1.5360503235560357
9.182178112,-8.536377236778344,12.014687353754173,1.8723813691432931
9.187177212,-9.118630364454384,12.584731285339593,2.129980335738353
9.192177245,-9.618583023895534,13.11130128221108,2.292844061410845
9.197176378,-10.009978319681974,13.572988809958078,2.3463632862405635
9.202175478,-10.266578255566838,13.943932179264463,2.2778353465390127
9.207174578,-10.363137620458913,14.194373372352723,2.076985630386321
9.212173644,-10.276449409101568,14.291571272694775,1.736479707103395
9.21717361,-9.986421427632242,14.201047368889506,1.2524061818755945
9.222172676,-9.477138369424333,13.888118983684352,0.6247093478042949
9.227172009,-8.737860203650877,13.319655662017754,-0.1424494672033411
9.232172042,-7.763906508911065,12.465977564627696,-1.040422404714057
9.237172075,-6.557377628725945,11.30280152024986,-2.055916713352528
9.242172108,-5.127667324453837,9.813131634475146,-3.1709648040346434
9.247172108,-3.491727913057922,7.988987695250303,-4.363037234398902
9.252172108,-1.6740575276117082,5.832866474573819,-5.605309574862554
9.257172074,0.2936101516943495,3.3588385623677843,-6.867089794150263
9.262171674,2.372920937969151,0.5931964780489354,-8.114407790187608
9.267171674,4.5198135249621245,-2.4254118712922077,-9.310763060483687
9.272170907,6.685710432481241,-5.646407394602947,-10.418020369246378
9.277170907,8.81895134591654,-9.008278051643712,-11.397436807953511
9.282170907,10.86642009078612,-12.440138291463985,-12.210797119990541
9.287170873,12.775304493917195,-15.863806528518815,-12.821627873313808
9.292170839,14.494918770629669,-19.196327620919956,-13.19645532301683
9.297170805,15.978511496434134,-22.35283965298386,-13.306066897345413
9.302170805,17.184979204400275,-25.249660678335,-13.126732464031592
9.307170805,18.080406634532462,-27.80745327799019,-12.641339202080097
9.312171505,18.639360009845497,-29.95431456150112,-11.840393282924063
9.317172438,18.84586965038941,-31.628637975701427,-10.722842772902311
9.322173138,18.694052682075665,-32.781601684483334,-9.296679130535068
9.327173138,18.18834492494233,-33.379156076872405,-7.579279184093478
9.332173804,17.34333190863378,-33.4034088446597,-5.597455372339794
9.33717467,16.18319040917674,-32.85333791170125,-3.387189334825973
9.34217467,14.740771837961935,-31.744797770909383,-0.9930328559146714
9.34717557,13.056375557486135,-30.109821023341038,1.5328290624108827
9.352176503,11.176272772966264,-27.99525196483318,4.131845522773068
9.357177403,9.15104976714128,-25.460781178328265,6.740675527901147
9.362177636,7.033843109001293,-22.576477886752087,9.293034581496936
9.367177636,4.878539539785849,-19.419939213513903,11.72175803838175
9.372178536,2.738010096338062,-16.073191640282776,13.961010949239975
9.377179202,0.6624422943389524,-12.619489283720352,15.948559098904605
9.382179168,-1.3021734995274925,-9.140155900069022,17.62800317231282
9.387179168,-3.115356395346464,-5.71161277508057,18.950869172949613
9.392179168,-4.743208625889723,-2.402722951016329,19.87844618926611
9.397179201,-6.159223025266475,0.7274361410032419,20.38327086967522
9.402179201,-7.344806609645055,3.631283668749533,20.450178257210037
9.407179201,-8.289512203077502,6.273869949624752,20.076868456400728
9.412179567,-8.990979866881903,8.633403975802542,19.273971929931975
9.417179567,-9.454599793887441,10.701172380317852,18.0646268592415
9.422179567,-9.692917832702495,12.480875488426957,16.483606290807366
9.4271796,-9.724813267372246,13.987430350760347,14.576049873135126
9.432179633,-9.574485412687153,15.245311319250503,12.395865646308383
9.437179633,-9.270290784001437,16.28651546365932,10.00387291321371
9.442179633,-8.843476107832132,17.148252784216997,7.465759233165337
9.447179633,-8.326854511295755,17.870469707100252,4.849924744270774
9.452179633,-7.7534731749864685,18.493318766434594,2.2252868222151236
9.457179633,-7.155320648039746,19.05468767857038,-0.34088207197190346
9.462179599,-6.5621206425769385,19.587897158627232,-2.785011621111121
9.467179599,-6.000256037955071,20.119668832241615,-5.049117861182461
9.472179599,-5.49186183795487,20.66845268196818,-7.0824532366955415
9.477179632,-5.054119088324887,21.243188111837085,-8.842871298234924
9.482179632,-4.698773636996549,21.842554554903703,-10.297866784315994
9.487179632,-4.431894505972343,22.454747290690232,-11.425264892506917
9.492179598,-4.253876938028683,23.05779249726862,-12.213547053709156
9.497179564,-4.159685286768178,23.62039325552774,-12.661813927625635
9.50217953,-4.139321250345072,24.10327598808331,-12.77939911944847
9.50717953,-4.178493916020192,24.46098542143033,-12.585158808588425
9.51218023,-4.259460060597823,24.644056402009266,-12.106472708519375
9.517180263,-4.36199646258653,24.601473564172505,-11.378000286445035
9.522180296,-4.46446088565397,24.28331568386539,-10.440242792875091
9.527180296,-4.544895092919231,23.643471220224196,-9.33796624761373
9.532180296,-4.582121899795215,22.642305602958732,-8.118542959930059
9.537180262,-4.556788960018102,21.249159663970765,-6.830269327828409
9.542180262,-4.452314700918849,19.44456242198855,-5.520715654488192
9.547180262,-4.255696443106856,17.222050168201555,-4.235159946948673
9.552180295,-3.9581469884857237,14.589497252491954,-3.015152769661544
9.557180328,-3.5555334972528927,11.56988179742268,-1.897254811898704
9.562180328,-3.048600958117209,8.201431307255563,-0.9119831824382001
9.567180294,-2.4429716819875504,4.537118135691214,-0.08299650439551713
9.57218026,-1.7489217375368376,0.6435021233208319,0.5734576399842006
9.577180226,-0.9809448117497004,-3.4010537130587135,1.0488168145987453
9.582180192,-0.15712331290282566,-7.508739985366873,1.342191899343695
9.587180192,0.7016646935635931,-11.58514838432406,1.4600716073814424
9.592180225,1.5726662703859466,-15.532502789590684,1.4157562364009946
9.597180258,2.432259111547902,-19.253145243713004,1.2285444212014285
9.602180291,3.256993896268602,-22.653130679538535,0.9227071627164107
9.607180291,4.024622859040617,-25.645772793329368,0.5262929232524214
9.612180291,4.71506365143741,-28.154979137728173,0.06981552779591713
9.617180257,5.311250069449622,-30.11821755620452,-0.4151175811732544
9.622180257,5.799826644502152,-31.488969224374895,-0.8971761301958727
9.62717989,6.171652325012799,-32.23854581048258,-1.3466164689597502
9.632179923,6.422089091247803,-32.35717875189815,-1.7364731183167244
9.637179923,6.551063674762727,-31.85432566498871,-2.0435830720262724
9.642179923,6.562903743303964,-30.75818006710234,-2.2494036162772124
9.647179923,6.465963003220602,-29.114412956852554,-2.340596531942124
9.652179923,6.272061648316163,-26.9842151357261,-2.309364627560344
9.657179923,5.995778488422017,-24.4417443678095,-2.153539608636009
9.662179889,5.65363821659292,-21.571109150552314,-1.8764324187634733
9.667179889,5.263241293116904,-18.463039590969633,-1.4864676698949801
9.672179889,4.842384839905481,-15.211405200046368,-0.9966321344829343
9.677179922,4.408220959367736,-11.909739616085066,-0.4237732730020323
9.682179955,3.976494369466985,-8.6479241263793,0.21221261454910467
9.687179955,3.560894660485887,-5.509166516781494,0.8892616986145966
9.692179921,3.172550395427949,-2.567390649315252,1.5840532588762357
9.697179887,2.8196832804751883,0.11487318068066736,2.2729121496480134
9.702179887,2.507431279993012,2.4880350033781355,2.932669725840605
9.707179887,2.237840353191525,4.516395903761378,3.54145509766919
9.71217992,2.01001591023695,6.17849805721975,4.079394485829679
9.71717992,1.820417527846277,7.466896076257741,4.529202605491914
9.72217992,1.6632742469973274,8.387395411650477,4.876656021812159
9.72717992,1.5310931073834255,8.957823503153742,5.11094393587214
9.73217992,1.415230544591618,9.206414958454705,5.224896606432014
9.73717992,1.3064948706176938,9.169902937542698,5.215095436816395
9.742179886,1.1957481820417297,8.891415063554083,5.081871619410026
9.747179886,1.074477549805171,8.418273721360093,4.829202185888251
9.752179886,0.9353080685473932,7.79979787186516,4.464513485987155
9.757179919,0.7724340925988213,7.085196967467653,3.998402693233171
9.762179919,0.581949557421393,6.321637767662804,3.444288122958666
9.767179919,0.36206346701408393,5.55255246761851,2.8179991536284574
9.772179885,0.11319220348816161,4.816242262617286,2.1373165451958203
9.777180218,-0.16207392497970427,4.144814982621493,1.4214740797575662
9.782180184,-0.4591267306520915,3.5634794113993067,0.6906327839070732
9.787180184,-0.7716100492483707,3.09020295031376,-0.03466047066439507
9.792180217,-1.0917895212426871,2.735723915375088,-0.7340175415115133
9.79718025,-1.4110035065020397,2.503895421940652,-1.3877437365310812
9.802180283,-1.7201722560434456,2.3923249309558074,-1.9773493791530108
9.807180316,-2.010339176621545,2.3932624907328393,-2.486025162615881
9.812180316,-2.2732158337817725,2.494681851293053,-2.8990691138223705
9.817180282,-2.501701488499322,2.681492226530159,-3.2042544616261885
9.822179548,-2.6903485729130385,2.9368147083864633,-3.3921296848673186
9.827179548,-2.8357475297014463,3.2432562592708583,-3.4562444459604165
9.832179548,-2.9368077145450955,3.584115791037881,-3.3932979894652378
9.837179581,-2.994915459384715,3.9444610008841763,-3.203209840865123
9.842179581,-3.0139558366339605,4.312021279851832,-2.889116039703954
9.847179581,-3.0001910494265096,4.677851002930082,-2.4572972323259985
9.852179547,-2.9619954849672223,5.03672862738851,-1.9170471688203177
9.857179513,-2.9094549565558085,5.387269919909737,-1.2804910183113527
9.862179479,-2.853845089567757,5.731747819789477,-0.5623622423070869
9.867179479,-2.807010730272114,6.075626329926682,0.2202552704957715
9.872179512,-2.7806742737594496,6.426830782195804,1.0482159667332582
9.877179545,-2.78570560417735,6.79479129195466,1.9006313504354524
9.882179578,-2.831389703712888,7.189309730686629,2.7552198762281725
9.887179578,-2.9247297875914757,7.619312600830744,3.5886901606449846
9.892179578,-3.0698239693890965,8.091562080479793,4.377159434924334
9.897179544,-3.267351859310549,8.60940428134856,5.096608154318474
9.902179544,-3.514204064991733,9.171636462108928,5.723370221969823
9.907179544,-3.8032823000707694,9.77157284707329,6.234656514086
9.912179577,-4.123490859326513,10.39638159254297,6.609107308409323
9.917179577,-4.4599318915440165,11.026753645946053,6.827366799296942
9.922179577,-4.794307587694876,11.636948494504642,6.8726701468472395
9.927179577,-5.105522529207116,12.195243027907425,6.731430534768547
9.932179577,-5.370469438983237,12.664788908709568,6.393810653100299
9.937179577,-5.564971878755653,13.004861925744297,5.854260085797871
9.942179543,-5.664848483129124,13.172464799446308,5.111997520556778
9.947179509,-5.6470555660180555,13.124223855638565,4.171414793387444
9.952179509,-5.490858813838961,12.818500952012132,3.042378821950552
9.957179509,-5.178980667172191,12.217626072077513,1.740407708534513
9.962179542,-4.698668185241213,11.290144046864826,0.2866988524529071
9.967179542,-4.042626898034683,10.012961718882384,-1.292010147595443
9.972180242,-3.209769489408262,8.373280114488749,-2.963762722473381
9.977180208,-2.2057341099074756,6.370200196103154,-4.691896039485808
9.982180208,-1.0431355599375485,4.015900628535675,-6.435747823386445
9.987180208,0.2584767308268606,1.3363015519412407,-8.151552287069586
9.992180241,1.6729674359716835,-1.6288508260185193,-9.793511856570337
9.997180241,3.168270324565024,-4.826518627552665,-11.31502269983922
10.00218024,4.707334299222318,-8.191536531045477,-12.670023394197154
10.00718024,6.249330378364243,-11.64838532710975,-13.814427834069555
10.01218024,7.75107524420483,-15.11352204855308,-14.707596199472903
10.01718024,9.168614093860908,-18.49818238243557,-15.313792015965108
10.02218021,10.458894829873028,-21.711542028099675,-15.603569536520466
10.02718021,11.5814578516974,-24.664098962882232,-15.555034258987424
10.03218021,12.500061521593377,-27.2711200972901,-15.15492061935269
10.03718024,13.184163366429665,-29.455985353776168,-14.39943488945154
10.04218024,13.610181760215575,-31.153261308160193,-13.294818005647459
10.04718024,13.762472532319874,-32.31134608812525,-11.857592164035845
10.05218021,13.6339695194775,-32.894547177051024,-10.114465957578764
10.05718017,13.226456663650904,-32.88448297039103,-8.101884882340183
10.06218017,12.550460249201373,-32.28073524827468,-5.865226619604533
10.06718021,11.624771228612053,-31.100720416431436,-3.4576533024622487
10.07218024,10.475627333162949,-29.37878949925758,-0.9386458689010528
10.07718024,9.135601336409277,-27.16460768071973,1.6277415546116805
10.08218024,7.642254617808947,-24.52090125522998,4.174856760595548
10.08718024,6.0366237985643805,-21.52069113081107,6.6355917010719425
10.09218024,4.361612824831331,-18.2441558985678,8.944618620240218
10.09718024,2.6603638283108073,-14.77528285350868,11.04063725489928
10.1021802,0.9746778475004216,-11.198471888119702,12.868542430217087
10.1071802,-0.6564485343460255,-7.595255445497949,14.381416072070714
10.1121802,-2.1981119734265233,-4.041288824619686,15.542246099057222
10.11718024,-3.620567292113845,-0.6037498854809976,16.325278497709604
10.12218024,-4.9000304124333365,2.6607344980820065,16.716920473067844
10.12718024,-6.019193912801758,5.707546510222666,16.716134331520752
10.1321802,-6.967443702157271,8.504866097898878,16.33429384259932
10.13718017,-7.740779359811204,11.033774766687934,15.594513137887201
10.14218014,-8.341453936224648,13.287697058743465,14.530495611152961
10.14718014,-8.777360822734602,15.271237065306254,13.184980204625445
10.15218017,-9.06120531224973,16.99849677005292,11.607881520883733
10.1571802,-9.209506373473545,18.4909861164075,9.85422838071854
10.16218023,-9.241479716866044,19.77525094898864,7.982004736770942
10.16718023,-9.177856432833881,20.88035429072324,6.04998986463465
10.17217957,-9.039692565299484,21.835349015814625,4.115684110720108
10.17717863,-8.847224253933902,22.66687634881946,2.2333945005107827
10.1821777,-8.618820643002042,23.39701532777775,0.45254265867483295
10.1871768,-8.37008240610114,24.041493906076205,-1.183754146485273
10.19217593,-8.11312718311901,24.60835316628492,-2.639790384010054
10.19717507,-7.856094454521818,25.09713276046481,-3.8880435322582945
10.2021744,-7.6028917717794915,25.498619100584637,-4.90960001925307
10.2071735,-7.353192446518629,25.795169265539183,-5.694242237398737
10.21217256,-7.102682444729143,25.96159450686222,-6.240217624224901
10.21717186,-6.84354195690643,25.966559066266317,-6.553723205914395
10.22217183,-6.565135479404536,25.774424117846532,-6.648148438470298
10.22717116,-6.254873748914517,25.347444230613444,-6.543125169374862
10.23217053,-5.8992019657421455,24.648205837278294,-6.263435887472191
10.23717016,-5.484661809955948,23.642184566371075,-5.837830298864274
10.24216933,-4.998970136583656,22.30029141831728,-5.29779627947693
10.24716846,-4.432055235349159,20.601276787664467,-4.676325481443873
10.25216759,-3.776992420359628,18.533866096685312,-4.006707668764556
10.25716666,-3.030784643446756,16.098510967063877,-3.3213824752142544
10.26216666,-2.1949407781263948,13.308655068223892,-2.650873357350907
10.26716656,-1.275813936345646,10.191433753010127,-2.022825937063964
10.27216956,-0.28467420585605135,6.7877509289394675,-1.461171168064295
10.27716856,0.7624960261388373,3.1517046114981513,-0.985432342571421
10.28216806,1.8454811015589212,-0.6506367887983429,-0.6101935591557176
10.28716773,2.9405671155300164,-4.543073510766845,-0.3447455978957823
10.29216748,4.021499694327537,-8.44166327938722,-0.1929227647382999
10.29716728,5.060617691508733,-12.257564820053153,-0.1531405829852356
10.30216711,6.030104539402923,-15.90021519932113,-0.21863863311168297
10.30716697,6.9032904844286636,-19.280699896126738,-0.3779250926092734
10.31216697,7.6559339132539135,-22.315161058827577,-0.615409895669176
10.31716874,8.267408907575465,-24.928083682569028,-0.912202815347774
10.32216874,8.721729502398297,-27.055302057980118,-1.2470424963983084
10.32716865,9.008349194486737,-28.646580038856474,-1.5973139381720007
10.33216857,9.122686955138377,-29.667638173053504,-1.9401062092148496
10.33716849,9.066347638827581,-30.101527663594887,-2.2532598113938156
10.34216849,8.847024033944539,-29.949284085104633,-2.516354245772801
10.34716849,8.478088346633289,-29.229830931822004,-2.711590864710068
10.35216849,7.977900917233548,-27.979142128963392,-2.824533649568633
10.35716855,7.368881621684255,-26.248710932014312,-2.84468035833712
10.36216849,6.676403028109733,-24.103407375011926,-2.7658473774040693
10.36716844,5.927572800674049,-21.618835156797278,-2.58636229309301
10.37216839,5.149975752461396,-18.87831994216944,-2.309067647295824
10.37716834,4.370443859540895,-15.96967381912809,-1.9411470248060763
10.3821683,3.6139164386433196,-12.98188511823184,-1.4937904260551929
10.3871683,2.902443622223669,-10.001879449856796,-0.9817199432487916
10.3921683,2.254375200826617,-7.111487489922222,-0.4225993392615463
10.3971683,1.683764681060013,-4.384738854026143,0.16364747642950697
10.40216826,1.2000057499733134,-1.8855806176743561,0.7555836043827454
10.40716822,0.807705862429687,0.33390496573686446,1.3310467022625083
10.41216818,0.5067899081532831,2.2347348188987644,1.8679524329871915
10.41716818,0.292816325392506,3.7916890034653563,2.3450904291360684
10.42216818,0.15747899195371842,4.993407299877041,2.7428906786750153
10.42716822,0.08926104472007769,5.8419450279090395,3.044139579826073
10.43216825,0.07420166592886589,6.3518356301244525,3.234626241122304
10.43716825,0.09673392943988196,6.548725058049453,3.3037009313093733
10.44216825,0.1405509987499934,6.4676566772733235,3.244729005867676
10.44716825,0.1894591640161533,6.1510949846936605,3.055425294159168
10.45216825,0.22817916101957564,5.646781836658095,2.7380559736499355
10.45716825,0.24306164555805257,5.005520209800185,2.299497519288434
10.46216822,0.22268829462426262,4.278977988561238,1.751145507518419
10.46716768,0.15833645362051085,3.517598255761685,1.108669950280192
10.47216768,0.04429223190606607,2.768693526987322,0.3916184481279838
10.47716771,-0.12199583495850364,2.0747898758371455,-0.37712628536072224
10.48216771,-0.33992327371696407,1.4722735670077436,-1.1720222163059497
10.48716771,-0.6058901795310064,0.9903782886227004,-1.9656587601764894
10.49216768,-0.9136032932861097,0.6505359534802986,-2.7296381890511285
10.49716768,-1.2545015965737525,0.4660988335230433,-3.435517753211188
10.50216768,-1.618282585604275,0.4424259320775554,-4.055777905699382
10.50716765,-1.9935025142358653,0.5773123711287648,-4.564778763094714
10.51216765,-2.368221040377992,0.8617275556554181,-4.939665618314813
10.51716765,-2.7306589788369378,1.2808163510516355,-5.161185313963492
10.52216765,-3.0698373481034973,1.8151078306274406,-5.214378751145954
10.52716765,-3.376166653394582,2.4418686355147563,-5.089120680994569
10.53216765,-3.641957402279501,3.1365329070830437,-4.780485914972307
10.53716761,-3.8618262161684926,3.8741383250636114,-4.288930666961102
10.54216761,-4.032976550329477,4.630698183774031,-3.62028810003494
10.54716761,-4.15533882970805,5.3844427502358325,-2.785587261554307
10.55216764,-4.231561471328708,6.116869340375433,-1.8007133925145573
10.55716768,-4.266851420727487,6.813549467766215,-0.6859342492821754
10.56216768,-4.2686700788798,7.464652789282452,0.5346789047266562
10.56716764,-4.24629746154516,8.065160991053085,1.8339056913826945
10.57216761,-4.210283782345692,8.614759688930924,3.1820776252663174
10.57716758,-4.171813105068754,9.117412236345443,4.54780003368228
10.58216754,-4.14200805571402,9.580635433985664,5.898673364403834
10.58716754,-4.131207690622735,10.014512994627559,7.20199685905215
10.59216758,-4.148252455007774,10.43049769718065,8.42544186121024
10.59716761,-4.199810785601565,10.840066757891545,9.537685959049298
10.60216771,-4.289781362820872,11.253306135286293,10.509002818092755
10.60716771,-4.418803296246355,11.677507300131683,11.311805981071382
10.61216771,-4.583903587857918,12.115863637875792,11.921147991659304
10.61716767,-4.778307019839863,12.566352591296251,12.315178742801583
10.62216767,-4.991428124187959,13.020883685495368,12.475568681640626
10.62716767,-5.209058083585537,13.464781791330262,12.387903029256673
10.63216771,-5.413751335708322,13.876659758745351,12.042052100144424
10.63716771,-5.58540752968,14.228715566495971,11.432519978804493
10.64216771,-5.7020347427889595,14.487467329231789,10.558769457375865
10.64716767,-5.740670067850952,14.614916000265714,9.425515805169011
10.65216764,-5.678424399678575,14.5701016164612,8.042976325228166
10.65716761,-5.493609994325251,14.310995662611688,6.427057461484438
10.6621676,-5.166902595714128,13.796650761619317,4.599457081132804
10.66716764,-4.68248503185443,12.989510542123142,2.587656972966729
10.67216767,-4.029116549177443,11.857768239205912,0.4247799414540225
10.6771677,-3.2010720843602694,10.377653282564921,-1.8507126182481084
10.68216774,-2.1988983765398884,8.535521595584516,-4.195502988475054
10.68716774,-1.029939378887976,6.329628105509502,-6.562093504510447
10.6921677,0.2914082443601956,3.7714692766302256,-8.899683138182038
10.69716767,1.7437379155905408,0.8865991999137919,-11.155240466249863
10.70216727,3.2989897157898933,-2.2851555804135804,-13.274758047813188
10.70716727,4.9231218204691505,-5.690130565991519,-15.204661545714727
10.7121673,6.577082674975868,-9.261924420851605,-16.89333547770199
10.7171673,8.218054456612476,-12.923150535861776,-18.292717059462166
10.7221673,9.800923655516671,-16.58778823657621,-19.359900931861784
10.7271673,11.279921216681954,-20.164048705798702,-20.058691268529206
10.7321673,12.610363290963356,-23.557638922848152,-20.361034335408807
10.7371673,13.75041486742153,-26.67527952344826,-20.24826442857583
10.74216727,14.662793044686845,-29.428311627641566,-19.71209958956845
10.74716727,15.316325188715412,-31.73621553387742,-18.755330803347533
10.7521672,15.687280541927985,-33.529862554730094,-17.392159471658033
10.75716723,15.760402679379421,-34.75433120566175,-15.648152349611667
10.76216723,15.529584735990841,-35.37114032940406,-13.559799873417992
10.76716723,14.998148904791046,-35.35978314407964,-11.173681574280716
10.7721672,14.17871473401107,-34.71848514967894,-8.545259698421582
10.7771672,13.092664939822075,-33.46415214322096,-5.737338113027534
10.7821672,11.769240377876029,-31.63151894235773,-2.818237344026454
10.7871672,10.244315518385225,-29.27155176047687,0.14025216601533072
10.7921672,8.558921055805738,-26.449195029722272,3.06506779292853
10.7971672,6.757590680429417,-23.240584943377712,5.8841463649241215
10.8021672,4.886614543755987,-19.72987572864459,8.528688497725863
10.8071672,2.992282830533699,-16.005839793052342,10.935332398964949
10.8121672,1.1191995336318823,-12.158408994026232,13.048153907817385
10.81716717,-0.6912604783142353,-8.27532137321828,14.820411690807004
10.82216713,-2.402288131335212,-4.439026303435439,16.21596135751325
10.82716713,-3.982720157211427,-0.7239822012157179,17.21027118189113
10.83216713,-5.4078263960161035,2.805543933092164,17.79098750548975
10.83716716,-6.659783828037013,6.097095640172469,17.95802186659814
10.84216717,-7.727832576105101,9.11101830968117,17.723163635773425
10.84716716,-8.60812410208658,11.820810067263041,17.109256270381472
10.85216753,-9.303284929999453,14.212851683227028,16.149004702055425
10.8571675,-9.821729957435382,16.285563244849918,14.88349997808962
10.86216746,-10.176767763023793,18.04805902155991,13.360553384820447
10.86716746,-10.385546436344281,19.51839074285154,11.632927814806028
10.8721675,-10.46789246062866,20.72148323058197,9.756542560977474
10.87716753,-10.445097134000175,21.686874842158254,7.78871242031923
10.88216756,-10.338705024830382,22.446378566522572,5.78646590424391
10.88716756,-10.169357220695298,23.03177830382895,3.8049732531000635
10.89216756,-9.955738866685056,23.47266952520781,1.8961053447064151
10.89716753,-9.713675748554355,23.794544704495788,0.10714062838213269
10.90216753,-9.45541830075797,24.01721178211663,-1.5203623673561832
10.90716753,-9.189143280346874,24.153618334601347,-2.9515076897313564
10.91216756,-8.91869362122654,24.209135153970944,-4.158800300133748
10.91716756,-8.643566160834563,24.181331164136736,-5.122663022363943
10.92216756,-8.359145623924883,24.060248002741027,-5.831719766682254
10.92716753,-8.057172028518693,23.8291583313214,-6.282839008851215
10.93216749,-7.726418045021772,23.465768178173647,-6.480938691145086
10.93716749,-7.353543225584459,22.94380150534514,-6.438561216993588
10.94216749,-6.924083799455439,22.234885791496446,-6.175234559412813
10.94716749,-6.42353020178229,21.31064169184375,-5.716642257240256
10.95216753,-5.838439883431906,20.14486858015462,-5.093630785493752
10.95716756,-5.157530359187314,18.715711612069086,-4.34108699306397
10.96216759,-4.3726969432537075,17.007695253033972,-3.4967206463747624
10.96716759,-3.479901260040536,15.013513077153553,-2.5997876299931524
10.97216759,-2.4798805636789583,12.735473849548656,-1.6897886409184417
10.97716756,-1.3786343647981423,10.186518993983121,-0.8051772472130118
10.98216752,-0.18765394809980346,7.390745912741714,0.017889242794416338
10.98716749,1.076128094081231,4.383394560816493,0.7467223289114979
10.99216749,2.3906776375158136,1.2102803420617203,1.3531637717897775
10.99716752,3.7294825457032594,-2.073316238877473,1.8145008845217756
11.00216756,5.062438955778747,-5.404264914859051,2.114200945814355
11.00716759,6.356964348666673,-8.713640900186162,2.2424320520186556
11.01216759,7.579287798388498,-11.929130676508088,2.196342211638321
11.01716759,8.695856460648967,-14.977678756193162,1.9800759127758245
11.02216756,9.674789041702443,-17.78825105455044,1.6045177526112906
11.02716756,10.487302200853263,-20.294582115908305,1.0867655330183537
11.03216756,11.109034961601129,-22.43777220088504,0.4493496956293387
11.03716759,11.521199565263215,-24.16860656989373,-0.2807690665467543
11.04216759,11.711495031180764,-25.44948315440189,-1.0733783018539038
11.04716759,11.674731917668884,-26.255855538270495,-1.896311588735121
11.05216755,11.413132814612393,-26.577124468642072,-2.716801832767368
11.05716752,10.936291805281911,-26.41694115367147,-3.5028240233353056
11.06216749,10.260795995729406,-25.79291724749992,-4.224363803767617
11.06716749,9.409531563125038,-24.735767423639153,-4.854554736147483
11.07216749,8.410714066818139,-23.287938665326354,-5.370636928498413
11.07716752,7.296696787826614,-21.501804114927104,-5.754701684242102
11.08216755,6.102620871151387,-19.437517366353276,-5.9941999369879
11.08716759,4.864976764836353,-17.16063489111906,-6.082205449861294
11.09216758,3.6201479925105007,-14.739619784546825,-6.017436282797595
11.09716759,2.4030060330379777,-12.243339505897048,-5.804049271782755
11.10216755,1.2456195057799544,-9.738664358933951,-5.451231791285867
11.10716755,0.17613251844426678,-7.288262915928425,-4.97262255738238
11.11216755,-0.7821434805122596,-4.9486763423261,-4.385598435544557
11.11716758,-1.6113920460932039,-2.7687365961923995,-3.7104670223331953
11.12216758,-2.299688876947461,-0.7883747305449256,-2.9696052054889357
11.12716758,-2.8411274535132307,0.9621540351692714,-2.186582175212318
11.13216758,-3.2356796001108767,2.4626213009936793,-1.3853018214326935
11.13716758,-3.488809238776348,3.702763972483626,-0.5891945735997162
11.14216758,-3.6108681202064306,4.681838695767346,0.17951697774777228
11.14716755,-3.6163111138122623,5.407835439609482,0.9004604156605718
11.15216755,-3.522775370348857,5.896405392570817,1.5556515381514846
11.15716755,-3.350072076253679,6.169567176513097,2.129921449316579
11.16216692,-3.1191414621636024,6.254260891282341,2.611230944631989
11.16716602,-2.851021220553568,6.180821681747738,2.990874469292221
11.17216535,-2.565875678285234,5.981443483170958,3.2635790192850087
11.17716442,-2.2821282144075012,5.688699601914406,3.427505518026511
11.18216372,-2.015732842481852,5.334180181457264,3.4841615316210133
11.18716302,-1.779612972089844,4.947297836336886,3.43823483242438
11.19216235,-1.5832865388848183,4.5543023189229,3.2973574549325626
11.19716145,-1.4326873705774963,4.177533549968462,3.07180968113163
11.20216058,-1.330183249864286,3.8349302225297923,2.7741730127023247
11.20715995,-1.27478201936092,3.539798987719986,2.4189408020278256
11.21215925,-1.2625085713065614,3.300837423901848,2.0220949715810064
11.21715925,-1.286927958652842,3.122393002463705,1.6006572462362767
11.22215858,-1.3397834226380787,3.0049304509110883,1.172223561088982
11.22715765,-1.411713121234165,2.945671560456404,0.7544906936714703
11.23215765,-1.4930059992481879,2.93936480474152,0.3647845263237896
11.23715698,-1.5743557188040895,2.979137294774749,0.019599461685798632
11.24215684,-1.647571910719274,3.057378731175397,-0.26584177468431064
11.24715685,-1.7062101595363934,3.1666062391640555,-0.47799946324507453
11.25215684,-1.7460859872768117,3.3002603447663743,-0.6053920219992749
11.25715595,-1.7656435075084158,3.453385864024636,-0.6389290115495732
11.26215591,-1.7661561961334469,3.6231570570546543,-0.5721975307045963
11.26715588,-1.7517451320111646,3.8092139133550083,-0.40169878725170965
11.27215564,-1.7292088123599891,4.013785679053231,-0.127032489542594
11.27715568,-1.7076679137416357,4.2415884086932545,0.2489730453618636
11.28215571,-1.6980377773024533,4.499495014150633,0.7201876548181263
11.28715551,-1.712350539190213,4.795988486332573,1.2771667245907676
11.29215551,-1.7629572792589088,5.1404211136353695,1.9072045710044587
11.29715551,-1.8616479128740846,5.542114036615831,2.5944607537686917
11.30215548,-2.0187324302314336,6.009341837695661,3.3201672998179492
11.30715544,-2.2421311762778076,6.5482556499515985,4.0629247531265
11.31215611,-2.5365239162333006,7.161805156236598,4.7990933732674375
11.31715704,-2.902607292506329,7.848724506163067,5.503282645459413
11.32204799,-3.3365078622159685,8.602649129012395,6.14893797658353
11.32704889,-3.8293931449953473,9.411429039730766,6.709018689671208
11.33204956,-4.3673159778300334,10.256698951247762,7.1567566663150695
11.33705022,-4.931318063489841,11.113756100690258,7.466480382372362
11.34205089,-5.497807207989386,11.951783462517117,7.61448464370818
11.34705179,-6.039209855145597,12.734439676430544,7.579922092006248
11.35205266,-6.524886746295693,13.420818489354277,7.3456886510197625
11.35705332,-6.922285515483485,13.966760770707038,6.899271749338282
11.36205406,-7.198290446310024,14.32648217642352,6.233527668861702
11.36705409,-7.320717148162868,14.454460281124774,5.347353005476282
11.37205475,-7.259889245466411,14.307507447523124,4.246215223431052
11.37705565,-6.990225980949247,13.846940823916816,2.942508832390059
11.38205562,-6.491764502335945,13.040749568231503,1.4557069761568073
11.38705629,-5.751538986615204,11.865652491154355,-0.1877167147268114
11.39205645,-4.764740944541452,10.308937416445787,-1.9546143139772163
11.39705648,-3.5355911468987107,8.369977076463577,-3.805747684301659
11.40205649,-2.077863540908559,6.061325448290941,-5.696630509051467
11.40705735,-0.41501500539096625,3.4093129801438073,-7.57861755234657
11.41205735,1.4201086301289338,0.45407878581681854,-9.400219110956542
11.41705735,3.386000826863692,-2.750998033348131,-11.108607238853141
11.42205758,5.433646614587365,-6.140478132726394,-12.651269421187623
11.42705755,7.5080671505370065,-9.638632861800794,-13.977755545665762
11.43205752,9.550203523148644,-13.161755416113264,-15.041455884477566
11.43705775,11.49906684070311,-16.62093067614975,-15.801341955766178
11.44205778,13.2940642088234,-19.925154003804696,-16.223599121659593
11.44705782,14.87739637252255,-22.984665339448238,-16.283080052498086
11.45205782,16.196413684675644,-25.714347200391973,-15.964512066509167
11.45705782,17.20581375255478,-28.03702532574068,-15.263398988618713
11.46205778,17.869567608609128,-29.886510056077597,-14.186569445015968
11.46705775,18.16247224751304,-31.210225793987387,-12.752337881489415
11.47205771,18.071245908901933,-31.971294925699418,-10.990260999512682
11.47705771,17.595107623070206,-32.14997026071389,-8.940489319617956
11.48205775,16.745812262221044,-31.744344328212907,-6.652729836813534
11.48705778,15.547143845482484,-30.77030212069892,-4.18485030574337
11.49205781,14.033900133978902,-29.260723277777096,-1.6011682339794437
11.49705781,12.250428087124797,-27.263977659721736,1.0295217469753868
11.50205781,10.248790849142328,-24.841792655445346,3.636119545391438
11.50705778,8.086661800161655,-22.066599820427843,6.147520209230633
11.51205778,5.82504973577683,-19.018491415473438,8.494967124968204
11.51705778,3.5259617716297096,-15.781933330236512,10.614376542959448
11.52205781,1.2501077118487258,-12.442389215846935,12.448548685639466
11.52705781,-0.9452578483531562,-9.083011177031624,13.94917892229985
11.53205781,-3.0082706136657147,-5.781545223134299,15.078582793940019
11.53705778,-4.894097817494092,-2.6075855437765463,15.811051850995808
11.54205774,-6.566230552437065,0.37970827907959465,16.133765046583235
11.54705771,-7.997389639444886,3.133341646146785,16.047195533728527
11.55205771,-9.170025982987623,5.619601850487034,15.564977449705426
11.55705771,-10.07641509051347,7.818531486296731,14.713230727773718
11.56205774,-10.718363022222938,9.723759954541345,13.52937879031785
11.56705778,-11.106556229834515,11.341724648840872,12.060526870607925
11.57205781,-11.259599971936552,12.690340029351995,10.361492552227057
11.57705781,-11.202799201108485,13.797195100858692,8.492593539544737
11.58205781,-10.966742071730302,14.697377297758594,6.517301823854067
11.58705777,-10.585749624837815,15.431033142843148,4.499870224144668
11.59205777,-10.096256015686585,16.040783184261517,2.503028770807741
11.59705777,-9.535182327242106,16.56911076876959,0.5858366179746176
11.60205781,-8.9383641836769,17.05584154160407,-1.1982378796186637
11.60705781,-8.339089542636906,17.535823644619736,-2.8029491701483256
11.61205781,-7.766798241596281,18.036907872976418,-4.19057131744219
11.61705781,-7.245988703043572,18.57831294711583,-5.332825301719664
11.62205781,-6.795369294511939,19.169443969534715,-6.211416782859752
11.62705781,-6.427282255037068,19.809212595498238,-6.818179890421729
11.63205777,-6.147417296899566,20.485886155471132,-7.1548385722730945
11.63705777,-5.95482054454654,21.177470748694493,-7.232412255549859
11.64205777,-5.842192901147522,21.852611043475367,-7.070306154690254
11.64705781,-5.796460688696082,22.4719680159571,-6.69513788775126
11.65205781,-5.799590899301956,22.990015949366793,-6.1393607056455
11.65705781,-5.829613996137574,23.35718247704769,-5.4397492485395755
11.66205777,-5.861809239776571,23.522241008397604,-4.6358159599075925
11.66705777,-5.870001269244978,23.434854155814474,-3.76822475502296
11.67205777,-5.827912378638799,23.048160240538586,-2.8772631182385147
11.6770578,-5.7105128008479875,22.32129278749685,-2.001424946712191
11.68205784,-5.495311466622331,21.221725008715364,-1.1761454319295217
11.68705784,-5.163532164729186,19.72733729087086,-0.4327178373117831
11.69205784,-4.701124693272932,17.82811528160367,0.20258828367341586
11.69705784,-4.099567292984115,15.527399031972813,0.7091963222292685
11.70205784,-3.3564251597320034,12.842619572449877,1.0726747106973713
11.70705784,-2.4756398500568446,9.805478002733869,1.2849721829926166
11.7120578,-1.4675355602046236,6.461543262724955,1.3444401690913634
11.7170578,-0.3485401616543587,2.8692676595187634,1.2556491705464683
11.7220578,0.8593689408469969,-0.9015567921057192,1.029008526928385
11.72705784,2.1294720682548443,-4.771854012225483,0.68020174442379
11.73205784,3.431334216370621,-8.655760999176476,0.22945303430170777
11.73705784,4.732007914652158,-12.463474665629589,-0.29935465847487913
11.7420578,5.9973592334290995,-16.10433824931334,-0.8796838938384921
11.74705777,7.193456983283464,-19.49004285641711,-1.4834360568404334
11.75205774,8.287960269824467,-22.53781021562235,-2.0820935981621203
11.75705774,9.251437640261209,-25.17341887835785,-2.6478652974616526
11.76205777,10.058552748666061,-27.333938657027378,-3.154785313175908
11.7670578,10.6890572991593,-28.97004768923423,-3.5797166089602994
11.77205783,11.128542152435527,-30.047823460709807,-3.9032127128523566
11.77705783,11.368911440451464,-30.549923129686988,-4.110198725907626
11.78205783,11.4085611702783,-30.47609849359696,-4.190442723730606
11.7870578,11.252261504174745,-29.84302499536956,-4.138801312953181
11.7920578,10.91075909952156,-28.68345969212871,-3.9552367420202583
11.7970578,10.400131335252578,-27.04477730931323,-3.6446161333469935
11.80205783,9.740936978758297,-24.986963879019807,-3.2163149331323884
11.80705787,8.957217064868054,-22.58017210606281,-2.6836558654934484
11.81205787,8.075404932433058,-19.901960274143836,-2.0632211840287726
11.81705783,7.1232053803571995,-17.034346581175786,-1.3740797047399678
11.8220578,6.1285000791335165,-14.060813230726492,-0.6369710088737885
11.82705776,5.118330309465489,-11.063389855016233,0.12651248414722466
11.83205773,4.117999525523273,-8.119934756538141,0.8947088055644579
11.83705773,3.1503279227267997,-5.3017161796628,1.646604032835885
11.84205776,2.2350799119002507,-2.671375695983685,2.362460113806754
11.8470578,1.388573950101392,-0.281333227051743,3.0243365461631795
11.85205783,0.6234732987503956,1.827330351217924,3.616497418912294
11.85705783,-0.05125338424952409,3.625500359051207,4.125702818712869
11.86205783,-0.6302206644103368,5.096174399512217,4.541390202808401
11.8670578,-1.1113891289149322,6.2341560680664285,4.855756643345384
11.8720578,-1.495731077011946,7.045341481918482,5.063756603116153
11.8770578,-1.7868294156226243,7.5456569169496115,5.163031999346467
11.88205783,-1.9904396808482179,7.759715291920699,5.153791768053145
11.88705783,-2.1140429748395055,7.719265008694897,5.038657098259858
11.89205783,-2.1664140606314404,7.461506854554693,4.822486215995916
11.89705783,-2.1572242654758265,7.027353549482469,4.512189399654848
11.90205783,-2.0966935953305827,6.45970245248823,4.11654118682705
11.90705783,-1.9953009407626596,5.801785398095766,3.6459928862971696
11.91205779,-1.8635558137709445,5.095651147524078,3.1124849121730165
11.91705779,-1.7118300170737388,4.380826060216529,2.5292554328505337
11.92205779,-1.550243286028204,3.6931878587235296,1.9106396325828177
11.92705783,-1.3885934690267843,3.0640762723156754,1.2718527027199276
11.93205786,-1.2363193593546502,2.519653345871512,0.6287496167844816
11.93705786,-1.102482916520405,2.0805156795923856,-0.0024441890770681334
11.94205783,-0.9957573073116432,1.761551159632771,-0.6054349921895651
11.94705779,-0.9244078930348119,1.5720241249461055,-1.164196589861028
11.95205779,-0.8962548814800847,1.515865581807935,-1.6633369335875277
11.95705779,-0.9186087010535908,1.5921391207570226,-2.0884890051619376
11.96205782,-0.9981720570772648,1.7956486338077753,-2.4267157942145867
11.96705783,-1.1409058855141232,2.1176507616801348,-2.666916313916587
11.97205782,-1.351859791763629,2.5466332041500173,-2.800217586312295
11.97705783,-1.6349708036027661,3.06911957331914,-2.820336574796022
11.98205782,-1.9928371527262805,3.6704623044548437,-2.723896158395624
11.98705782,-2.4264761789364107,4.335587187804503,-2.510680387048847
11.99205779,-2.935077289562107,5.04965628054733,-2.18381631271804
11.99705779,-3.5157622733486287,5.798620247407667,-1.7498724135778343
12.00205779,-4.163366266460013,6.569636498070215,-1.2188666335524085
12.00705782,-4.870253346872674,7.351335738244178,-0.6041799231171294
12.01205782,-5.626181041581153,8.133926578206994,0.07762640926164788
12.01705782,-6.418227840573398,8.90913546677566,0.8070892982242635
12.02205779,-7.230796973712717,9.669987293514946,1.5622166025343782
12.02705776,-8.045708123083593,10.41044048900641,2.3189502736557843
12.03205772,-8.842386446413638,11.124899383051833,3.0517142851965664
12.03705772,-9.598155470685157,11.807635833834572,3.7340390016536045
12.04205776,-10.288637333638636,12.45216118348471,4.339250861019361
12.04705779,-10.888260629289674,13.050597405881975,4.841213530633042
12.05205782,-11.370872627673586,13.593101571922832,5.2151041944120555
12.05705785,-11.710448586592769,14.067399225957589,5.438206316921353
12.06205785,-11.88188600440046,14.458479211762969,5.490698079552041
12.06705782,-11.861866009633987,14.748494927111002,5.3564137766302276
12.07205779,-11.629758019697453,14.91690558376253,5.023553997049982
12.07705779,-11.16853791658474,14.940876776325545,4.485319656193591
12.08205779,-10.465684902210738,14.79594354785334,3.7404450851354922
12.08705782,-9.514018435601038,14.456922194680525,2.7936065157940404
12.09205782,-8.312434615319178,13.89904027347614,1.6556844116771068
12.09705782,-6.866501326190217,13.09923861874383,0.3438611201085029
12.10205779,-5.188873584598745,12.037585538302755,-1.11846083377765
12.10705775,-3.2994948569236446,10.698732523637187,-2.701929943836142
12.11205772,-1.225556649022387,9.073333463477077,-4.371711402155479
12.11705772,0.9988027988125929,7.1593459882560735,-6.088146607812905
12.12205762,3.3330696364299133,4.963134510210618,-7.8075997949071185
12.12705765,5.731192769741433,2.5002998650991586,-9.483478726524904
12.13205768,8.142674677684756,-0.2038298922663457,-11.067409951596721
12.13705768,10.513887597439112,-3.11409933906909,-12.51054278206638
12.14205768,12.78957627638244,-6.185850838266975,-13.764950148599159
12.14705765,14.914497985807644,-9.365689713792541,-14.785089065952972
12.15205762,16.835141805636354,-12.592682333849037,-15.52927880726692
12.15705758,18.501462851704677,-15.799957334454056,-15.961151250271815
12.16205668,19.86856355461393,-18.916657948535637,-16.05102540506799
12.16705605,20.898253620102803,-21.870172832019023,-15.777157069749428
12.17205541,21.560423075736583,-24.588555222799755,-15.12681511292611
12.17705545,21.83416882598464,-27.00302695394442,-14.09713823002762
12.18205481,21.708624173404367,-29.05045575981603,-12.695730216149498
12.18705415,21.183452415541336,-30.67569214296785,-10.940957751341776
12.19205344,20.268979394001278,-31.833656145189448,-8.86192222367783
12.19705251,18.985955177036665,-32.491074626308546,-6.498086032329955
12.20205161,17.36495116996266,-32.627785558231864,-3.8985439806016373
12.20705071,15.445414922571539,-32.23754634608476,-1.1209417053652038
12.21204984,13.274419669409694,-31.32830687102133,1.769944486298575
12.21704984,10.90515822295051,-29.921933244626377,4.703938638742212
12.22204918,8.395240563433747,-28.05339370701217,7.607465249860253
12.22704824,5.804861031523034,-25.769442474999103,10.40576233612994
12.23204754,3.194904455072492,-23.126859691192724,13.025237214822601
12.23704751,0.6250610554380264,-20.190325120584706,15.395881480110493
12.24204684,-1.8479820907545337,-17.030019118600674,17.453650033219915
12.24704688,-4.172209535774918,-13.71905593804773,19.142700284790724
12.25204651,-6.301748557364176,-10.330861037221691,20.41738395323459
12.25704564,-8.198093521194028,-6.936605218043886,21.243888566701575
12.26204564,-9.831044164136655,-3.6028039622315298,21.60144181551833
12.26704564,-11.179330490716383,-0.3891805747487305,21.48301908197499
12.27204574,-12.230910458824122,2.6531223949673115,20.895528157578287
12.27704574,-12.98294044904228,5.48291622990064,19.859478404792895
12.28204574,-13.44143147911029,8.069875448627668,18.40816871028925
12.28704577,-13.620615355372315,10.394955196490132,16.58644709307894
12.29204577,-13.542054030255743,12.45030832737661,14.44910546531396
12.29704577,-13.233532361157293,14.238713842710501,12.058978014501596
12.30204577,-12.727779486096612,15.772547912983079,9.484813323283422
12.30704577,-12.0610675627917,17.072347383998608,6.798990875744656
12.31204667,-11.271739216370298,18.16503294338879,4.075154211838564
12.31704731,-10.39871705255219,19.081874383473544,1.3858368659274136
12.32204794,-9.480049656374488,19.856292766481445,-1.1998380168669158
12.32704794,-8.551547632279604,20.52160271057475,-3.6183014321974416
12.33204861,-7.64555965307438,21.108801638087336,-5.813446415694307
12.33704931,-6.78993218134697,21.64451139686561,-7.738230867181456
12.34204997,-6.007188154391768,22.14917141186682,-9.355920617923827
12.34705087,-5.313950245070275,22.635571896130088,-10.640934968952463
12.35205174,-4.7206239330187145,23.107801157896578,-11.579274596173452
12.3570526,-4.231345012175418,23.56066325303168,-12.168529111814955
12.36205347,-3.84418572663862,23.979601810441743,-12.417477978284097
12.36705347,-3.551603833190578,24.34114356614361,-12.345313345099132
12.37205417,-3.3411098553465206,24.613851835403022,-11.980526290979952
12.3770551,-3.196119886232356,24.7597567648143,-11.359508552917191
12.3820558,-3.0969547313582364,24.736206722077522,-10.524929841379228
12.3870558,-3.0219411356489028,24.498064601087354,-9.52395611614393
12.39205647,-2.9485674654240843,24.000155112626597,-8.406376736215314
12.39705644,-2.8546446493482596,23.199855172591654,-7.222708403200079
12.40205684,-2.719423529427165,22.05970999593068,-6.02234166295473
12.40705774,-2.5246220856766666,20.54995291698253,-4.851791865139768
12.41205777,-2.2553202295557573,18.650807484145094,-3.7531113152205493
12.41705777,-1.9006858356042502,16.35445601349643,-2.7625131729703196
12.42205777,-1.4545031046978323,13.66656941241712,-1.9092505847085546
12.42705773,-0.9154828719662621,10.607308501204512,-1.2147865676286889
12.4320577,-0.28734373768878185,7.211726936630719,-0.6922811562806566
12.43705767,0.4213374061825104,3.5295296309697832,-0.3464120671346496
12.44205767,1.197497055899558,-0.37583251534465384,-0.17353348648333838
12.44705767,2.0241609388315243,-4.428721634559333,-0.16216463347181223
12.4520577,2.8811968537717036,-8.543485454131986,-0.29378599028009555
12.45705773,3.7462091188616293,-12.627172832684867,-0.5439074208510133
12.46205776,4.59553230425908,-16.58269248274368,-0.8833599013231431
12.46705777,5.405276690826086,-20.312288464973985,-1.2797522380272068
12.47205776,6.152374795451595,-23.72118374063864,-1.6990266334063793
12.47705773,6.815577797591593,-26.72122703809188,-2.1070426424600686
12.48205773,7.3763531608242126,-29.23437041075352,-2.4711181209245687
12.48705773,7.819640272592075,-31.19580666909029,-2.7614583559372936
12.49205776,8.134429238499935,-32.55660825171842,-2.9524108534220943
12.49705776,8.314138394902066,-33.285732063991006,-3.0234932259707854
12.50205776,8.35677776874415,-33.37128725601093,-2.9601548279619316
12.50705776,8.264897808516407,-32.82100257938976,-2.754248196657013
12.51205776,8.045334600259272,-31.661873706615904,-2.4042025697845073
12.51705776,7.7087738043811,-29.939015204880807,-1.9149073632800473
12.52205773,7.2691648363828145,-27.7137833574225,-1.2973274123343719
12.52705773,6.743023506447765,-25.061271869453684,-0.567883259450776
12.53205773,6.1486649486696665,-22.067310633619506,0.25236163472674283
12.53705776,5.505409227295221,-18.825117037928358,1.1386593627192063
12.54205776,4.832799851084956,-15.431759467150801,2.063631835632207
12.54705776,4.149871042867677,-11.98459394776056,2.9983712667250275
12.55205773,3.4744935473094745,-8.577827995253289,3.9135400594660035
12.5570577,2.8228216099514913,-5.299351656604819,4.780428037930156
12.5620577,2.208856129113727,-2.227955804680906,5.571931167809477
12.56705773,1.6441314212182854,0.5689665566242338,6.263423032467612
12.57205776,1.137526001432425,3.037167284639503,6.833497812000081
12.57705776,0.6951916067865087,5.136697968115682,7.264570869230539
12.58205776,0.32058961624256965,6.8424602888064925,7.543329854936487
12.58705776,0.014620192255689453,8.144166006375622,7.6610351894330915
12.59205776,-0.2241730693760646,9.04574462870605,7.613673660908862
12.59705776,-0.3993414724181872,9.564257323649791,7.4019726207515415
12.60205773,-0.5162311468810618,9.72839208048231,7.03128487921948
12.60705773,-0.5816622963523789,9.576627173466182,6.511356035917536
12.61205773,-0.6036037859991229,9.15515747190174,5.8559868214971305
12.61705776,-0.5908567506578826,8.515681139819122,5.082603327808611
12.62205776,-0.5527581167284947,7.713143015320592,4.211748017276796
12.62705776,-0.49891189180627316,6.803525849313199,3.2665043530409656
12.63205773,-0.43895297976348363,5.8417721292935765,2.2718679496234295
12.63705773,-0.3823453230502079,4.879908015642096,1.2540774153274261
12.64205773,-0.33821353104173635,3.965427632927556,0.23991858610171451
12.64705776,-0.3152049471563418,3.139981268671482,-0.7439833777205191
12.65205776,-0.32137740198839726,2.4383956067751162,-1.6718686204813398
12.65705776,-0.3641067053474144,1.8880385948087366,-2.5195275684042846
12.66205776,-0.45000722814936084,1.5085264962847675,-3.2649490922699136
12.66705776,-0.5848587026726492,1.3117566373833753,-3.8889143459469717
12.67205776,-0.7735326429284286,1.3022367865354643,-4.37551913124942
12.67705773,-1.0199125827166042,1.4776713954417928,-4.712608929937485
12.68205769,-1.3268036333327629,1.8297563836078943,-4.892113075135577
12.68705769,-1.6958285963277888,2.3451279790611124,-4.910267865643166
12.69205772,-2.127309919050851,3.0064074826311225,-4.767722573304759
12.69705776,-2.6201390563950095,3.7932827918171466,-4.469526954087511
12.70205776,-3.1716372244384745,4.683569115263907,-4.025003634942331
12.70705776,-3.777414015289539,5.654195451923231,-3.447513103661326
12.71205772,-4.4312327631753625,6.682069941184079,-2.7541224583748387
12.71705769,-5.1248937285798375,7.744785868228811,-1.9651911919064724
12.72205766,-5.848147870969952,8.821140585323638,-1.1038879861485835
12.72705766,-6.58865497395865,9.891451460293752,-0.19565200437740232
12.73205769,-7.33199998132678,10.937665763174493,0.7323890028829426
12.73705772,-8.061780513593462,11.943274744032525,1.652032760027816
12.74205775,-8.759776706813263,12.893055546678193,2.5346387479373114
12.74705775,-9.406211888885968,13.772677342676355,3.3517775551565276
12.75205775,-9.980109335027995,14.568219224508438,4.0758847756981265
12.75705772,-10.459746493253512,15.265655871068942,4.680911397979883
12.76205772,-10.823203614670614,15.85037168401086,5.142962816144002
12.76705772,-11.048998631461487,16.306764143551764,5.440918353820836
12.77205775,-11.116794502987146,16.617992273997814,5.557022459548763
12.77705775,-11.00815939709967,16.7659167321441,5.477437588629392
12.78205775,-10.707354427306775,16.73126498441827,5.192747432756019
12.78705772,-10.202118706766322,16.494039341356615,4.698397849661457
12.79205769,-9.48441765400637,16.034168299258393,3.995061779489959
12.79705765,-8.551118159356829,15.332383709731415,3.0889137235401147
12.80205765,-7.404553663727422,14.371288773372042,1.9917990778271046
12.80705765,-6.05294359311821,13.136565756290851,0.7212838515538592
12.81205768,-4.51063503301411,11.618258656580252,-0.6994288229424019
12.81705772,-2.798140012480416,9.812055716659152,-2.2417273516640916
12.82205775,-0.9419491606172217,7.72049044069223,-3.8719749998525215
12.82705775,1.0258884705498426,5.3539781673752955,-5.552053987064461
12.83205775,3.068419327265129,2.7316085521141154,-7.240072196520164
12.83705772,5.144661836850438,-0.1183774443236463,-8.891229224443066
12.84205772,7.210682929376841,-3.1584845152275656,-10.458832666432976
12.84705772,9.2208410994544,-6.342275204852009,-11.895449179422943
12.85205775,11.129152539609317,-9.615117983474184,-13.154168219844992
12.85705775,12.8907285594273,-12.915368680693325,-14.189949755437096
12.86205775,14.463226460142865,-16.17595828754384,-14.961021027507558
12.86705775,15.808252810416038,-19.326335762697106,-15.430281950064394
12.87205775,16.892658080318405,-22.294691729416783,-15.566674304312842
12.87705775,17.689665053489165,-25.010369394136195,-15.346466824842421
12.88205772,18.179780312730653,-27.406354161669373,-14.75440681986868
12.88705772,18.35144806115502,-29.4217245982233,-13.784689266390538
12.89205772,18.20141802505507,-31.003945573408252,-12.441696403786192
12.89705775,17.734813412904057,-32.11089000772671,-10.740464667164828
12.90205775,16.964899930230075,-32.712488398748356,-8.706841303421538
12.90705775,15.912571560093346,-32.79192423743865,-6.377300234441776
12.91205771,14.605582027588472,-32.34631698116874,-3.7983958260011335
12.91705771,13.077561541641813,-31.386860494109342,-1.025844375910434
12.92205771,11.366865916586748,-29.938411895587116,1.8767635763850115
12.92705775,9.515309372518702,-28.038551956100246,4.839601757295944
12.93205778,7.566833425641197,-25.736162277337588,7.788562318462341
12.93705778,5.566162744836165,-23.08958551516676,10.647472775484761
12.94205778,3.5574951942436557,-20.164452123676323,13.34050504100366
12.94705778,1.5832680494580984,-17.031269992137606,15.794688888841948
12.95205778,-0.316963899680641,-13.762881609841713,17.942427169948385
12.95705778,-2.1075094420072693,-10.43189694330572,19.723898605444457
12.96205775,-3.757359112628281,-7.1082091105216065,21.08922850724244
12.96705775,-5.240824662857236,-3.856694279857971,22.0003118135653
12.97205775,-6.537989761499384,-0.7351871474450589,22.432189248655135
12.97705778,-7.634967085390343,2.20719075166904,22.373905866415246
12.98205778,-8.523962117116659,4.9312899833999,21.828817255805603
12.98705778,-9.20314934027009,7.408738957559015,20.81434572151487
12.99205774,-9.67637202001701,9.622276325741346,19.3612210623013
12.99705775,-9.952681984034589,11.565609791903395,17.512264857514808
13.00205774,-10.045740333066615,13.242819760029697,15.320792719214538
13.00705778,-9.97310352439563,14.667343277264314,12.848716799272792
13.01205778,-9.755421694482697,15.860588935038887,10.164432664676683
13.01705778,-9.41557749452683,16.850246545497868,7.340572273969723
13.02205778,-8.977794324667911,17.668366287867922,4.4517000726332006
13.02705778,-8.466742953176263,18.349290433552724,1.572023962122431
13.03205778,-7.906675260165019,18.927526507489386,-1.2268118133663077
13.03705774,-7.32061314441115,19.435653547175587,-3.8777890367707193
13.04205774,-6.729619155583897,19.902352673495283,-6.320374976239263
13.04705774,-6.152172848057444,20.350649267392615,-8.50212687927052
13.05205778,-5.60367307820449,20.796446590951724,-10.379997574205717
13.05705781,-5.09608160505144,21.247419822444222,-11.92130835100009
13.06205781,-4.637717692041177,21.70232550428379,-13.104366901301303
13.06705778,-4.233207299945895,22.150764815664118,-13.918720499878168
13.07205774,-3.883584255903799,22.573420492224834,-14.365047044827223
13.07705771,-3.5865347866556285,22.942767319902806,-14.454698388970568
13.08205767,-3.3367712662047206,23.2242356816801,-14.208921115914794
13.08705767,-3.1265161473524876,23.377787432067795,-13.65778925097908
13.09205771,-2.9460729788292634,23.359844244728727,-12.83889120859747
13.09705774,-2.7844582809427885,23.12549135951792,-11.79581952389534
13.10205777,-2.6300659633366203,22.63086514923221,-10.576516607386338
13.10705777,-2.471334990599455,21.83562185622064,-9.231532918732011
13.11205777,-2.29739117302979,20.705377811250404,-7.812255588216644
13.11705774,-2.098635280776945,19.21400887585179,-6.369165623228118
13.12205774,-1.8672521110015106,17.345698993287414,-4.9501804276507375
13.12705774,-1.597618604597254,15.09663464550394,-3.5991354544757614
13.13205777,-1.2865935056284483,12.47625355730907,-2.354454416366189
13.13705777,-0.9336762551589702,9.507971849047404,-1.248051547926515
13.14205777,-0.5410286693866588,6.229333530408688,-0.3045018239658373
13.14705774,-0.11335930345951509,2.6915491270334955,0.45949431990346024
13.1520577,0.3423229768410467,-1.041584365766581,1.0353362538891857
13.15705767,0.8170731082706439,-4.895362854741088,1.4224351820973251
13.162057,1.3004723369797975,-8.786406441055538,1.627822519581066
13.16705704,1.781164419015562,-12.625367291668237,1.6654767287723833
13.17205617,2.2474365215675225,-16.320012203843483,1.5554022314436269
13.1770553,2.6878129577720973,-19.778554373011424,1.3225039672879593
13.18205467,3.0916287131543068,-22.91308999527706,0.9953092339292986
13.18705467,3.449550496988666,-25.642983034317247,0.6045943767002473
13.19205397,3.754015924584973,-27.898037374888965,0.1819774186345789
13.19705303,3.999566356668362,-29.62130072531319,-0.2414615681987706
13.20205213,4.183055608591557,-30.77135930760825,-0.6364730586116119
13.20705147,4.303724730104887,-31.324006090381005,-0.9767902391789158
13.2120506,4.363141769860736,-31.273196872273285,-1.240096332016609
13.2170506,4.365014246898303,-30.631246052989955,-1.4087740081730769
13.22204993,4.3148902934402456,-29.428254938384462,-1.4704164955909291
13.22704927,4.219771419758244,-27.710806889979512,-1.4180929251874241
13.2320486,4.087664909648362,-25.540002316883267,-1.2503727127704976
13.2370486,3.9271064876182256,-22.98893949196257,-0.9711246018984583
13.24204857,3.7466839721481393,-20.139772301945772,-0.589114885778302
13.24704816,3.5545904047081023,-17.08049216346922,-0.11743601413379086
13.25204817,3.358231129139633,-13.90158825226874,0.427198783902067
13.2570482,3.1639040604653332,-10.69273840594765,1.0252569695840745
13.26204753,2.9765664593104804,-7.5396735194347615,1.655246086555373
13.26704686,2.7996953886173253,-4.521342174893883,2.2945943803200928
13.27204683,2.6352430733510537,-1.707481038616409,2.9205189184214144
13.2770468,2.483682933046642,0.8433282615254715,3.5108516299803703
13.28204676,2.344137353895266,3.0850619350201414,4.044798630496277
13.28704736,2.214574478882231,4.985090075254432,4.5036135255332095
13.2920474,2.092058513946353,6.524446099378177,4.871170671126371
13.29704743,1.9730362965738926,7.697554265094875,5.13442924648487
13.30204746,1.8536421145067754,8.511461490151275,5.283783222408093
13.30704749,1.730002922290146,8.984637551645255,5.313295781880204
13.31204816,1.5985270848653967,9.145421463066915,5.220819477821063
13.31704813,1.4561614660460451,9.030201204477708,5.008005488452701
13.32204899,1.3006039484122753,8.681419001486592,4.680206901481412
13.32704989,1.130461187962735,8.14549517602684,4.246282205144522
13.33205056,0.9453444434132455,7.470760549172683,3.7183062678897185
13.33705059,0.7458995541346715,6.705480913824455,3.111197198927277
13.34205126,0.5337704540829553,5.896047748843524,2.4422687040377307
13.34705216,0.3114988854073605,5.085397695830359,1.7307189460603363
13.35205302,0.08236610091461272,4.311709955561782,0.9970685023359201
13.35705366,-0.14981479013408416,3.607416259972582,0.2625617290862521
13.36205386,-0.3809446751003172,2.998542990412025,-0.4514524497060221
13.36705386,-0.6069092792359726,2.5043898758020378,-1.1241428391910337
13.37205456,-0.8238602512811183,2.1375350298740137,-1.7358028799496616
13.37705526,-1.0284907894874902,1.9041423670076945,-2.268423402718045
13.38205596,-1.2182897665676358,1.8045351332212847,-2.706213039771997
13.38705596,-1.3917586466474896,1.833988824741579,-3.036049601361829
13.39205596,-1.5485765338492261,1.9836885034822775,-3.24784817147306
13.39705632,-1.6897004677799188,2.2417897362798764,-3.334835047952658
13.40205632,-1.8173905783851192,2.594519283184345,-3.293720879729771
13.40705632,-1.935152906918835,3.027251389030471,-3.124771243864822
13.41205702,-2.0475965500085715,3.525498203670535,-2.831778040245033
13.41705769,-2.1602061992214643,4.075758511289016,-2.4219398068867837
13.42205769,-2.2790359365818804,4.66617749276476,-1.9056626256491278
13.42705769,-2.410335005979437,5.286981379225511,-1.296295123525376
13.43205769,-2.56012086669979,5.930664060798908,-0.6098110016267061
13.43705709,-2.7337188383099362,6.591917309996012,0.13554918782498993
13.44205705,-2.9352908291556483,7.267311541199543,0.9196680056047646
13.44705755,-3.1673778517920956,7.954749319745265,1.7209666650037188
13.45205755,-3.43048219573847,8.652728635489082,2.516842153138375
13.45705755,-3.7227152160058465,9.359466715678233,3.284123021930053
13.46205759,-4.039535634596749,10.071947060332436,3.9995410394657096
13.46705759,-4.373600909669943,10.784961314296208,4.6402154391732955
13.47205759,-4.71475048061619,11.490222350271043,5.184145871227322
13.47705755,-5.050134543741722,12.17562465974927,5.61070949962387
13.48205755,-5.364495618243741,12.824722566571863,5.9011569652887275
13.48705755,-5.640602822211534,13.416486234498446,6.039101040756817
13.49205759,-5.859830856263923,13.925380696189519,6.010990653787473
13.49705759,-6.002867590118915,14.321795143464563,5.806561572105543
13.50205759,-6.0505263081745255,14.572829523545803,5.4192535288724475
13.50705759,-5.984631556894652,14.643424161627703,4.846582067907355
13.51205825,-5.788941581502511,14.497796772012789,4.090452030696995
13.51705825,-5.450065907902235,14.101130913754504,3.1573985386664214
13.52205822,-4.958334009355271,13.421441752112344,2.0587407192390446
13.52705822,-4.308570410689181,12.431529916893888,0.8106334582656053
13.53205822,-3.5007331566995483,11.110923222067148,-0.56599672874112
13.53705825,-2.540376347000526,9.44769979584809,-2.0456439384380274
13.54205825,-1.4389033591167797,7.440085334295675,-3.5985528709786543
13.54705825,-0.21358528319536807,5.0977220602305175,-5.191192666871974
13.55205822,1.1126712802231995,2.442517595232124,-6.786876211913709
13.55705818,2.5118118865679704,-0.4910019006700152,-8.346521203467256
13.56205815,3.9513702015813794,-3.6558888220789933,-9.829543262126249
13.56705815,5.395432589352366,-6.993550601677913,-11.194864970023456
13.57205815,6.805799339461264,-10.435106259579463,-12.402018297606999
13.57705818,8.143299027005087,-13.903293354620816,-13.412311861241733
13.58205822,9.36920252158775,-17.31486493808673,-14.190029226202858
13.58705825,10.446675380446681,-20.58338659553118,-14.703620349784641
13.59205825,11.342202382617083,-23.622317137362955,-14.926845473637098
13.59705771,12.026916337728625,-26.348234850594256,-14.839829484665332
13.60205768,12.47776549884646,-28.68405633434551,-14.429985104143052
13.60705768,12.6784602165229,-30.56208848637047,-13.69276532439837
13.61205768,12.620149906906278,-31.92675742237686,-12.632209243143972
13.61705771,12.301795575549756,-32.736871511883216,-11.261250598534467
13.62205771,11.730220087405543,-32.967298809002195,-9.601764515180117
13.62705771,10.919836578998504,-32.609970309477454,-7.684334935756374
13.63205768,9.892073054053549,-31.674157141769445,-5.547732860127874
13.63705764,8.67452664460617,-30.186009089710264,-3.2381039755412684
13.64205761,7.299893149239465,-28.18738094984123,-0.8078737000075716
13.64705761,5.804725808870265,-25.734009725652648,1.6856119111889725
13.65205764,4.228081907641728,-22.893137610793044,4.181679722622404
13.65705768,2.610117089717846,-19.740701674313108,6.618116186412631
13.66205771,0.9906858194526235,-16.35823012474491,8.933094012796616
13.66705771,-0.5919972173861765,-12.829596323265,11.067174270101166
13.67205771,-2.1025852022407823,-9.237785064667184,12.965308609289796
13.67705768,-3.5096735539401176,-5.661821385861387,14.57875711815253
13.68205764,-4.786684551843646,-2.174001209687957,15.86683110807011
13.68705761,-5.912534086374368,1.1624536227877746,16.79836922142736
13.69205761,-6.87206119568732,4.2952156917926825,17.352862685808677
13.69705761,-7.656210872575809,7.184075356197911,17.52116377432125
13.70205764,-8.261971175454738,9.801527253981543,17.30573968701875
13.70705767,-8.692076100469274,12.132714643414603,16.72046680349535
13.71205771,-8.954495111612134,14.174759860594925,15.789990355737944
13.71705771,-9.061738217807424,15.935539321500471,14.548696986638621
13.72205771,-9.030011860296106,17.431986847029986,13.039361214333033
13.72705767,-8.87826555888211,18.688029007230142,11.311533067393531
13.73205767,-8.627172273794981,19.732270381141127,9.419735565984366
13.73705767,-8.298086912851781,20.59555499866072,7.421539773659082
13.74205771,-7.91202756552293,21.30853285951053,5.375584018844241
13.74705771,-7.488722963784907,21.899357584465072,3.339603933115252
13.75205771,-7.045767143444653,22.391633208436087,1.3685408819787988
13.75705767,-6.597917922764598,22.80271499298671,-0.48720379301893485
13.76205764,-6.156569436741221,23.142451076309047,-2.1833048896571317
13.7670576,-5.729420800506708,23.41242932948745,-3.682784136293559
13.7720576,-5.320353575687908,23.605767982290565,-4.956972147075601
13.77705764,-4.929520701901884,23.707460771686197,-5.986132751207995
13.78205767,-4.553639485031048,23.69525899172404,-6.759736691636169
13.7870577,-4.186471568420204,23.541045290966352,-7.276387387152364
13.7920577,-3.8194639443598724,23.21262870193432,-7.543416187380249
13.7970577,-3.4425173179955055,22.675868414189694,-7.576177566854776
13.80205767,-3.044841772606202,21.897016291529738,-7.397085289883638
13.80705764,-2.6158549043221786,20.845155969118153,-7.034438122377559
13.81205764,-2.1460745868167717,19.494610178043263,-6.521087893314052
13.81705767,-1.627957539277082,17.82718803035174,-5.8930039324110925
13.8220577,-1.0566362099887499,15.834150289946132,-5.18778702801959
13.8270577,-0.43051041099486337,13.5177827750712,-4.443184124250719
13.8320577,0.24834329316395448,10.89248540331483,-3.695652718859606
13.8370577,0.9739724378058956,7.985306298488251,-2.979021485359285
13.8420577,1.736576757390628,4.835876026941323,-2.323290802684764
13.8470577,2.5227681658611116,1.4957254670827669,-1.7536133106662555
13.85205767,3.3160541955734497,-1.972999127104164,-1.2894900089379353
13.85705767,4.097523476116803,-5.499380038105288,-0.9442114677162099
13.86205767,4.846699653584926,-9.006058234315454,-0.7245661199079005
13.8670577,5.542519502193384,-12.41195104379321,-0.6308281705088646
13.8720577,6.164382491089527,-15.635237000809724,-0.6570264273218648
13.8770577,6.6932132601783545,-18.59647139812182,-0.7914826081457035
13.88205767,7.11247577471822,-21.22168649126977,-1.0175939755536434
13.88705767,7.409078775879403,-23.44532806821525,-1.3148214584241238
13.89205767,7.574116844396169,-25.212885759195547,-1.659832150895265
13.8970577,7.603400020429488,-26.483088126558478,-2.027735814531072
13.9020577,7.49773714050322,-27.22955480688164,-2.3933499995843066
13.9070577,7.262953115999976,-27.441825732754204,-2.7324281813731788
13.9120577,6.909637258275845,-27.125720069710837,-3.0227896463674138
13.9170577,6.4526372178603575,-26.303012779823266,-3.2452980284173645
13.9220577,5.910329699048541,-25.01045222392498,-3.384646501257165
13.92705767,5.30371328777664,-23.298175533731456,-3.4299207702131853
13.93205763,4.655379177535288,-21.227607494330325,-3.3749251624989767
13.93705763,3.9884215335443476,-18.868951713732084,-3.2182711438019953
13.94205766,3.3253505570383197,-16.29839886562375,-2.9632403610027596
13.9470577,2.6870683469269356,-13.59518536610576,-2.6174449431192985
13.9520577,2.0919610666536457,-10.838637121036554,-2.19231578309976
13.9570577,1.5551515370392102,-8.10532747728637,-1.7024547572509068
13.96205766,1.0879450787039162,-5.466467021192377,-1.1648894981643088
13.96705763,0.6974890932206181,-2.985626402820152,-0.5982697733876602
13.9720576,0.3866543062864054,-0.716873099640693,-0.02204315030404266
13.9770576,0.15413350818222377,1.2966197752357058,0.5443551495988582
13.98205763,-0.005257384373774756,3.0234586052012062,1.0822671352370818
13.98705766,-0.1001005758527705,4.444398492901953,1.5745051926920093
13.99205769,-0.14175212516529623,5.552209857342186,2.0059521319307927
13.99705769,-0.14360975026194842,6.351076814853128,2.3640521744694083
14.00205769,-0.12031346599145698,6.855580056501227,2.63918238298946
14.00705766,-0.0869207909813625,7.08933179044731,2.8248993257916317
14.01205766,-0.05809718728689239,7.08334130743366,2.9180606980840498
14.01705766,-0.04735954391264311,6.874196630239252,2.9188260342854258
14.02205769,-0.06640621582645768,6.502150485472601,2.830544423653828
14.02705769,-0.1245617279596307,6.009197622169358,2.6595402106916164
14.03205769,-0.22835805630134393,5.437225597306277,2.4148100034389004
14.03705766,-0.38126766457362815,4.826313011924825,2.1076459642742105
14.04205762,-0.5835964351498018,4.213238398693769,1.7512013913556677
14.04705759,-0.8325375124068994,3.6302501920021832,1.3600151010866546
14.05205759,-1.122380106272965,3.1041341291130946,0.949511188516413
14.05705759,-1.4448607128595539,2.655599683387431,0.5354904754590628
14.06205762,-1.789638217305594,2.298992327770213,0.13362944422620981
14.06705766,-2.1448691599661536,2.042324139091468,-0.24099826358833615
14.07205769,-2.497855267472307,1.8876019991502704,-0.5743636669054023
14.07705769,-2.8357323430125665,1.8314208679058945,-0.8538747712579731
14.08205769,-3.146167887930119,1.8657796452409219,-1.0687083301755331
14.08705766,-3.418034433934391,1.9790692551136868,-1.2100721904283325
14.09205766,-3.6420264914827865,2.157176947112497,-1.2713920478572436
14.09705766,-3.811191217906403,2.3846475054505247,-1.248419534535939
14.10205769,-3.9213463016419143,2.6458411140813176,-1.13926203696328
14.10705769,-3.971363048353651,2.926029044367889,-0.9443384688509727
14.11205769,-3.9632981348125265,3.2123720867545216,-0.6662692471278002
14.11705769,-3.902363846013182,3.494732684248486,-0.30971259762155084
14.12205769,-3.7967336569686587,3.7662799029331175,0.11883750326242247
14.12705769,-3.6571875013222575,4.0238564231578,0.6112745785317355
14.13205766,-3.496608629952019,4.268088249274454,1.1581068395977723
14.13705766,-3.3293511941483933,4.5032303054584055,1.7486729188195964
14.14205766,-3.1705041934969587,4.736753941367009,2.3713343317907913
14.14705769,-3.035082890958528,4.9786950394489775,3.0136376798658646
14.15205769,-2.9371829972377737,5.240793359189531,3.6624450698819353
14.15705769,-2.8891357144143304,5.53546449943159,4.304036725110161
14.16205699,-2.9007029952734364,5.874655019541753,4.924194690575303
14.16705632,-2.9783520505627057,6.2686385597687195,5.508280299256046
14.17205565,-3.1246462260139607,6.724816083771011,6.041320158975418
14.17705482,-3.3377859704868746,7.246586496715331,6.5081156679532635
14.18205485,-3.6113288622932496,7.83235458646565,6.893389753035621
14.18705419,-3.9341116417454565,8.474740993813649,7.181982167823619
14.19205329,-4.290389943945066,9.16005321316917,7.359101663596889
14.19705262,-4.66020300637965,9.868067225154826,7.410639742593711
14.20205172,-5.019961258918691,10.57215650509576,7.323546477174023
14.20705082,-5.343244762453789,11.2397894614246,7.086264060323274
14.21204988,-5.60179039321687,11.833398651453855,6.689208539117643
14.21704899,-5.766635921536197,12.311606275377514,6.125284912548592
14.22204898,-5.809380150176893,12.630771362204344,5.390415847303896
14.22704835,-5.703510513005205,12.746805640790507,4.4840600515330085
14.23204835,-5.425743443551005,12.617188223459562,3.4096931505438386
14.23704835,-4.957318823444305,12.20309477064347,2.1752219693345043
14.24204832,-4.285188261560285,11.471545565801032,0.7933026389836493
14.24704832,-3.4030380907063007,10.397469665184715,-0.7184659408074439
14.25204832,-2.3120919381960223,8.965579632845381,-2.3374989435260605
14.25704835,-1.021644524574044,7.171953771070322,-4.036353932744084
14.26204835,0.45071220460995676,5.025230411938057,-5.783045787840962
14.26704835,2.079197749322677,2.5473316928017655,-7.541556053804945
14.27204835,3.8303000556654294,-0.2263480034807606,-9.272536292774996
14.27704948,5.663579440521889,-3.247331638173794,-10.934196247435274
14.28204942,7.532802342983785,-6.455044104130923,-12.483358691300488
14.28704872,9.387371995136112,-9.778380448638973,-13.876654096098285
14.29204872,11.17400789253778,-13.137816661435798,-15.071820110005863
14.29704872,12.83861210421293,-16.447992301795757,-16.029063801277278
14.30204875,14.328248778299104,-19.62066622185315,-16.712439163678752
14.30704878,15.59315441458958,-22.567921963910372,-17.091188884430508
14.31204945,16.588691247264453,-25.20547983206881,-17.14099806573407
14.31705008,17.277154963178344,-27.4559599132504,-16.845108533230693
14.32205071,17.629351399477166,-29.25193601196855,-16.195245502328856
14.32705155,17.625865090353933,-30.538625699074984,-15.192313563075512
14.33205151,17.25795561610476,-31.27607690721439,-13.846825952148297
14.33705218,16.528035288382398,-31.440736248583992,-12.179039541797772
14.34205311,15.449702764280124,-31.026316895337064,-10.218777397853927
14.34705381,14.047330017441904,-30.043921915746047,-8.004930644060202
14.35205474,12.355222689204522,-28.52141942631856,-5.584641391388364
14.35705564,10.416394386096547,-26.502105922298338,-3.0121785620179824
14.36205655,8.281012716191496,-24.042731195418504,-0.34752861462250867
14.36705741,6.004588082739386,-21.210990312776083,2.345266485282592
14.37205741,3.6459852391922665,-18.082613653682017,4.999981231375446
14.37705808,1.2653424176873849,-14.73820387799999,7.550235162015069
14.38205811,-1.0780162449322281,-11.259978269561602,9.931614445472988
14.38705811,-3.3275918053875433,-7.72857592305713,12.083813051525855
14.39205811,-5.431567431049192,-4.220081879739033,13.952711173386652
14.39705808,-7.344441280070986,-0.8034051693731579,15.492301070226999
14.40205804,-9.028375291106427,2.4618740473765106,16.666365797601085
14.40705801,-10.45421152288316,5.527099845591159,17.449817217208277
14.41205801,-11.602121629635894,8.355520455389934,17.829610021876494
14.41705804,-12.461871475204115,10.922627791300151,17.80517058525986
14.42205807,-13.03270102147369,13.215865872624038,17.388311352013815
14.42705697,-13.322837772643886,15.233750641113796,16.602637182848984
14.43205707,-13.348678518129194,16.98447344934957,15.482482729587618
14.43705774,-13.133687854275252,18.484085015686667,14.071445332949207
14.44205771,-12.707072472620979,19.75437499454237,12.420595127098537
14.44705767,-12.102297245603582,20.82057403993786,10.586453715989279
14.45205767,-11.355512711798154,21.70901011218091,8.628836082589096
14.45705767,-10.503963904383388,22.444848856032326,6.608648647490214
14.46205771,-9.584448021666313,23.05003963096517,4.585731265927967
14.4670577,-8.631883669151641,23.54157498598663,2.6168239692196553
14.47205771,-7.678047562339172,23.93015294028205,0.7537310560034847
14.47705771,-6.750525702616977,24.21930923624442,-0.9582546837486833
14.4820577,-5.871915213003896,24.40506168013485,-2.4816169235213477
14.48705771,-5.059300637414849,24.476081834698974,-3.787533592828773
14.49205767,-4.324015234622646,24.414381921975526,-4.856426936022809
14.49705767,-3.6716843864854236,24.196478176387636,-5.6781413140072665
14.50205767,-3.102535379802209,23.794967367665446,-6.251759562968478
14.5070577,-2.611946099999215,23.180431961578407,-6.585082642951909
14.5120577,-2.191195071884314,22.323572371906145,-6.693809299131486
14.5170577,-1.8283671678761104,21.19745271552275,-6.600462114232774
14.52205767,-1.5093634459078602,19.779739917922697,-6.333113344280915
14.52705767,-1.2189601641579944,18.054815205538656,-5.923968169350482
14.53205767,-0.9418611750945273,16.01564200160948,-5.407864590487042
14.5370577,-0.6636897017241868,13.665284797580641,-4.8207485721531915
14.5420577,-0.371869940715608,11.017989237526077,-4.19818072128536
14.5470577,-0.05635588626474398,8.099753754578824,-3.5739273068505364
14.5520577,0.28982608065808113,4.948346802773323,-2.9786840507799464
14.5570577,0.6702434118631185,1.6127500704167168,-2.438975935795405
14.5620577,1.0849429722899837,-1.8479640675935405,-1.9762702053731922
14.56705767,1.5305540369598445,-5.366284482544335,-1.6063326288940512
14.57205764,2.0005945104115113,-8.868379298675656,-1.3388487947945933
14.57705764,2.4859548898790647,-12.276592366877562,-1.177322534644792
14.58205764,2.9755248018325733,-15.51221023527363,-1.1192525551301928
14.58705767,3.456919330349219,-18.498376231197867,-1.1565761457123132
14.59205767,3.9172572167862465,-21.1630185521744,-1.2763558771020027
14.59705767,4.343940716253439,-23.4416558014695,-1.461672291084651
14.60205763,4.725387803916354,-25.27994659362882,-1.6926738837850435
14.6070576,5.051671759506407,-26.63585991530939,-1.947726623842199
14.61205757,5.315030845229031,-27.481359795983543,-2.2046000688428085
14.61705713,5.5102213222268555,-27.803521008460926,-2.441626494629177
14.62205717,5.6346994726482285,-27.60502089271141,-2.638773307324747
14.6270572,5.6886313537042374,-26.903984365099678,-2.7785769024739464
14.63205723,5.674741400275101,-25.73319276933896,-2.8468973527276926
14.63705723,5.598021578718855,-24.13870027633998,-2.8334668644978667
14.64205723,5.465330718861686,-22.177931793757548,-2.7322195624414136
14.6470572,5.284918412561059,-19.917361627050973,-2.5414043683682683
14.6520572,5.0659094321058395,-17.42989065414149,-2.263495156828937
14.6570572,4.817783406463237,-14.792050492025664,-1.9049220071747672
14.66205723,4.549881128676417,-12.081165887957122,-1.4756538032702038
14.66705723,4.270963950395564,-9.372601915033746,-0.988665737917037
14.67205723,3.9888467507114815,-6.737211475859343,-0.45932586695530797
14.6770572,3.7101184085404464,-4.2390823407100475,0.09526672549113123
14.68205716,3.4399570168214035,-1.9336628414566943,0.6569627729658701
14.68705713,3.182040685964521,0.13367714095359115,1.2072375323282478
14.69205713,2.938549074530503,1.9286166872814543,1.7278389297996593
14.69705713,2.710246057799276,3.4283756917995936,2.2013934700863707
14.70205716,2.4966303898710223,4.621739424448915,2.611958553681724
