Time (s),Acceleration x (m/s^2),Acceleration y (m/s^2),Acceleration z (m/s^2)
6.00199535,-0.055342678769663534,-0.02199580572477096,-0.22444049600736019
6.0067716,-0.06147168491419322,-0.027909051570691023,-0.24802016496558535
6.01154785,-0.06588845905298994,-0.033767093647083156,-0.2714872007995687
6.0163241,-0.06841897077162583,-0.039420252921657156,-0.29474119531245463
6.02110035,-0.06891762052941305,-0.04470981456056921,-0.3176800084427746
6.0258766,-0.06727112851598421,-0.0494691851407905,-0.34020021360524955
6.03065285,-0.06340204929079753,-0.05352519672314984,-0.3621975524837347
6.035429152,-0.057271840669259756,-0.05669955024907366,-0.38356739657765254
6.040205402,-0.04888342021017572,-0.05881038902603598,-0.40420521164451984
6.044981652,-0.03828314861151499,-0.05967399149248764,-0.42400702005552016
6.049757902,-0.025562186053818405,-0.059106571067171466,-0.44286985524699174
6.054534152,-0.010857174965097869,-0.05692616967954885,-0.46069220211567374
6.059310402,0.00564978894154343,-0.05295463045071979,-0.47737441740219455
6.064086652,0.0237319258072223,-0.04701963381334238,-0.4928191246906383
6.068862902,0.04311929819417582,-0.03895678002069778,-0.506931579444724
6.073639152,0.06350109988157988,-0.028611699506923022,-0.5196200004471154
6.078415455,0.08452869861508504,-0.015842171091281006,-0.5307958651719609
6.083191705,0.10581941148626033,-0.0005202268065465283,-0.5403741680202113
6.087967955,0.1269609788905462,0.017465778714554753,-0.5482736418104673
6.092744205,0.1475166905224695,0.038209156921507066,-0.5544169441760078
6.097520455,0.1670311046018289,0.061782955127295106,-0.55873081146773
6.102296705,0.18503628990778068,0.08823813071670043,-0.5611461835599743
6.107072955,0.20105850992511914,0.11760185330610538,-0.5615983038184996
6.111849205,0.21462525999914117,0.14987595847687527,-0.5600267994641518
6.116625507,0.22527256195369136,0.1850355766362857,-0.5563757485052764
6.121401757,0.23255241591693804,0.2230279601719762,-0.5505937400961115
6.126178007,0.23604030580787289,0.2637715312304559,-0.5426339354491683
6.130954257,0.2353426529099332,0.30715517115925967,-0.5324541362992296
6.135730507,0.23010411122919194,0.35303777096218564,-0.5200168675857758
6.140506757,0.22001459893243588,0.40124806003157987,-0.5052894807648179
6.145283007,0.2048159619817778,0.45158472788839427,-0.4882442841788645
6.150059257,0.18430816898579838,0.5038168507007024,-0.4688587072773964
6.154835559,0.15835494022243196,0.5576846311353346,-0.44711550618487905
6.159611809,0.12688871876172825,0.61290045685543,-0.42300301909010185
6.164388059,0.08991489756505736,0.6691502798698805,-0.3965154809853063
6.169164309,0.047515223217007525,0.7260953160228057,-0.367653408094888
6.173940559,-0.0001496955174227544,0.7833740611644852,-0.3364240625844284
6.178716809,-0.052838837672011134,0.840604617931549,-0.30284200765978914
6.183493059,-0.11023023225414835,0.8973873245478671,-0.2669297619498744
6.188269309,-0.1719214749909934,0.9533076745939639,-0.22871856020225817
6.193045611,-0.23743132905371694,1.0079395142333782,-0.18824922488776774
6.197821861,-0.30620242464440517,1.0608485008739286,-0.14557315034900023
6.202598111,-0.37760505651739446,1.111595804546087,-0.10075339769528993
6.207374361,-0.4509420617515463,1.1597420301590942,-0.053865894832361476
6.212150611,-0.5254547428711157,1.2048513350619237,-0.00500073183427446
6.216926861,-0.6003297843139709,1.2464957120274158,0.04573646278764211
6.221703111,-0.6747070938097498,1.2842594030757464,0.09822308454506867
6.226479413,-0.7476884848739489,1.3177434046126277,0.15231807932931019
6.231255663,-0.8183471026896201,1.3465700193276453,0.20786046441216244
6.236031913,-0.8857374834564303,1.3703874054479717,0.2646678801601853
6.24079483,-0.9489061271333832,1.3888740696273991,0.32253521335435
6.245584413,-1.0069024556807304,1.4017432462460215,0.3812333371178625
6.250360663,-1.0587900237240166,1.4087471033187267,0.44050801569195186
6.255136913,-1.1036578462084083,1.409680713588527,0.5000790245750912
6.259913163,-1.1406317079355857,1.4043857287477184,0.5596395377696217
6.264689465,-1.168885322335583,1.3927536951166495,0.6188558339060177
6.269465715,-1.1876512107218915,1.3747289504588334,0.6773673716795702
6.274241965,-1.1962311780779626,1.350311043782863,0.734787282321877
6.279018215,-1.1940062668959572,1.3195566229033888,0.7907033229199859
6.283794465,-1.1804460766637728,1.2825807383082795,0.8446793295248514
6.288570715,-1.1551173431360902,1.239557516692649,0.8962572032433183
6.293346965,-1.1176916782676047,1.190720163433849,0.944959455751497
6.298123215,-1.0679523784035607,1.136360260134066,0.9902923326882124
6.302899465,-1.0058002150106133,1.0768263308906125,1.0317495241257038
6.307675767,-0.931258129138045,1.0125216590181823,1.068816460985769
6.312452017,-0.8444747582351888,0.9439013445210759,1.1009751852132197
6.317228267,-0.7457267320885487,0.8714686016458922,1.1277097699741623
6.322004517,-0.6354196835578102,0.7957703052192006,1.1485122542632529
6.326780767,-0.5140879296231744,0.7173918041431606,1.1628890442716007
6.331557017,-0.38239278922169667,0.6369510304460442,1.1703677218820887
6.336333267,-0.2411195166245444,0.5550919427053144,1.1705041888208783
6.341109517,-0.0911728427241088,0.47247735339454017,1.1628900633173014
6.345885767,0.06642886861400814,0.3897812005609957,1.1471602346219794
6.350662069,0.23056082633450303,0.3076803350411156,1.1230004695305784
6.355438319,0.4000003410576299,0.22684590513774028,1.0901549544954137
6.360214569,0.5734366212336269,0.14793443141859514,1.0484336474454428
6.364990819,0.7494817637205989,0.07157867508462526,0.9977193054564513
6.369767069,0.9266828487797132,-0.0016215859821213981,0.9379740481503425
6.374543319,1.103535032631664,-0.07110874924654599,0.8692453123823611
6.379319569,1.2784955147030166,-0.13637641441391768,0.7916710517454032
6.384082538,1.4499982423197848,-0.1969781050374066,0.7054840352187044
6.388872121,1.6164692036297972,-0.2525355404428639,0.6110151036562428
6.393648371,1.7763421501814562,-0.3027463120516798,0.5086952514815437
6.398411288,1.928074583578496,-0.34739081892095935,0.3990564142583498
6.403200871,2.0701638356534198,-0.38633831997567447,0.2827308604483449
6.407977121,2.2011630685896275,-0.4195519650927541,0.16044910689965367
6.412753371,2.319697020376996,-0.4470926742749381,0.03303630162295392
6.417529621,2.424477321657743,-0.4691217438219534,-0.0985929563931229
6.422305871,2.5143172118934984,-0.48590207052504497,-0.23344136268642698
6.427082173,2.588145485471359,-0.497797899232304,-0.3704371915896753
6.431858423,2.6450195020786027,-0.505273015750717,-0.5084440636350718
6.436634673,2.684137101223614,-0.5088873264619347,-0.646272111895512
6.441410923,2.70484726886504,-0.5092917885399648,-0.7826904350827756
6.446187173,2.70665941469078,-0.5072216798769198,-0.9164406976627104
6.450963423,2.6892511311400984,-0.5034882249558631,-1.046251710328455
6.455739673,2.6524743193785754,-0.49896862137088605,-1.1708547986616409
6.460515923,2.5963595828507304,-0.49459454114246404,-1.2889997445571941
6.465292225,2.5211188053067595,-0.4913392109298166,-1.3994710645607806
6.470055142,2.427145846837383,-0.4902032050146074,-1.5011043721146649
6.474844725,2.3150153085832064,-0.49219911412197787,-1.5928025574507423
6.479620975,2.1854793353789157,-0.49833528194234505,-1.673551510197053
6.484383892,2.0394624464414033,-0.5095988297282257,-1.7424351060423364
6.489173475,1.8780544068621239,-0.5269382166873543,-1.798649180140996
6.493949725,1.7025011758469608,-0.5512456083964352,-1.8415142167065415
6.498712694,1.5141939904317219,-0.583339345623985,-1.8704864971785242
6.503502277,1.314656665501865,-0.6239468209544335,-1.8851674690684206
6.508278527,1.1055312123316412,-0.6736880800029169,-1.8853111241416514
6.513041444,0.8885618985440629,-0.7330604672850302,-1.8708292074794888
6.517831027,0.665577892419156,-0.8024246332137653,-1.8417941173261647
6.522607277,0.43847465386224166,-0.8819922074445561,-1.7984393983612121
6.527370246,0.20919425306277514,-0.9718154244076274,-1.7411577769713271
6.532159777,-0.02029518409382783,-1.0717789594545901,-1.6704967351758309
6.536936027,-0.24802068746113473,-1.181594199206999,-1.587151669120397
6.541698996,-0.4720260779591858,-1.300796128295428,-1.4919567274038212
6.546488527,-0.6903937783732764,-1.4287429677038237,-1.3858734726522257
6.55126483,-0.9012665373262557,-1.5646186484983426,-1.2699775553403647
6.55604108,-1.1028687923969374,-1.7074381500826494,-1.145443630529763
6.56081733,-1.293527389323357,-1.8560556756309856,-1.0135287846524659
6.56559358,-1.471691368495166,-2.0091755803892535,-0.8755547696452364
6.570356548,-1.6359505281674005,-2.165365912547713,-0.7328893649990699
6.57514608,-1.7850524766568665,-2.3230743728994225,-0.586927204473248
6.57992233,-1.9179178937605896,-2.4806464500138596,-0.43907041347814424
6.584685298,-2.0336537351728756,-2.636345443534411,-0.2907094056664553
6.589474882,-2.1315641329938617,-2.788374050612294,-0.14320418313858893
6.594251132,-2.211158770598644,-2.934897160402423,0.0021335263487367267
6.599014048,-2.2721585413079124,-3.0740654797637856,0.1440569800371038
6.603803632,-2.3144983377666066,-3.2040396003616873,0.2813996892506478
6.608579882,-2.33832686293022,-3.323014113478336,0.4130889904353705
6.61334285,-2.3440034038613913,-3.42924138388152,0.5381577013036317
6.618132382,-2.332091565337372,-3.521054607589663,0.6557536906662274
6.622908632,-2.303350020278193,-3.5968897994158993,0.7651472407454448
6.6276716,-2.2587203965497964,-3.655306383522954,0.8657361345109112
6.632461184,-2.199312482614408,-3.695006092412539,0.95704845631452
6.637237434,-2.1263869950906638,-3.7148499153975676,1.0387431498672166
6.64200035,-2.0413362064584395,-3.713872875617411,1.1106084309714601
6.646789934,-1.94566277787378,-3.6912964545933438,1.172558200542487
6.651566184,-1.840957178140838,-3.646538525250358,1.2246266433937958
6.656329152,-1.7288740944933623,-3.579220698435555,1.2669612278132398
6.661118684,-1.6111082543089332,-3.489173033950819,1.2998143394458235
6.665894934,-1.4893700798512635,-3.3764361139124044,1.3235337914803855
6.670657902,-1.3653615907363028,-3.241260522233892,1.3385524536692384
6.675447486,-1.2407529506807615,-3.08410381757038,1.3453772372942392
6.680223736,-1.1171600264078254,-2.905625126868792,1.3445776631487385
6.684986652,-0.9961232892744554,-2.7066775218240533,1.3367742257815889
6.689776236,-0.8790883477782198,-2.4882983703940833,1.322626750679503
6.694552486,-0.7673883551852683,-2.251697879601636,1.3028229231204125
6.699315455,-0.6622284932623836,-1.9982460637816801,1.2780671491662137
6.704104986,-0.5646726911570564,-1.7294583839612059,1.2490698907981133
6.708881236,-0.4756326979096686,-1.446980309128414,1.2165375980156239
6.713644205,-0.3958595880606769,-1.1525710490164258,1.1811633405107274
6.718433788,-0.32593774267999315,-0.848086701251192,1.143618220629198
6.723210038,-0.2662813132024398,-0.5354630440329519,1.1045436285664625
6.727972955,-0.21713314272414516,-0.21669818976074182,1.0645443811122408
6.732762538,-0.1785660886601502,0.10616470392873044,1.0241827676714699
6.737538788,-0.15048666177615222,0.4310544903947513,0.9839735123173975
6.742301757,-0.13264086990167143,0.7558887046261445,0.9443796483307572
6.747091288,-0.12462213057153063,1.0785897182896504,0.9058092917122971
6.751867538,-0.12588109556357704,1.3971002718723804,0.8686132921107169
6.756630507,-0.13573721155253138,1.709398298568963,0.8330837331850696
6.761420038,-0.15339182457119527,2.0135109755313154,0.7994532493988661
6.76619634,-0.17794262152418203,2.3075279577902896,0.7678951223256257
6.770959257,-0.20839918962498633,2.5896137682519647,0.7385241162834987
6.77574884,-0.2436994643011786,2.858019333295447,0.7113980100191653
6.78052509,-0.28272682780173314,3.111092667278463,0.6865197778890104
6.785288059,-0.3243276145875045,3.347288720371583,0.663840370428194
6.79007759,-0.3673287760776893,3.5651784123842742,0.6432620403966822
6.79485384,-0.41055545712879854,3.763456880523927,0.6246421564357518
6.79963009,-0.452848240102028,3.9409509713045523,0.6077974424645738
6.80440634,-0.49307981937146556,4.096626006097112,0.5925085770134062
6.809182642,-0.5301708793967739,4.229591846211187,0.5785250829482144
6.813958892,-0.5631049631642693,4.339108277211813,0.5655704346378273
6.818735142,-0.5909421350597981,4.424589723816946,0.5533473068068563
6.823511392,-0.6128312626058043,4.485609296657376,0.5415428875067796
6.828287642,-0.6280207640085501,4.521902160936939,0.5298341772414613
6.833063892,-0.6358676925539613,4.5333682051943365,0.5178931975395107
6.837840142,-0.6358450547295489,4.52007397655437,0.5053920351657792
6.842616392,-0.6275472866753857,4.482253837671678,0.4920076526038006
6.847392642,-0.6106938425878792,4.420310290599166,0.47742640144918136
6.852168944,-0.5851308780676229,4.334813404608339,0.46134818313875225
6.856945194,-0.5508310405889584,4.226499279018934,0.44349021115810167
6.861721444,-0.5078914082302943,4.096267468716868,0.42359034035254434
6.866497694,-0.4565296463856636,3.9451772995796035,0.40140994170944627
6.871273944,-0.3970784797309575,3.774443003873253,0.37673631438141314
6.876050194,-0.32997860241110344,3.5854276121759323,0.3493846402335621
6.880826444,-0.2557701727803881,3.3796355486048895,0.3191994992182677
6.885602694,-0.1750830600050963,3.158703889879371,0.2860559756317796
6.890378944,-0.08862602827898089,2.924392265658542,0.24986039502961888
6.895155194,0.0028249402594073586,2.6785713971606837,0.2105507388129049
6.899931496,0.0984389713509777,2.423210292680683,0.16809678808936598
6.904707746,0.19734305357007434,2.1603621415819916,0.12250005027640956
6.909483996,0.2986350003160341,1.892148971966498,0.07379352092434638
6.914246913,0.4013963987902602,1.620745160918548,0.022041329349122594
6.919036496,0.5047053323877166,1.348359909476007,-0.032661689935395095
6.923812746,0.6076486737501843,1.0772188169183976,-0.09019046686867066
6.928575715,0.7093337606069984,0.8095447103091961,-0.1503901840307921
6.933365246,0.8088992849491451,0.5475379052715668,-0.21307677245120094
6.938141496,0.905525247413225,0.29335609246941163,-0.278037416141371
6.942904465,0.9984418523835009,0.0490940608668152,-0.3450310781341787
6.947694048,1.0869372445888077,-0.18323651689901763,-0.4137890714636981
6.952470298,1.17036401400328,-0.4017270002720862,-0.48401570758516826
6.957233215,1.24814442167216,-0.6045911527870671,-0.5553890618506608
6.962022798,1.3197743239068453,-0.7901837210661736,-0.6275619006024806
6.966799048,1.3848257957407284,-0.9570179712015228,-0.7001628170606617
6.971561965,1.442948476451935,-1.1037819369520225,-0.772797623302364
6.976351548,1.4938696801574871,-1.2293531428384816,-0.8450510431089854
6.981127798,1.5373933327043656,-1.3328115786853003,-0.9164887452000513
6.985890767,1.5733978121766041,-1.4134507205183426,-0.9866597484397054
6.99068035,1.6018327844022695,-1.470786415936021,-1.05509922031962
6.9954566,1.622715137121959,-1.5045634798680312,-1.1213316780155618
7.000219517,1.6361241272060763,-1.5147598784980565,-1.1848745883324705
7.0050091,1.6421958646041883,-1.501588414253943,-1.2452423495489309
7.00978535,1.6411172644316305,-1.465495862165496,-1.301950625080431
7.0145616,1.6331196043758724,-1.407159546510212,-1.354520986507252
7.01933785,1.6184718282316408,-1.3274813855279624,-1.4024858122993855
7.0241141,1.5974737379812602,-1.2275794701269542,-1.4453933788097262
7.02889035,1.5704492165111485,-1.1087772788839723,-1.4828130720105517
7.0336666,1.537739620504315,-0.9725906651874714,-1.5143406422425822
7.038442902,1.4996974778256904,-0.8207127821810296,-1.5396034200839872
7.043219152,1.4566806156289027,-0.6549971366659324,-1.5582654093136088
7.047995402,1.4090468346150344,-0.4774389840696461,-1.5700321727434892
7.052771652,1.3571492317048504,-0.29015529297058595,-1.5746554283768686
7.057534569,1.301332258211958,-0.0953635196376383,-1.571937276864136
7.062324152,1.2419285837378513,0.10464055914793616,-1.5617339864384316
7.067100402,1.1792568176540748,0.3075057027665491,-1.5439592681480496
7.071863371,1.1136201203022922,0.5108485003184066,-1.5185869819318498
7.076652902,1.0453057150749543,0.712276851373585,-1.4856532225870835
7.081429152,0.9745852906386243,0.9094133902241374,-1.4452577437071539
7.086192121,0.9017162602012757,1.0999186188027323,-1.397564687056863
7.090981705,0.8269438224865302,1.2815135248697564,-1.3428025945165711
7.095757955,0.7505037475448745,1.4520014757507365,-1.281263689633049
7.100534205,0.672625790178727,1.609289193402061,-1.2133024259424419
7.105310455,0.5935376149567617,1.7514066333997733,-1.1393333094838132
7.110086705,0.5134690999338005,1.8765256080707915,-1.0598280130844149
7.114862955,0.43265687176524525,1.9829770119397674,-0.9753118098174093
7.119639205,0.35134891344082575,2.069266525508649,-0.8863593623791943
7.124415455,0.26980907779610935,2.1340886906956302,-0.79358991406449
7.129191705,0.1883213355457608,2.1763392676263456,-0.6976619356498255
7.133968007,0.10719358596162831,2.1951257975321092,-0.5992672907931184
7.138744257,0.026760861646828157,2.1897763100051133,-0.4991249902329028
7.143520507,-0.052612233702449954,2.1598461246722986,-0.39797461166349796
7.148296757,-0.1305300040432763,2.105122707523878,-0.29656946715614413
7.153073007,-0.20656519002481535,2.025628550861769,-0.19566960293425373
7.157835975,-0.2802596624268235,1.9216220534489044,-0.09603471693010021
7.162625507,-0.35112637062923835,1.7935963844075662,0.001582922120910418
7.167401757,-0.4186526097268899,1.6422763212811107,0.0964454739765313
7.172164725,-0.4823046397341566,1.4686130599784313,0.1878363698359754
7.176954309,-0.5415336574916931,1.2737770025296669,0.2750669308783026
7.181730559,-0.5957830869130166,1.0591485380783368,0.35748270212431776
7.186506809,-0.6444971166400247,0.8263068436476262,0.4344694500399909
7.191283059,-0.6871303766513717,0.5770167442380068,0.5054587815802764
7.196059309,-0.7231586077114184,0.31321368698434576,0.5699333519581409
7.200835559,-0.7520901408389393,0.03698690160022552,0.627431638115086
7.205611809,-0.7734779694935819,-0.24943916074599184,0.6775522645119222
7.210388059,-0.7869321662442021,-0.5437249956697974,0.7199578771805101
7.215164309,-0.7921323695469163,-0.8434376819336478,0.7543785705101946
7.219940611,-0.788840046083888,-1.1460738204928367,0.7806148784436758
7.224716861,-0.7769102208766357,-1.4490835828576982,0.7985403471934555
7.229493111,-0.7563023616947777,-1.749895646562161,0.8081037099303904
7.234269361,-0.7270901062741788,-2.0459427664946306,0.8093306846579588
7.239045611,-0.6894695303020052,-2.334687702679956,0.8023254138005393
7.24380858,-0.6437656705089102,-2.613649199312144,0.7872715567342332
7.248598111,-0.5904370397995329,-2.880427688323189,0.7644330335384695
7.253374361,-0.530077899339737,-3.132730375524035,0.734154399229042
7.25813733,-0.46341808526491063,-3.368395360078016,0.6968608031467648
7.262926861,-0.39132022489048196,-3.5854144398927845,0.6530574595231372
7.267703163,-0.31477421896434526,-3.7819542667920216,0.6033285250407653
7.27246608,-0.2348889125892227,-3.956375535500331,0.5483352509306735
7.277255663,-0.15288092791073682,-4.107249918129338,0.4888132549500497
7.282031913,-0.07006068667594692,-4.233374489046831,0.42556874665273614
7.28679483,0.012184289094798567,-4.333783421866231,0.35947354116760116
7.291584413,0.09240864412196685,-4.407756779627054,0.2914587142831263
7.296360663,0.1691307987075192,-4.454826260926853,0.22250678518502084
7.301123632,0.24085659799177067,-4.474777809687852,0.15364236115582416
7.305913163,0.30610462435945407,-4.467651045855171,0.08592123818291729
7.310689413,0.3634327241478078,-4.433735530142712,0.020418018938406553
7.315452382,0.41146523702037324,-4.373563939003892,-0.04178762043890654
7.320241965,0.44892036596901674,-4.287902296122695,-0.09962581808333858
7.325018215,0.47463709016285316,-4.17773748128199,-0.15205231872341154
7.329781132,0.4876010030272059,-4.044262310053815,-0.19806488381088042
7.334570715,0.48696845512733883,-3.888858538054208,-0.2367200119454648
7.339346965,0.47208839722047147,-3.713078180199063,-0.26714965290179643
7.344109934,0.4425213548365483,-3.51862354132446,-0.2885775947051333
7.348899465,0.3980550224206441,-3.307326330199068,-0.30033519933056907
7.353675715,0.3387160405069685,-3.081126181612252,-0.30187615624383574
7.358438684,0.2647776088038618,-2.8420488513021094,-0.29278991569409835
7.363228267,0.17676268456200775,-2.59218428698858,-0.2728134603992141
7.368004517,0.07544261205985883,-2.333664726414762,-0.24184108098056772
7.372767434,-0.0381688797982671,-2.068642939472462,-0.19993184154710425
7.377557017,-0.16282629077871671,-1.7992707218028234,-0.14731445918952754
7.382333267,-0.29706747357489843,-1.5276777610124848,-0.08438937478183833
7.387096236,-0.4392330903061639,-1.2559510265516167,-0.011727859818195643
7.391885767,-0.5874901392488675,-0.9861148691843091,0.06993192067826902
7.396662017,-0.7398592005406154,-0.7201120449069006,0.15969189317735152
7.401424986,-0.8942449569048218,-0.4597858938606693,0.25650404176556935
7.406214569,-1.0484694542081383,-0.2068639049140866,0.35918322529187385
7.410990819,-1.200307482330776,0.03705711703670559,0.4664226595862075
7.415753736,-1.3475233846833878,0.2705240873024269,0.5768118288739942
7.420543319,-1.4879085499462532,0.4922387159553436,0.6888565447103298
7.425319569,-1.6193188070653903,0.7010664858853688,0.8010008277225806
7.430082538,-1.73971093760641,0.8960434302035863,0.911650247253538
7.434872069,-1.8471775390166765,1.0763806357635262,1.019196318500932
7.439648319,-1.9399795160305473,1.2414664315480033,1.1220415288725123
7.444411288,-2.0165755411735224,1.39086625445227,1.218624547707096
7.449200819,-2.0756479042946516,1.5243202207895326,1.307445167584806
7.453977121,-2.116124261114973,1.6417384692542534,1.3870885306910608
7.458740038,-2.1371948889197014,1.743194379350021,1.456248208275609
7.463529621,-2.1383251617116708,1.828915807544115,1.513747723009558
7.468305871,-2.1192630655021363,1.8992745205943107,1.5585601314548954
7.47306884,-2.0800416844382412,1.9547740402238016,1.5898253163605593
7.477858371,-2.0209766970851284,1.996036143987403,1.606864676274704
7.482634621,-1.9426590264518195,2.023786292232753,1.6091929433594387
7.48739759,-1.8459428849129516,2.038838269259777,1.5965269092094816
7.492187121,-1.7319295441891946,2.0420783372326303,1.5687908921487617
7.496963371,-1.6019472394657555,2.0344492035834416,1.52611883675548
7.50172634,-1.4575276842056502,2.016934096397889,1.4688529961260586
7.506515923,-1.3003797270361672,1.9905412277714536,1.3975392087752523
7.511292173,-1.1323607230743837,1.956288902971451,1.3129188444156144
7.51605509,-0.9554462180750098,1.915191504538744,1.2159175554186457
7.520844673,-0.7716985539578477,1.868246546843793,1.1076310324302439
7.525620923,-0.5832349983563079,1.816422960099808,0.9893080217333395
7.530383892,-0.392195979503365,1.760650725562224,0.8623309162405495
7.535173423,-0.20071397269180868,1.7018119474784816,0.7281942788169093
7.539949673,-0.010883538118749684,1.640733413632048,0.5884816935858826
7.544712642,0.17526704501407886,1.5781806657829138,0.44484136646390066
7.549502225,0.35580216372928075,1.5148535741597824,0.29896091011558257
7.554278475,0.5289029544661682,1.4513833862605998,0.15254175169682743
7.559041392,0.6928888259113712,1.3883311992499516,0.007273595839448768
7.563830975,0.8462362241574893,1.3261877868920553,-0.13519063774119297
7.568607225,0.9875945005387902,1.2653746959894498,-0.2732590012289709
7.573383475,1.1157987960217413,1.2062465135023537,-0.40542345250570216
7.578159725,1.2298799049842624,1.1490941936745498,-0.5302811848163016
7.582935975,1.3290711253794456,1.0941493243510185,-0.6465540318017505
7.587698944,1.4128121416546517,1.0415892030297478,-0.7531056615823508
7.592488475,1.4807500216043434,0.9915425858866962,-0.8489563116619291
7.597264725,1.5327374389193076,0.9440959669446808,-0.9332948584638457
7.602027694,1.5688282599824614,0.8993002396613317,-1.005488061081334
7.606817277,1.5892706569872452,0.8571775894676039,-1.0650868677113836
7.611593527,1.5944979303304143,0.8177284632479103,-1.111829724161396
7.616369777,1.5851172419878559,0.7809384605677715,-1.145642875359945
7.621146027,1.5618964784795186,0.7467849918722519,-1.1666377015274951
7.625922277,1.5257494769412672,0.7152435512160662,-1.1751051793664886
7.630698527,1.47771986024949,0.6862934557174075,-1.171507604426056
7.635474777,1.4189637363678436,0.6599229112665247,-1.1564677530263865
7.640251027,1.3507315223695602,0.6361332744985033,-1.1307557002102022
7.64502733,1.27434915434949,0.6149423950931023,-1.095273543461012
7.64980358,1.1911989403531313,0.596386940486574,-1.051038309578278
7.65457983,1.1027003045755788,0.5805236272287726,-0.9991633434053457
7.65935608,1.0102906580204885,0.567429309104656,-0.9408384919164733
7.66413233,0.9154066147014976,0.5571999006963211,-0.877309406106553
7.66890858,0.8194657546944795,0.5499481448064845,-0.8098562871903687
7.67368483,0.7238491170904334,0.5458002616223284,-0.7397724036467458
7.67846108,0.6298845879689394,0.544891545428778,-0.6683427021945036
7.68323733,0.5388313314687012,0.5473610000914495,-0.5968228292877225
7.68801358,0.4518653962801885,0.5533451267383073,-0.5264188704307804
7.69278983,0.37006661564898696,0.5629709958488146,-0.45826810248175864
7.697566132,0.2944069062543278,0.5763487515650738,-0.39342103889804986
7.702342382,0.22574005988542178,0.5935637089500478,-0.33282502964792693
7.707118632,0.1647931112356071,0.6146682154634071,-0.2773096569350331
7.711894882,0.11215935478911555,0.6396734561505364,-0.2275741458604277
7.716671132,0.06829307310188773,0.668541387875872,-0.18417698607846072
7.721447382,0.033506027242117674,0.7011769913729455,-0.14752793591533783
7.726223632,0.007965747229322081,0.7374210309673113,-0.11788255318364906
7.7309866,-0.008304354478351508,0.7770435105474095,-0.09533936571569869
7.735776132,-0.01542304023284892,0.8197380106464301,-0.07983975837921688
7.740552382,-0.013647487583923378,0.8651170852198616,-0.07117061164517433
7.745328632,-0.0033677451145809213,0.9127088876050183,-0.06896968027100286
7.750104934,0.014900543086109094,0.9619551828726378,-0.07273365094121677
7.754881184,0.04052506921857172,1.0122108879631508,-0.08182876690535588
7.7596441,0.07276735164648,1.0627452613495776,-0.09550385786942588
7.764433684,0.11079466043613492,1.1127448402824083,-0.11290556632331082
7.769209934,0.1536932312564522,1.1613181958701202,-0.13309551834764488
7.77397285,0.2004825956065419,1.2075025444722687,-0.15506914871250835
7.778762434,0.2501308319468219,1.2502722185833617,-0.1777758578123426
7.783538684,0.301570521684981,1.2885489623387096,-0.20014015290273743
7.788314934,0.35371517751926324,1.3212139769875904,-0.2210834091966393
7.793091184,0.40547590030944514,1.3471216012814844,-0.23954587775694836
7.797867434,0.4557780146174688,1.365114471863544,-0.2545085658470127
7.802643684,0.5035774319177748,1.374039970529225,-0.26501461990628367
7.807419986,0.5478764936117152,1.372767729710933,-0.2701898500451293
7.812196236,0.5877390528354254,1.3602079357337715,-0.2692620467019157
7.816972486,0.6223045641029233,1.3353301422521917,-0.2615787541852511
7.821748736,0.6508009626139593,1.2971822846129288,-0.24662318215850884
7.826524986,0.6725561303952683,1.2449095702153044,-0.22402795522435745
7.831301236,0.6870077644704987,1.1777729104445585,-0.19358642349559163
7.836077486,0.6937114831132796,1.0951665564127187,-0.15526128426151942
7.840853736,0.6923470298502333,0.9966346035124569,-0.10919029712907696
7.845616705,0.6827224610727428,0.8818860387578069,-0.05568891252034593
7.850406236,0.6647762317890636,0.750808020278973,0.004750323705932765
7.855182538,0.6385771251152261,0.6034771004130829,0.07146167807784631
7.859945455,0.6043220044142711,0.440168132684431,0.14361348354765957
7.864735038,0.5623314024841102,0.26136063832631756,0.2202187128460612
7.869511288,0.5130430000673345,0.06774244907942824,0.30014877887973934
7.874274205,0.4570030864802534,-0.13978951147568938,0.38215040156597563
7.879063788,0.394856138039737,-0.3601313974330632,0.46486531113467816
7.883840038,0.3273326938453603,-0.5919776007755636,0.5468524894773995
7.888603007,0.2552357510723028,-0.8338288929729283,0.6266125857188031
7.893392538,0.17942594069291626,-1.0840034910110052,0.7026140823747287
7.898168788,0.10080577722636914,-1.340650945478305,0.7733207371031036
7.902931757,0.020303301070420943,-1.6017687053807832,0.8372197848432861
7.90772134,-0.06114455172817418,-1.8652211739052835,0.892850358080941
7.91249759,-0.1426085099732007,-2.1287610314205243,0.9388315701351347
7.917260507,-0.22318311693241255,-2.390052566653327,0.9738897078635725
7.92205009,-0.30200213710129226,-2.6466967243281134,0.9968839953732316
7.92682634,-0.378252905024405,-2.8962575478239168,1.0068304181805074
7.931589257,-0.4511893257916088,-3.13628966897077,1.0029231367802562
7.93637884,-0.5201432700871924,-3.364366474590621,0.9845530687568371
7.94115509,-0.5845341488508844,-3.5781085616010966,0.9513232779548384
7.945918059,-0.6438765025117399,-3.775212080404531,0.9030608756287056
7.95070759,-0.6977854943853786,-3.953476561008408,0.8398252093540226
7.95548384,-0.7459802535614979,-4.110831819150366,0.761912188595251
7.960246809,-0.7882850665818465,-4.245363551811349,0.6698546695437534
7.965036392,-0.8246284674269645,-4.3553372535426895,0.5644188948484467
7.969812642,-0.8550403197837629,-4.439220116840247,0.44659705498200347
7.974575559,-0.8796470220827657,-4.495700620319814,0.3175961060670511
7.979365142,-0.8986649932025323,-4.523705555699717,0.1788230426800601
7.984141392,-0.9123926157275832,-4.522414295675882,0.03186688190143718
7.988904309,-0.921200826221554,-4.491270156219019,-0.12152233461157534
7.993693892,-0.9255225503933502,-4.429988755371838,-0.27945717096266387
7.998470142,-0.9258411871395156,-4.338563314012398,-0.43993867467210235
8.003233111,-0.9226783503924556,-4.217266881403911,-0.6008840874898382
8.008022642,-0.916581081863127,-4.066651500034937,-0.7601559522146727
8.012798892,-0.9081087509840965,-3.8875443513730783,-0.9155921617485268
8.017561861,-0.897819860490775,-3.681040948076152,-1.0650364870131523
8.022351444,-0.8862589774185783,-3.448495460304326,-1.206369118401087
8.027127694,-0.8739440104674083,-3.191508285387373,-1.3375367616389062
8.031890611,-0.8613540560139914,-2.911910992481019,-1.4565818437388376
8.036680194,-0.8489180358857382,-2.6117487980453564,-1.5616704082751474
8.041456444,-0.8370043485682542,-2.2932607545699963,-1.6511183110231729
8.046219413,-0.8259117494183928,-1.9588578637339709,-1.7234153655069588
8.051008944,-0.8158616625581075,-1.611099354928751,-1.7772471308755884
8.055785194,-0.8069921062092993,-1.2526673987739374,-1.8115140792712188
8.060548163,-0.7993533842905334,-0.8863405505879054,-1.8253479244328632
8.065337694,-0.7929056613431942,-0.5149662387093759,-1.8181249364355547
8.070113944,-0.7875184974019717,-0.14143262574964421,-1.7894761086682336
8.074876913,-0.7829723766969077,0.23135982331646043,-1.7392940823805396
8.079666496,-0.7789622211970733,0.6005267338044401,-1.66773677162816
8.084442746,-0.7751028384881269,0.9632278505902379,-1.5752276676422046
8.089205663,-0.7709362142584268,1.316694394083861,-1.4624528370353065
8.093995246,-0.7659405233729202,1.658255452040577,-1.3303546631932357
8.098771496,-0.7595407006445302,1.985363139031302,-1.180122414751411
8.103534465,-0.7511203833901213,2.2956162806019282,-1.0131797590472493
8.108323996,-0.7400350129714874,2.5867824059183286,-0.831169371608429
8.113100246,-0.725625861903381,2.856817860183108,-0.6359348247949423
8.117863215,-0.7072347367478575,3.1038858755458283,-0.42949996930739637
8.122652798,-0.6842190947968353,3.326372465888967,-0.2140460509510373
8.127429048,-0.6559673043455072,3.5229000361507166,0.008113168721474764
8.132205298,-0.6219137740969315,3.6923386203382598,0.23455799598104463
8.136981548,-0.5815536768803804,3.8338146839367453,0.46279078086894826
8.141757798,-0.5344569963957319,3.9467174460873102,0.6902649573912565
8.146520715,-0.4802816330807559,4.030702694877271,0.9144148073670962
8.151310298,-0.4187853163745038,4.085694085626608,1.132685598788159
8.156086548,-0.34983608552567763,4.111881927526991,1.342563744927916
8.160849517,-0.27342111956265674,4.109719478833339,1.5416066297233995
8.165639048,-0.18965371900911335,4.079916785493508,1.7274717481065054
8.170415298,-0.09877826735001742,4.023432113067468,1.8979448169361637
8.175178267,-0.0011730291229831422,3.941461037394123,2.050966522881213
8.17996785,0.10264932620177629,3.8354232759581186,2.1846575878726857
8.1847441,0.2120435498495297,3.706947359381446,2.2973418504068968
8.18952035,0.3262360257742601,3.557853260837468,2.3875670818867203
8.1942966,0.4443313653536245,3.3901331202663276,2.4541232812023486
8.19907285,0.5653213388625055,3.2059302198338195,2.4960582176972923
8.2038491,0.6880960549585696,3.0075163868816768,2.5126900223200384
8.20862535,0.8114572565337711,2.7972680203871723,2.503616658903384
8.2134016,0.9341335592154159,2.57764095635661,2.4687221418972185
8.21817785,1.0547974184857933,2.3511444062682254,2.4081794032134303
8.2229541,1.1720835739275535,2.1203142202869416,2.3224497488488822
8.227730402,1.284608685615204,1.8876857430923404,2.2122788854539843
8.232506652,1.3909918491131354,1.655766544348658,2.078689537873217
8.237282902,1.489875652574523,1.4270093176576248,1.9229707206602706
8.242059152,1.5799474224891707,1.2037852508705227,1.7466637692167755
8.246822069,1.6599602939977045,0.9883581765168995,1.5515452788219197
8.251611652,1.7287537375953297,0.7828598133850662,1.3396071414434
8.256387902,1.7852731766609675,0.5892664083719161,1.1130339097210113
8.261150871,1.8285883397369904,0.40937708091210123,0.8741777539254246
8.265940402,1.8579100080327293,0.2447941598878048,0.6255313105024847
8.270716652,1.8726048423928379,0.09690578416021876,0.36969874992073254
8.275479621,1.8722080050920868,-0.03312898812973364,0.10936541692702419
8.280269205,1.8564333303086107,-0.1443923503969283,-0.1527335823389158
8.285045455,1.825180842618887,-0.23621702963301358,-0.4138454553683524
8.289821705,1.778541474265354,-0.3081925592616653,-0.6712320585477785
8.294597955,1.7167988873087605,-0.3601684741446223,-0.9222020858810945
8.299374205,1.6404283634486736,-0.392254409705967,-1.1641427050347313
8.304150455,1.5500927795615929,-0.4048171334820125,-1.394550239780935
8.308926705,1.4466357387895679,-0.39847457781243284,-1.6110595069098639
8.313702955,1.3310719742337953,-0.3740869768276167,-1.8114714282914486
8.318465923,1.204575184747197,-0.3327452402411564,-1.9937785553805751
8.323255455,1.068463500173467,-0.2757567218794254,-2.156188164725697
8.328031705,0.9241828068051149,-0.20462856342339533,-2.2971426095914818
8.332794673,0.7732881927086072,-0.12104881428199075,-2.4153366450478533
8.337584257,0.6174237965309097,-0.02686554730093722,-2.5097314818717846
8.342360507,0.45830136204704375,0.07593579274691671,-2.5795653680547455
8.347123423,0.2976778137321291,0.1852565553417245,-2.624360545048601
8.351913007,0.13733217599927375,0.2989102987447818,-2.6439264784103353
8.356689257,-0.020957839173510406,0.4146491748156781,-2.638359318404939
8.361452225,-0.1754392538325345,0.5301909965663975,-2.6080376044606246
8.366241757,-0.324406938109388,0.6432466938175324,-2.553614287091512
8.371018007,-0.46622610804033354,0.7515478577353272,-2.4760052008648126
8.375794257,-0.5993539082650189,0.8528740729456281,-2.376374180949327
8.380570507,-0.7223597922005465,0.9450797363339757,-2.2561150723456893
8.385346809,-0.8339444256428169,1.0261200646029212,-2.116830933434098
8.390109725,-0.9329568555388421,1.0940759983244044,-1.9603107820999168
8.394899309,-1.0184097045940623,1.1471777188524135,-1.7885042714782062
8.399675559,-1.0894921750562243,1.1838265063512758,-1.6034947117135343
8.404438475,-1.1455806718634693,1.2026146826041508,-1.407470873225529
8.409228059,-1.1862468864739744,1.2023434013128942,-1.2026980158370304
8.414004309,-1.2112632179282317,1.182038071208221,-0.991488587446198
8.418767277,-1.2206054466096907,1.1409612231834292,-0.7761730266621129
8.423556809,-1.2144526181384012,1.078622661434853,-0.5590710869101986
8.428333059,-1.1931841390306144,0.9947867698012095,-0.3424640758012309
8.433096027,-1.1573741311502075,0.8894768777606621,-0.12856837392904935
8.437885611,-1.1077831373140177,0.7629766255326248,0.08048943724917833
8.442661861,-1.0453473142448333,0.6158283040939205,0.2826955470163068
8.447424777,-0.9711652898444957,0.4488281832761825,0.47616973579071037
8.452214361,-0.8864828980509807,0.2630188790713503,0.6591838358460306
8.456990611,-0.7926760352799866,0.05967884943814787,0.8301776668294851
8.461753527,-0.6912319070345676,-0.15969085416591075,0.9877723238012588
8.466543111,-0.583728951449923,-0.3933824151694945,1.130780738935003
8.471319361,-0.4718157382659387,-0.6394994602902893,1.2582154814631463
8.47608233,-0.3571891470906253,-0.8959774152210062,1.3692938034077866
8.480871861,-0.2415721282117353,-1.1606057461749892,1.4634399800809323
8.485648111,-0.1266913433666293,-1.4310518029273822,1.5402850329363933
8.49041108,-0.014254973768003562,-1.704885963239059,1.5996639568298716
8.495200663,0.09406903075958631,-1.9796077709289543,1.6416106030678934
8.499976913,0.19667400377665706,-2.252672760549744,1.6663503930313044
8.50473983,0.29203467593488824,-2.521519669930573,1.674291054095841
8.509529413,0.3787261311954612,-2.783597756137012,1.6660115798738024
8.514305663,0.4554414081391107,-3.036393948084539,1.6422496212027842
8.519068632,0.5210075719251316,-3.2774595869011005,1.6038875149618668
8.523858163,0.5744001062415861,-3.504436519917946,1.5519371579079873
8.528634413,0.6147554986220801,-3.715082323369261,1.4875239350410907
8.533410663,0.64138191609168,-3.907294431379275,1.411869917110501
8.538186913,0.6537678905848114,-4.079132945243901,1.3262765475586873
8.542963215,0.6515889542605493,-4.228841889731716,1.2321070414873474
8.547726132,0.6347121826248111,-4.354868675692622,1.1307687147329397
8.552515715,0.6031986166669204,-4.455881524479868,1.0236954493083485
8.557291965,0.557303542784917,-4.530784612631362,0.9123304849603382
8.562054882,0.49747461151786593,-4.578730706659907,0.7981097093151094
8.566844465,0.4243477757608163,-4.599131078013061,0.6824456036709609
8.571620715,0.3387410306899931,-4.591662516407801,0.5667119883559905
8.576383684,0.24164594567368,-4.556271293918008,0.45222969987912703
8.581173215,0.1342169958111693,-4.493173969792542,0.34025332136502795
8.585949465,0.01775872736366764,-4.402854964407931,0.23195907838459653
8.590712434,-0.1062891752429321,-4.286060868299296,0.1284340048516702
8.595501965,-0.23636881597509432,-4.143791488696391,0.03066647771892171
8.600278267,-0.37082286337655457,-3.9772876729756677,-0.06046178707999021
8.605041184,-0.5079149922144247,-3.788015988792326,-0.14418219408862562
8.609830767,-0.6458517658455344,-3.577650387397914,-0.21984411354120245
8.614607017,-0.7828056956638053,-3.3480510313801104,-0.28691806163096367
8.619369934,-0.9169391797787554,-3.101240529996556,-0.3449971892434818
8.624159517,-1.0464289965377944,-2.8393778915088483,-0.39379708172187866
8.628935767,-1.169491011418804,-2.5647305683722803,-0.4331539061979474
8.633698736,-1.2844047478823584,-2.2796450332449547,-0.4630209808261475
8.638488267,-1.3895374716039428,-1.9865163768606882,-0.48346387966998844
8.643264517,-1.4833674397923549,-1.6877574585418806,-0.4946542244448039
8.648027486,-1.5645059705570048,-1.385768163409016,-0.4968623454237026
8.652817069,-1.6317179911922668,-1.0829053259713064,-0.49044901458673995
8.657593319,-1.6839407306790168,-0.7814538683096365,-0.4758564624976716
8.662356236,-1.7203002334297366,-0.4835996739371796,-0.45359888717668684
8.667145819,-1.7401253902790679,-0.19140467719968346,-0.4242526514506937
8.671922069,-1.7429592092568753,0.09321540577936012,-0.38844634871908185
8.676684986,-1.72856708192642,0.368510343464739,-0.34685089886855164
8.681474569,-1.6969418400310168,0.6329113652708628,-0.3001698180213176
8.686250819,-1.648305441194868,0.8850436409745105,-0.2491297886722861
8.691013788,-1.5831071709624893,1.123735140556344,-0.1944716407393068
8.695803319,-1.5020183011570283,1.3480218375624242,-0.1369418391038861
8.700579569,-1.4059232014403593,1.5571493037411257,-0.07728455932669766
8.705342538,-1.2959069626014526,1.7505708239090618,-0.016234420176492386
8.710132121,-1.1732396568280237,1.927942235205671,0.04549007118321458
8.714908371,-1.0393574311860976,2.0891137615351205,0.10719231890738706
8.719684621,-0.8958407033666079,2.2341191698043508,0.16820265530191078
8.724460871,-0.7443898002281075,2.3631626180116916,0.22788256290878942
8.729237121,-0.5867984466569783,2.476603595636968,0.285628106400602
8.734000038,-0.4249255721527095,2.574940374101834,0.34087259465493036
8.738789621,-0.2606659529335651,2.6587923896612273,0.3930885076468809
8.743565871,-0.09592024587239423,2.728881973547207,0.441788735124089
8.74832884,0.06743500492703797,2.7860158253665026,0.4865271845672254
8.753118371,0.22757679908478892,2.8310665968692814,0.5268988251606962
8.757894621,0.38276396560064785,2.864954915958593,0.5625392429158148
8.76265759,0.531363742990548,2.8886321374075945,0.5931237900186197
8.767447173,0.6718761307207851,2.9030640597555113,0.6183664188764817
8.772223423,0.8029555385998517,2.909215799853656,0.6380182978043855
8.77698634,0.923429321801182,2.908037969818306,0.6518663101924849
8.781775923,1.0323128599844507,2.9004542574655496,0.6597315416563102
8.786552173,1.1288209182431705,2.8873504717267737,0.6614678594790461
8.79131509,1.2123751135625798,2.8695650794741097,0.6569606851295569
8.796104673,1.282607400449133,2.847881229533137,0.6461260535329498
8.800880923,1.3393595799987768,2.8230202331234393,0.6289100421911056
8.805643892,1.3826789246127371,2.795636447275015,0.605288639628176
8.810433423,1.412810093338108,2.7663134887907224,0.5752681064324157
8.815209673,1.4301835886725787,2.735561691019321,0.5388858635484938
8.819972642,1.435401073305852,2.703816703957909,0.49621192129515107
8.824762225,1.4292179236194356,2.6714391297392814,0.44735083872768494
8.829538423,1.4125234451063682,2.638715080020492,0.39244417680622434
8.834301392,1.3863192127300605,2.6058575389258274,0.33167338143422237
8.839090975,1.351696026160447,2.5730084149722043,0.26526300531525554
8.843867225,1.3098099853132952,2.540241167882423,0.19348415215710765
8.848630142,1.2618581954390766,2.5075639013292146,0.1166580039280422
8.853419725,1.209054603523783,2.474922820200256,0.03515927212117247
8.858195975,1.1526064499245907,2.442205960587761,-0.050580602099447904
8.862958892,1.093691792129132,2.40924711216292,-0.14007068525718833
8.867748475,1.0334385222725084,2.3758298658635875,-0.23275841764539257
8.872524725,0.9729052572508041,2.341691734874375,-0.328028296406001
8.877287694,0.9130644305556174,2.3065283134234167,-0.42520155276908456
8.882077225,0.8547878592312739,2.2699974553439284,-0.5235369821627716
8.886853527,0.7988349989595896,2.2317234718417858,-0.6222330617487306
8.891629725,0.7458440368129204,2.1913013645916903,-0.72043146194512
8.896406027,0.6963259063347449,2.148301125206689,-0.8172220281099758
8.901182277,0.6506612448820911,2.1022721442620136,-0.9116492764288375
8.905945194,0.6091002500212095,2.0527477813904222,-1.0027204141301058
8.910734777,0.5717653313712223,1.9992501516833665,-1.0894148581640004
8.915511027,0.5386563975725096,1.941295182268433,-1.170695188488993
8.920273944,0.5096585660837827,1.878397986456152,-1.2455194328248846
8.925063527,0.4845520378251551,1.8100785916231756,-1.3128545404451046
8.929839777,0.46302384097847893,1.7358680416634735,-1.3716908647998485
8.934616027,0.44468111957481643,1.6553148761955705,-1.42105743972888
8.939392277,0.4290656228647659,1.567991967725274,-1.4600378024168355
8.944168527,0.4156690402073349,1.4735036757949405,-1.487786088381884
8.94894483,0.40394882244098296,1.371493255094707,-1.5035431001425337
8.95372108,0.3933441336606627,1.2616504338199042,-1.5066520326217614
8.95849733,0.38329158656356654,1.1437190603043166,-1.4965735258443607
8.963260246,0.3732404297380754,1.0175047009421279,-1.472899710111999
8.96804983,0.3626668759538995,0.8828820610876877,-1.435366911648458
8.97282608,0.3510872858741875,0.7398020930922726,-1.383866698435109
8.97760233,0.33806995079593305,0.5882986517410865,-1.3184549664939673
8.98237858,0.32324525036011775,0.42849455681730303,-1.2393587950898253
8.98715483,0.3063139962737213,0.2606069250841803,-1.1469808335633518
8.99193108,0.28705381084348663,0.08495163949019478,-1.0419010213475648
8.99670733,0.26532342958484684,-0.09805316815462972,-0.9248754853144613
9.00148358,0.24106486040439565,-0.287884733384201,-0.796832504565878
9.006246548,0.2143033777683841,-0.4839144722263204,-0.658865482061704
9.01103608,0.18514537818086366,-0.6854080723735317,-0.512222915358773
9.015812382,0.15377417153849354,-0.8915269240134891,-0.3582954156113983
9.020575298,0.1204438293227141,-1.101330930361538,-0.19859988464204767
9.025364882,0.08547125355352361,-1.3137827147318752,-0.03476102313223873
9.030141132,0.04922666943251605,-1.5277532171617725,0.13150959278216148
9.034904048,0.012122779502426148,-1.7420286505370892,0.29843656535058166
9.039693632,-0.025397152669428054,-1.9553187652958504,0.4642054961938009
9.044469882,-0.06287199706618056,-2.166266354224158,0.626989152924785
9.049232798,-0.09983592084253248,-2.3734579150828194,0.7849745086613066
9.054022382,-0.1358317024189847,-2.575435378633225,0.9363901408949222
9.058798632,-0.1704238751746575,-2.7707088025215385,1.0795334488814514
9.0635616,-0.20321138365459918,-2.957769926814392,1.2127971371789104
9.068351132,-0.2338394444341827,-3.135106484059182,1.334694418622548
9.073127382,-0.2620103184008664,-3.301217154556459,1.443882413365068
9.07789035,-0.2874927217061047,-3.454627054632708,1.5391832606777207
9.082679934,-0.3101296296543248,-3.5939036404128952,1.61960251442855
9.087456184,-0.32984426157071195,-3.7176729005072318,1.684344457934871
9.0922191,-0.34664407467333036,-3.824635697525796,1.732824045708365
9.097008684,-0.36062264002874655,-3.913584100812685,1.7646752556163625
9.101784934,-0.3719593226353262,-3.983417532491429,1.7797557127999002
9.106561184,-0.38091673964389583,-4.033158527549677,1.778147524189961
9.111337434,-0.3878360246746932,-4.061967888172579,1.760154338019888
9.116113684,-0.3931299805720886,-4.069158994869417,1.7262947155402626
9.120876652,-0.39727425592038085,-4.05421102403316,1.677291971834967
9.125666184,-0.4007967305404327,-4.016780814824234,1.6140607084397984
9.130442434,-0.4042653400683455,-3.9567131284065975,1.5376903209622785
9.135205402,-0.4082746070698209,-3.8740490499676192,1.4494258184557773
9.139994986,-0.4134311740732957,-3.769032298964134,1.3506463362701526
9.144771236,-0.420338652655086,-3.642113235896854,1.2428417589598608
9.149534152,-0.42958211424822323,-3.493950384623612,1.127587893794317
9.154323736,-0.44171255453234604,-3.325409327508552,1.00652064895016
9.159099986,-0.4572316647063363,-3.1375588759432422,0.8813096748176655
9.163862902,-0.47657723915522227,-2.9316644698058747,0.7536319231140838
9.168652486,-0.5001095390456097,-2.709178814463359,0.6251455672567275
9.173428736,-0.5280989144503847,-2.4717298206495055,0.49746470915126395
9.178191705,-0.560714963681484,-2.2211059683561305,0.37213527286623554
9.182981236,-0.5980174785172855,-1.9592392682438597,0.2506124555240469
9.187757486,-0.639949389465056,-1.688186041086921,0.13424007118455786
9.192520455,-0.6863318875698563,-1.4101057763460862,0.02423208553470029
9.197310038,-0.7368618595779414,-1.1272383648081445,-0.07834340135463794
9.202086236,-0.7911117320027253,-0.8418800273977961,-0.17257750953019366
9.206849205,-0.8485317770110345,-0.5563582828134811,-0.25773110049243647
9.211638788,-0.9084548890887413,-0.2730063104677134,-0.3332423405051355
9.216415038,-0.97010379624832,0.005862927845294271,-0.39873122746676176
9.221177955,-1.0326006234376441,0.2779824441516595,-0.4540010497624186
9.225967538,-1.0949786795127943,0.5411565017906468,-0.49903679217825836
9.230743788,-1.1561962937235257,0.7932850708262793,-0.5340005499261131
9.235506705,-1.215152484363547,1.0323871369462936,-0.5592240566393822
9.240296288,-1.2707042022275432,1.2566225632405956,-0.5751984754709283
9.245072538,-1.321684855805743,1.4643122319315827,-0.5825616437150678
9.249835507,-1.3669237946508608,1.6539562235601402,-0.5820830001152437
9.254625038,-1.4052664029772788,1.824249823289241,-0.5746464595439225
9.259401288,-1.4355944381449146,1.9740971770633544,-0.5612315314568345
9.264164257,-1.4568462388540002,2.1026224538070744,-0.5428930060073166
9.26895384,-1.4680364259353527,2.209178403309313,-0.5207395546920981
9.27373009,-1.4682747246579064,2.2933522326472255,-0.49591161070621403
9.278493007,-1.4567835514391672,2.3549687566676303,-0.4695589076414295
9.28328259,-1.4329140294031917,2.394090809842412,-0.44281806351714453
9.28805884,-1.3961601256456018,2.4110169374405865,-0.41679059996374507
9.29283509,-1.3461706373543996,2.4062764131676473,-0.39252178314252906
9.29761134,-1.2827587932139526,2.380621658070438,-0.3709806632456958
9.30238759,-1.2059092800845934,2.3350181616177585,-0.35304167303481954
9.30716384,-1.1157825520419768,2.2706320306790375,-0.33946812294710976
9.31194009,-1.0127163284841747,2.188815316012031,-0.3308979009594213
9.31671634,-0.8972242390214092,2.0910892891702186,-0.32783164969613104
9.321479309,-0.7699916240986836,1.9791258655695008,-0.33062365117404513
9.32626884,-0.631868550717262,1.8547273916428262,-0.33947560112848674
9.331045142,-0.48386015145937844,1.7198050351490652,-0.35443340041382665
9.335821392,-0.3271144420183133,1.5763560372529448,-0.3753870315161156
9.340597642,-0.16290781773055496,1.4264401024077984,-0.40207352549720954
9.345373892,0.007371526760953469,1.2721552168163035,-0.4340829608946374
9.350136809,0.18224196916017668,1.1156131976909767,-0.4708673733653782
9.354926392,0.36014829893997186,0.9589152827603769,-0.5117523949490487
9.359702642,0.5394826681531109,0.80412807103308,-0.5559513860756894
9.364465611,0.7186062717430758,0.6532601198894125,-0.6025817728737703
9.369255142,0.8958713595477088,0.5082394886247268,-0.6506832578649178
9.374031392,1.0696431773465023,0.3708924947140237,-0.6992375348177536
9.378794361,1.238321440333196,0.2429239186517634,-0.7471891094910006
9.383583892,1.400360957640476,0.1258988600923411,-0.7934668079438517
9.388360142,1.554291049211993,0.02122641590811971,-0.8370055429540761
9.393123111,1.6987334255878097,-0.06985467795684466,-0.8767679061072262
9.397912694,1.832418237135888,-0.14628832367209524,-0.9117651574380976
9.402688944,1.9541980420394194,-0.20721116189910255,-0.9410771957732177
9.407451861,2.0630594912752738,-0.2519604187280446,-0.9638711115902739
9.412241444,2.1581325823436717,-0.2800794410764465,-0.9794179512267538
9.417017694,2.2386973896536544,-0.2913208816393809,-0.9871073573982585
9.421780611,2.3041882363313495,-0.28564751539365774,-0.9864597961424505
9.426570194,2.3541953282469303,-0.26323069298531826,-0.9771361332948763
9.431346444,2.388463925094461,-0.2244464622127323,-0.9589443824012662
9.436122694,2.406891174496963,-0.16986941680814666,-0.9318435083212139
9.440898944,2.4095207824455454,-0.10026436088779721,-0.895944234730081
9.445675194,2.3965357359188797,-0.01657590656913228,-0.8515068678376985
9.450451444,2.368249330281977,0.0800838499318428,-0.7989362118443215
9.455227694,2.32509478418774,0.1884494030361712,-0.7387737129245439
9.460003996,2.2676137475131752,0.3071174705894061,-0.6716870266108248
9.464766913,2.196444022775767,0.43456397361568805,-0.598457256790877
9.469556496,2.1123068270013485,0.5691621376630932,-0.5199641614804296
9.474332746,2.015993918775504,0.7092014801195877,-0.4371696596088291
9.479095663,1.9083549040370265,0.8529074416106734,-0.35110000321725776
9.483885246,1.7902850142010724,0.9984614171800282,-0.2628270002454704
9.488661496,1.6627136219152223,1.1440209442260476,-0.17344868454686596
9.493424413,1.5265937240008152,1.28773980887341,-0.08406983236373852
9.498213996,1.3828925791395827,1.4277878403199544,0.004217281208912832
9.502990246,1.2325836411620872,1.562370173465501,0.09035150566286486
9.507753215,1.0766398790313962,1.6897457736034216,0.17332045888293826
9.512542746,0.9160285234044055,1.8082450329552004,0.2521768589476802
9.517318996,0.7517072285306842,1.9162862671279195,0.32605324478091585
9.522081965,0.5846215887076351,2.0123909598690215,0.39417482532468
9.526871548,0.41570390200822604,2.0951976263880185,0.4558702408220176
9.531647798,0.2458730319140753,2.1634741885568243,0.5105800682165984
9.536410715,0.07603518104514607,2.2161287790310125,0.5578629547469818
9.541200298,-0.0929146386414603,2.2522189153349954,0.5973993183929162
9.545976548,-0.2600906772995432,2.270959008835447,0.6289926095133015
9.550752798,-0.4246143131034145,2.2717261968785785,0.65256818322278
9.555529048,-0.5856119721011851,2.254064508718115,0.6681698851741897
9.560305298,-0.742213360094146,2.2176873966852737,0.675954502977297
9.565081548,-0.8935502553155051,2.1624786828036062,0.6761842803078383
9.569857798,-1.0387560937811406,2.0884919872247054,0.6692177299590141
9.574634048,-1.1769665551383686,1.99594871805805,0.6554990149527294
9.579410298,-1.3073213262082048,1.8852347121488215,0.6355461927279292
9.584186548,-1.4289671828832484,1.7568956230507444,0.6099386358048835
9.58896285,-1.541062489399513,1.6116311559396996,0.5793039527643947
9.593725767,-1.6427831681234946,1.4502882497684537,0.544304735597917
9.59851535,-1.733330143810469,1.2738533049650904,0.5056254533149781
9.6032916,-1.8119382147539735,1.083443550919032,0.46395979712532176
9.608054517,-1.8778862503786944,0.8802976419205282,0.4199987598118621
9.6128441,-1.9305085617475763,0.6657655636768975,0.37441970173116385
9.61762035,-1.9692072393806452,0.44129792555617686,0.3278766191971615
9.622383319,-1.9934652030483926,0.20843470679240314,0.2809917889665558
9.62717285,-2.002859662262881,-0.03120648154377857,0.23434891642375907
9.6319491,-1.99707564558443,-0.27594256258096544,0.18848786625390937
9.636712069,-1.9759192231961542,-0.5240375358901648,0.14390100426507843
9.6415016,-1.9393300223802292,-0.7737153472413243,0.10103112880322243
9.64627785,-1.8873926220628436,-1.0231730389850986,0.060270921081960534
9.651040819,-1.8203464133353622,-1.2705941349934908,0.02196379696839266
9.655830402,-1.7385935301280873,-1.514162214397185,-0.013594000491160628
9.660606652,-1.6427044888193107,-1.752074628318046,-0.04615026723613128
9.665369569,-1.533421226221273,-1.9825563128999617,-0.07549289555817808
9.670159152,-1.4116572887598708,-2.2038736490474404,-0.10144538097292083
9.674935402,-1.2784949971363875,-2.414348313131227,-0.123862052895908
9.679698319,-1.1351794856521014,-2.6123710528302695,-0.1426233065842894
9.684487902,-0.9831095900047738,-2.796415308664481,-0.15763110162754224
9.689264152,-0.8238256293486338,-2.9650505862029486,-0.1688049641517126
9.694027121,-0.6589941963281383,-3.1169554686594214,-0.17607868811876587
9.698816652,-0.4903901317604033,-3.2509301468257603,-0.17939788066795911
9.703592902,-0.31987591813334004,-3.3659083346481458,-0.17871844369748302
9.708355871,-0.1493787779869668,-3.4609684349419756,-0.1740060344467902
9.713145402,0.01913419022129274,-3.53534382051852,-0.16523650513535892
9.717921705,0.18368246469116215,-3.5884321000856194,-0.15239728675586714
9.722684621,0.3422997306919298,-3.619803243456545,-0.1354896540649852
9.727474205,0.4930622468416695,-3.629206444080778,-0.11453178538109228
9.732250455,0.6341174796066319,-3.6165755961793495,-0.08956250872224711
9.737013371,0.7637125192166468,-3.582033257428897,-0.06064560197511599
9.741802955,0.8802217784906611,-3.5258929563988124,-0.027874487547494258
9.746579205,0.9821734726568265,-3.4486596885957623,0.00862286821465894
9.751342121,1.0682743837081798,-3.3510284291247334,0.0486790713306186
9.756131705,1.1374324272493845,-3.233880477864619,0.09208268022025862
9.760907955,1.1887765625562976,-3.0982774500238404,0.1385741169365701
9.765670923,1.221673616526291,-2.945452737531459,0.18784238342745624
9.770460455,1.23574162820567,-2.776800302118128,0.23952284568609525
9.775236705,1.2308593622962691,-2.593860724859409,0.29319631787020833
9.779999673,1.2071716886524182,-2.398304530219621,0.3483896284817456
9.784789205,1.1650905833105034,-2.1919129186364272,0.40457778590266685
9.789565507,1.1052915791653415,-1.9765561669979093,0.46118778818088485
9.794328423,1.02870558436096,-1.7541700746925226,0.5176040496559291
9.799118007,0.9365060942585679,-1.5267309301839571,0.5731753513517761
9.803894257,0.8300919448386324,-1.2962295410124745,0.6272231680579269
9.808657173,0.7110658841069474,-1.064644906992191,0.6790511857608765
9.813446757,0.5812093637766879,-0.8339181250502797,0.7279557985877947
9.818223007,0.4424540663801335,-0.6059270993999424,0.7732373610433532
9.822985923,0.2968507751363805,-0.3824625971228337,0.8142119634398993
9.827775507,0.1465362606905999,-0.1652061404059425,0.8502234915888747
9.832551757,-0.0063011009772230946,0.04428983437968012,0.8806557247051909
9.837314725,-0.15945625014374518,0.24461919099829332,0.9049442193650951
9.842104257,-0.31074218235500867,0.4345363981301511,0.9225877245374038
9.846880507,-0.4580238091513601,0.6129677218679923,0.9331588752843833
9.851643475,-0.5992502873521183,0.7790191837895755,0.9363139220867679
9.856433059,-0.7324852198903494,0.931981240799421,0.9318012692540782
9.861209309,-0.8559341987601969,1.0713302169390828,0.9194686188416534
9.865972225,-0.9679692380585367,1.1967265859366223,0.8992685445058193
9.870761809,-1.0671497309996645,1.3080102660816066,0.8712623511951726
9.875538059,-1.1522396571695532,1.405193145920503,0.8356221100280179
9.880314309,-1.2222208621591386,1.4884491097448764,0.7926307918938366
9.885090559,-1.276302327566216,1.5581018749359061,0.7426804573375251
9.889866809,-1.3139254419524993,1.6146109878241135,0.686268493738176
9.894629777,-1.3347653700005886,1.658556349830801,0.6239919237734831
9.899419309,-1.3387286955128663,1.6906216605650413,0.5565398420144989
9.904195559,-1.3259475819605835,1.7115771689508577,0.48468406944383374
9.908958527,-1.296770750408107,1.7222621175644663,0.40926814853932536
9.913748059,-1.2517516179430572,1.7235672499287193,0.33119483376768044
9.918524309,-1.1916339702124712,1.716417726729124,0.25141226331951
9.923287277,-1.1173355598955879,1.701756766178224,0.17089902729024045
9.928076861,-1.029930029873659,1.680530287473278,0.09064837489443509
9.932853111,-0.9306275565753157,1.6536727958279542,0.011651828083835462
9.937616027,-0.8207545965729686,1.6220947042333556,-0.06511750980701643
9.942405611,-0.7017330989514414,1.5866712421622922,-0.13872164517839386
9.947181861,-0.5750595181636214,1.5482330559661865,-0.2082740690639689
9.951944777,-0.44228392813802364,1.5075585606631974,-0.2729554958009185
9.956734361,-0.3049894999527054,1.4653680590566107,-0.3320286488009622
9.961510611,-0.16477256473869953,1.4223196025410738,-0.3848517878324965
9.966273527,-0.023223443401632526,1.3790065293964406,-0.43089069126918245
9.971063111,0.11809181193838932,1.335956581548448,-0.4697288337464685
9.975839361,0.2576486509403114,1.2936324702495454,-0.5010755340671336
9.98060233,0.3939801428335661,1.2524337353352992,-0.5247718888047851
9.985391861,0.5256919066972836,1.2126997219784217,-0.5407943521411802
9.990168111,0.6514757931380399,1.1747134834343678,-0.5492558702345387
9.994944361,0.770122262582439,1.138706408267696,-0.550404527368297
9.999720611,0.8805314081496478,1.1048633659156435,-0.5446197101604003
10.00449691,0.9817225716445223,1.073328164942128,-0.5324058442635117
10.00927316,1.0728425008463183,1.0442091235741158,-0.5143838042694313
10.01404941,1.1531719960494293,1.0175845616338985,-0.49128014096401995
10.01882566,1.2221309949541599,0.9935080362900807,-0.46391430986076054
10.02358858,1.2792820489373031,0.9720131606393805,-0.43318412055227873
10.02837816,1.3243321517113649,0.9531178635415026,-0.40004965753038474
10.03315441,1.3571328939891496,0.9368279709914507,-0.365515949453496
10.03791733,1.3776789347895368,0.9231400133072183,-0.33061468514553344
10.04270691,1.3861048006744874,0.9120431881790833,-0.2963852908072824
10.04748316,1.3826800474598135,0.9035204367156296,-0.2638556941167435
10.05225941,1.3678028436782779,0.8975486174496432,-0.23402310725901387
10.05703566,1.3419920601585407,0.8940977911317515,-0.20783516248132503
10.06181191,1.305877974374859,0.8931296562896076,-0.1861717302234297
10.06658816,1.2601917206551372,0.8945952012739121,-0.16982774062491246
10.07136441,1.2057536370749045,0.8984316622812716,-0.1594973136596245
10.07614066,1.1434606763872432,0.9045588981976483,-0.15575948120571187
10.08091691,1.0742730613993077,0.912875311736773,-0.15906575669218578
10.08569316,0.9992003748106021,0.9232534620685812,-0.16972977571496245
10.09046946,0.9192872798960379,0.9355355267856511,-0.1879191953649856
10.09524572,0.8355990718468421,0.949528780386019,-0.21365000193745007
10.10002196,0.7492072602918969,0.9650012621019596,-0.24678333694437402
10.10479822,0.6611753816151336,0.9816778075765421,-0.28702491050192913
10.10957447,0.5725452352226208,0.9992366165027498,-0.3339270297579508
10.11435072,0.48432373095188413,1.0173065220249513,-0.3868932288028209
10.11912697,0.3974705254118487,1.035465117638853,-0.44518544641436975
10.12390322,0.31288661329605877,1.0532378835766762,-0.5079336599372173
10.12867947,0.231404025814576,1.0700984371271773,-0.5741478481481868
10.13345572,0.153776772570022,1.085470009839211,-0.6427321230689474
10.13823197,0.08067314560744997,1.098728229039533,-0.7125008396779863
10.14300822,0.012669484984447338,1.1092052518476494,-0.78219646242331
10.14778446,-0.04975451607908189,1.1161952676400637,-0.8505089379083066
10.15256072,-0.10621891161804856,1.1189613508563665,-0.9160962947064419
10.15733696,-0.15644497884104644,1.1167436115054645,-0.9776061654207436
10.16211322,-0.20025506515740144,1.108768557017507,-1.0336979044932437
10.16688952,-0.23757082779891872,1.0942595472244023,-1.0830649591363435
10.17166577,-0.2684099133762552,1.0724481949467468,-1.124457140767093
10.17644202,-0.2928811506766149,1.0425865384146513,-1.1567024405898931
10.18121827,-0.31117835612945854,1.003959789007014,-1.1787280351510332
10.18599452,-0.3235728772363566,0.9558994390446893,-1.1895801352487292
10.19077077,-0.3304050240896738,0.897796500076962,-1.1884423442110428
10.19554702,-0.3320745619693547,0.8291146325676394,-1.1746522093586098
10.20032327,-0.3290304580521398,0.7494029232137083,-1.147715673717454
10.20509952,-0.32176009179892984,0.6583080662263285,-1.1073191636804123
10.20987577,-0.31077815108495793,0.5555857095622756,-1.0533390817947397
10.21465202,-0.29661544420096186,0.44111073605522455,-0.9858485114852519
10.21942827,-0.27980786108206407,0.31488626241158224,-0.9051209817346072
10.22419124,-0.26088571502944496,0.17705115590775447,-0.8116311839184676
10.22898077,-0.24036368825967167,0.027885889238274966,-0.7060525792602013
10.23375702,-0.21873159053495395,-0.13218342171361078,-0.5892518827958865
10.23851999,-0.19644612002997724,-0.30258292438508655,-0.46228045766780984
10.24330952,-0.17392379002989783,-0.48259097591656963,-0.3263627016103769
10.24808582,-0.15153515475486998,-0.6713401902143687,-0.18288155534764447
10.25286207,-0.1296004333994781,-0.8678216092864256,-0.03336131001785461
10.25763832,-0.10838659451752115,-1.0708909838215352,0.12055206250512995
10.26241457,-0.08810592475441842,-1.2792771090596133,0.2771127867063086
10.26719082,-0.06891606829076147,-1.4915921238743046,0.434499054151985
10.27196707,-0.050921487493053835,-1.7063436446897744,0.5908383330653258
10.27674332,-0.0341762620305573,-1.9219485722919332,0.7442338259066725
10.28150624,-0.018688113854548428,-2.1367483795359505,0.8927916548575587
10.28629582,-0.004423519747824362,-2.3490256620277137,1.034648334478866
10.29107207,0.008686247668208724,-2.5570217125714216,1.1679980802887937
10.29583504,0.020738325228838526,-2.758954863923032,1.2911195024865094
10.30062457,0.031850896305763786,-2.9530393335237215,1.4024012456702917
10.30540082,0.042155451624953516,-3.1375042987942203,1.5003661574772966
10.31016379,0.051788868627722785,-3.3106129325846054,1.5836936001527357
10.31495332,0.06088550353052458,-3.470681135503901,1.65123955715141
10.31972957,0.06956948575383257,-3.6160957145666526,1.702054229825904
10.32449254,0.0779473957587859,-3.745331774940049,1.7353968649927614
10.32928212,0.08610149462096016,-3.8569691125738323,1.7507476008062768
10.33405837,0.09408365743384,-3.9497074194347155,1.747816164438474
10.33882129,0.10191014378437577,-4.0223801395161765,1.7265472998247706
10.34361087,0.10955731803634568,-4.073966842402688,1.6871228472674156
10.34838712,0.11695841106438262,-4.103604011503751,1.629960439933894
10.35316337,0.12400139506507707,-4.110594175619924,1.5557088270070707
10.35793962,0.1305280257818942,-4.094413344587862,1.465239881061846
10.36271587,0.13633409179405315,-4.054716741235087,1.3596373981287566
10.36747879,0.14117089611713116,-3.991342850901024,1.2401828509477304
10.37226837,0.14474797859195784,-3.9043158340307,1.1083383066770793
10.37704462,0.14673706739032252,-3.79384636475478,0.9657267680168274
10.38180759,0.14677722537972637,-3.6603309678009044,0.8141102402203241
10.38659712,0.14448113384724662,-3.5043499276017194,0.6553658648387399
10.39137337,0.13944243340725,-3.326663838191044,0.49146049312408396
10.39613634,0.13124401980439995,-3.1282088522500584,0.32442409655975757
10.40092587,0.11946716998180956,-2.9100906747099615,0.15632242794147358
10.40570217,0.1037013505997939,-2.6735773329887222,-0.01077064682016888
10.41046509,0.08355453747778899,-2.4200907445255053,-0.17480072857868398
10.41525467,0.0586638517117917,-2.1511970948435635,-0.33375997045957684
10.42003092,0.02870629887121265,-1.8685960375172317,-0.48571328261195834
10.42479384,-0.006590615984811991,-1.574108731911635,-0.6288232962243734
10.42958342,-0.0474386313429189,-1.2696647450992127,-0.7613737581769382
10.43435967,-0.09397906354629325,-0.9572878596660495,-0.8817910621777219
10.43913592,-0.1462739582972856,-0.6390808474307965,-0.9886636583671519
10.44391217,-0.2042982722682299,-0.31720928864190695,-1.0807591202436746
10.44868842,-0.26793328008948475,0.006115464465612117,-1.1570386849463539
10.45345139,-0.33696138064973663,0.32865406284923493,-1.2166691203182738
10.45824092,-0.4110624524079725,0.648157541619475,-1.2590318097038515
10.46301717,-0.4898118808757369,0.9623861601066789,-1.2837289829209337
10.46778014,-0.5726803530353636,1.2691285430755312,-1.2905870590478692
10.47256967,-0.6590354835946812,1.5662209562254352,-1.2796571033708803
10.47734592,-0.7481453070108285,1.851566542414801,-1.251212436843103
10.48210889,-0.8391836375415044,2.1231543402906734,-1.2057434713764204
10.48689848,-0.931237267629209,2.379077903893703,-1.1439498777158277
10.49167473,-1.023314943110193,2.6175533400447937,-1.0667302239678371
10.49643764,-1.1143580224071987,2.83693657964405,-0.9751692515756383
10.50122723,-1.2032526962859027,3.0357396992565073,-0.8705229813040627
10.50600348,-1.2888436152460445,3.2126461104978223,-0.7542018644269891
10.51076639,-1.3699487436657227,3.3665244368959066,-0.6277522137384105
10.51555598,-1.4453752340659336,3.4964409013460305,-0.4928361652154407
10.52033222,-1.5139360919508806,3.601670052360545,-0.3512104340790763
10.52509514,-1.574467382091915,3.6817036645343375,-0.20470413852617197
10.52988472,-1.625845711207491,3.7362576586217284,-0.05519597050958749
10.53466098,-1.6670057100820783,3.765276899969733,0.09540900429101921
10.53942394,-1.6969572306518277,3.768937751206674,0.2452026355782421
10.54421348,-1.7148019708753963,3.747648276153681,0.39229678833742937
10.54898972,-1.719749242634597,3.7020460166908853,0.5348459816173383
10.55376598,-1.7111306056074493,3.6329932923117547,0.67106930355836
10.55854222,-1.68841310295859,3.541570002759896,0.7992713521773753
10.56331848,-1.6512108526452642,3.429063946833137,0.9178619662678881
10.56809472,-1.5992947710007368,3.296958704468596,1.0253745280050441
10.57287103,-1.5326002328488397,3.1469191638173233,1.120482638045696
10.57764728,-1.4512325043436778,2.980774809375082,1.2020149847068053
10.58242353,-1.355469820364266,2.8005009206294584,1.2689682508459785
10.58719978,-1.245764016788104,2.6081978625515996,1.320517924980302
10.59197603,-1.1227386684437246,2.406068679236586,1.3560269066198982
10.59675228,-0.9871847251541301,2.196395229858945,1.3750518196147978
10.60152853,-0.8400536802227334,1.9815131316821055,1.3773469716227236
10.60630478,-0.6824483472178857,1.7637857979144602,1.3628659228060784
10.61108103,-0.5156113612638261,1.5455778784310692,1.3317606526736365
10.61585728,-0.3409115595391947,1.3292284284208586,1.2843783405589
10.62063353,-0.1598284315965736,1.117024143502596,1.2212558024220805
10.62540978,0.02606513724221917,0.9111730093987647,1.1431116542460684
10.63018603,0.21512157733321213,0.7137787194643037,1.0508362999630927
10.63496228,0.4056385242268639,0.5268162137980446,0.9454798692281056
10.63972525,0.5958795890858491,0.35210868882432206,0.8282382570388385
10.64451478,0.7840956969171843,0.19130641556681827,0.7004374427642477
10.64929103,0.9685466685269256,0.04586768770300424,0.5635162901764568
10.654054,1.1475227168844953,-0.08295780396136007,0.419008052282773
10.65884358,1.3193655303557426,-0.19414290683003568,0.26852082493245527
10.66361983,1.4824886249611688,-0.28689403012668524,0.1137172110411738
10.66838275,1.635396665198158,-0.36065908654329926,-0.043706527849313344
10.67317233,1.7767034763420708,-0.4151322398070638,-0.202041545202339
10.67794858,1.9051484981479117,-0.4502554071612196,-0.3595874153610867
10.68272483,2.0196114585289027,-0.4662165258464251,-0.5146727791482502
10.68750108,2.119125074934262,-0.46344464857068396,-0.6656753428248726
10.69227733,2.2028856204556964,-0.4426019827740806,-0.8110409553075935
10.6970403,2.27026122161749,-0.4045730316441334,-0.9493015045110665
10.70182983,2.3207977863316214,-0.3504510318072042,-1.0790913944010925
10.70660608,2.3542224944916756,-0.2815219144210129,-1.199162389937479
10.71136905,2.3704448202930624,-0.19924604392155826,-1.3083966471455524
10.71615858,2.369555093997447,-0.10523801236464699,-1.4058177788922526
10.72093483,2.3518206505422645,-0.0012447871135964866,-1.4905998418718374
10.7256978,2.3176796522304666,0.11087747474473834,-1.5620741652166827
10.73048733,2.267732712034981,0.2291876207880807,-1.619733974993897
10.73526358,2.202732482186105,0.35168437568530964,-1.6632368013306373
10.74003988,2.123571408804413,0.47633155938026417,-1.6924046863277866
10.74481613,2.0312678861294002,0.6010833217706305,-1.7072222417435103
10.74959238,1.9269510718549694,0.7239090718196088,-1.7078326357798734
10.7543553,1.8118446467738545,0.8428177900981855,-1.6945316176726617
10.75914488,1.6872498163201586,0.9558814284172733,-1.6677597161627349
10.76392113,1.5545278582203808,1.0612571182356716,-1.628092772263832
10.76868405,1.415082519328602,1.1572079306836183,-1.5762309873217941
10.77347363,1.2703425560679418,1.2421219550621736,-1.512986683939905
10.77824988,1.1217446970663365,1.3145294892570103,-1.4392709900499374
10.78301285,0.9707172840956392,1.37311816428982,-1.3560796655347425
10.78780238,0.8186648191669471,1.4167458558591155,-1.264478296667817
10.79257863,0.6669536127628897,1.4444512678327006,-1.1655870864732947
10.7973416,0.5168986919523589,1.455462105861925,-1.0605654690465194
10.80213113,0.36975208869506987,1.4492007931491573,-0.9505967728653232
10.80690738,0.22669258902850364,1.4252877143931852,-0.8368731519701919
10.81167035,0.0888169840293525,1.3835420075011708,-0.720580994348626
10.81645993,-0.04286717544639223,1.3239799552781395,-0.6028870037618139
10.82123618,-0.16744735495656574,1.2468110605958445,-0.48492513460460285
10.8259991,-0.28411041153369326,1.1524319182373992,-0.36778453931811267
10.83078868,-0.3921456640950814,1.0414180245236377,-0.25249866453199493
10.83556493,-0.49094677868394115,0.9145136917879305,-0.14003560571031679
10.84032785,-0.5800126049421032,0.7726202586008242,-0.03128980103555557
10.84511743,-0.6589471107231167,0.6167828081318968,0.0729248856636045
10.84989368,-0.7274585655870028,0.44817562589345444,0.17188067493465967
10.8546566,-0.7853581208644141,0.2680866440074803,0.26493998819365544
10.85944618,-0.832557924015998,0.07790113167882085,0.3515582143462712
10.86422243,-0.8690688884910827,-0.12091509975064665,0.4312851979950656
10.8689854,-0.8949982180115182,-0.32683270455075436,0.5037655453431619
10.87377493,-0.9105467572856865,-0.5382757514040942,0.5687378644974048
10.87855118,-0.9160062108010445,-0.753638348145454,0.6260330720230672
10.88331415,-0.9117562389161079,-0.9713006903882085,0.6755719054399317
10.88810368,-0.8982614078516481,-1.1896443020414589,0.7173617801894503
10.89287993,-0.8760679398782923,-1.4070662630079056,0.7514931189287478
10.8976429,-0.84580018466504,-1.6219922534599616,0.7781352620043329
10.90243243,-0.8081567143748045,-1.8328882838457035,0.7975320432229275
10.90720874,-0.7639059345018274,-2.0382710234947106,0.8099970877088251
10.91197165,-0.7138810993527305,-2.2367166866316226,0.8159088614260666
10.91676124,-0.6589746243547062,-2.4268684812517107,0.8157054766042051
10.92153749,-0.6001315955307623,-2.607442672412761,0.8098792349118759
10.9263004,-0.5383423884060364,-2.777233355883338,0.7989708718956804
10.93108999,-0.47463432442534403,-2.935116079478898,0.7835634534798843
10.93586624,-0.4100623142294863,-3.0800504863373477,0.7642758698183783
10.94062915,-0.3456984660803648,-3.211082185202802,0.7417558746853035
10.94541874,-0.2826206759135499,-3.3273440757649273,0.7166726303141944
10.95019499,-0.22190026259976547,-3.428057370408039,0.6897087373955917
10.95495796,-0.1645887651043243,-3.5125325554243414,0.6615517556381403
10.95974749,-0.11170407230558184,-3.580170522902686,0.6328852490776046
10.96452374,-0.0642161056588815,-3.6304640776121606,0.6043794201119241
10.9692867,-0.023032315151000966,-3.662999980927742,0.5766814261251386
10.97407624,0.011016722463237788,-3.6774616374907043,0.5504055019947662
10.97885249,0.03719129770288788,-3.6736324625159176,0.5261230398880051
10.98361546,0.054855843567533376,-3.6513998919486546,0.504352803520549
10.98840499,0.06349118410483383,-3.6107599181807357,0.4855514769114417
10.99318129,0.06270545988648746,-3.5518219554099697,0.47010476755478625
10.99794421,0.05224345329065152,-3.4748137656123603,0.45831930039782615
11.00273379,0.03199406348762987,-3.380086112671939,0.4504155501883455
11.00751004,0.001995713960418171,-3.2681167624883574,0.4465220621403307
11.01227296,-0.03756048861971396,-3.139513415691572,0.4466712002761305
11.01706254,-0.08632998913192995,-2.995015153364356,0.4507966360287896
11.02183879,-0.14381652233144904,-2.835492002313691,0.4587327464715949
11.02660171,-0.2093764302140962,-2.6619422905575503,0.47021603588100974
11.03139129,-0.28222559692967897,-2.4754875653180135,0.48488863369112917
11.03616754,-0.36144899617328763,-2.277364975250217,0.5023038639244669
11.04093051,-0.4460127918767906,-2.0689171583829107,0.5219338300863776
11.04572004,-0.5347788668085808,-1.8515798078818038,0.5431789146956608
11.05049629,-0.6265215773548218,-1.6268671944101347,0.5653790504121027
11.05525926,-0.7199464516752276,-1.3963559993114376,0.5878265765919046
11.06004879,-0.8137104700333545,-1.1616678567595997,0.6097804502556551
11.06482504,-0.9064434982161581,-0.924451019673563,0.6304815361149815
11.06958801,-0.9967703943149991,-0.6863615600890101,0.649168660020889
11.07437759,-1.0833332802962814,-0.4490444967095326,0.6650950769854445
11.07915384,-1.1648134644661696,-0.2141152164626421,0.6775449806499909
11.08391676,-1.2399525178510638,0.016858472728080765,0.6858496668956015
11.08870634,-1.3075720429247732,0.2423733518361867,0.6894029613516467
11.09348259,-1.366591722147723,0.46100658925064697,0.6876755301267384
11.09824551,-1.4160452920727629,0.6714300875828952,0.680227716091749
11.10303509,-1.455094153308315,0.872423174733998,0.6667205792677345
11.10781134,-1.4830383955076671,1.0628834747236149,0.6469248672890071
11.11257426,-1.4993250882303475,1.2418358364455442,0.6207276967791643
11.11736384,-1.5035537613544816,1.4084392435383069,0.5881367844756654
11.12214009,-1.4954790708955141,1.5619916746634093,0.5492821247154909
11.12691634,-1.4750107157226022,1.701932929044787,0.5044150658253379
11.13169259,-1.442210735920539,1.827845475389362,0.45390479179153426
11.13646884,-1.3972883826744102,1.9394534216611798,0.3982322676469926
11.14123181,-1.3405928008483818,2.0366197372446955,0.3379817575994663
11.14602134,-1.272603807185022,2.1193418866227574,0.27383007395914327
11.15079759,-1.1939210776828815,2.18774605385586,0.2065337618577507
11.15556056,-1.105252076077324,2.2420801494049045,0.13691446866304224
11.16035009,-1.0073990612095822,2.2827057954333996,0.06584278671350359
11.16512639,-0.9012455053171852,2.310089483561121,-0.005779107773601011
11.16988931,-0.7877422395810262,2.3247930913503305,-0.07703566918409324
11.17467889,-0.667893619263159,2.327463931830834,-0.14701667953345796
11.17945514,-0.5427439696954404,2.318824495292466,-0.21483604368277495
11.18421806,-0.4133645374401569,2.2996620256059708,-0.279650291083531
11.18900764,-0.2808411298068629,2.2708180557663513,-0.3406763907153226
11.19378389,-0.14626258259874522,2.2331780104427423,-0.39720848963496524
11.19854681,-0.010710152441134263,2.1876609680753094,-0.4486331950706841
11.20333639,0.12475211193253585,2.1352096620557726,-0.4944430363260748
11.20811264,0.25908600381285585,2.0767807898399666,-0.5342477676610381
11.21287556,0.39128681631281553,2.0133356901521395,-0.5677832087806416
11.21766514,0.5203900697485441,1.9458314412265492,-0.5949173670007105
11.22244139,0.6454773753680491,1.8752124266856782,-0.6156536446534037
11.22720436,0.7656815163733892,1.8024024095515376,-0.6301310053460409
11.23199389,0.8801908352692777,1.7282971484758682,-0.6386210504519413
11.23677014,0.9882530192180157,1.6537575831861822,-0.6415220389127909
11.24154639,1.0891783728735742,1.579603608222315,-0.6393499648242588
11.24632264,1.1823426616374615,1.5066084453143809,-0.6327268843178744
11.25109894,1.2671895979739813,1.4354936154287548,-0.6223667527317408
11.25586186,1.343233030041126,1.3669245019394676,-0.6090590928196871
11.26065144,1.4100588763948996,1.3015064870276718,-0.5936508635049471
11.26542769,1.4673268340609495,1.2397816347931767,-0.5770269358364339
11.27019061,1.5147718709274984,1.182225887269005,-0.5600896083296293
11.27498019,1.552205498003964,1.1292467341922114,-0.5437376082157337
11.27975644,1.5795168031275713,1.081181314551039,-0.5288450289690577
11.28451936,1.5966732155297294,1.0382949079577353,-0.516240648546024
11.28930894,1.6037209605042233,1.0007797769514497,-0.5066880577984255
11.29408519,1.6007851552926444,0.9687543274282546,-0.5008670055312393
11.29886144,1.5880694911646582,0.9422625633664751,-0.4993563370356708
11.30363769,1.5658554425873117,0.9212738234468458,-0.5026188680774872
11.30841394,1.5345009426773466,0.9056828003311986,-0.5109884973034169
11.31319019,1.494438465240491,0.8953098573313332,-0.5246598173549328
11.31796644,1.446172457797245,0.889901671044074,-0.5436804388790278
11.32274269,1.390276076877796,0.8891322414085554,-0.567946192400341
11.32751894,1.3273871862098419,0.8926043217105595,-0.5971993212747396
11.33229519,1.2582035899905135,0.8998513293884661,-0.6310297257246676
11.33707144,1.1834774870502833,0.9103398031821324,-0.6688792647057223
11.34184769,1.104009147234211,0.9234724725441756,-0.7100490704838004
11.34662394,1.0206398287621126,0.9385920010422147,-0.7537097809710706
11.35140019,0.9342439747072468,0.9549854569191696,-0.7989145466887522
11.35617644,0.8457207474944192,0.9718895516665161,-0.8446146218781729
11.36095269,0.7559849811044904,0.9884966723391649,-0.8896773024693072
11.365729,0.6659576499423974,1.0039617164750656,-0.9329059278971319
11.37050525,0.5765559700795854,1.0174097208397102,-0.9730616202522346
11.3752815,0.48868326240831267,1.0279442574313193,-1.0088863943689474
11.38005775,0.40321871795267944,1.0346565525645963,-1.039127237832155
11.38482066,0.32100721300488577,1.0366352675878814,-1.0625607322306585
11.38961025,0.24284932577566706,1.0329768631222933,-1.0780177676938583
11.3943865,0.1694917067840842,1.0227964529084512,-1.0844078926244245
11.39916275,0.10161795223767048,1.005239038606258,-1.0807428397989758
11.403939,0.03984012333015324,0.9794910033869224,-1.0661587783802229
11.40871525,-0.015308954878175279,0.9447917301279232,-1.0399368582011144
11.4134915,-0.06338249302343289,0.9004451997767335,-1.001521637071275
11.41826775,-0.10402552715797299,0.8458314172379978,-0.9505370130495643
11.423044,-0.13697960565689088,0.780417506075173,-0.8867993212125362
11.42782025,-0.16208629689762458,0.7037683094064151,-0.8103272983629305
11.4325965,-0.17928945872694022,0.6155563326275256,-0.7213486693117527
11.43737275,-0.1886362287793698,0.5155708641658615,-0.6203031643126142
11.442149,-0.19027671322005166,0.4037261137070616,-0.5078418377220667
11.44692525,-0.1844623702575368,0.28006821369943186,-0.384822621406453
11.4517015,-0.1715431035820151,0.14478093982588391,-0.2523021114226901
11.45647775,-0.15196309959215348,-0.001809980272842376,-0.11152365227843933
11.461254,-0.1262554608652814,-0.1592340835321953,0.03609815066622758
11.46603025,-0.09503570674879386,-0.32687500633229993,0.18899629361868497
11.4708065,-0.058994229805713644,-0.5039710077968169,0.3454733485373219
11.4755828,-0.01888781323864198,-0.6896172269900754,0.5037262216361226
11.48035905,0.024469671693021038,-0.8827696942229902,0.6618733074327189
11.4851353,0.07021725835868523,-1.0822510917561878,0.817983592643578
11.48991155,0.11745742939181181,-1.2867582353412073,0.9701072131461416
11.4946878,0.16526706870241936,-1.4948712256873196,1.1163069238241192
11.49945072,0.21270867126226523,-1.705064198244942,1.254689907825159
11.5042403,0.2588416578170479,-1.915717580741353,1.3834393312692705
11.50901655,0.3027336412280286,-2.125131750859059,1.5008450439599932
11.51377946,0.3434714943883369,-2.3315419716087544,1.6053328372326605
11.51856905,0.38017207691078053,-2.533134469655804,1.6954916963547324
11.5233453,0.41199248871898225,-2.7280635123207393,1.770098525248728
11.52810827,0.438139732510017,-2.91446933208779,1.8281398733421428
11.5328978,0.45787968262146883,-3.0904967426514194,1.8688302553842147
11.53767405,0.4705452735072733,-3.2543142866773707,1.8916267225306804
11.54243702,0.47554383519283977,-3.40413375101008,1.8962394148077903
11.54722655,0.4723635155405457,-3.5382298786823827,1.8826379001154507
11.5520028,0.460578742060371,-3.6549600983910357,1.8510531831348043
11.55677905,0.43985469224542684,-3.7527840817685663,1.801975348873643
11.5615553,0.40995076149911724,-3.8302829278319392,1.736146888736402
11.56633155,0.3707230387111888,-3.8861777631092425,1.6545518386946796
11.57109452,0.32212581724544076,-3.919347535540977,1.558400935380791
11.5758841,0.26421218076845154,-3.928845770935599,1.4491130637090506
11.58066035,0.19713370860085835,-3.9139160536172697,1.3282933278174223
11.5854366,0.12113934564488937,-3.8740059893210073,1.1977081263883709
11.59021285,0.036573479857605444,-3.808779409638855,1.0592576553550488
11.5949891,-0.05612673208385371,-3.718126584221241,0.9149462968877063
11.59975202,-0.15643475139192659,-3.602172219767779,0.7668513834176738
11.6045416,-0.2637387156252456,-3.4612810434798402,0.617090848282018
11.60931785,-0.37734612538392537,-3.296060792772259,0.4677902891982379
11.61408077,-0.49648911061928913,-3.1073624622236142,0.32104997649774875
11.61887035,-0.6203302222692523,-2.8962776924441678,0.17891233466581866
11.6236466,-0.7479686899884077,-2.6641332231259507,0.04333041356711171
11.62840952,-0.878447083493737,-2.4124823733335004,-0.08386215436975304
11.6331991,-1.0107583140299656,-2.1430935553862756,-0.20097924168462988
11.63797535,-1.1438529140247167,-1.8579358737032157,-0.3065079217941179
11.64273832,-1.2766465373349363,-1.5591619058651196,-0.39913137566715146
11.64752785,-1.4080276294337293,-1.2490878089280284,-0.4777486562071887
11.6523041,-1.5368652259234599,-0.9301709386024247,-0.5414910077280196
11.65706707,-1.6620168480464432,-0.6049852111681359,-0.5897344940634608
11.6618566,-1.7823364743457113,-0.2761944768938996,-0.6221087500229265
11.66663285,-1.8966825772316018,0.053475791542669626,-0.6385017358462475
11.67139582,-2.0039262211112514,0.3812681621691756,-0.6390604412997869
11.67618535,-2.1029592245220896,0.7044239000568466,-0.6241875530986362
11.6809616,-2.192702392272941,1.0202142390017677,-0.5945341644539863
11.68572457,-2.27211382488712,1.3259718763124813,-0.55098866707283
11.69051415,-2.340197311488083,1.6191222891589983,-0.49466202278007304
11.6952904,-2.3960108084049607,1.8972144664867694,-0.42686966357817885
11.70005332,-2.4386749989865084,2.1579506507241617,-0.34911031529172887
11.7048429,-2.4673819203124228,2.3992146882341485,-0.263042080986522
11.70961915,-2.481403629722241,2.619098596523561,-0.17045615609100873
11.71438207,-2.4801008685294885,2.81592696952805,-0.0732485774936344
11.71917165,-2.4629316623538644,2.988278859807882,0.026609566273038187
11.7239479,-2.429459777833062,3.135006798256866,0.12710301742434899
11.72871082,-2.3793629349084173,3.2552526380562896,0.226203864020012
11.7335004,-2.3124406534228847,3.348459940260099,0.32190322008805544
11.73827665,-2.2286215936176212,3.414382653709477,0.41224260099443694
11.74303962,-2.1279702335571007,3.4530898819638036,0.4953445278013444
11.74782915,-2.0106927137237958,3.4649665744985656,0.5694419034297795
11.7526054,-1.8771416708673405,3.4507100283988215,0.6329057179621497
11.75736837,-1.7278198802511406,3.4113221399874765,0.6842706602829027
11.7621579,-1.5633825281708305,3.3480974030179,0.7222582384169468
11.76693415,-1.3846379453883524,3.262606710836679,0.7457970415012877
11.77169712,-1.1925466469950823,3.1566770837341,0.7540398126714278
11.77648665,-0.9882185447971258,3.0323675088448447,0.7463770448144573
11.7812629,-0.7729082239409174,2.8919411475533163,0.7224468606078819
11.78602587,-0.548008205532251,2.737834233290626,0.6821409945444232
11.7908154,-0.31504015091288545,2.572622049572015,0.6256067571362887
11.79559165,-0.07564400048652395,2.3989824426307984,0.5532449291442959
11.80035462,0.16843492009038785,2.2196573833898916,0.46570360522840265
11.80514421,0.4153607515323675,2.0374131478978246,0.363868080384633
11.80992046,0.6632237921419241,1.8549997317038767,0.24884694703316365
11.81468337,0.910058866602473,1.675110149841812,0.12195464342198829
11.81947296,1.1538651676159506,1.5003402979089284,-0.015309237115168515
11.82424921,1.3926273260065034,1.3331500586402532,-0.16128350345627004
11.82901212,1.624337430731281,1.1758263295835287,-0.3141713622431447
11.8338017,1.8470176938548524,1.0304486187290611,-0.47206837643655264
11.83857796,2.0587434381922747,0.8988578060858577,-0.6329918751061251
11.84334087,2.2576660763353424,0.7826286031818804,-0.7949112784234948
11.84813046,2.4420357468866736,0.6830461646729482,-0.955778791046138
11.8529067,2.61022327442838,0.6010872224225168,-1.1135599198145578
11.85766967,2.7607411225722696,0.5374060268857399,-1.2662632868856805
11.8624592,2.8922630142963204,0.49232529572820893,-1.411969235539795
11.86723546,3.0036419014592233,0.46583228618875633,-1.5488567614567452
11.87199842,3.0939259768694636,0.4575800259616183,-1.6752283462741409
11.87678796,3.162372438416214,0.46689365742748484,-1.789532322284723
11.8815642,3.2084587363671444,0.4927817721498971,-1.8903824568980108
11.88632717,3.231891062974251,0.533952537266642,-1.976574512096723
11.8911167,3.2326098791353286,0.5888343438442575,-2.0470996055898385
11.89589296,3.210792317001664,0.6556006409153491,-2.1011542736764457
11.90065592,3.1668513502675113,0.732198559288398,-2.138147207467456
11.90544551,3.1014316842082725,0.8163808774710776,-2.157702700867647
11.91022176,3.0154023827121748,0.9057408388510997,-2.1596609083729095
11.91498467,2.909846316160762,0.9977492948585395,-2.1440750621985245
11.91977426,2.786046578750011,1.0897936230836658,-2.1112058412886956
11.92455051,2.645470083988131,1.179217851904191,-2.0615131195244167
11.92931342,2.489748600550597,1.263363413622304,-1.9956453471139473
11.93410301,2.3206575358560984,1.3396099459672246,-1.914426837767503
11.93887926,2.1400928106389796,1.4054155667087664,-1.8188432449501892
11.94364217,1.9500461939693468,1.4583560577529793,-1.710025513774603
11.94843176,1.7525794846462468,1.4961624131847262,-1.5892325918851005
11.95320801,1.54979793211271,1.5167562300178905,-1.457833174184082
11.95797098,1.3438232887499888,1.518282450638376,-1.317286743642064
11.96276051,1.1367668765287566,1.4991390017925397,-1.169124154865034
11.96753676,0.9307030356469935,1.4580029161876278,-1.0149279897759789
11.97229973,0.7276433022797547,1.3938525690355008,-0.8563128970077326
11.97708926,0.5295116383093356,1.305985712886963,-0.6949061096614707
11.98186551,0.33812100925901784,1.194033049528617,-0.5323283209673223
11.98664176,0.15515157887111009,1.057967137119752,-0.37017508469688865
11.99141801,-0.017869239031138538,0.8981064936076154,-0.2099988970704643
11.99619426,-0.17958465760949158,0.7151148231411892,-0.05329210908746557
12.00097051,-0.3288241343246492,0.509995359939622,0.09852918797322267
12.00574681,-0.4646165626166148,0.2840803929683372,0.24414016663070282
12.01052306,-0.5862008923262795,0.03901610387490395,0.3823210254574899
12.01529931,-0.6930340511889728,-0.2232570809996236,0.5119693851739374
12.02007556,-0.7847960561547386,-0.5005283569148655,0.6321112029491012
12.02485181,-0.8613922193714958,-0.7903442931031036,0.7419100996775942
12.02961472,-0.9229523708301691,-1.0900400770744385,0.8406750069026477
12.03440431,-0.969827039418361,-1.3967737981398405,0.9278660530345609
12.03918056,-1.0025805579147722,-1.7075632634243285,1.0030986218941191
12.04394348,-1.0219810865164218,-2.01932479211824,1.066145529619259
12.04873306,-1.0289875846450103,-2.3289133950670196,1.116937278178121
12.05350931,-1.024733802333302,-2.6331637193642883,1.155560355588095
12.05827228,-1.0105094103148222,-2.928931123207534,1.182253566108296
12.06306181,-0.9877384415052652,-3.2131322459153564,1.1974023907037423
12.06783806,-0.9579552747329243,-3.482784451753108,1.2015314014059864
12.07260103,-0.9227784523370843,-3.735043553216615,1.195294783968237
12.07739056,-0.8838826838829787,-3.9672392582826,1.179465060672356
12.08216681,-0.8429694459013893,-4.176907835537516,1.154920146677518
12.08692978,-0.8017366399060059,-4.3618215502430715,1.1226289149544693
12.09171931,-0.7618478162861634,-4.520014492744047,1.083635482168207
12.09649556,-0.7249015086110501,-4.649804496972012,1.0390424570045267
12.10125853,-0.6924012497662327,-4.749810928302195,0.9899934112283402
12.10604811,-0.6657268561708375,-4.818968201962021,0.9376548422183464
12.11082431,-0.6461075671832746,-4.856534969973952,0.8831978955972043
12.11558728,-0.6345976124949031,-4.8620989815864135,0.8277801107137596
12.12037686,-0.6320547505993297,-4.8355776771403445,0.7725274436617062
12.12515311,-0.6391222768127676,-4.777214619072055,0.7185168157397437
12.12991603,-0.65621494069709,-4.687571899138177,0.6667594318843912
12.13470561,-0.6835091412680796,-4.5675186917096715,0.6181851134047488
12.13948186,-0.7209376856733465,-4.418216152715915,0.5736278901833726
12.14424478,-0.7681893053471802,-4.241098895507223,0.5338130964742025
12.14903436,-0.8247130256945964,-4.037853310770002,0.4993462085534327
12.15381061,-0.8897273836726778,-3.8103930389129097,0.4707036491300835
12.15857353,-0.9622343840675339,-3.5608319498289873,0.44822576102921446
12.16336311,-1.041037980944399,-3.2914550345467553,0.4321121214344805
12.16813936,-1.1247667665809593,-3.0046876621440997,0.4224193297162927
12.17290228,-1.2119004474248647,-2.7030636984181817,0.4190613587241516
12.17769186,-1.3007995872935811,-2.38919301504159,0.4218125128025924
12.18246811,-1.3897380053357298,-2.06572893499009,0.4303129864252576
12.18723108,-1.4769371345625177,-1.7353361592534444,0.4440769658230016
12.19202061,-1.5606015811373903,-1.4006597006585337,0.462503162915652
12.19679686,-1.6389550799245811,-1.0642953144150746,0.48488761673219855
12.20155983,-1.7102760214711181,-0.7287618646259305,0.5104385427921118
12.20634936,-1.7729317309614439,-0.39647600538985645,0.5382929565110145
12.21112561,-1.8254107101671495,-0.0697294885250634,0.5675347445231305
12.21588858,-1.8663521073486329,0.2493306588588936,0.5972138112852335
12.22067816,-1.8945717553220425,0.5587189119918409,0.6263658919094796
12.22545441,-1.9090842120059852,0.8566248724686363,0.6540325999788352
12.23021733,-1.9091203478736387,1.1414236931203314,0.679281273234479
12.23500691,-1.894140147812648,1.4116833184277833,0.7012241898995051
12.23978316,-1.8638405275768049,1.6661686125707629,0.7190367514359023
12.24454608,-1.8181581030337697,1.9038425017124248,0.7319742604651684
12.24933566,-1.7572669882658376,2.1238643080666475,0.7393869624256584
12.25411191,-1.6815718301874258,2.3255854993329548,0.7407330639103813
12.25887483,-1.5916964072377773,2.5085431165140197,0.7355894877627718
12.26366441,-1.4884682237020908,2.672451174376774,0.72366017362303
12.26844066,-1.3728996163100724,2.817190350766516,0.7047817818142598
12.27320358,-1.2461659538342558,2.942796293078361,0.6789267078056405
12.27799316,-1.1095815521825045,3.049446872411555,0.6462033642358667
12.28276941,-0.964573946830399,3.1374487089494134,0.6068537384856498
12.28753238,-0.8126571626360621,3.2072232774171114,0.5612482867387527
12.29232191,-0.6554046005107861,3.2592928810054547,0.5098782796820149
12.29709816,-0.49442212396099694,3.294266757562055,0.4533457680982662
12.30186113,-0.33132187892306797,3.312827554148339,0.39235138572104744
12.30665066,-0.16769732001471901,3.3157183757894284,0.32768024994517664
12.31142691,-0.0050998478544031795,3.3037305818945355,0.26018625779780147
12.31620316,0.15498261140738312,3.2776924701210124,0.1907751051531778
12.32097941,0.31114482812526634,3.2384589533833252,0.12038638162990667
12.32575566,0.4620811094432556,3.186902302349555,0.049975111620605236
12.33051863,0.6065996426159854,3.123903994083859,-0.01950687727020412
12.33530822,0.7436342875449865,3.0503476781941923,-0.08712937437712674
12.34008446,0.8722538182325827,2.9671132453672717,-0.15200161682495392
12.34484738,0.991668658090724,2.8750719597362684,-0.2132891685115991
12.34963696,1.10123519114942,2.7750825962103565,-0.27022950916072724
12.35441322,1.2004577607822593,2.6679885067012648,-0.32214602865935443
12.35917613,1.2889884904573163,2.554615525076062,-0.36846016303303564
12.36396572,1.3666250781774214,2.4357706095971134,-0.40870145591799706
12.36874196,1.4333067285907213,2.3122411135133274,-0.4425153812938977
12.37351822,1.4891083949798976,2.1847945692449504,-0.4696688173730551
12.37829447,1.5342335080632212,2.0541788691165817,-0.49005311587626893
12.38307072,1.5690053702472762,1.9211227256526793,-0.5036847638066236
12.38784697,1.593857393116406,1.7863362968298782,-0.5107036849934665
12.39262322,1.6093223529923368,1.6505118661275426,-0.511369275119318
12.39739947,1.6160208348165186,1.5143244734699952,-0.5060543058061948
12.40216243,1.614649028852456,1.378432400959327,-0.49523686983439713
12.40695197,1.6059660382024874,1.2434774264360302,-0.4794905699503024
12.41172822,1.5907808482441899,1.1100847682049806,-0.4594731773640236
12.41649118,1.5699391020571565,0.9788626556152182,-0.4359140026166816
12.42128072,1.5443098188452513,0.8504014725237434,-0.4096002311718541
12.42605696,1.514772185328986,0.7252724339672841,-0.38136247956763797
12.43083322,1.4822025432323473,0.6040257705444796,-0.35205982639326144
12.43560946,1.4474616896274606,0.4871884099277404,-0.32256456703323466
12.44038577,1.411382601468142,0.37526116033450707,-0.2937469332430459
12.44516202,1.3747586915376124,0.26871541639841534,-0.266460009061321
12.44993827,1.3383327004061938,0.16798942345178253,-0.2415250638147443
12.45471452,1.30278632764664,0.07348415163478596,-0.21971751116193533
12.45949077,1.2687307049978171,-0.014441153584055667,-0.20175369013178746
12.46426702,1.236697813742744,-0.09547366309250857,-0.18827864976884626
12.46904327,1.2071329475595187,-0.1693518025105672,-0.17985510325688034
12.47381952,1.1803883197894125,-0.2358701287377058,-0.17695370036726413
12.47859577,1.156717909751914,-0.2948841247922298,-0.1799447489545476
12.48337202,1.1362736358909704,-0.3463147838546235,-0.1890914971624067
12.48814827,1.1191029339349536,-0.39015284681928475,-0.20454506814010961
12.49292452,1.1051478059588258,-0.42646255404834293,-0.2263411185036596
12.49770077,1.094245391461853,-0.4553847717307299,-0.25439827056747755
12.50247702,1.086130094558571,-0.477139356494919,-0.28851834653700403
12.50725327,1.0804372823338175,-0.49202662877188785,-0.3283884103651964
12.51202952,1.0767085485094903,-0.5004278357653517,-0.37358459979471803
12.51680577,1.0743985140398646,-0.502804498571366,-0.42357770722794325
12.52158202,1.0728831124916476,-0.49969655480374864,-0.4777404435741447
12.52635827,1.0714692836531914,-0.4917192278498622,-0.5353562942927769
12.53113452,1.069405974412465,-0.4795585764086143,-0.5956298517096698
12.53591077,1.065896322174872,-0.46396570300401796,-0.6576984825909861
12.54068707,1.0601108735115738,-0.445749627406358,-0.7206451652605078
12.54546332,1.0512016698073068,-0.4257688598782358,-0.7835123067488098
12.55023957,1.0383170128145747,-0.40492173922596303,-0.8453163283121381
12.55501582,1.0206167065492775,-0.38413563085961694,-0.9050627881187545
12.55977874,0.9972875581207583,-0.3643551093437353,-0.9617617940580613
12.56456832,0.9675589090148109,-0.3465292771116459,-1.0144434485554075
12.56934457,0.9307179601351052,-0.33159839510211764,-1.0621730618855763
12.57410749,0.8861246487208478,-0.32048002128414904,-1.1040658713899136
12.57889707,0.8332258333670286,-0.3140548688890441,-1.1393010114450066
12.58367332,0.7715685450404192,-0.31315260749370744,-1.167134492798216
12.58843624,0.7008120673565678,-0.3185378369709398,-1.186910969362231
12.59322582,0.6207386185543269,-0.33089646696804637,-1.1980740948332167
12.59800207,0.5312624207359943,-0.3508227332770592,-1.200175299502821
12.60277832,0.43243695924250974,-0.3788070775239026,-1.1928808482908713
12.60755457,0.3244602566147979,-0.4152251083632775,-1.1759770733007964
12.61233082,0.20767801135020034,-0.4603278511556575,-1.1493737071384418
12.61710707,0.0825844812768062,-0.514233479187614,-1.1131052759874553
12.62188332,-0.05017897564496309,-0.5769207030136349,-1.067330543312424
12.62665957,-0.18982775453303405,-0.648223975456767,-1.0123300255903755
12.63143582,-0.3354402644203151,-0.7278306481334094,-0.9485016304012682
12.63621207,-0.4859665711165927,-0.8152801909541538,-0.8763544944701173
12.64098832,-0.640239356483918,-0.9099655588000506,-0.7965011248901263
12.64576457,-0.7969870881811514,-1.0111367594512468,-0.709647970839155
12.65054082,-0.9548492537046792,-1.1179066439161058,-0.6165845756590613
12.65531707,-1.1123934728916542,-1.2292589047408597,-0.5181714801244742
12.66009332,-1.2681342644721492,-1.34405823000052,-0.415327066854649
12.66486962,-1.4205532052779848,-1.4610625210634143,-0.30901355275770936
12.66964582,-1.5681201859383676,-1.578937041751476,-0.20022235081289047
12.67442212,-1.7093154351740651,-1.6962703262968042,-0.0899590342777937
12.67919837,-1.842651957304951,-1.811591634849654,0.020771854342081227
12.68397462,-1.9666980056067587,-1.9233897097241062,0.13098190036151783
12.68873754,-2.0800991989421793,-2.030132554544342,0.23971356645022868
12.69352712,-2.181599881777874,-2.1302879331042233,0.346054339789231
12.69830337,-2.270063329191897,-2.222344265729018,0.44915002493339956
12.70306629,-2.3444904092889804,-2.304831588584251,0.5482169388745842
12.70785587,-2.4040363356590277,-2.376342236008178,0.6425527796910117
12.71263212,-2.448025172030409,-2.435550907813121,0.7315459619365564
12.71739504,-2.475961789925095,-2.481233792688084,0.8146832403336491
12.72218462,-2.4875410273912117,-2.5122864351653296,0.8915554777665228
12.72696087,-2.4826538514928327,-2.5277400567163064,0.9618614531716199
12.73172384,-2.4613903872857077,-2.526776070890341,1.025409648408794
12.73651337,-2.4240397394838173,-2.5087385672475495,1.082117998674424
12.74128962,-2.3710865979948395,-2.473144578123248,1.1320116362838126
12.74606587,-2.303204683020869,-2.4196919847295866,1.1752187009039574
12.75084212,-2.2212471476090423,-2.3482649633684267,1.2119643295596179
12.75561837,-2.126234114017917,-2.2589369171453546,1.2425629764190742
12.76038134,-2.0193375742753954,-2.151970882101517,1.2674092447228873
12.76517087,-1.9018639341148658,-2.027817437946209,1.2869674400396134
12.76994712,-1.7752345217179093,-1.887110191934387,1.3017600741073956
12.77471009,-1.6409644163940516,-1.7306589397181478,1.3123555612666948
12.77949962,-1.5006399756870974,-1.5594406391398372,1.319355355192668
12.78427587,-1.3558954516085664,-1.3745883616857093,1.3233807731650922
12.78903884,-1.2083890883294155,-1.1773784113615857,1.3250597494436953
12.79382842,-1.0597790864358612,-0.9692158219125698,1.32501374925659
12.79860467,-0.9116998049933921,-0.7516184606097561,1.32384506112499
12.80336759,-0.7657385541845602,-0.5261999803587837,1.3221246683872585
12.80815717,-0.6234133096484914,-0.29465187168926454,1.3203808815321385
12.81293342,-0.48615165569831964,-0.05872487222759884,1.3190888919748636
12.81769634,-0.3552712386695197,0.17979000651826957,1.3186613858131293
12.82248592,-0.23196198387877154,0.41908057682728467,1.3194403334280231
12.82726217,-0.11727030030420126,0.6573324439720367,1.3216900481171086
12.83202509,-0.012085466631259045,0.8927476029402883,1.3255915849274862
12.83681467,0.08287163875429597,1.1235624309663312,1.331238530190221
12.84159092,0.16705733265706937,1.3480648598112575,1.338634213445751
12.84635384,0.24011134741439188,1.5646105305907656,1.3476903566072151
12.85114342,0.3018604093134698,1.7716377558147967,1.3582271600702531
12.85591967,0.35231914000578785,1.9676811377955903,1.3699748115752923
12.86068264,0.3916882783274833,2.15138371913092,1.382576390501331
12.86547217,0.4203502526294803,2.321507568863036,1.3955921276027659
12.87024842,0.43886216664009126,2.4769427363857566,1.4085049678114694
12.87502467,0.44794629487669235,2.6167145334902493,1.420727371466969
12.87980092,0.4484782163214924,2.7399891324268504,1.4316092770555289
12.88457717,0.44147274696399186,2.8460774938782163,1.4404471361512208
12.88935342,0.428067862334511,2.934437662703253,1.4464939188145536
12.89412967,0.40950682977280284,3.0046754907341278,1.4489699753829728
12.89890592,0.38711879637860463,3.0565438644417067,1.447074628584824
12.90368217,0.36229810184745337,3.08994053074537,1.4399983584302662
12.90845848,0.33648260513821193,3.1049046266262468,1.4269354316048226
12.91323472,0.31113132958072015,3.1016120276488253,1.4070968173799532
12.91801098,0.28770174209906646,3.080369637212917,1.3797232236539312
12.92278717,0.2676269882693751,3.0416087425566607,1.344098079930032
12.92756348,0.2522934056505262,2.9858775654169385,1.2995602891096925
12.93233972,0.2430186331148623,2.913833135063334,1.2455165672687838
12.93711598,0.24103062386664859,2.8262326094477217,1.181453190515759
12.94189222,0.24744785472908382,2.723924166770057,1.1069469709929
12.94666848,0.2632610044687161,2.6078375851277635,1.021675290288139
12.95144472,0.2893163498800755,2.478974622279719,0.9254250279452266
12.95622098,0.32630110068726403,2.33839930101793,0.8181002351907184
12.96099723,0.374730863763923,2.1872281982626482,0.6997284191751784
12.96577348,0.4349393944912341,2.026620827860568,0.570465320696755
12.97054973,0.507070759008542,1.8577701982942723,0.4305980882866767
12.97532598,0.5910739963648852,1.6818936172659087,0.2805467734045221
12.98010223,0.6867003347680659,1.5002238055966846,0.12086409494229443
12.98487848,0.7935029817648164,1.314000373307408,-0.04776655421626931
12.98965473,0.910839474752896,1.1244617013097653,-0.22453486071630635
12.99443098,1.0378765462533515,0.9328372629554853,-0.4085090812254235
12.99920723,1.1735974284288042,0.7403404107778485,-0.5986432217621355
13.00397019,1.3168114939438216,0.5481616450776144,-0.7937858331800497
13.00875972,1.4661661057988704,0.3574623724929343,-0.9926903263336815
13.01353598,1.6201605273810964,0.1693691542773167,-1.1940266875879035
13.01829894,1.7771617255868868,-0.01503156436299175,-1.3963944535145867
13.02308848,1.935421884275646,-0.19469826080024644,-1.5983367830385953
13.02786472,2.093097432329089,-0.3686387022636324,-1.7983554463679614
13.03262769,2.2482693801460836,-0.5359139059501401,-1.9949265333484643
13.03741722,2.3989647505123783,-0.6956417300220026,-2.186516669966929
13.04219353,2.5431788844598997,-0.8470001378410605,-2.3715995210417544
13.04695644,2.678898399863279,-0.9892301801300099,-2.5486723501545225
13.05174603,2.804124579770932,-1.1216387399905408,-2.716272405154737
13.05652228,2.916896968355585,-1.2436010837967706,-2.8729928996420484
13.06128519,3.0153169544472296,-1.3545632569720145,-3.0174983679902088
13.06607478,3.097571125261526,-1.454044357754038,-3.1485391836528063
13.07085103,3.161954175078895,-1.5416387145767487,-3.264965047217059
13.07561394,3.2068911542181104,-1.6170179839474255,-3.365737271161785
13.08040353,3.230958842780671,-1.67993317588415,-3.4499397116581996
13.08517978,3.232906032796114,-1.7302166032354667,-3.5167882233195664
13.08995603,3.2116725030267848,-1.7677837396569231,-3.5656385399647244
13.09473228,3.166406472706663,-1.7926349587858195,-3.5959925124626873
13.09950853,3.0964803226501245,-1.8048571143546457,-3.6075026626080153
13.10428478,3.0015043737971756,-1.8046249077778658,-3.5999750388281693
13.10906103,2.8813385150727,-1.792201976397886,-3.573370384713465
13.11383728,2.7361014758676743,-1.7679416224752633,-3.5278036544668776
13.11861353,2.5661775447825748,-1.7322870906711723,-3.463541929985388
13.12338978,2.3722205463605213,-1.685771290807151,-3.3810008119653614
13.12816603,2.155154901938523,-1.6290158537700115,-3.2807393718448896
13.13294228,1.9161736198465331,-1.562729402269615,-3.1634537625045844
13.13771853,1.656733084216519,-1.4877049154796995,-3.0299695936989877
13.14249478,1.3785445407476047,-1.4048160680990909,-2.8812331836643628
13.14725775,1.0835622120322794,-1.3150124307031137,-2.718301801880349
13.15204728,0.7739680146392696,-1.219313429980039,-2.542333020315324
13.15682353,0.4521528951435809,-1.1188009850725398,-2.354573292474388
13.1615865,0.12069485255486045,-1.0146107602203518,-2.1563458818504686
13.16637608,-0.21766623023381063,-0.9079220045655565,-1.9490382641550068
13.17115233,-0.560056763728875,-0.7999459874344015,-1.734089130567163
13.17591525,-0.9035003919942084,-0.6919130813467038,-1.512975121300581
13.18070483,-1.2449513828934717,-0.585058594571018,-1.287197418992163
13.18548108,-1.5813300866486062,-0.48060750873370284,-1.058268328922297
13.190244,-1.9095600122206235,-0.3797583326371101,-0.8276979676685192
13.19503358,-2.226606005897668,-0.2836663383234443,-0.5969811742252359
13.19980983,-2.5295129589429517,-0.19342649641040616,-0.3675847494388224
13.20457275,-2.8154444250396926,-0.11005647146331657,-0.14093512243500692
13.20936233,-3.081720496451802,-0.03448007133042544,0.08159346250949126
13.21413858,-3.3258542718641184,0.03248843589787194,0.2986901485511442
13.2189015,-3.5455862491720995,0.0901587192473415,0.5091179706061709
13.22369108,-3.7389159927171938,0.13797709015876797,0.7117235763136344
13.22846733,-3.904130456016516,0.1755371367937828,0.905446082093346
13.23323025,-4.039828387443379,0.20258795048854103,1.0893249870927557
13.23801983,-4.144940307336859,0.2190396624794721,1.262507072032745
13.24279608,-4.21874362035492,0.22496607478984398,1.424252213220433
13.24755905,-4.260872515602564,0.22060424335703344,1.5739380442163518
13.25234858,-4.271322407138572,0.2063509516645431,1.7110633996622766
13.25712483,-4.250448775830481,0.1827560968994124,1.835250479030539
13.2618878,-4.198960386656104,0.1505130956071656,1.9462456742036933
13.26667733,-4.11790697023652,0.11044649958003991,2.043919015543445
13.27145358,-4.008661571397244,0.06349709279177776,2.128262207959202
13.27621655,-3.8728978796578764,0.01070481386971445,2.199385252010019
13.28100608,-3.7125629657118124,-0.04681008709858457,2.257511674053637
13.28578233,-3.529845952125894,-0.10786719688931856,2.302972420837952
13.2905453,-3.3271432417809006,-0.17124689616720162,2.3361985040280113
13.29533483,-3.1070210084907415,-0.23571161175439614,2.35771250626445
13.30011108,-2.872175714952801,-0.300026854847487,2.3681190813838344
13.30487405,-2.6253934592132526,-0.36298156224733324,2.3680945974891605
13.30966363,-2.3695089602253616,-0.42340730512421654,2.3583760832012146
13.31443988,-2.107364976607229,-0.48019599439577304,2.3397496453403828
13.3192028,-1.841772913211678,-0.5323157866404841,2.3130385311265758
13.32399238,-1.5754753114597302,-0.5788249716069002,2.2790910101427504
13.32876863,-1.311110845503329,-0.6188836950896421,2.2387682509219573
13.33353155,-1.0511823608809747,-0.651763435400479,2.1929323641893563
13.33832113,-0.7980283991028445,-0.6768542068134594,2.1424347797634478
13.34309738,-0.553798554341651,-0.6936695098413037,2.088105117162778
13.34787363,-0.3204329105812974,-0.7018490873567429,2.0307407011608207
13.35264988,-0.09964571176530543,-0.7011595788794487,1.9710968628377197
13.35742613,0.10708667459642346,-0.6914931939564408,1.9098781541312648
13.36220238,0.2985335268069675,-0.6728645499896427,1.8477305896499698
13.36697863,0.47371337798800495,-0.6454058400255029,1.7852350137198094
13.37175488,0.6318936435866865,-0.6093605116179496,1.7229016733298432
13.37653113,0.7725865099001179,-0.5650756488080726,1.6611660587813761
13.38130738,0.8955413809290296,-0.5129932557715641,1.6003860534458587
13.38608363,1.0007342265165318,-0.4536406431863738,1.5408404124332893
13.39085988,1.088354210818747,-0.3876201172007228,1.4827285680753368
13.39563613,1.1587880064446205,-0.31559816617234704,1.4261717393319322
13.40041238,1.2126022161910168,-0.23829433225573177,1.371215303853862
13.40518863,1.250524331620082,-0.15646994393151356,1.3178323760238941
13.40996488,1.2734226563150841,-0.07091687253701491,1.2659285213968208
13.41474113,1.2822856118356576,0.017553538442761092,1.215347526513894
13.41951738,1.2782008262773414,0.10812123767972516,1.1658781320681564
13.42429363,1.26233437918218,0.1999678059831693,1.117261626223274
13.42906988,1.2359105431509814,0.2922862701344651,1.0692001833326799
13.43384613,1.2001923233371834,0.384290304817378,1.0213658214805061
13.43862243,1.1564630530370086,0.4752227523822511,0.9734098405249669
13.44339868,1.1060092589793782,0.5643634046278091,0.9249725912294972
13.44817493,1.0501049655383539,0.6510360038751672,0.8756934163321527
13.45295118,0.9899975642652158,0.7346144322227172,0.8252205967557514
13.45772743,0.9268953346548486,0.8145280679765825,0.7732211311748218
13.46250368,0.8619566643321114,0.8902662968450858,0.7193901752069335
13.46727993,0.796280982018115,0.9613821725931985,0.663459967821653
13.47205618,0.7309013846982557,1.0274952275603293,0.6052080773057471
13.47683243,0.6667789113143243,1.0882934379146638,0.5444648073414612
13.48160868,0.6047983890450469,1.143534351990543,0.4811196154145355
13.48638493,0.5457657548644235,1.193045392850349,0.4151264108002836
13.49116118,0.4904067346581533,1.2367233487101357,0.34650761765478205
13.49593743,0.4393667449386168,1.2745330674690616,0.2753569099510665
13.50071368,0.3932118684519225,1.3065053746495883,0.20184054856225242
13.50548993,0.35243074498771954,1.33273423787369,0.12619727598261363
13.51026618,0.31743721255071183,1.353373205758113,0.048736750372921106
13.51504243,0.2885735316547737,1.3686311548902383,-0.030163472619418756
13.51981868,0.26611402679240254,1.378767385315184,-0.11006237486154032
13.52459493,0.2502689840975558,1.3840861125980557,-0.19046126546627473
13.52937118,0.2411886527945917,1.384930412838633,-0.27081083725793154
13.53414743,0.23896721003050658,1.3816756857815828,-0.35051937738785793
13.53892368,0.2436465638440856,1.3747227100738004,-0.42896199684211983
13.54369993,0.2552198869625193,1.3644903733602147,-0.5054907235594382
13.54847618,0.27363479430614035,1.3514081678363106,-0.5794452872266783
13.55325249,0.2987960988181437,1.3359085487247746,-0.6501644109764765
13.55802874,0.3305681027612109,1.3184192586747885,-0.7169974161685932
13.56280499,0.36877640433084624,1.2993557251110384,-0.7793159408833893
13.56758124,0.413209221910685,1.2791136398755834,-0.836525570371767
13.57235749,0.463618260110195,1.2580618309290719,-0.8880771783098151
13.57713374,0.5197191622267161,1.2365355343833508,-0.9334777811695785
13.58190999,0.581191612118854,1.2148301718443963,-0.9723007141244205
13.58668624,0.6476791638757775,1.193195733064949,-1.0041949453593657
13.59146249,0.7187888896044893,1.1718318572334396,-1.02889335620435
13.59623874,0.794090943982562,1.1508836977648225,-1.0462198270818501
13.60101499,0.8731181490494777,1.1304386451785042,-1.056094984014197
13.60579124,0.9553657041871856,1.1105239707197254,-1.0585404777083012
13.61056749,1.0402911243884838,1.0911054401510214,-1.0536816873978179
13.61534374,1.127314504669782,1.072086932978128,-1.041748764796916
13.62011999,1.2158191999497103,1.0533110875648917,-1.0230759593538876
13.62489624,1.3051529983360886,1.0345609773563875,-0.9980991937539659
13.62967249,1.3946298522548475,1.0155628079928212,-0.9673518875305538
13.63444874,1.483532216801396,0.9959896097231461,-0.9314590560963348
13.63922499,1.5711140282800775,0.9754658845225974,-0.8911297420101135
13.64400124,1.6566043382155036,0.9535731529934213,-0.8471478643918959
13.64877749,1.7392115997638764,0.9298563327275292,-0.8003616007372577
13.65355374,1.8181285855444145,0.9038308674555393,-0.7516714427604009
13.65832999,1.8925378995131583,0.874990515001148,-0.7020170940639155
13.66310624,1.9616180311715155,0.8428156917310041,-0.6523634018714647
13.66788249,2.0245498882864648,0.8067822617451489,-0.6036855369869513
13.67265874,2.0805237344416327,0.7663706504416937,-0.5569536547164031
13.67743504,2.1287464501940536,0.7210751543711936,-0.5131172839874522
13.68221129,2.168449031323134,0.6704133126534262,-0.47308970181511895
13.68698754,2.198894234344439,0.6139351999208431,-0.43773255528327604
13.69176379,2.2193842777239956,0.551232497088885,-0.407840993220775
13.69654004,2.2292685067453037,0.48194719460474406,-0.3841295648728133
13.70131629,2.2279509305263514,0.40577978358312705,-0.3672191334830071
13.70609254,2.2148975410521015,0.3224967937146669,-0.35762503930839684
13.71086879,2.1896433261029773,0.23193754322528715,-0.3557467296094024
13.71564504,2.1517988905424508,0.13401997559016895,-0.3618590528644713
13.72042129,2.1010566035954397,0.028745470251870582,-0.37610539104266666
13.72519754,2.0371961935737652,-0.08379746970634003,-0.398492777437985
13.72997379,1.9600897160668516,-0.2034307312346493,-0.4288891186553264
13.73475004,1.8697058269719684,-0.3298853631832288,-0.46702260826831493
13.73952629,1.766113297919997,-0.46280163958361814,-0.5124833868362751
13.74430254,1.64948371873953,-0.6017304224796893,-0.5647274686204009
13.74907879,1.5200933397806584,-0.7461358066867737,-0.6230829196011916
13.75385504,1.3783240163931758,-0.8953990032773086,-0.6867582343391726
13.75863129,1.2246632286697492,-1.0488233940093825,-0.75485282090854
13.76340754,1.059703161559398,-1.2056406660669827,-0.8263694637474819
13.76818379,0.8841388433102987,-1.3650179159737343,-0.9002285942650682
13.77296004,0.6987653534205508,-1.5260655938130252,-0.9752841592471593
13.77772301,0.5044741241158506,-1.6878461442004018,-1.0503408386600201
13.78251254,0.30224837089581613,-1.8493831889683277,-1.1241723287488756
13.78728879,0.09315769699219403,-2.009671088389377,-1.1955403749532891
13.79205176,-0.12164807704291215,-2.167684713165645,-1.2632142138035123
13.79684134,-0.3409458044883567,-2.3223892585725556,-1.325990065207196
13.80161759,-0.5634465711573361,-2.4727499353640865,-1.3827103075819258
13.80638051,-0.7878038733255207,-2.6177413797526863,-1.4322819687598112
13.81117009,-1.0126223747884746,-2.756356637488671,-1.4736941755452164
13.81594634,-1.2364672133311232,-2.887615595171001,-1.5060342238851703
13.82070926,-1.457873837752818,-3.0105727553457777,-1.5285019591662758
13.82549884,-1.6753583662056803,-3.1243242798543474,-1.5404221913052543
13.83027509,-1.887428463409905,-3.228014256620648,-1.541254910979896
13.83505134,-2.0925947369692315,-3.320840176351451,-1.5306031202950516
13.83982759,-2.2893826504672257,-3.4020576349943417,-1.508218141906567
13.84460384,-2.4763449426267177,-3.4709843030092706,-1.4740023234516133
13.84936681,-2.652074527366905,-3.5270032218755003,-1.4280091074720187
13.85415634,-2.815217829329168,-3.5695655008751084,-1.3704404897709004
13.85893259,-2.964488483958098,-3.598192492989863,-1.301641940732039
13.86369556,-3.0986813013354615,-3.6124775283415658,-1.2220949140760236
13.86848509,-3.2166863595462822,-3.612087278183755,-1.1324071151388624
13.87326134,-3.317503057438601,-3.5967628136422536,-1.033300745335581
13.87803759,-3.4002539198806603,-3.566320412899724,-0.9255989805218949
13.88281384,-3.464197913684839,-3.520652159484657,-0.8102109779142973
13.88759009,-3.5087430026392155,-3.459726363054554,-0.6881157379729663
13.89235306,-3.5334576488058533,-3.3835878222771494,-0.5603451726431379
13.89714259,-3.5380809566973173,-3.292357936848382,-0.4279667480412982
13.90191884,-3.5225311581749925,-3.1862346625020708,-0.29206607679637137
13.90668181,-3.4869121490003256,-3.0654922897006585,-0.15372983178955182
13.91147134,-3.431517812571105,-2.9304810144597,-0.014029338105488542
13.91624759,-3.3568339020909166,-2.7816262593716297,0.12599482697932515
13.92101056,-3.2635372986641604,-2.6194276950988984,0.26534693504202816
13.92580009,-3.1524925184147676,-2.4444579079019255,0.40308866703802604
13.93057634,-3.024745404754151,-2.2573606574457425,0.538349948751492
13.93535264,-2.8815140097559753,-2.058848671342043,0.67033793755073
13.94012889,-2.7241767381465505,-1.8497009286671813,0.7983440979792349
13.94490514,-2.5542578954545565,-1.630759393943301,0.9217493617679948
13.94966806,-2.373410845471083,-1.4029251754417054,1.040027419881794
13.95445764,-2.183399039064881,-1.167154096498707,1.1527462377755058
13.95923389,-1.986075224650055,-0.9244516848581882,1.259567918496314
13.96399681,-1.7833591882071664,-0.6758676018686024,1.3602470608747472
13.96878639,-1.5772143959189466,-0.4224895499475082,1.4546277718191059
13.97356264,-1.3696239245414759,-0.16543671269722543,1.5426394934869572
13.97832556,-1.1625660645053129,0.09414720292047973,1.6242917996082562
13.98311514,-0.9579899703618165,0.35510123939077515,1.6996683030010677
13.98789139,-0.7577917146978644,0.6162546820607389,1.7689198011830765
13.99265431,-0.5637910771527733,0.8764346700789785,1.8322567715561784
13.99744389,-0.3777093720378625,1.1344738161015693,1.889941313956533
14.00222014,-0.20114858881309844,1.3892177236148824,1.9422786277831778
14.00698311,-0.035572091329756306,1.639532291934297,1.9896081042394325
14.01177264,0.1177129048120181,1.8843107040257714,2.0322941116716624
14.01654889,0.25757088234741,2.1224800012036553,2.070716553237923
14.02131186,0.38305142928080865,2.3530071609191388,2.1052612805103426
14.02610139,0.4934003555039301,2.574904608356566,2.136310453352919
14.03087764,0.5880683953828851,2.7872351084447717,2.1642329447500925
14.03564061,0.6667173962691225,2.9891160013900575,2.189374898377596
14.04043014,0.7292239167853598,3.179722761401442,2.212050555772433
14.04520639,0.7756801828684212,3.358291874540449,2.232533478176955
14.04996936,0.8063923741556682,3.5241230472899816,2.25104829478961
14.05475894,0.8218762388902418,3.6765807721844777,2.2677631136408123
14.05953519,0.8228500626080659,3.8150952903557918,2.2827827331113375
14.06429811,0.8102250446832608,3.939163002880437,2.296142790835867
14.06908769,0.7850931672837906,4.048346393202804,2.307804982209261
14.07386394,0.7487126731948818,4.14227353148385,2.317653472980978
14.07864019,0.7024913018622453,4.220637238228089,2.325492619623287
14.08341644,0.6479674661350279,4.283193988662113,2.3310460973940246
14.08819269,0.5867895845538189,4.329762640797248,2.3339575193315496
14.09296894,0.52069381460745,4.3602230687271515,2.3337926098921185
14.09774519,0.4514804602938979,4.374514778432212,2.3300429747588858
14.10252144,0.3809893518780532,4.372635576269098,2.3221314838500366
14.10729769,0.3110745164083714,4.354640350657741,2.309419258165953
14.11207394,0.243578473902529,4.320640015648174,2.291214223318432
14.11685019,0.1803065057676112,4.2708006516009815,2.2667811638524307
14.12162644,0.12300124864855233,4.205342863757875,2.2353531832564113
14.12640269,0.07331796821303076,4.124541364598485,2.196144445314202
14.13117894,0.032800863174859925,4.028724771066412,2.1483640436684084
14.13595519,0.0028607400151250536,3.918275593389453,2.0912308186796515
14.14073144,-0.01524561663856814,3.7936303786477588,2.023988914445078
14.14550769,-0.020434074056412597,3.6552799597809633,1.9459238447742055
