Time (s),Acceleration x (m/s^2),Acceleration y (m/s^2),Acceleration z (m/s^2)
9.003262251,1.1298025918253018,0.9728581549586409,0.26280427133320317
9.008017146,1.2573274358342952,1.8307781628656437,0.01148967145118478
9.012772042,1.3912063232360485,2.6894034644036138,-0.2405194172988288
9.017526938,1.5307058067695487,3.5456509054898295,-0.4919933537697695
9.022281886,1.675011759863396,4.396443049716595,-0.7417077073673966
9.027036782,1.8232322211533158,5.238726686430707,-0.9884525680553319
9.031791678,1.9744008984524306,6.069491013325371,-1.231041638886697
9.036546626,2.12748132521939,6.885785334181206,-1.4683210130425322
9.041301521,2.2813716600582246,7.684736120080854,-1.6991775427121527
9.046056417,2.434910117706236,8.463563292272047,-1.9225467147048492
9.050811313,2.5868810181279907,9.219595596737841,-2.137419957266901
9.055566261,2.736021438419336,9.950284954239736,-2.3428513138074427
9.060321157,2.8810284499106924,10.653219684844258,-2.5379634316021447
9.065076053,3.0205669199071767,11.32613652234604,-2.721952826415393
9.069831001,3.153277853805602,11.966931351068617,-2.89409439663007
9.074585896,3.2777872488915465,12.573668614706776,-3.0537451722226607
9.079340792,3.3927154260259034,13.144589363681936,-3.2003472943733837
9.084095688,3.4966867997861044,13.678117923574327,-3.3334302306547015
9.088850636,3.588340041523846,14.172867182367881,-3.4526122388866223
9.093605532,3.6663385833141353,14.627642508358068,-3.557601100222248
9.098360428,3.729381403986193,15.041444323514282,-3.648194149018737
9.103115323,3.776214031459551,15.413469368746856,-3.724277633530061
9.107870271,3.8056396886004804,15.743110707797857,-3.785825447231049
9.112625167,3.816530502925249,16.029956525270208,-3.8328972753764226
9.117380063,3.807838693869927,16.27378778159987,-3.8656362049924913
9.122134959,3.778607645170858,16.47457479359416,-3.88426584881527
9.126889907,3.7279827642951906,16.632472813588436,-3.8890870347971678
9.131644803,3.655222025964478,16.74781668341725,-3.880474112849312
9.136399698,3.559706092757922,16.821114641364872,-3.8588709296090764
9.141154594,3.4409479026824545,16.85304136117613,-3.8247865203343405
9.145909542,3.29860161155569,16.844430302211304,-3.778790564623262
9.150664438,3.1324707771565796,16.796265449064325,-3.7215086496302696
9.155419334,2.9425156724511585,16.709672517560012,-3.6536173808732477
9.160174282,2.72885961690018,16.58590970210312,-3.575839376678627
9.164929178,2.4917942180076453,16.42635803694723,-3.4889381778957036
9.169684073,2.2317834199699873,16.232511441161318,-3.3937130998836422
9.174438969,1.9494662626139376,16.005966513976954,-3.2909940491190315
9.179193917,1.645658261830719,15.748412143884885,-3.1816363222673236
9.183948813,1.3213513324653665,15.461618991394252,-3.0665154013608324
9.188703709,0.9777121861017725,15.147428901841492,-2.946521754955868
9.193458605,0.6160791493522028,14.80774430110211,-2.8225556519086235
9.198213553,0.23795736304319182,14.444517623580825,-2.6955219918037763
9.202968448,-0.15498766099942726,14.059740818502055,-2.5663251541692103
9.207723344,-0.5609381311357178,13.65543497737227,-2.435863867482955
9.212478292,-0.9779337016436874,13.23364012263045,-2.3050260986782223
9.217233188,-1.4038827995247949,12.796405195032076,-2.1746839644086498
9.221988084,-1.836575498062949,12.345778275288392,-2.0456886667531218
9.22674298,-2.273697861472426,11.883797073930591,-1.918865458310928
9.231497928,-2.712847663457468,11.412479722282779,-1.795008644761225
9.236252823,-3.1515513612005615,10.933815896778096,-1.6748766369537897
9.241007719,-3.587282185629308,10.449758308583398,-1.5591870695269026
9.245762615,-4.017479189253077,9.962214590525761,-1.4486120090512868
9.250517563,-4.439567074869877,9.473039613533329,-1.3437732819557684
9.255272459,-4.8509766124208795,8.9840282650968,-1.2452379610959778
9.260027355,-5.249165437523809,8.496908722509632,-1.1535140596224687
9.264782303,-5.631639013963913,8.013336253752113,-1.069046491268739
9.269537198,-5.9959715338494055,7.5348875787603555,-0.9922133664397899
9.274292094,-6.339826523531299,7.063055823383061,-0.9233227023773801
9.27904699,-6.660976921181478,6.599246097469321,-0.8626096318229526
9.283801886,-6.957324393545837,6.144771727100441,-0.8102341964738392
9.288556834,-7.2269176650193225,5.700851168783024,-0.7662798077221293
9.29331173,-7.467969641702013,5.268605630192313,-0.7307524468423979
9.298066626,-7.678873126234095,4.8490574174102266,-0.7035806601948593
9.302821521,-7.85821493577359,4.443129022057412,-0.6846163835935098
9.307576469,-8.004788255333702,4.05164295281754,-0.6736366060484608
9.312331365,-8.1176030815817,3.675322304360182,-0.6703458591209537
9.317086261,-8.195894637632554,3.3147920427510558,-0.6743794962868943
9.321841157,-8.239129666736686,2.970580970775159,-0.6853077084870914
9.326596105,-8.24701054150657,2.6431243203745676,-0.7026402081227039
9.331351001,-8.219477154974117,2.3327669040949703,-0.7258315040093669
9.336105896,-8.156706589804141,2.0397667444221894,-0.7542866836018416
9.340860792,-8.05911059178092,1.7642990901061575,-0.787367615441212
9.34561574,-7.927330902525608,1.5064607224245856,-0.8243994837547951
9.350370636,-7.762232533584765,1.2662744518786868,-0.864677568082549
9.355125532,-7.564895088945058,1.043693706915911,-0.9074741832823393
9.359880428,-7.3366022652442355,0.838607120738481,-0.9520456987614742
9.364635376,-7.078829678214506,0.6508430298181299,-0.997639559817374
9.369390271,-6.793231180082293,0.4801738080786245,-1.0435012382138973
9.374145167,-6.4816238456833,0.32631997347039315,-1.0888810433757934
9.378900063,-6.145971814884345,0.18895401846142532,-1.1330407297553367
9.383655011,-5.788369185499311,0.06770393239713705,-1.1752598400244403
9.388409907,-5.411022154219372,-0.03784359874201601,-1.2148417279501686
9.393164803,-5.016230603135741,-0.12814031161838454,-1.2511192095294392
9.397919698,-4.606369326251724,-0.20367378280568654,-1.2834597967893322
9.402674646,-4.183869084105143,-0.26496510739996704,-1.3112704761161398
9.407429542,-3.751197665626799,-0.3125667899161281,-1.3340020020491221
9.412184438,-3.3108411253624412,-0.3470607901607216,-1.3511526874047388
9.416939334,-2.8652853521979833,-0.3690566630619209,-1.3622716801388683
9.421694282,-2.4169981137949708,-0.3791897320922119,-1.3669617253441213
9.426449178,-1.9684117097750469,-0.3781192403425548,-1.364881416570042
9.431204073,-1.5219063564017656,-0.36652643068593144,-1.3557469442338237
9.435958969,-1.079794415627348,-0.3451125159680657,-1.3393333508063257
9.440713917,-0.6443055711529263,-0.3145965110099085,-1.315475303677814
9.445468813,-0.21757304298156202,-0.27571290962182055,-1.284067398264267
9.450223709,0.198379080336927,-0.22920920095944064,-1.2450640069029422
9.454978605,0.601647325602591,-0.17584322954709136,-1.1984786935931906
9.459733553,0.9904590819546842,-0.1163804114991828,-1.1443832199218895
9.464488448,1.3631815705049715,-0.05159082556141988,-1.0829061722101723
9.469243344,1.7183295079965937,0.017753798393994706,-1.0142312428173381
9.47399824,2.054571447049458,0.09088316855119014,-0.9385951992433025
9.478753136,2.370734786341737,0.1670315722690485,-0.8562855736292885
9.483508084,2.6658094546205886,0.24544104346955653,-0.7676381032415306
9.48826298,2.938950282673721,0.325364531319842,-0.6730339501566941
9.493017876,3.1894780871421,0.40606904625520934,-0.5728967259999977
9.497772771,3.416879499137362,0.486838760509322,-0.4676893453804037
9.502527719,3.620805578952142,0.5669780413456699,-0.3579107296858816
9.507282615,3.801069265690893,0.6458143960231589,-0.2440923811691328
9.512037511,3.957641717399136,0.7227013081786186,-0.12679484578636863
9.516792407,4.0906476032335215,0.7970209458376123,-0.00660408205226188
9.521547355,4.200359414406407,0.8681867217616416,0.11587224778342786
9.526302251,4.287190865081691,0.9356456873959021,0.24000854869388352
9.531057146,4.351689458132866,0.998880742389062,0.36516511103133853
9.535812042,4.394528293751899,1.0574126426023471,0.49069196142790783
9.540566938,4.416497201370708,1.110801790781136,0.6159327323734379
9.545321886,4.418493277267567,1.1586497956785025,0.7402285367058026
9.550076782,4.401510911610313,1.2006007874287408,0.8629218334658479
9.554831678,4.366631389560016,1.236342479387172,0.9833602716875468
9.559586573,4.315012151434219,1.2656069694749337,1.1009004987121085
9.564341521,4.247875796812752,1.2881712772480447,1.2149119195472406
9.569096417,4.166498916872103,1.3038576163548314,1.3247803936620273
9.573851313,4.072200838175531,1.3125334056247853,1.429911855433559
9.578606209,3.9663323596445528,1.3141110255971362,1.529735844252542
9.583361105,3.850264562506043,1.3085473306939377,1.6237089300514846
9.588116053,3.725377770659231,1.2958429303158407,1.7113180197438314
9.592870948,3.5930507361525916,1.2760412547448277,1.7920835297711346
9.597625844,3.4546501213155185,1.249227423753212,1.8655624096696053
9.60238074,3.311520345555727,1.2155269371474617,1.931351001304033
9.607135688,3.164973860895336,1.1751042070598319,1.9890877181853588
9.611890584,3.0162819159542957,1.1281609516185278,2.0384555290865776
9.61664548,2.86666586329108,1.0749344686882665,2.0791842299849126
9.621400376,2.7172890597977437,1.0156958067155408,2.1110524881682773
9.626155271,2.5692494042747214,0.9507478474090388,2.1338896421521145
9.630910219,2.4235725504737458,0.8804233121561509,2.1475772408916294
9.635665115,2.2812058279192864,0.8050827008946346,2.152050305701619
9.640420011,2.143012896832525,0.7251121688351286,2.147298298373066
9.645174907,2.0097691576089978,0.640921343188378,2.1333657792501413
9.649929803,1.8821579296526323,0.5529410791044868,2.110352739533634
9.654684751,1.7607674090406904,0.4616211515687456,2.0784145928275177
9.659439646,1.6460884095368054,0.3674278781678924,2.0377618119603724
9.664194542,1.538512886859812,0.2708416665378506,1.9886591984136741
9.668949438,1.4383332417783183,0.17235447996487313,1.9314247733242966
9.673704386,1.3457423934694446,0.07246721500735619,1.8664282810920592
9.678459282,1.2608346106434758,-0.02831301395458184,1.794089299228932
9.683214178,1.1836070842232818,-0.129475686774708,1.7148749513143182
9.687969073,1.1139622219023777,-0.23050978777297051,1.6292972237633918
9.692723969,1.0517106416706132,-0.3309068134396507,1.537909891479484
9.697478917,0.9965748383262577,-0.4301638743714416,1.4413050622309684
9.702233813,0.9481934940052752,-0.5277868854499932,1.340109354680736
9.706988709,0.9061264007943461,-0.6232938353620747,1.2349797303240588
9.711743605,0.8698599605335545,-0.716218123558017,1.126599005041801
9.716498553,0.8388132239573034,-0.8061119497337014,1.015671071388104
9.721253448,0.8123444283594556,-0.8925497379758681,0.9029158679322589
9.726008344,0.7897579899767163,-0.9751315748834649,0.7890641368162777
9.73076324,0.7703119042427053,-1.053486638300068,0.6748520150632695
9.735518136,0.7532255039808,-1.1272765907860962,0.561015509005119
9.740273032,0.7376875225144296,-1.1961989096488286,0.44828490445389885
9.74502798,0.7228644056372542,-1.2599901232592567,0.33737916790802563
9.749782876,0.7079088134698931,-1.3184289215403733,0.22900039615691098
9.754537771,0.6919682505025306,-1.371339106933845,0.12382837311639006
9.759292667,0.674193759644679,-1.4185923508732527,0.022515293581790316
9.764047563,0.6537486139230274,-1.4601107198613772,-0.07431928616251413
9.768802511,0.6298169376237498,-1.4958689347298146,-0.16609321124957876
9.773557407,0.6016121872052429,-1.5258963266196481,-0.2522661458569207
9.778312303,0.5683854212652489,-1.550278453727623,-0.33234358811339626
9.783067198,0.5294332883303273,-1.5691583439862957,-0.4058804268400255
9.787822094,0.4841056614279296,-1.5827373306992665,-0.4724839876682942
9.792577042,0.43181284955966465,-1.5912754508916855,-0.5318165208133675
9.797331938,0.3720323185304359,-1.5950913798861506,-0.5835970904142572
9.802086834,0.30431485715919154,-1.594561880301742,-0.6276028370320088
9.80684173,0.22829012965863393,-1.5901207489378892,-0.6636696008632386
9.811596626,0.14367156083009539,-1.5822572503254742,-0.6916919120133803
9.816351573,0.05026050743344184,-1.5715140306941389,-0.7116223728049264
9.821106469,-0.05205032375589084,-1.5584845105660399,-0.7234704725476582
9.825861365,-0.1632742435057339,-1.5438097581705394,-0.7273008859860981
9.830616261,-0.28332875863178714,-1.5281748494307645,-0.7232313131116663
9.835371157,-0.4120345800971436,-1.5123047234291627,-0.7114299214111265
9.840126105,-0.5491154729083939,-1.4969595450880995,-0.6921124530265566
9.844881001,-0.6941989536331284,-1.4829295894658185,-0.6655390593721571
9.849635896,-0.8468178348908504,-1.4710296647847154,-0.632010924791758
9.854390792,-1.0064126095208898,-1.4620930942889225,-0.5918667389917006
9.859145688,-1.1723346603132927,-1.4569652804418438,-0.5454790753415926
9.863900636,-1.3438502742319052,-1.4564968789269392,-0.4932507287814948
9.868655532,-1.5201454329785271,-1.4615366144203779,-0.43561106307136344
9.873410428,-1.7003313445638113,-1.472923775082,-0.37301241250112205
9.878165323,-1.8834506733247107,-1.4914804280205223,-0.30592657796433054
9.882920219,-2.068484418657262,-1.518003403463663,-0.23484145151871003
9.887675167,-2.254359385720766,-1.5532561008300518,-0.160257797287748
9.892430063,-2.439956184604805,-1.5979601751924173,-0.08268620991077152
9.897184959,-2.624117688024039,-1.6527871676044843,-0.0026442648652919096
9.901939855,-2.8056578716395206,-1.718350147344923,0.0793461319488603
9.906694751,-2.9833709557703614,-1.7951954382656912,0.162761194718776
9.911449646,-3.1560407627567657,-1.8837945051147076,0.2470775139665198
9.916204594,-3.322450200756193,-1.9845360789510555,0.3317741297722691
9.92095949,-3.4813907824547536,-2.097718603596957,0.41633443789974106
9.925714386,-3.631672086167406,-2.223543087458917,0.5002479484035512
9.930469282,-3.7721310671408643,-2.3621064469478763,0.5830119188600928
9.935224178,-3.9016411285532526,-2.5133954290454517,0.6641328858792619
9.939979073,-4.019120864646479,-2.6772812011760587,0.7431281191431447
9.944734021,-4.123542392505873,-2.85351469629878,0.8195270220373471
9.949488917,-4.213939194087933,-3.041722799861734,0.8928725021505097
9.954243813,-4.289413396100301,-3.2414054628138076,0.9627223336403383
9.958998709,-4.349142422217489,-3.4519338211324917,1.0286505317518966
9.963753605,-4.392384959865998,-3.6725493972431282,1.090248757598388
9.968508501,-4.418486192444374,-3.9023644522597833,1.1471277685939822
9.973263448,-4.426882257365114,-4.140363550177308,1.1989189265690994
9.978018344,-4.417103900689853,-4.385406385986323,1.2452757715425786
9.98277324,-4.388779310281434,-4.636231919143575,1.2858756643840117
9.987528136,-4.341636121118284,-4.891463841867523,1.3204214962627456
9.992283032,-4.275502598392106,-5.149617398300851,1.3486434570041896
9.99703798,-4.19030801582581,-5.409107555663907,1.3703008484938746
10.00179288,-4.086082257844815,-5.668258512133798,1.385183923430639
10.00654777,-3.962954684363363,-5.92531450841978,1.3931157244628896
10.01130267,-3.821152305641234,-6.1784518910760555,1.3939538944410594
10.01605756,-3.660997321705354,-6.425792355828668,1.3875924254163834
10.02081246,-3.4829040861560348,-6.665417279018074,1.3739633121389432
10.02556741,-3.287375557843563,-6.89538302514009,1.3530380750290556
10.0303223,-3.0749993060228604,-7.113737098865958,1.3248291177213978
10.0350772,-2.8464431353275117,-7.318534991271877,1.2893908851362017
10.03983209,-2.602450396440033,-7.507857552736637,1.2468207894972156
10.04458699,-2.343835046875596,-7.679828709520001,1.197259873708132
10.04934189,-2.071476524023506,-7.832633327886467,1.140893183952582
10.05409683,-1.786314489655763,-7.964535019257537,1.0779498262751355
10.05885173,-1.4893435016532015,-8.073893672667964,1.0087026852707572
10.06360663,-1.1816076648652127,-8.159182497053669,0.9334677869093394
10.06836152,-0.864195308973552,-8.219004355761564,0.8526032919258929
10.07311642,-0.5382337371288528,-8.252107179225703,0.7665081109758823
10.07787131,-0.20488408506304348,-8.257398249103375,0.6756201376808579
10.08262626,0.13466367365732118,-8.233957158462188,0.5804141005737297
10.08738116,0.4791955446936483,-8.181047267996618,0.48139903965381625
10.09213605,0.8274781251479135,-8.098125497755179,0.3791154177136421
10.09689095,1.1782629885459346,-7.984850317282653,0.27413188083841655
10.10164584,1.5302908254472,-7.841087823943987,0.16704168666376257
10.10640074,1.8822953281011536,-7.666915828743128,0.058458823370011424
10.11115569,2.233006813248408,-7.4626259002440785,-0.050986152716962725
10.11591058,2.581155582776004,-7.22872334921685,-0.16065052746188468
10.12066548,2.925475027397895,-6.965925168319599,-0.26988404747682254
10.12542038,3.2647044838359114,-6.675155971489085,-0.3780337005253938
10.13017527,3.5975918611223845,-6.3575420058731185,-0.4844486048137348
10.13493017,3.922896056642596,-6.014403334400009,-0.5884849482921475
10.13968512,4.239389187470855,-5.647244308901373,-0.6895109146107604
10.14444001,4.545858667618952,-5.25774247170893,-0.7869115301832392
10.14919491,4.8411091671707736,-4.8477360376560465,-0.8800933675813122
10.1539498,5.123964494840856,-4.419210118461786,-0.9684890443958385
10.1587047,5.393269450871227,-3.97428185772993,-1.0515614634369481
10.16345959,5.647891701797546,-3.5151846474848263,-1.1288077490369246
10.16821454,5.886723731920645,-3.0442515965884,-1.199762844348551
10.17296944,6.108684927890231,-2.563898418020926,-1.2640027448116928
10.17772433,6.312723852388156,-2.0766058965801104,-1.3211473523664456
10.18247923,6.497820760429655,-1.5849020918774233,-1.370862942868576
10.18723413,6.662990407413116,-1.091344424275892,-1.4128642453500118
10.19198902,6.807285191986069,-0.598501784037001,-1.4469161364671828
10.19674392,6.929798669316808,-0.10893679658799427,-1.4728349570713086
10.20149887,7.02966946169243,0.3748116305065512,-1.4904894607238088
10.20625376,7.10608558369177,0.8502453606313427,-1.4998014064813114
10.21100866,7.158289188662796,1.3149235704341093,-1.5007458105286506
10.21576355,7.18558173201184,1.7664786780023647,-1.4933508732075353
10.22051845,7.187329535047064,2.202631561022505,-1.477697599523506
10.22527334,7.162969721010669,2.6212059764793763,-1.453919132148309
10.23002824,7.1120164827128916,3.0201421008080476,-1.4221998161720242
10.23478314,7.034067629083969,3.397509116678885,-1.3827740143988243
10.23953808,6.9288113462200975,3.7515167798198346,-1.3359246908893836
10.24429298,6.7960330973329315,4.0805259065078765,-1.2819817788369938
10.24904788,6.635622575616553,4.383057729639998,-1.2213203468515694
10.25380277,6.447580614599612,4.657802078654407,-1.1543585754394006
10.25855767,6.232025952216973,4.903624346032368,-1.0815555529981227
10.26331256,5.989201737765035,5.119571210668075,-1.0034088980631146
10.26806751,5.71948166523505,5.304875096025121,-0.9204522119192802
10.27282241,5.42337561237322,5.458957348666889,-0.8332523631361579
10.2775773,5.101534662312977,5.581430130415347,-0.7424066032233888
10.2823322,4.754755383884931,5.672097025020707,-0.6485395105681414
10.28708709,4.383983247861532,5.730952367777095,-0.5522997582158984
10.29184199,3.990315059565308,5.758179313966321,-0.45435669997309874
10.29659689,3.5750002935764105,5.754146669330929,-0.35539676881176063
10.30135178,3.1394412237897797,5.719404512953225,-0.25611968170525823
10.30610668,2.6851917518004753,5.654678649936552,-0.15723444586494315
10.31086163,2.213954848489845,5.560863938146904,-0.059455162891220645
10.31561652,1.7275785376840365,5.439016539995236,0.03650337039689156
10.32037142,1.2280503667967946,5.290345156855618,0.12993026270787625
10.32512631,0.7174903273524196,5.116201310241597,0.22012332510192462
10.32988121,0.19814220804111518,4.918068740285561,0.3063940538522263
10.33463611,-0.3276366157663529,4.697551998323984,0.3880727839724999
10.339391,-0.8573869296473882,4.456364316405069,0.4645139919439701
10.34414595,-1.3885609152114058,4.1963148422335,0.5351017193327997
10.34890084,-1.918536799264275,3.9192953334083063,0.5992550814157706
10.35365574,-2.4446348200752563,3.62726640977757,0.6564338166596874
10.35841064,-2.964134390761414,3.322243467308976,0.7061438240249118
10.36316553,-3.474292317906171,3.0062823610066505,0.747942625786118
10.36792043,-3.97236191320896,2.681464967997899,0.7814446841741216
10.37267532,-4.455612817626066,2.3498847448436124,0.8063264909635407
10.37743022,-4.9213513414439225,2.0136323952673765,0.8223313405205452
10.38218517,-5.366941110317222,1.6747817657583393,0.8292736893451227
10.38694006,-5.789823796810712,1.3353760868420477,0.8270429997874906
10.39169496,-6.18753970976521,0.9974146772187594,0.8156069638266354
10.39644986,-6.557748010225661,0.6628402263795522,0.7950140061025922
10.40120475,-6.898246322935002,0.3335267685285624,0.765394974863104
10.40595965,-7.206989516468692,0.011268456269363897,0.7269639452285417
10.41071454,-7.482107432727317,-0.3022307640200908,0.6800180801161255
10.41546944,-7.721921357461829,-0.6053664825316819,0.6249365182329009
10.42022439,-7.924959037562056,-0.8966420821375309,0.5621782833031412
10.42497928,-8.08996806775496,-1.1746758564459614,0.49227923196670725
10.42973418,-8.215927488846216,-1.4382069453103346,0.4158480780456268
10.43448907,-8.302057461432874,-1.6861000649581745,0.33356154736308724
10.43924397,-8.347826902917092,-1.917349032520408,0.24615872997906618
10.44399887,-8.352959001428792,-2.131079106660323,0.15443470608573
10.44875376,-8.317434547497083,-2.3265481857458,0.05923352857820715
10.45350866,-8.241493052332723,-2.5031469216240456,-0.03855934995150235
10.45826355,-8.12563164958162,-2.6603978201759477,-0.13802511501732553
10.46301845,-7.970601804556669,-2.797953409431897,-0.2382200005125967
10.4677734,-7.777403880531162,-2.9155935622218325,-0.3381839788579663
10.47252829,-7.547279635157067,-3.0132220632361846,-0.4369496391793505
10.47728319,-7.2817027411856765,-3.090862510165628,-0.5335511631579083
10.48203808,-6.982367444386123,-3.1486536355144175,-0.6270333101083683
10.48679298,-6.651175487996093,-3.1868441300655523,-0.7164603248977169
10.49154788,-6.290221447360711,-3.2057870412054883,-0.800924684329055
10.49630277,-5.901776630751436,-3.205933809890829,-0.8795555995965553
10.50105767,-5.488271712754541,-3.1878279996740235,-0.9515271946175211
10.50581256,-5.052278275005839,-3.1520987609122546,-1.0160662828723792
10.51056751,-4.596489435264209,-3.099454064273257,-1.072459669142279
10.51532241,-4.1236997497446595,-3.0306737310116865,-1.120060907162138
10.5200773,-3.636784575337705,-2.946602283851185,-1.158296449234558
10.5248322,-3.1386790780685003,-2.8481416417315,-1.1866711286965648
10.52958709,-2.632357072164357,-2.736243683788735,-1.204772920499526
10.53434199,-2.120809870546779,-2.611902712129203,-1.2122769292823306
10.53909689,-1.6070253224195794,-2.4761478485670843,-1.2089485589887679
10.54385178,-1.0939672067430535,-2.330035406862707,-1.1946458245546119
10.54860668,-0.5845551416186713,-2.174641288496617,-1.1693207758233353
10.55336157,-0.08164515899110314,-2.011053456055908,-1.1330200174121086
10.55811652,0.4119889180408036,-1.8403645432970095,-1.0858843251427728
10.56287142,0.893673170994223,-1.6636646642516255,-1.028147377698968
10.56762631,1.3608502437348584,-1.4820344847884876,-0.9601336384389005
10.57238121,1.811094864036798,-1.2965386185100705,-0.8822554345317102
10.57713611,2.2421281435069305,-1.1082194048035954,-0.7950092882356435
10.581891,2.651830582821611,-0.9180911206828523,-0.6989715591937413
10.5866459,3.0382537213861713,-0.7271346703448038,-0.5947934586019001
10.59140079,3.3996303823914036,-0.5362927876998856,-0.48319549708256837
10.59615569,3.734383475770567,-0.3464657779539287,-0.3649614285016512
10.60091058,4.041133332760009,-0.1585078149313342,-0.24093175189730104
10.60566553,4.318703556616571,0.026776198511605516,-0.11199683323623899
10.61042043,4.566125384467069,0.20863320868823063,0.020910291972806555
10.61517532,4.7826405651608725,0.3863640381495555,0.1568213749477671
10.61993022,4.967702767300425,0.5593248797097091,0.29474060929563883
10.62468512,5.120977540315181,0.7269282824597061,0.4336524273704323
10.62944001,5.2423408595241865,0.8886436606552633,0.5725293794997225
10.63419491,5.331876293613174,1.0439973609686786,0.7103400392457769
10.6389498,5.389870839860463,1.1925723268270234,0.846056878976292
10.6437047,5.416809478834901,1.334007400356675,0.9786640612351334
10.64845959,5.413368506234417,1.4679963028165475,1.1071650927601684
10.65321449,5.3804077051220585,1.5942863333866024,1.2305902895812533
10.65796939,5.318961427127994,1.7126768239062191,1.3480040035557042
10.66272433,5.2302286562724225,1.8230173838356418,1.4585115630379533
10.66747923,5.11556213392208,1.92520596565685,1.5612658831309971
10.67223413,4.976456627948103,2.019186776561491,1.655473704039748
10.67698902,4.814536433274083,2.1049480580837234,1.7404014193157673
10.68174392,4.631542194542179,2.1825197517810966,1.8153804591572225
10.68649881,4.429317144467132,2.2519710664526165,1.8798121973702404
10.69125371,4.209792853546622,2.313407960814174,1.9331723540962176
10.69600861,3.9749745881790015,2.366970554964477,1.975014869945048
10.7007635,3.726926374981588,2.412830484204167,2.004975230712638
10.7055184,3.467755869292005,2.4511882095966806,2.022773225357001
10.71027329,3.1995991255455962,2.482270300838281,2.0282151233122856
10.71502819,2.9246053665085965,2.50632670830263,2.021195260497193
10.71978308,2.6449218472472866,2.5236280423450133,2.001697026506648
10.72453803,2.3626789082490967,2.534462878940101,1.9697932484639795
10.72929293,2.0799753102866956,2.539135111368498,1.9256459698645418
10.73404782,1.7988639414225216,2.5379613678765107,1.8695056254722968
10.73880272,1.5213379839753867,2.531268514958155,1.8017096159548105
10.74355762,1.2493176262955255,2.5193912651259174,1.7226802884897978
10.74831251,0.9846374008009785,2.5026699067467955,1.6329223320931658
10.75306741,0.7290342259044873,2.481448171740386,1.5330195989542152
10.7578223,0.4841362252076447,2.4560712547022225,1.4236313656615545
10.7625772,0.25145239266928676,2.426883994382627,1.3054880508926543
10.76733209,0.03236316738240843,2.3942292254916357,1.1793864089256763
10.77208699,-0.17188802386436347,2.3584463056048253,1.046184221193366
10.77684189,-0.360202203880711,2.319869818619311,0.9067945110125349
10.78159678,-0.5316312159929296,2.2788284528698153,0.7621793095935224
10.78635168,-0.6853829887404037,2.2356440487766602,0.613343004497539
10.79110657,-0.8208256610905673,2.19063080785997,0.4613253049101757
10.79586147,-0.9374905416635865,2.1440946521875146,0.30719386146809413
10.80061642,-1.0350738823580194,2.096332720867802,0.15203658193323155
10.80537131,-1.1134374538183291,2.047632988074696,-0.003046312214912201
10.81012621,-1.1726079173855377,1.9982739853053335,-0.15695043916334303
10.81488111,-1.2127749955124851,1.9485246091378607,-0.30857556672342373
10.819636,-1.2342884500859512,1.8986439946735083,-0.45683402097200027
10.8243909,-1.237653885671141,1.8488814341134852,-0.6006591311306226
10.82914579,-1.2235274023976677,1.7994763195295662,-0.7390136437594085
10.83390069,-1.1927091310803928,1.750658088848512,-0.8708980351015918
10.83865558,-1.1461356912477754,1.7026461544020302,-0.9953586465856074
10.84341048,-1.0848716210215938,1.6556497940927084,-1.1114955652266203
10.84816538,-1.0100998361700313,1.60986798626759,-1.2184701680895529
10.85292027,-0.9231111839986627,1.5654891707627268,-1.3155122481901864
10.85767517,-0.825293165885797,1.52269092030385,-1.4019266383199485
10.86243006,-0.7181179100510192,1.4816395085518657,-1.4770992493530244
10.86718496,-0.6031294834259813,1.4424893635769567,-1.5405024406826204
10.87193991,-0.48193063811643727,1.4053823983874172,-1.5916996426646173
10.8766948,-0.3561690936561943,1.3704472131905263,-1.6303491547340145
10.8814497,-0.22752346071862717,1.3377981670767358,-1.6562070491406435
10.88620459,-0.09768891494060095,1.307534319543279,-1.6691291204396954
10.89095949,0.0316372688703129,1.2797382446605525,-1.6690718362010755
10.89571439,0.1587702112810934,1.2544747230083997,-1.656092264851911
10.90046928,0.2820518407635064,1.2317893192206448,-1.6303469801838892
10.90522418,0.3998651139680877,1.2117068564087872,-1.5920899654562248
10.90997907,0.5106479342069071,1.1942298029360061,-1.5416695600310826
10.91473397,0.6129066593831942,1.1793365917830436,-1.4795245066308087
10.91948886,0.7052290916077749,1.1669798977789747,-1.4061791680084814
10.92424376,0.786296842306389,1.1570849029413466,-1.3222379893581733
10.92899866,0.8548969690434403,1.149547584802628,-1.2283792883228986
10.93375355,0.9099327837207297,1.144233066687396,-1.125348458657096
10.93850845,0.9504337362824558,1.1409740723244453,-1.0139506767479414
10.94326334,0.9755642835253271,1.1395695298769244,-0.8950432023732099
10.94801824,0.9846316590006543,1.139783372441673,-0.7695273662359269
10.95277314,0.9770924672352879,1.141343583310527,-0.638340336871261
10.95752803,0.9525580335515095,1.1439415347913762,-0.5024467583758434
10.96228293,0.9107984496216741,1.1472316691056157,-0.3628303480127516
10.96703782,0.8517452645605398,1.1508315687146835,-0.22048553911684038
10.97179272,0.7754927818775149,1.154322461260812,-0.07640925000529396
10.97654762,0.6822979340613552,1.157250201037684,0.06840714592571284
10.98130251,0.5725787190329783,1.159126764495263,0.21298557967727078
10.98605741,0.44691119620708974,1.1594322917455948,0.3563687124105962
10.99081236,0.30602505439720024,1.1576176994231206,0.4976269698463235
10.99556725,0.15079777914935039,1.1531078826377528,0.6358651327784958
11.00032215,-0.017752536911979283,1.1453055152424951,0.7702284358274892
11.00507704,-0.19847568080553324,1.133595448355596,0.899908130960413
11.00983194,-0.39009902680960096,1.1173496971995953,1.0241464768224033
11.01458683,-0.5912383731197987,1.0959329960318347,1.1422411198694342
11.01934173,-0.8004098010459213,1.0687088904303745,1.2535488388692382
11.02409663,-1.0160424369982812,1.0350463256646067,1.3574886305907117
11.02885152,-1.2364919859579395,0.9943266795482109,1.4535441213799973
11.03360642,-1.4600548954796506,0.9459511782948297,1.5412652967459337
11.03836131,-1.6849830016739862,0.8893486247239624,1.6202695489977867
11.04311621,-1.909498503085824,0.8239833599133353,1.6902420513600147
11.0478711,-2.1318091048717234,0.7493633722212818,1.7509354757752011
11.052626,-2.3501231740822415,0.6650484615896305,1.8021690806788244
11.0573809,-2.5626647471153547,0.5706583621928262,1.8438272041723296
11.06213579,-2.7676882325650545,0.4658807227777295,1.8758572068813342
11.06689069,-2.9634926569241755,0.35047884136532476,1.8982669168451907
11.07164558,-3.1484353072111793,0.2242990492749563,1.9111216353942517
11.07640048,-3.320944633896637,0.08727763861639597,1.9145407675356196
11.08115538,-3.4795322896706575,-0.060552772541331894,1.9086941426324722
11.08591027,-3.6228041944613323,-0.21905754212237075,1.8937980913725987
11.09066517,-3.7494705341772394,-0.3879950758765104,1.8701113437566004
11.09542006,-3.858354619146283,-0.5670127685823683,1.8379308106510295
11.10017496,-3.9484005473033275,-0.7556439093793861,1.7975873086594483
11.10492986,-4.018679636035196,-0.9533056395578927,1.749441284754237
11.10968475,-4.068395604601451,-1.1592980428630135,1.6938785932756666
11.11443965,-4.096888505848428,-1.3728044382309275,1.631306373536478
11.11919454,-4.103637421395845,-1.592892932963607,1.5621490714069854
11.12394944,-4.088261948620109,-1.8185192807990591,1.4868446429782012
11.12870433,-4.050522520644285,-2.0485310742907563,1.4058409728241006
11.13345923,-3.990319612189993,-2.281673284509591,1.3195925336530412
11.13821413,-3.9076918944991608,-2.516595143475523,1.2285573084103345
11.14296902,-3.8028134114796592,-2.751858346110785,1.1331939903093797
11.14772392,-3.675989856623153,-2.985946529148889,1.033959470921763
11.15247881,-3.527654035957945,-3.2172759646767863,0.9313066213927673
11.15723371,-3.358360606273259,-3.444207386237344,0.825682367084448
11.16198861,-3.168780180114655,-3.6650588461184586,0.7175260514904831
11.1667435,-2.959692889705931,-3.878119484049959,0.6072680811201923
11.1714984,-2.731981501137843,-4.081664070445142,0.4953288392225946
11.17625329,-2.4866241680301657,-4.273968171957435,0.38211785273893234
11.18100819,-2.2246869105939098,-4.4533237738506095,0.26803319377628765
11.18576308,-1.9473159017967452,-4.618055182868783,0.1534610942429361
11.19051798,-1.655729637386097,-4.766535026296385,0.038775750140907346
11.19527288,-1.3512110610629429,-4.897200158044635,-0.0756607095847446
11.20002777,-1.0350997103040809,-5.008567281140126,-0.18949811580888712
11.20478267,-0.7087839423245715,-5.099248098042874,-0.30239804040995927
11.20953756,-0.3736932935190493,-5.167963805730129,-0.4140334930240658
11.21429246,-0.03129101946520406,-5.213558761192224,-0.5240885606679019
11.21904736,0.3169331437062875,-5.235013154468985,-0.6322580175419981
11.22380225,0.6694699619556168,-5.23145454011161,-0.7382469321961412
11.22855715,1.0247974013539136,-5.202168093551783,-0.8417702988609774
11.23331204,1.3813870185833694,-5.146605476002505,-0.942552718909668
11.23806694,1.737710026576967,-5.064392210016673,-1.0403281568532636
11.24282183,2.092243023441456,-4.955333487507011,-1.1348397928005796
11.24757673,2.443473378316457,-4.819418352610955,-1.2258399898666348
11.25233163,2.78990427336972,-4.656822222876525,-1.3130903906494829
11.25708652,3.1300594066180962,-4.467907733387646,-1.3963621517350153
11.26184142,3.4624873655154658,-4.253223909178598,-1.4754363193846574
11.26659631,3.785765686066466,-4.013503691211724,-1.5501043432963721
11.27135121,4.098504616481677,-3.7496598600007944,-1.6201687188551086
11.2761061,4.399350608088201,-3.4627794184014524,-1.685443741956877
11.280861,4.686989559486344,-3.154116510915738,-1.7457563547642352
11.2856159,4.960149843015667,-2.82508397082114,-1.8009470561610819
11.29037079,5.217605145649642,-2.4772435983150856,-1.850870847711681
11.29512569,5.458177159517794,-2.112295282509189,-1.895398184902331
11.29988058,5.680738160188799,-1.7320650874353059,-1.934415904392949
11.30463548,5.88421351329035,-1.3384924272289414,-1.967828100704481
11.30939038,6.067584151575825,-0.933616458410541,-1.9955569297920877
11.31414527,6.229889064816297,-0.5195618178750847,-2.017543321764467
11.31890017,6.370227843674159,-0.09852383411940525,-2.0337475900557016
11.32365506,6.487763315915424,0.3272466632351556,-2.0441499291826
11.32840996,6.581724308972566,0.7554588140048639,-2.048750797531496
11.33316486,6.651408567107861,1.183797360453939,-2.0475711852758622
11.33791975,6.6961858444522315,1.6099383292893772,-2.0406527705113873
11.34267465,6.715501187247963,2.031564653306621,-2.0280579690645073
11.34742954,6.708878409948704,2.4463816273497603,-2.0098698852747927
11.35218444,6.6759237606517345,2.8521320971187647,-1.9861921724537785
11.35693933,6.616329761859695,3.246611283129409,-1.9571488127133478
11.36169423,6.529879202977031,3.6276811458467897,-1.9228838263985448
11.36644913,6.416449251408922,3.9932842017268086,-1.8835609213810403
11.37120402,6.276015639807855,4.34145670369661,-1.8393630919193482
11.37595892,6.108656878070483,4.670341103590822,-1.7904921756688794
11.38071381,5.914558430295407,4.978197718347528,-1.7371683757708376
11.38546871,5.694016789230527,5.263415526458332,-1.6796297528394155
11.39022361,5.4474433738987145,5.524522026340749,-1.6181316892130524
11.3949785,5.1753681701980625,5.760192094017574,-1.5529463251784463
11.3997334,4.878443029421796,5.969255783793903,-1.4843619641572867
11.40448829,4.557444535930915,6.150705022556596,-1.4126824411767862
11.40924319,4.213276352745366,6.303699155903426,-1.3382264464015572
11.41399808,3.8469709527074314,6.42756931253274,-1.2613267931432848
11.41875298,3.459690643223025,6.521821562152774,-1.1823296176428502
11.42350788,3.0527277945036615,6.586138851536227,-1.101593496107991
11.42826277,2.6275041847876284,6.620381713131753,-1.0194884630874481
11.43301767,2.185569381232238,6.624587750650207,-0.9363949143896552
11.43777256,1.7285980820026507,6.598969915994631,-0.8527023775135573
11.44252746,1.2583863534838833,6.543913601501973,-0.768808133003881
11.44728236,0.7768467064873719,6.459972580462755,-0.685115671268613
11.45203725,0.2860019668203046,6.347863837133453,-0.602032971153193
11.45679215,-0.2120220913587665,6.208461334924646,-0.5199705888820279
11.46154704,-0.7150053663978765,6.0427887782048435,-0.4393395487898031
11.46630189,-1.2206433052275605,5.852011429328253,-0.36054903055156656
11.47105683,-1.7265580184070448,5.63742704820319,-0.28400385142578555
11.47581168,-2.230310599587168,5.4004560270692314,-0.21010174645213595
11.48056657,-2.72941459570683,5.142630798209706,-0.13923045472662185
11.48532147,-3.221350554543366,4.865584597115888,-0.07176462593709629
11.49007636,-3.7035815562737224,4.571039668127277,-0.008062568383804326
11.49483126,-4.173569615839483,4.2607950037572575,0.05153713223413112
11.49958616,-4.6287928235901665,3.936713712719975,0.10671908504400979
11.50434105,-5.0667630734097635,3.6007101150395937,0.15719460957039086
11.50909595,-5.485044210835027,3.254736665469587,0.2027052376399274
11.51385084,-5.881270419058718,2.9007708086738666,0.24302613602708364
11.51860574,-6.253164648643272,2.5408018711022855,0.27796937705031105
11.52336064,-6.598556887662813,2.176818095116145,0.3073869791317183
11.52811553,-6.9154020632155095,1.8107939205920032,0.3311736368266419
11.53287043,-7.201797363144358,1.444677617860291,0.3492690607544586
11.53762532,-7.455998768632799,1.0803793732674527,0.36165985289646835
11.54238022,-7.676436594160636,0.7197599246322925,0.36838085229121903
11.54713512,-7.861729840865788,0.36461983804754566,0.3695159001253841
11.55189001,-8.010699182146785,0.01668950946354192,0.36519799063862757
11.55664491,-8.122378415802132,-0.3223800360452158,0.35560879338356643
11.5613998,-8.196024234754764,-0.6510254875913936,0.34097755114100675
11.5661547,-8.23112418830978,-0.967778690130391,0.321579374490492
11.57090959,-8.227402727931581,-1.271273157324264,0.29773296778017055
11.57566449,-8.184825255652624,-1.5602496460048663,0.2697978318950956
11.58041933,-8.10360011919991,-1.8335607992325929,0.23817099707692002
11.58517423,-7.984178525262144,-2.090174879426045,0.203283344447273
11.58992913,-7.827252370338595,-2.3291786245891397,0.1655955780676059
11.59468402,-7.63375001650323,-2.549779268930499,0.1255939105095198
11.59943892,-7.404830066259598,-2.751305774124783,0.08378552427023096
11.60419381,-7.141873215435093,-2.9332093192791584,0.04069386931686919
11.60894871,-6.846472284849114,-3.095063096667312,-0.003146146032663984
11.61370361,-6.520420549754104,-3.2365614569498278,-0.04719301745437272
11.6184585,-6.165698500755903,-3.3575184425120788,-0.0909035109163904
11.6232134,-5.784459181390936,-3.4578657414127973,-0.13373748793414916
11.62796829,-5.379012256211517,-3.537650088008771,-0.17516264896652273
11.63272319,-4.951806969503859,-3.5970301304078163,-0.2146591581977005
11.63747808,-4.50541415895382,-3.6362727803004757,-0.25172411700867575
11.64223298,-4.04250749097373,-3.6557490581122947,-0.2858758575441475
11.64698788,-3.5658440853391,-3.6559294462328205,-0.3166580316503673
11.65174277,-3.0782446966380443,-3.637378765409208,-0.34364347346378415
11.65649767,-2.582573619168977,-3.6007505940151576,-0.3664378153433569
11.66125251,-2.0817184805435662,-3.5467812563508594,-0.38468283626669203
11.66600741,-1.5785700873270836,-3.476283413768496,-0.3980595194737922
11.6707623,-1.0760024833316166,-3.39013930053449,-0.4062907928279204
11.6755172,-0.5768533773463987,-3.2892936542050117,-0.40914392215103745
11.68027209,-0.08390509182277701,-3.174746397237898,-0.4064325259026934
11.68502699,0.4001338230270988,-3.0475451320308764,-0.3980181804074965
11.68978189,0.8726461744639181,-2.908777515120212,-0.38381158975205915
11.69453678,1.3311227879699667,-2.759563577576509,-0.36377330388548235
11.69929168,1.7731781328937466,-2.6010480575274513,-0.33791398092271047
11.70404657,2.1965648163662768,-2.4343928072913554,-0.306294202156437
11.70880147,2.599186862621241,-2.260769332229331,-0.26902385792951505
11.71355636,2.9791117077017595,-2.0813515118249146,-0.22626112812037968
11.71831126,3.334580851343844,-1.8973085464614827,-0.17821108323833443
11.72306616,3.664019118841181,-1.709798166507995,-0.12512393248685544
11.72782105,3.966042496285931,-1.5199601340016353,-0.06729294480215064
11.73257595,4.239464513016348,-1.3289100615811107,-0.0050520683853162674
11.73733079,4.483301155481272,-1.137733568410968,0.061226726162434957
11.74208569,4.69677430700903,-0.9474807886345826,0.13113635423318115
11.74684058,4.87931371801886,-0.7591612443849491,0.20423775232077834
11.75159548,5.0305575208887126,-0.5737390925632563,0.28006321493726727
11.75635038,5.150351312872417,-0.39212875247781487,0.3581199082551965
11.76110527,5.238745839070309,-0.21519092004687385,0.4378935352022608
11.76586017,5.2959933154812955,-0.04372897362838558,0.5188521265764344
11.77061506,5.322542439632668,0.12151422337746418,0.6004499326755003
11.77536996,5.319032143268051,0.27985911730369606,0.6821313900142463
11.78012486,5.2862841481504805,0.4306918493808561,0.7633351380118865
11.78487975,5.225294392249036,0.5734662229807416,0.8434980611023359
11.78963465,5.137223399408229,0.7077052434461416,0.9220593324856476
11.79438949,5.023385670976028,0.8330022203190536,0.9984644365517134
11.79914439,4.885238182685373,0.9490214219008997,1.0721691477253303
11.80389928,4.724368074261376,1.0554982732257885,1.1426434440612234
11.80865418,4.5424796227335555,1.1522390907521103,1.2093753344133245
11.81340907,4.3413805932963685,1.2391203502953938,1.2718745784856202
11.81816397,4.122968063838013,1.3160874887845737,1.3296762795643475
11.82291886,3.8892138210012166,1.383153245150098,1.3823443302145726
11.82767376,3.6421494268853802,1.4403955508596384,1.4294746916818326
11.83242866,3.3838510562655393,1.487954986105099,1.4706984881778267
11.83718355,3.1164242045051083,1.5260318232012116,1.505684897666177
11.84193845,2.8419883661939087,1.5548826841700816,1.534143821213786
11.84669334,2.562661783967583,1.574816844561149,1.5558283134400424
11.85144819,2.280546365972539,1.586192220121295,1.570536757079264
11.85620308,1.997712869039043,1.5894110768488838,1.5781147651689966
11.86095798,1.7161864428107647,1.5849155081420963,1.578456794887632
11.86571288,1.4379326278368953,1.5731827251260355,1.5715074575950512
11.87046777,1.1648438979413565,1.554720207780293,1.5572625101968736
11.87522267,0.8987268340247422,1.5300607651717808,1.5357695135877225
11.87997756,0.6412900128234463,1.499757552926571,1.5071281446715314
11.88473246,0.39413269005731855,1.4643790950697275,1.4714901493462393
11.88948736,0.15873435286428933,1.424504355567895,1.4290589249144645
11.89424225,-0.06355478852123056,1.3807179023974883,1.3800887216986284
11.89899709,-0.2715223051952242,1.33360520383455,1.3248834552999242
11.90375199,-0.4641009910800633,1.2837480930484204,1.2637951230798765
11.90850689,-0.6403751883468689,1.2317204331115623,1.197221821154794
11.91326178,-0.7995859498435919,1.1780840103243302,1.1256053614351986
11.91801668,-0.9411349982972911,1.1233846793843167,1.049428491826297
11.92277157,-1.064587449364577,1.068148779478184,0.96921172642294
11.92752647,-1.169673273591236,1.0128798359026292,0.8855097963185525
11.93228137,-1.2562874809683098,0.9580555573852392,0.7989077356373404
11.93703626,-1.3244890209340534,0.9041251349328515,0.7100166218176069
11.94179116,-1.374498400259024,0.8515068438625425,0.6194689941430439
11.94654605,-1.4066940311762823,0.8005859467716477,0.5279139799442948
11.9513009,-1.4216073323163358,0.7517128916794729,0.436012163534503
11.95605579,-1.4199166154228238,0.7052017964869415,0.3444302385710364
11.96081069,-1.4024398013943382,0.6613292082776476,0.2538354899930039
11.96556558,-1.3701260198220633,0.6203331238531435,0.16489015682624505
11.97032048,-1.3240461567217898,0.5824122563010976,0.07824573181483642
11.97507538,-1.2653824253856463,0.5477255313729504,-0.005462742106653455
11.97983027,-1.1954170449705785,0.516391797010149,-0.08562231514504627
11.98458517,-1.1155201203886969,0.4884897295030126,-0.16164764789117705
11.98934006,-1.0271368251218886,0.4640579204821147,-0.23298633491648202
11.99409491,-0.9317739956666983,0.4430951301995706,-0.2991239664135492
11.9988498,-0.8309862523815642,0.42556069430421495,-0.359588859727635
12.0036047,-0.7263617665140406,0.41137507347038393,-0.4139563936880273
12.00835959,-0.6195077970442706,0.4004205376887543,-0.46185288065806346
12.01311449,-0.5120361235129174,0.39254197959686365,-0.5029589143668151
12.01786939,-0.40554850191570396,0.38754785365805633,-0.5370121363127807
12.02262428,-0.3016222697524004,0.38521123997055856,-0.5638093705815574
12.02737918,-0.20179622336479375,0.38527103277040636,-0.583208087101692
12.03213402,-0.10755688608532056,0.38743325431419323,-0.5951271670478082
12.03688892,-0.020325279899239115,0.3913724950763715,-0.599546960722265
12.04164381,0.05855569334114693,0.3967334813982972,-0.5965086461899658
12.04639871,0.1278331623583065,0.40313277205305437,-0.5861129140413228
12.05115361,0.186355397303281,0.41016058563494556,-0.5685180181205804
12.0559085,0.23308203731781896,0.4173827611631159,-0.5439372431512748
12.0606634,0.2670933583772485,0.4243428547494658,-0.5126358482051424
12.06541829,0.2875985118895476,0.4305643756321206,-0.47492755058081154
12.07017319,0.29394267116728606,0.4355531653589081,-0.43117061841286797
12.07492808,0.2856130295627252,0.4387999244303296,-0.3817636424677937
12.07968293,0.26224360109160766,0.4397828912305771,-0.32714105822713424
12.08443782,0.22361878200098528,0.4379706785030824,-0.26776848865237807
12.08919272,0.16967564006284436,0.43282527286712696,-0.20413797612812806
12.09394762,0.10050490739264704,0.42380520282748224,-0.13676316910915692
12.09870251,0.01635066222388774,0.4103688803070322,-0.06617452501568165
12.10345741,-0.08239130478847301,0.39197811984408504,0.0070854140308463966
12.1082123,-0.19517643361585313,0.3681018381597341,0.08246662188210988
12.11296715,-0.3213156302857901,0.33821993475671364,0.15941602125187632
12.11772204,-0.45998076667303345,0.3018273515450166,0.23738171159181523
12.12247694,-0.6102114054509709,0.2584383062402491,0.3158169617156729
12.12723183,-0.7709226996963231,0.20759069052872395,0.3941839434795589
12.13198673,-0.940914405141593,0.14885061983414694,0.4719571884515041
12.13674163,-1.1188809313226658,0.08181711703449754,0.5486267538523001
12.14149652,-1.3034223459645695,0.006126907708180347,0.6237010870471627
12.14625142,-1.4930562352015522,-0.0785407005464664,0.6967095797944046
12.15100626,-1.6862303111074386,-0.17245888744044008,0.7672048048872862
12.15576116,-1.8813356479875292,-0.2758483760996776,0.8347644294404744
12.16051605,-2.07672042030391,-0.38887251946399015,0.8989928014298495
12.16527095,-2.2707040081669194,-0.5116324656804014,0.9595222094794522
12.17002584,-2.4615913310890845,-0.64416245598347,1.0160138203136935
12.17478074,-2.6476872671481906,-0.7864253127985213,1.068158303553936
12.17953564,-2.8273110128239134,-0.9383081794006297,1.115676159271257
12.18429053,-2.9988102386048605,-1.0996185753890875,1.1583177694456308
12.18904538,-3.1605748971531815,-1.2700808345384087,1.1958631997454108
12.19380027,-3.311050544571808,-1.449332993338782,1.2281217824135016
12.19855517,-3.448751041344576,-1.6369241997967021,1.2549315142215713
12.20331006,-3.572270507912209,-1.8323127128175325,1.2761583052591943
12.20806496,-3.680294420552953,-2.03486456263112,1.291695114744045
12.21281986,-3.771609746043998,-2.2438529420586644,1.3014610092095278
12.21757475,-3.845114028147501,-2.458458396701369,1.30540017658077
12.22232959,-3.89982335486675,-2.6777698790671174,1.3034809270242873
12.22708449,-3.9348791522016304,-2.9007867269312375,1.2956947082344166
12.23183939,-3.949553767366483,-3.1264216195638674,1.2820551591342935
12.23659428,-3.9432548217167835,-3.353504556636602,1.2625972219160388
12.24134918,-3.9155283305846726,-3.5807878935467228,1.2373763279934258
12.24610407,-3.8660606034822647,-3.8069524535987105,1.2064676688685072
12.25085897,-3.794678953341471,-4.030614722115139,1.1699655582436739
12.25561381,-3.7013512572850793,-4.250335110380522,1.1279828871125532
12.26036871,-3.5861844235824987,-4.464627258715494,1.0806506692287419
12.26512361,-3.449421829741671,-4.671968328376595,1.0281176704515955
12.2698785,-3.291439805043137,-4.870810211884829,0.9705501121049365
12.2746334,-3.112743237252208,-5.05959157135884,0.9081314356638357
12.27938829,-2.913960387847108,-5.23675059505084,0.8410621137491755
12.28414319,-2.6958370030211296,-5.400738344145402,0.7695594905151135
12.28889803,-2.459229809128516,-5.550032545550998,0.6938576330871935
12.29365293,-2.205099481330806,-5.68315167241711,0.6142071748356239
12.29840782,-1.9345031731493785,-5.798669142920131,0.5308751310343868
12.30316272,-1.6485866926277637,-5.895227459890712,0.44414466788187706
12.30791762,-1.3485764080360731,-5.971552109424397,0.35431480686217787
12.31267251,-1.0357709626696792,-6.026465035917535,0.2617000478290355
12.31742736,-0.7115328744210562,-6.05889751403694,0.1666298957544561
12.32218225,-0.3772800915103301,-6.0679022448411555,0.06944827754353716
12.32693715,-0.03447757110777234,-6.0526645133645545,-0.02948716353098022
12.33169204,0.3153710573578588,-6.012512258099432,-0.12980590743632706
12.33644694,0.6707316875705002,-5.946924918569563,-0.23112554209723796
12.34120183,1.0300477390830947,-5.8555409451798575,-0.3330529035072089
12.34595673,1.3917479216709472,-5.738163875341528,-0.43518538012617847
12.35071157,1.7542537211598321,-5.594766901061409,-0.5371123881752338
12.35546647,2.1159865724312423,-5.425495875241926,-0.6384170211802281
12.36022137,2.4753746912907477,-5.2306707263224945,-0.7386778729690162
12.36497626,2.830859543000072,-5.010785273062309,-0.8374710285008957
12.36973116,3.180901931443079,-4.766505452719796,-0.9343722116661737
12.37448605,3.5239876990243153,-4.498665996209645,-1.0289590737933312
12.37924095,3.8586330334311083,-4.20826560269449,-1.1208136012780612
12.38399579,4.183389383349375,-3.8964606832521915,-1.2095246157792219
12.38875069,4.4968479911815535,-3.564557758554065,-1.2946903361748872
12.39350558,4.797644056819493,-3.2140046087168117,-1.3759209683400508
12.39826048,5.084460552544139,-2.8463802844886366,-1.4528412871007295
12.40301538,5.356031715055311,-2.463384097568922,-1.5250931745230003
12.40777027,5.611146246323381,-2.0668237140687413,-1.592338079885509
12.41252512,5.84865026016719,-1.658602478895334,-1.654259369051341
12.41728001,6.067450015872694,-1.2407061002729651,-1.7105645343195803
12.42203491,6.266514483411788,-0.8151888228942966,-1.7609872400345015
12.4267898,6.444877786593918,-0.3841592156612773,-1.8052891840089178
12.4315447,6.6016415705869465,0.0502343039359759,-1.8432617597941667
12.43629959,6.735977338596243,0.48581809155427785,-1.8747275095972802
12.44105444,6.847128799120887,0.9204079318384522,-1.8995413619366912
12.44580933,6.934414260238641,1.3518236216826387,-1.9175916518549474
12.45056423,6.997229100999273,1.7779033793931407,-1.9288009246959128
12.45531913,7.035048342453611,2.196517983127793,-1.9331265271582276
12.46007402,7.047429332344107,2.6055845465913214,-1.9305609915987973
12.46482892,7.034014548257277,3.003079844344628,-1.9211322214009143
12.46958376,6.9945345143184445,3.387053103345295,-1.9049034866374135
12.47433866,6.928810816545095,3.7556381815844047,-1.8819732402253802
12.47909355,6.836759192032501,4.107065059006679,-1.85247476525545
12.48384845,6.718392657477237,4.439670570368757,-1.8165756641711808
12.48860334,6.573824633367914,4.751908314376366,-1.7744771999882016
12.49335824,6.403272011665715,5.0423576784226505,-1.7264134988293687
12.49811308,6.207058107102386,5.309731923606816,-1.672650621791382
12.50286798,5.985615425456475,5.552885280517325,-1.6134855126512717
12.50762288,5.739488176438153,5.770819012564987,-1.5492448262734027
12.51237777,5.469334454232189,5.962686410456629,-1.4802836408727678
12.51713267,5.1759280054285615,6.127796688683928,-1.4069840555685478
12.52188751,4.860159502103001,6.265617762628142,-1.329753672928408
12.52664241,4.523037237272932,6.375777893021632,-1.249023964462289
12.5313973,4.16568716092468,6.4580661930357115,-1.16524851530565
12.5361522,3.7893521773504646,6.512432002138523,-1.0789011427040645
12.54090709,3.395390628672015,6.538983140010962,-0.9904738814711435
12.54566199,2.985273895145282,6.537983063118818,-0.9004748284501009
12.55041683,2.560583050115687,6.509846955888606,-0.8094258372718551
12.55517173,2.1230045163092477,6.455136797667724,-0.7178600544657477
12.55992663,1.6743246804691787,6.37455545557137,-0.6263192883255206
12.56468152,1.2164234351156338,6.268939861705875,-0.5353512029126127
12.56943642,0.7512666293269371,6.139253340903736,-0.44550633118962635
12.57419126,0.2808974248006539,5.986577161872531,-0.3573349034885309
12.57894616,-0.19257343108580205,5.812101390509145,-0.2713834903230114
12.58370105,-0.6669783870912954,5.617115129104909,-0.1881914619903113
12.58845595,-1.140104879499272,5.402996229347485,-0.10828727152995145
12.59321084,-1.6097080699867177,5.1712005704923705,-0.032184572453633264
12.59796574,-2.0735244486887408,4.923250996885101,0.03962181173180203
12.60272058,-2.529286202843933,4.660726011181244,0.1066600427353637
12.60747548,-2.974736233314687,4.385248321118853,0.16848551650047575
12.61223038,-3.4076436839066524,4.0984733385194305,0.22468516647739023
12.61698527,-3.825819832311187,3.802077729310817,0.2748817717790255
12.62174017,-4.227134177212613,3.4977481127758354,0.31873821015238446
12.62649501,-4.609530544130153,3.1871700069321918,0.35596158477773265
12.63124991,-4.97104302331978,2.872017114926986,0.38630714369433067
12.6360048,-5.309811546911342,2.5539410445492923,0.4095819023207773
12.6407597,-5.624096909763112,2.2345615493678266,0.42564787451085706
12.64551459,-5.912295039637824,1.9154573754918303,0.43442481735736455
12.65026944,-6.172950327485515,1.5981577923731953,0.43589240073621305
12.65502433,-6.404767837806193,1.2841348791506804,0.4300917248591202
12.65977923,-6.606624231868057,0.974796629385577,0.41712612723819115
12.66453413,-6.777577252462804,0.6714809261742729,0.3971612426002775
12.66928902,-6.916873637504198,0.37545042611017293,0.37042430280794764
12.67404387,-7.0239553508815264,0.08788837417502174,0.33720268617262195
12.67879876,-7.098464042347371,-0.19010464745889946,0.29784174478286096
12.68355366,-7.140243673567022,-0.45751305477866105,0.2527419536812789
12.68830855,-7.149341274386926,-0.713407721106808,0.20235543693550265
12.69306345,-7.1260058213263,-0.9569466202137511,0.1471819335502784
12.69781829,-7.070685258555123,-1.1873747311118799,0.08776427159323182
12.70257319,-6.984021709452043,-1.4040232960129764,0.024683422426183314
12.70732808,-6.866844953506682,-1.6063085322829025,-0.04144679120701366
12.71208298,-6.720164268077408,-1.7937299041473276,-0.10998525916144977
12.71683788,-6.545158756532574,-1.9658680605740766,-0.1802693468854453
12.72159272,-6.343166302898282,-2.122382542510064,-0.2516207864624788
12.72634762,-6.115671307947431,-2.263009355934006,-0.3233516276247019
12.73110251,-5.864291372737681,-2.387558497534007,-0.39477018410511294
12.73585741,-5.590763103255135,-2.4959115077791867,-0.46518691442777116
12.74061225,-5.296927214413137,-2.5880191122260485,-0.5339201799682844
12.74536715,-4.98471311345338,-2.6638989965169824,-0.6003018266151585
12.75012204,-4.656123141917085,-2.7236337440836484,-0.6636825395502048
12.75487694,-4.313216651821658,-2.7673689484633086,-0.7234369236865003
12.75963183,-3.958094085489907,-2.7953114948362625,-0.77896826551642
12.76438668,-3.5928812196415283,-2.8077279884787605,-0.8297129360600042
12.76914157,-3.2197137229167856,-2.8049432920321267,-0.8751443998731782
12.77389647,-2.840722162095525,-2.787339119693377,-0.9147768021976961
12.77865136,-2.458017576199084,-2.7553526255684315,-0.9481681154793972
12.78340626,-2.0736777199820673,-2.7094749163281686,-0.9749228371900168
12.7881611,-1.6897340599555815,-2.65024941554828,-0.9946942420356624
12.792916,-1.3081595882614194,-2.5782700089103354,-1.007186201776475
12.7976709,-0.9308575036922574,-2.494178905584084,-1.0121545937818168
12.80242579,-0.5596507958139495,-2.398664161013511,-1.0094083244396
12.80718069,-0.19627275776414815,-2.292456819207805,-0.9988099955843472
12.81193553,0.15764155442921737,-2.1763276476898685,-0.9802762416317216
12.81669043,0.5005629038694135,-2.0510834546782717,-0.9537777627771055
12.82144532,0.831074488352594,-1.9175629949745967,-0.9193390761360166
12.82620022,1.1478775852304763,-1.7766324873670003,-0.8770380026973891
12.83095512,1.449796224632442,-1.6291807811280083,-0.8270049039650902
12.83570996,1.7357808935984187,-1.476114221600204,-0.7694216786532416
12.84046486,2.004911277699064,-1.3183512744789947,-0.7045205271472899
12.84521975,2.25639805143126,-1.1568169750430572,-0.6325824898224616
12.84997465,2.489583734038385,-0.9924372722857907,-0.5539357646518025
12.85472949,2.703942633219433,-0.8261333389142727,-0.4689538095382647
12.85948439,2.899079905149041,-0.6588159169582904,-0.3780532350513284
12.86423928,3.074729764983457,-0.4913797658233972,-0.28169149337565097
12.86899413,3.230752887278985,-0.3246982755395115,-0.18036436913356677
12.87374902,3.3671330403178787,-0.15961830309044298,-0.07460327740489871
12.87850392,3.4839730021654507,0.0030447156672181353,0.03502762605474284
12.88325881,3.581489809410006,0.16251133168094523,0.14793451749703296
12.88801371,3.6600093920498997,0.31804228502688403,0.26349715562735815
12.8927686,3.719960649972368,0.46894230887854493,0.38107230408680204
12.89752345,3.7618690279716955,0.6145635060943522,0.49999731934780217
12.90227834,3.786349647315996,0.754308275415579,0.6195938962470757
12.90703324,3.79410005252939,0.8876317703504454,0.7391719619801078
12.91178814,3.785892632351175,1.0140438799988125,0.8580337077463196
12.91654298,3.7625667738015065,1.1331107273508114,0.9754777453874621
12.92129788,3.7250208079509437,1.2444556869513954,1.090803374344437
12.92605277,3.6742038053850474,1.3477599302148477,1.2033149421214486
12.93080767,3.6111072785037246,1.4427625130156014,1.3123262792515946
12.93556251,3.536756846714087,1.529260026328728,1.4171651875602518
12.94031741,3.4522039192514957,1.6071058364249378,1.5171779583461407
12.9450723,3.358517448762045,1.6762089461781273,1.6117338949261903
12.9498272,3.2567758068768735,1.7365325131765112,1.7002298117904011
12.95458204,3.1480588308090236,1.7880920633669792,1.7820944804034444
12.95933694,3.033440087533645,1.8309534408066266,1.8567929895523398
12.96409183,2.913979399405724,1.8652305347089082,1.9238309861793692
12.96884673,2.790715672158799,1.891082824375987,1.9827587609301258
12.97360157,2.664660063140841,1.908712780878272,2.0331751412186305
12.97835647,2.5367895243967142,1.9183631615934489,2.0747311534796267
12.98311137,2.4080407518044065,1.920314230097061,2.107133415463847
12.98786626,2.279304567913085,1.9148809295758162,2.130147218960488
12.99262111,2.1514207624288053,1.9024100331063687,2.1435992632272804
12.997376,2.0251734105008667,1.8832772890200076,2.147379999714517
13.0021309,1.901286685179765,1.8578845743882761,2.141445549473336
13.00688579,1.7804211767863616,1.8266570646541276,2.125819156082207
13.01164064,1.663170728595566,1.7900404228243827,2.1005921391680897
13.01639553,1.5500597952915092,1.748498007624793,2.0659243167552663
13.02115043,1.441541328093948,1.702508096740354,2.022043868775443
13.02590532,1.3379951881982308,1.6525611188039706,1.9692466190649132
13.03066017,1.2397270881052187,1.5991568861871195,1.9078947189480584
13.03541506,1.1469680584842186,1.542801819878628,1.8384147219228042
13.04016996,1.0598744364077626,1.4840061577754955,1.7612950458850118
13.04492486,0.978528369125447,1.4232811384934358,1.6770828266252549
13.0496797,0.9029388259749709,1.3611361542538594,1.5863801738611765
13.05443459,0.8330431095046882,1.2980758684172475,1.4898398486768085
13.05918949,0.7687088553513379,1.2345972956952471,1.3881603887966285
13.06394439,0.7097365088451862,1.1711868458750752,1.2820807155469016
13.06869923,0.6558622646706259,1.108317334945509,1.1723742635980958
13.07345413,0.6067614541483987,1.0464449707671457,1.0598426815770834
13.07820902,0.5620523627756719,0.9860063238276826,0.9453091582970035
13.08296392,0.5213004585263666,0.9274152970872368,0.8296114355666646
13.08771876,0.4840230090710398,0.8710601123381329,0.7135945741922217
13.09247366,0.4496940635523758,0.8173003337529137,0.5981035447569336
13.09722855,0.4177497719019063,0.7664639522600213,0.48397571896357994
13.1019834,0.3875940119645674,0.7188445569810928,0.37203334068588034
13.10673829,0.3586042919617419,0.6746986221242911,0.26307605837951603
13.11149319,0.33013789311257036,0.6342429394103833,0.1578736021643447
13.11624808,0.30153821458311125,0.5976522272849052,0.0571586897349911
13.12100293,0.27214128037700885,0.5650569488286283,-0.0383797546914926
13.12575782,0.24128236535358683,0.536541370419333,-0.1281029849166099
13.13051272,0.20830269529350004,0.5121418928289506,-0.21142833883363643
13.13526762,0.1725561738627716,0.4918456855748562,-0.287834586371456
13.14002246,0.13341608749032038,0.475589653991963,-0.35686664271079727
13.14477736,0.09028173761227866,0.4632597666485137,-0.41813957401714097
13.14953225,0.04258494850219844,0.45469076835670624,-0.4713418276623837
13.15428715,-0.010203601908739623,0.44966630102022975,-0.5162376249913321
13.15904199,-0.06856828109492896,0.44791945071200284,-0.5526684634635088
13.16379689,-0.13294268343890117,0.449133734513206,-0.580553688782633
13.16855178,-0.20370414587376065,0.45294453487637787,-0.5998901183750406
13.17330668,-0.2811686480562679,0.4589409830995612,-0.6107507244224091
13.17806152,-0.3655861457170056,0.46666828757248774,-0.6132824130043478
13.18281642,-0.45713638365066567,0.4756304972326391,-0.6077029600456606
13.18757131,-0.5559252322016021,0.48529368626301195,-0.5942971815557968
13.19232616,-0.6619815880718639,0.4950895423882935,-0.5734124256054541
13.19708105,-0.7752548768266947,0.5044193380737914,-0.5454534789594657
13.20183595,-0.8956131906142208,0.5126582614233488,-0.5108769843644431
13.20659084,-1.022842090378129,0.5191600815207693,-0.4701854661825274
13.21134569,-1.1566440972282572,0.5232621212492229,-0.4239210625404147
13.21610058,-1.2966388926274433,0.524290509142931,-0.372659061317892
13.22085548,-1.4423642416408207,0.5215656804861404,-0.31700133510027284
13.22561038,-1.5932776476879922,0.5144080965913804,-0.2575697667390715
13.23036522,-1.748758741077171,0.5021441498622937,-0.19499975249059806
13.23512012,-1.908112397129944,0.48411222077602367,-0.12993386389768313
13.23987501,-2.070572572964637,0.45966885124448886,-0.06301574272798859
13.24462986,-2.235306845026597,0.4281949969343045,0.005115704490833614
13.24938475,-2.4014216222688507,0.3891023191057283,0.07383175434151633
13.25413965,-2.567968002542753,0.3418394744849688,0.14251890794971703
13.25889449,-2.733948232320718,0.28589835975024064,0.21058348672844832
13.26364939,-2.898322722431612,0.22082026551756617,0.2774557530062161
13.26840428,-3.0600175651658956,0.1462018933384009,0.34259353590647385
13.27315918,-3.217932491061436,0.06170118818906085,0.4054853523244815
13.27791402,-3.3709491970999284,-0.03295706178742229,0.4656530217066604
13.28266892,-3.5179399721212743,-0.13797590699681794,0.5226537813046206
13.28742381,-3.6577765401766924,-0.25348124858311155,0.576081915460725
13.29217866,-3.789339038438986,-0.37951723034553553,0.6255699182247066
13.29693355,-3.911525043278069,-0.5160420598899953,0.6707892133003462
13.30168845,-4.023258556244648,-0.6629243088426472,0.7114504592176631
13.30644334,-4.1234988609731555,-0.8199397423374225,0.7473034710185075
13.31119819,-4.211249162356287,-0.9867687283642798,0.7781367928602227
13.31595308,-4.285564920705162,-1.1629942778017957,0.8037769588336832
13.32070798,-4.3455617960118715,-1.348100765893682,0.8240874818152877
13.32546282,-4.3904231209898805,-1.54147338538223,0.8389676120621969
13.33021772,-4.419406826450974,-1.742398380277747,0.8483509082229597
13.33497262,-4.43185174892894,-1.9500641070899059,0.8522036632263265
13.33972751,-4.427183258317368,-2.163562967030934,0.8505232260015565
13.34448236,-4.4049181525380225,-2.3818942479958696,0.8433362572250837
13.34923725,-4.364668776644748,-2.6039679088507826,0.8306969535263792
13.35399215,-4.306146334953037,-2.8286093305973377,0.8126852702022648
13.35874699,-4.229163376381242,-3.054565049286239,0.789405167891551
13.36350189,-4.133635444804222,-3.2805094741630536,0.7609829041705847
13.36825678,-4.019581897504089,-3.5050525815816176,0.727565386818683
13.37301163,-3.8871259054928773,-3.726748560935998,0.6893186016219259
13.37776652,-3.7364936594071247,-3.9441053735337483,0.6464261240342665
13.38252142,-3.568012813706166,-4.155595169295956,0.5990877207928004
13.38727631,-3.3821102099119993,-4.359665489788969,0.5475180446814264
13.39203116,-3.179308926482284,-4.5547511697709115,0.49194542302559013
13.39678605,-2.960224708530579,-4.739286833618167,0.4326107381321859
13.40154095,-2.7255618349883233,-4.911719868156551,0.369766395718399
13.40629579,-2.476108483983901,-5.070523740033523,0.3036753753981371
13.41105069,-2.2127316592740875,-5.214211514287722,0.23461035557487264
13.41580558,-1.9363717416100577,-5.341349421629839,0.16285290371462685
13.42056048,-1.648036729081761,-5.450570315535083,0.08869272198565262
13.42531532,-1.3487962298871061,-5.540586856884937,0.01242693760032381
13.43007022,-1.0397752697139946,-5.610204263798723,-0.06564057325366447
13.43482512,-0.7221479740681515,-5.658332467537037,-0.1451998394216926
13.43957996,-0.39713118348146426,-5.683997521858395,-0.22593543879917835
13.44433486,-0.06597805665875467,-5.686352122734706,-0.3075271451718443
13.44908975,0.2700282866674138,-5.6646851075212625,-0.3896505915988282
13.45384459,0.6095810350603104,-5.618429817106333,-0.4719779649390158
13.45859949,0.9513558227785734,-5.54717122080117,-0.5541787467014396
13.46335439,1.2940166955114003,-5.450651721360712,-0.6359205153796652
13.46810923,1.636221869398179,-5.328775576152879,-0.7168698245471988
13.47286413,1.97662925325537,-5.181611889731447,-0.7966931690668224
13.47761902,2.3139017091544085,-5.009396152516224,-0.8750580487339021
13.48237387,2.646712031928729,-4.812530319525696,-0.9516341346152184
13.48712876,2.9737476337823923,-4.591581441721429,-1.0260945385068987
13.49188366,3.2937149258503315,-4.347278880139932,-1.0981171806771572
13.49663855,3.6053433942555855,-4.080510149320552,-1.1673862457864281
13.5013934,3.907389373902656,-3.792315451374677,-1.2335937120061893
13.50614829,4.198639528958662,-3.4838809752102113,-1.2964409342917413
13.51090319,4.477914054731001,-3.1565310467743286,-1.3556402598401622
13.51565803,4.744069621449526,-2.8117192255783583,-1.410916652202912
13.52041293,4.996002086237945,-2.451018450131578,-1.4620093003977317
13.52516782,5.232649005144564,-2.0761103402006036,-1.5086731905799284
13.52992267,5.452991982210798,-1.6887737670572756,-1.5506806201215093
13.53467756,5.656058896832167,-1.290872804179389,-1.5878226369243538
13.53943246,5.840926053766504,-0.884344170399554,-1.6199103900429925
13.5441873,6.006720301791952,-0.4711842755187793,-1.6467763808396982
13.5489422,6.152621167030515,-0.05343597526659222,-1.6682756066789948
13.55369709,6.2778630452557715,0.36682486138562415,-1.6842865914847303
13.55845194,6.381737494128162,0.7875028737667723,-1.69471229936616
13.56320683,6.463595661361609,1.2064967253703036,-1.6994809290906585
13.56796173,6.522850878478088,1.6217125236535006,-1.6985465885799262
13.57271663,6.558981442228408,2.0310770573854944,-1.6918898499344028
13.57747147,6.571533597134868,2.432550769041687,-1.67951818676648
13.58222636,6.560124723148691,2.8241403835482295,-1.6614662967856495
13.58698126,6.52444672235107,3.2039111184302227,-1.6377963135259557
13.5917361,6.464269588243871,3.5699984041182327,-1.6085979117372997
13.596491,6.379445130777591,3.9206190468399096,-1.5739883111956212
13.6012459,6.269910820133424,4.254081770228147,-1.534112183468049
13.60600074,6.1356937026473295,4.568797075605859,-1.4891414654856234
13.61075564,5.976914333314224,4.863286364944684,-1.439275082675826
13.61551053,5.7937906611656915,5.136190274795476,-1.3847385829942558
13.62026538,5.586641796567073,5.386276174081919,-1.3257836815962238
13.62502027,5.355891583217283,5.612444783551658,-1.2626877142111568
13.62977517,5.102071892461342,5.813735879900538,-1.195752995591659
13.63453001,4.8258255535577,5.989333053123907,-1.1253060777366692
13.63928491,4.527908830891414,6.1385674914948645,-1.0516969009475046
13.6440398,4.209193357883592,6.26092077470889,-0.9752978291769778
13.64879465,3.870667437589832,6.356026662155164,-0.8965025595949522
13.65354954,3.513436621760727,6.423671869961904,-0.8157248948617093
13.65830444,3.138723483498621,6.4637958373842785,-0.7333973653544823
13.66305928,2.7478665036228946,6.476489490203139,-0.6499696876499781
13.66781418,2.3423179974860555,6.461993016010998,-0.5659070450529636
13.67256907,1.9236410172900316,6.420692673497336,-0.48168817598001556
13.67732397,1.4935051749251798,6.353116665008151,-0.39780325661890004
13.68207881,1.0536813419277027,6.25993010862899,-0.31475156551099603
13.68683371,0.6060351962143709,6.141929152720594,-0.23303891955511696
13.69158861,0.15251959967508713,6.000034282149239,-0.15317487342232092
13.69634345,-0.30483419365781256,5.8352828713694125,-0.07566967752745257
13.70109834,-0.7639264824446512,5.648821045041452,-0.001030993540666479
13.70585324,-1.222600181873643,5.441894912029073,0.07023962905859722
13.71060808,-1.678652954222864,5.2158412434472075,0.13765050668701653
13.71536298,-2.1298503351565437,4.972077669926598,0.20072379103860583
13.72011788,-2.5739397658812986,4.712092477407495,0.25899963291369055
13.72487272,-3.008665422609388,4.437434084520363,0.3120405117063014
13.72962762,-3.431783716751173,4.149700287887759,0.3594356930822241
13.73438251,-3.841079322386423,3.8505273644239346,0.40080576751969105
13.73913736,-4.234381572325328,3.541579121873018,0.4358072116232993
13.74389225,-4.609581050873079,3.2245359903806547,0.4641369031195701
13.74864715,-4.964646200580506,2.901084248792539,0.48553651006992016
13.75340199,-5.297639752064667,2.572905479531342,0.4997966660127717
13.75815689,-5.606734780673484,2.2416663451845773,0.5067608364114682
13.76291178,-5.890230191640219,1.9090087781646896,0.5063287788984961
13.76766663,-6.146565436733017,1.576540671782086,0.4984595012820871
13.77242152,-6.374334270424907,1.2458271565749073,0.4831736278495789
13.77717642,-6.572297362169506,0.9183825394910804,0.46055509645406795
13.78193126,-6.739393593093348,0.5956629752034427,0.4307521257188862
13.78668616,-6.874749879929685,0.27905992814976704,0.3939774120432533
13.79144105,-6.977689386130226,-0.030105529388686308,0.3505075379468812
13.7961959,-7.047737999734911,-0.33058755372848253,0.30068159461844685
13.80095079,-7.084628979637526,-0.6212194894429138,0.24489904071366125
13.80570569,-7.088305696107599,-0.9009169606060591,0.1836168354826714
13.81046058,-7.0589224174579375,-1.1686801220560699,0.1173458968662882
13.81521543,-6.9968431221490235,-1.4235951182116813,0.04664694456014101
13.81997032,-6.902638343904945,-1.6648348138277795,-0.027874205197905358
13.82472517,-6.777080086016682,-1.8916588747724166,-0.10557182167594335
13.82948006,-6.621134869250344,-2.1034132870003805,-0.18576584420143644
13.83423496,-6.4359550048716985,-2.2995294082668782,-0.2677477936699229
13.83898986,-6.222868209434403,-2.479522649803177,-0.35078693572547154
13.8437447,-5.983365700458059,-2.6429908842731322,-0.4341366217722758
13.84849959,-5.719088931457878,-2.7896126720288974,-0.5170407362237479
13.85325444,-5.431815140736716,-2.9191453902469933,-0.598740181084426
13.85800933,-5.123441900834519,-3.031423339272099,-0.6784793317709448
13.86276423,-4.795970864510224,-3.126355887784714,-0.7555124007519834
13.86751913,-4.451490908535477,-3.203925703632088,-0.829109647959696
13.87227397,-4.092160878322348,-3.2641871007409144,-0.8985633789777411
13.87702887,-3.7201921344319184,-3.3072645149231756,-0.9631936739340716
13.88178376,-3.3378310963186024,-3.333351103134902,-1.0223537922934904
13.8865386,-2.9473419693363017,-3.3427074425803753,-1.0754352021329747
13.8912935,-2.5509898282504517,-3.3356602889881897,-1.1218721879432818
13.8960484,-2.1510242146058456,-3.312601338677395,-1.1611459993006823
13.90080324,-1.7496633868775984,-3.273985927916026,-1.192788513936135
13.90555814,-1.3490793422547243,-3.2203315964428496,-1.2163854017482003
13.91031303,-0.9513837083149458,-3.1522164402380772,-1.2315787892970318
13.91506788,-0.5586145831151149,-3.070277181493556,-1.2380694354317183
13.91982277,-0.17272438472048712,-2.9752068906267493,-1.2356184368075511
13.92457767,0.2044312432055241,-2.867752305336374,-1.2240484868528159
13.92933256,0.5711034344592653,-2.748710704421614,-1.203244713572606
13.93408741,0.9256589856869969,-2.6189263087870867,-1.173155121113277
13.9388423,1.266588105286658,-2.479286198103785,-1.1337906580618131
13.9435972,1.5925110137014993,-2.3307157482119285,-1.0852249327376586
13.94835204,1.9021833893786508,-2.174173610598658,-1.02759359279204
13.95310694,2.1945006611108564,-2.010646270213246,-0.9610933836779466
13.95786183,2.4685011542223902,-1.8411422307356056,-0.8859808983246749
13.96261668,2.723368105212984,-1.6666858867317011,-0.8025710288322647
13.96737157,2.9584305670265607,-1.488311149747311,-0.7112351301673869
13.97212647,3.173163234931792,-1.3070549003931777,-0.612398905475313
13.97688131,3.367185230805273,-1.1239503411442726,-0.5065400224197968
13.98163621,3.5402578909874345,-0.9400203253246402,-0.394185469669739
13.98639111,3.692281609431437,-0.7562707370078074,-0.2759086621626578
13.99114595,3.823291793335934,-0.573683994688431,-0.1523263031574357
13.99590084,3.9334539928036563,-0.39321274882510193,-0.024095010526871543
14.00065574,4.023058269408871,-0.21577383988183887,0.1080922855607744
14.00541064,4.092512871047225,-0.04224257941304389,0.24351016632002748
14.01016548,4.1423372822249585,0.12655258789538812,0.3814047615807581
14.01492038,4.173154720128454,0.28983498847138467,0.5209979917883031
14.01967527,4.185684147474882,0.4468841432989811,0.6614920046364053
14.02443012,4.180731873335373,0.5970396696343327,0.8020737945505524
14.02918501,4.159182812886975,0.7397046267106264,0.9419199913519388
14.03393991,4.121991476423492,0.8743482782233445,1.0802018023508713
14.03869475,4.070172756966436,1.0005082518649528,1.2160900898717386
14.04344965,4.0047925844979355,1.1177920840165732,1.3487605638168314
14.04820454,3.9269585132325737,1.2258781458414498,1.4773990663538252
14.05295939,3.83781030651125,1.324515955350712,1.6012069232053738
14.05771428,3.7385105818877262,1.4135258883486805,1.719406333401749
14.06246918,3.6302355768042958,1.4927983092687391,1.8312457667995736
14.06722407,3.5141660928853486,1.5622921504975704,1.9360053361848737
14.07197892,3.3914786742598495,1.6220329755786684,2.0330021083107415
14.07673381,3.2633370724185355,1.6721105674567553,2.121595315720344
14.08148871,3.1308840469169072,1.7126760875067168,2.2011914287299166
14.08624355,2.995233547762954,1.7439388543797576,2.2712490446469134
14.09099845,2.8574633215886536,1.7661627936548077,2.3312835493299646
14.09575334,2.71860797971391,1.7796626099252524,2.380871504649399
14.10050819,2.5796525620089583,1.7847997323487028,2.4196547143254277
14.10526308,2.4415266260996265,1.7819780829452343,2.4473439200523774
14.11001798,2.3050988869962548,1.7716397141876266,2.463722079825393
14.11477288,2.171172427731611,1.7542603588705492,2.46864718105026
14.11952772,2.0404804971681934,1.7303449311028916,2.4620545424350277
14.12428262,1.91368290690524,1.7004230127905946,2.4439585609407457
14.12903751,1.791363035273581,1.6650443554071492,2.414453863296505
14.13379241,1.674025442766925,1.6247744223818394,2.373715825811296
14.13854725,1.5620940998775958,1.5801899932138936,2.322000431451278
14.14330215,1.455911225154238,1.531874846546938,2.259643439365117
14.14805704,1.3557367284088087,1.4804155359989684,2.1870588491631073
14.15281189,1.2617482514238916,1.4263972696220146,2.1047366501787628
14.15756678,1.1740417962499863,1.3703999015406574,2.013239854496047
14.16232168,1.092632929149621,1.3129940426358258,1.9132008214694922
14.16707657,1.0174585463044632,1.25473729608472,1.8053168905125556
14.17183142,0.9483791854325678,1.1961706230674478,1.69034534781751
14.17658631,0.8851818654065454,1.1378148439183817,1.5690977612108505
14.18134121,0.827583433829978,1.080167280365959,1.4424337254462252
14.18609605,0.7752344003702815,1.0236985452182248,1.3112540678658722
14.19085095,0.7277232315067969,0.9688494868616364,1.1764935715298432
14.19560584,0.6845810802401944,0.9160282971809321,1.0391132796315659
14.20036069,0.6452869221985426,0.8656077928992203,0.9000924512739463
14.20511558,0.6092730674417778,0.8179228817988521,0.7604202444152109
14.20987048,0.5759310151068466,0.7732682267343768,0.6210872069184104
14.21462538,0.5446176158682778,0.7318961217034152,0.4830766610529588
14.21938022,0.514661505040979,0.6940145954104451,0.34735607040803507
14.22413512,0.4853697670507459,0.6597857586620175,0.214868480917388
14.22889001,0.45603478996177693,0.6293244125123636,0.08652412953344925
14.23364491,0.4259412667892887,0.6026969343030049,-0.03680768496957295
14.23839975,0.3943732984516492,0.5799204585912537,-0.15430637452604923
14.24315465,0.36062155145687397,0.5609623694285769,-0.2652073839307625
14.24790954,0.32399042181414534,0.5457401195238138,-0.36880897061518575
14.25266439,0.28380515526031475,0.5341213905094514,-0.46447835265125315
14.25741928,0.2394188727426917,0.5259246068280823,-0.5516571390585694
14.26217418,0.19021944925456594,0.5209198136647489,-0.6298659608567923
14.26692907,0.1356361936467008,0.5188299268062714,-0.6987082268022927
14.27168392,0.075146277010264,0.5193323591357935,-0.7578729353891871
14.27643881,0.008280857644579413,0.5220610244196042,-0.8071364868874429
14.28119371,-0.06536914864639402,0.5266087140188546,-0.8463634589421787
14.28594861,-0.14614770328694665,0.5325298364862484,-0.8755063371522714
14.29070345,-0.23432873395743495,0.5393435043888287,-0.8946042238261468
14.29545834,-0.3301117257178716,0.5465369478233003,-0.903780576688552
14.30021324,-0.433617860016133,0.5535692303061003,-0.9032400497187442
14.30496814,-0.5448867446976058,0.5598752400441743,-0.8932645202266808
14.30972298,-0.6638737747543474,0.5648699279235216,-0.8742083924351286
14.31447788,-0.7904481595098212,0.5679527627879817,-0.8464932711568555
14.31923277,-0.9243916473411204,0.5685123745912,-0.8106021013155703
14.32398762,-1.065397974004583,0.5659313566071963,-0.76707287048901
14.32874251,-1.213073055224264,0.559591198874644,-0.7164919721621461
14.33349741,-1.3669359384627244,0.5488773262358944,-0.6594873267320571
14.3382523,-1.5264205227430654,0.5331842155324986,-0.5967213554488757
14.34300715,-1.690878049059955,0.5119205675472434,-0.5288838994798172
14.34776204,-1.8595803573414988,0.4845145099606329,-0.4566851722237661
14.35251694,-2.0317238991243323,0.45041880779151516,-0.3808488279224234
14.35727183,-2.2064344880782234,0.4091160574786307,-0.30210522353680247
14.36202668,-2.382772763255856,0.3601238399828445,-0.22118494383622356
14.36678157,-2.5597403324660997,0.30299980716014924,-0.1388126517802762
14.37153647,-2.736286555534413,0.23734667430914153,-0.05570131772148191
14.37629136,-2.9113159195212486,0.16281709036429773,0.027453128055906786
14.38104621,-3.0836959503503216,0.07911835579171983,0.10997668412954448
14.3858011,-3.252265597914069,-0.013983043087253044,0.19122168177144572
14.390556,-3.4158440247577357,-0.116657115836247,0.270570686116047
14.3953109,-3.5732397220927705,-0.22900629929906421,0.3474398848647977
14.40006574,-3.723259871344505,-0.35106167324542553,0.42128196181406946
14.40482064,-3.8647198648526917,-0.4827794958141134,0.491588458782269
14.40957553,-3.996452895801454,-0.6240380952388531,0.5578916351949421
14.41433038,-4.117319524957947,-0.7746351552809785,0.6197658399603118
14.41908527,-4.226217130289145,-0.9342854327143425,0.676828415604861
14.42384017,-4.3220891449530745,-1.1026189460826263,0.7287401600720057
14.42859506,-4.403933989540512,-1.2791796757525844,0.7752053770776036
14.43334991,-4.47081360587497,-1.4634248159939052,0.815971551287917
14.4381048,-4.521861502325424,-1.6547246203784147,0.8508286895587215
14.4428597,-4.556290224652762,-1.8523628821095433,0.8796083736627596
14.44761459,-4.573398172129941,-2.055538090801686,0.9021825728369833
14.45236944,-4.5725756862674505,-2.2633653064867127,0.9184622655484319
14.45712433,-4.553310349052904,-2.474878789907224,0.9283959186935484
14.46187923,-4.515191439071786,-2.6890354250702773,0.9319678689815845
14.46663413,-4.457913506850171,-2.904718965185719,0.9291966459695995
14.47138902,-4.381279044673818,-3.120745126208896,0.9201332699146358
14.47614387,-4.285200240308475,-3.3358675431453304,0.9048595511353167
14.48089876,-4.1696998178129085,-3.5487845931532553,0.8834864115762336
14.48565366,-4.034910981494399,-3.7581470765518916,0.856152244067726
14.49040855,-3.88107649072051,-3.9625667324485563,0.8230213203846088
14.4951634,-3.7085469036470586,-4.16062555021171,0.7842822554530421
14.49991829,-3.517778036880262,-4.350885821838129,0.740146531723399
14.50467319,-3.3093276955911257,-4.5319008638255776,0.690847084678878
14.50942808,-3.0838517345965895,-4.702226320948198,0.6366369476426222
14.51418293,-2.8420995154326163,-4.860431948849949,0.5777879515129941
14.51893782,-2.5849088275559278,-5.005113758126941,0.5145894728743784
14.52369272,-2.3132003436542456,-5.134906390033962,0.4473472221941423
14.52844762,-2.0279716797662615,-5.248495583549534,0.37638206260494744
14.53320246,-1.7302911306554218,-5.344630585648173,0.30202884911107203
14.53795736,-1.42129114977633,-5.422136351589666,0.2246352778913743
14.54271225,-1.1021616413315627,-5.479925380104577,0.14456073556493534
14.54746715,-0.7741431294326879,-5.517009029696327,0.062175138661480646
14.55222199,-0.4385198663272903,-5.532508166944165,-0.022142246074368165
14.55697689,-0.09661293809954329,-5.525663005614618,-0.10800400965450674
14.56173178,0.25022657774119317,-5.495842006384858,-0.1950158461469171
14.56648668,0.6006243527449135,-5.442549720730119,-0.28277784449248355
14.57124157,0.9531894007499435,-5.365433478580162,-0.3708858362300013
14.57599642,1.306520483504744,-5.264288837153826,-0.45893280854289137
14.58075131,1.6592122934637377,-5.13906372732348,-0.5465103915576969
14.58550621,2.0098613837043486,-4.989861253323539,-0.6332104274975444
14.59026111,2.3570718200472522,-4.816941121019493,-0.7186266268880906
14.59501595,2.6994605355848593,-4.6207196887882365,-0.8023563135065175
14.59977084,3.035662372987491,-4.401768652914152,-0.8840022553710764
14.60452574,3.3643348051812403,-4.160812395978253,-0.963174574154637
14.60928064,3.6841623302448663,-3.8987240418196354,-1.039492720370507
14.61403548,3.9938605416174355,-3.6165202741665827,-1.1125874969086078
14.61879038,4.292179879946425,-3.3153549878929933,-1.182103109367243
14.62354527,4.577909078174151,-2.996511851989212,-1.247699218463352
14.62830017,4.849878316778356,-2.6613958716854405,-1.3090529678483729
14.63305506,5.106962111415859,-2.3115240436905715,-1.3658609600033842
14.63780991,5.348081960468769,-1.9485152032154776,-1.4178411534934177
14.6425648,5.572208784994638,-1.5740791644084353,-1.4647346565889465
14.6473197,5.778365198095406,-1.190005257170555,-1.5063073949351906
14.65207459,5.965627644449401,-0.7981503632104552,-1.5423516343692625
14.65682944,6.133128453381041,-0.40042655285278694,-1.572687343891689
14.66158433,6.2800578500822235,0.0012115781845936076,-1.5971633878364075
14.66633923,6.405665969225904,0.4047797757285551,-1.615658540073648
14.67109413,6.509264913117265,0.8082771046006857,-1.6280823163693863
14.67584902,6.590230892731447,1.209698946384901,-1.6343756237528941
14.68060386,6.64800648461588,1.6070499300459034,-1.6345112279861223
14.68535876,6.682103029883059,1.9983567103614583,-1.6284940420964145
14.69011366,6.692103193616507,2.381680511363235,-1.6163612405034566
14.6948685,6.677663694213053,2.755129354163381,-1.5981822045657876
14.6996234,6.6385182027519525,3.116869890815392,-1.574058306388328
14.70437829,6.574480402664395,3.4651387683268453,-1.544122538471309
14.70913319,6.485447189997467,3.7982534497023788,-1.5085389972567185
14.71388808,6.371401984637176,4.114622422037672,-1.4675022288549395
14.71864293,6.232418113196768,4.412754725282084,-1.421236445206349
14.72339782,6.068662215109524,4.691268739383447,-1.3699946186237275
14.72815272,5.880397614981654,4.948900172144978,-1.3140574620475587
14.73290762,5.667987596614522,5.184509195273212,-1.2537323014326975
14.73766246,5.431898507421756,5.397086681783086,-1.1893518455109653
14.74241736,5.172702616358711,5.585759504144523,-1.121272856803187
14.74717225,4.8910806440536945,5.749794859276874,-1.0498747262554502
14.75192715,4.587823880680752,5.888603593679154,-0.9755579523065384
14.75668204,4.263835805335033,6.001742509574808,-0.8987425236006719
14.76143689,3.9201331203416827,6.0889156408980085,-0.819866202985946
14.76619178,3.5578461150970817,6.1499744961894836,-0.739382708942491
14.77094668,3.1782182767219025,6.18491727391708,-0.6577597892352421
14.77570157,2.782605068998581,6.1938870642940715,-0.5754771804537564
14.78045642,2.3724718067900215,6.177169060249222,-0.49302444625097713
14.78521131,1.9493905604394,6.1351868087176165,-0.4108986865879546
14.78996621,1.5150360335805977,6.068497541753638,-0.3296021101908116
14.7947211,1.0711803683530083,5.977786634962563,-0.24963946277491708
14.799476,0.6196868441636659,5.863861248229195,-0.17151530442530225
14.80423084,0.1625024497780851,5.727643210527661,-0.09573113088705339
14.80898574,-0.2983506764699946,5.570161216612515,-0.02278233548008492
14.81374064,-0.7607849273092193,5.392542408573719,0.04684498901737142
14.81849553,-1.222657999610825,5.196003419602609,0.11267740581163944
14.82325038,-1.681784713246667,4.98184096091013,0.17425764001584826
14.82800527,-2.1359498100538556,4.751422035614089,0.23114822320914274
14.83276017,-2.5829216478050534,4.50617386561136,0.28293525881102943
14.83751506,-3.020466684624389,4.247573619001131,0.32923228330266413
14.84226991,-3.4463646303211464,3.9771380265436758,0.3696841898751582
14.8470248,-3.8584241232273957,3.6964129759445545,0.4039711714009299
14.8517797,-4.254498774894751,3.4069631724695384,0.4318126291058852
14.85653459,-4.632503410916437,3.11036195353597,0.4529709826399071
14.86128949,-4.990430324587241,2.8081813434942045,0.4672553072124488
14.86604433,-5.32636535143944,2.5019824327945726,0.4745247150066118
14.87079923,-5.638503567241757,2.1933061630759663,0.4746913923254546
14.87555413,-5.925164410175209,1.8836645962923524,0.4677232021159667
14.88030902,-6.184806029896643,1.5745327416347055,0.45364576482144214
14.88506392,-6.4160386721547145,1.267341008460158,0.4325439396651604
14.88981876,-6.617636917337063,0.9634683463544482,0.40456264338914966
14.89457366,-6.788550604439756,0.6642361243911454,0.36990696300119624
14.89932855,-6.927914288142592,0.3709027902089143,0.3288415411135708
14.90408345,-7.03505509572621,0.08465933549310012,0.28168923449131594
14.90883834,-7.109498872245641,-0.19337442205925176,0.22882906625094548
14.91359319,-7.150974526349295,-0.46215274861783984,0.17069350834383443
14.91834808,-7.1594165149671065,-0.7207061235018891,0.10776514313134214
14.92310298,-7.1349654322474745,-0.9681426340477927,0.04057276149194989
14.92785782,-7.077966695971748,-1.2036486987670236,-0.0303130391397747
14.93261272,-6.988967352563575,-1.426489194801042,-0.10428468938993472
14.93736762,-6.868711049107732,-1.6360070751691285,-0.18070284538376258
14.94212251,-6.718131246878568,-1.8316225668403474,-0.2589018782295206
14.94687741,-6.538342775119472,-2.0128320423427515,-0.33819558518545784
14.95163225,-6.330631845598199,-2.179206655663682,-0.41788305366742634
14.95638715,-6.096444667272483,-2.3303908278899725,-0.49725461157019346
14.96114204,-5.837374815901129,-2.466100659770062,-0.5755978002066185
14.96589694,-5.555149525505734,-2.586122337604324,-0.6522033092725955
14.97065183,-5.25161507727048,-2.6903105860609724,-0.726370816386514
14.97540668,-4.928721466877832,-2.778587207135018,-0.7974146767387259
14.98016157,-4.5885065335249315,-2.850939728960813,-0.8646694111773463
14.98491647,-4.233079733014423,-2.9074201720098363,-0.9274949438430103
14.98967137,-3.864605733402647,-2.948143923877267,-0.9852815436565155
14.99442621,-3.4852880047822086,-2.9732886980310695,-1.0374544280695663
14.99918111,-3.0973525650353113,-2.9830935373569005,-1.0834779929436362
15.003936,-2.703032031131647,-2.977857810969128,-1.1228596394062
15.0086909,-2.3045501112239086,-2.9579401434448216,-1.1551531768669028
15.01344579,-1.9041066569816887,-2.923757210086614,-1.179961790522879
15.01820064,-1.503863378952557,-2.8757823304607513,-1.1969405708618182
15.02295553,-1.1059303110219991,-2.8145437953625305,-1.2057986110205914
15.02771043,-0.7123530941490323,-2.7406228692457812,-1.206300684596119
15.03246532,-0.3251011353260188,-2.6546514204324785,-1.1982685210784916
15.03722017,0.05394331430400708,-2.5573091443444964,-1.1815816982727807
15.04197506,0.42299512796604033,-2.449320359799087,-1.156178171100271
15.04672996,0.780375291988482,-2.3314503743132438,-1.122054454583818
15.05148486,1.124518894736115,-2.204501430490873,-1.0792654763408254
15.0562397,1.4539821012853467,-2.0693082608695748,-1.0279241112194666
15.06099459,1.7674481045746762,-1.9267332920185085,-0.9682004084335021
15.06574949,2.0637320489323874,-1.7776615494038144,-0.9003205201629082
15.07050439,2.341784927272227,-1.6229953221735234,-0.8245653402849782
15.07525928,2.6006964589776578,-1.4636486515378277,-0.7412688624788135
15.08001413,2.8396969615873346,-1.3005417081303443,-0.650816267906123
15.08476902,3.058158235767648,-1.1345951231794524,-0.5536417534670236
15.08952392,3.2555934895092036,-0.9667243361501096,-0.4502261118989594
15.09427881,3.4316563337116266,-0.7978340183229167,-0.341094074662285
15.09903366,3.5861388870181603,-0.6288126279888411,-0.22681142782334734
15.10378855,3.718969032723067,-0.460527148838302,-0.10798191030210855
15.10854345,3.83020687474612,-0.2938180588941493,0.014756096834868114
15.11329834,3.9200404431143077,-0.12949457309376491,0.14073308171601884
15.11805319,3.9887807022204056,0.03166980157127167,0.26925210529615795
15.12280808,4.0368559174295635,0.18894136358167793,0.3995926885372492
15.12756298,4.064805437420698,0.34162993639773437,0.5310148736747887
15.13231788,4.0732729509891,0.4890921833690391,0.6627634490894634
15.13707277,4.062999277904941,0.6307344956746086,0.7940723260088332
15.14182762,4.034814753835594,0.7660154353199705,0.9241690536985658
15.14658251,3.9896312693267917,0.8944477198940317,1.0522794579865293
15.15133741,3.928434022435816,1.0155997407999935,1.1776323859319522
15.1560923,3.852273043865086,1.1290966120424089,1.2994645372568605
15.16084715,3.7622545524089017,1.2346207523545851,1.4170253608619883
15.16560204,3.6595321972462824,1.3319120094146373,1.529581992421637
15.17035694,3.5452982421182138,1.4207673409946904,1.636424206740935
15.17511183,3.4207747447351786,1.5010400739280136,1.7368693562803306
15.17986673,3.2872047828958046,1.5726387675307412,1.8302672649978076
15.18462157,3.1458437768005023,1.6355257133273347,1.9160050444315009
15.18937647,2.99795095494982,1.6897151073599406,1.9935117967882767
15.19413136,2.8447810088302785,1.7352709348007864,2.0622631678028864
15.19888626,2.6875759792912075,1.7723046088793328,2.1217857103816917
15.2036411,2.5275574150881392,1.8009724072044269,2.1716610186165846
15.208396,2.3659188415115184,1.8214727484052127,2.2115295906952404
15.2131509,2.203818574341122,1.8340433506907408,2.241094378583361
15.21790579,2.0423729115707534,1.8389583115398542,2.260123982166756
15.22266064,1.882649732441381,1.836525144422791,2.2684554458934905
15.22741553,1.7256625303296709,1.8270818043921833,2.2659966169425907
15.23217043,1.57236490301072,1.8109937297345915,2.252728025645561
15.23692532,1.4236455207976146,1.7886509218126267,2.228704251336377
15.24168017,1.2803235900835146,1.760465079933524,2.1940547400086254
15.24643506,1.1431448268821836,1.7268668027546272,2.1489840441251182
15.25118996,1.012777952094939,1.688302862587109,2.0937714596723205
15.25594486,0.8898117174703352,1.6452335541813792,2.028770041055819
15.26069975,0.7747524686343001,1.5981301153449183,1.954404980604697
15.26545459,0.6680222491996637,1.5474722131988663,1.8711713461592883
15.27020949,0.5699574478037863,1.4937454871190723,1.779631177302769
15.27496439,0.48080798791501383,1.4374391374693936,1.6804099480840695
15.27971928,0.40073705834035656,1.3790435481141756,1.5741924113803818
15.28447413,0.3298213805356258,1.319047930363098,1.4617178472045638
15.28922902,0.2680520070610234,1.2579379764083647,1.343774744181717
15.29398392,0.21533564383652082,1.1961935113950022,1.2211949500748898
15.29873881,0.17149648722641034,1.1342861349339426,1.0948473336546218
15.30349366,0.13627856541498917,1.0726768450278776,0.9656310064154187
15.30824855,0.10934857201472037,1.0118136399334061,0.8344681586560233
15.31300345,0.09029917834631952,0.9521290963367319,0.7022965702295654
15.31775834,0.07865280929025954,0.8940379252898288,0.5700618617601945
15.32251319,0.07386586595047684,0.8379345105619211,0.4387095572026896
15.32726808,0.07533337651591196,0.7841904373266411,0.3091770331575585
15.33202298,0.08239405461471765,0.7331520223356278,0.1823854342196636
15.33677788,0.09433574214582316,0.6851378598236466,0.05923163673877995
15.34153272,0.1104012110984634,0.6404364002540854,-0.05941965434758064
15.34628762,0.12979429629371797,0.5993035815730389,-0.17274358950318652
15.35104251,0.15168632835130974,0.5619605348477019,-0.27996255268582015
15.35579741,0.17522283353853108,0.5285913879984928,-0.3803531470385304
15.36055225,0.19953046453636594,0.49934119279121875,-0.4732527027093277
15.36530715,0.22372412360698898,0.4743140013426104,-0.5580652231891283
15.37006204,0.24691423721638706,0.4535711191192129,-0.6342666892430501
15.37481694,0.2682141389030917,0.4371295617781247,-0.7014096430209243
15.37957178,0.2867475151395388,0.424960743173578,-0.7591269793439934
15.38432668,0.30165586718567616,0.4169894213099974,-0.8071348769111473
15.38908157,0.3121059405781669,0.4130929277261039,-0.8452348105273644
15.39383647,0.3172970729196782,0.4131007035335399,-0.8733145986312114
15.39859137,0.3164684098319261,0.41679416215688103,-0.8913484602779767
15.40334621,0.30890593808395644,0.42390689513147817,-0.8993960816748392
15.4081011,0.2939492839590455,0.43412523365472067,-0.8976007202814784
15.412856,0.2709982240082662,0.44708917533284404,-0.8861863989917699
15.4176109,0.2395188546371016,0.4623936827996749,-0.8654542606524607
15.42236574,0.19904936667812936,0.4795903584744259,-0.8357781641375933
15.42712064,0.14920537138120482,0.4981894975053071,-0.7975996093799257
15.43187553,0.08968472515409555,0.5176625188244237,-0.7514220822897405
15.43663043,0.02027180186704804,0.5374447721965883,-0.6978049126589405
15.44138527,-0.05915883644130334,0.5569387171718225,-0.6373567393649412
15.44614017,-0.14863941702104302,0.5755174679322838,-0.5707286773815585
15.45089506,-0.24810662534801772,0.5925286961407005,-0.498607280132011
15.45564996,-0.35740000489053486,0.6072988820150913,-0.4217073885606433
15.4604048,-0.4762611223340184,0.6191379019030978,-0.3407649550334868
15.4651597,-0.6043335274211123,0.6273439385077814,-0.2565299259133881
15.46991459,-0.7411635303741897,0.631208697524118,-0.16975926150201573
15.47466944,-0.8862018129992498,0.6300229117089453,-0.08121016610342212
15.47942433,-1.0388058820698993,0.6230821102971766,0.008366405645310908
15.48417923,-1.198243365491079,0.6096926282080984,0.09823190716375
15.48893413,-1.3636961430638157,0.5891778257057368,0.18766597146450953
15.49368897,-1.5342652944488504,0.5608844851601145,0.2759717517168244
15.49844386,-1.7089768372537948,0.5241893473995323,0.36248079389579063
15.50319876,-1.8867882182270423,0.4785057459634764,0.44655741131243654
15.50795366,-2.066595510585145,0.42329029347789726,0.5276025371579622
15.51270855,-2.2472412608155885,0.35804957048260116,0.6050570373597646
15.5174634,-2.427522919168134,0.28234676342523235,0.6784044723304312
15.52221829,-2.6062017797290085,0.19580819524530432,0.7471733028217806
15.52697319,-2.7820123486597756,0.09812968901557943,0.8109385421480839
15.53172803,-2.953672052993245,-0.01091729752105413,0.8693228644297948
15.53648293,-3.119891197344498,-0.1314798309805038,0.921997186043626
15.54123782,-3.279383071988249,-0.26361802133547857,0.968680744921899
15.54599272,-3.4308741129357,-0.40729996882544073,1.0091407095010747
15.55074756,-3.5731140129142145,-0.562397207813406,1.0431913557655248
15.55550246,-3.704885681575607,-0.7286807172330977,1.070692856748806
15.56025736,-3.825014953964207,-0.9058175673651568,1.0915497337746842
15.56501225,-3.9323799484441406,-1.0933682722265512,1.1057090223146984
15.56976709,-4.025919979105676,-1.2907849157910438,1.113158207272431
15.57452199,-4.104643933270206,-1.4974101184684967,1.113922982561404
15.57927689,-4.167638032084591,-1.7124769075762505,1.1080648880408237
15.58403178,-4.214072901172389,-1.9351095516940686,1.0956788734725469
15.58878663,-4.243209888610439,-2.164325413538978,1.0768908345886967
15.59354152,-4.254406578788285,-2.39903786909387,1.0518551610854359
15.59829642,-4.247121462642882,-2.638060332019308,1.020752330783754
15.60305131,-4.220917737028949,-2.8801114118160993,0.9837865785604916
15.60780616,-4.175466218320961,-3.123821221821797,0.9411836630375606
15.61256105,-4.110547367515356,-3.3677388390235556,0.8931887484558816
15.61731595,-4.026052435877873,-3.610340902018776,0.8400644137275057
15.62207079,-3.921983751293519,-3.8500413164796603,0.7820887954964774
15.62682569,-3.7984541756241055,-4.085202019472314,0.7195538673106279
15.63158058,-3.655685772269446,-4.314144735311912,0.6527638528398894
15.63633548,-3.494007730550393,-4.535163636730217,0.5820337675346646
15.64109032,-3.3138535994038905,-4.746538806456584,0.5076880802081281
15.64584522,-3.1157578872562914,-4.946550376357386,0.43005948371941183
15.65060012,-2.9003520879667968,-5.133493204545984,0.34948776217789457
15.65535501,-2.6683601945873385,-5.305691935876411,0.26631874083080737
15.66010986,-2.4205937635459116,-5.461516278472531,0.1809033040170348
15.66486475,-2.157946591891512,-5.599396318895315,0.09359646629195295
15.66961965,-1.8813890695871323,-5.717837691616957,0.004756482092365074
15.67437454,-1.5919622676305552,-5.815436414925782,-0.0852560198772446
15.67912939,-1.2907718211444612,-5.890893205341856,-0.17607889008489877
15.68388428,-0.9789816646443902,-5.94302708605951,-0.2673493104700385
15.68863918,-0.6578076745931694,-5.970788111787405,-0.35870465518260974
15.69339402,-0.32851127212735143,-5.973269042609342,-0.4497833682673416
15.69814892,0.0076069636119795855,-5.949715813153326,-0.5402258662857492
15.70290381,0.34921362402865774,-5.899536660354558,-0.629675473898661
15.70765871,0.6949486976004828,-5.822309793116387,-0.7177794007578321
15.71241361,1.0434316548897447,-5.717789509625175,-0.8041897682613505
15.71716845,1.3932673576175403,-5.585910692193166,-0.8885646943279439
15.72192334,1.7430517628971678,-5.426791634477491,-0.9705694429044235
15.72667824,2.09137739940799,-5.240735180992041,-1.0498776421901748
15.73143308,2.436838597963457,-5.028228183311114,-1.1261725715691318
15.73618798,2.7780364644877595,-4.789939300664778,-1.1991485122538703
15.74094288,3.113583588828251,-4.526715194251541,-1.268512151067041
15.74569777,3.4421084880867654,-4.239575184160088,-1.3339840210425398
15.75045262,3.762259788275709,-3.9297044550100977,-1.3952999570878957
15.75520751,4.07271015319204,-3.5984459110662255,-1.4522125403786246
15.75996241,4.372159974626137,-3.247290793469379,-1.504492502113043
15.7647173,4.659340843518732,-2.8778681812526044,-1.5519300563179959
15.76947215,4.933018827392731,-2.491933503950838,-1.5943361328489645
15.77422704,5.1919975850112,-2.091356196968091,-1.6315434854821387
15.77898194,5.435121354275645,-1.678106631624346,-1.6634076555862793
15.78373678,5.661277853395764,-1.254242450248505,-1.689807778482634
15.78849168,5.869401137944555,-0.821894433184522,-1.7106472262563832
15.79324657,6.058474457303893,-0.38325201960603034,-1.7258540866005925
15.79800147,6.2275331530897295,0.05945140184794851,-1.7353814817923647
15.80275631,6.375667639448228,0.503953322808862,-1.7392077351144404
15.80751121,6.5020265007690705,0.947976961516031,-1.7373363942155666
15.8122661,6.605819736559002,1.38924602757253,-1.7297961224000464
15.81702095,6.686322176155614,1.8254993120102956,-1.7166404699545372
15.82177584,6.74287707783167,2.254505014189417,-1.6979475385389504
15.82653074,6.774899917843752,2.6740747213607934,-1.673819552416142
15.83128558,6.781882365342242,3.082076960790246,-1.6443823507838444
15.83604048,6.763396429040924,3.4764502482548023,-1.6097848155750951
15.84079538,6.719098751418976,3.8552155605534226,-1.5701982487115784
15.84555027,6.648735016262811,4.216488163497407,-1.5258157118846605
15.85030512,6.552144425787446,4.558488730727845,-1.4768513405052837
15.85506001,6.429264194599711,4.879553692713686,-1.4235396415402715
15.85981491,6.280133999523142,5.178144759477109,-1.366134782601405
15.86456975,6.104900316905187,5.452857565028466,-1.3049098769694534
15.86932465,5.903820572562308,5.7024293862121995,-1.240156266330072
15.87407954,5.677267024076375,5.925745893694595,-1.172182799970299
15.87883444,5.425730290830581,6.121846898187433,-1.1013151061010682
15.88358928,5.149822444066802,6.28993106072915,-1.02789484788578
15.88834418,4.850279567465295,6.429359541970096,-0.9522789537331844
15.89309907,4.527963698391322,6.539658571949942,-0.8748388085397819
15.89785392,4.183864061097779,6.6205209288002065,-0.7959593899310812
15.90260881,3.8190975058615977,6.671806322109136,-0.7160383312328097
15.90736371,3.434908072283969,6.693540684285281,-0.6354848909856053
15.91211861,3.0326656008087487,6.685914381070045,-0.554718807404673
15.91687345,2.613863323913626,6.649279360275344,-0.47416901540626455
15.92162834,2.1801143773962948,6.58414526573211,-0.3942722037965141
15.92638324,1.7331471826788445,6.491174551180552,-0.3154711910247396
15.93113808,1.2747996630217486,6.371176636261912,-0.23821309956706366
15.93589298,0.8070122698836902,6.225101153754652,-0.16294731150765543
15.94064788,0.33181981028016855,6.054030343658624,-0.09012319118160077
15.94540277,-0.14865791823515467,5.859170655656527,-0.020187564787505153
15.95015762,-0.6322266615492577,5.641843626912316,0.04641804837437323
15.95491251,-1.1166293708454715,5.403476107162542,0.1092604529703823
15.95966741,-1.5995589328922688,5.145589907671969,0.16791803689816476
15.96442225,-2.0786718905038595,4.869790954880628,0.22198425998592777
15.96917715,-2.5516030559707006,4.57775803344691,0.2710713520708483
15.97393204,-3.0159809016382004,4.2712312068405955,0.3148141923342507
15.97868689,-3.469443594033953,3.952000006600982,0.35287433270596685
15.98344178,-3.909655521530451,3.6218914837948013,0.3849441179061672
15.98819668,-4.334324150927976,3.282758218042512,0.4107508433593622
15.99295157,-4.741217035891448,2.9364663806868476,0.4300608803022675
15.99770642,-5.128178790143922,2.584883949202391,0.44268368584157786
16.00246131,-5.493147830983969,2.229869169726522,0.4484756057656602
16.00721621,-5.834172694416116,1.873259363551737,0.4473433710718518
16.01197105,-6.149427722413136,1.516860171448271,0.4392471869615135
16.01672595,-6.43722792594543,1.1624353266191592,0.4242033167346801
16.02148084,-6.69604283448367,0.8116970426644823,0.4022860732267676
16.02623569,-6.924509153416685,0.46629709675000414,0.37362914681966297
16.03099058,-7.121442064834251,0.1278186797351194,0.3384262200947181
16.03574548,-7.285845024142208,-0.20223092616117075,0.2969308424565424
16.04050038,-7.416917924817864,-0.5224267957593266,0.24945556091360416
16.04525522,-7.514063525989568,-0.8314319060674804,0.19637032344831315
16.05001012,-7.576892062014471,-1.1280017682315302,0.1381001876715804
16.05476501,-7.60522397933584,-1.4109881568352525,0.07512237940207699
16.05951986,-7.599090773084465,-1.6793419671625371,0.007962754056154604
16.06427475,-7.558733923585679,-1.9321152490918825,-0.06280828064752807
16.06902965,-7.484601960575764,-2.1684624811655846,-0.1365803182970563
16.07378449,-7.377345709886629,-2.3876411594385187,-0.21270791885986318
16.07853939,-7.237811802876189,-2.5890117827624097,-0.2905159192545465
16.08329428,-7.067034552171317,-2.7720373192135033,-0.36930502365498663
16.08804913,-6.866226317662142,-2.9362822375646425,-0.44835760902882427
16.09280402,-6.636766503658466,-3.0814111833251983,-0.526943683421288
16.09755892,-6.380189341451797,-3.2071873713650056,-0.6043269369518699
16.10231376,-6.098170621223081,-3.3134707570297266,-0.6797708281533817
16.10706866,-5.792513543487589,-3.400216035480695,-0.7525446509004449
16.11182355,-5.465133863341561,-3.4674705052712964,-0.8219295294924917
16.1165784,-5.118044500895094,-3.5153718174496347,-0.8872242913435032
16.12133329,-4.753339788586063,-3.5441456164021603,-0.9477511683611245
16.12608819,-4.373179520681546,-3.5541030640393347,-1.0028612800013585
16.13084308,-3.9797729623429903,-3.5456382257456243,-1.0519398538372071
16.13559793,-3.5753629654208905,-3.5192252857941897,-1.0944111437360462
16.14035282,-3.162210326055408,-3.4754155525501806,-1.1297430113753186
16.14510772,-2.7425785057594276,-3.4148342103417266,-1.1574511433150025
16.14986256,-2.3187188237058045,-3.3381767755580714,-1.1771028823376979
16.15461746,-1.892856214317833,-3.246205219147839,-1.1883206573641836
16.15937236,-1.4671756317723923,-3.13974372575024,-1.1907850003350189
16.1641272,-1.043809172089232,-3.019674070544432,-1.1842371409186643
16.16888209,-0.6248239740149933,-2.886930607815328,-1.168481171189087
16.17363699,-0.21221095151700323,-2.74249487939303,-1.1433857732446386
16.17839183,0.1921255970224325,-2.5873898655660637,-1.1088855038569059
16.18314673,0.5863774651111855,-2.4226739146895118,-1.064981632114429
16.18790163,0.9688410691178634,-2.2494343994338517,-1.0117425286961537
16.19265647,1.3379250098178923,-2.068781156675659,-0.9493036085198753
16.19741136,1.6921566471270846,-1.8818397740898356,-0.8778668315822374
16.20216626,2.0301876775314964,-1.6897447896280255,-0.7976997695111692
16.2069211,2.3507987109822133,-1.493632870594469,-0.7091342475843351
16.211676,2.652902851604144,-1.2946360374777568,-0.6125645737228762
16.2164309,2.93554829419881,-1.0938749946635045,-0.508445367231208
16.22118574,3.1979199558388536,-0.8924526261732718,-0.39728900082012775
16.22594064,3.4393401685658587,-0.6914477100299278,-0.27966266982757093
16.23069553,3.659268465175434,-0.4919088999948633,-0.15618510276264144
16.23545038,3.857300495302102,-0.2948490184620473,-0.027522927595575338
16.24020527,4.033166113562553,-0.10123969940099459,0.10561329121914242
16.24496017,4.186726685428448,0.08799358447489987,0.24247332908784447
16.24971501,4.317971659791491,0.2719760806499671,0.38227187383831457
16.25446991,4.4270144598597065,0.44988787653470913,0.5241933758013086
16.2592248,4.514087746109271,0.6209675588842172,0.667397154954772
16.26397965,4.579538106542779,0.7845153959736915,0.8110227427367999
16.26873454,4.623820230495808,0.9398960297455904,0.9541954340536632
16.27348944,4.647490622709177,1.0865406693126205,1.0960320228098168
16.27824428,4.65120091437757,1.2239487814285899,1.235646692001149
16.28299918,4.635690827448696,1.3516892778585983,1.372157027082432
16.28775407,4.601780847648229,1.4694012040118802,1.5046901189867452
16.29250892,4.550364660614376,1.5767939377331914,1.6323887208752919
16.29726381,4.482401404195431,1.6736469117203414,1.7544174204597704
16.30201871,4.398907788413072,1.7598088775325775,1.8699687875830504
16.30677355,4.300950132814061,1.8351967334299542,1.9782694546658506
16.31152845,4.1896363689155445,1.8997939421839332,2.078586085621269
16.31628334,4.066108053212326,1.9536485683794367,2.1702311869335893
16.32103819,3.931532433803928,1.9968709674585026,2.252568712889676
16.32579308,3.787094611173353,2.029631160732874,2.3250194155964863
16.33054798,3.633989831066403,2.052155931760328,2.3870658895839103
16.33530282,3.473415944829536,2.0647256798350626,2.4382572606088786
16.34005772,3.306566069999333,2.0676710659296695,2.478213468819783
16.34481256,3.134621481413182,2.061369485320743,2.5066290977359316
16.34956746,2.9587447606346498,2.046241399435729,2.5232767025342926
16.35432236,2.7800732290731576,2.0227465573056596,2.528009593875646
16.3590772,2.5997126878658485,1.9913801345324516,2.520764036891673
16.36383209,2.418731485445031,1.952668814989115,2.5015608289543225
16.36858699,2.238154931806618,1.9071668376447461,2.470506224446427
16.37334183,2.058960076867724,1.8554520280208777,2.4277921799449413
16.37809673,1.882070868958625,1.7981218309382225,2.373695899000635
16.38285163,1.7083537084039822,1.7357893585083854,2.308578662019182
16.38760647,1.5386134102521674,1.6690794648601153,2.2328839335616046
16.39236136,1.3735895894275487,1.5986248569489723,2.14713474658321
16.39711626,1.2139534808146162,1.5250622490577936,2.0519303705672796
16.4018711,1.0603052059519265,1.4490285673106778,1.9479422780163025
16.406626,0.9131714970620844,1.3711572097276212,1.8359094311885584
16.4113809,0.7730038880425092,1.2920743670477726,1.716632918179127
16.41613574,0.6401773807887376,1.2123954097288803,1.590969974336456
16.42089064,0.5149895938452099,1.1327213471394204,1.4598274315310784
16.42564553,0.39766039892443916,1.0536353659172835,1.3241546439800131
16.43040038,0.28833204934132106,0.9756994556790703,1.1849359452533361
16.43515527,0.1870698028737641,0.8994511316359274,1.043182696812548
16.43991012,0.09386303993477256,0.8254002651280329,0.8999249939653405
16.44466501,0.008626876145407343,0.7540260345668667,0.7562031004176761
16.44941991,-0.0687957336459903,0.6857740107186854,0.6130586875586602
16.45417475,-0.13863140519979192,0.6210533916212154,0.471525959087763
16.45892965,-0.2011732565450744,0.5602344036362892,0.3326227454418071
16.46368454,-0.2567773723952136,0.5036458861385359,0.19734165558041009
16.46843939,-0.30585881544920146,0.4515730780785567,0.0666413759635894
16.47319428,-0.34888720207163965,0.40425562512581237,-0.05856179203727063
16.47794918,-0.386381863311402,0.3618858262970158,-0.1774020645214525
16.48270402,-0.41890661574658006,0.3246071389061199,-0.2890718857842053
16.48745892,-0.44706417019365424,0.2925129603092357,-0.3928291270913846
16.49221376,-0.4714902098495031,0.26564570423086237,-0.4880036851900828
16.49696866,-0.49284717290222135,0.24399618841746268,-0.5740033950644199
16.50172355,-0.5118177780160833,0.22750334893239343,-0.650319175168984
16.5064784,-0.5290983343353375,0.21605429449517596,-0.7165293282268179
16.51123329,-0.5453918807209032,0.209484711712748,-0.7723029273821143
16.51598819,-0.5614012018481727,0.20757962867337185,-0.8174022275029733
16.52074303,-0.577821771735145,0.21007454015270016,-0.8516840564764109
16.52549793,-0.5953346785173811,0.21665689286994988,-0.8751001620898158
16.53025277,-0.6145995879042028,0.22696792429996246,-0.8876965148683931
16.53500767,-0.6362478064175071,0.24060484398104204,-0.8896115923116017
16.53976256,-0.660875508718927,0.2571233423791508,-0.881073691537935
16.54451741,-0.6890371956140466,0.2760404092673107,-0.862397333458818
16.5492723,-0.7212394503435062,0.2968374411892642,-0.8339788325220323
16.5540272,-0.7579350603649366,0.31896361581367216,-0.7962911132307954
16.55878204,-0.7995175700716954,0.3418395098284249,-0.7498778594832078
16.56353694,-0.8463163270061885,0.3648609364935373,-0.6953470861358239
16.56829178,-0.8985920803018509,0.38740297906511445,-0.6333642243753214
16.57304668,-0.9565331854282335,0.40882419698185285,-0.5646448135431392
16.57780157,-1.020252463861499,0.42847098289855173,-0.48994689206619685
16.58255642,-1.0897847600990063,0.4456820502516251,-0.41006317921038826
16.58731131,-1.1650852315454028,0.45979303289242734,-0.3258131375670055
16.59206616,-1.2460283992987113,0.4701411802165651,-0.23803500354589832
16.59682105,-1.3324079798391775,0.47607013290627037,-0.14757786977734502
16.60157595,-1.423937509159762,0.4769347656330236,-0.05529389942054894
16.60633079,-1.5202517620947258,0.4721060836157668,0.03796925179914097
16.61108569,-1.6209089606527858,0.46097615966047567,0.13137573425108143
16.61584058,-1.725393756192831,0.44296309720998805,0.22410845647264876
16.62059543,-1.8331209614105497,0.41751600312087866,0.31537562785162343
16.62535032,-1.9434399994281706,0.384119951546296,0.4044168340747615
16.63010522,-2.0556400289000534,0.3423009176485376,0.49050859323557533
16.63486006,-2.1689556960898364,0.2916306570762134,0.5729693472141952
16.63961496,-2.282573457475022,0.23173150436237158,0.651163850718036
16.6443698,-2.395638409713116,0.16228106074061327,0.7245069291345008
16.6491247,-2.5072615578531097,0.0830167394030026,0.7924665859001141
16.65387959,-2.616527447566394,-0.006259866055826253,0.8545664501504943
16.65863444,-2.72250208296338,-0.10567882640119941,0.9103875656714141
16.66338933,-2.8242410483222242,-0.21529797319503693,0.9595695323306849
16.66814418,-2.9207977498521327,-0.33509928745386763,1.001811020964353
16.67289907,-3.011231692504129,-0.4649856231961077,1.036869691843749
16.67765397,-3.094616706866214,-0.6047778107085008,1.0645615550512626
16.68240881,-3.170049042347053,-0.754212186522598,1.0847598179921798
16.68716371,-3.236655245121263,-0.912938599140514,1.0973932705168064
16.69191855,-3.2935997425656214,-1.0805189412742195,1.1024442614504377
16.69667345,-3.340092059982371,-1.2564262604518597,1.0999463216546954
16.70142834,-3.3753936001037617,-1.4400444999323134,1.0899814883058954
16.70618319,-3.3988239210942917,-1.6306689206265548,1.0726773834125434
16.71093808,-3.409766454519498,-1.8275072519439874,1.0482040973670332
16.71569293,-3.4076736111399044,-2.0296816151098667,1.0167709260561621
16.72044782,-3.3920712295778745,-2.236231256608076,0.9786230079419977
16.72520272,-3.3625623310438795,-2.446116122132622,0.9340379054526587
16.72995756,-3.318830152460165,-2.658221292934728,0.8833221726979265
16.73471246,-3.260640440401365,-2.871362296859655,0.8268079486593892
16.7394673,-3.187842999043038,-3.0842912957719264,0.7648496114633193
16.7442222,-3.1003724964035078,-3.2957041395368156,0.6978205251994114
16.74897709,-2.998248544133395,-3.5042482643206823,0.6261099062356561
16.75373194,-2.8815750764770565,-3.708531399774923,0.5501198313911078
16.75848683,-2.7505390633736293,-3.9071310358187845,0.47026240590706236
16.76324168,-2.6054086006683232,-4.0986045854753375,0.38695710503576614
16.76799657,-2.446530426897153,-4.281500165896569,0.30062829925992324
16.77275147,-2.274326921057705,-4.454367905776455,0.21170296960168838
16.77750631,-2.0892926392557745,-4.615771674265272,0.12060861609430615
16.78226121,-1.8919904502562113,-4.7643011147226675,0.027771359233079117
16.78701605,-1.6830473309310299,-4.898583856606271,-0.06638576888094487
16.79177095,-1.4631498825708915,-5.017297770866026,-0.161444349882223
16.79652584,-1.2330396281979923,-5.119183128720878,-0.256991929773374
16.80128069,-0.9935081495649213,-5.203054520872629,-0.3526232059939202
16.80603558,-0.7453921205709909,-5.267812394197124,-0.44794106409724155
16.81079043,-0.48956829143613445,-5.312454065758435,-0.5425574789192872
16.81554532,-0.22694847516944908,-5.336084079504386,-0.6360942965550771
16.82030017,0.04152541530366864,-5.337923778987038,-0.7281839146720619
16.82505506,0.31488623446531594,-5.317319979572522,-0.8184698796866894
16.82980996,0.5921463348092926,-5.2737526354809585,-0.9066074200255386
16.8345648,0.8723021235388242,-5.206841410293324,-0.9922639349636414
16.8393197,1.1543384124982456,-5.116351074019796,-1.0751194582780021
16.84407454,1.4372325332154057,-5.002195665212447,-1.1548671150846646
16.84882944,1.719958194061411,-4.864441372654822,-1.2312135886497035
16.85358433,2.001489061973819,-4.703308107550853,-1.3038796116022726
16.85833918,2.280802056840742,-4.519169753520128,-1.3726004928211637
16.86309407,2.556880352414929,-4.312553097751781,-1.4371266874058972
16.86784892,2.828716083417126,-4.0841354620882395,-1.4972244127588334
16.87260381,3.0953127641965787,-3.834741067387638,-1.5526763091213476
16.87735871,3.3556874298912778,-3.5653361780992108,-1.603282138172063
16.88211355,3.608872516491273,-3.277023086452127,-1.6488595087940277
16.88686845,3.8539175016255967,-2.9710330068594075,-1.6892446151950866
16.89162329,4.089890333349053,-2.6487179609000893,-1.7242929696036104
16.89637819,4.3158786797404085,-2.3115417413923582,-1.7538801100938008
16.90113303,4.530991037668256,-1.961070050488354,-1.777902263891594
16.90588793,4.734357744405552,-1.5989599113727966,-1.7962769477205636
16.91064282,4.925131940509474,-1.2269484560774593,-1.8089434891200569
16.91539767,5.102490536100278,-0.8468411932367933,-1.8158634558386466
16.92015256,5.265635234978758,-0.46049985946781713,-1.8170209839605806
16.92490741,5.41379367164267,-0.06982995668752774,-1.812422998962077
16.9296623,5.546220715077663,0.3232319246248365,-1.8020993270908696
16.9344172,5.662199990221301,0.7167308991286789,-1.78610269710306
16.93917204,5.761045663323907,1.1087066034050486,-1.7645086344001755
16.94392694,5.842104531192454,1.4972059452059423,-1.737415251058144
16.94868178,5.904758446675102,1.880295697751634,-1.7049429363301407
16.95343668,5.948427103940698,2.2560748547851004,-1.6672339531873202
16.95819152,5.972571197379121,2.6226866652196126,-1.6244519475074752
16.96294642,5.976695957549518,2.978330269427553,-1.5767813776417283
16.96770126,5.96035505678247,3.32127186258069,-1.5244268731520718
16.97245616,5.9231548660472715,3.649855314004464,-1.467612532330546
16.97721105,5.864759033772194,3.9625121752812995,-1.4065811685159941
16.9819659,5.784893346672287,4.257771013867911,-1.3415935151091958
16.98672079,5.683350822466325,4.534266013330413,-1.2729273985236418
16.99147564,5.559996974779027,4.790744786008854,-1.2008768871468174
16.99623053,5.414775181634041,5.0260753490529515,-1.1257514228261793
17.00098538,5.247712080858456,5.2392522203543015,-1.047874939548449
17.00574027,5.058922908565358,5.429401596939047,-0.9675849719513359
17.01049512,4.848616690791654,5.595785584859337,-0.885231754176474
17.01525001,4.617101193478992,5.737805456506188,-0.8011773074084009
17.02000491,4.364787532420617,5.8550039185336376,-0.7157945122998199
17.02475975,4.092194342656182,5.9470663811963815,-0.6294661604008468
17.02951465,3.7999514061447197,6.013821227804162,-0.5425839767262212
17.03426949,3.4888026374204784,6.055239091112625,-0.45554760374299086
17.03902439,3.1596083293633064,6.071431151708109,-0.3687635353754398
17.04377923,2.8133465652194163,6.0626464816795105,-0.28264398814414293
17.04853413,2.4511137086155372,6.029268464951581,-0.19760569533339062
17.05328902,2.0741238905426425,5.971810333411035,-0.11406860917306436
17.05804387,1.6837074211487317,5.890909865217458,-0.032454495475242734
17.06279876,1.2813080646418467,5.787323298297104,0.04681459498698594
17.0675536,0.8684791276011106,5.661918517849566,0.1233179937995707
17.0723085,0.44687832444774106,5.515667581693868,0.19663823560890312
17.07706334,0.018261398653315768,5.349638651445332,0.26636304554338
17.08181824,-0.41552550564683427,5.164987400907607,0.3320875046689208
17.08657308,-0.8525547097443973,4.9629479757841315,0.39341640202683925
17.09132798,-1.2908270740675525,4.7448235809762025,0.4499667782665468
17.09608282,-1.7282832304513287,4.511976773451294,0.5013706615413236
17.10083772,-2.162815904411011,4.265819540018844,0.5472779911132195
17.10559262,-2.5922832391711457,4.007803240383806,0.5873597179164026
17.11034746,-3.01452301377382,3.73940849656483,0.6213110640586446
17.11510236,-3.4273676289654484,3.462135110142746,0.6488549148344812
17.1198572,-3.828659717299427,3.1774920888145206,0.6697453073032947
17.12461209,-4.216268218463818,2.88698786333433,0.6837709690268937
17.12936694,-4.588104747584952,2.5921207750893243,0.6907588495410035
17.13412183,-4.942140073422485,2.2943699132363293,0.6905775761334064
17.13887668,-5.276420515233429,1.9951863784571864,0.6831407553122355
17.14363157,-5.589084061993589,1.6959850478966514,0.6684100330357039
17.14838642,-5.878376016015192,1.3981369126224001,0.6463978216764661
17.15314131,-6.142663965113762,1.102962054838045,0.6171696012506257
17.15789621,-6.38045189347331,0.8117233268508515,0.5808457078442457
17.16265105,-6.590393251051505,0.5256207870974816,0.5376025338596238
17.16740595,-6.771302814352471,0.24578693991680425,0.4876730819199378
17.17216079,-6.922167187264052,-0.026717185233485066,0.4313468350672808
17.17691569,-7.0421538090729205,-0.290905093121112,0.36896892774770085
17.18167053,-7.130618357372746,-0.545867015078072,0.3009386227076708
17.18642543,-7.187110455909127,-0.7907712474597101,0.22770711677542754
