"Time (s)","Acceleration x (m/s^2)","Acceleration y (m/s^2)","Acceleration z (m/s^2)"
4.357936000E-3,9.714859724E-1,4.134797573E0,9.726823807E0
9.207624000E-3,9.427721500E-1,4.151547432E0,9.585647583E0
1.405736300E-2,1.002592683E0,4.144368649E0,9.269794464E0
1.890699900E-2,1.117448211E0,4.108476639E0,9.145368576E0
2.375663400E-2,1.148554921E0,4.120440483E0,8.949156761E0
2.860626900E-2,1.457229018E0,3.929014683E0,8.788837433E0
3.345590500E-2,1.191625714E0,4.161118507E0,8.829515457E0
3.830554000E-2,6.412764788E-1,4.091726780E0,8.915657043E0
4.315517600E-2,7.585247755E-1,4.163511276E0,8.839086533E0
4.800481100E-2,1.031306505E0,4.015156269E0,8.681160927E0
5.285444700E-2,1.122233868E0,4.010370731E0,8.729017258E0
5.770408200E-2,1.062413216E0,4.091726780E0,9.011369705E0
6.255376900E-2,1.146162033E0,4.012763500E0,9.059226990E0
6.740335300E-2,1.284945726E0,3.775874138E0,9.090332985E0
7.225304000E-2,1.069591761E0,3.761517286E0,9.214759827E0
7.710267600E-2,8.279166222E-1,3.845266104E0,9.348757744E0
8.195231100E-2,7.537391186E-1,3.838087559E0,9.387042999E0
8.680194700E-2,7.250252366E-1,3.795016766E0,9.410971642E0
9.165158200E-2,6.604190469E-1,3.780659676E0,9.399007797E0
9.650121700E-2,4.857429862E-1,3.747160196E0,9.456435204E0
1.013508530E-1,4.929214716E-1,3.608376503E0,9.382257462E0
1.062004880E-1,4.211367965E-1,3.620340586E0,9.178867340E0
1.110501240E-1,3.014956415E-1,3.816552162E0,9.116654396E0
1.158997590E-1,6.269195080E-1,3.622733593E0,8.908478737E0
1.207493940E-1,6.891329288E-1,3.610769272E0,8.872586250E0
1.255990300E-1,4.737788737E-1,3.751945972E0,8.901300430E0
1.304486650E-1,4.211367965E-1,3.876372576E0,8.855836868E0
1.352983010E-1,4.211367965E-1,3.885943890E0,8.781659126E0
1.401479360E-1,4.450650215E-1,3.842873096E0,8.764909744E0
1.449975720E-1,3.996013701E-1,3.811766386E0,8.776873589E0
1.498472070E-1,4.019941986E-1,3.818944931E0,8.834300995E0
1.546968940E-1,4.857429862E-1,3.763910055E0,8.848658562E0
1.595465300E-1,6.053841114E-1,3.716053486E0,8.884550095E0
1.643961650E-1,6.580262184E-1,3.689732552E0,8.944371223E0
1.692458010E-1,6.723831892E-1,3.723232031E0,9.035298347E0
1.740954360E-1,6.699903607E-1,3.766302824E0,9.090332985E0
1.789450720E-1,7.274180651E-1,3.708875179E0,9.111868858E0
1.837947070E-1,8.015955687E-1,3.694518089E0,9.121439934E0
1.886443420E-1,9.571290612E-1,3.661018610E0,9.090332985E0
1.934939780E-1,1.294517040E0,3.515056372E0,9.047262192E0
1.983436130E-1,1.239482164E0,3.677768469E0,9.059226990E0
2.031932490E-1,1.127019525E0,3.842873096E0,9.025727272E0
2.080428840E-1,1.083948612E0,3.919443607E0,8.930013657E0
2.128925190E-1,1.093519926E0,3.940979004E0,8.807980537E0
2.177421550E-1,1.100698471E0,3.955335855E0,8.683553696E0
2.225917900E-1,1.064806104E0,3.950550079E0,8.635697365E0
2.274414260E-1,9.954141974E-1,3.950550079E0,8.666803360E0
2.322910610E-1,9.379864931E-1,3.907479286E0,8.726624489E0
2.371406970E-1,8.590233326E-1,3.905086517E0,8.796015739E0
2.419903320E-1,7.944171429E-1,3.881158352E0,8.867800713E0
2.467467380E-1,7.800601721E-1,3.840480328E0,8.937192917E0
2.515013220E-1,1.000199914E0,3.560520172E0,8.944371223E0
2.562559050E-1,8.590233326E-1,3.792623997E0,9.008976936E0
2.610104880E-1,6.269195080E-1,4.103690624E0,9.119047165E0
2.657650720E-1,4.666004181E-1,4.304687977E0,9.174081802E0
2.705196550E-1,5.072783828E-1,4.304687977E0,9.078369141E0
2.752742380E-1,6.388836503E-1,4.192225456E0,8.999405861E0
2.800288220E-1,8.973084688E-1,4.036691666E0,8.987442017E0
2.847834050E-1,1.098305583E0,3.945764542E0,9.001798630E0
2.895379880E-1,1.301695466E0,3.955335855E0,9.020941734E0
2.942925720E-1,1.244267821E0,3.969692707E0,9.004191399E0
2.990471550E-1,1.143769264E0,4.005585194E0,9.001798630E0
3.038017380E-1,1.036092162E0,4.041477680E0,8.951549530E0
3.085563220E-1,1.000199914E0,4.017549038E0,8.863015175E0
3.133109050E-1,1.007378340E0,3.998406649E0,8.776873589E0
3.180654880E-1,9.906286001E-1,4.003192425E0,8.697910309E0
3.228200720E-1,1.028913736E0,3.969692707E0,8.690732002E0
3.275746550E-1,1.110269666E0,3.981656790E0,8.690732002E0
3.323292380E-1,1.148554921E0,3.981656790E0,8.705088615E0
3.370838740E-1,1.158126116E0,4.012763500E0,8.736195564E0
3.418384570E-1,1.203589797E0,3.998406649E0,8.752944946E0
3.465930400E-1,1.246660590E0,3.969692707E0,8.800801277E0
3.513476240E-1,1.277767301E0,4.005585194E0,8.839086533E0
3.561022070E-1,1.275374413E0,4.029513359E0,8.853444099E0
3.608567900E-1,1.320838094E0,4.010370731E0,8.822337151E0
3.656113740E-1,1.318445325E0,3.948157310E0,8.798408508E0
3.703659570E-1,1.241874933E0,3.926621914E0,8.707481384E0
3.751205400E-1,1.196411371E0,3.945764542E0,8.662017822E0
3.798751240E-1,1.067198873E0,3.986442566E0,8.609375954E0
3.846297070E-1,9.858429432E-1,3.996013880E0,8.595019341E0
3.893842900E-1,9.308080077E-1,3.955335855E0,8.585447311E0
3.941388740E-1,9.236295223E-1,3.897907972E0,8.599804878E0
3.988934570E-1,9.834501147E-1,3.859622955E0,8.604590416E0
4.036480400E-1,9.571290612E-1,3.852444410E0,8.604590416E0
4.084026240E-1,1.019342422E0,3.835694790E0,8.630910873E0
4.131572070E-1,9.355936646E-1,3.962514400E0,8.587840080E0
4.179117900E-1,9.379864931E-1,4.051048756E0,8.609375954E0
4.226663740E-1,9.379864931E-1,4.108476639E0,8.604590416E0
4.274209570E-1,1.021735311E0,4.120440483E0,8.604590416E0
4.321755400E-1,1.024128079E0,4.113262177E0,8.571090698E0
4.369301240E-1,1.060020447E0,4.103690624E0,8.580661774E0
4.416847590E-1,1.105484009E0,4.108476639E0,8.614161491E0
4.464393420E-1,1.050449133E0,4.153940201E0,8.592626572E0
4.511939260E-1,1.045663476E0,4.153940201E0,8.513663292E0
4.559485090E-1,1.081555843E0,4.101297855E0,8.477770805E0
4.607030920E-1,1.098305583E0,4.082155228E0,8.439485550E0
4.654576760E-1,1.038485050E0,4.053441525E0,8.403593063E0
4.702122590E-1,1.076770186E0,3.979264021E0,8.394021988E0
4.749668420E-1,1.342373490E0,3.761517286E0,8.432307243E0
4.797214260E-1,1.155733347E0,3.902693748E0,8.609375954E0
4.844760090E-1,8.087740541E-1,4.134797573E0,8.726624489E0
4.892305920E-1,7.058826685E-1,4.223331928E0,8.671588898E0
4.939851760E-1,7.298108935E-1,4.211368084E0,8.635697365E0
4.987397590E-1,8.566305041E-1,4.156332970E0,8.652446747E0
5.034943420E-1,1.024128079E0,4.055834293E0,8.642875671E0
5.082489260E-1,1.191625714E0,4.003192425E0,8.671588898E0
5.130035090E-1,1.268195987E0,4.053441525E0,8.712266922E0
5.177580920E-1,1.328016520E0,4.055834293E0,8.717052460E0
5.225126760E-1,1.351944804E0,4.094119549E0,8.724231720E0
5.272672590E-1,1.868794441E0,3.742374659E0,8.657232285E0
5.320218420E-1,1.780260086E0,3.912265062E0,8.757730484E0
5.367764260E-1,1.483550072E0,4.168296814E0,8.829515457E0
5.415310090E-1,1.270588875E0,4.359723091E0,8.815158844E0
5.462855920E-1,1.249053478E0,4.395615101E0,8.760123253E0
5.510401760E-1,1.265803218E0,4.299902439E0,8.681160927E0
5.557947590E-1,1.275374413E0,4.218546391E0,8.592626572E0
5.605493420E-1,1.318445325E0,4.106083870E0,8.492127419E0
5.653039780E-1,1.497906923E0,3.972085476E0,8.482556343E0
5.700585610E-1,1.572084427E0,3.950550079E0,8.470592499E0
5.748131440E-1,1.531406522E0,3.984049797E0,8.489734650E0
5.795677280E-1,1.462014675E0,4.027120590E0,8.472985268E0
5.843223110E-1,1.481157184E0,4.089334011E0,8.449056625E0
5.890768940E-1,1.591227055E0,4.103690624E0,8.401200294E0
5.938314780E-1,1.617548108E0,4.091726780E0,8.264809608E0
5.985860610E-1,1.584048629E0,4.060619831E0,8.087740898E0
6.033406440E-1,1.538584948E0,3.986442566E0,7.905886173E0
6.080952280E-1,1.485942841E0,3.964907169E0,7.733603001E0
6.128498110E-1,1.500299811E0,3.976871252E0,7.578069210E0
6.176043940E-1,1.509871125E0,4.027120590E0,7.420143127E0
6.223589780E-1,1.605584025E0,4.036691666E0,7.269395351E0
6.271135610E-1,1.730010748E0,4.067798615E0,7.113861561E0
6.318681440E-1,1.871187329E0,4.070191383E0,6.910471916E0
6.366227280E-1,1.983649969E0,4.031906128E0,6.726224422E0
6.413773110E-1,2.048256159E0,4.027120590E0,6.431907177E0
6.461318940E-1,2.043470621E0,3.976871252E0,6.128018856E0
6.508864780E-1,1.988435626E0,3.969692707E0,5.848058701E0
6.556410610E-1,1.844866276E0,3.902693748E0,5.608776093E0
6.603956440E-1,1.804188251E0,3.914657831E0,5.501099110E0
6.651502280E-1,1.835294962E0,3.866801500E0,5.510670662E0
6.699048110E-1,1.959721804E0,3.866801500E0,5.603990555E0
6.746593940E-1,2.206182480E0,3.878765583E0,5.752345562E0
6.794139780E-1,2.500499725E0,3.840480328E0,5.955735683E0
6.841686130E-1,2.964707375E0,3.684946775E0,6.087340832E0
6.889231440E-1,3.340380430E0,3.632304668E0,6.398407936E0
6.936777800E-1,3.665804386E0,3.596412420E0,6.683153629E0
6.984323630E-1,3.881158352E0,3.541377544E0,6.900900364E0
7.031869470E-1,4.029513359E0,3.574877024E0,7.085147858E0
7.079415300E-1,4.168296814E0,3.637090445E0,7.216753006E0
7.126961130E-1,4.247260094E0,3.658625841E0,7.293323517E0
7.174506970E-1,4.170690060E0,3.771088600E0,7.384250641E0
7.222052800E-1,4.098905087E0,3.629911900E0,7.338787079E0
7.269598630E-1,3.919443607E0,3.586841106E0,7.283751965E0
7.317144470E-1,3.775874138E0,3.402593851E0,7.113861561E0
7.364690300E-1,3.649054527E0,3.400201082E0,6.898507595E0
7.412236130E-1,3.486342669E0,3.443271875E0,6.585047722E0
7.459781970E-1,3.433700562E0,3.476771355E0,6.266802311E0
7.507327800E-1,3.455235958E0,3.591626883E0,5.912664890E0
7.554873630E-1,3.512663603E0,3.610769272E0,5.548955917E0
7.602419470E-1,3.538984776E0,3.672982693E0,5.285745144E0
7.649965300E-1,3.615555048E0,3.689732552E0,5.053641319E0
7.697511130E-1,3.620340586E0,3.682554007E0,4.953142643E0
7.745056970E-1,3.694518089E0,3.582055569E0,4.795216560E0
7.792602800E-1,3.737588882E0,3.598805189E0,4.845465660E0
7.840148630E-1,3.773481369E0,3.723232031E0,4.967499733E0
7.887694470E-1,3.885943890E0,3.816552162E0,5.151747227E0
7.935240300E-1,3.955335855E0,3.885943890E0,5.455635548E0
7.982786130E-1,4.007977962E0,3.964907169E0,5.793023586E0
8.030331970E-1,4.151547432E0,4.000799656E0,6.185446739E0
8.077877800E-1,4.328616142E0,4.043870449E0,6.565905571E0
8.125423630E-1,4.462614059E0,4.096512318E0,6.876972198E0
8.172969470E-1,4.558327198E0,4.161118507E0,7.089933395E0
8.220515300E-1,4.608576298E0,4.381258488E0,7.245467186E0
8.268061130E-1,4.711467743E0,4.575077057E0,7.233502865E0
8.315606970E-1,5.060820103E0,4.651647091E0,7.068397999E0
8.363152800E-1,5.350351334E0,4.728217602E0,6.893722057E0
8.410699150E-1,5.828916073E0,4.610969067E0,6.649653912E0
8.458244470E-1,5.895915031E0,4.766502857E0,6.690331936E0
8.505790820E-1,6.092126369E0,4.792823792E0,6.589833736E0
8.553336130E-1,6.245266914E0,4.876572609E0,6.522834301E0
8.600882490E-1,6.132804394E0,4.950749874E0,6.563512325E0
8.648428320E-1,5.812166214E0,4.991427898E0,6.719046116E0
8.695974150E-1,5.503491879E0,4.910071850E0,6.865008354E0
8.743519990E-1,5.163711071E0,4.783252239E0,7.180860519E0
8.791065820E-1,4.953142643E0,4.682754040E0,7.568498135E0
8.838611650E-1,4.831109047E0,4.754538536E0,7.877171993E0
8.886157490E-1,4.773681164E0,4.895715237E0,7.893921852E0
8.933703320E-1,4.723432064E0,5.101497650E0,7.575676441E0
8.981249150E-1,4.888536453E0,5.338387489E0,6.635297298E0
9.028794990E-1,5.178068161E0,5.623133183E0,5.347958565E0
9.076340820E-1,5.536991596E0,5.833701611E0,4.041477680E0
9.123886650E-1,5.919843197E0,6.063412666E0,2.947957516E0
9.171432490E-1,6.300302029E0,6.283552170E0,2.086541414E0
9.218978320E-1,6.364908218E0,6.807580471E0,1.789831281E0
9.266524150E-1,7.018148899E0,6.501298904E0,1.292124271E0
9.314069990E-1,7.448856831E0,6.374479294E0,1.198804140E0
9.361615820E-1,7.750352383E0,6.374479294E0,1.761117458E0
9.409161650E-1,8.204988480E0,6.352943897E0,2.749353170E0
9.456707490E-1,8.755337715E0,6.161518097E0,3.850051641E0
9.504253320E-1,9.257830620E0,5.900700569E0,4.910071850E0
9.551799150E-1,9.631111145E0,5.618347645E0,5.840879917E0
9.599344990E-1,9.968499184E0,5.381458282E0,6.683153629E0
9.646890820E-1,1.016949654E1,5.154139996E0,7.329215527E0
9.694436650E-1,1.015274620E1,4.797609329E0,7.558926582E0
9.741982490E-1,9.698110580E0,4.606183529E0,8.075776100E0
9.789528320E-1,9.257830620E0,4.436293125E0,8.319844246E0
9.837074150E-1,8.941978455E0,4.429114819E0,8.642875671E0
9.884619990E-1,8.453842163E0,4.400400639E0,9.040083885E0
9.932165820E-1,8.453842163E0,4.328616142E0,8.630910873E0
9.979711650E-1,8.898907661E0,4.474578381E0,8.001599312E0
1.002725749E0,9.171689034E0,4.936393261E0,7.345965385E0
1.007480332E0,9.147761345E0,5.520241737E0,6.738188744E0
1.012234915E0,8.764909744E0,5.747560024E0,6.223731518E0
1.016989499E0,8.559126854E0,5.525027275E0,5.434100151E0
1.021744082E0,8.587840080E0,5.235496044E0,4.666004181E0
1.026498665E0,8.585447311E0,5.113461971E0,4.240081787E0
1.031253249E0,8.444271088E0,5.063212872E0,4.091726780E0
1.036007832E0,8.279166222E0,4.955535889E0,4.113262177E0
1.040762415E0,8.233702660E0,4.768895626E0,4.264009953E0
1.045516999E0,8.334200859E0,4.529613495E0,4.505684853E0
1.050271582E0,8.422736168E0,4.311866283E0,4.785645485E0
1.055026165E0,8.432307243E0,4.161118507E0,5.041677475E0
1.059780749E0,8.434700012E0,4.048655987E0,5.302495003E0
1.064535332E0,8.434700012E0,3.955335855E0,5.546562672E0
1.069289915E0,8.451449394E0,3.893122435E0,5.749952793E0
1.074044499E0,8.468199730E0,3.828516245E0,5.903093338E0
1.078799082E0,8.499305725E0,3.747160196E0,5.934200287E0
1.083553665E0,8.439485550E0,3.641875982E0,5.721239090E0
1.088308249E0,8.322237015E0,3.675375462E0,5.639883041E0
1.093062832E0,8.202595711E0,3.661018610E0,5.515456200E0
1.097817415E0,8.171489716E0,3.598805189E0,5.333601475E0
1.102572051E0,8.159524918E0,3.582055569E0,5.204389095E0
1.107326582E0,8.121239662E0,3.491128206E0,4.905286312E0
1.112081165E0,8.013563156E0,3.381058455E0,4.563112736E0
1.116835749E0,7.841279984E0,3.297309637E0,4.311866283E0
1.121590332E0,7.604390144E0,3.232703447E0,4.173082829E0
1.126344915E0,7.369893551E0,3.184846878E0,4.153940201E0
1.131099551E0,7.233502865E0,3.103491068E0,4.177868366E0
1.135854134E0,7.546962738E0,3.340380430E0,4.321437836E0
1.140608717E0,7.405786037E0,3.113062143E0,4.570291042E0
1.145363301E0,7.144968510E0,2.799602509E0,4.496113777E0
1.150117884E0,7.176074982E0,2.522035122E0,4.333401680E0
1.154872467E0,7.396214962E0,2.514856577E0,4.275974274E0
1.159627051E0,7.417750359E0,2.711068153E0,4.453042984E0
1.164381634E0,7.269395351E0,2.909672260E0,4.599005222E0
1.169136165E0,7.278966427E0,2.947957516E0,4.685146809E0
1.173890801E0,7.420143127E0,2.885744095E0,4.668396950E0
1.178645332E0,7.554141045E0,2.842673302E0,4.622933388E0
1.183399915E0,7.599604607E0,2.811566591E0,4.572684288E0
1.188154551E0,7.566105366E0,2.868994236E0,4.529613495E0
1.192909082E0,7.501499176E0,2.885744095E0,4.450650215E0
1.197663717E0,7.391428947E0,2.859423161E0,4.441078663E0
1.202418301E0,7.305287361E0,2.837887764E0,4.469792843E0
1.207172884E0,7.238288403E0,2.813959360E0,4.527220249E0
1.211927467E0,7.341179848E0,2.758924484E0,4.668396950E0
1.216682051E0,7.587640762E0,2.751745939E0,4.833501816E0
1.221436634E0,7.795815945E0,2.787638426E0,4.984249592E0
1.226191217E0,7.867600918E0,2.790031195E0,5.082355499E0
1.230945801E0,7.872386456E0,2.780459881E0,5.180460930E0
1.235700384E0,7.905886173E0,2.737389088E0,5.307280540E0
1.240454967E0,7.946564198E0,2.701496840E0,5.391029358E0
1.245209551E0,7.984848976E0,2.675175667E0,5.431707382E0
1.249964134E0,8.044670105E0,2.677568436E0,5.467599869E0
1.254718717E0,8.061419487E0,2.718246460E0,5.565705299E0
1.259473301E0,8.085348129E0,2.809173822E0,5.623133183E0
1.264227884E0,8.073383331E0,2.912065268E0,5.584847927E0
1.268982467E0,8.073383331E0,2.998206854E0,5.491528034E0
1.273737051E0,8.063812256E0,3.096312523E0,5.379065514E0
1.278491634E0,8.011170387E0,3.199203968E0,5.261816978E0
1.283246217E0,7.886743546E0,3.261417150E0,5.154139996E0
1.288000801E0,7.735995770E0,3.306880951E0,5.072783947E0
1.292755384E0,7.642675400E0,3.345165968E0,4.957928658E0
1.297509967E0,7.551748276E0,3.314059258E0,4.792823792E0
1.302264551E0,7.537391186E0,3.278167009E0,4.661218643E0
1.307019134E0,7.633104324E0,3.187239647E0,4.601397991E0
1.311773717E0,7.884350777E0,3.117847919E0,4.646861553E0
1.316528301E0,8.145168304E0,3.017349243E0,4.687539577E0
1.321282884E0,8.374878883E0,2.938386202E0,4.704289436E0
1.326037415E0,8.597412109E0,2.859423161E0,4.737788677E0
1.330792051E0,8.784051895E0,2.842673302E0,4.831109047E0
1.335546634E0,8.872586250E0,2.868994236E0,4.931607246E0
1.340301165E0,8.896514893E0,2.888136864E0,5.005784988E0
1.345055801E0,8.858229637E0,2.924029350E0,5.103890896E0
1.349810332E0,8.793622971E0,2.931207657E0,5.182853699E0
1.354564915E0,8.736195564E0,2.933600664E0,5.218746185E0
1.359319499E0,8.640482903E0,2.914458036E0,5.178068161E0
1.364074134E0,8.595019341E0,2.895315409E0,5.065605640E0
1.368828717E0,8.678768158E0,2.835494757E0,4.922036171E0
1.373583249E0,8.760123253E0,2.818745136E0,4.773681164E0
1.378337832E0,8.884550095E0,2.825923443E0,4.677968502E0
1.383092415E0,8.970691681E0,2.861815929E0,4.622933388E0
1.387846999E0,9.011369705E0,2.883351326E0,4.515256405E0
1.392601582E0,9.131011009E0,2.835494757E0,4.378865242E0
1.397356165E0,9.317651749E0,2.785245657E0,4.242474556E0
1.402110749E0,9.518648148E0,2.756531715E0,4.146761417E0
1.406865332E0,9.576076508E0,2.780459881E0,4.053441525E0
1.411619915E0,9.571290970E0,2.790031195E0,3.945764542E0
1.416374499E0,9.559326172E0,2.775674343E0,3.878765583E0
1.421129082E0,9.568898201E0,2.732603550E0,3.852444410E0
1.425883665E0,9.525827408E0,2.694318295E0,3.897907972E0
1.430638249E0,9.384650230E0,2.612962246E0,3.962514400E0
1.435392832E0,9.162117958E0,2.562713146E0,4.084548473E0
1.440147415E0,8.975478172E0,2.474178553E0,4.266402721E0
1.444901999E0,8.908478737E0,2.407179594E0,4.505684853E0
1.449656582E0,8.896514893E0,2.333002090E0,4.752145767E0
1.454411165E0,8.886942863E0,2.263610125E0,5.008177757E0
1.459165749E0,8.834300995E0,2.172683001E0,5.213960648E0
1.463920332E0,8.772088051E0,2.105684042E0,5.345565796E0
1.468674915E0,8.760123253E0,1.998006940E0,5.443671703E0
1.473429499E0,8.805587769E0,1.907079697E0,5.517848969E0
1.478184082E0,8.872586250E0,1.866401672E0,5.513063431E0
1.482938665E0,8.884550095E0,1.840080619E0,5.412564754E0
1.487693249E0,8.803194046E0,1.842473388E0,5.225924492E0
1.492447832E0,8.793622971E0,1.847259045E0,5.032105923E0
1.497202415E0,8.815158844E0,1.758724689E0,4.862215519E0
1.501956999E0,8.858229637E0,1.696511269E0,4.740181446E0
1.506711582E0,8.846264839E0,1.636690736E0,4.589433670E0
1.511466165E0,8.760123253E0,1.598405480E0,4.498506546E0
1.516220749E0,8.685946465E0,1.552941918E0,4.412364960E0
1.520975332E0,8.621339798E0,1.509871125E0,4.354937077E0
1.525729915E0,8.599804878E0,1.438086390E0,4.283152580E0
1.530484499E0,8.532805443E0,1.392622828E0,4.194618225E0
1.535239082E0,8.405985832E0,1.344766378E0,4.151547432E0
1.539993665E0,8.295916557E0,1.296909928E0,4.106083870E0
1.544748249E0,8.231309891E0,1.263410330E0,3.996013880E0
1.549502832E0,8.243273735E0,1.263410330E0,3.900300980E0
1.554257415E0,8.346165657E0,1.287338614E0,3.783052683E0
1.559011999E0,8.413164139E0,1.371087432E0,3.692125320E0
1.563766582E0,8.494520187E0,1.421336651E0,3.677768469E0
1.568521165E0,8.595019341E0,1.464407444E0,3.718446493E0
1.573275749E0,8.743373871E0,1.469193101E0,3.828516245E0
1.578030332E0,8.992227554E0,1.423729420E0,3.984049797E0
1.582784915E0,9.276973724E0,1.356730461E0,4.094119549E0
1.587539499E0,9.513862610E0,1.292124271E0,4.192225456E0
1.592294082E0,9.678967476E0,1.229910851E0,4.273581028E0
1.597048613E0,9.815358162E0,1.184447169E0,4.295116425E0
1.601803249E0,9.810572624E0,1.110269666E0,4.285545349E0
1.606557780E0,9.748359680E0,1.007378340E0,4.225724697E0
1.611312363E0,9.731609344E0,9.092726111E-1,4.144368649E0
1.616066999E0,9.781859398E0,7.968099117E-1,4.039084435E0
1.620821530E0,9.882357597E0,7.704889178E-1,3.960121393E0
1.625576113E0,9.891928673E0,7.728816867E-1,3.917050600E0
1.630330697E0,9.791430473E0,8.039883971E-1,3.952943087E0
1.635085280E0,9.674181938E0,7.680960894E-1,4.039084435E0
1.639839863E0,9.544969559E0,7.441678643E-1,4.149154663E0
1.644594447E0,9.418149948E0,7.202396393E-1,4.240081787E0
1.649349030E0,9.341579437E0,7.489534616E-1,4.237689018E0
1.654103613E0,9.315258980E0,7.657032609E-1,4.149154663E0
1.658858197E0,9.377471924E0,8.015955687E-1,4.048655987E0
1.663612780E0,9.552147865E0,8.422735929E-1,3.967299938E0
1.668367363E0,9.815358162E0,8.829515576E-1,3.921836376E0
1.673121947E0,1.011685371E1,9.810572863E-1,3.936193228E0
1.677876530E0,1.035852909E1,1.071984529E0,3.952943087E0
1.682631113E0,1.050927734E1,1.165304661E0,4.000799656E0
1.687385697E0,1.053559780E1,1.160519004E0,4.000799656E0
1.692140280E0,1.045424175E1,1.143769264E0,3.952943087E0
1.696894863E0,1.033220863E1,1.081555843E0,3.881158352E0
1.701649447E0,1.013599682E1,1.019342422E0,3.842873096E0
1.706404030E0,9.884750366E0,9.667003751E-1,3.826123476E0
1.711158613E0,9.678967476E0,9.068797827E-1,3.847658873E0
1.715913197E0,9.616754532E0,8.111668825E-1,3.835694790E0
1.720667780E0,9.812965393E0,6.843472719E-1,3.890729666E0
1.725422363E0,1.013360405E1,7.106683254E-1,4.043870449E0
1.730176947E0,1.037288570E1,7.920243144E-1,4.220939159E0
1.734931530E0,1.052363396E1,8.638089895E-1,4.386044025E0
1.739686061E0,1.062891865E1,9.260223508E-1,4.405186653E0
1.744440644E0,1.073659515E1,9.930213690E-1,4.287938118E0
1.749195280E0,1.075813103E1,1.083948612E0,4.139583111E0
1.753949811E0,1.064566803E1,1.155733347E0,3.955335855E0
1.758704394E0,1.052363396E1,1.160519004E0,3.814159393E0
1.763458978E0,1.059302616E1,1.160519004E0,3.704089403E0
1.768213561E0,1.077488041E1,1.153340459E0,3.670589924E0
1.772968144E0,1.085145092E1,1.182054400E0,3.620340586E0
1.777722728E0,1.036570740E1,1.579262972E0,3.809373617E0
1.782477311E0,1.044227791E1,1.296909928E0,3.684946775E0
1.787231894E0,1.050688457E1,9.068797827E-1,3.263810158E0
1.791986478E0,1.003549862E1,6.699903607E-1,2.754138947E0
1.796741061E0,9.614361763E0,5.886343718E-1,2.510071039E0
1.801495644E0,9.150154114E0,5.551348329E-1,2.301895380E0
1.806250228E0,8.752944946E0,4.737788737E-1,2.060220242E0
1.811004811E0,8.506484032E0,3.038884699E-1,1.811366796E0
1.815759394E0,8.281558990E0,1.004985496E-1,1.502692580E0
1.820513978E0,7.934599876E0,-1.674975902E-1,1.284945726E0
1.825268561E0,7.508677483E0,-3.876372576E-1,1.095912814E0
1.830023144E0,7.137789726E0,-6.580262184E-1,9.284151793E-1
1.834777728E0,6.865008354E0,-7.824530005E-1,7.417750359E-1
1.839532311E0,6.606583118E0,-7.728816867E-1,7.585247755E-1
1.844286894E0,6.515655994E0,-7.489534616E-1,8.853443861E-1
1.849041478E0,6.575476646E0,-7.465606928E-1,1.081555843E0
1.853796061E0,6.726224422E0,-6.675975323E-1,9.978070259E-1
1.858550644E0,7.436892986E0,-1.026520967E0,1.016949654E0
1.863305228E0,8.035098076E0,-1.227517962E0,1.306481123E0
1.868059759E0,8.544769287E0,-1.284945726E0,1.818545222E0
1.872814342E0,9.068798065E0,-1.263410330E0,2.189432621E0
1.877568926E0,9.403793335E0,-1.201196909E0,2.426322222E0
1.882323509E0,9.430113792E0,-1.234696507E0,2.620140791E0
1.887078092E0,9.255437851E0,-1.323230863E0,2.730210543E0
1.891832676E0,9.147761345E0,-1.457229018E0,2.770888567E0
1.896587259E0,9.281759262E0,-1.648654819E0,2.785245657E0
1.901341842E0,9.317651749E0,-1.753939033E0,2.340180635E0
1.906096426E0,9.389435768E0,-1.785045743E0,1.418943882E0
1.910851009E0,9.346364975E0,-1.718046665E0,2.297109663E-1
1.915605592E0,9.351150513E0,-1.603191137E0,-1.124626637E0
1.920360176E0,9.305686951E0,-1.505085468E0,-2.426322222E0
1.925114759E0,9.190832138E0,-1.409372568E0,-3.321237803E0
1.929869342E0,9.140582085E0,-1.411765337E0,-3.998406649E0
1.934623926E0,8.951549530E0,-1.483550072E0,-4.261617184E0
1.939378509E0,8.532805443E0,-1.576870084E0,-4.074976921E0
1.944133092E0,8.195417404E0,-1.660618901E0,-3.249453068E0
1.948887676E0,8.092526436E0,-1.801795483E0,-2.079362869E0
1.953642259E0,8.353343964E0,-2.122433662E0,-8.422735929E-1
1.958396842E0,8.556734085E0,-2.411965132E0,4.211367965E-1
1.963151426E0,8.884550095E0,-2.727817774E0,1.433300734E0
1.967906009E0,9.073583603E0,-2.940778971E0,2.141576290E0
1.972660540E0,9.377471924E0,-3.218346357E0,2.768495798E0
1.977415124E0,9.585647583E0,-3.412165165E0,3.136990547E0
1.982169707E0,9.573683739E0,-3.562912941E0,3.251846075E0
1.986924290E0,9.329615593E0,-3.706482172E0,3.357130051E0
1.991678874E0,8.982656479E0,-3.835694790E0,3.299702406E0
1.996433457E0,8.587840080E0,-4.122833252E0,3.043670416E0
2.001188040E0,8.360522270E0,-4.532006264E0,3.067598581E0
2.005942624E0,8.303094864E0,-4.823930264E0,2.773281336E0
2.010697207E0,8.312665939E0,-4.934000492E0,2.555534601E0
2.015451790E0,8.348558426E0,-4.905286312E0,2.433500528E0
2.020206374E0,8.398807526E0,-5.087141037E0,2.313859463E0
2.024960957E0,8.358129501E0,-5.170889854E0,2.110469580E0
2.029715540E0,8.437092781E0,-5.362315655E0,1.612762451E0
2.034470124E0,8.422736168E0,-5.225924492E0,1.201196909E0
2.039224707E0,7.867600918E0,-5.032105923E0,8.422735929E-1
2.043979290E0,8.209774017E0,-5.276174068E0,6.293123364E-1
2.048733874E0,8.293522835E0,-5.297709465E0,5.670989752E-1
2.053488457E0,7.776673794E0,-5.096712112E0,5.623133183E-1
2.058243040E0,7.731209755E0,-5.367101192E0,6.173482537E-1
2.062997572E0,7.592426300E0,-5.714060307E0,6.317051649E-1
2.067752155E0,7.389036179E0,-6.125626087E0,5.527420044E-1
2.072506738E0,7.099504948E0,-6.376872540E0,6.245267391E-1
2.077261322E0,6.896114826E0,-6.637690067E0,9.379864931E-1
2.082015905E0,7.475177765E0,-6.764509678E0,1.184447169E0
2.086770488E0,6.855436802E0,-6.769295216E0,1.770688772E0
2.091525072E0,6.154339790E0,-6.853044033E0,2.136790514E0
2.096279655E0,5.465207100E0,-7.008577347E0,2.342573404E0
2.101034238E0,5.029713154E0,-7.180860519E0,2.411965132E0
2.105788822E0,4.792823792E0,-7.250252724E0,2.268395901E0
2.110543405E0,4.625326157E0,-7.147361279E0,1.993221283E0
2.115297988E0,4.496113777E0,-7.008577347E0,1.794616938E0
2.120052572E0,4.383651257E0,-6.850651264E0,1.763510346E0
2.124807155E0,4.443471432E0,-6.757331371E0,1.835294962E0
2.129561738E0,4.596612453E0,-6.649653912E0,1.887937069E0
2.134316322E0,4.764110088E0,-6.628118515E0,1.897508383E0
2.139070905E0,4.965106964E0,-6.661618233E0,1.993221283E0
2.143825436E0,5.233103275E0,-6.786045074E0,2.062613010E0
2.148580072E0,5.589633465E0,-6.939185619E0,2.167897224E0
2.153334655E0,6.020341873E0,-7.109076023E0,2.297109842E0
2.158089186E0,6.360122681E0,-7.271788120E0,2.574677229E0
2.162843769E0,6.668796539E0,-7.317251682E0,2.754138947E0
2.167598353E0,6.422336102E0,-7.661818027E0,2.928814888E0
2.172352936E0,6.451049805E0,-8.195417404E0,2.979064226E0
2.177107519E0,6.805187702E0,-8.750552177E0,2.959921598E0
2.181862103E0,7.293323517E0,-9.181260109E0,2.959921598E0
2.186616686E0,7.554141045E0,-9.226723671E0,2.902493954E0
2.191371269E0,7.616354465E0,-9.262616158E0,2.675175667E0
2.196125853E0,7.719245911E0,-9.047262192E0,2.210968018E0
2.200880436E0,7.523034573E0,-8.858229637E0,1.423729420E0
2.205635019E0,7.142575741E0,-8.958727837E0,4.833501875E-1
2.210389603E0,6.711867332E0,-9.131011009E0,-4.259224236E-1
2.215144186E0,6.142375946E0,-9.087940216E0,-9.978070259E-1
2.219898769E0,5.592026711E0,-8.970691681E0,-1.028913736E0
2.224653353E0,5.158925533E0,-8.748159409E0,-3.493520916E-1
2.229407936E0,4.663611412E0,-8.453842163E0,4.666004181E-1
2.234162467E0,4.199403763E0,-8.061419487E0,1.191625714E0
2.238917051E0,3.751945972E0,-7.724031448E0,1.732403636E0
2.243671634E0,3.335594654E0,-7.405786037E0,1.969292998E0
2.248426217E0,3.024527788E0,-7.144968510E0,1.928615093E0
2.253180801E0,2.811566591E0,-6.912864685E0,1.753939033E0
2.257935384E0,2.732603550E0,-6.711867332E0,1.433300734E0
2.262689967E0,2.782852650E0,-6.525227547E0,9.427721500E-1
2.267444551E0,2.900100946E0,-6.472585201E0,3.684946895E-1
2.272199134E0,3.048455954E0,-6.510870457E0,-2.153540403E-2
2.276953717E0,3.223132133E0,-6.577869415E0,-2.321037948E-1
2.281708301E0,3.311666489E0,-6.630511761E0,-2.321037948E-1
2.286462884E0,3.440878868E0,-6.838686943E0,-1.004985496E-1
2.291217467E0,3.349951744E0,-6.829115868E0,2.105683982E-1
2.295972051E0,3.433700562E0,-7.094718933E0,6.005984545E-1
2.300726634E0,3.196810961E0,-7.001399040E0,7.968099117E-1
2.305481165E0,2.837887764E0,-6.845865726E0,8.255237937E-1
2.310235749E0,2.510071039E0,-6.788437843E0,7.489534616E-1
2.314990332E0,2.117648125E0,-6.711867332E0,7.369893789E-1
2.319744915E0,1.741974831E0,-6.731009960E0,9.667003751E-1
2.324499499E0,1.507478237E0,-7.034898758E0,1.131805062E0
2.329254082E0,1.732403636E0,-7.712067604E0,1.524227977E0
2.334008665E0,2.100898266E0,-8.456234932E0,1.519442320E0
2.338763249E0,2.459821701E0,-9.176474571E0,1.514656782E0
2.343517832E0,2.794816732E0,-9.812965393E0,1.653440475E0
2.348272415E0,3.103491068E0,-1.038006496E1,1.593619823E0
2.353026999E0,3.409772158E0,-1.096152020E1,1.545763373E0
2.357781582E0,3.742374659E0,-1.160040379E1,1.485942841E0
2.362536165E0,4.091726780E0,-1.218425274E1,1.682154298E0
2.367290749E0,4.297509670E0,-1.290688515E1,1.701296926E0
2.372045332E0,4.529613495E0,-1.365105343E1,1.691725612E0
2.376799915E0,4.716253281E0,-1.439761353E1,1.718046665E0
2.381554447E0,4.960321426E0,-1.505803299E1,1.758724689E0
2.386309030E0,5.101497650E0,-1.589552116E1,1.942971945E0
2.391063613E0,5.213960648E0,-1.657508278E1,2.222932339E0
2.395818197E0,5.237888813E0,-1.697229195E1,2.400001049E0
2.400572780E0,5.127819061E0,-1.718285942E1,2.610569477E0
2.405327363E0,4.766502857E0,-1.701775551E1,2.825923443E0
2.410081947E0,4.120440483E0,-1.644826317E1,2.943171740E0
2.414836530E0,3.357130051E0,-1.568973827E1,2.904886723E0
2.419591113E0,2.725425005E0,-1.489053535E1,2.787638426E0
2.424345697E0,2.383251429E0,-1.362473202E1,2.478964329E0
2.429100280E0,2.141576290E0,-1.276810169E1,2.462214470E0
2.433854863E0,1.727617979E0,-1.192582798E1,2.335394859E0
2.438609447E0,1.433300734E0,-1.115533924E1,2.218146563E0
2.443364030E0,1.201196909E0,-1.047817039E1,2.098505497E0
2.448118613E0,9.954141974E-1,-9.832108498E0,1.993221283E0
2.452873144E0,8.901300430E-1,-9.286544800E0,1.909472466E0
2.457627728E0,8.159525394E-1,-8.920442581E0,1.883151412E0
2.462382311E0,7.274180651E-1,-8.611768723E0,1.797009826E0
2.467136894E0,6.221339107E-1,-8.310273170E0,1.725225091E0
2.471891478E0,5.694918036E-1,-8.054241180E0,1.677368641E0
2.476646061E0,5.455635786E-1,-7.769495010E0,1.598405480E0
2.481400644E0,5.479564071E-1,-7.460821152E0,1.404586911E0
2.486155228E0,8.374879360E-1,-7.503891945E0,1.502692580E0
2.490909811E0,9.738788009E-1,-7.637889862E0,1.428515077E0
2.495664394E0,9.954141974E-1,-7.776673794E0,1.351944804E0
2.500418978E0,1.050449133E0,-7.977670670E0,1.363908887E0
2.505173561E0,1.186840057E0,-8.197810173E0,1.373480201E0
2.509928144E0,1.361516118E0,-8.420342445E0,1.430907965E0
2.514682728E0,1.634297848E0,-8.580661774E0,1.531406522E0
2.519437311E0,1.864008784E0,-8.714659691E0,1.631905079E0
2.524191842E0,2.117648125E0,-8.819944382E0,1.758724689E0
2.528946426E0,2.404786825E0,-8.937192917E0,1.931007862E0
2.533701009E0,2.684746981E0,-9.052047729E0,2.021935225E0
2.538455592E0,2.971885681E0,-9.147761345E0,2.084148407E0
2.543210176E0,3.136990547E0,-9.238688469E0,2.184647083E0
2.547964759E0,3.433700562E0,-9.372686386E0,2.220539331E0
2.552719342E0,3.594019651E0,-9.305686951E0,2.289931297E0
2.557473926E0,3.665804386E0,-9.075976372E0,2.330609322E0
2.562228509E0,3.699303865E0,-8.776873589E0,2.294716835E0
2.566983092E0,3.878765583E0,-8.669196129E0,2.400001049E0
2.571737676E0,4.005585194E0,-8.762516975E0,2.402393818E0
2.576492259E0,4.098905087E0,-8.944371223E0,2.321038008E0
2.581246842E0,4.072584152E0,-9.018548965E0,2.230110645E0
2.586001426E0,4.086941242E0,-9.119047165E0,2.191825628E0
2.590755957E0,4.053441525E0,-9.109476089E0,2.132004976E0
2.595510592E0,4.015156269E0,-9.162117958E0,2.141576290E0
2.600265124E0,3.900300980E0,-9.221938133E0,2.055434704E0
2.605019707E0,3.852444410E0,-9.391828537E0,1.962114573E0
2.609774290E0,3.857230186E0,-9.463613510E0,1.830509305E0
2.614528874E0,3.993621111E0,-9.686145782E0,1.708475351E0
2.619283457E0,4.053441525E0,-9.822537422E0,1.564906001E0
2.624038040E0,4.039084435E0,-9.896714211E0,1.445264935E0
2.628792624E0,4.051048756E0,-1.004028416E1,1.325623751E0
2.633547207E0,4.352544308E0,-1.040877819E1,1.182054400E0
2.638301790E0,4.474578381E0,-1.076052380E1,9.427721500E-1
2.643056374E0,4.642076015E0,-1.107159042E1,3.062812984E-1
2.647810957E0,4.934000492E0,-1.136112213E1,-7.537391186E-1
2.652565540E0,5.266602516E0,-1.142812061E1,-1.775474429E0
2.657320124E0,5.642275810E0,-1.150469112E1,-2.404786825E0
2.662074655E0,5.922235966E0,-1.142333508E1,-2.352144718E0
2.666829238E0,6.049055576E0,-1.122712421E1,-1.663011789E0
2.671583822E0,6.147161484E0,-1.097109222E1,-7.848458290E-1
2.676338405E0,6.118447304E0,-1.065763187E1,2.392822644E-3
2.681092988E0,5.970092297E0,-1.025563812E1,6.340979934E-1
2.685847572E0,5.596812248E0,-9.762716293E0,1.052842021E0
2.690602155E0,4.948357105E0,-9.221938133E0,1.337587833E0
2.695356738E0,4.287938118E0,-8.779266357E0,1.454836130E0
2.700111322E0,3.766302824E0,-8.461020470E0,1.485942841E0
2.704865905E0,3.381058455E0,-8.291130066E0,1.473978758E0
2.709620488E0,3.091526747E0,-8.185846329E0,1.442872047E0
2.714375072E0,2.880958557E0,-8.185846329E0,1.447657704E0
2.719129655E0,2.737389088E0,-8.281558990E0,1.471585870E0
2.723884238E0,2.612962246E0,-8.453842163E0,1.483550072E0
2.728638822E0,2.577069998E0,-8.640482903E0,1.517049551E0
2.733393353E0,2.514856577E0,-8.803194046E0,1.538584948E0
2.738147936E0,2.455035925E0,-8.994620323E0,1.529013634E0
2.742902519E0,2.400001049E0,-9.159725189E0,1.543370605E0
2.747657103E0,2.323430777E0,-9.303294182E0,1.552941918E0
2.752411686E0,2.234896421E0,-9.403793335E0,1.562513232E0
2.757166269E0,2.139183521E0,-9.458827972E0,1.562513232E0
2.761920853E0,2.079362869E0,-9.485149384E0,1.576870084E0
2.766675436E0,1.983649969E0,-9.497113228E0,1.619940877E0
2.771430019E0,1.916650891E0,-9.482755661E0,1.682154298E0
2.776184603E0,1.940579176E0,-9.391828537E0,1.739582062E0
2.780939186E0,1.969292998E0,-9.341579437E0,1.777867198E0
2.785693769E0,2.050648928E0,-9.133403778E0,1.603191137E0
2.790448353E0,2.148754835E0,-9.095118523E0,1.686939955E0
2.795202936E0,2.036292076E0,-9.166903496E0,1.797009826E0
2.799957467E0,1.866401672E0,-9.219545364E0,1.825723648E0
2.804712051E0,1.744367719E0,-9.248259544E0,1.861616015E0
2.809466634E0,1.622333765E0,-9.303294182E0,1.890329838E0
2.814221217E0,1.481157184E0,-9.387042999E0,1.945364833E0
2.818975801E0,1.392622828E0,-9.382257462E0,1.916650891E0
2.823730384E0,1.342373490E0,-9.422935486E0,1.945364833E0
2.828484967E0,1.320838094E0,-9.485149384E0,1.923829436E0
2.833239551E0,1.253839016E0,-9.518648148E0,1.902294040E0
2.837994134E0,1.184447169E0,-9.592825890E0,1.895115495E0
2.842748717E0,1.122233868E0,-9.633503914E0,1.883151412E0
2.847503301E0,1.069591761E0,-9.707681656E0,1.804188251E0
2.852257884E0,1.086341500E0,-9.700503349E0,1.674975872E0
2.857012467E0,1.227517962E0,-9.633503914E0,1.524227977E0
2.861767051E0,1.428515077E0,-9.549755096E0,1.316052437E0
2.866521634E0,1.622333765E0,-9.442078590E0,1.174875975E0
2.871276165E0,1.804188251E0,-9.348757744E0,1.045663476E0
2.876030749E0,1.957328916E0,-9.238688469E0,9.714859724E-1
2.880785332E0,2.093719721E0,-9.162117958E0,8.925228715E-1
2.885539915E0,2.249253273E0,-9.111868858E0,8.662018180E-1
2.890294499E0,2.383251429E0,-9.030512810E0,7.944171429E-1
2.895049082E0,2.555534601E0,-9.006584167E0,7.154539824E-1
2.899803665E0,2.746960402E0,-8.994620323E0,5.886343718E-1
2.904558249E0,2.974278450E0,-9.018548965E0,3.230310678E-1
2.909312832E0,3.259024382E0,-9.013762474E0,-1.794617027E-1
2.914067415E0,3.663411379E0,-9.080761909E0,-8.973084688E-1
2.918821999E0,4.161118507E0,-9.157332420E0,-1.646261930E0
2.923576582E0,4.589433670E0,-9.312865257E0,-2.230110645E0
2.928331165E0,4.914857864E0,-9.442078590E0,-2.352144718E0
2.933085749E0,5.168497086E0,-9.628718376E0,-2.050648928E0
2.937840332E0,5.376672268E0,-9.848857880E0,-1.552941918E0
2.942594863E0,5.556134224E0,-1.010967541E1,-1.026520967E0
2.947349447E0,5.769095421E0,-1.041595650E1,-6.388836503E-1
2.952104030E0,5.977271080E0,-1.070309544E1,-4.043870270E-1
2.956858613E0,6.178267956E0,-1.095434189E1,-3.565305769E-1
2.961613197E0,6.321837425E0,-1.113858986E1,-4.450650215E-1
2.966367780E0,6.680760860E0,-1.144965649E1,-5.455635786E-1
2.971122363E0,7.025327206E0,-1.161476135E1,-7.465606928E-1
2.975876947E0,7.314858913E0,-1.166979599E1,-8.422735929E-1
2.980631530E0,7.578069210E0,-1.159561825E1,-8.303094506E-1
2.985386113E0,7.752745152E0,-1.143051338E1,-7.465606928E-1
2.990140697E0,8.068597794E0,-1.118644619E1,-6.412764788E-1
2.994895280E0,8.231309891E0,-1.101655579E1,-3.445664644E-1
2.999649863E0,8.329415321E0,-1.080359459E1,-7.896314561E-2
3.004404447E0,8.434700012E0,-1.064088249E1,2.464607358E-1
3.009159030E0,8.413164139E0,-1.050927734E1,5.623133183E-1
3.013913613E0,8.451449394E0,-1.043988514E1,1.004985452E0
3.018668197E0,8.463413239E0,-1.044945621E1,1.435693622E0
3.023422780E0,8.439485550E0,-1.045902824E1,1.816152334E0
3.028177311E0,8.305487633E0,-1.050927734E1,2.151147604E0
3.032931894E0,8.090133667E0,-1.061456108E1,2.356930256E0
3.037686478E0,7.757531166E0,-1.070788097E1,2.371287346E0
3.042441061E0,7.058826923E0,-1.080598736E1,2.273181438E0
3.047195644E0,6.168696880E0,-1.089212894E1,2.079362869E0
3.051950228E0,5.151747227E0,-1.105005455E1,1.849651933E0
3.056704811E0,4.295116425E0,-1.105244732E1,1.612762451E0
3.061459394E0,3.531806231E0,-1.132283688E1,1.619940877E0
3.066213978E0,2.888136864E0,-1.146162033E1,1.720439434E0
3.070968561E0,2.344966173E0,-1.160758305E1,1.835294962E0
3.075723144E0,1.866401672E0,-1.165304661E1,1.904686809E0
3.080477728E0,1.574477315E0,-1.171286678E1,2.021935225E0
3.085232311E0,1.502692580E0,-1.170090294E1,2.163111687E0
3.089986894E0,1.320838094E0,-1.166022491E1,2.194218397E0
3.094741478E0,9.427721500E-1,-1.150229836E1,2.277967215E0
3.099496061E0,5.335994363E-1,-1.141137123E1,2.390429735E0
3.104250644E0,2.057827413E-1,-1.128455162E1,2.577069998E0
3.109005176E0,-2.392822653E-1,-1.112901783E1,2.723032236E0
3.113759759E0,-7.130611539E-1,-1.105244732E1,2.787638426E0
3.118514342E0,-1.205982566E0,-1.100698376E1,2.828316450E0
3.123268926E0,-1.603191137E0,-1.101894855E1,2.878565550E0
3.128023509E0,-1.940579176E0,-1.112662506E1,2.931207657E0
3.132778092E0,-2.208575249E0,-1.128215885E1,3.043670416E0
3.137532676E0,-2.337787628E0,-1.134437180E1,2.823530674E0
3.142287259E0,-2.356930256E0,-1.174397373E1,2.565105915E0
3.147041842E0,-2.287538528E0,-1.196650600E1,2.158325911E0
3.151796426E0,-2.158325911E0,-1.219621658E1,1.390229940E0
3.156551009E0,-1.651047587E0,-1.243071365E1,-2.009970993E-1
3.161305592E0,-6.891329288E-1,-1.257188988E1,-1.849651933E0
3.166060176E0,4.187439680E-1,-1.260538960E1,-2.249253273E0
3.170814759E0,1.210768223E0,-1.244267750E1,-1.363908887E0
3.175569342E0,1.653440475E0,-1.222732353E1,4.785645381E-2
3.180323926E0,1.741974831E0,-1.199043465E1,1.246660590E0
3.185078509E0,1.797009826E0,-1.174875927E1,1.847259045E0
3.189833092E0,1.966900229E0,-1.148794174E1,1.856830359E0
3.194587676E0,2.277967215E0,-1.124148083E1,1.351944804E0
3.199342259E0,2.713460922E0,-1.093759251E1,6.532405615E-1
3.204096790E0,2.916850805E0,-1.057866859E1,1.244267747E-1
3.208851374E0,3.019742250E0,-1.014556789E1,-1.938186288E-1
3.213605957E0,2.955136061E0,-9.702896118E0,-2.297109663E-1
3.218360540E0,3.146561861E0,-9.303294182E0,-9.092725813E-2
3.223115124E0,3.263810158E0,-8.934800148E0,-7.178467698E-3
3.227869707E0,3.326023579E0,-8.549555779E0,5.024927482E-2
3.232624290E0,3.282952785E0,-8.269595146E0,1.579262912E-1
3.237378874E0,3.287738323E0,-8.001599312E0,1.651047617E-1
3.242133457E0,3.227917671E0,-7.795815945E0,1.507478207E-1
3.246888040E0,3.201596737E0,-7.649854183E0,1.220339537E-1
3.251642624E0,3.153740168E0,-7.582854748E0,1.100698411E-1
3.256397207E0,3.144168854E0,-7.570890903E0,9.332008660E-2
3.261151790E0,3.117847919E0,-7.551748276E0,1.531406492E-1
3.265906374E0,3.012563705E0,-7.621140003E0,2.584248483E-1
3.270660957E0,2.840280533E0,-7.680960655E0,2.991028428E-1
3.275415540E0,2.579462767E0,-7.735995770E0,3.996013701E-1
3.280170124E0,2.218146563E0,-7.800601959E0,4.570291340E-1
3.284924707E0,1.792224169E0,-7.853243828E0,5.168496966E-1
3.289679290E0,1.337587833E0,-7.862815380E0,5.886343718E-1
3.294433874E0,8.781659007E-1,-7.877171993E0,6.460621357E-1
3.299188457E0,4.331009090E-1,-7.886743546E0,7.226324677E-1
3.303943040E0,1.100698411E-1,-7.889136314E0,7.896314859E-1
3.308697624E0,-2.273181528E-1,-7.817351341E0,9.020941257E-1
3.313452207E0,-5.120640397E-1,-7.728816986E0,9.643075466E-1
3.318206738E0,-7.609176040E-1,-7.594819069E0,1.021735311E0
3.322961322E0,-1.021735311E0,-7.439285755E0,1.048056364E0
3.327715905E0,-1.220339537E0,-7.322037220E0,1.067198873E0
3.332470488E0,-1.284945726E0,-7.178467751E0,1.071984529E0
3.337225072E0,-1.272981644E0,-7.075576782E0,1.105484009E0
3.341979655E0,-1.256231904E0,-6.939185619E0,1.100698471E0
3.346734238E0,-1.177268744E0,-6.824330330E0,1.124626637E0
3.351488822E0,-1.050449133E0,-6.671189308E0,1.110269666E0
3.356243405E0,-8.063812256E-1,-6.532405853E0,1.071984529E0
3.360997988E0,-3.996013701E-1,-6.431907177E0,1.067198873E0
3.365752572E0,2.703889608E-1,-6.431907177E0,1.064806104E0
3.370507155E0,1.062413216E0,-6.448657036E0,1.110269666E0
3.375261738E0,1.799402595E0,-6.532405853E0,1.127019525E0
3.380016322E0,2.476571321E0,-6.632904530E0,1.103091240E0
3.384770905E0,3.182454109E0,-6.750152588E0,9.619147182E-1
3.389525488E0,3.943371773E0,-6.862615108E0,7.154539824E-1
3.394280072E0,4.599005222E0,-6.955935478E0,3.900300860E-1
3.399034655E0,5.103890896E0,-7.063612461E0,1.842473447E-1
3.403789238E0,5.553741455E0,-7.123433113E0,5.264209956E-2
3.408543822E0,5.838487148E0,-7.125825882E0,4.307080805E-2
3.413298405E0,6.204588890E0,-7.147361279E0,2.033899277E-1
3.418052988E0,6.290730953E0,-7.058826923E0,3.589234054E-1
3.422807572E0,6.687939167E0,-7.030112743E0,6.532405615E-1
3.427562155E0,7.106683254E0,-7.003791809E0,7.058826685E-1
3.432316738E0,7.420143127E0,-6.874579430E0,8.662018180E-1
3.437071322E0,7.649854183E0,-6.690331936E0,9.858429432E-1
3.441825853E0,7.697710514E0,-6.443871498E0,1.064806104E0
3.446580488E0,7.487142086E0,-6.197410583E0,1.098305583E0
3.451335019E0,7.104290485E0,-5.943771362E0,1.150947690E0
3.456089655E0,6.396014690E0,-5.718846321E0,1.167697430E0
3.460844186E0,5.596812248E0,-5.556134224E0,1.213161111E0
3.465598769E0,4.845465660E0,-5.455635548E0,1.265803218E0
3.470353353E0,4.158725739E0,-5.379065514E0,1.308874011E0
3.475107936E0,3.605983734E0,-5.359922886E0,1.287338614E0
3.479862519E0,3.127419233E0,-5.357530117E0,1.227517962E0
3.484617103E0,2.708675146E0,-5.414957523E0,1.165304661E0
3.489371686E0,2.318645239E0,-5.450850010E0,1.105484009E0
3.494126269E0,1.981257200E0,-5.510670662E0,9.954141974E-1
3.498880853E0,1.710868239E0,-5.608776093E0,9.044869542E-1
3.503635436E0,1.519442320E0,-5.745167255E0,7.968099117E-1
3.508390019E0,1.416550994E0,-5.903093338E0,6.412764788E-1
3.513144603E0,1.385444283E0,-6.049055576E0,5.527420044E-1
3.517899186E0,1.351944804E0,-6.209374905E0,4.666004181E-1
3.522653769E0,1.359123230E0,-6.372086525E0,4.187439680E-1
3.527408353E0,1.406979680E0,-6.534798622E0,4.019941986E-1
3.532162936E0,1.505085468E0,-6.699903488E0,3.852444589E-1
3.536917519E0,1.612762451E0,-6.831508636E0,3.900300860E-1
3.541672103E0,1.808973908E0,-7.049255371E0,5.144568682E-1
3.546426686E0,1.998006940E0,-7.223931789E0,5.718846321E-1
3.551181269E0,2.199003935E0,-7.434499741E0,6.293123364E-1
3.555935853E0,2.373680115E0,-7.613961697E0,6.699903607E-1
3.560690436E0,2.548356056E0,-7.779066563E0,7.226324677E-1
3.565445019E0,2.713460922E0,-7.920242786E0,7.824530005E-1
3.570199603E0,2.828316450E0,-8.030312538E0,8.183453679E-1
3.574954186E0,2.940778971E0,-8.094919205E0,8.638089895E-1
3.579708769E0,3.014956474E0,-8.109275818E0,8.829515576E-1
3.584463353E0,3.122633457E0,-8.097311974E0,9.020941257E-1
3.589217936E0,3.146561861E0,-8.090133667E0,9.092726111E-1
3.593972519E0,3.225524902E0,-8.094919205E0,9.020941257E-1
3.598727103E0,3.268595695E0,-8.128418922E0,9.260223508E-1
3.603481686E0,3.314059258E0,-8.200202942E0,9.260223508E-1
3.608236269E0,3.376272678E0,-8.281558990E0,9.355936646E-1
3.612990853E0,3.455235958E0,-8.394021988E0,9.355936646E-1
3.617745436E0,3.548556089E0,-8.547162056E0,9.308080077E-1
3.622500019E0,3.649054527E0,-8.695517540E0,9.188438654E-1
3.627254603E0,3.716053486E0,-8.848658562E0,8.973084688E-1
3.632009186E0,3.842873096E0,-8.994620323E0,8.949156404E-1
3.636763769E0,3.933800459E0,-9.128618240E0,8.781659007E-1
3.641518353E0,3.981656790E0,-9.233902931E0,8.566305041E-1
3.646272936E0,4.079762459E0,-9.320044518E0,8.350951076E-1
3.651027519E0,4.125226021E0,-9.336793900E0,8.374879360E-1
3.655782103E0,4.153940201E0,-9.288937569E0,8.087740541E-1
3.660536686E0,4.230510235E0,-9.169296265E0,8.087740541E-1
3.665291269E0,4.261617184E0,-9.085547447E0,8.327022791E-1
3.670045853E0,4.333401680E0,-8.949156761E0,8.207381964E-1
3.674800436E0,4.323830605E0,-8.815158844E0,8.398807645E-1
3.679555019E0,4.316651821E0,-8.721838951E0,8.303094506E-1
3.684309603E0,4.292723656E0,-8.669196129E0,8.231309652E-1
3.689064186E0,4.264009953E0,-8.642875671E0,8.350951076E-1
3.693818769E0,4.240081787E0,-8.630910873E0,8.805587292E-1
3.698573353E0,4.235296249E0,-8.695517540E0,9.044869542E-1
3.703327936E0,4.271188259E0,-8.843872070E0,9.690931439E-1
3.708082519E0,4.297509670E0,-8.994620323E0,9.834501147E-1
3.712837103E0,4.302295208E0,-9.219545364E0,9.786644578E-1
3.717591686E0,4.252045631E0,-9.425328255E0,9.762716293E-1
3.722346269E0,4.158725739E0,-9.614361763E0,9.164510965E-1
3.727100853E0,4.074976921E0,-9.822537422E0,8.470591903E-1
3.731855436E0,3.976871252E0,-1.004028416E1,7.944171429E-1
3.736610019E0,3.890729666E0,-1.033460140E1,7.609176040E-1
3.741364603E0,3.852444410E0,-1.071506023E1,7.657032609E-1
3.746119186E0,3.893122435E0,-1.116969585E1,7.728816867E-1
3.750873769E0,3.751945972E0,-1.142572784E1,7.752745152E-1
3.755628353E0,3.838087559E0,-1.181815147E1,8.781659007E-1
3.760382936E0,4.175475597E0,-1.244507027E1,9.188438654E-1
3.765137519E0,4.350151539E0,-1.288535023E1,9.475577474E-1
3.769892103E0,4.541577339E0,-1.318684578E1,1.000199914E0
3.774646686E0,4.960321426E0,-1.361516094E1,1.117448211E0
3.779401269E0,5.285745144E0,-1.401476192E1,1.158126116E0
3.784155853E0,5.558526993E0,-1.427797318E1,1.189232826E0
3.788910436E0,5.800201893E0,-1.441914940E1,1.162911773E0
3.793665019E0,6.096911907E0,-1.461057472E1,1.146162033E0
3.798419603E0,6.307480335E0,-1.444546986E1,1.045663476E0
3.803174186E0,6.309873104E0,-1.402433395E1,9.260223508E-1
3.807928769E0,5.986842155E0,-1.335195065E1,7.250252366E-1
3.812683353E0,5.407779217E0,-1.264846039E1,4.977070987E-1
3.817437936E0,4.766502857E0,-1.207179070E1,2.775674164E-1
3.822192519E0,4.208974838E0,-1.168654537E1,7.657032460E-2
3.826947103E0,3.826123476E0,-1.155015469E1,-1.459621787E-1
3.831701686E0,3.708875179E0,-1.184686470E1,-3.637090325E-1
3.836456269E0,3.854837179E0,-1.240439224E1,-6.269195080E-1
3.841210853E0,4.125226021E0,-1.295713425E1,-8.685946465E-1
3.845965436E0,4.371686935E0,-1.326820183E1,-1.036092162E0
3.850720019E0,4.500899315E0,-1.315334606E1,-1.100698471E0
3.855474603E0,4.515256405E0,-1.272024536E1,-1.000199914E0
3.860229186E0,4.457828522E0,-1.213161087E1,-7.417750359E-1
3.864983769E0,4.333401680E0,-1.152144146E1,-3.996013701E-1
3.869738353E0,4.192225456E0,-1.093280697E1,-7.896314561E-2
3.874492936E0,4.067798615E0,-1.040638542E1,1.794617027E-1
3.879247519E0,3.936193228E0,-9.911071777E0,3.756731451E-1
3.884002103E0,3.744767427E0,-9.442078590E0,5.814558864E-1
3.888756686E0,3.531806231E0,-9.052047729E0,7.345965505E-1
3.893511269E0,3.321237803E0,-8.824729919E0,8.685946465E-1
3.898265853E0,3.074777126E0,-8.796015739E0,9.092726111E-1
3.903020436E0,2.758924484E0,-9.018548965E0,9.714859724E-1
3.907775019E0,2.402393818E0,-9.396614075E0,1.021735311E0
3.912529603E0,2.081755638E0,-9.846465111E0,1.103091240E0
3.917284186E0,1.787438512E0,-1.031067276E1,1.182054400E0
3.922038769E0,1.648654819E0,-1.078205872E1,1.308874011E0
3.926793353E0,1.763510346E0,-1.110269737E1,1.584048629E0
3.931547936E0,1.950150490E0,-1.152383423E1,1.808973908E0
3.936302519E0,2.146361828E0,-1.183250809E1,1.993221283E0
3.941057103E0,2.440679073E0,-1.197607708E1,2.002792597E0
3.945811686E0,2.658426046E0,-1.224885941E1,2.266003132E0
3.950566269E0,2.660818815E0,-1.245942783E1,2.498106956E0
3.955320853E0,2.761317253E0,-1.249292660E1,2.651247501E0
3.960075488E0,2.931207657E0,-1.232064342E1,2.868994236E0
3.964830019E0,3.120240688E0,-1.202871990E1,3.172882795E0
3.969584655E0,3.259024382E0,-1.160997581E1,3.601198196E0
3.974339238E0,3.376272678E0,-1.107637596E1,3.919443607E0
3.979093822E0,3.457628727E0,-1.045663452E1,4.070191383E0
3.983848405E0,3.366701365E0,-9.844072342E0,3.735196114E0
3.988602988E0,3.144168854E0,-9.119047165E0,3.249453068E0
3.993357572E0,2.880958557E0,-8.453842163E0,2.902493954E0
3.998112155E0,2.656033039E0,-7.805387497E0,2.644068956E0
4.002866738E0,2.478964329E0,-7.240681171E0,2.414358139E0
4.007621322E0,2.321038008E0,-6.759724140E0,2.172683001E0
4.012375905E0,2.153540373E0,-6.333801746E0,2.055434704E0
4.017130488E0,1.978864312E0,-5.962913990E0,1.974078655E0
4.021885072E0,1.861616015E0,-5.644668579E0,1.868794441E0
4.026639655E0,1.734796405E0,-5.402993679E0,1.732403636E0
4.031394238E0,1.610369682E0,-5.225924492E0,1.540977836E0
4.036148822E0,1.584048629E0,-5.108676434E0,1.210768223E0
4.040903405E0,1.469193101E0,-5.044070244E0,1.052842021E0
4.045657988E0,1.426122308E0,-5.077569485E0,8.566305041E-1
4.050412572E0,1.418943882E0,-5.204389095E0,6.532405615E-1
4.055167155E0,1.505085468E0,-5.410171986E0,5.024927258E-1
4.059921738E0,1.775474429E0,-5.733202934E0,4.259224236E-1
4.064676322E0,2.072184324E0,-6.108876228E0,4.091726840E-1
4.069430905E0,2.397608280E0,-6.496513367E0,4.067798555E-1
4.074185488E0,2.715853691E0,-6.855436802E0,4.283152521E-1
4.078940072E0,3.062813044E0,-7.118647575E0,4.522434771E-1
4.083694655E0,3.378665686E0,-7.271788120E0,4.905286431E-1
4.088449238E0,3.672982693E0,-7.307680130E0,5.264210105E-1
4.093203874E0,3.962514400E0,-7.271788120E0,6.029912829E-1
4.097958457E0,4.204189301E0,-7.104290485E0,7.441678643E-1
4.102713040E0,4.283152580E0,-6.831508636E0,7.992027402E-1
4.107467624E0,4.261617184E0,-6.530013084E0,7.369893789E-1
4.112222207E0,4.177868366E0,-6.223731518E0,5.503492355E-1
4.116976790E0,4.098905087E0,-5.946164131E0,2.512463629E-1
4.121731374E0,3.957728624E0,-5.694917679E0,-5.024927482E-2
4.126485957E0,3.689732552E0,-5.484349728E0,-3.756731451E-1
4.131240540E0,3.364308596E0,-5.331208706E0,-9.140582681E-1
4.135995124E0,2.780459881E0,-5.271388054E0,-1.964507341E0
4.140749707E0,1.993221283E0,-5.391029358E0,-3.081955671E0
4.145504290E0,1.421336651E0,-5.642275810E0,-3.634697676E0
4.150258874E0,1.351944804E0,-5.991627693E0,-3.388236761E0
4.155013457E0,1.725225091E0,-6.333801746E0,-2.517249346E0
4.159768040E0,2.261217356E0,-6.625725746E0,-1.619940877E0
4.164522624E0,2.780459881E0,-6.879364967E0,-9.499505758E-1
4.169277207E0,3.153740168E0,-7.066005230E0,-5.288137794E-1
4.174031842E0,3.383451223E0,-7.128218651E0,-3.326023519E-1
4.178786426E0,3.632304668E0,-7.130611420E0,-2.895315289E-1
4.183541009E0,3.893122435E0,-7.051648140E0,-4.043870270E-1
4.188295592E0,4.048655987E0,-6.900900364E0,-6.293123364E-1
4.193050176E0,4.182653904E0,-6.738188744E0,-9.738788009E-1
4.197804759E0,4.311866283E0,-6.680760860E0,-1.454836130E0
4.202559342E0,4.460221291E0,-6.695117950E0,-2.117648125E0
4.207313926E0,4.599005222E0,-6.783652306E0,-2.718246460E0
4.212068509E0,4.819144726E0,-6.970292568E0,-3.053241730E0
4.216823092E0,5.024927616E0,-7.192824841E0,-2.878565550E0
4.221577676E0,5.321637630E0,-7.472784996E0,-2.297109842E0
4.226332259E0,5.635097504E0,-7.728816986E0,-1.634297848E0
4.231086842E0,5.864808083E0,-7.941778183E0,-1.016949654E0
4.235841426E0,6.116054535E0,-8.133204460E0,-6.364908218E-1
4.240596009E0,6.362515450E0,-8.279166222E0,-4.953143001E-1
4.245350592E0,6.599404812E0,-8.367700577E0,-4.307080805E-1
4.250105176E0,6.874579430E0,-8.429914474E0,-6.005984545E-1
4.254859811E0,7.144968510E0,-8.494520187E0,-8.901300430E-1
4.259614394E0,7.530212879E0,-8.650053978E0,-1.177268744E0
4.264368978E0,7.908278942E0,-8.894122124E0,-1.378265858E0
4.269123561E0,8.295916557E0,-9.176474571E0,-1.170090318E0
4.273878144E0,8.961120605E0,-9.463613510E0,-6.125625968E-1
4.278632728E0,9.324830055E0,-9.748359680E0,-1.292124242E-1
4.283387311E0,9.662218094E0,-1.015035343E1,2.081755698E-1
4.288141894E0,9.982855797E0,-1.063609695E1,5.144568682E-1
4.292896478E0,1.026520920E1,-1.117448139E1,7.298108935E-1
4.297651061E0,1.043270683E1,-1.171525955E1,8.183453679E-1
4.302405644E0,1.043509960E1,-1.226800156E1,8.662018180E-1
4.307160228E0,1.021735287E1,-1.281117249E1,1.064806104E0
4.311914811E0,9.875179291E0,-1.349073410E1,1.531406522E0
4.316669394E0,9.523433685E0,-1.423490238E1,1.708475351E0
4.321424030E0,8.906085968E0,-1.501496220E1,1.825723648E0
4.326178613E0,8.173882484E0,-1.589552116E1,2.230110645E0
4.330933197E0,7.496713161E0,-1.676411629E1,2.758924484E0
4.335687780E0,6.927221775E0,-1.769492340E1,3.170490026E0
4.340442363E0,6.288337708E0,-1.858983994E1,3.529413462E0
4.345196947E0,5.570491314E0,-1.955414581E1,3.823730469E0
4.349951530E0,4.881358147E0,-2.036531258E1,4.177868366E0
4.354706113E0,4.189832687E0,-2.093719864E1,4.565505505E0
4.359460697E0,3.519842148E0,-2.126501465E1,4.859822750E0
4.364215280E0,2.840280533E0,-2.132483482E1,5.108676434E0
4.368969863E0,2.100898266E0,-2.116451645E1,5.362315655E0
4.373724447E0,1.296909928E0,-2.076970100E1,5.749952793E0
4.378479030E0,3.732803464E-1,-2.031267166E1,6.077769279E0
4.383233665E0,-5.312066078E-1,-1.974557304E1,6.410371780E0
4.387988249E0,-1.115055323E0,-1.897986984E1,5.938985825E0
4.392742832E0,-1.521835208E0,-1.802991867E1,5.304887772E0
4.397497415E0,-1.679761529E0,-1.702732658E1,4.608576298E0
4.402251999E0,-1.660618901E0,-1.596730518E1,3.816552162E0
4.407006582E0,-1.694118381E0,-1.493360615E1,2.172683001E0
4.411761165E0,-3.297309637E0,-1.359362507E1,-5.005784988E0
4.416515749E0,-4.587040901E0,-1.222971630E1,-1.040877819E1
4.421270332E0,-3.665804386E0,-1.105005455E1,-9.454042435E0
4.426024915E0,-1.792224169E0,-9.963713646E0,-6.340980053E0
4.430779551E0,-3.445664644E-1,-8.913264275E0,-3.771088600E0
4.435534134E0,4.905286431E-1,-7.922635555E0,-2.242074728E0
4.440288717E0,8.877372146E-1,-7.034898758E0,-1.737189293E0
4.445043301E0,1.033699393E0,-6.321837425E0,-1.777867198E0
4.449797884E0,1.031306505E0,-5.795416355E0,-1.885544300E0
4.454552467E0,1.007378340E0,-5.405386448E0,-2.005185366E0
4.459307051E0,1.052842021E0,-5.175675392E0,-1.957328916E0
4.464061634E0,9.308080077E-1,-4.907679081E0,-2.124826431E0
4.468816217E0,8.638089895E-1,-4.627718925E0,-2.318645239E0
4.473570801E0,7.322037220E-1,-4.333401680E0,-2.656033039E0
4.478325436E0,5.599204898E-1,-3.991228104E0,-2.912065268E0
4.483080019E0,4.642075896E-1,-3.687339783E0,-2.794816732E0
4.487834603E0,4.522434771E-1,-3.436093330E0,-2.667997360E0
4.492589186E0,5.359922647E-1,-3.333201885E0,-2.368894339E0
4.497343769E0,7.800601721E-1,-3.448057413E0,-1.969292998E0
4.502098353E0,1.138983607E0,-3.735196114E0,-1.351944804E0
4.506852936E0,1.502692580E0,-4.280759811E0,-6.939185858E-1
4.511607519E0,1.864008784E0,-5.008177757E0,-1.555334777E-1
4.516362103E0,2.041077614E0,-5.771488190E0,2.201396823E-1
4.521116686E0,2.038684845E0,-6.501298904E0,4.642075896E-1
4.525871269E0,1.878365755E0,-7.082755089E0,5.766702294E-1
4.530625905E0,1.586441398E0,-7.523034573E0,5.623133183E-1
4.535380488E0,1.337587833E0,-7.755138397E0,5.886343718E-1
4.540135072E0,1.150947690E0,-7.817351341E0,6.843472719E-1
4.544889655E0,1.064806104E0,-7.685746193E0,9.212366939E-1
4.549644238E0,1.014556766E0,-7.511070251E0,1.205982566E0
4.554398822E0,9.978070259E-1,-7.355536938E0,1.457229018E0
4.559153405E0,9.020941257E-1,-7.192824841E0,1.636690736E0
4.563907988E0,8.183453679E-1,-7.046862602E0,1.718046665E0
4.568662624E0,7.704889178E-1,-6.869793892E0,1.615155339E0
4.573417207E0,7.680960894E-1,-6.675975323E0,1.442872047E0
4.578171790E0,7.226324677E-1,-6.465406895E0,1.306481123E0
4.582926374E0,6.699903607E-1,-6.281159401E0,1.234696507E0
4.587680957E0,6.987041831E-1,-6.116054535E0,1.196411371E0
4.592435540E0,8.111668825E-1,-5.984449387E0,1.246660590E0
4.597190124E0,8.374879360E-1,-5.917450428E0,1.320838094E0
4.601944707E0,8.733802438E-1,-5.958128452E0,1.361516118E0
4.606699290E0,9.188438654E-1,-6.001199245E0,1.378265858E0
4.611453874E0,1.067198873E0,-6.180660725E0,1.368694544E0
4.616208509E0,1.330409408E0,-6.417550564E0,1.320838094E0
4.620963092E0,1.665404558E0,-6.759724140E0,1.289731383E0
4.625717676E0,2.074577332E0,-7.154539585E0,1.270588875E0
4.630472259E0,2.505285263E0,-7.635497093E0,1.249053478E0
4.635226842E0,3.024527788E0,-8.166703224E0,1.249053478E0
4.639981426E0,3.668197155E0,-8.729017258E0,1.174875975E0
4.644736009E0,4.307080746E0,-9.288937569E0,1.153340459E0
4.649490592E0,4.960321426E0,-9.812965393E0,1.174875975E0
4.654245228E0,5.625525951E0,-1.019103146E1,1.222732425E0
4.658999811E0,6.192625046E0,-1.042552853E1,1.232303619E0
4.663754394E0,6.826723099E0,-1.060259724E1,1.201196909E0
4.668508978E0,7.286144733E0,-1.064806080E1,1.165304661E0
4.673263561E0,7.597211838E0,-1.055713367E1,1.107876897E0
4.678018144E0,7.812565804E0,-1.041835022E1,1.028913736E0
4.682772728E0,7.965706348E0,-1.019103146E1,9.475577474E-1
4.687527311E0,8.006384850E0,-9.870393753E0,8.494520187E-1
4.692281947E0,8.008777618E0,-9.499505997E0,6.771687865E-1
4.697036530E0,7.994420528E0,-9.037691116E0,4.187439680E-1
4.701791113E0,7.893921852E0,-8.475378036E0,1.028913707E-1
4.706545697E0,7.637889862E0,-7.874779224E0,-4.737788737E-1
4.711300280E0,7.264609337E0,-7.295716286E0,-1.402194023E0
4.716054863E0,6.680760860E0,-6.709474564E0,-3.256631613E0
4.720809447E0,5.816951752E0,-6.149554253E0,-5.309673309E0
4.725564030E0,4.713860512E0,-5.785845280E0,-5.891129494E0
4.730318613E0,4.139583111E0,-5.860022545E0,-5.094319344E0
4.735073249E0,4.524827480E0,-6.398407936E0,-3.672982693E0
4.739827832E0,5.201996326E0,-7.147361279E0,-2.380858421E0
4.744582415E0,5.881557941E0,-8.042277336E0,-1.356730461E0
4.749336999E0,6.238088608E0,-8.848658562E0,-6.556333899E-1
4.754091582E0,6.192625046E0,-9.518648148E0,-2.679961324E-1
4.758846165E0,5.864808083E0,-1.014317513E1,-1.052841991E-1
4.763600801E0,5.556134224E0,-1.081077290E1,9.571290575E-3
4.768355384E0,5.252245903E0,-1.148554897E1,9.092725813E-2
4.773109967E0,5.067998409E0,-1.232782269E1,1.244267747E-1
4.777864551E0,4.972285271E0,-1.319163132E1,2.225325108E-1
4.782619134E0,5.118247509E0,-1.411286831E1,3.708875179E-1
4.787373717E0,5.300102234E0,-1.494556999E1,5.575276613E-1
4.792128301E0,5.572884083E0,-1.571127319E1,7.920243144E-1
4.796882884E0,5.781059742E0,-1.638844299E1,8.566305041E-1
4.801637519E0,5.888736725E0,-1.686700630E1,8.853443861E-1
4.806392103E0,5.821737289E0,-1.714457512E1,8.518448472E-1
4.811146686E0,5.592026711E0,-1.715653801E1,7.992027402E-1
4.815901269E0,5.242674351E0,-1.695075607E1,7.489534616E-1
4.820655853E0,4.857429981E0,-1.659901047E1,7.154539824E-1
4.825410436E0,4.524827480E0,-1.632144356E1,7.680960894E-1
4.830165019E0,4.180261135E0,-1.620180130E1,9.643075466E-1
4.834919655E0,3.919443607E0,-1.629751587E1,1.265803218E0
4.839674238E0,3.713660717E0,-1.621137428E1,1.469193101E0
4.844428822E0,3.670589924E0,-1.630230141E1,1.773081541E0
4.849183405E0,3.340380430E0,-1.633101463E1,1.907079697E0
4.853937988E0,2.825923443E0,-1.620658684E1,1.969292998E0
4.858692572E0,2.251646042E0,-1.590030670E1,1.899901152E0
4.863447155E0,2.002792597E0,-1.534995747E1,1.988435626E0
4.868201790E0,2.194218397E0,-1.464885998E1,2.342573404E0
4.872956374E0,2.469393015E0,-1.381376553E1,2.830709219E0
4.877710957E0,2.691925526E0,-1.290927792E1,3.158525944E0
4.882465540E0,2.785245657E0,-1.193779182E1,3.354737282E0
4.887220124E0,2.830709219E0,-1.097827053E1,3.546163082E0
4.891974707E0,2.792423964E0,-1.004506969E1,3.778266907E0
4.896729290E0,2.746960402E0,-9.231510162E0,3.919443607E0
4.901483926E0,2.634497643E0,-8.530412674E0,4.048655987E0
4.906238509E0,2.486142635E0,-7.913064480E0,4.072584152E0
4.910993092E0,2.321038008E0,-7.422535896E0,4.115654945E0
4.915747676E0,2.146361828E0,-7.032505512E0,4.175475597E0
4.920502259E0,1.971685886E0,-6.764509678E0,4.431507587E0
4.925256842E0,1.789831281E0,-6.745367050E0,4.646861553E0
4.930011478E0,1.249053478E0,-6.989434719E0,4.656432629E0
4.934766061E0,6.771687865E-1,-7.384250641E0,4.290330887E0
4.939520644E0,3.206382394E-1,-7.944170952E0,3.668197155E0
4.944275228E0,1.938186288E-1,-8.563912392E0,3.079562664E0
4.949029811E0,2.727817893E-1,-9.255437851E0,2.562713146E0
4.953784394E0,5.024927258E-1,-9.942177773E0,2.117648125E0
4.958539030E0,8.183453679E-1,-1.057388306E1,1.775474429E0
4.963293613E0,1.282552958E0,-1.116012478E1,1.550549030E0
4.968048197E0,1.806581140E0,-1.167936707E1,1.373480201E0
4.972802780E0,2.323430777E0,-1.202871990E1,1.241874933E0
4.977557363E0,2.801995277E0,-1.213878918E1,1.127019525E0
4.982311947E0,3.117847919E0,-1.198086262E1,1.086341500E0
4.987066582E0,3.144168854E0,-1.133480072E1,1.115055323E0
4.991821165E0,2.857030153E0,-1.054516983E1,1.234696507E0
4.996575749E0,2.545963287E0,-9.683753014E0,1.335195065E0
5.001330332E0,2.268395901E0,-8.932407379E0,1.406979680E0
5.006084915E0,2.062613010E0,-8.212167740E0,1.402194023E0
5.010839499E0,1.926222205E0,-7.561319351E0,1.397408366E0
5.015594134E0,1.847259045E0,-7.025327206E0,1.368694544E0
5.020348717E0,1.818545222E0,-6.515655994E0,1.318445325E0
5.025103301E0,1.823330879E0,-6.061019897E0,1.277767301E0
5.029857884E0,1.816152334E0,-5.666203976E0,1.246660590E0
5.034612467E0,1.799402595E0,-5.314459324E0,1.196411371E0
5.039367051E0,1.823330879E0,-5.048855782E0,1.177268744E0
5.044121686E0,1.689332843E0,-4.713860512E0,1.349551916E0
5.048876269E0,1.447657704E0,-4.292723656E0,1.663011789E0
5.053630853E0,1.191625714E0,-3.936193228E0,1.878365755E0
5.058385436E0,1.062413216E0,-3.701696634E0,1.904686809E0
5.063140019E0,1.048056364E0,-3.560520172E0,1.835294962E0
5.067894655E0,1.227517962E0,-3.637090445E0,1.639083505E0
5.072649238E0,1.641476393E0,-3.917050600E0,1.325623751E0
5.077403822E0,2.105684042E0,-4.256831646E0,9.284151793E-1
5.082158405E0,2.608176708E0,-4.627718925E0,5.694918036E-1
5.086912988E0,3.089133978E0,-4.981856823E0,2.368894368E-1
5.091667572E0,3.524627686E0,-5.314459324E0,-9.810572863E-2
5.096422155E0,3.847658873E0,-5.534598827E0,-4.426721931E-1
5.101176790E0,4.110869408E0,-5.709274769E0,-8.901300430E-1
5.105931374E0,4.503292084E0,-5.879165173E0,-3.665804386E0
5.110685957E0,5.580062389E0,-6.209374905E0,-1.054756260E1
5.115440540E0,6.159125328E0,-6.250052929E0,-1.473260880E1
5.120195124E0,5.771488190E0,-5.986842155E0,-9.367900848E0
5.124949759E0,5.467599869E0,-5.833701611E0,-4.077369690E0
5.129704342E0,5.510670662E0,-5.833701611E0,-1.150947690E0
5.134458926E0,5.764309883E0,-5.962913990E0,-1.914258115E-2
5.139213509E0,5.795416355E0,-6.101697922E0,2.703889608E-1
5.143968092E0,5.699703693E0,-6.295516491E0,2.009970993E-1
5.148722728E0,5.532206059E0,-6.534798622E0,8.614161611E-2
5.153477311E0,5.383851051E0,-6.783652306E0,-8.853443712E-2
5.158231894E0,5.280959606E0,-7.063612461E0,-2.751746178E-1
5.162986478E0,5.192425251E0,-7.401000500E0,-3.828516304E-1
5.167741061E0,5.065605640E0,-7.676175117E0,-4.498506486E-1
5.172495697E0,4.926821709E0,-7.867600918E0,-6.317051649E-1
5.177250280E0,4.675575256E0,-7.802994728E0,-6.484549642E-1
5.182004863E0,4.347758770E0,-7.585247993E0,-5.168496966E-1
5.186759447E0,4.187439442E0,-7.307680130E0,-3.373879790E-1
5.191514030E0,4.295116425E0,-7.154539585E0,-1.986042857E-1
5.196268613E0,4.541577339E0,-7.066005230E0,-1.100698411E-1
5.201023249E0,4.835894585E0,-7.097112179E0,-6.699903309E-2
5.205777832E0,5.154139996E0,-7.188039303E0,-7.417750359E-2
5.210532415E0,5.429314613E0,-7.334001541E0,-1.028913707E-1
5.215286999E0,5.675775528E0,-7.465606689E0,-6.221338734E-2
5.220041634E0,5.929414749E0,-7.618747234E0,1.435693540E-2
5.224796217E0,6.233303070E0,-7.829315662E0,8.614161611E-2
5.229550801E0,6.585047722E0,-8.185846329E0,1.028913707E-1
5.234305384E0,6.970292568E0,-8.602197647E0,1.148554832E-1
5.239059967E0,7.338787079E0,-9.166903496E0,4.785645287E-3
5.243814551E0,7.800601959E0,-9.762716293E0,-1.316052526E-1
5.248569186E0,8.549555779E0,-1.051645565E1,-2.057827413E-1
5.253323769E0,9.442078590E0,-1.129172993E1,-2.775674164E-1
5.258078353E0,1.033220863E1,-1.211007500E1,-3.278166950E-1
5.262832936E0,1.107876873E1,-1.291645622E1,-3.613162339E-1
5.267587519E0,1.172243786E1,-1.366062450E1,-3.206382394E-1
5.272342155E0,1.205982590E1,-1.425165176E1,-2.249253243E-1
5.277096738E0,1.194497108E1,-1.467996693E1,-4.785645381E-2
5.281851322E0,1.191864967E1,-1.554616833E1,5.982056633E-2
5.286605905E0,1.124148083E1,-1.612044525E1,3.637090325E-1
5.291360540E0,1.029631615E1,-1.660858154E1,7.609176040E-1
5.296115124E0,9.300901413E0,-1.701536179E1,1.036092162E0
5.300869707E0,8.183453560E0,-1.730489349E1,1.524227977E0
5.305624290E0,7.195217609E0,-1.757288933E1,2.005185366E0
5.310378874E0,6.553941250E0,-1.769252968E1,2.325823545E0
5.315133509E0,5.991627693E0,-1.788395691E1,2.620140791E0
5.319888092E0,5.357530117E0,-1.792463493E1,2.928814888E0
5.324642676E0,4.567898273E0,-1.790788460E1,3.333201885E0
5.329397259E0,3.811766386E0,-1.771885109E1,3.505485058E0
5.334151842E0,3.120240688E0,-1.744606972E1,3.708875179E0
5.338906478E0,2.349751949E0,-1.720200157E1,3.926621914E0
5.343661061E0,1.586441398E0,-1.697946930E1,4.247260094E0
5.348415644E0,9.116654396E-1,-1.683589935E1,4.448257446E0
5.353170228E0,1.914258152E-1,-1.678804398E1,4.579862595E0
5.357924863E0,-6.101697683E-1,-1.675215149E1,4.716253281E0
5.362679447E0,-1.514656782E0,-1.674736595E1,5.010570526E0
5.367434030E0,-2.065006018E0,-1.658943939E1,4.936393261E0
5.372188613E0,-2.388036966E0,-1.646740532E1,4.756931305E0
5.376943197E0,-2.507678032E0,-1.641237068E1,4.460221291E0
5.381697832E0,-2.488535643E0,-1.624726486E1,3.984049797E0
5.386452415E0,-2.400001049E0,-1.588594913E1,3.347558975E0
5.391206999E0,-2.103291035E0,-1.526620865E1,2.639283419E0
5.395961582E0,-1.832902193E0,-1.454118347E1,1.911865234E0
5.400716217E0,-1.615155339E0,-1.366062450E1,1.031306505E0
5.405470801E0,-2.227717876E0,-1.255274773E1,-3.400201082E0
5.410225384E0,-2.935993433E0,-1.117687416E1,-1.022692394E1
5.414979967E0,-2.175075769E0,-9.911071777E0,-1.037767220E1
5.419734603E0,-7.417750359E-1,-8.913264275E0,-7.348358154E0
5.424489186E0,5.144568682E-1,-8.185846329E0,-4.177868366E0
5.429243769E0,1.304088354E0,-7.549355507E0,-2.043470621E0
5.433998353E0,1.804188251E0,-6.958328247E0,-1.052842021E0
5.438752936E0,2.065006018E0,-6.384050846E0,-8.542376757E-1
5.443507572E0,2.256431818E0,-5.910272121E0,-1.088734269E0
5.448262155E0,2.373680115E0,-5.544169903E0,-1.655833244E0
5.453016738E0,2.378465652E0,-5.324030399E0,-2.335394859E0
5.457771322E0,2.371287346E0,-5.245067120E0,-3.096312523E0
5.462525957E0,2.354537487E0,-5.235496044E0,-3.646661758E0
5.467280540E0,2.297109842E0,-5.266602516E0,-3.998406649E0
5.472035124E0,2.263610125E0,-5.350351334E0,-4.089334011E0
5.476789707E0,2.218146563E0,-5.398207664E0,-3.957728624E0
5.481544290E0,2.148754835E0,-5.477170944E0,-3.579662561E0
5.486298926E0,2.060220242E0,-5.582455158E0,-3.062813044E0
5.491053509E0,1.923829436E0,-5.723631859E0,-2.378465652E0
5.495808092E0,1.674975872E0,-5.828916073E0,-1.653440475E0
5.500562676E0,1.414158225E0,-6.008377552E0,-9.308080077E-1
5.505317311E0,1.150947690E0,-6.087340832E0,-3.254238665E-1
5.510071894E0,9.619147182E-1,-6.116054535E0,1.244267747E-1
5.514826478E0,7.896314859E-1,-6.032305717E0,4.953143001E-1
5.519581061E0,7.250252366E-1,-5.886343479E0,7.178468108E-1
5.524335697E0,6.652047038E-1,-5.632704735E0,8.638089895E-1
5.529090280E0,6.364908218E-1,-5.362315655E0,8.973084688E-1
5.533844863E0,4.905286431E-1,-5.075176716E0,8.063812256E-1
5.538599447E0,3.397808075E-1,-4.843072891E0,7.010970116E-1
5.543354082E0,2.919243574E-1,-4.632504463E0,6.460621357E-1
5.548108665E0,2.009970993E-1,-4.441078663E0,6.436693072E-1
5.552863249E0,1.411765367E-1,-4.299902439E0,5.958128572E-1
5.557617832E0,9.810572863E-2,-4.173082829E0,5.551348329E-1
5.562372467E0,1.124626622E-1,-4.041477680E0,5.240281820E-1
5.567127051E0,1.483550072E-1,-3.917050600E0,4.953143001E-1
5.571881634E0,1.962114573E-1,-3.780659676E0,4.881358147E-1
5.576636217E0,2.368894368E-1,-3.672982693E0,4.977070987E-1
5.581390801E0,3.469592929E-1,-3.584448338E0,5.479564071E-1
5.586145436E0,4.737788737E-1,-3.512663603E0,6.101697683E-1
5.590900019E0,7.322037220E-1,-3.548556089E0,7.226324677E-1
5.595654603E0,1.201196909E0,-3.780659676E0,8.350951076E-1
5.600409238E0,1.694118381E0,-4.199403763E0,9.379864931E-1
5.605163822E0,2.148754835E0,-4.677968502E0,9.930213690E-1
5.609918405E0,2.641676188E0,-5.237888813E0,9.116654396E-1
5.614672988E0,3.151347399E0,-5.907878876E0,8.709874153E-1
5.619427624E0,3.730410576E0,-6.754938126E0,8.685946465E-1
5.624182207E0,4.311866283E0,-7.690532207E0,8.829515576E-1
5.628936790E0,4.859822750E0,-8.659625053E0,8.877372146E-1
5.633691374E0,5.345565796E0,-9.705288887E0,9.667003751E-1
5.638446009E0,5.845665932E0,-1.068395329E1,1.093519926E0
5.643200592E0,6.479763508E0,-1.169611740E1,1.332802176E0
5.647955176E0,7.223931789E0,-1.264128208E1,1.739582062E0
5.652709759E0,7.999206066E0,-1.347398472E1,2.055434704E0
5.657464394E0,8.685946465E0,-1.412004662E1,2.160718918E0
5.662218978E0,9.329615593E0,-1.452204037E1,2.256431818E0
5.666973561E0,9.889535904E0,-1.461536026E1,2.395215511E0
5.671728144E0,1.026281643E1,-1.445025635E1,2.447857618E0
5.676482780E0,1.034656525E1,-1.396929836E1,2.282752752E0
5.681237363E0,1.028195858E1,-1.313181114E1,1.986042738E0
5.685991947E0,9.753145218E0,-1.212921810E1,1.464407444E0
5.690746530E0,9.116654396E0,-1.111466122E1,9.355936646E-1
5.695501165E0,8.547162056E0,-1.018385315E1,3.326023519E-1
5.700255749E0,8.106883049E0,-9.401400566E0,-2.440679073E-1
5.705010332E0,7.690532207E0,-8.863015175E0,-7.824530005E-1
5.709764967E0,7.424928665E0,-8.573483467E0,-1.289731383E0
5.714519551E0,7.312466145E0,-8.633303642E0,-1.775474429E0
5.719274134E0,7.436892986E0,-9.004191399E0,-2.400001049E0
5.724028717E0,7.618747234E0,-9.724431038E0,-3.333201885E0
5.728783353E0,7.501499176E0,-1.055234814E1,-4.244867325E0
5.733537936E0,6.695117950E0,-1.121755219E1,-5.166104317E0
5.738292519E0,5.496313572E0,-1.170568848E1,-5.556134224E0
5.743047103E0,4.309473515E0,-1.214357471E1,-5.479563713E0
5.747801738E0,3.479164124E0,-1.253599739E1,-5.005784988E0
5.752556322E0,3.366701365E0,-1.289492130E1,-4.247260094E0
5.757310905E0,3.921836376E0,-1.315573883E1,-3.390629768E0
5.762065540E0,4.481756687E0,-1.327538013E1,-2.555534601E0
5.766820124E0,4.890929699E0,-1.325623703E1,-1.844866276E0
5.771574707E0,4.945964336E0,-1.314856052E1,-1.404586911E0
5.776329290E0,4.788038254E0,-1.306481171E1,-1.079162955E0
5.781083926E0,4.515256405E0,-1.304327583E1,-8.350951076E-1
5.785838509E0,4.290330887E0,-1.314616776E1,-5.886343718E-1
5.790593092E0,4.053441525E0,-1.331605816E1,-3.206382394E-1
5.795347728E0,3.864408493E0,-1.354816151E1,-1.914258115E-2
5.800102311E0,3.747160196E0,-1.383290768E1,3.278166950E-1
5.804856894E0,3.706482172E0,-1.420858097E1,7.274180651E-1
5.809611478E0,3.572484255E0,-1.464407444E1,1.110269666E0
5.814366113E0,3.249453068E0,-1.501017666E1,1.301695466E0
5.819120697E0,2.955136061E0,-1.529970837E1,1.387837172E0
5.823875280E0,2.691925526E0,-1.547677708E1,1.445264935E0
5.828629915E0,2.467000246E0,-1.560598946E1,1.519442320E0
5.833384499E0,2.282752752E0,-1.563230991E1,1.610369682E0
5.838139082E0,2.218146563E0,-1.545763397E1,1.639083505E0
5.842893665E0,2.065006018E0,-1.518485260E1,1.708475351E0
5.847648249E0,1.928615093E0,-1.476610851E1,1.761117458E0
5.852402884E0,2.009970903E0,-1.426122284E1,1.825723648E0
5.857157467E0,1.986042738E0,-1.386880016E1,1.964507341E0
5.861912103E0,2.002792597E0,-1.344527054E1,2.053041935E0
5.866666686E0,2.041077614E0,-1.307916832E1,2.043470621E0
5.871421269E0,1.981257200E0,-1.274656582E1,2.026720762E0
5.876175853E0,1.940579176E0,-1.240917778E1,2.026720762E0
5.880930488E0,1.828116536E0,-1.205264759E1,2.019542217E0
5.885685072E0,1.629512191E0,-1.177268696E1,2.017149448E0
5.890439655E0,1.402194023E0,-1.153579807E1,2.033899307E0
5.895194290E0,1.105484009E0,-1.140419292E1,2.021935225E0
5.899948874E0,8.374879360E-1,-1.133719349E1,2.141576290E0
5.904703457E0,5.886343718E-1,-1.124148083E1,2.402393818E0
5.909458040E0,4.235295951E-1,-1.113141060E1,2.782852650E0
5.914212676E0,1.818545163E-1,-1.098784161E1,3.304488182E0
5.918967259E0,-7.896314561E-2,-1.075573826E1,3.986442566E0
5.923721842E0,-2.656033039E-1,-1.042313576E1,4.493721008E0
5.928476478E0,-3.900300860E-1,-1.019820976E1,4.838287354E0
5.933231061E0,-2.201396823E-1,-9.978070259E0,4.984249592E0
5.937985644E0,2.153540403E-1,-9.822537422E0,5.161318302E0
5.942740228E0,6.197410822E-1,-9.698110580E0,5.067998409E0
5.947494863E0,8.374879360E-1,-9.566504478E0,4.666004181E0
5.952249447E0,7.345965505E-1,-9.530612946E0,3.914657831E0
5.957004030E0,6.867401004E-1,-9.336793900E0,3.187239647E0
5.961758665E0,6.556333899E-1,-9.123832703E0,2.617748022E0
5.966513249E0,7.274180651E-1,-8.922835350E0,2.170290232E0
5.971267832E0,8.638089895E-1,-8.681160927E0,1.878365755E0
5.976022467E0,9.690931439E-1,-8.446663857E0,1.672582984E0
5.980777051E0,1.024128079E0,-8.130811691E0,1.564906001E0
5.985531634E0,1.000199914E0,-7.867600918E0,1.505085468E0
5.990286269E0,9.978070259E-1,-7.611568928E0,1.481157184E0
5.995040853E0,9.595218897E-1,-7.391428947E0,1.466800332E0
5.999795436E0,9.954141974E-1,-7.202396393E0,1.469193101E0
6.004550019E0,1.050449133E0,-7.077969551E0,1.485942841E0
6.009304655E0,1.124626637E0,-6.994220734E0,1.495514154E0
6.014059238E0,1.162911773E0,-6.987041950E0,1.500299811E0
6.018813874E0,1.246660590E0,-6.965506554E0,1.493121386E0
6.023568457E0,1.330409408E0,-7.001399040E0,1.459621787E0
6.028323040E0,1.440479279E0,-7.037291527E0,1.433300734E0
6.033077676E0,1.591227055E0,-7.101897717E0,1.404586911E0
6.037832259E0,1.732403636E0,-7.159325123E0,1.404586911E0
6.042586842E0,1.899901152E0,-7.243073940E0,1.411765337E0
6.047341426E0,2.084148407E0,-7.305287361E0,1.406979680E0
6.052096061E0,2.244467735E0,-7.331608772E0,1.411765337E0
6.056850644E0,2.404786825E0,-7.381857872E0,1.397408366E0
6.061605228E0,2.450250387E0,-7.357929707E0,1.521835208E0
6.066359863E0,2.464607239E0,-7.290930748E0,1.631905079E0
6.071114447E0,2.526820660E0,-7.207181931E0,1.639083505E0
6.075869030E0,2.605783939E0,-7.159325123E0,1.562513232E0
6.080623665E0,2.682354212E0,-7.099504948E0,1.411765337E0
6.085378249E0,2.744567633E0,-7.106683254E0,1.249053478E0
6.090132832E0,2.885744095E0,-7.123433113E0,1.088734269E0
6.094887467E0,3.041277647E0,-7.183253765E0,8.877372146E-1
6.099642051E0,3.184846878E0,-7.317251682E0,7.393822074E-1
6.104396634E0,3.337987661E0,-7.417750359E0,5.575276613E-1
6.109151269E0,3.476771355E0,-7.566105366E0,4.283152521E-1
6.113905853E0,3.627519131E0,-7.707281590E0,2.153540403E-1
6.118660436E0,3.759124279E0,-7.781459332E0,-9.332008660E-2
6.123415072E0,3.811766386E0,-7.872386456E0,-4.259224236E-1
6.128169655E0,3.907479286E0,-7.905886173E0,-7.944171429E-1
6.132924238E0,3.986442566E0,-7.896314621E0,-1.342373490E0
6.137678874E0,4.225724697E0,-7.858029366E0,-5.493920803E0
6.142433457E0,4.400400639E0,-7.733603001E0,-1.230867958E1
6.147188040E0,4.445864677E0,-7.472784996E0,-1.394776344E1
6.151942676E0,4.807180882E0,-7.192824841E0,-8.350951195E0
6.156697259E0,5.292923450E0,-7.063612461E0,-3.857230186E0
6.161451842E0,5.692524910E0,-6.948757172E0,-1.409372568E0
6.166206478E0,5.903093338E0,-6.781259537E0,-5.192425251E-1
6.170961061E0,5.891129494E0,-6.506084919E0,-2.225325108E-1
6.175715644E0,5.764309883E0,-6.185446739E0,-1.028913707E-1
6.180470280E0,5.553741455E0,-5.886343479E0,-8.853443712E-2
6.185224863E0,5.357530117E0,-5.625525951E0,-1.914258115E-2
6.189979447E0,5.206781864E0,-5.410171986E0,-3.110669367E-2
6.194734082E0,5.170889854E0,-5.300102234E0,-6.939185411E-2
6.199488665E0,5.237888813E0,-5.309673309E0,-8.374879509E-2
6.204243249E0,5.393422127E0,-5.393422127E0,-7.417750359E-2
6.208997884E0,5.639883041E0,-5.532206059E0,-7.657032460E-2
6.213752467E0,5.874379635E0,-5.718846321E0,-1.292124242E-1
6.218507051E0,6.233303070E0,-6.051448345E0,-2.440679073E-1
6.223261686E0,6.592226505E0,-6.434299946E0,-3.517449200E-1
6.228016269E0,6.965506554E0,-6.833901405E0,-5.048855543E-1
6.232770853E0,7.293323517E0,-7.204789162E0,-6.628118753E-1
6.237525488E0,7.556533813E0,-7.554141045E0,-8.662018180E-1
6.242280072E0,7.750352383E0,-7.860422611E0,-1.167697430E0
6.247034655E0,7.838887215E0,-8.154739380E0,-1.588834286E0
6.251789290E0,7.783852100E0,-8.420342445E0,-2.120040894E0
6.256543874E0,7.649854183E0,-8.760123253E0,-2.744567633E0
6.261298457E0,7.372286797E0,-9.176474571E0,-3.299702406E0
6.266053092E0,7.164111137E0,-9.609575272E0,-3.553341627E0
6.270807676E0,6.984649181E0,-1.004746246E1,-3.538984776E0
6.275562259E0,6.769295216E0,-1.050449181E1,-3.292523861E0
6.280316894E0,6.558726788E0,-1.092323494E1,-2.763710260E0
6.285071478E0,6.345765591E0,-1.129412270E1,-2.167897224E0
6.289826061E0,6.226124287E0,-1.166979599E1,-1.550549030E0
6.294580697E0,6.113661766E0,-1.209811115E1,-1.038485050E0
6.299335280E0,6.101697922E0,-1.248574829E1,-5.120640397E-1
6.304089863E0,6.056233883E0,-1.288295746E1,-2.871387079E-2
6.308844499E0,5.996413708E0,-1.340219975E1,4.259224236E-1
6.313599082E0,5.915057659E0,-1.390947819E1,8.183453679E-1
6.318353717E0,5.816951752E0,-1.438804245E1,1.220339537E0
6.323108301E0,5.606383324E0,-1.487617874E1,1.552941918E0
6.327862884E0,5.374279499E0,-1.542892075E1,1.722832322E0
6.332617519E0,5.309673309E0,-1.602712631E1,1.890329838E0
6.337372103E0,5.237888813E0,-1.661576080E1,2.177468538E0
6.342126686E0,5.060820103E0,-1.729532242E1,2.529213428E0
6.346881322E0,5.010570526E0,-1.789113426E1,2.823530674E0
6.351635905E0,4.962714195E0,-1.843430519E1,3.031706333E0
6.356390540E0,4.754538536E0,-1.886262131E1,3.302095175E0
6.361145124E0,4.491328239E0,-1.907318878E1,3.694518089E0
6.365899707E0,4.039084435E0,-1.915933037E1,4.106083870E0
6.370654342E0,3.326023579E0,-1.907558250E1,4.768895626E0
6.375408926E0,2.746960402E0,-1.894636917E1,5.003392220E0
6.380163509E0,2.215753794E0,-1.864487457E1,5.123033047E0
6.384918144E0,1.871187329E0,-1.824527359E1,5.125426292E0
6.389672728E0,1.418943882E0,-1.786720657E1,5.005784988E0
6.394427311E0,1.019342422E0,-1.743649864E1,4.886143684E0
6.399181947E0,5.647061467E-1,-1.704886055E1,4.797609329E0
6.403936530E0,5.742774159E-2,-1.671625900E1,4.823930264E0
6.408691165E0,-3.230310678E-1,-1.639322853E1,4.670789719E0
6.413445749E0,-5.575276613E-1,-1.601755524E1,4.390829563E0
6.418200332E0,-5.048855543E-1,-1.564188194E1,3.912265062E0
6.422954967E0,-3.972085714E-1,-1.530927944E1,3.409772158E0
6.427709551E0,-2.991028428E-1,-1.492403507E1,2.947957516E0
6.432464134E0,-1.938186288E-1,-1.443111324E1,2.493321180E0
6.437218769E0,-3.158525825E-1,-1.382333660E1,2.172683001E0
6.441973353E0,-3.900300860E-1,-1.318684578E1,1.842473388E0
6.446727988E0,-5.934200287E-1,-1.250249863E1,1.552941918E0
6.451482572E0,-7.920243144E-1,-1.178943729E1,1.239482164E0
6.456237155E0,-1.081555843E0,-1.108116150E1,8.494520187E-1
6.460991790E0,-1.308874011E0,-1.038724327E1,3.373879790E-1
6.465746374E0,-2.091326952E0,-9.573683739E0,-2.462214470E0
6.470500957E0,-3.646661758E0,-8.341380119E0,-9.585647583E0
6.475255592E0,-4.709074974E0,-7.056434155E0,-1.196650600E1
6.480010176E0,-4.094119549E0,-6.326622963E0,-8.685946465E0
6.484764811E0,-2.847458839E0,-6.051448345E0,-5.204389095E0
6.489519394E0,-1.639083505E0,-5.955735683E0,-2.928814888E0
6.494273978E0,-8.207381964E-1,-5.816951752E0,-1.689332843E0
6.499028613E0,-2.727817893E-1,-5.714060307E0,-1.033699393E0
6.503783197E0,9.332008660E-2,-5.592026711E0,-8.087740541E-1
6.508537780E0,2.751746178E-1,-5.501099110E0,-1.021735311E0
6.513292415E0,3.661018610E-1,-5.520241737E0,-1.445264935E0
6.518046999E0,5.240281820E-1,-5.682953835E0,-1.844866276E0
6.522801634E0,6.293123364E-1,-5.852844238E0,-2.088934183E0
6.527556217E0,7.010970116E-1,-6.046662807E0,-2.115255117E0
6.532310801E0,7.178468108E-1,-6.288337708E0,-2.005185366E0
6.537065436E0,5.862415433E-1,-6.486942291E0,-1.744367719E0
6.541820019E0,5.120640397E-1,-6.652047157E0,-1.342373490E0
6.546574655E0,5.312066078E-1,-6.829115868E0,-8.135597110E-1
6.551329238E0,5.312066078E-1,-6.814758778E0,-3.589234054E-1
6.556083822E0,5.790630579E-1,-6.742974281E0,9.571290761E-2
6.560838457E0,6.412764788E-1,-6.573083878E0,4.522434771E-1
6.565593040E0,6.173482537E-1,-6.393621922E0,6.795616150E-1
6.570347676E0,5.670989752E-1,-6.144768715E0,6.460621357E-1
6.575102259E0,5.934200287E-1,-5.927021503E0,3.996013701E-1
6.579856842E0,6.532405615E-1,-5.742774487E0,2.584248483E-1
6.584611478E0,6.149554253E-1,-5.618347645E0,2.512463629E-1
6.589366061E0,6.436693072E-1,-5.544169903E0,2.703889608E-1
6.594120644E0,6.723831892E-1,-5.419743061E0,3.230310678E-1
6.598875280E0,6.915257573E-1,-5.290530682E0,4.211367965E-1
6.603629863E0,7.298108935E-1,-5.151747227E0,5.144568682E-1
6.608384499E0,7.944171429E-1,-5.027320385E0,5.982056856E-1
6.613139082E0,9.116654396E-1,-4.890929699E0,6.987041831E-1
6.617893665E0,1.055234790E0,-4.807180882E0,7.298108935E-1
6.622648301E0,1.179661512E0,-4.807180882E0,7.537391186E-1
6.627402884E0,1.332802176E0,-4.862215519E0,7.944171429E-1
6.632157519E0,1.548156261E0,-4.948357105E0,8.015955687E-1
6.636912103E0,1.765903115E0,-5.099104881E0,8.279166222E-1
6.641666686E0,2.050648928E0,-5.316852093E0,8.494520187E-1
6.646421322E0,2.407179594E0,-5.589633465E0,8.183453679E-1
6.651175905E0,2.864208698E0,-5.891129494E0,7.776673436E-1
6.655930540E0,3.340380430E0,-6.247660160E0,7.345965505E-1
6.660685124E0,3.830909014E0,-6.601797581E0,7.393822074E-1
6.665439707E0,4.388436794E0,-7.037291527E0,7.776673436E-1
6.670194342E0,4.931607246E0,-7.539783955E0,8.303094506E-1
6.674948926E0,5.496313572E0,-7.994420528E0,8.805587292E-1
6.679703561E0,5.994020939E0,-8.487341881E0,9.523434043E-1
6.684458144E0,6.541976929E0,-9.059226990E0,1.009771109E0
6.689212728E0,6.989434719E0,-9.566504478E0,1.076770186E0
6.693967363E0,7.439285755E0,-1.007378292E1,1.177268744E0
6.698721947E0,7.836493969E0,-1.057866859E1,1.347159147E0
6.703476582E0,8.245666504E0,-1.098784161E1,1.483550072E0
6.708231165E0,8.518448830E0,-1.127976608E1,1.529013634E0
6.712985749E0,8.750552177E0,-1.143290615E1,1.533799291E0
6.717740384E0,8.834300995E0,-1.133240795E1,1.543370605E0
6.722494967E0,8.898907661E0,-1.105244732E1,1.450050473E0
6.727249603E0,8.786444664E0,-1.050927734E1,1.270588875E0
6.732004186E0,8.477770805E0,-9.944570541E0,1.024128079E0
6.736758769E0,8.135597229E0,-9.200403214E0,7.393822074E-1
6.741513405E0,7.668996811E0,-8.427521706E0,4.546363056E-1
6.746267988E0,7.171289444E0,-7.716853142E0,8.135596663E-2
6.751022624E0,6.666403770E0,-7.010970116E0,-2.632105052E-1
6.755777207E0,6.053841114E0,-6.391229153E0,-5.599204898E-1
6.760531842E0,5.400600910E0,-5.848058701E0,-8.853443861E-1
6.765286426E0,4.881358147E0,-5.371886730E0,-1.112662554E0
6.770041009E0,4.433900356E0,-5.072783947E0,-1.284945726E0
6.774795644E0,4.314259052E0,-4.984249592E0,-1.421336651E0
6.779550228E0,4.654039860E0,-5.465207100E0,-1.521835208E0
6.784304863E0,5.388636589E0,-6.685546398E0,-1.557727575E0
6.789059447E0,5.924628735E0,-8.128418922E0,-1.622333765E0
6.793814030E0,6.096911907E0,-9.286544800E0,-1.746760488E0
6.798568665E0,5.991627693E0,-1.021974564E1,-1.797009826E0
6.803323249E0,5.788238049E0,-1.110987568E1,-1.749153376E0
6.808077884E0,5.568098068E0,-1.196172047E1,-1.706082582E0
6.812832467E0,5.436492920E0,-1.290688515E1,-1.694118381E0
6.817587051E0,5.324030399E0,-1.382333660E1,-1.727617979E0
6.822341686E0,5.331208706E0,-1.463450336E1,-1.768295884E0
6.827096269E0,5.458028316E0,-1.550788403E1,-1.799402595E0
6.831850905E0,5.721239090E0,-1.634297943E1,-1.787438512E0
6.836605488E0,6.017949104E0,-1.718525314E1,-1.665404558E0
6.841360124E0,6.424728870E0,-1.798206139E1,-1.639083505E0
6.846114707E0,6.802794933E0,-1.878126526E1,-1.591227055E0
6.850869290E0,6.754938126E0,-1.917847443E1,-1.512263894E0
6.855623926E0,7.020541668E0,-1.959960938E1,-1.105484009E0
6.860378509E0,7.140182972E0,-2.047059822E1,-8.039883971E-1
6.865133144E0,6.680760860E0,-2.063570213E1,-3.756731451E-1
6.869887728E0,5.938985825E0,-2.018345833E1,1.220339537E-1
6.874642311E0,4.850251675E0,-1.923590088E1,7.202396393E-1
6.879396947E0,3.718446493E0,-1.800838280E1,1.258624673E0
6.884151530E0,2.696711063E0,-1.667318726E1,1.830509305E0
6.888906165E0,2.268395901E0,-1.532842159E1,2.158325911E0
6.893660749E0,2.067398787E0,-1.402911949E1,2.132004976E0
6.898415384E0,1.974078655E0,-1.287577820E1,2.007578135E0
6.903169967E0,1.919043779E0,-1.185404301E1,1.911865234E0
6.907924551E0,1.832902193E0,-1.105005455E1,1.660618901E0
6.912679186E0,1.837687731E0,-1.043031406E1,1.356730461E0
6.917433769E0,1.787438512E0,-9.990034103E0,1.177268744E0
6.922188405E0,1.732403636E0,-9.592825890E0,1.100698471E0
6.926942988E0,1.600798368E0,-9.375079155E0,1.071984529E0
6.931697624E0,1.493121386E0,-9.346364975E0,1.019342422E0
6.936452207E0,1.272981644E0,-9.432506561E0,1.083948612E0
6.941206842E0,1.069591761E0,-9.604789734E0,1.225125194E0
6.945961426E0,9.020941257E-1,-9.851250648E0,1.383051515E0
6.950716009E0,7.992027402E-1,-1.013121128E1,1.619940877E0
6.955470644E0,7.465606928E-1,-1.056670475E1,1.902294040E0
6.960225228E0,7.704889178E-1,-1.108116150E1,2.239681959E0
6.964979863E0,9.571290612E-1,-1.165543938E1,2.715853691E0
6.969734447E0,1.127019525E0,-1.227757263E1,3.290131092E0
6.974489082E0,1.313659668E0,-1.277767277E1,3.957728624E0
6.979243665E0,1.220339537E0,-1.328255844E1,4.630111694E0
6.983998249E0,1.040877819E0,-1.361276817E1,4.876572609E0
6.988752884E0,1.091127157E0,-1.383051491E1,4.955535889E0
6.993507467E0,1.227517962E0,-1.387119293E1,4.941178799E0
6.998262103E0,1.138983607E0,-1.380897903E1,4.421936035E0
7.003016686E0,8.877372146E-1,-1.345005608E1,3.737588882E0
7.007771322E0,7.082754970E-1,-1.286381435E1,3.220739365E0
7.012525905E0,4.091726840E-1,-1.209571838E1,2.794816732E0
7.017280488E0,1.698904037E-1,-1.130130100E1,2.414358139E0
7.022035124E0,5.742774159E-2,-1.048774147E1,2.122433662E0
7.026789707E0,7.417750359E-2,-9.765109062E0,1.880758643E0
7.031544342E0,1.124626622E-1,-9.147761345E0,1.674975872E0
7.036298926E0,1.818545163E-1,-8.606983185E0,1.540977836E0
7.041053561E0,1.387837082E-1,-8.109275818E0,1.529013634E0
7.045808144E0,1.507478207E-1,-7.623532772E0,1.586441398E0
7.050562780E0,2.105683982E-1,-7.195217609E0,1.696511269E0
7.055317363E0,3.613162339E-1,-6.826723099E0,1.864008784E0
7.060071947E0,3.732803464E-1,-6.465406895E0,1.954936147E0
7.064826582E0,3.326023519E-1,-6.154339790E0,1.890329838E0
7.069581165E0,3.517449200E-1,-5.845665932E0,1.761117458E0
7.074335801E0,4.354937077E-1,-5.644668579E0,1.588834286E0
7.079090384E0,5.264210105E-1,-5.501099110E0,1.469193101E0
7.083845019E0,6.412764788E-1,-5.412564754E0,1.368694544E0
7.088599603E0,6.915257573E-1,-5.402993679E0,1.268195987E0
7.093354186E0,7.393822074E-1,-5.448457241E0,1.213161111E0
7.098108822E0,8.350951076E-1,-5.536991596E0,1.160519004E0
7.102863405E0,9.547362328E-1,-5.697310925E0,1.112662554E0
7.107618040E0,1.131805062E0,-5.917450428E0,1.129412293E0
7.112372624E0,1.351944804E0,-6.149554253E0,1.131805062E0
7.117127259E0,1.572084427E0,-6.362515450E0,1.153340459E0
7.121881842E0,1.844866276E0,-6.553941250E0,1.194018483E0
7.126636426E0,2.088934183E0,-6.740581512E0,1.220339537E0
7.131391061E0,2.376072884E0,-6.898507595E0,1.208375454E0
7.136145644E0,2.629712105E0,-7.010970116E0,1.189232826E0
7.140900280E0,2.823530674E0,-7.070790768E0,1.234696507E0
7.145654863E0,2.976671457E0,-7.116254330E0,1.313659668E0
7.150409499E0,3.081955671E0,-7.154539585E0,1.373480201E0
7.155164082E0,3.148954630E0,-7.137789726E0,1.411765337E0
7.159918717E0,3.225524902E0,-7.116254330E0,1.430907965E0
7.164673301E0,3.330809116E0,-7.109076023E0,1.387837172E0
7.169427936E0,3.426522017E0,-7.101897717E0,1.237089276E0
7.174182519E0,3.570091486E0,-7.106683254E0,1.048056364E0
7.178937103E0,3.795016766E0,-7.073183537E0,6.699903607E-1
7.183691738E0,3.931407690E0,-7.030112743E0,2.321037948E-1
7.188446322E0,4.077369690E0,-6.984649181E0,-2.632105052E-1
7.193200957E0,4.132404804E0,-6.884150982E0,-1.392622828E0
7.197955540E0,4.599005222E0,-6.778866768E0,-9.781859398E0
7.202710176E0,4.668396950E0,-6.405586243E0,-1.800838280E1
7.207464759E0,4.610969067E0,-5.922235966E0,-1.371087360E1
7.212219394E0,4.893322468E0,-5.675775528E0,-6.247660160E0
7.216973978E0,5.228317261E0,-5.534598827E0,-2.400001049E0
7.221728613E0,5.302495003E0,-5.395814896E0,-8.685946465E-1
7.226483197E0,5.257031441E0,-5.199603558E0,-3.206382394E-1
7.231237780E0,5.233103275E0,-4.996213913E0,-2.536391914E-1
7.235992415E0,5.039284706E0,-4.754538536E0,-3.565305769E-1
7.240746999E0,4.960321426E0,-4.529613495E0,-5.144568682E-1
7.245501634E0,4.914857864E0,-4.309473515E0,-7.034898400E-1
7.250256217E0,4.905286312E0,-4.173082829E0,-9.619147182E-1
7.255010853E0,5.101497650E0,-4.149154663E0,-1.268195987E0
7.259765436E0,5.467599869E0,-4.271188259E0,-1.378265858E0
7.264520072E0,5.994020939E0,-4.622933388E0,-1.371087432E0
7.269274655E0,6.594619274E0,-5.115854740E0,-1.251446247E0
7.274029290E0,7.144968510E0,-5.661418438E0,-1.136590719E0
7.278783874E0,7.544569969E0,-6.159125328E0,-1.026520967E0
7.283538457E0,7.834101200E0,-6.561119556E0,-9.116654396E-1
7.288293092E0,8.037490845E0,-6.886543751E0,-7.920243144E-1
7.293047676E0,8.035098076E0,-7.046862602E0,-7.920243144E-1
7.297802311E0,7.838887215E0,-7.176074982E0,-8.422735929E-1
7.302556894E0,7.511070251E0,-7.228717327E0,-9.690931439E-1
7.307311530E0,7.152146816E0,-7.389036179E0,-1.091127157E0
7.312066113E0,6.776473522E0,-7.628318787E0,-1.201196909E0
7.316820749E0,6.422336102E0,-7.963313580E0,-1.253839016E0
7.321575332E0,6.168696880E0,-8.449056625E0,-1.174875975E0
7.326329915E0,5.986842155E0,-9.020941734E0,-9.810572863E-1
7.331084551E0,5.838487148E0,-9.676574707E0,-7.393822074E-1
7.335839134E0,5.706882000E0,-1.035135078E1,-4.402793646E-1
7.340593769E0,5.663811207E0,-1.110509014E1,-1.220339537E-1
7.345348353E0,5.740381718E0,-1.189472103E1,2.057827413E-1
7.350102988E0,5.814558983E0,-1.275374508E1,5.264210105E-1
7.354857572E0,5.879165173E0,-1.364148235E1,8.757730722E-1
7.359612207E0,6.058627129E0,-1.453400517E1,1.155733347E0
7.364366790E0,6.223731518E0,-1.534038639E1,1.457229018E0
7.369121426E0,6.419943333E0,-1.612523270E1,1.811366796E0
7.373876009E0,6.474977970E0,-1.687897110E1,2.160718918E0
7.378630644E0,6.534798622E0,-1.751306915E1,2.533999205E0
7.383385228E0,6.527620316E0,-1.807777596E1,2.897708178E0
7.388139863E0,6.293123722E0,-1.859941101E1,3.199203968E0
7.392894447E0,6.135197163E0,-1.898944092E1,3.378665686E0
7.397649030E0,5.912664890E0,-1.917608070E1,3.582055569E0
7.402403665E0,5.503491879E0,-1.937947083E1,3.787838221E0
7.407158249E0,5.046463013E0,-1.957568169E1,3.996013880E0
7.411912884E0,4.570291042E0,-1.988914108E1,4.158725739E0
7.416667467E0,4.271188259E0,-2.014038849E1,4.223331928E0
7.421422103E0,4.125226021E0,-2.033181381E1,4.252045631E0
7.426176686E0,3.680161238E0,-2.049213219E1,4.388436794E0
7.430931322E0,3.203989506E0,-2.045624161E1,4.484149456E0
7.435685905E0,2.723032236E0,-2.018824387E1,4.488935471E0
7.440440540E0,2.155933142E0,-1.975753593E1,4.338187218E0
7.445195124E0,1.612762451E0,-1.905883217E1,4.084548473E0
7.449949759E0,1.115055323E0,-1.824048615E1,3.799802303E0
7.454704342E0,8.398807645E-1,-1.736232185E1,3.397808075E0
7.459458978E0,7.274180651E-1,-1.657508278E1,2.871387243E0
7.464213561E0,5.814558864E-1,-1.583570004E1,2.246860504E0
7.468968144E0,2.919243574E-1,-1.510588932E1,1.490728498E0
7.473722780E0,-6.125625968E-1,-1.429950809E1,-7.130611539E-1
7.478477363E0,-2.974278450E0,-1.330409431E1,-7.121040344E0
7.483231999E0,-4.182653904E0,-1.250010586E1,-1.079162979E1
7.487986582E0,-3.251846075E0,-1.188275719E1,-9.133403778E0
7.492741217E0,-1.538584948E0,-1.134437180E1,-5.505885124E0
7.497495801E0,7.178467698E-3,-1.081555843E1,-2.411965132E0
7.502250436E0,9.284151793E-1,-1.025563812E1,-4.857429862E-1
7.507005019E0,1.351944804E0,-9.643074989E0,4.737788737E-1
7.511759655E0,1.447657704E0,-9.011369705E0,6.987041831E-1
7.516514238E0,1.550549030E0,-8.530412674E0,2.057827413E-1
7.521268874E0,1.856830359E0,-8.307880402E0,-7.202396393E-1
7.526023457E0,2.282752752E0,-8.355736732E0,-1.619940877E0
7.530778040E0,2.660818815E0,-8.714659691E0,-2.203789711E0
7.535532676E0,2.952743053E0,-9.195617676E0,-2.390429735E0
7.540287259E0,3.093919754E0,-9.621540070E0,-2.277967215E0
7.545041894E0,3.029313564E0,-9.942177773E0,-2.050648928E0
7.549796478E0,2.868994236E0,-1.015035343E1,-1.813759565E0
7.554551113E0,2.636890650E0,-1.024128056E1,-1.562513232E0
7.559305697E0,2.402393818E0,-1.021974564E1,-1.299302697E0
7.564060332E0,2.129612207E0,-1.000678444E1,-9.595218897E-1
7.568814915E0,1.883151412E0,-9.722038269E0,-6.484549642E-1
7.573569551E0,1.701296926E0,-9.372686386E0,-4.307080805E-1
7.578324134E0,1.579262972E0,-9.013762474E0,-2.727817893E-1
7.583078769E0,1.507478237E0,-8.616554260E0,-1.507478207E-1
7.587833353E0,1.428515077E0,-8.231309891E0,-8.614161611E-2
7.592587988E0,1.385444283E0,-7.862815380E0,-2.632104978E-2
7.597342572E0,1.308874011E0,-7.549355507E0,6.699903309E-2
7.602097207E0,1.217946768E0,-7.262216568E0,1.172483116E-1
7.606851790E0,1.083948612E0,-7.010970116E0,2.129612118E-1
7.611606374E0,9.667003751E-1,-6.793223381E0,3.613162339E-1
7.616361009E0,8.590233326E-1,-6.498906136E0,3.996013701E-1
7.621115592E0,7.657032609E-1,-6.238088608E0,4.019941986E-1
7.625870228E0,6.101697683E-1,-5.941378593E0,3.421736360E-1
7.630624811E0,4.235295951E-1,-5.637490273E0,2.919243574E-1
7.635379447E0,3.708875179E-1,-5.369493961E0,2.847459018E-1
7.640134030E0,3.086741269E-1,-5.115854740E0,2.153540403E-1
7.644888665E0,2.344966233E-1,-4.840680122E0,1.914258152E-1
7.649643249E0,-9.571290575E-3,-4.601397991E0,2.273181528E-1
7.654397884E0,-1.794617027E-1,-4.326223373E0,2.201396823E-1
7.659152467E0,-1.722832322E-1,-4.122833252E0,2.057827413E-1
7.663907103E0,-1.938186288E-1,-3.924229145E0,1.722832322E-1
7.668661686E0,-2.943171859E-1,-3.818944931E0,-0.000000000E0
7.673416322E0,-3.565305769E-1,-3.754338741E0,-8.853443712E-2
7.678170905E0,-4.043870270E-1,-3.747160196E0,-6.699903309E-2
7.682925540E0,-4.091726840E-1,-3.804588079E0,-4.067798331E-2
7.687680124E0,-4.019941986E-1,-3.936193228E0,-3.828516230E-2
7.692434707E0,-3.852444589E-1,-4.031906128E0,-2.392822644E-3
7.697189342E0,-3.661018610E-1,-4.110869408E0,5.742774159E-2
7.701943926E0,-2.967100143E-1,-4.259224415E0,1.627119333E-1
7.706698561E0,-1.555334777E-1,-4.395615101E0,2.799602449E-1
7.711453144E0,4.067798331E-2,-4.579862595E0,3.996013701E-1
7.716207780E0,3.038884699E-1,-4.742574692E0,5.694918036E-1
7.720962363E0,5.958128572E-1,-4.910071850E0,7.417750359E-1
7.725716999E0,9.667003751E-1,-5.146961689E0,8.949156404E-1
7.730471582E0,1.313659668E0,-5.410171986E0,1.021735311E0
7.735226217E0,1.694118381E0,-5.735595703E0,1.098305583E0
7.739980801E0,2.117648125E0,-6.118447304E0,1.196411371E0
7.744735436E0,2.505285263E0,-6.525227547E0,1.304088354E0
7.749490019E0,2.933600664E0,-6.900900364E0,1.435693622E0
7.754244655E0,3.400201082E0,-7.271788120E0,1.584048629E0
7.758999238E0,3.900300980E0,-7.654639721E0,1.720439434E0
7.763753874E0,4.386044025E0,-8.080561638E0,1.878365755E0
7.768508457E0,4.888536453E0,-8.535198212E0,1.976471543E0
7.773263092E0,5.362315655E0,-8.985049248E0,2.076970100E0
7.778017676E0,5.855237007E0,-9.439684868E0,2.091326952E0
7.782772311E0,6.312266350E0,-9.946963310E0,2.108076811E0
7.787526894E0,6.750152588E0,-1.046381378E1,2.110469580E0
7.792281530E0,7.307680130E0,-1.093759251E1,2.160718918E0
7.797036113E0,7.843672752E0,-1.137787151E1,2.155933142E0
7.801790749E0,8.439485550E0,-1.166022491E1,2.153540373E0
7.806545332E0,9.109476089E0,-1.182054424E1,2.141576290E0
7.811299967E0,9.736394882E0,-1.174397373E1,2.151147604E0
7.816054551E0,1.030588722E1,-1.150708389E1,2.132004976E0
7.820809134E0,1.074616623E1,-1.116251755E1,2.012363911E0
7.825563769E0,1.098305607E1,-1.070548820E1,1.928615093E0
7.830318353E0,1.111944675E1,-1.016949654E1,1.789831281E0
7.835072988E0,1.115533924E1,-9.583254814E0,1.624726534E0
7.839827572E0,1.087777138E1,-9.040083885E0,1.258624673E0
7.844582207E0,1.024606609E1,-8.463413239E0,7.489534616E-1
7.849336790E0,9.394221306E0,-7.807780266E0,3.373879790E-1
7.854091426E0,8.554341316E0,-7.142575741E0,-5.503492057E-2
7.858846009E0,7.673782349E0,-6.465406895E0,-4.115654826E-1
7.863600644E0,6.707081795E0,-6.001199245E0,-8.039883971E-1
7.868355228E0,6.051448345E0,-5.788238049E0,-1.158126116E0
7.873109863E0,6.436692715E0,-6.020341873E0,-1.765903115E0
7.877864447E0,7.757531166E0,-6.527620316E0,-1.904686809E0
7.882619082E0,8.709874153E0,-7.393822193E0,-2.069791555E0
7.887373665E0,8.796015739E0,-8.542376518E0,-2.340180635E0
7.892128301E0,8.441878319E0,-9.580862045E0,-2.292324066E0
7.896882884E0,8.123632431E0,-1.051884842E1,-2.194218397E0
7.901637519E0,7.819744587E0,-1.135394382E1,-2.227717876E0
7.906392103E0,7.573283672E0,-1.221296692E1,-2.246860504E0
7.911146738E0,7.264609337E0,-1.302413368E1,-2.282752752E0
7.915901322E0,6.936792850E0,-1.372044468E1,-2.402393818E0
7.920655957E0,6.565905571E0,-1.422293758E1,-2.514856577E0
7.925410540E0,6.104090691E0,-1.455314732E1,-2.553141832E0
7.930165176E0,5.678168297E0,-1.484028625E1,-2.553141832E0
7.934919759E0,5.326423168E0,-1.511306763E1,-2.531606436E0
7.939674394E0,5.118247509E0,-1.544567013E1,-2.560320139E0
7.944428978E0,4.981856823E0,-1.583570004E1,-2.608176708E0
7.949183613E0,4.950749874E0,-1.633101463E1,-2.600998163E0
7.953938197E0,4.943571568E0,-1.695793343E1,-2.519642353E0
7.958692832E0,4.924428940E0,-1.771406555E1,-2.364108801E0
7.963447415E0,4.797609329E0,-1.852762604E1,-2.254039049E0
7.968202051E0,4.685146809E0,-1.936989975E1,-2.108076811E0
7.972956634E0,4.587040901E0,-2.019781685E1,-1.947757602E0
7.977711217E0,4.438685894E0,-2.084866333E1,-1.739582062E0
7.982465853E0,3.991228104E0,-2.110230255E1,-1.368694544E0
7.987220436E0,3.538984776E0,-2.147079849E1,-1.012163997E0
7.991975072E0,2.672782898E0,-2.118126678E1,-5.694918036E-1
7.996729655E0,1.572084427E0,-2.048734665E1,-2.392822690E-2
8.001484290E0,6.580262184E-1,-1.940818405E1,5.982056856E-1
8.006238874E0,-2.416750938E-1,-1.819502258E1,1.229910851E0
8.010993509E0,-8.614161611E-1,-1.683111382E1,1.842473388E0
8.015748092E0,-1.198804140E0,-1.555574036E1,2.218146563E0
8.020502728E0,-1.071984529E0,-1.434736443E1,2.376072884E0
8.025257363E0,-6.412764788E-1,-1.323230934E1,2.438286304E0
8.030011947E0,-1.244267747E-1,-1.229432297E1,2.395215511E0
8.034766530E0,1.603191197E-1,-1.147837067E1,2.359323025E0
8.039521165E0,1.770688742E-1,-1.072223854E1,2.311466694E0
8.044275749E0,3.110669367E-2,-1.008096218E1,2.179861546E0
8.049030384E0,-1.627119333E-1,-9.707681656E0,1.916650891E0
8.053784967E0,-3.876372576E-1,-9.616754532E0,1.545763373E0
8.058539603E0,-5.192425251E-1,-9.791430473E0,1.103091240E0
8.063294186E0,-5.024927258E-1,-1.009053326E1,6.843472719E-1
8.068048822E0,-4.043870270E-1,-1.050927734E1,3.828516304E-1
8.072803405E0,-3.302095234E-1,-1.097348499E1,2.081755698E-1
8.077558040E0,-3.326023519E-1,-1.145922756E1,2.871387079E-2
8.082312624E0,-4.785645306E-1,-1.191386414E1,-9.092725813E-2
8.087067259E0,-6.652047038E-1,-1.234217930E1,-1.507478207E-1
8.091821842E0,-9.308080077E-1,-1.272503090E1,-6.699903309E-2
8.096576478E0,-1.368694544E0,-1.299302673E1,8.135596663E-2
8.101331061E0,-1.926222205E0,-1.311027527E1,5.862415433E-1
8.106085697E0,-2.187039852E0,-1.321795273E1,1.127019525E0
8.110840280E0,-2.395215511E0,-1.322034550E1,1.732403636E0
8.115594915E0,-2.818745136E0,-1.304088306E1,2.498106956E0
8.120349499E0,-3.079562664E0,-1.257906818E1,2.890529871E0
8.125104134E0,-3.287738323E0,-1.196650600E1,2.962314367E0
8.129858717E0,-3.424129248E0,-1.129890823E1,3.026920557E0
8.134613353E0,-3.795016766E0,-1.065523911E1,3.132204771E0
8.139367936E0,-3.924229145E0,-1.005703354E1,3.182454109E0
8.144122572E0,-3.888336897E0,-9.501898766E0,3.101098061E0
8.148877155E0,-3.840480328E0,-9.020941734E0,3.086741209E0
8.153631790E0,-3.725624800E0,-8.599804878E0,2.979064226E0
8.158386374E0,-3.474378586E0,-8.178668022E0,2.734996319E0
8.163141009E0,-3.038884640E0,-7.831708431E0,2.462214470E0
8.167895592E0,-2.620140791E0,-7.472784996E0,2.306680918E0
8.172650228E0,-2.141576290E0,-7.190432072E0,2.175075769E0
8.177404811E0,-1.619940877E0,-6.972685337E0,1.966900229E0
8.182159447E0,-1.127019525E0,-6.821937561E0,1.708475351E0
8.186914030E0,-6.747759581E-1,-6.721438885E0,1.490728498E0
8.191668613E0,-3.876372576E-1,-6.628118515E0,1.268195987E0
8.196423249E0,-1.459621787E-1,-6.656832695E0,1.067198873E0
8.201177884E0,4.546362907E-2,-6.762116909E0,9.236295223E-1
8.205932467E0,1.938186288E-1,-6.977470875E0,8.255237937E-1
8.210687103E0,3.158525825E-1,-7.286144733E0,7.657032609E-1
8.215441686E0,4.091726840E-1,-7.625925541E0,7.298108935E-1
8.220196322E0,5.312066078E-1,-8.023134232E0,7.226324677E-1
8.224950905E0,6.652047038E-1,-8.446663857E0,7.680960894E-1
8.229705488E0,7.920243144E-1,-8.886942863E0,8.781659007E-1
8.234460124E0,9.403793216E-1,-9.322437286E0,9.954141974E-1
8.239214759E0,1.074377418E0,-9.750752449E0,1.141376376E0
8.243969342E0,1.263410330E0,-1.017906761E1,1.296909928E0
8.248723978E0,1.426122308E0,-1.056670475E1,1.502692580E0
8.253478561E0,1.586441398E0,-1.088973618E1,1.674975872E0
8.258233197E0,1.737189293E0,-1.118883896E1,1.842473388E0
8.262987780E0,1.904686809E0,-1.144008541E1,2.021935225E0
8.267742415E0,2.096112728E0,-1.159083271E1,2.184647083E0
8.272496999E0,2.256431818E0,-1.164108181E1,2.287538528E0
8.277251582E0,2.378465652E0,-1.158365440E1,2.337787628E0
8.282006217E0,2.596212626E0,-1.140897846E1,2.342573404E0
8.286760801E0,2.916850805E0,-1.120319557E1,2.347358942E0
8.291515436E0,3.326023579E0,-1.090648556E1,2.309073925E0
8.296270019E0,3.562912941E0,-1.058584690E1,2.196611166E0
8.301024655E0,3.778266907E0,-1.026520920E1,2.038684845E0
8.305779238E0,3.845266104E0,-1.000199890E1,1.854437590E0
8.310533874E0,3.869194269E0,-9.738788605E0,1.655833244E0
8.315288457E0,3.907479286E0,-9.456435204E0,1.457229018E0
8.320043092E0,3.993621111E0,-9.288937569E0,1.275374413E0
8.324797676E0,4.122833252E0,-9.188439369E0,1.150947690E0
8.329552311E0,4.271188259E0,-9.135796547E0,1.083948612E0
8.334306894E0,4.424329281E0,-9.121439934E0,1.028913736E0
8.339061530E0,4.622933388E0,-9.066405296E0,9.810572863E-1
8.343816113E0,4.888536453E0,-8.989834785E0,9.571290612E-1
8.348570749E0,5.206781864E0,-8.937192917E0,9.379864931E-1
8.353325332E0,5.563312531E0,-8.884550095E0,8.973084688E-1
8.358079967E0,5.871986866E0,-8.769695282E0,9.499505758E-1
8.362834551E0,6.233303070E0,-8.659625053E0,8.925228715E-1
8.367589186E0,6.620940208E0,-8.480163574E0,8.566305041E-1
8.372343769E0,6.967899323E0,-8.295916557E0,8.542376757E-1
8.377098405E0,7.432106972E0,-8.066205025E0,8.901300430E-1
8.381852988E0,7.872386456E0,-7.814958572E0,8.973084688E-1
8.386607624E0,8.130811691E0,-7.623532772E0,9.188438654E-1
8.391362207E0,8.348558426E0,-7.467999458E0,9.284151793E-1
8.396116842E0,8.587840080E0,-7.374679565E0,9.332008362E-1
8.400871426E0,8.793622971E0,-7.334001541E0,8.015955687E-1
8.405626061E0,9.035298347E0,-7.357929707E0,6.508477330E-1
8.410380644E0,9.298508644E0,-7.453642368E0,5.264210105E-1
8.415135280E0,9.674181938E0,-7.563712597E0,4.259224236E-1
8.419889863E0,1.011206818E1,-7.743174076E0,3.948157430E-1
8.424644499E0,1.062891865E1,-7.968099594E0,3.206382394E-1
8.429399082E0,1.115533924E1,-8.252845764E0,2.512463629E-1
8.434153717E0,1.166022491E1,-8.551948547E0,5.264209956E-2
8.438908301E0,1.201914787E1,-8.829515457E0,-3.158525825E-1
8.443662936E0,1.215075302E1,-9.097511292E0,-7.609176040E-1
8.448417519E0,1.160997581E1,-9.415757179E0,-1.957328916E0
8.453172155E0,1.024128056E1,-9.798608780E0,-4.414757729E0
8.457926738E0,7.970492363E0,-1.022213840E1,-7.621140003E0
8.462681374E0,5.867201328E0,-1.066959572E1,-9.908679008E0
8.467435957E0,5.288137913E0,-1.101177025E1,-9.078369141E0
8.472190592E0,6.128018856E0,-1.127498055E1,-6.230910301E0
8.476945176E0,7.216753006E0,-1.149033451E1,-3.811766386E0
8.481699811E0,8.008777618E0,-1.153579807E1,-2.600998163E0
8.486454394E0,8.142775536E0,-1.149990559E1,-2.136790514E0
8.491209030E0,7.659425259E0,-1.129412270E1,-2.213361025E0
8.495963613E0,6.728617191E0,-1.100937653E1,-2.627319336E0
8.500718249E0,5.546562672E0,-1.074138069E1,-3.268595695E0
8.505472832E0,4.596612453E0,-1.047817039E1,-3.828516245E0
8.510227467E0,4.070191383E0,-1.023410225E1,-3.778266907E0
8.514982051E0,3.969692707E0,-1.001396275E1,-3.261417150E0
8.519736686E0,4.232903481E0,-9.750752449E0,-2.139183521E0
8.524491269E0,4.460221291E0,-9.690931320E0,-1.375872970E0
8.529245905E0,4.534399033E0,-9.765109062E0,-7.776673436E-1
8.534000488E0,4.594219685E0,-9.946963310E0,-3.876372576E-1
8.538755124E0,4.682754040E0,-1.026760197E1,-1.842473447E-1
8.543509707E0,4.601397991E0,-1.076770210E1,-1.770688742E-1
8.548264342E0,4.450650215E0,-1.142812061E1,-3.828516304E-1
8.553018926E0,4.223331928E0,-1.224885941E1,-7.633104324E-1
8.557773561E0,3.955335855E0,-1.315334606E1,-1.325623751E0
8.562528144E0,3.574877024E0,-1.411047554E1,-1.940579176E0
8.567282780E0,3.242274761E0,-1.509392548E1,-2.428714991E0
8.572037363E0,3.072384357E0,-1.606541061E1,-2.725425005E0
8.576791999E0,2.816352367E0,-1.695554161E1,-2.902493954E0
8.581546582E0,2.670390129E0,-1.785524178E1,-2.967100143E0
8.586301217E0,2.383251429E0,-1.862812424E1,-3.206382275E0
8.591055801E0,1.761117458E0,-1.936750603E1,-3.534198999E0
8.595810436E0,1.062413216E0,-1.992264175E1,-4.024727821E0
8.600565019E0,5.982056633E-2,-2.040599060E1,-4.869394302E0
8.605319655E0,-8.757730722E-1,-2.048974037E1,-5.838487148E0
8.610074238E0,-1.713261008E0,-2.048256111E1,-6.262016773E0
8.614828874E0,-2.349751949E0,-2.021217346E1,-6.049055576E0
8.619583457E0,-3.196810961E0,-1.965943146E1,-5.551348686E0
8.624338092E0,-3.850051641E0,-1.877647972E1,-4.957928658E0
8.629092676E0,-4.053441525E0,-1.782892227E1,-4.249652863E0
8.633847311E0,-4.096512318E0,-1.689572144E1,-3.318845034E0
8.638601894E0,-3.969692707E0,-1.600798416E1,-2.239681959E0
8.643356530E0,-3.622733593E0,-1.516570950E1,-1.371087432E0
8.648111113E0,-3.055634499E0,-1.436650753E1,-5.718846321E-1
8.652865749E0,-2.536391973E0,-1.361037540E1,-1.316052526E-1
8.657620332E0,-2.065006018E0,-1.288295746E1,-1.674975827E-2
8.662374967E0,-1.538584948E0,-1.222253799E1,-2.632105052E-1
8.667129551E0,-6.245267391E-1,-1.165065384E1,-1.009771109E0
8.671884186E0,1.459621787E-1,-1.120558834E1,-1.835294962E0
8.676638769E0,4.522434771E-1,-1.078445148E1,-2.280359983E0
8.681393405E0,5.479564071E-1,-1.037288570E1,-2.392822742E0
8.686147988E0,6.149554253E-1,-9.903892517E0,-2.266003132E0
8.690902624E0,7.393822074E-1,-9.477970123E0,-1.966900229E0
8.695657207E0,9.523434043E-1,-8.987442017E0,-1.775474429E0
8.700411842E0,1.060020447E0,-8.539983749E0,-1.502692580E0
8.705166426E0,1.150947690E0,-8.121239662E0,-1.375872970E0
8.709921061E0,1.296909928E0,-7.757531166E0,-1.296909928E0
8.714675644E0,1.531406522E0,-7.489534855E0,-1.339980721E0
8.719430280E0,1.703689694E0,-7.271788120E0,-1.280160069E0
8.724184863E0,1.892722726E0,-7.149754047E0,-1.232303619E0
8.728939499E0,1.933400750E0,-7.001399040E0,-1.148554921E0
8.733694082E0,1.976471543E0,-6.893722057E0,-9.284151793E-1
8.738448717E0,2.029113531E0,-6.800402164E0,-6.364908218E-1
8.743203301E0,1.988435626E0,-6.666403770E0,-2.488535494E-1
8.747957936E0,2.005185366E0,-6.647261143E0,1.842473447E-1
8.752712519E0,2.007578135E0,-6.635297298E0,5.048855543E-1
8.757467155E0,2.060220242E0,-6.625725746E0,6.963114142E-1
8.762221738E0,2.141576290E0,-6.618547440E0,7.561319470E-1
8.766976374E0,2.194218397E0,-6.623332977E0,7.130611539E-1
8.771730957E0,2.242074728E0,-6.599404812E0,5.862415433E-1
8.776485592E0,2.352144718E0,-6.585047722E0,4.067798555E-1
8.781240176E0,2.474178553E0,-6.563512325E0,2.464607358E-1
8.785994811E0,2.555534601E0,-6.510870457E0,1.651047617E-1
8.790749394E0,2.593819857E0,-6.410371780E0,2.177468538E-1
8.795504030E0,2.593819857E0,-6.314659119E0,4.642075896E-1
8.800258613E0,2.498106956E0,-6.195017815E0,7.920243144E-1
8.805013249E0,2.316252232E0,-6.080162525E0,1.150947690E0
8.809767832E0,2.065006018E0,-5.996413708E0,1.433300734E0
8.814522467E0,1.715653777E0,-5.996413708E0,1.588834286E0
8.819277051E0,1.349551916E0,-6.022734642E0,1.686939955E0
8.824031686E0,9.906286001E-1,-6.027520180E0,1.722832322E0
8.828786269E0,6.388836503E-1,-6.068198204E0,1.691725612E0
8.833540905E0,2.967100143E-1,-6.092126369E0,1.627119422E0
8.838295488E0,1.196411345E-2,-6.154339790E0,1.569691658E0
8.843050124E0,-2.512463629E-1,-6.202196121E0,1.557727575E0
8.847804707E0,-3.373879790E-1,-6.218945980E0,1.543370605E0
8.852559342E0,-4.115654826E-1,-6.269195557E0,1.538584948E0
8.857313926E0,-3.517449200E-1,-6.326622963E0,1.548156261E0
8.862068561E0,-3.110669553E-1,-6.410371780E0,1.540977836E0
8.866823144E0,-2.129612118E-1,-6.465406895E0,1.564906001E0
8.871577780E0,-1.387837082E-1,-6.544369698E0,1.538584948E0
8.876332363E0,5.503492057E-2,-6.620940208E0,1.521835208E0
8.881086999E0,1.770688742E-1,-6.709474564E0,1.555334687E0
8.885841582E0,3.756731451E-1,-6.821937561E0,1.581655741E0
8.890596767E0,5.766702294E-1,-6.955935478E0,1.646261930E0
8.895351351E0,7.633104324E-1,-7.080362320E0,1.686939955E0
8.900105986E0,9.332008362E-1,-7.200003147E0,1.720439434E0
8.904860569E0,1.055234790E0,-7.295716286E0,1.782652855E0
8.909615205E0,1.261017561E0,-7.415357590E0,1.856830359E0
8.914369788E0,1.457229018E0,-7.592426300E0,1.945364833E0
8.919124424E0,1.691725612E0,-7.783852100E0,2.021935225E0
8.923879007E0,1.945364833E0,-8.018348694E0,2.098505497E0
8.928633642E0,2.263610125E0,-8.209774017E0,2.203789711E0
8.933388226E0,2.553141832E0,-8.449056625E0,2.289931297E0
8.938142861E0,2.912065268E0,-8.707481384E0,2.395215511E0
8.942897444E0,3.215953588E0,-8.925228119E0,2.502892494E0
8.947652080E0,3.584448338E0,-9.181260109E0,2.627319336E0
8.952406663E0,4.024727821E0,-9.470791817E0,2.773281336E0
8.957161299E0,4.512863636E0,-9.724431038E0,3.012563705E0
8.961915882E0,5.166104317E0,-9.963713646E0,3.256631613E0
8.966670517E0,5.848058701E0,-1.020060253E1,3.481556892E0
8.971425101E0,6.723831654E0,-1.041835022E1,3.704089403E0
8.976179684E0,7.587640762E0,-1.062652493E1,3.919443607E0
8.980934319E0,8.508877754E0,-1.080359459E1,3.955335855E0
8.985688903E0,9.367900848E0,-1.103330517E1,3.943371773E0
8.990443538E0,1.029392338E1,-1.126301575E1,3.890729666E0
8.995198122E0,1.113141060E1,-1.153579807E1,3.833301783E0
8.999952757E0,1.178465176E1,-1.181336498E1,3.615555048E0
9.004707340E0,1.230150127E1,-1.208375454E1,3.287738323E0
9.009461976E0,1.261256790E1,-1.237089348E1,2.959921598E0
9.014216611E0,1.285663605E1,-1.269392395E1,2.411965132E0
9.018971194E0,1.296909904E1,-1.291645622E1,1.686939955E0
9.023725778E0,1.287817192E1,-1.308156109E1,8.997012973E-1
9.028480413E0,1.293799210E1,-1.309113312E1,1.124626622E-1
9.033234997E0,1.297627735E1,-1.296431351E1,-5.934200287E-1
9.037989632E0,1.288295746E1,-1.274417305E1,-1.270588875E0
9.042744215E0,1.264606762E1,-1.246899891E1,-1.950150490E0
9.047498851E0,1.234935760E1,-1.213400364E1,-2.562713146E0
9.052253486E0,1.201436234E1,-1.195454216E1,-3.010170937E0
9.057008069E0,1.169372463E1,-1.195693493E1,-3.481556892E0
9.061762653E0,1.154536915E1,-1.208136177E1,-3.895515203E0
9.066517288E0,1.149512005E1,-1.233021545E1,-4.235296249E0
9.071271872E0,1.129651546E1,-1.270110226E1,-4.553541660E0
9.076026507E0,1.066481018E1,-1.313420391E1,-4.759324074E0
9.080781090E0,9.544969559E0,-1.361037540E1,-4.883750916E0
9.085535726E0,7.690532207E0,-1.406261826E1,-4.986642361E0
9.090290309E0,5.199603558E0,-1.447896957E1,-5.240281582E0
9.095044944E0,2.134397745E0,-1.473021603E1,-5.850451469E0
9.099799528E0,-1.177268744E0,-1.481635761E1,-6.745367050E0
9.104554163E0,-3.529413462E0,-1.475175190E1,-7.386643410E0
9.109308747E0,-4.235296249E0,-1.457468319E1,-7.271788120E0
9.114063382E0,-2.957528830E0,-1.412243938E1,-6.405586243E0
9.118817965E0,-5.982056856E-1,-1.352423382E1,-5.338387489E0
9.123572601E0,1.469193101E0,-1.267956734E1,-4.194618225E0
9.128327184E0,2.577069998E0,-1.173440266E1,-3.050848961E0
9.133081819E0,2.904886723E0,-1.078205872E1,-2.081755638E0
9.137836403E0,2.773281336E0,-9.827322960E0,-1.342373490E0
9.142591038E0,2.598605394E0,-8.997013092E0,-6.963114142E-1
9.147345622E0,2.306680918E0,-8.315058708E0,-1.411765367E-1
9.152100257E0,1.923829436E0,-7.700103283E0,3.302095234E-1
9.156854840E0,1.249053478E0,-7.207181931E0,9.284151793E-1
9.161609476E0,6.699903607E-1,-6.841079712E0,1.316052437E0
9.166364059E0,4.067798331E-2,-6.534798622E0,1.462014675E0
9.171118694E0,-6.125625968E-1,-6.331408501E0,1.691725612E0
9.175873278E0,-1.081555843E0,-6.142375946E0,1.612762451E0
9.180627913E0,-1.385444283E0,-5.943771362E0,1.435693622E0
9.185382497E0,-1.629512191E0,-5.733202934E0,1.320838094E0
9.190137132E0,-1.813759565E0,-5.534598827E0,1.268195987E0
9.194891715E0,-2.242074728E0,-5.335994720E0,1.282552958E0
9.199646351E0,-2.684746981E0,-5.266602516E0,1.222732425E0
9.204400934E0,-3.079562664E0,-5.271388054E0,1.100698471E0
9.209155569E0,-3.235096216E0,-5.472385406E0,9.906286001E-1
9.213910153E0,-3.098705292E0,-6.015556335E0,8.111668825E-1
9.218664788E0,-2.876172781E0,-6.711867332E0,6.915257573E-1
9.223419372E0,-2.572284460E0,-7.649854183E0,5.718846321E-1
9.228174007E0,-2.191825628E0,-8.705088615E0,5.814558864E-1
9.232928590E0,-1.665404558E0,-9.805787086E0,6.149554253E-1
9.237683174E0,-1.016949654E0,-1.099980545E1,6.125625968E-1
9.242437809E0,-2.344966233E-1,-1.217228889E1,6.963114142E-1
9.247192444E0,6.053841114E-1,-1.322034550E1,8.877372146E-1
9.251947028E0,1.438086390E0,-1.417268848E1,1.112662554E0
9.256701663E0,2.167897224E0,-1.488096428E1,1.351944804E0
9.261456247E0,2.823530674E0,-1.542652798E1,1.591227055E0
9.266210830E0,3.359523058E0,-1.577827263E1,1.820937991E0
9.270965465E0,3.641875982E0,-1.588594913E1,1.978864312E0
9.275720049E0,3.572484255E0,-1.556770420E1,2.072184324E0
9.280474684E0,3.043670416E0,-1.477807236E1,2.081755638E0
9.285229267E0,2.230110645E0,-1.361516094E1,1.976471543E0
9.289983903E0,1.428515077E0,-1.239721394E1,1.741974831E0
9.294738486E0,7.776673436E-1,-1.131326580E1,1.490728498E0
9.299493122E0,2.823530734E-1,-1.037049294E1,1.284945726E0
9.304247705E0,-1.507478207E-1,-9.528220177E0,1.107876897E0
9.309002340E0,-4.929214716E-1,-8.784051895E0,1.036092162E0
9.313756924E0,-8.470591903E-1,-8.130811691E0,1.007378340E0
9.318511559E0,-1.081555843E0,-7.623532772E0,9.906286001E-1
9.323266142E0,-1.162911773E0,-7.238288403E0,9.690931439E-1
9.328020778E0,-1.115055323E0,-6.972685337E0,9.332008362E-1
9.332775361E0,-1.050449133E0,-6.783652306E0,9.403793216E-1
9.337529997E0,-9.020941257E-1,-6.776473522E0,9.906286001E-1
9.342284580E0,-8.231309652E-1,-6.867401123E0,1.069591761E0
9.347039215E0,-7.992027402E-1,-7.106683254E0,1.213161111E0
9.351793799E0,-7.178468108E-1,-7.520641804E0,1.275374413E0
9.356548434E0,-6.604190469E-1,-8.015955925E0,1.289731383E0
9.361303017E0,-6.125625968E-1,-8.611768723E0,1.292124271E0
9.366057653E0,-5.742774606E-1,-9.217152596E0,1.332802176E0
9.370812236E0,-5.575276613E-1,-9.805787086E0,1.392622828E0
9.375566872E0,-4.259224236E-1,-1.031306553E1,1.555334687E0
9.380321455E0,-2.249253243E-1,-1.077248764E1,1.799402595E0
9.385076090E0,-7.417750359E-2,-1.112423229E1,1.998006940E0
9.389830674E0,1.531406492E-1,-1.130848026E1,2.170290232E0
9.394585309E0,4.929214716E-1,-1.130608654E1,2.397608280E0
9.399339892E0,9.164510965E-1,-1.120319557E1,2.644068956E0
9.404094528E0,1.261017561E0,-1.105005455E1,2.897708178E0
9.408849111E0,1.478764415E0,-1.081795120E1,3.187239647E0
9.413603747E0,1.543370605E0,-1.048295593E1,3.546163082E0
9.418358330E0,1.509871125E0,-1.012881851E1,3.866801500E0
9.423112913E0,1.481157184E0,-9.765109062E0,4.134797573E0
9.427867549E0,1.435693622E0,-9.449256897E0,4.369294167E0
9.432622132E0,1.493121386E0,-9.178867340E0,4.539184570E0
9.437376767E0,1.560120344E0,-8.958727837E0,4.632504463E0
9.442131351E0,1.670190215E0,-8.819944382E0,4.670789719E0
9.446885986E0,1.813759565E0,-8.743373871E0,4.582255363E0
9.451640569E0,1.947757602E0,-8.721838951E0,4.438685894E0
9.456395205E0,2.050648928E0,-8.767302513E0,4.232903481E0
9.461149788E0,2.165504456E0,-8.863015175E0,4.010370731E0
9.465904424E0,2.266003132E0,-8.970691681E0,3.771088600E0
9.470659007E0,2.330609322E0,-9.111868858E0,3.548556089E0
9.475413642E0,2.423929453E0,-9.241081238E0,3.373879910E0
9.480168226E0,2.486142635E0,-9.389435768E0,3.208775282E0
9.484922861E0,2.562713146E0,-9.540184021E0,3.062813044E0
9.489677444E0,2.624926329E0,-9.669396400E0,2.914458036E0
9.494432080E0,2.701496840E0,-9.786644936E0,2.756531715E0
9.499186663E0,2.730210543E0,-9.853643417E0,2.605783939E0
9.503941299E0,2.804388046E0,-9.954142570E0,2.490928411E0
9.508695882E0,2.811566591E0,-9.968499184E0,2.414358139E0
9.513450517E0,2.845066071E0,-9.951749802E0,2.304288149E0
9.518205101E0,2.952743053E0,-9.968499184E0,2.249253273E0
9.522959736E0,3.096312523E0,-9.951749802E0,2.191825628E0
9.527714319E0,3.223132133E0,-9.891928673E0,2.143969059E0
9.532468955E0,3.354737282E0,-9.805787086E0,2.093719721E0
9.537223538E0,3.445664644E0,-9.769894600E0,2.067398787E0
9.541978174E0,3.589233875E0,-9.729216576E0,2.050648928E0
9.546732757E0,3.711267948E0,-9.645467758E0,1.981257200E0
9.551487340E0,3.840480328E0,-9.571290970E0,1.916650891E0
9.556241976E0,3.955335855E0,-9.439684868E0,1.820937991E0
9.560996559E0,4.055834293E0,-9.370293617E0,1.746760488E0
9.565751194E0,4.086941242E0,-9.305686951E0,1.670190215E0
9.570505778E0,4.130012035E0,-9.231510162E0,1.605584025E0
9.575260413E0,4.208974838E0,-9.166903496E0,1.550549030E0
9.580014997E0,4.292723656E0,-9.085547447E0,1.490728498E0
9.584769632E0,4.393222332E0,-9.080761909E0,1.447657704E0
9.589524215E0,4.467400074E0,-9.020941734E0,1.411765337E0
9.594278851E0,4.522434711E0,-9.006584167E0,1.351944804E0
9.599033434E0,4.610969067E0,-8.997013092E0,1.308874011E0
9.603788069E0,4.761716843E0,-8.977870941E0,1.306481123E0
9.608542653E0,4.905286312E0,-9.008976936E0,1.280160069E0
9.613297288E0,5.060820103E0,-9.092725754E0,1.258624673E0
9.618051872E0,5.237888813E0,-9.159725189E0,1.198804140E0
9.622806507E0,5.460421085E0,-9.260223389E0,1.117448211E0
9.627561090E0,5.608776093E0,-9.332008362E0,1.076770186E0
9.632315726E0,5.819344521E0,-9.410971642E0,9.978070259E-1
9.637070309E0,5.974878311E0,-9.513862610E0,9.619147182E-1
9.641824944E0,6.092126369E0,-9.585647583E0,8.925228715E-1
9.646579528E0,6.118447304E0,-9.640682220E0,8.350951076E-1
9.651334163E0,6.154339790E0,-9.655039787E0,7.154539824E-1
9.656088747E0,6.111268997E0,-9.626325607E0,6.532405615E-1
9.660843330E0,6.072983742E0,-9.576076508E0,5.527420044E-1
9.665597965E0,5.895915031E0,-9.530612946E0,4.881358147E-1
9.670352549E0,5.747560024E0,-9.410971642E0,4.785645306E-1
9.675107184E0,5.553741455E0,-9.262616158E0,4.139583111E-1
9.679861767E0,5.357530117E0,-9.109476089E0,3.421736360E-1
9.684616403E0,5.106283665E0,-8.965906143E0,2.321037948E-1
9.689370986E0,4.929214478E0,-8.822337151E0,1.172483116E-1
9.694125622E0,4.728217602E0,-8.690732002E0,4.785645381E-2
9.698880205E0,4.500899315E0,-8.556734085E0,-1.674975827E-2
9.703634840E0,4.304687977E0,-8.449056625E0,-8.374879509E-2
9.708389424E0,4.103690624E0,-8.358129501E0,-1.770688742E-1
9.713144059E0,3.862015724E0,-8.288737297E0,-2.799602449E-1
9.717898642E0,3.699303865E0,-8.224131584E0,-3.756731451E-1
9.722653278E0,3.570091486E0,-8.188239098E0,-5.216353536E-1
9.727407861E0,3.460021496E0,-8.149953842E0,-6.340979934E-1
9.732162497E0,3.347558975E0,-8.149953842E0,-7.465606928E-1
9.736917080E0,3.218346357E0,-8.137989998E0,-8.949156404E-1
9.741671715E0,3.014956474E0,-8.147561073E0,-1.100698471E0
9.746426299E0,2.845066071E0,-8.238488197E0,-1.304088354E0
9.751180882E0,2.624926329E0,-8.365307808E0,-1.545763373E0
9.755935517E0,2.289931297E0,-8.544769287E0,-1.919043779E0
9.760690153E0,2.129612207E0,-8.738588333E0,-2.081755638E0
9.765444736E0,2.292324066E0,-8.920442581E0,-1.904686809E0
9.770199319E0,2.455035925E0,-9.123832703E0,-1.435693622E0
9.774953955E0,2.648854733E0,-9.288937569E0,-9.595218897E-1
9.779708538E0,2.766103029E0,-9.437292099E0,-5.838487148E-1
9.784463174E0,2.842673302E0,-9.544969559E0,-2.943171859E-1
9.789217757E0,2.730210543E0,-9.655039787E0,-7.896314561E-2
9.793972392E0,2.557927370E0,-9.729216576E0,9.571290761E-2
9.798726976E0,2.404786825E0,-9.812965393E0,2.608176768E-1
9.803481611E0,2.309073925E0,-9.968499184E0,3.948157430E-1
9.808236194E0,2.273181438E0,-1.006660461E1,5.838487148E-1
9.812990830E0,2.313859463E0,-1.020778179E1,8.446664214E-1
9.817745413E0,2.407179594E0,-1.037288570E1,1.155733347E0
9.822500049E0,2.498106956E0,-1.048295593E1,1.442872047E0
9.827254632E0,2.579462767E0,-1.055952644E1,1.593619823E0
9.832009215E0,2.679961443E0,-1.059781170E1,1.701296926E0
9.836763851E0,2.773281336E0,-1.058584690E1,1.816152334E0
9.841518434E0,2.859423161E0,-1.046620655E1,1.887937069E0
9.846273069E0,2.878565550E0,-1.035135078E1,1.852044702E0
9.851027653E0,2.883351326E0,-1.016231823E1,1.773081541E0
9.855782288E0,2.940778971E0,-9.946963310E0,1.696511269E0
9.860536872E0,3.005385160E0,-9.757930756E0,1.665404558E0
9.865291507E0,3.129812002E0,-9.611968994E0,1.612762451E0
9.870046090E0,3.292523861E0,-9.473184586E0,1.485942841E0
9.874800726E0,3.495913982E0,-9.389435768E0,1.363908887E0
9.879555309E0,3.706482172E0,-9.363115311E0,1.263410330E0
9.884309944E0,3.878765583E0,-9.341579437E0,1.205982566E0
