Time (s),Acceleration x (m/s^2),Acceleration y (m/s^2),Acceleration z (m/s^2)
9.001500507,-4.96288881428836,2.6171529759017624,1.756303979409772
9.00350054,-5.476342431699266,2.816481722455943,1.70225101578256
9.00550054,-5.979028278459387,3.014551931452501,1.645698986316892
9.007500506,-6.469015450235231,3.210730186708772,1.5870558890932671
9.009500472,-6.944419153238422,3.4043692962582996,1.5267578343518469
9.011501305,-7.403412537336086,3.594810665705822,1.4652675664146848
9.013501271,-7.84423836918261,3.7813868861614996,1.4030726287208344
9.015501804,-8.265220461066082,3.963424535480676,1.3406831509559354
9.01750177,-8.664774769152194,4.1402471884509024,1.2786292464083997
9.019501736,-9.041420073380312,4.311178628272478,1.2174580181727113
9.021501736,-9.39378815053407,4.4755462482177935,1.157730184035935
9.023502436,-9.720633352059034,4.632684628777956,1.1000163411180617
9.025502836,-10.020841499074535,4.78193927196494,1.044892901887384
9.027502869,-10.293438008725667,4.922670470786883,0.9929377424028126
9.029502902,-10.537595168542662,5.054257288310934,0.9447256110184834
9.031503602,-10.752638478845517,5.176101617239056,0.9008233509433645
9.033503235,-10.938051987513266,5.287632287627133,0.8617849928046778
9.035503268,-11.093482546709934,5.388309187370243,0.828146773800993
9.037503301,-11.218742927481548,5.477627357454242,0.8004221384767692
9.039503101,-11.313813735499732,5.555121021811776,0.7790967731015522
9.041503101,-11.378844079561272,5.6203675099743755,0.7646237216749671
9.043503101,-11.414150953720403,5.672991029648862,0.7574186272925588
9.045503101,-11.420217304153512,5.712666245955539,0.757855138522574
9.047503101,-11.3976887630467,5.7391216244146275,0.7662605169566749
9.049503101,-11.347369043888264,5.7521424958608405,0.7829114794381041
9.051503067,-11.27021400540663,5.751573803257544,0.8080303067132265
9.053503033,-11.167324404865145,5.7373224928099225,0.8417812493599555
9.055502999,-11.039937375350496,5.709359514786675,0.8842672617043151
9.057502965,-10.88941667590449,5.667721403003179,0.9355270948534403
9.059502631,-10.717241777677879,5.612511405940963,0.995532780669087
9.061502597,-10.524995863571226,5.543900146909988,1.0641875391288094
9.063502563,-10.314352832916429,5.462125795425725,1.1413241417296045
9.065502529,-10.087063416457914,5.3674937369979885,1.2267037631276132
9.067502529,-9.84494051997518,5.26037573373983,1.320015351933782
9.069502562,-9.589843927053883,5.1412085735230875,1.4208755494353993
9.071501728,-9.323664502428416,5.010492210744079,1.5288291819580584
9.073501761,-9.048308046666788,4.868787407034872,1.6433503486014114
9.075501227,-8.765678960505236,4.716712885399317,1.7638441211716842
9.07750126,-8.477663882700828,4.554942016222244,1.88964886732952
9.079501293,-8.186115468746145,4.384199058348743,2.0200392013578803
9.081501326,-7.892836479129772,4.2052549829030434,2.154229559665324
9.083501326,-7.599564345009884,4.018922911651316,2.291378390353834
9.085501292,-7.307956376139517,3.8260532054470375,2.4305929381215754
9.087501258,-7.019575770565343,3.6275282415768766,2.5709345976969558
9.089501224,-6.7358785780466786,3.424256921620606,2.7114248011564173
9.09150119,-6.458201759497754,3.21716895374194,2.851051397058319
9.093501556,-6.187752473279888,3.007208955115106,2.988775472483268
9.095501522,-5.925598706039724,2.795330421417454,3.1235385629399857
9.097501488,-5.67266135116833,2.582489610956563,3.254270189765852
9.099501688,-5.429707822066881,2.369639391081703,3.3798956601540877
9.101501721,-5.1973472705134345,2.157723094119176,3.4993440612834994
9.103501787,-4.976027462775685,1.9476684292311262,3.611556377249256
9.105501153,-4.766033347915134,1.7403814953746757,3.7154936556597105
9.107501186,-4.5674873341933955,1.5367409389708222,3.810145149908282
9.109501219,-4.380351270873297,1.3375922980203414,3.8945363632036054
9.111501252,-4.204430114276319,1.1437425722753556,3.9677369213292946
9.113501285,-4.039377238969305,0.955955056750154,4.028868202662992
9.115501318,-3.884701337642811,0.7749444734065836,4.077110656072515
9.117501318,-3.7397748368223467,0.6013724333589915,4.111710739815929
9.119501318,-3.603843740179063,0.43584325948270397,4.131987417447876
9.121501318,-3.4760387969595383,0.2789001969216344,4.137338149970784
9.123501318,-3.355387879962965,0.1310220366847422,4.127244327084885
9.125501418,-3.240829445574096,-0.007379824718818946,4.101276084408398
9.127501418,-3.1312269376436404,-0.13596386886328707,4.059096457977871
9.129501384,-3.0253839875447737,-0.2544604636839762,4.000464832203926
9.13150135,-2.922060254581503,-0.36267338020352624,3.925239642735498
9.133502483,-2.8199877441370647,-0.46048080386120954,3.8333803013498096
9.135502449,-2.7178874355830738,-0.5478358291871229,3.7249483160187307
9.137502415,-2.6144860480690544,-0.6247664293921975,3.6001075857127955
9.139502381,-2.5085327699081104,-0.6913748955392905,3.4591238563163693
9.141502347,-2.3988157763996023,-0.7478367433278469,3.302363331256754
9.143502313,-2.284178361625247,-0.7943990891929321,3.1302904381021657
9.145502313,-2.1635345120387197,-0.8313785014304012,2.943464760494913
9.147502313,-2.035883753513377,-0.8591583364106468,2.742537153450996
9.149502346,-1.9003251088964954,-0.8781855745508965,2.5282450693809455
9.151502379,-1.7560700100891546,-0.8889671754346661,2.301407132183447
9.153502879,-1.6024540173422233,-0.8920659761148573,2.062917007270455
9.155502912,-1.4389472089527358,-0.8880961610170618,1.8137366260528127
9.157502945,-1.2651631169229343,-0.8777183358009284,1.5548888338090106
9.159503045,-1.0808660983639926,-0.8616342409427661,1.2874495395720231
9.161503045,-0.885977048351131,-0.8405811436578239,1.01253945540104
9.163502078,-0.6805773773731334,-0.8153259491296077,0.7313155199604797
9.165502711,-0.46491119524404956,-0.7866590739311955,0.4449621075665146
9.167502677,-0.2393856631299327,-0.7553881260942183,0.15468212860574254
9.169502643,-0.004569495974458131,-0.7223314375775247,-0.1383118697965028
9.171502609,0.23881038113853734,-0.6883114959618825,-0.43280649310701297
9.173502575,0.48987399755342137,-0.6541483230867979,-0.7275960704067379
9.175502541,0.7475952758439921,-0.6206528490751209,-1.0214909025588261
9.177502541,1.0108106770208627,-0.5886203307643413,-1.3133250889002295
9.179502574,1.2782294639977987,-0.5588238639568262,-1.6019638417264923
9.181502607,1.5484454759782222,-0.5320080390699166,-1.886310207596142
9.18350264,1.8199502886985153,-0.5088827896620399,-2.165311126132623
9.185502573,2.0911476195670495,-0.4901174828932398,-2.437962770590833
9.187502606,2.360368822924031,-0.4763353002181435,-2.7033151297901346
9.189502639,2.6258893089753954,-0.46810795548162343,-2.960475807574178
9.191502672,2.8859457103633135,-0.4659507960675568,-3.2086130330567113
9.193501205,3.1387536128014815,-0.4703183308107686,-3.446957891923028
9.195501205,3.3825256607673664,-0.4816002259934321,-3.6748058054811956
9.197501205,3.6154898459195044,-0.5001178078935169,-3.8915172996015284
9.199501205,3.835907784622243,-0.5261211070346631,-4.0965181198029414
9.201501205,4.04209279159683,-0.5597864755142558,-4.289298761191654
9.203501205,4.232427559181916,-0.601214804570157,-4.469413492336852
9.205501205,4.4053812559199725,-0.6504303648954439,-4.636478960040098
9.207501205,4.559525864143742,-0.7073802871385058,-4.790172466903953
9.209501171,4.693551583869116,-0.7719346945617706,-4.930230015339078
9.211501137,4.806281139563617,-0.843887494021072,-5.056444210060745
9.213500637,4.896682837225356,-0.9229578253222447,-5.168662106309378
9.215500603,4.963882231648281,-1.0087921626727723,-5.266783083288595
9.217500569,5.007172277717776,-1.1009670554583593,-5.35075681209569
9.219500469,5.02602185501279,-1.1989924890636123,-5.420581375189107
9.221500435,5.02008257181595,-1.3023158400940764,-5.476301580616727
9.223501601,4.989193772755101,-1.4103263943417657,-5.518007499244821
9.225501601,4.933385693565749,-1.5223603903662581,-5.545833237585383
9.227501634,4.852880726656131,-1.6377065468013006,-5.5599559430963215
9.229500767,4.748092782010318,-1.7556120275221567,-5.560595023594053
9.2315008,4.619624749182914,-1.8752887955996786,-5.548011548188663
9.233500833,4.4682640873942265,-1.9959203044422764,-5.522507784443635
9.235500866,4.294976591664982,-2.1166684725919827,-5.484426815833142
9.237500899,4.100898403165021,-2.236680887187387,-5.434152175531784
9.239500899,3.887326351191031,-2.355098179998431,-5.372107427432771
9.241500865,3.6557067322581367,-2.4710615190159144,-5.298755623156994
9.243500831,3.4076226485959906,-2.5837201576741533,-5.214598564768808
9.245500797,3.144780043792267,-2.692238982753174,-5.120175807045131
9.247500763,2.868992587315495,-2.7958060007682697,-5.016063340327963
9.249500729,2.5821655720769474,-2.893639701227781,-4.9028719047437574
9.251500695,2.28627899998983,-2.984996233628271,-4.781244898198408
9.253500995,1.9833700395958451,-3.0691763336127194,-4.651855853365641
9.255500995,1.6755150471788356,-3.145531932513677,-4.515405472301338
9.257501028,1.364811348262102,-3.2134723837159256,-4.372618220880312
9.259501061,1.0533589798241276,-3.2724702390850977,-4.224238498628525
9.261501094,0.7432425947277959,-3.3220665093147055,-4.07102641247735
9.263501127,0.43651372847106257,-3.3618753436295457,-3.9137531953187836
9.26550116,0.13517362421997905,-3.3915880669838963,-3.7531963218116804
9.267501193,-0.15884319494448124,-3.410976516789779,-3.590134384438056
9.269501226,-0.4436844276091249,-3.4198956263840237,-3.4253418019942017
9.271501259,-0.7175944034351601,-3.418285209019359,-3.259583440075371
9.273501259,-0.9789272503428328,-3.4061709042926824,-3.0936092281291208
9.275501259,-1.2261586884471989,-3.3836642586895866,-2.928148859737014
9.277501259,-1.4578963417486508,-3.3509619232689913,-2.763906661546105
9.279501259,-1.6728884832510533,-3.3083439641750245,-2.6015567117684903
9.281501259,-1.8700311556910036,-3.256171295184612,-2.4417382819487448
9.283500992,-2.0483736373265695,-3.1948822552971454,-2.285051666544457
9.285500992,-2.207122249080247,-3.1249883678585055,-2.132054454513531
9.287500958,-2.3456425246625914,-3.04706933038423,-1.9832582861752297
9.289501824,-2.4634597882522775,-2.9617672957513204,-1.8391261276073831
9.29150179,-2.560258204327366,-2.869780515554808,-1.7000700841081369
9.293501756,-2.635878381061081,-2.7718564250430537,-1.5664497640075152
9.295501722,-2.690313622224711,-2.668784256052876,-1.438571194521728
9.297501688,-2.723704932845671,-2.5613872697011075,-1.3166862825447057
9.299501654,-2.736334891196313,-2.4505147042668916,-1.2009928053947538
9.301501654,-2.728620504434326,-2.337033535791588,-1.09163490968332
9.303501654,-2.701105167820182,-2.2218201495080194,-0.9887040907209563
9.305501954,-2.654449848305104,-2.1057520193450223,-0.8922406202547273
9.307501987,-2.5894236127535675,-1.9896994904983771,-0.8022353868211874
9.30950202,-2.506893619418243,-1.8745177565103748,-0.7186321105304105
9.311502053,-2.407814688767538,-1.7610391175813187,-0.6413298925726498
9.313502086,-2.293218566594764,-1.6500656010805963,-0.5701860590520238
9.315502119,-2.1642029886944707,-1.5423620185773173,-0.5050192587769778
9.317502119,-2.021920652410624,-1.4386495263288517,-0.44561277523322756
9.319502085,-1.8675681961215977,-1.33959974820317,-0.39171801399004486
9.321502051,-1.7023752832321715,-1.2458295116012825,-0.3430581281202054
9.323502017,-1.5275938824333992,-1.1578962382085145,-0.2993317457350641
9.325501983,-1.3444878307898414,-1.0762940224570592,-0.2602167653383689
9.327501949,-1.1543227605588202,-1.0014504215533744,-0.22537418628731323
9.329501915,-0.9583564644991078,-0.933723971940559,-0.19445194316318867
9.331501881,-0.7578297677648748,-0.8734024382533903,-0.1670887142999911
9.333501881,-0.5539579672928436,-0.8207017923091722,-0.14291767612974857
9.335501914,-0.3479228918800465,-0.7757659115856298,-0.12157017641190031
9.337501947,-0.14086562795983698,-0.7386669790687299,-0.10267930085537998
9.33950198,0.06612005248500105,-0.7094065593680348,-0.0858833091523347
9.341502013,0.2719935342340113,-0.687917319620797,-0.0708289180453254
9.343502046,0.4757724525910021,-0.6740653579540051,-0.05717441074435785
9.345502079,0.6765370285772667,-0.6676530971686327,-0.044592553770611845
9.347502112,0.8734336440265037,-0.6684226968819598,-0.03277330408917926
9.349502145,1.0656776631287275,-0.6760599336350857,-0.021426291160622106
9.351502145,1.2525555145047929,-0.6901984954511733,-0.010283060259631339
9.353501745,1.4334260547842115,-0.7104246350113683,0.0009009349328200458
9.355501745,1.607721240847423,-0.7362821239901243,0.012344600850078845
9.357501745,1.774946143358054,-0.7672774501437244,0.02423974247657134
9.359501745,1.9346783389530597,-0.8028851984511634,0.03674987891119077
9.361501745,2.086566722490769,-0.8425535579381735,0.05000934163155947
9.363501745,2.230329784091705,-0.8857098967449845,0.0641226593299194
9.365501445,2.3657533983588355,-0.9317663494914491,0.07916423140940848
9.367501411,2.4926881751514673,-0.9801253630056942,0.09517829037011942
9.369501377,2.611046422631003,-1.0301851489668052,0.11217915138972
9.371501343,2.7207987740143165,-1.0813449949182343,0.13015174543349
9.373501309,2.8219705295814994,-1.1330103883830085,0.1490524302311893
9.375501275,2.9146377650287616,-1.1845979123992727,0.1688100714362192
9.377501241,2.9989232562983514,-1.235539874641097,0.18932738422575326
9.379501241,3.074992269626854,-1.2852886363415938,0.2104825235037025
9.381501241,3.1430482637978363,-1.3333206114405636,0.2321309087440725
9.383501274,3.2033285495314843,-1.3791399106865978,0.25410726738436784
9.385501307,3.2560999486561872,-1.422281609787863,0.27622787857502973
9.38750134,3.301654493224846,-1.462314625085536,0.2982929970473762
9.389501373,3.340305202072804,-1.4988441845804885,0.3200894349263662
9.391501406,3.372381969466881,-1.5315138864397098,0.3413932775379993
9.393501439,3.398227597478407,-1.5600073413074407,0.36197270769325096
9.395501439,3.418194000550462,-1.5840493988119202,0.3815909116099205
9.397501439,3.432638607447667,-1.6034069625602756,0.40000903858155457
9.399501405,3.4419209824037473,-1.6178894016244916,0.4169891857187013
9.401501371,3.4463996838471878,-1.627348570015315,0.43229737856204714
9.403501337,3.4464293756212987,-1.6316784488908789,0.4457065180994707
9.405501303,3.442358202157016,-1.6308144292242386,0.4569992647321062
9.407501269,3.434525435642153,-1.6247322553318848,0.4659708300670752
9.409501235,3.4232593999004752,-1.6134466520164965,0.47243164810602056
9.411501235,3.4088756724910447,-1.5970096600740333,0.47620989847617223
9.413501635,3.3916755635025946,-1.5755087065376254,0.47715385582131853
9.415501635,3.3719448666809004,-1.54906443727688,0.4751340413145009
9.417501635,3.349952875912626,-1.5178283404593464,0.47004515443051403
9.419501635,3.325951657710492,-1.4819801899417966,0.4618077655736226
9.421501635,3.300175568203656,-1.441725337929578,0.4503697528461372
9.423501635,3.2728410012294704,-1.3972918862589543,0.4357074691213314
9.425501635,3.244146352445774,-1.348927765448842,0.41782662860154
9.427501635,3.214272182937778,-1.296897750255848,0.39676290514664886
9.429501668,3.1833815645846024,-1.2414804398705608,0.3725822377957166
9.431501701,3.151620588483824,-1.1829652301357751,0.34538084201831315
9.433501734,3.119119017013359,-1.121649304268747,0.31528492825629845
9.435501767,3.0859910596416738,-1.0578346675481025,0.2824501321807515
9.4375018,3.0523362523827213,-0.9918252503017863,0.2470606637362404
9.439501833,3.018240420835487,-0.9239241023246989,0.2093281844458177
9.441501866,2.9837767070521184,-0.8544307005749563,0.16949042459483102
9.443501866,2.9490066410376765,-0.7836383906466449,0.1278095537934359
9.445501832,2.9139812384824912,-0.7118319810880949,0.0845703200287159
9.447501798,2.878742107339877,-0.6392855081207062,0.040077973660963565
9.449501764,2.843322547049566,-0.5662601867098838,-0.005344006071701774
9.45150173,2.8077486255148636,-0.4930025622456499,-0.051356363535143223
9.453501696,2.7720402203081345,-0.4197428753073639,-0.09760667881306626
9.455501662,2.7362120119660944,-0.3466936501173188,-0.14373211927860552
9.457501628,2.7002744186388794,-0.274048515336166,-0.18936230962025954
9.459501628,2.6642344627900605,-0.20198126382766146,-0.2341222984641425
9.461501661,2.6280965621245485,-0.1306451559329047,-0.2776355988570191
9.463501694,2.5918632384574622,-0.06017246865472246,-0.31952727899979383
9.465501727,2.5555357398282195,0.00932570903344641,-0.35942707879656416
9.46750176,2.5191145727906603,0.07775943676513074,-0.3969725270617551
9.469501793,2.4825999434353427,0.14505964349972847,-0.43181203363988185
9.471501826,2.4459921072813087,0.21117761486727252,-0.46360793025292185
9.473501459,2.4092916296703817,0.2760842558098056,-0.4920394336241984
9.475501492,2.3724995596739915,0.33976913931748576,-0.5168055043955414
9.477501492,2.3356175217593202,0.40223935411468736,-0.5376275756303003
9.479501092,2.2986477305412767,0.4635181661176983,-0.5542521253144376
9.481501092,2.261592934842871,0.5236435103347169,-0.5664530682080934
9.483501092,2.224456297963061,0.5826663315902969,-0.5740339436078843
9.485501092,2.187241221480693,0.6406487940179993,-0.5768298770110971
9.487501092,2.1499511201089128,0.6976623806634715,-0.5747092953013093
9.489501058,2.1125891550977385,0.7537859057526808,-0.5675753768895535
9.491501024,2.075157933527861,0.8091034631761201,-0.5553672202441017
9.49350099,2.0376591806081823,0.8637023354897467,-0.5380607164262172
9.495500956,2.0000933918283303,0.9176708882149702,-0.5156691136134092
9.497500922,1.9624594715537214,0.9710964744207086,-0.4882432641210888
9.499500888,1.9247543644017346,1.0240633744880545,-0.45587154711140976
9.501500854,1.8869726855154378,1.0766507955987894,-0.4186794629948587
9.50350082,1.8491063556676464,1.1289309548630722,-0.3768288984814842
9.505500153,1.8111442469931487,1.180967269118201,-0.330517064313372
9.507500186,1.773071845065546,1.2328126732973586,-0.27997511088164384
9.509500219,1.7348709330046956,1.284508087895874,-0.22546643016048282
9.511500252,1.6965193033081187,1.336081054467795,-0.16728465563217254
9.513500285,1.657990503119479,1.3875445562818751,-0.10575137508458478
9.515499418,1.619253618648362,1.4388960392643844,-0.041213574292035926
9.517499451,1.5802731044167582,1.4901166461671775,0.0259591673952411
9.519499484,1.5410086629278517,1.5411706745388618,0.09537770565512635
9.521499484,1.5014151802460816,1.5920052665694093,0.16663655738156813
9.52349945,1.4614427228569298,1.6425503362600231,0.23931729531966528
9.525499416,1.4210366010385211,1.6927187366854748,0.3129920797024239
9.527499382,1.3801375038039883,1.7424066674104626,0.3872272933911606
9.529499348,1.3386817102273902,1.7914943194300441,0.46158724525659633
9.531499314,1.296601381603539,1.8398467523508175,0.535637905086632
9.53349968,1.2538249383716678,1.8873149959316715,0.6089506321982445
9.535499646,1.21027752501986,1.9337373655757257,0.6811058592008089
9.537499646,1.1658815652599526,1.9789409789231909,0.7516966920445022
9.539500079,1.1205574086205121,2.022743458354383,0.8203323876198546
9.541500112,1.0742240682674131,2.0649548019919988,0.8866416707722914
9.543500145,1.026800048354223,2.105379403713578,0.95027585367739
9.545500645,0.9782042575549881,2.1438182007714217,1.0109117221111918
9.547500678,0.9283570036727762,2.1800709258898143,1.0682541552594829
9.549500711,0.8771810623951665,2.213938439188033,1.1220384483306176
9.551499844,0.8246028114400942,2.245225113980578,1.1720323103342227
9.553499877,0.7705534195569734,2.2737412494502345,1.2180375129156213
9.555499877,0.7149700781612565,2.299305482388776,1.2598911700416227
9.557499877,0.6577972618148094,2.321747169666169,1.2974666325711792
9.559499877,0.598988002342471,2.340908712837753,1.3306739862776433
9.561499877,0.5385051601217316,2.356647796354319,1.3594601466830356
9.563499877,0.47632267502907444,2.368839511232191,1.3838085490778895
9.565500543,0.4124267787105106,2.3773783367967054,1.4037384372844701
9.567500509,0.34681714930266205,2.3821799542477575,1.419303760014462
9.569500475,0.2795079894926764,2.3831828673052393,1.4305916889883352
9.571500441,0.21052900888456116,2.380349807053788,1.437720778213648
9.573500407,0.13992629204120086,2.373668900297923,1.4408387888498722
9.575501273,0.06776303429707214,2.3631545832429834,1.440120208818575
9.577501239,-0.005879871514340441,2.348848245111493,1.4357635006709197
9.579501205,-0.08090341290671756,2.330818589351547,1.4279881151340212
9.581501271,-0.15719021397228508,2.3091617033476988,1.4170313111610224
9.583501271,-0.23460448184347832,2.2840008309616002,1.403144826138474
9.585501304,-0.3129921530047232,2.2554858457711005,1.3865914420842347
9.587501337,-0.39218124663015863,2.223792426507159,1.3676414951324112
9.58950137,-0.4719824295033365,2.1891209398686953,1.3465693763075046
9.591501403,-0.5521897943212828,2.151695039578413,1.323650071525443
9.593500636,-0.6325818503356938,2.1117599941662046,1.2991557879266908
9.595500669,-0.7129227223732258,2.0695807594567763,1.273352712055373
9.597500702,-0.7929635513439642,2.0254398150190434,1.2464979430758232
9.599499868,-0.872444086445688,1.979634786844432,1.2188366412213985
9.601499834,-0.9510944564712046,1.9324758812147955,1.190599428079307
9.6034998,-1.0286371050008758,1.884283157067342,1.1620000712153389
9.6054993,-1.1047888718741894,1.8353836661447551,1.133233481118912
9.607499266,-1.1792632012257211,1.7861084918224275,1.1044740435868474
9.609499232,-1.2517724545659108,1.7367897187246433,1.0758743055470328
9.611500098,-1.3220303058888492,1.6877573660776353,1.04756402702961
9.613500064,-1.3897541945861853,1.639336318204545,1.0196496065955918
9.615500064,-1.4546678110265923,1.5918432856460083,0.9922138820957552
9.617500097,-1.5165035890163512,1.545583830087303,0.9653163032177258
9.61950013,-1.5750051789771018,1.5008494855967072,0.9389934669478274
9.621500163,-1.629929875546459,1.4579150076537732,0.9132600018898113
9.623500196,-1.6810509734184003,1.417035780095804,0.8881097824134832
9.625500229,-1.7281600255959169,1.3784454084524433,0.8635174489281755
9.627500262,-1.7710689788292897,1.3423535261887958,0.8394402062640592
9.629500295,-1.809612161850345,1.3089438381627025,0.8158198682610586
9.631500328,-1.8436481030767404,1.2783724231509772,0.7925851132594504
9.633500328,-1.8730611557577275,1.2507663146349783,0.7696539123058455
9.635500328,-1.89776291009151,1.226222376171379,0.7469360895913162
9.637500328,-1.917693373696606,1.2048064846201543,0.724335972989287
9.639500328,-1.932821903982091,1.1865530312734838,0.7017550916171901
9.641500228,-1.9431478784303369,1.1714647475472775,0.6790948771532406
9.643500228,-1.9487010915618566,1.159512858387264,0.6562593262262321
9.645500194,-1.94954187036045,1.150637562935732,0.6331575825616548
9.64750016,-1.9457609031459735,1.1447488383410893,0.6097063996810369
9.649500126,-1.9374787802295461,1.1417275589140778,0.5858324477664398
9.651500092,-1.9248452481060332,1.141426919191474,0.5614744317646609
9.653500858,-1.9080381823607884,1.1436741459170912,0.5365849918451563
9.655500824,-1.8872622878143372,1.1482724805529079,0.5111323618399214
9.65750079,-1.8627475376239073,1.155003410753059,0.48510176615201606
9.65950159,-1.8347473660485965,1.1636291263278167,0.4584965406803988
9.66150159,-1.8035366323355282,1.173895172641462,0.4313389684286434
9.663501623,-1.7694093756746567,1.1855332721648777,0.40367082549635264
9.665501656,-1.7326763833674639,1.198264283068213,0.3755536379514254
9.667501689,-1.6936625962293372,1.211801262303086,0.3470686545371668
9.669501722,-1.65270437679105,1.225852599579119,0.31831654421888805
9.671501755,-1.6101466670998446,1.240125187963809,0.2894168311867271
9.673501788,-1.566340063867869,1.254327596509104,0.26050708305975856
9.675501821,-1.5216378393910512,1.2681732103274843,0.2317418706205217
9.677501821,-1.4763929370789495,1.2813833039052567,0.2032915194109712
9.679501787,-1.4309549706111442,1.2936900141466,0.17534067495033664
9.681501753,-1.3856672556774905,1.3048391806804454,0.14808670423304782
9.683501719,-1.340863902961979,1.3145930223273516,0.12173795657270386
9.685501685,-1.2968670004722163,1.3227326203108885,0.0965119068110099
9.687501651,-1.2539839124759324,1.3290601808013247,0.07263320344877357
9.689501617,-1.2125047211739415,1.3334010516876271,0.05033164343678741
9.691501583,-1.1726998358249876,1.3356054710721195,0.029840094259764686
9.693501583,-1.1348177923619616,1.3355500278534846,0.011392382631954308
9.695501616,-1.0990832646270288,1.333138817888153,-0.004778832328352401
9.697501649,-1.0656953062368533,1.3283042825717022,-0.01844418509571551
9.699501315,-1.0348258398038337,1.321007720226144,-0.02937971407031708
9.701501348,-1.0066184078212062,1.3112394643742058,-0.03736894285464149
9.703501381,-0.9811871970023492,1.2990187267834854,-0.04220492039412432
9.705500747,-0.9586163452759464,1.284393107024696,-0.043692209033765896
9.707500613,-0.9389595380041126,1.2674377741586644,-0.0416488104638263
9.709500646,-0.9222398973360435,1.2482543299943285,-0.03590802023136723
9.711500646,-0.9084501659606468,1.2269693670914568,-0.026320201994848396
9.713500646,-0.897553183896222,1.203732738258258,-0.012754473013391644
9.715500646,-0.8894826543594079,1.1787155576529178,0.0048997074969543055
9.717500646,-0.8841441921846414,1.1521079566887955,0.0267310555165175
9.719500646,-0.8814166457118061,1.1241166207382842,0.0528050933736452
9.721499979,-0.8811536805228727,1.0949621351149086,0.08316290354842511
9.723499045,-0.8831856109021177,1.0648761709609535,0.11782001396929634
9.725498111,-0.8873214624478037,1.03409854343735,0.15676542384214445
9.727497177,-0.8933512469098193,1.0028741759666935,0.19996077925186143
9.729496243,-0.9010484280970188,0.9714500052037265,0.2473397079532506
9.731495309,-0.9101725556173684,0.9400718619024292,0.29880732288390416
9.733494375,-0.9204720413192538,0.9089813629212696,0.35423990394625715
9.735493441,-0.9316870516397651,0.8784128492637913,0.4134847674811436
9.737492507,-0.9435524876799116,0.8485904043005209,0.47636033255126536
9.739491607,-0.9558010237450365,0.8197249851774105,0.5426563926268129
9.74149164,-0.968166174319784,0.7920116989073449,0.6121346004734294
9.743490773,-0.9803853589910613,0.7656272527889577,0.6845291729481495
9.745489906,-0.9922029346922783,0.7407276066309278,0.7595478209882133
9.747489272,-1.0033731648285809,0.7174458518149759,0.8368729083207774
9.749488638,-1.013663095376347,0.6958903395402845,0.9161628403304848
9.751487771,-1.0228553089563963,0.6761430776830741,0.9970536821117769
9.753486904,-1.0307505291769778,0.6582584126010308,1.0791610020380205
9.755486004,-1.0371700492272675,0.6422620089375268,1.162081934259562
9.75748507,-1.0419579607486025,0.6281501370606463,1.2453974504796907
9.759484503,-1.0449831613710152,0.6158892742336575,1.3286748282431182
9.761483803,-1.0461411219093564,0.6054160219909951,1.4114702999019055
9.763482869,-1.0453553969863087,0.5966373385360565,1.4933318635035475
9.765482602,-1.0425788657106787,0.5894310813481548,1.573802234184866
9.767481835,-1.037794691928043,0.5836468516561777,1.6524219123451676
9.769480901,-1.0310169964378357,0.5791071290723638,1.7287323429733221
9.771480001,-1.0222912363972874,0.5756086815430361,1.8022791390692399
9.773479134,-1.0116942898421915,0.5729242329296086,1.8726153412065094
9.775479167,-0.9993342457594621,0.570804368050115,1.93930468500531
9.7774792,-0.9853499023813298,0.5689796529401338,2.0019248486327306
9.779478566,-0.9699099783325554,0.5671629464536586,2.0600706533331383
9.781478366,-0.9532120430062814,0.5650518781155381,2.113357191260435
9.783479299,-0.9354811741508976,0.5623314663404442,2.1614228563640294
9.785480232,-0.9169683521887477,0.5586768507218738,2.2039322555991485
9.787481165,-0.8979486022983147,0.5537561120288843,2.2405789791274615
9.789482065,-0.878718896781863,0.5472331537766926,2.271088209308215
9.791482131,-0.8595958316952612,0.5387706197051926,2.2952191490550535
9.793483031,-0.8409130931311583,0.5280328221593551,2.3127672505062176
9.795483931,-0.823018729957276,0.514688657181047,2.3235662249530167
9.797484497,-0.8062722512816637,0.4984144830668775,2.327489814687208
9.79948583,-0.7910415684794784,0.4788969402050096,2.324453307001602
9.801485796,-0.7776998032377337,0.4558356911668085,2.314414770177755
9.803485929,-0.766621984678133,0.428946061287656,2.2973759911098255
9.805486795,-0.7581816601247694,0.39796156130824556,2.2733830944476483
9.807487028,-0.752747445428164,0.3626362750406823,2.242526823978008
9.809486761,-0.750679541882392,0.32274709645504307,2.204942468509834
9.811487627,-0.7523262476241022,0.27809580204306705,2.160809416806883
9.813488493,-0.7580204919399394,0.2285109457979178,2.1103503291075074
9.815489359,-0.768076421123922,0.17384956563642973,2.053829916482741
9.817490259,-0.782786064453348,0.11399869156560566,1.991553323690086
9.819490292,-0.8024161085467414,0.04887664735095665,1.9238641161998162
9.821490992,-0.8272048078679061,-0.021565861117230096,1.8511418775652344
9.823492725,-0.8573590584429642,-0.09734487614129216,1.77379942910719
9.825493791,-0.8930516609272908,-0.17844254119753025,1.6922796897999393
9.827494724,-0.9344187979631576,-0.2648066791839466,1.6070522000969725
9.829495657,-0.9815577493074203,-0.3563505971751979,1.5186093390593265
9.83149659,-1.0345248665210869,-0.45295311756985107,1.4274622694036758
9.83349749,-1.0933338271558424,-0.554458834166895,1.3341366498418075
9.835497456,-1.1579541863988259,-0.6606785903877281,1.2391681582136822
9.837497422,-1.2283102420834409,-0.7713901755949669,1.1430978723238052
9.839498055,-1.3042802268598293,-0.8863392342704252,1.046467558015428
9.841498921,-1.3856958391473775,-1.0052403817051945,0.9498149158320056
9.843498887,-1.472342122257532,-1.127778518816444,0.8536688386111941
9.845498853,-1.5639576987651371,-1.2536103377230947,0.7585447325441019
9.847498819,-1.6602353647987023,-1.3823660087676157,0.6649399536444445
9.849498819,-1.7608230463901349,-1.5136510387472473,0.5733294102607311
9.851499652,-1.8653251173580512,-1.6470482892044993,0.48416138030272254
9.853499652,-1.9733040753977,-1.7821201427229094,0.3978535893237364
9.855499652,-2.0842825701299805,-1.9184108042904549,0.31478959256278766
9.857499985,-2.197745773844808,-2.0554487239468404,0.23531550053106107
9.859499551,-2.313144082589323,-2.1927491261361935,0.1597370837477492
9.861499551,-2.429896132139874,-2.3298166304543435,0.08831728783424857
9.863500284,-2.547392110316557,-2.46614794782664,0.02127418541553869
9.865500284,-2.6649973441176886,-2.6012346355999174,-0.041220613803283575
9.867500717,-2.782056137324378,-2.734565894592584,-0.09904307877413633
9.86950165,-2.8978958315848184,-2.8656313908150852,-0.1521173882142289
9.871501683,-3.0118310615539325,-2.9939240843398376,-0.20041607234333148
9.873501716,-3.12316817245832,-3.1189430476668605,-0.2439596662594538
9.875501749,-3.2312097665073796,-3.240196255913712,-0.2828158816908639
9.877501782,-3.335259342909339,-3.3572033312733813,-0.31709830949443185
9.879502682,-3.434625994900957,-3.4694982244439156,-0.3469646707240187
9.881502682,-3.5286291261764933,-3.5766318161512904,-0.3726146392733309
9.883501748,-3.616603148408616,-3.678174422475542,-0.3942872639064359
9.885501581,-3.6979021211899585,-3.773718188448013,-0.41225802184175175
9.887501547,-3.7719042956940303,-3.8628793552887153,-0.4268355398931163
9.889501513,-3.8380165236774095,-3.9453003876585773,-0.43835802245353916
9.891501479,-3.895678494152522,-4.0206519483779495,-0.4471894282951617
9.893501445,-3.944366761186353,-4.088634709187617,-0.45371544021339044
9.895501445,-3.9835985278540966,-4.148980987288767,-0.4583392729319438
9.897501445,-4.01293515341336,-4.201456198588586,-0.46147736539601797
9.899501478,-4.031985353260046,-4.245860119798405,-0.4635550036331357
9.901501511,-4.040408064162047,-4.282027952782844,-0.46500191981070077
9.903501544,-4.037914950614554,-4.30983118584079,-0.4662479120353995
9.90550091,-4.024272531880465,-4.329178247908368,-0.4677185278835189
9.907500943,-3.9993039133001003,-4.340014952998388,-0.46983085267507235
9.909500976,-3.9628901096788525,-4.342324733508032,-0.4729894411625953
9.911501009,-3.9149709528878476,-4.336128662308779,-0.4775824286632281
9.913501009,-3.8555455801489003,-4.321485264753339,-0.48397785480636957
9.915501809,-3.7846725037402784,-4.298490122875316,-0.4925202301062098
9.917501809,-3.7024692669877366,-4.267275275110656,-0.5035273726052967
9.919501809,-3.60911169534217,-4.228008415836056,-0.5172875389462067
9.921501809,-3.5048327550363267,-4.180891899903653,-0.5340568714451143
9.923501809,-3.389921035188787,-4.126161558166684,-0.5540571800630749
9.925501142,-3.2647188722049223,-4.0640853307640254,-0.5774740755704832
9.927500442,-3.1296201378502335,-3.9949617256961494,-0.604455467615494
9.929500408,-2.9850677144262785,-3.9191181110068993,-0.6351104387432266
9.931500374,-2.831550682094668,-3.8369088496920924,-0.6695085025635406
9.93350034,-2.6696012446195456,-3.7487132872817943,-0.7076792511427191
9.935500306,-2.499791420676569,-3.654933602879334,-0.7496123932463762
9.937500272,-2.3227295284440093,-3.5559925352819595,-0.7952581812857683
9.939500238,-2.1390564914903933,-3.4523309966563165,-0.8445282207741368
9.941500204,-1.9494419940477743,-3.3444055870967393,-0.8972966518844134
9.94350037,-1.7545805136513006,-3.232686024245427,-0.9534016884352543
9.945500403,-1.5551872588654678,-3.1176525029782334,-1.012647495448537
9.947500436,-1.351994039422735,-2.999793000931864,-1.0748063824457528
9.949500469,-1.145745095576038,-2.879600546349501,-1.1396212859840786
9.951500502,-0.9371929128103896,-2.757570465337114,-1.2068085116431206
9.953500535,-0.7270940472590163,-2.6341976261230795,-1.276060702823781
9.955500568,-0.5162049862125233,-2.5099736982572547,-1.3470500013875653
9.957500601,-0.30527806699839094,-2.385384444843836,-1.4194313634079851
9.959500601,-0.095057476271981,-2.260907065879365,-1.492845992136318
9.961500567,0.11372464956025749,-2.13700761058541,-1.5669248496776813
9.963500533,0.32035200343836306,-2.0141384762984536,-1.6412922088109607
9.965501166,0.5241277483306109,-1.892736011006984,-1.715569206860177
9.967501132,0.724378002998359,-1.7732182360092341,-1.7893773645087485
9.969501098,0.9204551577846456,-1.655982704415719,-1.8623420338762242
9.971501064,1.1117410067919586,-1.5414045103513077,-1.9340957419619087
9.973501064,1.2976496842127478,-1.4298344627278328,-2.004281397622072
9.975500264,1.4776303939607163,-1.3215974363612806,-2.0725553325331014
9.977500297,1.6511699231432186,-1.2169909120016973,-2.1385901490746266
9.97950033,1.8177949313247603,-1.1162837155382679,-2.2020773507389038
9.981500363,1.9770740089487133,-1.01971496524143,-2.2627297335445578
9.983500396,2.128619499681211,-0.9274932344011083,-2.320283520015246
9.985501096,2.2720890827779456,-0.8397959351029426,-2.374500220577805
9.987501796,2.407187112818451,-0.7567689271500432,-2.425168210723601
9.989501829,2.5336657153031243,-0.6785263543013661,-2.4721040159235455
9.991501829,2.651325637701399,-0.6051507080889739,-2.5151533000318813
9.993501829,2.760016856620844,-0.5366931175299143,-2.554191556682939
9.995501829,2.859638942863538,-0.4731738610960792,-2.589124506906431
9.997501162,2.9501411872468437,-0.41458309537490684,-2.6198882097965575
9.999501162,3.0315224911618497,-0.360881792970594,-2.646448896508295
10.00150116,3.1038310268725784,-0.31200288038222806,-2.6688025410526084
10.0035011,3.167163673466414,-0.2678525648663918,-2.686974184235769
10.00550066,3.221665235112124,-0.2283118376517601,-2.701017029544855
10.00750063,3.2675274488479773,-0.19323813932615896,-2.7110113317554556
10.00950059,3.304987789505164,-0.16246717177701755,-2.7170631005095203
10.01150056,3.334328079580901,-0.13581483975590541,-2.719302642096727
10.01350053,3.355872911935701,-0.11307930397319581,-2.717882963190494
10.01550049,3.3699878931367984,-0.09404312661504852,-2.7129780603441023
10.01750046,3.37707771514864,-0.07847548931405006,-2.704781118640376
10.01950042,3.3775840629269407,-0.0661344629072375,-2.693502642016957
10.02150042,3.3719833653488633,-0.05676930780071505,-2.6793685364878823
10.02350046,3.3607843968525035,-0.05012278345105672,-2.6626181658119545
10.02550049,3.3445257372020873,-0.04593344538934808,-2.6435023972109737
10.02750052,3.323773096958326,-0.04393790836765343,-2.622281652608039
10.02950056,3.299116516517634,-0.04387305460351697,-2.599223978579661
10.03150059,3.2711674470104173,-0.04547816672388276,-2.574603145772146
10.03350062,3.2405557219686063,-0.04849696584082702,-2.548696785895672
10.03550065,3.207926429506832,-0.052679536205461924,-2.521784571652224
10.03750065,3.173936695724409,-0.057784119080729404,-2.494146442303
10.03950062,3.139252390946177,-0.06357875986939703,-2.4660608753505313
10.04150059,3.1045447711067222,-0.06984279415954352,-2.4378032032571766
10.04350055,3.0704870669686612,-0.07636816021909339,-2.409643973349059
10.04550052,3.037751033973923,-0.08296052756476303,-2.381847349024018
10.04750048,3.0070034754241974,-0.08944023350386843,-2.354669550968587
10.04950045,2.978902751436213,-0.09564302194420385,-2.3283573381222054
10.05150045,2.954095285758823,-0.10142058123367992,-2.3031465294226927
10.05350045,2.933212082094684,-0.10664088028174047,-2.27926056875782
10.05550048,2.916865261071946,-0.11118830469309897,-2.2569091368986927
10.05750118,2.9056446285207325,-0.11496359708121194,-2.236286815397731
10.05950122,2.9001142852937405,-0.11788360809363624,-2.217571808421481
10.06150125,2.900809288570019,-0.11988086694054383,-2.200924729211654
10.06350128,2.908232374394312,-0.12090298233539958,-2.186487458314152
10.06550172,2.922850751110446,-0.12091188669616128,-2.1743820808974297
10.06750175,2.9450929733345377,-0.1198829381826166,-2.164709910420733
10.06950175,2.975345906184284,-0.1178038966362735,-2.157550605632684
10.07150175,3.013951789635103,-0.11467379072801638,-2.1529613874041487
10.07350175,3.061205413104459,-0.11050169459052821,-2.1509763612540853
10.07550175,3.117351410662989,-0.10530543289757885,-2.1516059506536904
10.07750175,3.1825816876291655,-0.09911023373197271,-2.154836445348342
10.07950175,3.257032989718701,-0.09194734864920767,-2.1606296680815573
10.08150175,3.340784626385434,-0.08385265909568936,-2.16892276229661
10.08350155,3.4338563604970176,-0.07486528778680508,-2.179628102666077
10.08550151,3.5362064770197366,-0.06502623280982113,-2.1926333296651013
10.08750148,3.6477300439243474,-0.05437704112140305,-2.207801508841265
10.08950145,3.768257379058533,-0.0429585368028202,-2.224971414909402
10.09150141,3.897552737256094,-0.03080961796929735,-2.243957940283457
10.09350178,4.035313232461478,-0.017966134659919263,-2.2645526271350898
10.09550174,4.1811680101293405,-0.0044598584146803705,-2.2865243215460564
10.09750171,4.334677685594345,0.00968244738172135,-2.3096199478196926
10.09950121,4.495334064466457,0.02443984891758571,-2.33356540055861
10.10150124,4.662560161357066,0.03979794923722735,-2.3580665517138337
10.10350128,4.8357105333628105,0.055749477026574006,-2.3828103694702483
10.10550131,5.01407194472893,0.0722947540167287,-2.407466145560256
10.10750134,5.19686437897909,0.0894420395299562,-2.4316868274009114
10.10950138,5.383242414501424,0.10720775202417836,-2.4551104513357704
10.11150141,5.572296979068473,0.12561656874352242,-2.4773616732279344
10.11350144,5.763057497995786,0.1447014057519103,-2.498053392679983
10.11550144,5.9544944495843914,0.16450328171173756,-2.5167884672260676
10.11750141,6.145522340129914,0.18507106977363297,-2.5331615129224323
10.11950137,6.335003109096968,0.20646114288003511,-2.546760787822026
10.12150134,6.521749973031766,0.22873691867446672,-2.557170154822024
10.12350131,6.7045317144092005,0.2519683110632875,-2.563971120289006
10.12550127,6.8820774188889,0.2762310962957436,-2.5667449446728954
10.12750124,7.053081661404981,0.3016062021951521,-2.565074821003529
10.12950124,7.216210138156456,0.32817892986583014,-2.558548116716362
10.13150124,7.370105737915766,0.3560381177946825,-2.5467586736770746
10.13350144,7.513395042144213,0.3852752587468059,-2.5293091605775957
10.13550147,7.644695239212053,0.41598358021155074,-2.5058134710734294
10.1375015,7.762621433598597,0.4482570993842013,-2.475899160140716
10.13950114,7.865794326339326,0.48218966376380845,-2.4392099101647715
10.14150117,7.9528482382483325,0.5178739884021596,-2.395408017238894
10.14350137,8.022439442637392,0.5554007006445444,-2.344176887059524
10.1455014,8.073254769444253,0.5948574028562572,-2.2852235286607954
10.14750144,8.104020437933576,0.6363277631330304,-2.2182810330565084
10.14950144,8.113511070495015,0.6798906433596305,-2.143111022678543
10.15150144,8.10055883557905,0.7256192732274283,-2.059506056345963
10.15350104,8.06406266353171,0.773580477976642,-1.9672919733879837
10.15550104,8.002997475071464,0.8238339667257889,-1.8663301594892792
10.15750104,7.916423358456913,0.876431687318269,-1.756519715844683
10.15950154,7.803494628084503,0.9314172526675654,-1.6377995123293279
10.1615015,7.663468694391823,0.9888254426202863,-1.5101501046451706
10.16350147,7.495714672577975,1.0486817843838214,-1.3735954948367566
10.16550143,7.299721655830521,1.1110022135945603,-1.228204714222396
10.1675014,7.075106577501013,1.1757928171462917,-1.0740932077031347
10.16950136,6.8216215860275495,1.2430496579604355,-0.9114239986200464
10.17150133,6.539160856394705,1.3127586809557248,-0.7404086138418959
10.1735013,6.227766762579414,1.3848956985621823,-0.5613077495804925
10.17550183,5.887635336781036,1.4594264532291876,-0.3744316595528371
10.17750183,5.519120943290749,1.5363067535139199,-0.18014024854806537
10.17950186,5.122740097625785,1.6154826795201043,0.0211571437764615
10.18150183,4.699174365041574,1.696890852702515,0.2290022819527894
10.18350186,4.249272276750616,1.7804587643733487,0.44288890729133323
10.1855019,3.774050207142658,1.866105156653529,0.6622639519825791
10.18750193,3.274692161038046,1.9537404491147718,0.8865290997333942
10.18950196,2.7525484265206814,2.043267203962785,1.1150426947717087
10.19150199,2.2091330561574476,2.1345806223146884,1.3471219976754394
10.19350276,1.6461201473313452,2.2275690639124344,1.5820457829525543
10.19550273,1.0653389008780014,2.3221145824780423,1.8190572696572476
10.19750269,0.4687674461324452,2.418093468852245,2.0573673726069845
10.19950306,-0.14147457015636797,2.515376794065948,2.296158257995549
10.20150302,-0.7631346237897014,2.613830944578034,2.5345871834142994
10.20350299,-1.3938371644736176,2.713318142084151,2.7717905985673537
10.20550296,-2.0310946504481615,2.813696940567959,3.0068884794068036
10.20750292,-2.672319727325177,2.9148226936220563,3.238988865144361
10.20950292,-3.3148385008715255,3.0165479854890487,3.4671925647231614
10.21150296,-3.955904842113486,3.118723019742171,3.6905979969470497
10.21350299,-4.592715651726732,3.221195960025968,3.908306126642169
10.21550302,-5.222426999360473,3.3238132178048665,4.119425458031259
10.21750305,-5.84217104246679,3.426419682620898,4.3230770459869925
10.21950309,-6.449073618475787,3.528858890945001,4.518399486053466
10.22150312,-7.040272393867405,3.6309731303244512,4.704553845158468
10.22350315,-7.61293544395608,3.732603476185133,4.880728496836699
10.22550319,-8.16428012816842,3.8335897593389765,5.046143827495981
10.22750319,-8.691592117424623,3.9337704629670824,5.200056783596697
10.22950319,-9.192244423120753,4.032982548594543,5.341765233311754
10.23150319,-9.663716271341082,4.13106121134986,5.470612120037373
10.23350319,-10.103611661470756,4.227839565625551,5.5859893888551175
10.23550262,-10.509677445475221,4.323148263149083,5.687341670594108
10.23750262,-10.87982076291353,4.416815046455927,5.7741697114272545
10.23950258,-11.21212566737018,4.508664241838091,5.846033538880556
10.24150262,-11.504868782465968,4.598516197022858,5.902555357692439
10.24350258,-11.756533829986816,4.686186670132197,5.9434221711200745
10.24550255,-11.965824879062513,4.771486177915331,5.968388125052639
10.24750162,-12.13167817383838,4.8542193128556725,5.977276573641843
10.24950158,-12.253272407704824,4.934184040515017,5.969981866059509
10.25150155,-12.330037324773778,5.011170990351435,5.946470854391888
10.25350058,-12.36166054376656,5.084962755178165,5.906784122546243
10.25550058,-12.348092515632278,5.155333216347529,5.851036935371495
10.25750061,-12.28954954384413,5.22204691355313,5.779419906004131
10.25950135,-12.186514815168236,5.284858479739631,5.6921993777944575
10.26150138,-12.03973740845477,5.343512162896173,5.589717515140714
10.26350245,-11.850229269297278,5.397741457411822,5.472392095315404
10.26550248,-11.619260158834152,5.447268868124622,5.340715991126081
10.26750251,-11.348350605109687,5.491805830133863,5.195256332247438
10.26950254,-11.039262904896274,5.531052806805992,5.036653331480273
10.27150254,-10.693990242390484,5.564699587147251,4.865618761143142
10.27350251,-10.314744008488978,5.59242580183943,4.68293406432953
10.27550248,-9.903939420263661,5.613901674783608,4.489448085877834
10.27750244,-9.464179554695917,5.62878902404819,4.286074408598827
10.27950241,-8.998237923631677,5.6367425227592,4.073788281583311
10.28150238,-8.509039728244158,5.637411226786231,3.8536231292728336
10.28350234,-7.9996419410348105,5.630440372143053,3.626666632402497
10.28550231,-7.473212371562395,5.615473440907385,3.394056374874192
10.28750231,-6.933007878655056,5.592154490235643,3.1569750540348
10.28950234,-6.382351896870995,5.560130734772792,2.9166452556600966
10.29150237,-5.824611448529253,5.5190553685043895,2.6743237991155344
10.29350241,-5.26317381480254,5.46859060793344,2.4312956625937368
10.29550244,-4.701423040146609,5.4084109344433235,2.1888675029189155
10.29750247,-4.14271644375073,5.338206509875345,1.9483607890794772
10.2995021,-3.5903613098461014,5.257686735750445,1.7111045733470227
10.30150214,-3.0475919257775925,5.166583923251036,1.4784279285235769
10.30350217,-2.5175471328753223,5.064657038108362,1.2516520844962389
10.30550217,-2.0032485504392716,4.951695481971659,1.0320823018438827
10.30750307,-1.5075796276170754,4.827522869719874,0.8209995247144211
10.30950307,-1.0332656716530964,4.6920007605557545,0.6196518595502353
10.31150307,-0.5828549939571114,4.545032299623277,0.4292459304447069
10.31350307,-0.15870130770613247,4.386565726324405,0.2509381659054539
10.31550307,0.23705249774986847,4.216597705472312,0.08582607551398617
10.31750287,0.6024890895652195,4.0351764378832975,-0.06506042163938477
10.31950214,0.9359298249020813,3.8424045079536158,-0.20076755181049274
10.3215021,1.2359461895148078,3.6384414271681265,-0.32042605706631094
10.3235014,1.501369456772938,3.4235058343238354,-0.4232593112220641
10.32550137,1.731298494098917,3.197877315500068,-0.5085911089387694
10.32750134,1.9251056558500637,2.961897809442713,-0.575853053813057
10.3295013,2.082440714091036,2.7159725670294166,-0.6245914698227201
10.33150127,2.2032327914118435,2.460570636831605,-0.6544737595062351
10.33350127,2.287690272867239,2.196224852472887,-0.6652941318509936
10.3355013,2.3362986871627593,1.923531301466666,-0.6569786231332654
10.33750133,2.349816560312037,1.6431482594459528,-0.6295893349697689
10.33950137,2.3292692580699152,1.3557945781321636,-0.5833278156638281
10.3415014,2.2759408464552675,1.0622475200000752,-0.518537513603267
10.34350143,2.1913640125880285,0.7633400373469921,-0.4357052350444102
10.34550146,2.0773081008592027,0.4599574983133711,-0.3354615431556666
10.3475015,1.9357653321051833,0.15303386729295584,-0.218580040731396
10.3495015,1.7689352859326264,-0.15645264788732757,-0.08597548552294541
10.35150146,1.5792077386006562,-0.46748446462807697,0.06129930533420334
10.35350103,1.3691439608802198,-0.7790099875915016,0.2220577967528213
10.355501,1.1414565920423385,-1.089949436516648,0.3949853482533202
10.35750096,0.8989882175403319,-1.3992011070793513,0.5786461120072198
10.35950133,0.6446887890049089,-1.7056480269217276,0.7714912185410865
10.36150129,0.38159203582153,-2.008164963868627,0.9718682388528768
10.36350126,0.11279102775698777,-2.30562573830637,1.1780318971091654
10.36550126,-0.15858694221533404,-2.596910786758786,1.3881559924704199
10.36750126,-0.42940597665319974,-2.8809149188941556,1.6003464720636364
10.36950126,-0.6965475073041272,-3.156555205583599,1.812655579802092
10.37150126,-0.9569363494205629,-3.4227789312798507,2.023096987746723
10.37350126,-1.2075666757249017,-3.6785715399913563,2.2296617981609175
10.37550126,-1.4455277032561065,-3.9229645006030203,2.4303352855693814
10.37750143,-1.6680288816526696,-4.155043014354493,2.6231142293258474
10.37950143,-1.8724243679362362,-4.373953485014008,2.806024668829526
10.38150143,-2.0562365706701025,-4.5789106707309255,2.977139896088854
10.38350129,-2.2171785456381157,-4.769204435767366,3.1345984844149957
10.38550132,-2.3531750261449043,-4.944206020378656,3.2766221383733125
10.38750136,-2.4623818739191234,-5.103373748106345,3.4015331395180897
10.38950139,-2.543203741626219,-5.2462580917055925,3.507771155639014
10.39150142,-2.5943097454175312,-5.372506021908168,3.5939091790958355
10.39350146,-2.61464695615068,-5.481864567379602,3.65866836343638
10.39550146,-2.6034515314220226,-5.5741835198154535,3.7009315380952823
10.39750146,-2.5602573277803815,-5.6494172253771495,3.7197551991754474
10.39950142,-2.4849018536051353,-5.707625412722092,3.7143797996425274
10.40150139,-2.377529448033989,-5.748973018750826,3.684238193279344
10.40350136,-2.2385915997345776,-5.773728985820708,3.6289621215198467
10.40550132,-2.0688443507750125,-5.782264018446783,3.5483866687332157
10.40750129,-1.8693427647032093,-5.775047303204236,3.442552647705756
10.40950125,-1.6414324733464898,-5.752642212273489,3.3117069113735167
10.41150125,-1.386738352861085,-5.71570102827927,3.156300618132717
10.41350169,-1.107150415325631,-5.66495874512311,2.9769855056072165
10.41550172,-0.8048070369569805,-5.601226015713552,2.7746082514130777
10.41750175,-0.4820756772417382,-5.525381332208626,2.5502030194775713
10.41950192,-0.1415312744274378,-5.43836253705999,2.3049823072229407
10.42150195,0.21406746853617786,-5.341157773399004,2.0403262227153793
10.42350198,0.5818036677626535,-5.234795990910735,1.757770331916618
10.42550202,0.9586294495190144,-5.120337128260614,1.458992224633212
10.42750205,1.341394467146766,-4.9988620954967065,1.1457969538103234
10.42950205,1.7268754467067238,-4.871462679905018,0.8201015066711825
10.43150205,2.111806452109642,-4.739231496871993,0.48391846812689626
10.43350205,2.4929095519087103,-4.603252103708556,0.13933903717284357
10.43550205,2.8669255651087666,-4.464589389342654,-0.21148444403781688
10.43750205,3.230644562521791,-4.32428034649645,-0.5663562907551786
10.43950205,3.5809358034485643,-4.183325325652993,-0.9230554507911707
10.44150205,3.914776794728779,-4.042679861993502,-1.2793535023080924
10.44350162,4.229281170371519,-3.9032471576957515,-1.6330325256617666
10.44550158,4.521725104959431,-3.765871292611519,-1.9819027044683755
10.44750155,4.789571992691837,-3.6313312264492907,-2.323819515281313
10.44950151,5.03049514608214,-3.5003356452475454,-2.6567003701123353
10.45150148,5.242398293634076,-3.3735186942157216,-2.9785405816389066
10.45350145,5.4234336838944515,-3.251436628033102,-3.287428527357892
10.45550141,5.572017633654276,-3.1345653985278545,-3.5815598961286472
10.45750138,5.686843390189248,-3.023299188423615,-3.8592509083743236
10.45950138,5.766891210638502,-2.9179498886715116,-4.118950409558683
10.46150141,5.811435595208153,-2.8187475059197853,-4.359250745411681
10.46350144,5.820049644177871,-2.72584147603972,-4.578897336867562
10.46550148,5.792606541108602,-2.639302849436932,-4.77679688300339
10.46750151,5.72927819572862,-2.5591273042277316,-4.9520241315886295
10.46950154,5.6305311093255455,-2.4852389343389962,-5.103827169239715
10.47150158,5.4971195527803225,-2.417494751279762,-5.231631196546278
10.47350194,5.330076172437784,-2.3556898308110163,-5.335040767674957
10.47550194,5.130700161737842,-2.2995630290759976,-5.413840488503346
10.47750191,4.9005431569560045,-2.2488031870056915,-5.467994181887184
10.47950187,4.641393033606765,-2.2030557370330497,-5.497642542900015
10.48150184,4.355255796140368,-2.1619296223860998,-5.503099320628689
10.48350181,4.044335767533403,-2.125004436554729,-5.4848460762701405
10.48550177,3.711014297160189,-2.0918376890208576,-5.443525579792046
10.48750174,3.3578272148410893,-2.06197210306256,-5.379933919254761
10.48950174,2.9874412661630863,-2.0349428523898796,-5.295011408043975
10.49150177,2.6026297690723146,-2.0102846454986647,-5.189832385741371
10.4935018,2.2062477343601934,-1.9875385698712216,-5.065594018137997
10.49550184,1.801206693002398,-1.9662586124306036,-4.923604210895478
10.49750187,1.3904494713764355,-1.9460177778866428,-4.765268759475719
10.4995019,0.976925151237418,-1.9264137327195099,-4.592077865080308
10.50150194,0.5635644450684101,-1.9070739094659903,-4.405592152367292
10.5035017,0.15325570913767464,-1.887660013649718,-4.207428329552333
10.50550107,-0.2511781936319363,-1.8678718840734017,-3.9992446350578437
10.50750107,-0.6470019809701176,-1.8474506661992973,-3.782726217048222
10.50950107,-1.0315888025969817,-1.8261812678953089,-3.5595705928771393
10.51150107,-1.4024396849790441,-1.8038940768147211,-3.3314733345524883
10.51350107,-1.7572014160029197,-1.7804659289962246,-3.1001141236543117
10.51550067,-2.093682734695628,-1.7558203287980296,-2.8671433145604013
10.51750067,-2.4098687112271184,-1.7299269308824818,-2.6341691381548067
10.51950067,-2.7039332239467786,-1.7028003054903833,-2.4027456692252755
10.52150063,-2.9742494629448535,-1.6744980185007923,-2.1743616693896075
10.5235011,-3.2193984132531472,-1.645118067547713,-1.9504304036672642
10.52550107,-3.4381752948660913,-1.61479572453559,-1.7322805129226695
10.52750103,-3.6295939607807917,-1.583699843060933,-1.5211480067203775
10.529501,-3.792889277692755,-1.5520286963683374,-1.3181694222478377
10.53150096,-3.927517536272522,-1.5200054174618705,-1.1243761756806183
10.53350056,-4.033154958492083,-1.487873117777719,-0.9406901135636961
10.5355008,-4.109694387726524,-1.4558897643092727,-0.76792025424859
10.5375008,-4.157240262970966,-1.4243228972121171,-0.6067606937330587
10.5395007,-4.176101991388946,-1.3934442707343269,-0.45778963670809136
10.54150073,-4.166785843641284,-1.3635244998815226,-0.32146950232054183
10.54350076,-4.129985504205453,-1.3348277935683053,-0.1981480450822247
10.5455008,-4.066571414375732,-1.3076068521325375,-0.08806042441482986
10.54750083,-3.9775790490505396,-1.2820980030350522,0.00866784861460033
10.54950086,-3.864196270019043,-1.2585166434341863,0.09201716194088591
10.55150086,-3.7277498985234137,-1.2370530522368677,0.16206932671085786
10.55350086,-3.569691648638457,-1.2178686272977868,0.21900245167441285
10.55550083,-3.3915835606725344,-1.201092595766499,0.26308524401773753
10.55750079,-3.1950830705141358,-1.1868192372858462,0.2946708120866259
10.55950076,-2.9819278467658297,-1.1751056509788906,0.31419004442160126
10.56150073,-2.753920522737665,-1.1659700881217516,0.3221446384211617
10.56350116,-2.5129134450118933,-1.1593908633061145,0.3190998508092933
10.56550139,-2.2607935544324755,-1.1553058479680756,0.30567704089011716
10.56750139,-1.99946750911598,-1.1536125416014862,0.282546076272744
10.56950142,-1.7308471525250808,-1.1541687079477487,0.2504176692788142
10.57150146,-1.456835422874612,-1.1567935560702312,0.21003571053671444
10.57350106,-1.17931279320462,-1.1612694395483611,0.16216966425390694
10.57550149,-0.9001243243723661,-1.1673440411174112,0.10760708728946893
10.57750062,-0.6210674059773016,-1.174733004974155,0.04714633139579997
10.57950066,-0.34388025282397294,-1.1831229746638523,-0.018410515139479812
10.58150069,-0.07023121693596292,-1.192174990914145,-0.08826439373302454
10.58350022,0.19829103264707032,-1.201528200934618,-0.16162570079129002
10.58550022,0.46018641801427407,-1.2108038285278098,-0.2377203274563757
10.58750022,0.714051412274187,-1.2196093528387253,-0.31579527381868716
10.58950022,0.9585860231081842,-1.227542842677243,-0.39512380249561
10.59150022,1.1925997799714938,-1.2341973930475383,-0.47501010163465296
10.59350022,1.415016712900288,-1.2391656107805278,-0.5547934328113263
10.59549996,1.6248793187375892,-1.242044096963951,-0.6338517449392794
10.59749996,1.8213515182917894,-1.2424378751775156,-0.7116047411365458
10.59950006,2.0037206154245215,-1.2399647163457153,-0.7875163913872376
10.60150002,2.171398276236663,-1.2342593132958635,-0.8610968896633417
10.60349999,2.3239205532898155,-1.2249772608297043,-0.931904059799901
10.60549995,2.460946986099273,-1.2117988002570215,-0.9995442197618315
10.60749992,2.5822588149306505,-1.1944322908658598,-1.0636725189550038
10.60949989,2.6877563502249546,-1.1726173746730388,-1.1239927678985464
10.61149985,2.7774555447918594,-1.146127804957313,-1.1802567838844675
10.61349982,2.8514838202905297,-1.1147739134681052,-1.2322632802024238
10.61549982,2.9100752035025073,-1.0784046957696365,-1.2798563300931716
10.61749985,2.9535648315093637,-1.0369094988712657,-1.3229234397955911
10.61949988,2.9823828880897163,-0.9902193000581924,-1.3613932678434506
10.62149992,2.9970480363656633,-0.9383075706169428,-1.3952330301156124
10.62349995,2.99816041485844,-0.8811907228832828,-1.4244456320018055
10.62550038,2.9863942655826583,-0.8189281436544543,-1.4490665703671226
10.62750042,2.9624902635915076,-0.7516218214367794,-1.4691606487581834
10.62950042,2.927247617499927,-0.679415579197752,-1.484818549517322
10.63150042,2.8815160099986254,-0.6024939282271274,-1.4961533062285908
10.63350082,2.8261874462647434,-0.5210805623483058,-1.5032967192991107
10.63550078,2.762188076502973,-0.43543651501695746,-1.506395756557119
10.63750165,2.6904700566539685,-0.3458580047660978,-1.5056089795733412
10.63950161,2.612003508648707,-0.25267399699208126,-1.501103035017265
10.64150158,2.5277686385406413,-0.15624351221754015,-1.4930492487769988
10.64350155,2.4387480674707356,-0.056952712701323814,-1.4816203588359953
10.64550155,2.3459194267494263,0.044788199430112086,-1.4669874210339733
10.64750155,2.2502482643911903,0.14854823850096768,-1.4493169198297282
10.64950158,2.1526813062198027,0.25387901162749216,-1.4287681139717971
10.65150161,2.0541401101859664,0.36031818070575455,-1.4054906444822113
10.65350125,1.9555151478255652,0.46739297614482544,-1.3796224294962465
10.65550128,1.8576603418743716,0.5746237293148435,-1.3512878672568007
10.65750131,1.7613880839979852,0.6815273919013265,-1.3205963649712713
10.65950081,1.6674647514647871,0.7876210118771805,-1.287641207369703
10.66150084,1.576606736471455,0.8924251375682866,-1.252498774732816
10.66350084,1.4894769968153119,0.9954671232533073,-1.215228115959555
10.66550044,1.4066821317669091,1.0962843118730017,-1.1758708779744833
10.66750044,1.3287699823718282,1.1944270727082307,-1.1344515884796056
10.66950044,1.2562277510249602,1.2894616742992306,-1.0909782847718927
10.67150044,1.1894806310312018,1.3809729753949171,-1.0454434771199417
10.67350044,1.1288909330142303,1.4685669193055684,-0.9978254310677563
10.67550044,1.074757691485861,1.5518728196441511,-0.9480897490565418
10.67750041,1.0273167316763923,1.6305454280308798,-0.8961912279693839
10.67950038,0.9867411738935221,1.7042667768463495,-0.8420759656482207
10.68150034,0.953142350267092,1.772747792498549,-0.7856836861492268
10.68350014,0.9265711067812269,1.835729676879374,-0.7269502505515358
10.68550011,0.9070194620081062,1.8929850567066286,-0.6658103176046073
10.68750007,0.8944225929337867,1.9443189022759915,-0.6022001164904073
10.68950004,0.8886611176851128,1.989569218794022,-0.5360602925525816
10.69150001,0.8895636447927654,2.028607514941619,-0.46733878601217005
10.69350001,0.8969095588138688,2.061339054641221,-0.39599370341072354
10.69550004,0.910432012639452,2.0877028991849818,-0.3219961417470841
10.69750007,0.9298210975789015,2.1076717479395137,-0.2453329259635615
10.6995001,0.954727163295225,2.1212515867848927,-0.16600922156627265
10.70150014,0.9847642608079483,2.1284811542717046,-0.08405098571462319
10.70350017,1.0195136830349418,2.129431236183755,0.0004927779415072694
10.70549954,1.0585275786716921,2.124203799770077,0.0875479931076412
10.70749957,1.101332616573318,2.1129309793574897,0.17701374322983832
10.70949957,1.1474336791711788,2.0957739253761725,0.26876078949175886
10.71149954,1.1963175647764759,2.0729215290270377,0.3626303985828078
10.713499,1.2474566798605262,2.0445890348940927,0.4584335014190222
10.71549897,1.3003127035362834,2.0110165537643723,0.5559502009895345
10.71749893,1.3543402074925535,1.972467487772131,0.6549296444532582
10.7194996,1.4089902155543275,1.9292268797435246,0.7550902714822406
10.72149957,1.4637136878754886,1.8815996982943501,0.8561204475820546
10.7234989,1.5179649155463688,1.829909069836893,0.957679487659247
10.7254984,1.571204812161201,1.7744944681912784,1.0593990714122448
10.72749753,1.6229040896754299,1.7157098719826351,1.1608850481830504
10.72949697,1.6725463067051907,1.65392189945248,1.2617196247404256
10.7314961,1.7196307782793612,1.5895079297372172,1.3614639251131866
10.73349523,1.7636753369410871,1.5228542190827448,1.4596609071073308
10.73549436,1.8042189359974017,1.4543540198837182,1.5558386155754453
10.7374935,1.8408240866113676,1.3844057098702998,1.6495137479104414
10.73949263,1.8730791213007134,1.3134109382273391,1.7401955026548448
10.74149263,1.9006002772401895,1.2417727949367143,1.8273896775984726
10.7434919,1.9230335935649543,1.16989400919913,1.9106029793324637
10.745491,1.9400566176567542,1.0981751824284527,1.9893475019946718
10.747491,1.9513799161930618,1.0270130610225017,2.0631453289451174
10.749491,1.9567483875826055,0.9567988538916214,2.1315332074204005
10.7514903,1.9559423733185353,0.8879165995541046,2.194067242909853
10.7534903,1.9487785667540038,0.8207415874648544,2.2503275571613655
10.7554895,1.9351107188274854,0.7556388381093849,2.2999228514610413
10.75748856,1.9148301413063822,0.6929616462491734,2.3424948152479774
10.75948763,1.887866009136579,0.6330501915300121,2.3777223193293957
10.76148693,1.854185464434806,0.5762302204535998,2.4053253330359943
10.76348689,1.8137935254935384,0.5228118034606366,2.425068505674072
10.76548686,1.7667328048513427,0.47308817057324637,2.4367643546783695
10.76748593,1.713083041003714,0.4273346286821404,2.440276006046326
10.76948499,1.6529604487034943,0.3858075631341134,2.43551943699746
10.77148409,1.586516893054785,0.34874352579142065,2.422465176355912
10.77348413,1.5139388927715853,0.3163584112197119,2.4011394249119875
10.77548326,1.435446458082989,0.28884672213672047,2.371624566014165
10.77748286,1.35129176885698,0.26638092473887837,2.3340590458472485
10.77948229,1.2617576986279322,0.24911089403808584,2.2886366131013514
10.78148166,1.1671561903907386,0.2371634489049775,2.2356049187666027
10.78348146,1.067826490297994,0.23064197614051118,2.1752634883051636
10.78548239,0.9641332457823719,0.2296261425887871,2.1079610901358135
10.78748329,0.8564644751306648,0.2341716940586424,2.034092535846044
10.78948296,0.7452294161604011,0.2443103396358659,1.954094958415118
10.79148306,0.6308562623895932,0.2600497198408883,1.8684436245984974
10.79348302,0.5137897959270004,0.28137345702128536,1.7776473461495221
10.79548322,0.3944889272140741,0.3082412863676861,1.6822435614561713
10.79748409,0.2734241526895162,0.340589266006253,1.582793164248827
10.79948495,0.15107494240055325,0.3783300647476083,1.479875159200303
10.80148495,0.02792707053543604,0.4213533262541724,1.3740812254986547
10.80348585,-0.09553009721554773,0.46952610861257665,1.2660102688930883
10.80548649,-0.21880634466226292,0.5226933985426785,1.1562630404150944
10.80748649,-0.34141335881607604,0.5806786997101991,1.045436896128714
10.80948609,-0.46286747982893406,0.6432846948081343,0.9341207670544377
10.81148679,-0.5826924299840937,0.7102939812118968,0.8228904020457721
10.81348679,-0.7004220039248219,0.7814698800796297,0.7123039390960311
10.81548755,-0.8156027018202485,0.8565573187509623,0.6028978525270279
10.81748845,-0.9277962868730858,0.9352837861862123,0.4951833149511834
10.81948849,-1.0365822485063854,1.017360360977209,0.3896430039872366
10.82148899,-1.1415601527342292,1.1024828111468041,0.2867283746369223
10.82348812,-1.242351861630072,1.1903327645395079,0.18685740918975563
10.82548792,-1.3386036044744067,1.2805789481017724,0.09041284770640452
10.82748818,-1.4299878840995792,1.3728784937730631,-0.002259106282950521
10.82948912,-1.5162052031301392,1.4668783080729946,-0.09084961808552258
10.83149005,-1.5969855961961226,1.5622165017890928,-0.17508761255351699
10.83349095,-1.672089955738548,1.6585238754598437,-0.25473974997907245
10.83549182,-1.7413111407240858,1.7554254556275788,-0.32961001947552854
10.83749222,-1.8044748594510036,1.8525420761249132,-0.39953898669163784
10.83949248,-1.861440319672254,1.949491997974971,-0.46440273622304123
10.84149312,-1.912100641483731,2.04589256084875,-0.5241115515294922
10.84349398,-1.9563830308087067,2.141361858454501,-0.578608376515072
10.84549395,-1.9942487138124239,2.235520429754079,-0.6278671031922766
10.84749391,-2.025692635144363,2.3279929575259892,-0.6718907290696797
10.84949481,-2.050742925466203,2.4184099655399063,-0.7107094261261048
10.85149561,-2.069460146218266,2.5064095054898647,-0.7443785605125338
10.85349655,-2.0819363219382154,2.5916388248646234,-0.7729766985299805
10.85549725,-2.088293772598283,2.6737560071091737,-0.7966036300893596
10.85749728,-2.0886837603049964,2.7524315757310016,-0.8153784359398685
10.85949731,-2.083284966269725,2.8273500544031394,-0.829437619660205
10.86149735,-2.072301815201686,2.898211475586984,-0.8389333199710056
10.86349738,-2.0559626652053526,2.9647328307126424,-0.8440316136006206
10.86549768,-2.034517881894793,3.02664945548294,-0.8449109139755788
10.86749768,-2.008237815794049,3.0837163443788365,-0.8417604666135238
10.86949834,-1.977410702217312,3.1357093889080496,-0.83477893837385
10.87149835,-1.9423405027596448,3.182426534525651,-0.8241730947033196
10.87349835,-1.9033447073057375,3.223688851441821,-0.8101565567313433
10.87549834,-1.8607521150895392,3.2593415147055143,-0.7929486285615255
10.87749835,-1.814900612817311,3.28925468901271,-0.7727731843666772
10.87949921,-1.766134967214142,3.3133243136434003,-0.7498576048440444
10.88149938,-1.7148046485864927,3.3314727827996027,-0.724431753106388
10.88350114,-1.6612617011219153,3.3436495164231856,-0.6967269810577559
10.88550201,-1.6058586746725014,3.349831416351064,-0.6669751586309828
10.88750264,-1.5489466316874365,3.3500232024544485,-0.6354077198541946
10.88950261,-1.4908732417748594,3.3442576232441596,-0.6022547214725533
10.89150257,-1.4319809750992023,3.332595535336406,-0.5677439116873308
10.89350254,-1.3726054044855251,3.3151258461886406,-0.532099808403007
10.89550254,-1.313073624743293,3.291965314654032,-0.4955427881224401
10.89750254,-1.2537027963713647,3.2632582041804494,-0.458288188240476
10.89950257,-1.1947988194777746,3.22917578390345,-0.42054542690795255
10.90150261,-1.1366551424285036,3.189915673454655,-0.38251714582951285
10.90350264,-1.0795517083932529,3.145701028026169,-0.34439838228655967
10.905502,-1.0237540415452204,3.096779561093903,-0.3063757773160536
10.90750114,-0.9695124731791775,3.04342240319692,-0.2686268273112693
10.90950117,-0.91706150645922,2.985922796277515,-0.2313191863400981
10.91150117,-0.8666193169524656,2.9245946242827223,-0.19461002620584428
10.9135019,-0.8183873846188691,2.859770781985277,-0.15864546069864657
10.91550187,-0.7725502515651889,2.7918013852779398,-0.12356003958224752
10.91750184,-0.729275398655566,2.721051827515374,-0.08947631662763875
10.9195018,-0.6887132329971816,2.647900687816255,-0.05650449448195502
10.92150177,-0.6509971773747386,2.5727374985897575,-0.02474214741883335
10.92350173,-0.616243851891649,2.4959603809045823,0.005725978862924587
10.9255017,-0.5845533374030504,2.417973557661947,0.03482809314313408
10.9275017,-0.5560095098137773,2.3391847558595784,0.06250541486219809
10.92950147,-0.5306804339753896,2.260002510545488,0.08871216673834714
10.9315015,-0.5086188057605855,2.1808333843695995,0.11341551117278222
10.93350153,-0.48986243093827747,2.102079117960984,0.13659543848800534
10.93550157,-0.47443472974444145,2.024133727697348,0.1582446151436051
10.9375016,-0.46234525656664827,1.9473805687882435,0.17836819952773122
10.93950163,-0.45359022494452306,1.8721893829431955,0.19698363174681793
10.94150166,-0.448153029131723,1.7989133512042288,0.21412040212182967
10.9435004,-0.44600475475750634,1.7278861737489235,0.22981980099324323
10.9455004,-0.4471046726498027,1.6594191995798677,0.24413465011651192
10.9475004,-0.4514007116078402,1.5937986299763245,0.2571290135832364
10.9495004,-0.45882990780104094,1.5312828203533595,0.26887788401602836
10.9515004,-0.46931883047066963,1.4720997056990697,0.27946683793121596
10.9535004,-0.48278398565125114,1.4164443749860909,0.2889916527911234
10.9555004,-0.49913220161440836,1.3644768198393644,0.29755787747424384
10.9575004,-0.5182610015572594,1.3163198822758955,0.30528034770813245
10.95950036,-0.5400589706085146,1.2720574255303292,0.3122826384008775
10.96150033,-0.5644061254271223,1.2317327508769067,0.3186964456935356
10.9635003,-0.5911742954541928,1.1953472819863156,0.32466089285826777
10.96550093,-0.6202275252007554,1.1628595367364198,0.3303217558294121
10.96750179,-0.6514225068063553,1.1341844045465934,0.33583060612717974
10.96950176,-0.6846090515313039,1.109192745245335,0.3413438711466133
10.97150173,-0.7196306079159894,1.0877113232246336,0.34702181415210503
10.97350096,-0.7563248331150213,1.0695230881902305,0.3530274387507095
10.97550096,-0.7945242224421634,1.054367811192151,0.3595253250226745
10.97750099,-0.8340568004913712,1.0419430818294635,0.3666804067645829
10.97950103,-0.8747468753764268,1.0319056695917943,0.374656701347639
10.98150196,-0.9164158556982668,1.0238732492577012,0.3836160054195436
10.98350199,-0.9588831278436915,1.017426487143922,0.3937165710072946
10.98550202,-1.0019669891899927,1.0121114818106929,0.40511177745336724
10.98750206,-1.0454856308087723,1.0074425495926436,0.41794881501564946
10.98950206,-1.089258161429015,1.002905342056178,0.4323673959092855
10.99150202,-1.133105662851829,0.997960279197944,0.4484985081359339
10.99350199,-1.1768522658024894,0.9920462789161241,0.46646322671067464
10.99550196,-1.2203262343879844,0.9845847600366573,0.48637159591567475
10.99750192,-1.2633610468643337,0.9749838929964085,0.5083215950135775
10.99950189,-1.3057964602482097,0.9626430692174708,0.5323981984556541
11.00150185,-1.3474795463657034,0.9469575573067498,0.5586725400233354
11.00350222,-1.3882656871404382,0.9273233115547677,0.587201188544833
11.00550222,-1.4280195172158636,0.9031418958683094,0.6180255408329933
11.00750225,-1.4666158023519211,0.8738254843246116,0.6511713353287407
11.00950228,-1.503940242436421,0.8388018980182985,0.6866482877046556
11.01150232,-1.539890188417479,0.7975196367823241,0.7244498475428562
11.01350235,-1.5743752630060457,0.7494528636754257,0.7645530732879565
11.01550272,-1.6073178756259696,0.6941062998236301,0.8069186210171984
11.01750275,-1.6386536227935324,0.6310199872850307,0.8514908410785443
11.01950278,-1.6683315658525266,0.5597738780926792,0.8981979752066347
11.02150282,-1.696314378751914,0.4799922085381121,0.9469524452845379
11.02350282,-1.7225783593756958,0.3913476190951201,0.9976512235315564
11.02550282,-1.7471132989271183,0.2935649821436484,1.0501762727082011
11.02750282,-1.7699222051490107,0.18642490181972735,1.1043950441133106
11.02950282,-1.7910208768133262,0.06976685286028649,1.1601610208494026
11.03150282,-1.8104373289664168,-0.056508071808516504,1.2173142941367392
11.03350192,-1.828211070819654,-0.19243483182053386,1.2756821613862919
11.03550192,-1.8443922407805644,-0.33798255212151607,1.3350797362485274
11.03750188,-1.8590406057383422,-0.4930530977639138,1.3953105628238434
11.03950145,-1.8722244341996015,-0.6574801269793248,1.456167228500574
11.04150051,-1.8840192551385904,-0.8310286348035322,1.51743197233333
11.04350048,-1.894506516449397,-1.0133949954478678,1.5788772883710775
11.04550045,-1.903772158641179,-1.2042075074508227,1.640266525787723
11.04750041,-1.9119051208698477,-1.403027441460529,1.7013544899497
11.04950038,-1.9189957975269791,-1.6093505863541455,1.7618880505664571
11.05150038,-1.925134464409661,-1.8226092853482863,1.8216067647237435
11.05350038,-1.9304096939951312,-2.0421749498362796,1.8802435238439945
11.05550041,-1.9349067795640114,-2.2673610349430855,1.9375252344336837
11.05750044,-1.9387061878690963,-2.4974264572573706,1.9931735428732296
11.05950048,-1.94188205974501,-2.731579431903745,2.0469056145151567
11.06150051,-1.944500777518389,-2.968981703056141,2.0984349770268844
11.06350054,-1.9466196173375223,-3.2087531391731927,2.147472437278014
11.06550058,-1.9482855036226965,-3.449976661687016,2.193727080130368
11.06750058,-1.9495338817625991,-3.6917034736197696,2.2369073562247817
11.06950054,-1.9503877239556309,-3.932958552629466,2.276722264256648
11.07150051,-1.950856681717169,-4.172746371273585,2.3128826312906576
11.07350047,-1.950936397036019,-4.410056805811179,2.345102492396517
11.07550011,-1.95060798244967,-4.643871193639451,2.3731005683217483
11.07750007,-1.9498376784078237,-4.873168498477152,2.3966018371089954
11.07950051,-1.948576694219063,-5.096931541654555,2.4153391925983505
11.08150047,-1.9467612366606761,-5.314153257340686,2.4290551797425493
11.08350047,-1.9443127280129666,-5.523842929239886,2.43750379372581
11.0855005,-1.9411382128823367,-5.725032366240665,2.440452327122305
11.08750054,-1.9371309507264756,-5.916781974722395,2.4376832468422656
11.08950057,-1.9321711885378994,-6.098186685744231,2.4289960804655006
11.0915006,-1.926127105767142,-6.2683816961823835,2.414209289829283
11.09350154,-1.9188559213907348,-6.426547984064428,2.393162108498375
11.09550157,-1.9102051511545417,-6.571917559869686,2.3657163190634454
11.0975016,-1.900014001497338,-6.703778417398099,2.3317579461155886
11.09950204,-1.8881148854660625,-6.821479149920674,2.2911988412001016
11.10150204,-1.874335045019172,-6.924433199677814,2.2439781369945386
11.10350204,-1.8584982634214222,-7.012122711365947,2.19006354932028
11.10550204,-1.8404266509168765,-7.084101963035574,2.1294525073402633
11.10750204,-1.81994248648989,-7.140000350790294,2.062173094370258
11.10950204,-1.7968700982569583,-7.179524906779351,1.9882847840636633
11.11150204,-1.7710377648558442,-7.2024623331665865,1.9078789592329553
11.11350204,-1.7422796200994959,-7.208680538004749,1.8210792031628376
11.115502,-1.7104375431362095,-7.198129662226887,1.7280413558852128
11.11750197,-1.675363016414925,-7.170842590267097,1.6289533304805197
11.11950193,-1.6369189339202361,-7.126934940120151,1.5240346870205272
11.1215017,-1.594981342440888,-7.066604531926842,1.4135359642604972
11.12350167,-1.5494410990841223,-6.990130337419134,1.2977377716134975
11.12550163,-1.5002054288557818,-6.897870915770651,1.176949646296881
11.1275016,-1.4471993669027072,-6.790262344571721,1.0515086828404547
11.1295016,-1.390367070972378,-6.667815657789899,0.9217779443768803
11.1315016,-1.3296729907936353,-6.531113805699082,0.7881446672363357
11.13350163,-1.2651028824169441,-6.380808154874061,0.6510182722527286
11.13550166,-1.1966646570558988,-6.217614549457561,0.5108281978015609
11.1375017,-1.1243890556231495,-6.0423089580166724,0.36802157091377286
11.13950216,-1.0483301419313282,-5.855722733417736,0.22306073383044675
11.1415022,-0.9685656094002918,-5.658737516253988,0.07642064405504871
11.14350223,-0.8851968980265674,-5.452279815418628,-0.0714138336654359
11.14550223,-0.7983491202668437,-5.237315302347035,-0.21995072484818393
11.14750223,-0.708170796306667,-5.014842858154901,-0.3686938136069539
11.1495022,-0.61483340089288,-4.785888415298741,-0.5171455629863313
11.15150216,-0.5185307254847197,-4.551498637444726,-0.6648100681527215
11.15350213,-0.4194780608936891,-4.312734482907539,-0.8111960227967617
11.15550209,-0.3179112067897714,-4.070664698235637,-0.9558196784736706
11.15750206,-0.21408531541841005,-3.8263592892063034,-1.0982077759417566
11.15950202,-0.10827357760520978,-3.580883016653141,-1.2379004269421299
11.16150202,-0.0007657596676957598,-3.3352889642301182,-1.3744539243648701
11.16350123,0.10813339972169,-3.090612224460942,-1.5074434584505203
11.16550126,0.21810592327925762,-2.847863748248851,-1.6364657166888856
11.16750129,0.32882244956385787,-2.608024401459297,-1.761141345492044
11.16950132,0.43994419768895554,-2.3720392702913107,-1.8811172525570992
11.17150136,0.5511250311912188,-2.140812254977324,-1.996068730042636
11.17350139,0.6620136092525172,-1.9152009889284443,-2.1057013801749624
11.17550142,0.7722556127801893,-1.6960121177879892,-2.2097528266055093
11.17750146,0.8814960322290302,-1.483996969982892,-2.307994196722765
11.17950146,0.9893815035455579,-1.2798476472859697,-2.4002313621670397
11.18150166,1.0955626782572474,-1.0841935606374127,-2.486305926995476
11.18350166,1.199696613515844,-0.8975984330405278,-2.5660959552902947
11.18550166,1.301449167800338,-0.7205577877797424,-2.639516432493983
11.18750166,1.400497387930278,-0.5534969365548948,-2.706519457394109
11.18950166,1.4965318729713124,-0.3967694784227288,-2.767094164458527
11.19150166,1.589259100496944,-0.25065631670430677,-2.821266379102674
11.19350162,1.6784037005078993,-0.1153651972646853,-2.8690980113942164
11.19550159,1.7637106621417378,0.008969232201206382,-2.910686196597281
11.19750155,1.8449474581836554,0.12228484604338519,-2.9461621937578113
11.19950062,1.9219060723569514,0.22459095569111848,-2.9756900561549022
11.20150059,1.994404914449585,0.315966727694735,-2.9994650897934183
11.20350055,2.06229060854321,0.39655912047406067,-3.017712118070863
11.20550052,2.1254396399952413,0.4665803593196382,-3.0306835721979497
11.20750048,2.1837598474272317,0.5263049730212356,-3.0386574278209064
11.20950048,2.2371917468058364,0.5760664192646915,-3.041935008596088
11.21150052,2.2857096757437123,0.6162533295763498,-3.040838677278668
11.21350055,2.3293227473691114,0.6473054080243451,-3.0357094343261957
11.21550058,2.368075604491951,0.6697090210126622,-3.0269044432423313
11.21750062,2.402048966291276,0.6839925182215646,-3.0147945010572377
11.21950065,2.431359961291049,0.6907213269661094,-2.9997614715643794
11.22150068,2.4561622418884963,0.6904928639116611,-2.982195698237116
11.22350152,2.4766458770792137,0.683931309189247,-2.962493413112658
11.22550152,2.493037021249253,0.671682288507218,-2.9410541573190403
11.22750148,2.505597357977627,0.6544075088904027,-2.9182782282846986
11.22950145,2.5146233187404046,0.6327793932397396,-2.8945641679503877
11.23150141,2.5204450772593927,0.6074757580410586,-2.870306305438292
11.23350138,2.523425321005564,0.5791745772943739,-2.8458923665798435
11.23550135,2.5239578020480846,0.5485488741044171,-2.8217011614532863
11.23750131,2.5224656700394097,0.5162617793849023,-2.7981003596714205
11.23950131,2.5193995906664637,0.48296179479890733,-2.775444361671862
11.24150131,2.515235653405291,0.44927829440044,-2.7540722728045974
11.24350131,2.5104730729165814,0.41581729647657645,-2.7343059856762735
11.24550131,2.505631688929947,0.3831575338494145,-2.716448375035452
11.24750131,2.5012492699958164,0.3518468474352192,-2.7007816084516336
11.24950131,2.4978786270418847,0.3223989242398334,-2.687565575116239
11.25150131,2.496084543268259,0.29529039726624556,-2.677036434249735
11.25350131,2.496440527571791,0.27095832109582135,-2.6694052838310918
11.25550131,2.499525399423534,0.24979803324484368,-2.664856949687672
11.25750134,2.505919713936562,0.2321614078367221,-2.66354889441994
11.25950138,2.5162020367391413,0.21835550468611534,-2.665610245213863
11.26150141,2.530945079188338,0.20864161357036112,-2.671140939342457
11.26350144,2.55071170541597,0.2032346902771737,-2.680210986094134
11.26550148,2.576050823717633,0.2023031779868797,-2.6928598439816893
11.26750151,2.607493175918848,0.20596920469526264,-2.7090959123504725
11.26950154,2.6455470396147334,0.2143091447245368,-2.72889613687748
11.27150191,2.690693859597293,0.2273545299132015,-2.7522057288946664
11.27350187,2.74338382635715,0.24509329382742592,-2.7789379989428054
11.27550184,2.8040314212589776,0.2674713303050685,-2.8089743054444005
11.27750181,2.87301094981497,0.2943943458347987,-2.8421641198785843
11.27950177,2.950652086393501,0.32572998369068734,-2.878325210363361
11.28150174,3.0372354556898853,0.36131019639033973,-2.917243946097146
11.2835017,3.132988278347298,0.4009338419237796,-2.958675725640179
11.28550167,3.2380801102248387,0.4443694783032316,-3.0023455324636714
11.28750167,3.352618706916373,0.49135833028999415,-3.0479486215097604
11.2895017,3.476646047162581,0.5416174016360695,-3.095151340668421
11.29150107,3.610134550702344,0.5948427058120076,-3.1435920910919886
11.2935011,3.752983527820208,0.6507125879706395,-3.1928824301467715
11.29550114,3.9050158993158255,0.7088911108294008,-3.242608320560097
11.29750117,4.065975226798747,0.7690314772598263,-3.292331528977921
11.2995012,4.2355230940406,0.8307794626598946,-3.341591176720757
11.30150123,4.4132368805472675,0.8937768306471178,-3.3899054450281816
11.30350127,4.598607968518183,0.9576647062407414,-3.436773436523451
11.3055006,4.791040423923561,1.0220868815046644,-3.481677194012155
11.3075006,4.9898501915326205,1.0866930296085406,-3.524083877043563
11.3095006,5.194264842331717,1.1511418044338397,-3.5634480958889307
11.3115006,5.403423909838443,1.2151038041917257,-3.5992144017010594
11.31350107,5.616379849312441,1.2782643790104884,-3.630819930592608
11.31550107,5.8320996507750085,1.3403262640712283,-3.6576971981942723
11.31750103,6.049467133094652,1.4010120216004052,-3.679277039919412
11.319501,6.267285942212269,1.4600662768439456,-3.694991690659867
11.32150096,6.4842832719132355,1.517257735029637,-3.7042779959592025
11.32350093,6.699114320441319,1.5723809682603143,-3.706580744854329
11.3255009,6.910367490707479,1.625257963262791,-3.7013561125669927
11.32750086,7.116570335877885,1.6757394229362115,-3.688075199111013
11.32950083,7.316196245744303,1.7237058166805945,-3.6662276477192064
11.33150043,7.507671862532327,1.7690681765165726,-3.6353253248417605
11.33350043,7.689385207763944,1.811768637998283,-3.5949060413708906
11.33550046,7.859694494548131,1.8517807268361806,-3.54453729274048
11.33750049,8.016937592307167,1.8891093939525336,-3.4838199936606955
11.33950053,8.159442103520396,1.9237908033697082,-3.4123921814920437
11.34150056,8.285536004630705,1.9558918788718078,-3.3299326606478465
11.34350059,8.393558795865552,1.9855096167781787,-3.236164558947188
11.34550063,8.481873097444588,2.0127701734137817,-3.130858765543002
11.34750066,8.548876622564425,2.0378277369451125,-3.0138372189585536
11.34950066,8.59301445075273,2.0608631941626694,-2.884976012924787
11.35150129,8.612791518752063,2.0820826035329048,-2.7442082871588136
11.35350126,8.606785240118269,2.101715486429275,-2.5915268699775726
11.35550122,8.573658159293688,2.1200129489105115,-2.4269866396986903
11.35750119,8.512170541128869,2.1372456467752,-2.250706572141151
11.35950092,8.42119279274769,2.1537016069120005,-2.0628714422164696
11.36150089,8.299717611340157,2.1696839182051306,-1.8637331486266353
11.36350086,8.146871748985944,2.185508305459885,-1.6536116320910041
11.36550169,7.9619272840264435,2.201500599992106,-1.4328953593375116
11.36750172,7.744312287882014,2.217994120683925,-1.2020413473320388
11.36950175,7.493620776610605,2.235326979449144,-0.9615747048895669
11.37150179,7.209621837956944,2.253839325179555,-0.712087671904682
11.37350195,6.892267827156785,2.2738705403661292,-0.4542381399442997
11.37550199,6.541701528333704,2.295756404718145,-0.18874764185573842
11.37750202,6.158262182951729,2.319826240249912,0.08360119764302004
11.37950205,5.742490292462066,2.3464000524734763,0.3619677537166312
11.38150209,5.295131108991118,2.3757856825245978,0.645457033755588
11.38350282,4.81713673562392,2.408275985250785,0.933123843131131
11.38550282,4.309666766497885,2.4441460484907775,1.223977471448139
11.38750282,3.774087406508356,2.483650468957929,1.5169868803868856
11.38950282,3.2119690209308582,2.527020700293064,1.81108636803489
11.39150282,2.625082076659875,2.5744624889720082,2.1051816782956556
11.39350282,2.0153914489645826,2.626153413840467,2.398156517595071
11.39550278,1.3850490805322038,2.6822405450965165,2.6888794347695413
11.39750275,0.7363849929924446,2.742838238522125,2.9762110137972555
11.39950272,0.07189666503936372,2.808026080645234,3.2590113230172624
11.40150268,-0.6057631943291183,2.8778470002756977,3.536147558794879
11.40350265,-1.2938004340963813,2.952305561516666,3.806501816416221
11.40550261,-1.9892947525140132,3.03136645294459,4.0689789165346575
11.40750258,-2.6892164175237774,3.1149531872078913,4.3225142119066975
11.40950255,-3.390444327078313,3.202947024822596,4.566081296524359
11.41150255,-4.089785304852947,3.295186135423447,4.798699537628476
11.41350258,-4.783994511765191,3.3914650091330945,5.019441350574507
11.41550261,-5.469796838937722,3.4915341300146983,5.227439137275496
11.41750264,-6.143909133384434,3.595099922749849,5.421891811095774
11.41950291,-6.803063093933664,3.701824982707513,5.602070834647686
11.42150294,-7.444028661928806,3.811328598422126,5.767325701915332
11.42350298,-8.063637719290076,3.9231875741789137,5.917088802437349
11.42550284,-8.65880789580655,4.03693735892186,6.050879612831299
11.42750284,-9.226566278263013,4.152073486060104,6.168308169578064
11.42950281,-9.764072806399644,4.268053326946725,6.2690777865208664
11.43150278,-10.268643134975287,4.3842981588308785,6.352986990794188
11.43350214,-10.737770737572793,4.500195545937309,6.419930661692098
11.43550211,-11.16914802643158,4.615102030015282,6.46990036805543
11.43750207,-11.560686263650359,4.728346124239751,6.502983910777929
11.43950204,-11.910534042629164,4.839231601761911,6.51936408765724
11.441502,-12.217094124630487,4.94704106751581,6.5193167076953396
11.44350087,-12.479038423937492,5.051039799121664,6.5032078906958946
11.4455009,-12.695320946517377,5.15047983993199,6.471490695221575
11.44750094,-12.865188501606946,5.244604324510113,6.424701123414152
11.44950097,-12.988189023314163,5.332652014186794,6.363453554854902
11.451501,-13.06417736010217,5.413862017873449,6.288435663783612
11.45350104,-13.093318413748657,5.487478671057579,6.200402874927677
11.45550107,-13.076087535880504,5.5527565438780915,6.100172413250775
11.4575011,-13.013268119237393,5.6089655473653,5.988617002408535
11.45950114,-12.905946352080308,5.655396105314944,5.866658265832484
11.46150114,-12.755503137173859,5.69136435783109,5.735259883342576
11.46350114,-12.563603210972335,5.716217361303354,5.595420555190454
11.46550114,-12.332181533379032,5.7293382484589355,5.448166824618189
11.46750114,-12.06342705303058,5.730151311127077,5.294545809451689
11.46950114,-11.759763986760234,5.718126967457546,5.135617892862832
11.47150114,-11.423830783953262,5.692786574544043,4.972449423052502
11.4735005,-11.058456976162407,5.653707046735066,4.806105471042259
11.47550047,-10.666638138981398,5.600525239414415,4.637642694877386
11.47750043,-10.251509216395275,5.532942057776656,4.4681023572376475
11.4795004,-9.81631647744067,5.4507262501982545,4.298503541645204
11.48150036,-9.364388390907406,5.353717846296635,4.129836610108518
11.48350033,-8.899105715938717,5.24183120074613,3.9630569421626647
11.4855003,-8.423871114754744,5.11505760542819,3.7990789919333077
11.48750026,-7.942078598427223,4.973467434551151,3.6387706961692614
11.48950026,-7.457083117849973,4.817211789970048,3.482948262273675
11.4915003,-6.9721706099928795,4.646523617035976,3.3323713613346473
11.49350033,-6.4905288043280995,4.461718264865307,3.187738747121257
11.49550036,-6.015219085992297,4.2631934689003925,3.049684318061724
11.4975004,-5.549149700832395,4.051428737996678,2.91877363543504
11.49950043,-5.095050573144814,3.8269841329783465,2.795500907452322
11.50150046,-4.655449989919872,3.590498428615973,2.6802864456210913
11.50350089,-4.232653385990911,3.3426866562483433,2.573474596789475
11.50550073,-3.8287244428550427,3.0843370297351425,2.4753321515708384
11.50750069,-3.445468690249892,2.8163072630114057,2.3860472274885365
11.50950066,-3.084419774036188,2.5395202931381853,2.305728623206145
11.51150062,-2.746828526791581,2.254959428334218,2.234405638650366
11.51350059,-2.4336549490297332,1.963662945971674,2.17202835467627
11.51550056,-2.145563179385312,1.6667181708829069,2.1184683651193343
11.51750052,-1.882919501733241,1.365255069529635,2.073519953576256
11.51950049,-1.6457934063711863,1.0604394006194775,2.036901707021331
11.52150049,-1.4339616914625313,0.753465467603986,2.0082585583632953
11.52350052,-1.2469155602893032,0.44554852313231247,1.9871642502176416
11.52550056,-1.083870639845079,0.13791687993192245,1.9731242123952564
11.52750059,-0.9437798172050075,-0.16819621330161677,1.9655788457208103
11.52950062,-0.8253487621785865,-0.4715608686615303,1.9639072046246342
11.53150065,-0.727053978145612,-0.7709589627493205,1.9674310703917417
11.53350129,-0.6471631978215827,-1.0651925788342331,1.9754194059631571
11.53550132,-0.5837579171237179,-1.3530924166805494,1.9870931817643909
11.53750135,-0.5347578384598621,-1.6335260976931034,2.001630560199215
11.53950135,-0.49794697479697486,-1.9054062921690507,2.0181724242475556
11.54150135,-0.47100114794882986,-2.1676985952998518,2.0358282331416846
11.54350135,-0.45151659884255163,-2.4194290791580504,2.0536821854653553
11.54550135,-0.4370394142922872,-2.6596914492794586,2.07079966728617
11.54750182,-0.4250954642235434,-2.887653736647304,2.0862339601149182
11.54950182,-0.41322053549881727,-3.1025644588767403,2.0990331806061397
11.55150179,-0.3989903435922715,-3.303758188126232,2.1082474210059625
11.55350175,-0.38005010144432727,-3.4906604676717317,2.1129360564533783
11.55550172,-0.35414332602140375,-3.662792024127693,2.1121751823665478
11.55750168,-0.3191395675470188,-3.8197722279380146,2.1050651422810747
11.55950145,-0.2730607541663778,-3.9613217609259515,2.090738103601075
11.56150142,-0.21410585603069723,-4.087264456318396,2.0683656356842355
11.56350138,-0.140673587473569,-4.197528283697173,2.0371662413804708
11.56550178,-0.05138288406499864,-4.292145458746127,1.9964127894433334
11.56750178,0.05490908723423223,-4.371251665434743,1.945439791034404
11.56950181,0.17909160195266738,-4.435084386387424,1.883650458829738
11.57150185,0.3217879253998949,-4.48398034560472,1.8105234821280436
11.57350188,0.4833458919628923,-4.51837207636533,1.7256194461372862
11.57550191,0.6638316413393437,-4.538783635925599,1.628586818774622
11.57750195,0.8630266003648425,-4.54582549738077,1.5191674245189242
11.57950198,1.0804277606028267,-4.540188657590579,1.3972013227934355
11.58150201,1.3152512617019725,-4.522638008271838,1.2626310086101689
11.58350201,1.5664392493199881,-4.494005025160106,1.1155048561960772
11.58550198,1.8326699348900575,-4.455179837547251,0.9559797321771997
11.58750194,2.1123707434868217,-4.407102747551549,0.7843227133056885
11.58950191,2.4037343963991145,-4.350755275187171,0.6009118539363381
11.59150188,2.704737737611347,-4.287150811622057,0.4062359595652084
11.59350144,3.0131630791304675,-4.217324968835203,0.20089333385904581
11.59550141,3.326621809792438,-4.142325719053983,-0.014410522899449187
11.59750137,3.6425799863522315,-4.063203421702504,-0.23886627636391258
11.59950137,3.958385604393254,-3.9810008389652114,-0.4715651850074976
11.60150141,4.27129722971489,-3.896743243325976,-0.7115045855992154
11.60350144,4.578513658181296,-3.81142872145392,-0.9575944218094838
11.60550147,4.877204263432123,-3.726018778453327,-1.2086647895041742
11.60750104,5.164539687302097,-3.641429344685944,-1.463474459655552
11.60950107,5.4377225272027605,-3.558522284088413,-1.7207203254257015
11.6115011,5.694017678018615,-3.478097498202468,-1.9790477041450845
11.61350114,5.930781993189618,-3.400885714114904,-2.237061408226864
11.61550117,6.145492940458139,-3.327542037288923,-2.493337482376527
11.61750117,6.335775942028986,-3.2586403419918337,-2.7464354887176894
11.61950137,6.499430106372103,-3.1946685628352625,-2.994911207510705
11.62150137,6.634452079357526,-3.1360249409922343,-3.237329609627947
11.62350097,6.7390577656441115,-3.0830152680713576,-3.47227794824044
11.6255007,6.811701697049173,-3.035851159522232,-3.6983788113741998
11.6275007,6.851093852801992,-2.994649377921287,-3.914302974017314
11.62950067,6.856213766891888,-2.959432214655523,-4.118781888089547
11.63150064,6.826321789863066,-2.93012892651112,-4.310619650603517
11.6335006,6.760967406033767,-2.9065782116191516,-4.488704294661062
11.63550057,6.659994541825891,-2.8885316972416204,-4.652018254635697
11.63750053,6.52354383621426,-2.875658400127803,-4.7996478661309805
11.6395009,6.352051879708994,-2.86755010877502,-4.930791773102953
11.64150087,6.146247463192629,-2.8637276260454985,-5.0447681288508415
11.64350083,5.907144911718633,-2.863647800385128,-5.141020494413045
11.64550083,5.63603461038288,-2.866711264510216,-5.219122357206199
11.64750083,5.334470859034145,-2.8722707919837585,-5.278780214183735
11.64950086,5.004257219551139,-2.8796401746534452,-5.319835186694583
11.6515009,4.647429543573196,-2.888103517502819,-5.342263157769959
11.65350133,4.266236889929607,-2.8969248421103044,-5.346173445996969
11.65550136,3.863120559574301,-2.905357885670557,-5.331806052829215
11.6575014,3.440691491602171,-2.912655979480171,-5.299527541654067
11.65950143,3.001706276925188,-2.9180818890240134,-5.2498256268374215
11.66150143,2.549042056438617,-2.9209174974551932,-5.1833025690454795
11.66350216,2.0856705779765075,-2.920473215487831,-5.10066748918678
11.66550213,1.6146316909474463,-2.916097003613794,-5.0027277271619885
11.6675021,1.1390065591175464,-2.9071828971251628,-4.890379383151686
11.66950166,0.661890870431535,-2.893178930624205,-4.7645971883231955
11.67150163,0.18636831797730335,-2.873594366449387,-4.62642385843916
11.67350159,-0.28451538176354935,-2.848006140617936,-4.476959087648001
11.67550156,-0.7477776783246629,-2.816064450307126,-4.317348340411642
11.67750156,-1.2005233434102498,-2.77749741834806,-4.148771596807581
11.67950156,-1.6399673698873511,-2.732114782448204,-3.972432200273627
11.68150156,-2.0634564092438743,-2.679810569648343,-3.789545947471657
11.68350196,-2.4684885648691415,-2.620564729613991,-3.6013305477295363
11.68550196,-2.8527313821130544,-2.5544437135324722,-3.4089955649478147
11.68750156,-3.214037901158511,-2.481599998437662,-3.2137329385133344
11.68950156,-3.5504606647891324,-2.4022705695640334,-3.0167081623577228
11.69150156,-3.8602635996155623,-2.3167743857365326,-2.8190521835771913
11.69350156,-4.141931715748363,-2.2255088647550543,-2.621854064672071
11.69550159,-4.394178595806293,-2.128945437153524,-2.426154437071977
11.69750163,-4.61595166907429,-2.027624227515927,-2.2329397586946196
11.69950039,-4.806435290198977,-1.9221479326262096,-2.0431373752181465
11.70150042,-4.9650516637709625,-1.8131749750287067,-1.857611373745289
11.70350046,-5.0914596763297935,-1.701412018979354,-1.677159208668741
11.70550049,-5.185551715638211,-1.5876059431477618,-1.50250907274207
11.70750052,-5.247448573460253,-1.4725353706467208,-1.3343179814386334
11.70950052,-5.277492542559701,-1.357001861888963,-1.1731705353940245
11.71150049,-5.2762388312820585,-1.241820879282729,-1.019578323801899
11.71350046,-5.244445429990689,-1.1278126347777497,-0.8739799307801962
11.71550042,-5.18306157289562,-1.015792931708798,-0.7367415066207078
11.71750039,-5.093214946526655,-0.9065641112603958,-0.608157866126652
11.71949945,-4.976197802309831,-0.8009062112296836,-0.48845407661931295
11.72149942,-4.8334521354155315,-0.6995684406367242,-0.3777874984587088
11.72349775,-4.666554095228492,-0.6032610681788713,-0.2762502409822115
11.72549685,-4.4771977943785535,-0.5126478156432368,-0.18387199656997627
11.72749622,-4.267178683188185,-0.4283388393233277,-0.10062321507464905
11.72949575,-4.038376654602032,-0.35088437341995904,-0.026418580143591275
11.73149512,-3.792739041183339,-0.28076909955146634,0.03887925189041681
11.73349425,-3.5322636606143725,-0.2184072960526473,0.0954556907727991
11.73549338,-3.2589820593379564,-0.16413880988038812,0.14354006982785483
11.73749252,-2.9749430956047465,-0.11822588283263068,0.1834013639858803
11.73949172,-2.6821969934396117,-0.08085085259709977,0.21534381053400348
11.74149105,-2.382779988174066,-0.05211473805211036,0.2397024747738836
11.74349022,-2.078699672478487,-0.03203670742305491,0.25683880227335687
11.74549022,-1.7719211395196413,-0.020554417530542605,0.26713619842689984
11.74749062,-1.4643540072037053,-0.01752520259510314,0.2709956746446773
11.74948995,-1.1578403946646059,-0.022728081983730785,0.26883159873483753
11.75148921,-0.8541439094228135,-0.035866547951606514,0.26106758495841165
11.75348831,-0.5549396911508551,-0.05657208689542343,0.24813255680523597
11.75548738,-0.2618055459028062,-0.084408380946668,0.23045701272767644
11.75748645,0.023785806858896183,-0.11887613094514383,0.20846952185917597
11.75948638,0.3004733629566395,-0.15941843697833485,0.18259347315919205
11.76148635,0.5670133365161409,-0.2054266687661813,0.15324409752487914
11.76348541,0.8222835451773323,-0.2562467552151689,0.12082577827992205
11.76548448,1.0652866937632386,-0.3111858204416995,0.08572966120410473
11.76748361,1.2951525802026018,-0.369519092429254,0.04833157103207257
11.76948268,1.5111392541986688,-0.4304970101774537,0.008990237247823331
11.77148178,1.7126331650784774,-0.493352455658021,-0.03195417186976901
11.77348091,1.8991483405508602,-0.5573080380457972,-0.07418121155807234
11.77548014,2.0703246428522215,-0.6215833594775992,-0.11739102703563899
11.77748018,2.2259251530436366,-0.6854021939471574,-0.1613049346892236
11.77948111,2.365832738074184,-0.747999513813386,-0.20566573089607418
11.78148114,2.490045858641343,-0.8086283017265898,-0.25023774334168764
11.78348117,2.598673678852547,-0.8665660895099594,-0.29480664127712813
11.78548221,2.691930541230133,-0.9211211696198847,-0.33917902239875625
11.78748287,2.770129872716337,-0.9716384291961714,-0.38318179493721627
11.78948307,2.8336775890247745,-1.0175047613560557,-0.4266613741366569
11.79148281,2.8830650659372035,-1.0581540132518064,-0.4694827126351866
11.79348301,2.9188617469416225,-1.0930714354806734,-0.511528184385495
11.79548427,2.941707456932903,-1.121797602689224,-0.5526963417525284
11.79748514,2.9523044915381225,-1.1439317806225384,-0.5929005653590618
11.79948567,2.951409550981867,-1.1591347203866795,-0.6320676261572472
11.80148634,2.939825586277557,-1.1671308662624678,-0.6701361790888302
11.80348717,2.9183936239360673,-1.1677099689724302,-0.7070552075447617
11.8054872,2.8879846333513997,-1.1607281018131412,-0.7427824376265854
11.80748724,2.8494914985884017,-1.1461080824823704,-0.7772827409248995
11.80948727,2.8038211534876893,-1.1238393087144625,-0.8105265441434086
11.8114884,2.7518869358351714,-1.0939770209408375,-0.8424882633952995
11.81348934,2.6946012128233447,-1.0566410100586154,-0.8731447803718749
11.81549027,2.63286832615614,-1.0120137929565356,-0.9024739768222871
11.8174912,2.56757790092267,-0.9603382826570612,-0.9304533428774288
11.8194912,2.4995985578181954,-0.9019149837522662,-0.9570586736961588
11.8214912,2.42977206347896,-0.8370987472267563,-0.9822628677213475
11.82349217,2.358907948679323,-0.7662951217633774,-1.0060348385414433
11.82549437,2.2877786189638947,-0.6899563411962916,-1.028338551006184
11.8274943,2.2171149770089413,-0.6085769898957343,-1.0491321908816724
11.82949553,2.147602570699349,-0.522689389545782,-1.0683674759715038
11.83149623,2.079878275651564,-0.4328587520289615,-1.0859891152863903
11.8334971,2.0145275157822726,-0.3396781439684775,-1.1019344215261895
11.8354972,1.9520820205758758,-0.24376330889769215,-1.116133080859888
11.83749716,1.8930181129891872,-0.1457473930297091,-1.1285070827551582
11.83949713,1.8377555174945073,-0.04627562020640407,-1.1389708114052959
11.8414971,1.7866566736498746,0.05400003915312259,-1.1474312991007862
11.84349796,1.7400265368442331,0.15442616137769213,-1.1537886406630082
11.84549783,1.6981128445280642,0.2543530828155108,-1.157936566756632
11.8474978,1.6611068233107225,0.35313999240992866,-1.1597631724694832
11.84949846,1.629144309752387,0.4501598648906801,-1.1591517959389017
11.85149939,1.602307255445958,0.5448041980997882,-1.1559820399861618
11.85350009,1.5806255850263788,0.6364875204296808,-1.1501309277221876
11.85549973,1.5640793740542545,0.724651637061608,-1.1414741809885631
11.85749976,1.5526013123306923,0.808769586646852,-1.129887608408629
11.85950006,1.5460794171660597,0.8883492832354996,-1.1152485878564817
11.86150009,1.5443599605037752,0.9629368215648922,-1.0974376263993881
11.86350013,1.547250573634457,1.0321194271991367,-1.0763399792922266
11.86550013,1.554523493540772,1.0955280363933262,-1.0518473084254598
11.86750009,1.5659189156689495,1.1528394938856206,-1.0238593597465553
11.86950072,1.5811484190767684,1.2037783600621834,-0.9922856385736333
11.87150033,1.5998984313855686,1.2481183220827718,-0.957047061390916
11.87350029,1.621833702687839,1.285683206603002,-0.9180775626649332
11.87550026,1.6466007594711674,1.3163475946896783,-0.8753256354651342
11.87750022,1.6738313116760266,1.3400370423953334,-0.8287557852237367
11.87950112,1.7031455881839004,1.3567279132224748,-0.7783498768208769
11.88150112,1.7341555783095237,1.3664468313481748,-0.7241083563104477
11.88350109,1.7664681592227793,1.3692697669840177,-0.666051329984987
11.88549982,1.7996880916332678,1.365320767615155,-0.6042194850978863
11.88750076,1.8334208685179039,1.354770351102952,-0.5386748384064031
11.88950046,1.867275404138721,1.3378335787561126,-0.4695013007522177
11.89150069,1.9008665530582611,1.3147678284782238,-0.39680504812867057
11.89350072,1.9338174512871282,1.285870289983565,-0.32071469205631836
11.89550142,1.965761674066492,1.2514752058330938,-0.24138124455554194
11.89750145,1.9963452070655159,1.2119508836701178,-0.15897787551885012
11.89950145,2.0252282299199713,1.1676965065141651,-0.07369946280209211
11.90150145,2.0520867130139737,1.1191387692780796,0.014238062162506875
11.90350145,2.0766138301844026,1.0667283707812834,0.1045985680018484
11.90550079,2.098521191597692,1.0109363914204212,0.1971267687014481
11.90750079,2.1175399024135992,0.9522505873133854,0.29154945071829724
11.90950079,2.1334214540135887,0.8911716321445712,0.3875768699131545
11.91150075,2.145938455534044,0.8282093380999525,0.48490430434239923
11.91350005,2.1548852142097963,0.7638788871815302,0.5832137472270315
11.91549912,2.1600781736042474,0.6986971038211461,0.6821757230000164
11.91749909,2.161356219175588,0.6331787990617651,0.781451208265369
11.91949905,2.158580860794225,0.5678332156341842,0.8806936387864297
11.92149902,2.1516363017704845,0.5031606020300172,0.9795509832219318
11.92349898,2.140429403660155,0.43964894215584494,1.0776678642030906
11.92549895,2.1248895555868588,0.37777086534254767,1.1746877074587785
11.92749895,2.1049684560793165,0.31798075938633635,1.2702549000085326
11.92949898,2.0806398145175313,0.26071210694772895,1.3640169388954162
11.93149902,2.0518989782734436,0.20637506307697337,1.4556265524613579
11.93349905,2.0187624905773083,0.15535428890643252,1.5447437767392715
11.93549908,1.9812675830949453,0.10800705367895039,1.6310379701430688
11.93749911,1.9394716062057422,0.06466161429346803,1.7141897502896621
11.93949915,1.8934513990516966,0.025615878481267187,1.7938928374959562
11.94149918,1.8433026005964783,-0.008863645377730232,1.8698557902627586
11.94349951,1.7891389022084123,-0.0385426118812027,1.9418036188946206
11.94549948,1.7310912416990447,-0.06321931878784857,2.009479264329317
11.94749944,1.6693069383573176,-0.08272490980311546,2.0726449302877934
11.94949941,1.6039487683555393,-0.09692330881038635,2.13108325802491
11.95149938,1.5351939799808294,-0.10571089703092262,2.1845983342788067
11.95349934,1.4632332484597914,-0.10901594705221083,2.2330165245018474
11.95549931,1.3882695706848134,-0.10679782991258177,2.2761871251350567
11.95749928,1.3105171009079444,-0.09904601345031315,2.3139828305838064
11.95949928,1.2301999294274812,-0.0857788718980932,2.3463000126653184
11.96149931,1.1475508074213276,-0.06704232820392646,2.373058812588861
11.96349934,1.0628098223270324,-0.04290835176003916,2.3942030479270198
11.96550004,0.9762230294633334,-0.013473335097764725,2.409699939467035
11.96750007,0.8880410468622795,0.02114362635714548,2.4195396652331707
11.96950011,0.7985176214799964,0.06080252717824832,2.423734751291937
11.97150014,0.7079081760442472,0.10534429332072566,2.4223193111403503
11.97350214,0.6164683467505968,0.1545926482724176,2.415348147479504
11.97550307,0.524452522801368,0.20835598099350738,2.402895731938025
11.97750307,0.43211239935788565,0.2664291936872031,2.3850550797878647
11.97950274,0.33969555582263805,0.3285955087215268,2.3619365378617525
11.98150274,0.24744407146940098,0.3946282155264725,2.3336665047251453
11.98350274,0.15559319029187976,0.46429233999813085,2.3003861026621752
11.98550274,0.06437004655765174,0.5373462208325088,2.2622498211811144
11.98750274,-0.02600753803704834,0.613542979266107,2.2194241515093274
11.98950271,-0.11533217547727387,0.69263187089283,2.172086230934536
11.99150267,-0.20340794155784414,0.7743595105272969,2.120422514889124
11.99350264,-0.29005130675079127,0.8584709634602931,2.0646274934050135
11.9955026,-0.3750919605272314,0.9447106988705115,2.0049024670193423
11.99750257,-0.45837352283661287,1.032823403584972,1.9414543954153962
11.99950254,-0.539754137419625,1.1225546567814089,1.874494830079275
12.0015025,-0.6191069426103852,1.213651468557789,1.804238940089804
12.00350173,-0.6963204162960449,1.305862687516518,1.7309046378856252
12.00550173,-0.7712985927640152,1.3989392845925968,1.6547118095121298
12.00750177,-0.8439611502805638,1.4926345222796122,1.57588165148158
12.009502,-0.9142433694005176,1.5867040201715934,1.494636114019692
12.01150203,-0.9820959631906867,1.6809057293414549,1.411197448157737
12.01350207,-1.0474847817450117,1.7749998295102034,1.3257878518990494
12.0155021,-1.1103903945667595,1.8687485642108894,1.2386292085836197
12.01750213,-1.1708075555744595,1.9619160301984622,1.1499429086387096
12.01950216,-1.2287445566173365,2.05426793817608,1.0599497441849584
12.02150217,-1.2842224764152457,2.1455713624702994,0.9688698645172873
12.02350213,-1.3372743327332566,2.235594497565304,0.8769227793537038
12.0255021,-1.3879441463650612,2.324106439381952,0.7843273960011578
12.02750206,-1.4362859261755605,2.410877008848736,0.6913020762765711
12.02950203,-1.4823625850976088,2.4956766346454415,0.5980646991730176
12.031502,-1.5262447976210713,2.5782763109903892,0.5048327158798795
12.03350066,-1.5680098099358803,2.658447644978653,0.41182318483213415
12.03550063,-1.6077402144347932,2.7359630062702025,0.31925277593681406
12.03750063,-1.6455227006711188,2.8105957899080405,0.22733773493885642
12.03950099,-1.6814467950437142,2.882120800774095,0.13629380094948557
12.04150103,-1.7156036014283873,2.9503147657307256,0.0463360723503848
12.04350106,-1.7480845547194328,3.014956976905696,-0.04232118151248885
12.04550109,-1.7789801988460952,3.07583006690056,-0.12946476332092147
12.04750112,-1.808379000351115,3.132720913972192,-0.2148828440005439
12.04950116,-1.8363662081124852,3.1854216724966617,-0.29836530901565234
12.05150119,-1.863022769280182,3.2337309213247454,-0.37970415024732274
12.05350122,-1.8884243109843506,3.2774549200335645,-0.4586938980072901
12.05550122,-1.9126401968278242,3.316408960622528,-0.5351320872165461
12.05750122,-1.9357326665802626,3.3504187999437454,-0.6088197516727301
12.05950122,-1.9577560668351106,3.3793221561365114,-0.6795619405924722
12.06150122,-1.97875617968069,3.402970250580229,-0.7471682521598914
12.06350162,-1.9987696556794108,3.421229375418854,-0.8114533795553365
12.06550162,-2.0178235566364395,3.4339824655763156,-0.872237665819374
12.06750159,-2.0359350127525824,3.441130653397545,-0.9293476648844576
12.06950136,-2.0531109977823156,3.44259478360936,-0.9826167071375475
12.07150132,-2.069348224758053,3.4383168661821495,-1.0318854689109695
12.07350129,-2.084633163707497,3.4282614448803534,-1.0770025462834434
12.07550125,-2.0989421815987246,3.412416859822202,-1.117825034457625
12.07750122,-2.112241803516682,3.3907963832250467,-1.1542191147195073
12.07950119,-2.1244890928259594,3.3634392086711853,-1.1860606515433458
12.08150115,-2.1356321468290367,3.3304112756579034,-1.2132358027580694
12.08350115,-2.1456107032049605,3.291805912859104,-1.2356416458163157
12.08550118,-2.1543568513236497,3.2477442853877645,-1.2531868230839027
12.08750122,-2.161795841390316,3.198375633371527,-1.265792208675214
12.08950125,-2.1678469833141327,3.1438772913017603,-1.2733915986808062
12.09150128,-2.1724246262646685,3.084454479853309,-1.2759324256484987
12.09350132,-2.17543920912168,3.0203398641624313,-1.2733764968685868
12.09550135,-2.1767983714513064,2.9517928748628783,-1.265700754371741
12.09750138,-2.1764081142416827,2.879098790491581,-1.252898052597871
12.09950138,-2.174173999386373,2.802567582170151,-1.2349779474914846
12.10150135,-2.1700023768021297,2.722532523730899,-1.2119674884086407
12.10350132,-2.163801628092419,2.6393485726657637,-1.1839120017921414
12.10550062,-2.155483415795113,2.553390529411768,-1.1508758532113967
12.10750058,-2.144963927454178,2.4650509845311546,-1.112943172195222
12.10950055,-2.132165104010938,2.3747380652903547,-1.070218522407417
12.11150051,-2.1170158423091134,2.2828729949861732,-1.0228274981936978
12.11350048,-2.0994531618402172,2.1898874801032937,-0.9709172274199752
12.11550048,-2.0794233262147968,2.096220942003423,-0.9146567598785571
12.11750051,-2.056882910229807,2.0023176113388765,-0.8542373203940289
12.11950055,-2.031799803817591,1.9086235047596463,-0.7898724061135217
12.12150058,-2.004154144611072,1.8155833047492063,-0.7217977082900824
12.12350061,-1.9739391713449792,1.7236371645720066,-0.6502708401312529
12.12550064,-1.9411619908367934,1.6332174613280521,-0.5755708539637517
12.12750068,-1.9058442518517447,1.544745520980491,-0.49799753304535005
12.12950071,-1.8680227197433126,1.4586283399613935,-0.41787044583427035
12.13150074,-1.8277497463597825,1.3752553285860798,-0.3355277534138093
12.13350074,-1.7850936303023988,1.2949951020262875,-0.25132476407847204
12.13550074,-1.7401388631900268,1.2181923450009953,-0.1656322328247119
12.13750074,-1.6929862581042827,1.1451647766232673,-0.07883440764584929
12.13950074,-1.6437529568431801,1.0762002419685885,0.008673170930121129
12.14150074,-1.5925723130064733,1.0115539568758232,0.0964861057773057
12.14350074,-1.5395936483014152,0.9514459322233295,0.18419379827514434
12.14550161,-1.4849818798460448,0.8960586034108049,0.271382301222963
12.14750158,-1.428917016725142,0.8455346899997627,0.35763734332291597
12.14950154,-1.371593524683913,0.7999753093990625,0.4425474944447002
12.15150151,-1.3132195586679385,0.7594383670982052,0.525707436865368
12.15350147,-1.2540160639482771,0.7239372442267524,0.6067213043394756
12.15550144,-1.194215747790238,0.6934398011492071,0.6852060483131274
12.15750141,-1.1340619249909103,0.6678677134098162,0.7607947889046924
12.15950137,-1.0738072420733125,0.6470961536589371,0.8331401074239091
12.16150137,-1.013712286437473,0.6309538302734619,0.9019172371342112
12.16350157,-0.9540440882913255,0.6192233902838714,0.9668271096310616
12.16550227,-0.8950745246871182,0.611642190992739,1.0275992155894513
12.1675023,-0.8370786364562575,0.6079034413674175,1.083994240694564
12.16950234,-0.7803328702588401,0.6076577109696933,1.1358064402425991
12.17150237,-0.7251132593281688,0.610514800901116,1.1828657191040481
12.1735024,-0.6716935577655633,0.6160459680392092,1.2250393874204646
12.17550217,-0.6203433443867754,0.6237864907504905,1.2622335665205344
12.17750217,-0.5713261130966123,0.6332385613132253,1.2943942240551427
12.17950214,-0.5248973675383962,0.6438744874760611,1.3215078222115992
12.1815012,-0.48130273830645176,0.6551401829198574,1.343601568002304
12.18350117,-0.44077614130925885,0.6664589238815849,1.360743259940398
12.18550113,-0.40353799591806944,0.6772353468513705,1.373040730797273
12.1875011,-0.3697935213169837,0.6868596600841881,1.3806408914448731
12.18950106,-0.33973112896650903,0.6947120396961282,1.3837283858688527
12.19150103,-0.3135209282850821,0.7001671793597816,1.3825238721482334
12.19350103,-0.29131336153503573,0.7025989610890018,1.3772819484047012
12.19550106,-0.27323798248232717,0.7013852133210562,1.3682887463384625
12.1975011,-0.25940239170727725,0.6959125214709353,1.3558592179325029
12.19950113,-0.24989133950694684,0.6855810553532252,1.3403341431991116
12.20150116,-0.24476600519398758,0.6698093773461345,1.3220768884790253
12.2035012,-0.2440634593358756,0.6480391949167016,1.3014699458575705
12.20550033,-0.24779631318719056,0.6197400211460455,1.2789112848635438
12.20750036,-0.2559525573290176,0.5844137072016686,1.2548105479347114
12.2095004,-0.2684955893786867,0.5415988113138297,1.2295851213415383
12.2115004,-0.2853644285534816,0.49087476973634214,1.203656113501189
12.2135004,-0.30647411283606424,0.4318658364136037,1.1774442729931331
12.2155004,-0.3317162724929272,0.3642447596278374,1.151365879168394
12.2175004,-0.36095987174502153,0.28773616574312316,1.1258286390175962
12.2195004,-0.3940521084728699,0.20211962226839017,1.1012276248356372
12.2215004,-0.4308194599559835,0.10723235479900727,1.0779412880524206
12.22349986,-0.4710688608507588,0.002971594928130146,1.0563275852560705
12.22549983,-0.5145889980199666,-0.11070346109938221,1.0367202528188628
12.22749979,-0.5611517055776635,-0.233770100423595,1.0194252665791759
12.22949976,-0.6105134426942398,-0.36614096284157754,1.0047175226848262
12.23149972,-0.6624168363334447,-0.5076633428803597,0.9928377749249889
12.23349969,-0.7165922711515613,-0.6581189331730902,0.9839898626453415
12.23549992,-0.7727595092737803,-0.8172240145199713,0.9783382616510214
12.23749989,-0.8306293235605542,-0.9846300948721817,0.9760059883686427
12.23949989,-0.8899051292175723,-1.1599249963380651,0.9770728849782011
12.24150082,-0.9502846000620871,-1.3426343861930903,0.9815743102422381
12.24350086,-1.011461257309567,-1.5322237447924774,0.989500257346726
12.24550089,-1.0731260203063846,-1.728100760252087,1.000794916221764
12.24750092,-1.1349687101731865,-1.9296181367937817,1.0153566935348906
12.24950096,-1.1966794988372305,-2.136076800759096,1.03303869886214
12.25150099,-1.2579502974337846,-2.346729485485422,1.0536497004800471
12.25350185,-1.3184760795636923,-2.5607846735137287,1.0769555488459488
12.25550185,-1.3779561364114055,-2.7774108719714548,1.1026810602107724
12.25750182,-1.4360952622358265,-2.995741194483658,1.130512347001584
12.25950179,-1.4926048702014099,-3.214878220646613,1.1600995756897992
12.26150175,-1.547204039855635,-3.4338991019790104,1.191060126912747
12.26350222,-1.5996204987027005,-3.651860881383985,1.2229821267543768
12.26550218,-1.6495915411953375,-3.8678059915642886,1.2554283124564072
12.26750215,-1.696864889021707,-4.08076789657259,1.2879401905831536
12.26950212,-1.741199496807275,-4.289776839746358,1.3200424409558544
12.27150212,-1.7823663073251237,-4.493865660638675,1.3512475156409298
12.27350215,-1.8201489600627765,-4.69207564317959,1.3810603790427873
12.27550218,-1.8543444565660414,-4.883462357168017,1.4089833328286545
12.27750255,-1.8847637853952486,-5.0671014552911515,1.4345208680923203
12.27950258,-1.9112325088157418,-5.242094388189258,1.457184486904424
12.28150261,-1.9335913125484498,-5.407574000626716,1.4764974362346637
12.28350298,-1.9516965190841569,-5.562709972596012,1.4919992991816573
12.28550301,-1.9654205642652753,-5.706714070158454,1.5032503914810889
12.28750305,-1.9746524360899829,-5.83884517198552,1.50983591529673
12.28950305,-1.97929807400645,-5.958414038876021,1.511369827204379
12.29150305,-1.9792807263402512,-6.064787794965439,1.507498382899882
12.29350305,-1.9745412629275654,-6.1573940909067515,1.4979033273121398
12.29550365,-1.965038439492123,-6.235724920985855,1.4823047052591183
12.29750365,-1.9507491097855663,-6.299340067939857,1.4604632743127197
12.29950365,-1.9316683810086337,-6.347870151178065,1.4321825079192683
12.30150361,-1.9078097075776197,-6.381019256178702,1.3973101828687227
12.30350358,-1.8792049179552903,-6.398567125073862,1.3557395507411265
12.30550288,-1.8459041690860964,-6.400370890859354,1.3074100978293641
12.30750284,-1.8079758229973846,-6.386366340269284,1.2523079021719425
12.30950281,-1.765506240356784,-6.356568693109552,1.190465599771009
12.31150278,-1.7185994861960767,-6.311072888719187,1.121961974920376
12.31350191,-1.6673769436038492,-6.250053373207294,1.046921191906407
12.31550188,-1.6119768319377377,-6.173763384193381,0.9655116872150684
12.31750188,-1.552553627000215,-6.082533732960934,0.8779447428248794
12.31950191,-1.4892773816452762,-5.976771087217838,0.7844727622482718
12.32150194,-1.4223329464175856,-5.856955761041383,0.6853872717611411
12.32350147,-1.3519190910493044,-5.72363902206934,0.5810166697709295
12.32550151,-1.278247528933304,-5.577439929577177,0.4717237475405416
12.32750154,-1.2015418480327518,-5.419041720740569,0.35790300452703594
12.32950157,-1.1220363530415207,-5.249187766097408,0.2399777814294399
12.33150161,-1.039974824929852,-5.068677118964813,0.11839723369145984
12.33350161,-0.9556092052566483,-4.878359687298792,-0.006366832296130012
12.33550157,-0.8691982137990228,-4.67913106016312,-0.13382323865195836
12.3375012,-0.7810059091640982,-4.471927024543851,-0.26346481011344935
12.33950117,-0.6913002031226223,-4.257717811639681,-0.3947718223790374
12.34150114,-0.6003513404197026,-4.037502114892014,-0.5272155047152566
12.3435011,-0.508430356723868,-3.8123009247870656,-0.6602615770989938
12.34550107,-0.4158075281048416,-3.5831512277490147,-0.7933738021175726
12.34750104,-0.3227508259173522,-3.3510996181494948,-0.9260175314663692
12.34950104,-0.22952439116797124,-3.117195873540149,-1.057663226167718
12.35150104,-0.1363870423361713,-2.8824865436807117,-1.1877899286615379
12.35350104,-0.0435908302028434,-2.6480086037940445,-1.3158886638281475
12.35550044,0.04862034749691788,-2.414783221712583,-1.4414657449776886
12.35750044,0.14001205983069653,-2.1838096871871286,-1.5640459600684453
12.35949954,0.23036057441235405,-1.9560595496715443,-1.683175613063088
12.36149954,0.31945399830993876,-1.7324710084719617,-1.7984253955141234
12.36349954,0.4070933211034579,-1.5139435963290204,-1.9093930642438899
12.3655002,0.4930933550208675,-1.3013331943260626,-2.015705902330314
12.36750023,0.5772835690683198,-1.0954474125248077,-2.1170229424353475
12.36950027,0.6595088160121974,-0.8970413669781797,-2.2130369337041405
12.3715003,0.7396299528884814,-0.7068138798163432,-2.303476035935701
12.37350033,0.8175243573540211,-0.5254041249986662,-2.388105227432518
12.37550037,0.8930863436195983,-0.35338873812135446,-2.4667274158430175
12.3775004,0.966227482895803,-0.19127940442219996,-2.5391842443808925
12.3795004,1.0368768342280386,-0.03952093488533715,-2.6053565890001718
12.3815004,1.1049810922934054,0.1015101638330202,-2.6651647453824547
12.38350037,1.1705046591872597,0.2315066240248346,-2.7185683079067102
12.38550033,1.2334296474595952,0.3502308584200327,-2.7655657460701764
12.3875003,1.2937558216947187,0.45751491465409033,-2.8061936870584363
12.38950026,1.351500485777185,0.553259952405111,-2.8405259162777816
12.39150023,1.406698322651248,0.6374352562726665,-2.8686721106199737
12.3935002,1.4594011928546766,0.7100768006756553,-2.8907763219724867
12.3955002,1.5096778974035547,0.7712853861154275,-2.9070152309410466
12.3975002,1.5576139097575352,0.821224369112814,-2.9175961928348166
12.39950023,1.6033110806436632,0.8601170109867192,-2.9227550996143368
12.40150026,1.6468873184962791,0.8882434733742022,-2.9227540826690257
12.40350029,1.6884762472277872,0.9059374909598893,-2.9178790819108356
12.40550033,1.7282268420473283,0.9135827542416635,-2.9084373066739677
12.40750036,1.7663030431532936,0.9116090372539505,-2.8947546132935122
12.40950039,1.8028833463617766,0.9004881069317963,-2.8771728231128786
12.41150043,1.8381603690700967,0.8807294521608962,-2.856047003241749
12.41350003,1.8723403893431454,0.852875871465546,-2.8317427308679313
12.41550003,1.9056428553022182,0.8174989586979882,-2.804633360496976
12.41750003,1.9382998613532527,0.775194525987848,-2.7750973122697733
12.41950093,1.9705555870892604,0.7265780025972068,-2.7435153985358416
12.42150093,2.002665693931124,0.6722798472450621,-2.7102682051228553
12.42350093,2.0348966737433267,0.612941009978078,-2.6757335431781573
12.42550093,2.067525142811172,0.5492084778513778,-2.6402839869615558
12.42750089,2.1008370737412547,0.4817309366294128,-2.6042845124128347
12.42950086,2.1351269570934734,0.4111545785024242,-2.5680902505833902
12.43150082,2.1706968839143683,0.33811908349943004,-2.53204436902439
12.43350079,2.2078555398667654,0.26325379990052505,-2.4964760929197634
12.43550076,2.2469171013939757,0.18717414652426845,-2.4616988761354124
12.43750072,2.2882000243719314,0.1104782572902598,-2.4280087304496663
12.43950069,2.332025716032684,0.03374388593021937,-2.395682719077933
12.44150065,2.3787170816060477,-0.04247441385293445,-2.364977618269035
12.44350065,2.4285969381112547,-0.117647820090854,-2.3361287483120123
