Time (s),Acceleration x (m/s^2),Acceleration y (m/s^2),Acceleration z (m/s^2)
4.002290889,-4.6995246972622974e+27,-6.9926073579529285e+28,-3.4543674950991155e+28
4.007067347,-4.683291003810658e+27,-7.007661676455569e+28,-3.439010325382002e+28
4.011843857,-4.66701547424802e+27,-7.022492796086757e+28,-3.4236476200650195e+28
4.016620368,-4.6506987202840137e+27,-7.037101125527634e+28,-3.4082797976984465e+28
4.021396826,-4.634341352018686e+27,-7.051487076257452e+28,-3.392907273727235e+28
4.026173337,-4.617943977934742e+27,-7.065651062550745e+28,-3.37753046050503e+28
4.030949795,-4.6015072048890466e+27,-7.0795935014738905e+28,-3.362149767309273e+28
4.035726305,-4.5850316381034303e+27,-7.093314812881065e+28,-3.346765600357342e+28
4.040502816,-4.568517881154788e+27,-7.106815419409592e+28,-3.3313783628236994e+28
4.045279274,-4.551966535964449e+27,-7.1200957464746915e+28,-3.315988454857999e+28
4.050055784,-4.5353782027868133e+27,-7.133156222263692e+28,-3.300596273604101e+28
4.054832295,-4.518753480197224e+27,-7.145997277729722e+28,-3.285202213219937e+28
4.059608753,-4.5020929650790667e+27,-7.158619346584906e+28,-3.2698066648981596e+28
4.064385264,-4.485397252610049e+27,-7.171022865293105e+28,-3.254410016887506e+28
4.069161722,-4.4686669362476485e+27,-7.183208273062228e+28,-3.239012654514789e+28
4.073938232,-4.451902607713725e+27,-7.195176011836178e+28,-3.223614960207428e+28
4.078714691,-4.435104856978295e+27,-7.206926526286514e+28,-3.208217313516457e+28
4.083491201,-4.418274272242454e+27,-7.218460263803903e+28,-3.1928200911399535e+28
4.088267712,-4.401411439920454e+27,-7.22977767448948e+28,-3.17742366694683e+28
4.09304417,-4.384516944620931e+27,-7.240879211146127e+28,-3.162028412000939e+28
4.09782068,-4.3675913691272725e+27,-7.2517653292697684e+28,-3.1466346945854177e+28
4.102597139,-4.3506352943771303e+27,-7.262436487040735e+28,-3.131242880227196e+28
4.107373649,-4.333649299441075e+27,-7.2728931453152674e+28,-3.115853331721609e+28
4.112150107,-4.316633961500422e+27,-7.2831357676172175e+28,-3.1004664091570473e+28
4.116926618,-4.299589855824246e+27,-7.293164820130022e+28,-3.0850824699395994e+28
4.121703128,-4.2825175557455933e+27,-7.3029807716890005e+28,-3.0697018688176603e+28
4.126479587,-4.2654176326369056e+27,-7.312584093773935e+28,-3.0543249579064826e+28
4.131256097,-4.2482906558846946e+27,-7.321975260501981e+28,-3.0389520867126443e+28
4.136032555,-4.23113719286352e+27,-7.331154748620944e+28,-3.02358360215841e+28
4.140809066,-4.213957808909311e+27,-7.340123037502939e+28,-3.008219848605959e+28
4.145585576,-4.1967530672920535e+27,-7.348880609138428e+28,-2.992861167881434e+28
4.150362034,-4.179523529187854e+27,-7.357427948130583e+28,-2.9775078992987638e+28
4.155138545,-4.16226975365042e+27,-7.3657655416899805e+28,-2.962160379683217e+28
4.159915003,-4.144992297581998e+27,-7.373893879629565e+28,-2.946818943394629e+28
4.164691514,-4.1276917157038197e+27,-7.381813454359937e+28,-2.931483922350277e+28
4.169467972,-4.110368560526063e+27,-7.389524760885024e+28,-2.916155646047383e+28
4.174244482,-4.0930233823173673e+27,-7.397028296798183e+28,-2.9008344415852063e+28
4.179020993,-4.0756567290739584e+27,-7.404324562278842e+28,-2.8855206336866955e+28
4.183797451,-4.0582691464884974e+27,-7.411414060089859e+28,-2.870214544719695e+28
4.188573962,-4.040861177918797e+27,-7.4182972955757205e+28,-2.8549164947176998e+28
4.19335042,-4.023433364356535e+27,-7.424974776661738e+28,-2.839626801400185e+28
4.19812693,-4.0059862443960695e+27,-7.431447013854368e+28,-2.8243457801925443e+28
4.202903441,-3.9885203542034315e+27,-7.437714520242807e+28,-2.809073744245675e+28
4.207679899,-3.9710362274855716e+27,-7.443777811501912e+28,-2.793811004455237e+28
4.212456409,-3.953534395459953e+27,-7.449637405896528e+28,-2.778557869480613e+28
4.217232868,-3.9360153868246436e+27,-7.455293824287233e+28,-2.7633146457635852e+28
4.222009378,-3.9184797277290573e+27,-7.460747590137473e+28,-2.748081637546773e+28
4.226785889,-3.90092794174548e+27,-7.465999229522039e+28,-2.7328591468918625e+28
4.231562347,-3.8833605498414894e+27,-7.471049271136794e+28,-2.7176474736976737e+28
4.236338857,-3.865778070353383e+27,-7.475898246309609e+28,-2.7024469157180843e+28
4.241115316,-3.848181018960734e+27,-7.480546689012456e+28,-2.6872577685798446e+28
4.245891826,-3.8305699086621906e+27,-7.484995135874655e+28,-2.672080325800279e+28
4.250668337,-3.8129452497526216e+27,-7.48924412619732e+28,-2.656914878804888e+28
4.255444795,-3.795307549801726e+27,-7.4932942019690845e+28,-2.641761716944888e+28
4.260221305,-3.777657313634189e+27,-7.497145907883138e+28,-2.626621127514733e+28
4.264997764,-3.7599950433114636e+27,-7.5007997913555695e+28,-2.611493395769666e+28
4.269774274,-3.742321238115271e+27,-7.504256402544941e+28,-2.59637880494335e+28
4.274550732,-3.7246363945328884e+27,-7.507516294373083e+28,-2.581277636265622e+28
4.279327243,-3.706941006244315e+27,-7.510580022547126e+28,-2.5661901689803934e+28
4.284103753,-3.68923556411138e+27,-7.513448145582731e+28,-2.5511166803637198e+28
4.288880212,-3.671520556168881e+27,-7.5161212248284895e+28,-2.5360574457420387e+28
4.293656722,-3.65379646761782e+27,-7.518599824491451e+28,-2.521012738510549e+28
4.298433232,-3.63606378082077e+27,-7.5208845116637345e+28,-2.5059828301517283e+28
4.303209691,-3.618322975299393e+27,-7.522975856350188e+28,-2.490967990253992e+28
4.307986201,-3.6005745277341317e+27,-7.524874431497068e+28,-2.4759684865304807e+28
4.312762659,-3.582818911966039e+27,-7.526580813021745e+28,-2.4609845848379797e+28
4.31753917,-3.5650565990007314e+27,-7.528095579843517e+28,-2.446016549195929e+28
4.322315628,-3.5472880570144244e+27,-7.529419313915569e+28,-2.4310646418054852e+28
4.327092139,-3.5295137513620227e+27,-7.530552600258147e+28,-2.4161291230686284e+28
4.331868649,-3.511734144587186e+27,-7.531496026992927e+28,-2.4012102516073043e+28
4.336645107,-3.4939496964342925e+27,-7.532250185378625e+28,-2.386308284282583e+28
4.341421618,-3.476160863862182e+27,-7.5328156698477895e+28,-2.3714234762137995e+28
4.346198076,-3.458368101059559e+27,-7.53319307804479e+28,-2.3565560807976403e+28
4.350974587,-3.4405718594619375e+27,-7.533383010864954e+28,-2.3417063497271576e+28
4.355751097,-3.422772587770011e+27,-7.533386072494861e+28,-2.3268745330106848e+28
4.360527555,-3.4049707319693355e+27,-7.533202870453733e+28,-2.312060878990624e+28
4.365304066,-3.387166735351193e+27,-7.532834015635874e+28,-2.297265634362088e+28
4.370080524,-3.36936103853451e+27,-7.532280122354087e+28,-2.2824890441913844e+28
4.374857034,-3.351554079488726e+27,-7.531541808384036e+28,-2.267731351934359e+28
4.379633545,-3.33374629355747e+27,-7.530619695009526e+28,-2.2529927994545954e+28
4.384410003,-3.3159381134828996e+27,-7.529514407068689e+28,-2.2382736270414865e+28
4.389186514,-3.2981299694305555e+27,-7.5282265730010505e+28,-2.223574073428171e+28
4.393962972,-3.280322289014588e+27,-7.526756824895424e+28,-2.208894375809312e+28
4.398739482,-3.2625154973232303e+27,-7.525105798538522e+28,-2.1942347698587007e+28
4.403515993,-3.2447100169444264e+27,-7.523274133464151e+28,-2.1795954897466464e+28
4.408292451,-3.226906267991515e+27,-7.521262473002904e+28,-2.1649767681571056e+28
4.413068962,-3.209104668128876e+27,-7.519071464332258e+28,-2.150378836304486e+28
4.417845472,-3.191305632597415e+27,-7.516701758526908e+28,-2.135801923950069e+28
4.42262193,-3.1735095742397435e+27,-7.514154010609137e+28,-2.1212462594179896e+28
4.427398441,-3.1557169035249006e+27,-7.511428879598996e+28,-2.106712069610708e+28
4.432174899,-3.1379280285724664e+27,-7.508527028564098e+28,-2.0921995800239252e+28
4.436951409,-3.1201433551759386e+27,-7.50544912466876e+28,-2.077709014760897e+28
4.441727868,-3.102363286825272e+27,-7.502195839222288e+28,-2.0632405965461007e+28
4.446504378,-3.0845882247285206e+27,-7.498767847726168e+28,-2.048794546738249e+28
4.451280889,-3.066818567832537e+27,-7.495165829919995e+28,-2.0343710853426208e+28
4.456057347,-3.0490547128426684e+27,-7.491390469825883e+28,-2.019970431022685e+28
4.460833857,-3.0312970542413934e+27,-7.487442455791162e+28,-2.0055928011109825e+28
4.465610316,-3.0135459843058296e+27,-7.4833224805292115e+28,-1.9912384116192347e+28
4.470386826,-2.9958018931240503e+27,-7.479031241158348e+28,-1.9769074772476577e+28
4.475163337,-2.9780651686101614e+27,-7.474569439238652e+28,-1.9626002113934547e+28
4.479939795,-2.960336196518133e+27,-7.46993778080668e+28,-1.9483168261584615e+28
4.484716305,-2.9426153604543997e+27,-7.46513697640794e+28,-1.9340575323559163e+28
4.489492764,-2.924903041889239e+27,-7.460167741127126e+28,-1.9198225395163196e+28
4.494269274,-2.9071996201669693e+27,-7.455030794616083e+28,-1.9056120558923615e+28
4.499045784,-2.8895054725150066e+27,-7.44972686111946e+28,-1.891426288462891e+28
4.503822243,-2.871820974051824e+27,-7.444256669498013e+28,-1.877265442935908e+28
4.508598753,-2.8541464977938795e+27,-7.438620953249501e+28,-1.863129723750588e+28
4.513375264,-2.8364824146615656e+27,-7.432820450527183e+28,-1.8490193340783402e+28
4.518151722,-2.8188290934842196e+27,-7.426855904155892e+28,-1.8349344758228982e+28
4.522928232,-2.801186901004235e+27,-7.4207280616456985e+28,-1.8208753496194582e+28
4.527704691,-2.7835562018803217e+27,-7.414437675203124e+28,-1.8068421548328883e+28
4.532481201,-2.765937358689949e+27,-7.407985501739855e+28,-1.7928350895550332e+28
4.537257712,-2.748330731931037e+27,-7.401372302878919e+28,-1.778854350601157e+28
4.54203417,-2.730736680022931e+27,-7.394598844958318e+28,-1.7649001335055735e+28
4.54681068,-2.713155559306716e+27,-7.387665899032095e+28,-1.750972632516532e+28
4.551587139,-2.695587724044888e+27,-7.380574240868833e+28,-1.7370720405904227e+28
4.556363649,-2.678033526420434e+27,-7.373324650947497e+28,-1.7231985493853568e+28
4.561140159,-2.660493316535347e+27,-7.365917914450585e+28,-1.7093523492541757e+28
4.565916618,-2.642967442408626e+27,-7.3583548212545205e+28,-1.6955336292369393e+28
4.570693128,-2.6254562499737915e+27,-7.35063616591729e+28,-1.6817425770529441e+28
4.575469587,-2.607960083075956e+27,-7.342762747663326e+28,-1.6679793790923301e+28
4.580246097,-2.590479283468513e+27,-7.334735370365649e+28,-1.6542442204073393e+28
4.585022607,-2.573014190809537e+27,-7.326554842525284e+28,-1.640537284703289e+28
4.589799066,-2.5555651426579906e+27,-7.318221977247946e+28,-1.6268587543293217e+28
4.594575576,-2.5381324744698053e+27,-7.309737592218035e+28,-1.6132088102689977e+28
4.599352034,-2.520716519593883e+27,-7.3011025096699295e+28,-1.599587632130771e+28
4.604128545,-2.5033176092680887e+27,-7.292317556356611e+28,-1.5859953981383992e+28
4.608905055,-2.4859360726153036e+27,-7.283383563515661e+28,-1.572432285121322e+28
4.613681514,-2.4685722366395764e+27,-7.274301366832647e+28,-1.5588984685050572e+28
4.618458024,-2.4512264262224436e+27,-7.2650718064019155e+28,-1.5453941223016595e+28
4.623234482,-2.433898964119485e+27,-7.255695726684799e+28,-1.531919419100278e+28
4.628010993,-2.4165901709571865e+27,-7.2461739764652534e+28,-1.5184745300578557e+28
4.632787503,-2.3993003652301488e+27,-7.23650740880294e+28,-1.5050596248900042e+28
4.637563962,-2.38202986329868e+27,-7.2266968809837615e+28,-1.491674871862067e+28
4.642340472,-2.3647789793867964e+27,-7.21674325446792e+28,-1.4783204377803956e+28
4.647116982,-2.347548025580659e+27,-7.2066473948355e+28,-1.464996487983852e+28
4.651893441,-2.3303373118274765e+27,-7.196410171729597e+28,-1.451703186335543e+28
4.656669951,-2.3131471459348824e+27,-7.186032458797028e+28,-1.4384406952147937e+28
4.661446409,-2.295977833570806e+27,-7.175515133626635e+28,-1.4252091755093513e+28
4.66622292,-2.2788296782638453e+27,-7.164859077685179e+28,-1.4120087866078043e+28
4.67099943,-2.2617029814041587e+27,-7.154065176250875e+28,-1.3988396863922044e+28
4.675775889,-2.244598042244878e+27,-7.143134318344613e+28,-1.385702031230875e+28
4.680552399,-2.227515157904062e+27,-7.132067396658942e+28,-1.3725959759713848e+28
4.685328857,-2.2104546233671956e+27,-7.120865307484875e+28,-1.3595216739336584e+28
4.690105368,-2.193416731490237e+27,-7.109528950636615e+28,-1.3464792769031895e+28
4.694881878,-2.176401773003196e+27,-7.098059229374239e+28,-1.3334689351243226e+28
4.699658337,-2.1594100365142523e+27,-7.086457050324394e+28,-1.3204907972935835e+28
4.704434847,-2.1424418085144162e+27,-7.074723323399087e+28,-1.3075450105530613e+28
4.709211357,-2.1254973733827406e+27,-7.062858961712633e+28,-1.2946317204838534e+28
4.713987816,-2.1085770133920783e+27,-7.050864881496918e+28,-1.281751071099574e+28
4.718764326,-2.091681008715371e+27,-7.038742002015081e+28,-1.268903204839914e+28
4.723540784,-2.0748096374324352e+27,-7.026491245473691e+28,-1.2560882625642507e+28
4.728317295,-2.0579631755372043e+27,-7.0141135369334626e+28,-1.2433063835453104e+28
4.733093805,-2.0411418969453938e+27,-7.001609804218504e+28,-1.2305577054628728e+28
4.737870264,-2.024346073502572e+27,-6.988980977824176e+28,-1.217842364397525e+28
4.742646774,-2.0075759749926348e+27,-6.976227990823645e+28,-1.2051604948244507e+28
4.747423232,-1.990831869146679e+27,-6.963351778773236e+28,-1.1925122296072346e+28
4.752199743,-1.974114021652273e+27,-6.950353279616729e+28,-1.1798976999916508e+28
4.756976253,-1.9574226961631135e+27,-6.937233433588724e+28,-1.1673170355993923e+28
4.761752712,-1.9407581543090345e+27,-6.923993183117158e+28,-1.1547703644217034e+28
4.766529222,-1.9241206557063413e+27,-6.910633472725122e+28,-1.142257812812877e+28
4.771305732,-1.907510457968453e+27,-6.897155248932094e+28,-1.129779505483589e+28
4.776082191,-1.8909278167168436e+27,-6.8835594601546945e+28,-1.1173355654940576e+28
4.780858701,-1.8743729855922736e+27,-6.869847056607015e+28,-1.104926114247017e+28
4.785635159,-1.8578462162663114e+27,-6.856018990200595e+28,-1.0925512714805188e+28
4.79041167,-1.841347758453133e+27,-6.842076214444127e+28,-1.080211155260556e+28
4.79518818,-1.8248778599215834e+27,-6.828019684342978e+28,-1.0679058819735182e+28
4.799964639,-1.8084367665074985e+27,-6.813850356298655e+28,-1.0556355663184829e+28
4.804741149,-1.7920247221262782e+27,-6.79956918800837e+28,-1.0434003212993445e+28
4.809517659,-1.775641968785714e+27,-6.785177138364754e+28,-1.031200258216787e+28
4.814294118,-1.7592887465990745e+27,-6.770675167355801e+28,-1.0190354866601088e+28
4.819070628,-1.742965293798444e+27,-6.756064235964983e+28,-1.0069061144989187e+28
4.823847087,-1.7266718467482974e+27,-6.7413453060715795e+28,-9.948122478747142e+27
4.828623597,-1.710408639959314e+27,-6.726519340351269e+28,-9.827539911923565e+27
4.833400107,-1.6941759061024168e+27,-6.711587302176971e+28,-9.707314471114526e+27
4.838176566,-1.6779738760230387e+27,-6.6965501555199505e+28,-9.587447165376625e+27
4.842953076,-1.6618027787556023e+27,-6.681408864851218e+28,-9.467938986139499e+27
4.847729534,-1.645662841538221e+27,-6.666164395043244e+28,-9.348790907117942e+27
4.852506045,-1.6295542898276254e+27,-6.650817711272077e+28,-9.230003884223767e+27
4.857282555,-1.6134773473143147e+27,-6.6353697789199396e+28,-9.111578855477505e+27
4.862059014,-1.5974322359379173e+27,-6.619821563478356e+28,-8.993516740920193e+27
4.866835524,-1.581419175902757e+27,-6.6041740304518645e+28,-8.875818442525507e+27
4.871612034,-1.565438385693621e+27,-6.588428145262318e+28,-8.758484844112533e+27
4.876388493,-1.5494900820917233e+27,-6.572584873153825e+28,-8.64151681125938e+27
4.881165003,-1.5335744801908714e+27,-6.55664517909838e+28,-8.524915191217841e+27
4.885941462,-1.5176917934138433e+27,-6.540610027702234e+28,-8.408680812829282e+27
4.890717972,-1.5018422335289777e+27,-6.524480383113081e+28,-8.29281448644198e+27
4.895494482,-1.486026010666983e+27,-6.508257208928049e+28,-8.1773170038301e+27
4.900270941,-1.470243333337969e+27,-6.491941468102533e+28,-8.062189138114539e+27
4.905047451,-1.4544944084487153e+27,-6.47553412285988e+28,-7.947431643685847e+27
4.909823962,-1.4387794413202004e+27,-6.459036134601947e+28,-7.833045256129441e+27
4.91460042,-1.4230986357053958e+27,-6.442448463820503e+28,-7.719030692153373e+27
4.91937693,-1.4074521938073353e+27,-6.425772070009441e+28,-7.605388649518859e+27
4.924153389,-1.3918403162974573e+27,-6.409007911577721e+28,-7.492119806973847e+27
4.928929899,-1.3762632023342193e+27,-6.392156945762988e+28,-7.379224824189911e+27
4.933706409,-1.360721049581988e+27,-6.375220128545814e+28,-7.266704341702678e+27
4.938482868,-1.345214054230205e+27,-6.358198414564526e+28,-7.154558980856056e+27
4.943259378,-1.3297424110128406e+27,-6.341092757030616e+28,-7.042789343750441e+27
4.948035889,-1.31430631322814e+27,-6.323904107644721e+28,-6.931396013195129e+27
4.952812347,-1.2989059527586636e+27,-6.306633416513226e+28,-6.820379552665114e+27
4.957588857,-1.2835415200916014e+27,-6.289281632065538e+28,-6.709740506262459e+27
4.962365316,-1.2682132043393403e+27,-6.271849700972118e+28,-6.599479398682443e+27
4.967141826,-1.2529211932602528e+27,-6.2543385680633355e+28,-6.489596735184584e+27
4.971918337,-1.2376656732796767e+27,-6.236749176249147e+28,-6.380093001568665e+27
4.976694795,-1.2224468295110554e+27,-6.2190824664396e+28,-6.270968664155829e+27
4.981471305,-1.2072648457772168e+27,-6.201339377466164e+28,-6.162224169774881e+27
4.986247816,-1.192119904631762e+27,-6.18352084600385e+28,-6.053859945753928e+27
4.991024274,-1.1770121873805277e+27,-6.165627806494123e+28,-5.945876399917444e+27
4.995800784,-1.1619418741030975e+27,-6.147661191068651e+28,-5.838273920588862e+27
5.000577295,-1.1469091436743473e+27,-6.129621929473979e+28,-5.731052876598655e+27
5.005353753,-1.1319141737860104e+27,-6.111510948997254e+28,-5.624213617297949e+27
5.010130264,-1.1169571409682466e+27,-6.093329174393106e+28,-5.517756472577652e+27
5.014906722,-1.1020382206112035e+27,-6.075077527811839e+28,-5.411681752893096e+27
5.019683232,-1.0871575869865549e+27,-6.056756928729069e+28,-5.305989749294237e+27
5.024459743,-1.0723154132690072e+27,-6.038368293876934e+28,-5.200680733461354e+27
5.029236201,-1.0575118715577698e+27,-6.019912537176998e+28,-5.095754957746173e+27
5.034012712,-1.0427471328979753e+27,-6.001390569674971e+28,-4.991212655218303e+27
5.03878917,-1.028021367302038e+27,-5.982803299477364e+28,-4.887054039716933e+27
5.04356568,-1.0133347437709381e+27,-5.964151631690221e+28,-4.7832793059077365e+27
5.048342191,-9.986874303154156e+26,-5.945436468359968e+28,-4.67988862934503e+27
5.053118701,-9.84079593977054e+26,-5.926658708416469e+28,-4.5768821665391963e+27
5.057895159,-9.695114008492263e+26,-5.907819247618393e+28,-4.47426005502942e+27
5.06267167,-9.549830160978768e+26,-5.8889189785009505e+28,-4.3720224134618025e+27
5.067448128,-9.404946039821019e+26,-5.869958790326043e+28,-4.270169341672927e+27
5.072224639,-9.260463278745003e+26,-5.85093956903488e+28,-4.168700920778943e+27
5.077001149,-9.116383502812635e+26,-5.831862197203037e+28,-4.0676172132702286e+27
5.081777607,-8.972708328619817e+26,-5.8127275539979305e+28,-3.9669182631116713e+27
5.086554118,-8.829439364491467e+26,-5.793536515138652e+28,-3.866604095848594e+27
5.091330576,-8.686578210673223e+26,-5.774289952858108e+28,-3.766674718718405e+27
5.096107087,-8.544126459519574e+26,-5.754988735867368e+28,-3.6671301207680325e+27
5.100883597,-8.402085695678155e+26,-5.735633729322148e+28,-3.5679702729771913e+27
5.105660055,-8.26045749627003e+26,-5.7162257947913305e+28,-3.469195128387477e+27
5.110436566,-8.119243431065672e+26,-5.696765790227448e+28,-3.3708046222373295e+27
5.115213076,-7.978445062656373e+26,-5.677254569939087e+28,-3.272798672102849e+27
5.119989534,-7.838063946620805e+26,-5.657692984565146e+28,-3.175177178044427e+27
5.124766045,-7.698101631686582e+26,-5.638081881050938e+28,-3.0779400227591664e+27
5.129542555,-7.558559659886623e+26,-5.618422102626137e+28,-2.9810870717390333e+27
5.134319014,-7.419439566710159e+26,-5.598714488784606e+28,-2.8846181734346984e+27
5.139095524,-7.280742881248198e+26,-5.578959875266069e+28,-2.788533159425042e+27
5.143872034,-7.142471126333261e+26,-5.5591590940395825e+28,-2.692831844592315e+27
5.148648493,-7.004625818673216e+26,-5.539312973288724e+28,-2.5975140273029343e+27
5.153425003,-6.867208468979052e+26,-5.519422337398399e+28,-2.502579489593903e+27
5.158201462,-6.73022058208644e+26,-5.499488006943176e+28,-2.4080279973648325e+27
5.162977972,-6.593663657070973e+26,-5.479510798677145e+28,-2.3138593005755212e+27
5.167754482,-6.457539187356954e+26,-5.459491525525315e+28,-2.2200731334490785e+27
5.172530941,-6.32184866081957e+26,-5.43943099657655e+28,-2.1266692146805738e+27
5.177307451,-6.186593559880265e+26,-5.41933001707806e+28,-2.0336472476511753e+27
5.182083909,-6.051775361595094e+26,-5.399189388431479e+28,-1.941006920647729e+27
5.18686042,-5.9173955377358465e+26,-5.379009908190573e+28,-1.8487479070877297e+27
5.19163693,-5.78345555486382e+26,-5.358792370060649e+28,-1.7568698657496276e+27
5.196413389,-5.64995687439612e+26,-5.338537563899723e+28,-1.6653724410083865e+27
5.201189899,-5.5169009526644856e+26,-5.318246275721509e+28,-1.5742552630762273e+27
5.205966409,-5.384289240966601e+26,-5.2979192877002825e+28,-1.4835179482484825e+27
5.210742868,-5.2521231856099024e+26,-5.277557378177672e+28,-1.3931600991544834e+27
5.215519378,-5.120404227947888e+26,-5.257161321671364e+28,-1.303181305013384e+27
5.220295889,-4.9891338044089633e+26,-5.23673188888569e+28,-1.2135811418948134e+27
5.225072347,-4.8583133465178786e+26,-5.216269846724071e+28,-1.124359172984225e+27
5.229848857,-4.727944280909794e+26,-5.195775958303225e+28,-1.0355149488528018e+27
5.234625368,-4.598028029337011e+26,-5.175250982969034e+28,-9.470480077317788e+26
5.239401826,-4.46856600866841e+26,-5.154695676314022e+28,-8.589578757910336e+26
5.244178337,-4.339559630881661e+26,-5.134110790196464e+28,-7.712440674217998e+26
5.248954847,-4.2110103030482376e+26,-5.11349707276112e+28,-6.839060855233588e+26
5.253731305,-4.082919427311244e+26,-5.092855268461558e+28,-5.969434217935554e+26
5.258507816,-3.955288400856066e+26,-5.07218611808394e+28,-5.1035555702298784e+26
5.263284274,-3.828118615873848e+26,-5.051490358772103e+28,-4.241419613927203e+26
5.268060784,-3.70141145951786e+26,-5.030768724053813e+28,-3.38302094775368e+26
5.272837295,-3.5751683138527835e+26,-5.010021943868072e+28,-2.528354070393968e+26
5.277613753,-3.4493905557969586e+26,-4.98925074459337e+28,-1.6774133835647787e+26
5.282390264,-3.324079557057634e+26,-4.968455849076735e+28,-8.301931951173042e+25
5.287166774,-3.19923668405927e+26,-4.947637976663394e+28,1.3312277833216935e+24
5.291943232,-3.0748632978649634e+26,-4.926797843226889e+28,8.531089057525972e+25
5.296719743,-2.950960754091028e+26,-4.905936161199505e+28,1.6892026435093244e+26
5.301496253,-2.8275304028147404e+26,-4.885053639602908e+28,2.521599527174628e+26
5.306272712,-2.7045735884752353e+26,-4.864150984078921e+28,3.350305670802956e+26
5.311049222,-2.582091649767546e+26,-4.843228896920304e+28,4.1753272631948866e+26
5.315825732,-2.4600859195297913e+26,-4.822288077101468e+28,4.996670564644535e+26
5.320602191,-2.3385577246235052e+26,-4.801329220308999e+28,5.814341903673588e+26
5.325378701,-2.2175083858071182e+26,-4.780353018971882e+28,6.628347673754124e+26
5.330155159,-2.0969392176026174e+26,-4.759360162291265e+28,7.438694330022384e+26
5.33493167,-1.9768515281553967e+26,-4.738351336269624e+28,8.245388385985722e+26
5.33970818,-1.8572466190873295e+26,-4.71732722373918e+28,9.048436410225031e+26
5.344484639,-1.73812578534312e+26,-4.696288504389458e+28,9.847845023094909e+26
5.349261149,-1.6194903150299885e+26,-4.675235854793853e+28,1.0643620893423792e+27
5.354037659,-1.501341489250757e+26,-4.65416994843505e+28,1.1435770735216312e+27
5.358814118,-1.3836805819304113e+26,-4.633091455729213e+28,1.2224301304360136e+27
5.363590628,-1.2665088596362086e+26,-4.6120010440488455e+28,1.3009219395339508e+27
5.368367139,-1.1498275813914124e+26,-4.59089937774427e+28,1.3790531837957667e+27
5.373143597,-1.033637998482732e+26,-4.569787118163623e+28,1.4568245494070374e+27
5.377920107,-9.179413542615623e+25,-4.548664923671324e+28,1.534236725433279e+27
5.382696618,-8.027388839391282e+25,-4.527533449664954e+28,1.6112904034962004e+27
5.387473076,-6.88031814375642e+25,-4.506393348590531e+28,1.6879862774517405e+27
5.392249587,-5.738213638635906e+25,-4.485245269956197e+28,1.764325043070105e+27
5.397026097,-4.601087419052675e+25,-4.4640898603442894e+28,1.8403073977180241e+27
5.401802555,-3.468951489846767e+25,-4.4429277634218156e+28,1.91593404004344e+27
5.406579066,-2.3418177633394376e+25,-4.421759619949242e+28,1.9912056696628416e+27
5.411355524,-1.2196980569437762e+25,-4.400586067787589e+28,2.0661229868514332e+27
5.416132034,-1.0260409072339632e+24,-4.379407741903809e+28,2.14068669223632e+27
5.420908545,1.0094525150992331e+25,-4.358225274374443e+28,2.2148974864928885e+27
5.425685003,2.1164602426831546e+25,-4.337039294387572e+28,2.2887560700445662e+27
5.430461514,3.218407679156274e+25,-4.315850428243104e+28,2.3622631427661524e+27
5.435238024,4.315283519247913e+25,-4.294659299351465e+28,2.4354194036909112e+27
5.440014482,5.407076567964694e+25,-4.27346652823073e+28,2.5082255507215865e+27
5.444790993,6.493775743307824e+25,-4.252272732502186e+28,2.5806822803455056e+27
5.449567503,7.575370079029762e+25,-4.231078526884356e+28,2.6527902873539353e+27
5.454343962,8.651848727428228e+25,-4.2098845231855e+28,2.7245502645658253e+27
5.459120472,9.723200962175453e+25,-4.1886913302946654e+28,2.795962902556075e+27
5.463896982,1.0789416181180511e+26,-4.1674995541713305e+28,2.8670288893884434e+27
5.468673441,1.185048390948245e+26,-4.146309797833735e+28,2.93774891035323e+27
5.473449951,1.2906393802171802e+26,-4.125122661345983e+28,3.0081236477098554e+27
5.478226462,1.3957135647338077e+26,-4.103938741803996e+28,3.078153780434479e+27
5.48300292,1.5002699369040678e+26,-4.082758633320414e+28,3.147839983972768e+27
5.48777943,1.6043075030300704e+26,-4.061582927008528e+28,3.2171829299979225e+27
5.492555941,1.7078252836111094e+26,-4.040412210965371e+28,3.286183286174062e+27
5.497332399,1.8108223136462527e+26,-4.019247070254078e+28,3.354841715925085e+27
5.502108909,1.9132976429382608e+26,-3.9980880868856255e+28,3.4231588782091033e+27
5.506885368,2.0152503363985747e+26,-3.9769358398000865e+28,3.491135427298573e+27
5.511661878,2.116679474353129e+26,-3.9557909048474827e+28,3.558772012566209e+27
5.516438389,2.2175841528487576e+26,-3.9346538547683538e+28,3.626069278276761e+27
5.521214847,2.3179634839599555e+26,-3.9135252591741526e+28,3.693027863384711e+27
5.525991357,2.417816596095752e+26,-3.8924056845275734e+28,3.759648401337922e+27
5.530767868,2.5171426343064415e+26,-3.8712956941229368e+28,3.82593151988728e+27
5.535544326,2.6159407605899213e+26,-3.850195848066757e+28,3.8918778409023735e+27
5.540320837,2.7142101541973886e+26,-3.829106703258591e+28,3.9574879801932895e+27
5.545097347,2.811950011938153e+26,-3.808028813372276e+28,4.022762547338581e+27
5.549873805,2.909159548483316e+26,-3.786962728837635e+28,4.087702145519464e+27
5.554650316,3.0058379966680646e+26,-3.765908996822713e+28,4.1523073713603136e+27
5.559426826,3.101984607792326e+26,-3.7448681612165945e+28,4.2165788147755543e+27
5.564203284,3.197598651919519e+26,-3.7238407626128574e+28,4.2805170588229997e+27
5.568979795,3.292679418173141e+26,-3.702827338293752e+28,4.3441226795636855e+27
5.573756305,3.387226215030924e+26,-3.681828422215163e+28,4.407396245928275e+27
5.578532764,3.4812383706162655e+26,-3.660844544992373e+28,4.4703383195901097e+27
5.583309274,3.574715232986637e+26,-3.639876233886628e+28,4.532949454844966e+27
5.588085784,3.667656170418661e+26,-3.6189240127924996e+28,4.5952301984975906e+27
5.592862243,3.760060571689552e+26,-3.5979884022260615e+28,4.657181089755109e+27
5.597638753,3.851927846354617e+26,-3.5770699193138763e+28,4.7188026601273977e+27
5.602415264,3.9432574250205225e+26,-3.556169077782806e+28,4.78009543333449e+27
5.607191722,4.034048759614032e+26,-3.535286387950653e+28,4.8410599252210883e+27
5.611968232,4.124301323645921e+26,-3.5144223567176215e+28,4.9016966436782354e+27
5.616744743,4.214014612469781e+26,-3.493577487558593e+28,4.962006088572223e+27
5.621521201,4.303188143535395e+26,-3.4727522805162034e+28,5.02198875168086e+27
5.626297712,4.3918214566364056e+26,-3.4519472321946924e+28,5.081645116637183e+27
5.631074222,4.47991411415195e+26,-3.4311628357545025e+28,5.140975658880628e+27
5.63585068,4.567465701282004e+26,-3.4103995809075997e+28,5.199980845615702e+27
5.640627191,4.654475826276171e+26,-3.389657953913494e+28,5.25866113577818e+27
5.645403701,4.740944120655658e+26,-3.368938437575921e+28,5.317016980008858e+27
5.650180159,4.826870239428191e+26,-3.3482415112401487e+28,5.375048820634896e+27
5.65495667,4.9122538612956034e+26,-3.3275676507908672e+28,5.432757091658759e+27
5.65973318,4.9970946888538985e+26,-3.306917328650611e+28,5.49014221875481e+27
5.664509639,5.0813924487855244e+26,-3.2862910137786534e+28,5.547204619273586e+27
5.669286149,5.165146892043615e+26,-3.2656891716703205e+28,5.603944702253856e+27
5.674062607,5.24835779402799e+26,-3.245112264356664e+28,5.66036286844246e+27
5.678839118,5.3310249547526834e+26,-3.22456075040444e+28,5.716459510321957e+27
5.683615628,5.4131481990047844e+26,-3.204035084916349e+28,5.772235012146126e+27
5.688392139,5.4947273764943574e+26,-3.1835357195315197e+28,5.827689749983348e+27
5.693168597,5.57576236199528e+26,-3.1630631024262463e+28,5.882824091767878e+27
5.697945107,5.6562530554767546e+26,-3.14261767831499e+28,5.93763839735901e+27
5.702721566,5.736199382225273e+26,-3.122199888451629e+28,5.992133018608115e+27
5.707498076,5.815601292956849e+26,-3.1018101706309523e+28,6.046308299433548e+27
5.712274587,5.894458763919309e+26,-3.0814489591904174e+28,6.100164575903281e+27
5.717051097,5.9727717969844566e+26,-3.0611166850121754e+28,6.153702176325214e+27
5.721827555,6.05054041972994e+26,-3.0408137755253762e+28,6.206921421345023e+27
5.726604066,6.1277646855107215e+26,-3.0205406547087614e+28,6.25982262405146e+27
5.731380576,6.204444673520082e+26,-3.0002977430935356e+28,6.312406090088975e+27
5.736157034,6.280580488840058e+26,-2.980085457766501e+28,6.364672117777501e+27
5.740933545,6.356172262481148e+26,-2.9599042123734454e+28,6.416620998239237e+27
5.745710055,6.431220151411128e+26,-2.9397544171227676e+28,6.468253015532255e+27
5.750486514,6.505724338572811e+26,-2.9196364787892966e+28,6.519568446790774e+27
5.755263024,6.579685032890605e+26,-2.8995508007182754e+28,6.570567562371976e+27
5.760039534,6.6531024692657e+26,-2.879497782829478e+28,6.621250626009284e+27
5.764815993,6.725976908559825e+26,-2.859477821621444e+28,6.671617894972077e+27
5.769592503,6.798308637567472e+26,-2.839491310175801e+28,6.721669620231711e+27
5.774368962,6.870097968976575e+26,-2.819538638161638e+28,6.771406046633788e+27
5.779145472,6.941345241317671e+26,-2.7996201918399224e+28,6.82082741307656e+27
5.783921982,7.012050818901591e+26,-2.7797363540679744e+28,6.869933952695311e+27
5.788698441,7.082215091745703e+26,-2.7598875043039973e+28,6.918725893052522e+27
5.793474951,7.151838475488767e+26,-2.740074018611684e+28,6.967203456333747e+27
5.798251462,7.220921411294452e+26,-2.7202962696649165e+28,7.015366859549033e+27
5.803027972,7.289464365743553e+26,-2.7005546267526125e+28,7.063216314739752e+27
5.80780443,7.35746783071491e+26,-2.6808494557837655e+28,7.110752029190647e+27
5.812580941,7.42493232325512e+26,-2.661181119292724e+28,7.157974205646887e+27
5.817357451,7.491858385437048e+26,-2.641549976444756e+28,7.204883042535882e+27
5.822133909,7.558246584207122e+26,-2.6219563830419404e+28,7.251478734193675e+27
5.82691042,7.624097511221387e+26,-2.6024006915294296e+28,7.297761471095641e+27
5.83168693,7.68941178267036e+26,-2.582883251002151e+28,7.343731440091263e+27
5.836463389,7.754190039092715e+26,-2.563404407212e+28,7.38938882464273e+27
5.841239899,7.818432945177921e+26,-2.5439645025755553e+28,7.434733805067045e+27
5.846016409,7.882141189557926e+26,-2.5245638761823573e+28,7.479766558781353e+27
5.850792868,7.945315484588042e+26,-2.505202863803783e+28,7.524487260551135e+27
5.855569378,8.007956566117106e+26,-2.485881797902551e+28,7.568896082740953e+27
5.860345889,8.070065193247012e+26,-2.466601007642902e+28,7.612993195567391e+27
5.865122347,8.131642148081591e+26,-2.447360818901488e+28,7.656778767353864e+27
5.869898857,8.192688235464947e+26,-2.428161554279007e+28,7.700252964786997e+27
5.874675368,8.253204282709367e+26,-2.4090035331125804e+28,7.743415953174191e+27
5.879451826,8.313191139312938e+26,-2.3898870714888513e+28,7.786267896702098e+27
5.884228337,8.372649676667069e+26,-2.3708124822577596e+28,7.82880895869571e+27
5.889004847,8.431580787754016e+26,-2.351780075046945e+28,7.87103930187785e+27
5.893781305,8.489985386834497e+26,-2.3327901562767203e+28,7.912959088628755e+27
5.898557816,8.547864409125496e+26,-2.313843029175585e+28,7.954568481245431e+27
5.903334326,8.605218810468334e+26,-2.2949389937962408e+28,7.99586764220037e+27
5.908110784,8.66204956698726e+26,-2.2760783470320507e+28,8.036856734399263e+27
5.912887295,8.71835767473874e+26,-2.257261382633921e+28,8.077535921437313e+27
5.917663805,8.77414414935167e+26,-2.238488391227562e+28,8.117905367853821e+27
5.922440264,8.829410025658852e+26,-2.219759660331085e+28,8.157965239384736e+27
5.927216774,8.884156357320189e+26,-2.201075474372892e+28,8.197715703212765e+27
5.931993284,8.938384216438003e+26,-2.1824361147098174e+28,8.237156928214588e+27
5.936769743,8.992094693164898e+26,-2.163841859645463e+28,8.276289085204852e+27
5.941546253,9.045288895304648e+26,-2.1452929844486587e+28,8.315112347176619e+27
5.946322764,9.097967947906542e+26,-2.1267897613719873e+28,8.353626889538012e+27
5.951099222,9.150132992853692e+26,-2.1083324596703056e+28,8.391832890344798e+27
5.955875732,9.201785188445777e+26,-2.0899213456191877e+28,8.429730530528572e+27
5.960652243,9.252925708976805e+26,-2.0715566825332285e+28,8.467319994120209e+27
5.965428753,9.303555744308442e+26,-2.053238730784128e+28,8.504601468468318e+27
5.970205212,9.353676499439307e+26,-2.034967747818487e+28,8.541575144452523e+27
5.974981722,9.403289194070634e+26,-2.016743988175252e+28,8.578241216691336e+27
5.97975818,9.45239506216872e+26,-1.9985677035027416e+28,8.614599883744392e+27
5.984534691,9.500995351524607e+26,-1.9804391425752127e+28,8.650651348308866e+27
5.989311201,9.549091323311402e+26,-1.9623585513089419e+28,8.686395817409878e+27
5.994087712,9.596684251639671e+26,-1.9443261727778113e+28,8.721833502584711e+27
5.99886417,9.643775423111414e+26,-1.9263422472283995e+28,8.756964620060728e+27
6.00364068,9.690366136373116e+26,-1.9084070120945744e+28,8.791789390926874e+27
6.008417191,9.736457701668475e+26,-1.8905207020115949e+28,8.826308041298709e+27
6.013193649,9.78205144039129e+26,-1.8726835488297535e+28,8.860520802476932e+27
6.017970159,9.827148684639087e+26,-1.8548957816275957e+28,8.894427911099376e+27
6.02274667,9.871750776768017e+26,-1.8371576267247492e+28,8.928029609286471e+27
6.027523128,9.915859068949608e+26,-1.8194693076943937e+28,8.961326144780133e+27
6.032299639,9.959474922729979e+26,-1.801831045375403e+28,8.994317771076058e+27
6.037076149,1.000259970859211e+27,-1.784243057884193e+28,9.027004747549408e+27
6.041852607,1.0045234805521835e+27,-1.766705560626298e+28,9.059387339573981e+27
6.046629118,1.0087381600578119e+27,-1.7492187663076887e+28,9.091465818634901e+27
6.051405628,1.0129041488468219e+27,-1.731782884945851e+28,9.123240462434833e+27
6.056182087,1.0170215871128284e+27,-1.7143981238806269e+28,9.154711554993771e+27
6.060958597,1.0210906157309961e+27,-1.6970646877848252e+28,9.185879386742409e+27
6.065735107,1.0251113762173546e+27,-1.6797827786746114e+28,9.216744254609103e+27
6.070511566,1.0290840106888197e+27,-1.662552595919686e+28,9.24730646210044e+27
6.075288076,1.0330086618239741e+27,-1.6453743362532648e+28,9.27756631937543e+27
6.080064587,1.0368854728246503e+27,-1.6282481937818888e+28,9.307524143313358e+27
6.084841097,1.0407145873783593e+27,-1.6111743599950886e+28,9.337180257575308e+27
6.089617555,1.0444961496216056e+27,-1.5941530237749232e+28,9.366534992659425e+27
6.094394066,1.0482303041041272e+27,-1.5771843714054097e+28,9.39558868594998e+27
6.099170524,1.0519171957540954e+27,-1.5602685865818571e+28,9.424341681760378e+27
6.103947034,1.0555569698443116e+27,-1.5434058504201309e+28,9.452794331370228e+27
6.108723545,1.0591497719594424e+27,-1.5265963414658674e+28,9.480946993056669e+27
6.113500055,1.0626957479643309e+27,-1.5098402357036557e+28,9.508800032120108e+27
6.118276514,1.0661950439734115e+27,-1.4931377065662025e+28,9.536353820904457e+27
6.123053024,1.0696478063212597e+27,-1.476488924943507e+28,9.563608738811852e+27
6.127829534,1.073054181534308e+27,-1.4598940591920756e+28,9.590565172311834e+27
6.132605993,1.0764143163037593e+27,-1.4433532751442081e+28,9.617223514945106e+27
6.137382503,1.0797283574597181e+27,-1.4268667361173932e+28,9.643584167321992e+27
6.142159014,1.0829964519465578e+27,-1.4104346029238388e+28,9.669647537115747e+27
6.146935472,1.0862187467995439e+27,-1.3940570338801835e+28,9.695414039050799e+27
6.151711982,1.0893953891227306e+27,-1.3777341848174308e+28,9.720884094886053e+27
6.156488493,1.0925265260681408e+27,-1.36146620909114e+28,9.746058133393255e+27
6.161264951,1.0956123048162304e+27,-1.345253257591896e+28,9.770936590330502e+27
6.166041462,1.0986528725576436e+27,-1.3290954787560727e+28,9.795519908410934e+27
6.170817972,1.101648376476256e+27,-1.3129930185768981e+28,9.819808537266709e+27
6.175594482,1.1045989637335042e+27,-1.296946020615827e+28,9.843802933408412e+27
6.180370941,1.1075047814540024e+27,-1.280954626014236e+28,9.867503560180096e+27
6.185147451,1.1103659767124435e+27,-1.2650189735054484e+28,9.890910887710089e+27
6.189923962,1.1131826965217774e+27,-1.2491391994271028e+28,9.91402539285763e+27
6.19470042,1.1159550878226555e+27,-1.2333154377338848e+28,9.936847559155353e+27
6.19947693,1.1186832974741357e+27,-1.2175478200106225e+28,9.959377876747712e+27
6.204253441,1.1213674722456348e+27,-1.2018364754857322e+28,9.98161684232553e+27
6.209029899,1.1240077588101227e+27,-1.1861815310449986e+28,1.0003564959056897e+28
6.213806409,1.1266043037385489e+27,-1.1705831112456762e+28,1.002522273651463e+28
6.21858292,1.1291572534954928e+27,-1.1550413383309068e+28,1.004659069060054e+28
6.223359378,1.1316667544360325e+27,-1.1395563322444417e+28,1.0067669343466724e+28
6.228135889,1.1341329528038247e+27,-1.1241282106456604e+28,1.008845922343395e+28
6.232912399,1.136555994730388e+27,-1.1087570889248692e+28,1.010896086490741e+28
6.237688857,1.1389360262355769e+27,-1.0934430802188607e+28,1.0129174808289997e+28
6.242465368,1.1412731932292223e+27,-1.0781862954267105e+28,1.0149101599893377e+28
6.247241878,1.1435676415139095e+27,-1.062986843225791e+28,1.0168741791847062e+28
6.252018389,1.1458195167888721e+27,-1.0478448300879861e+28,1.018809594200571e+28
6.256794847,1.1480289646549804e+27,-1.032760360296084e+28,1.020716461385494e+28
6.261571357,1.1501961306208016e+27,-1.0177335359603273e+28,1.0225948376415959e+28
6.266347868,1.1523211601096964e+27,-1.0027644570351068e+28,1.0244447804149255e+28
6.271124326,1.1544041984679088e+27,-9.878532213357742e+27,1.026266347685748e+28
6.275900837,1.1564453909736036e+27,-9.729999245555539e+27,1.0280595979587656e+28
6.280677347,1.1584448828468042e+27,-9.582046602825388e+27,1.029824590253275e+28
6.285453805,1.1604028192601838e+27,-9.434675200167484e+27,1.0315613840932629e+28
6.290230316,1.1623193453506504e+27,-9.287885931872321e+27,1.0332700394974466e+28
6.295006826,1.1641946062316718e+27,-9.141679671691952e+27,1.03495061696927e+28
6.299783284,1.1660287470062736e+27,-8.996057273011333e+27,1.0366031774868706e+28
6.304559795,1.1678219127806512e+27,-8.851019569019555e+27,1.0382277824930303e+28
6.309336305,1.1695742486783351e+27,-8.706567372880806e+27,1.0398244938851327e+28
6.314112816,1.171285899854846e+27,-8.562701477904925e+27,1.0413933740051405e+28
6.318889274,1.1729570115127734e+27,-8.419422657717381e+27,1.0429344856296174e+28
6.323665784,1.1745877289172155e+27,-8.276731666428478e+27,1.0444478919598147e+28
6.328442295,1.1761781974115225e+27,-8.134629238801596e+27,1.0459336566118477e+28
6.333218753,1.177728562433297e+27,-7.993116090420233e+27,1.0473918436069943e+28
6.337995264,1.1792389695305997e+27,-7.852192917853654e+27,1.0488225173621504e+28
6.342771774,1.180709564378311e+27,-7.711860398820973e+27,1.050225742680473e+28
6.347548232,1.1821404927945921e+27,-7.572119192353407e+27,1.0516015847422375e+28
6.352324743,1.1835319007573754e+27,-7.43296993895447e+27,1.052950109095938e+28
6.357101253,1.1848839344208216e+27,-7.294413260757932e+27,1.0542713816496599e+28
6.361877764,1.1861967401316844e+27,-7.156449761683335e+27,1.0555654686627497e+28
6.366654222,1.1874704644455246e+27,-7.019080027588808e+27,1.0568324367378131e+28
6.371430732,1.1887052541427156e+27,-6.882304626420961e+27,1.0580723528130687e+28
6.376207243,1.1899012562441886e+27,-6.746124108361645e+27,1.0592852841550844e+28
6.380983701,1.1910586180268665e+27,-6.610539005971387e+27,1.0604712983519043e+28
6.385760212,1.1921774870387336e+27,-6.475549834329311e+27,1.0616304633065694e+28
6.390536722,1.1932580111134888e+27,-6.34115709116945e+27,1.0627628472310255e+28
6.39531318,1.1943003383847407e+27,-6.207361257013348e+27,1.063868518640416e+28
6.400089691,1.1953046172997145e+27,-6.074162795298921e+27,1.0649475463477569e+28
6.404866201,1.1962709966324437e+27,-5.941562152505505e+27,1.0659999994589832e+28
6.409642712,1.1971996254964278e+27,-5.809559758275055e+27,1.0670259473683446e+28
6.41441917,1.1980906533567455e+27,-5.678156025529408e+27,1.068025459754127e+28
6.41919568,1.1989442300416098e+27,-5.547351350583554e+27,1.0689986065746879e+28
6.423972191,1.1997605057533636e+27,-5.417146113254866e+27,1.0699454580648013e+28
6.428748649,1.2005396310789226e+27,-5.287540676968327e+27,1.0708660847323166e+28
6.433525159,1.2012817569996677e+27,-5.15853538885779e+27,1.0717605573551246e+28
6.43830167,1.2019870349007842e+27,-5.030130579863293e+27,1.0726289469784418e+28
6.443078128,1.2026556165800448e+27,-4.902326564824462e+27,1.0734713249124125e+28
6.447854639,1.2032876542560219e+27,-4.775123642570065e+27,1.0742877627300294e+28
6.452631149,1.2038833005757134e+27,-4.6485220960037523e+27,1.0750783322653654e+28
6.457407659,1.2044427086215846e+27,-4.5225221921860355e+27,1.075843105612112e+28
6.462184118,1.204966031918023e+27,-4.3971241824125136e+27,1.0765821551224198e+28
6.466960628,1.2054534244372228e+27,-4.272328302288346e+27,1.077295553406047e+28
6.471737139,1.2059050406045092e+27,-4.1481347717989327e+27,1.0779833733298176e+28
6.476513597,1.2063210353031088e+27,-4.024543795376792e+27,1.0786456880173857e+28
6.481290107,1.2067015638783664e+27,-3.9015555619646095e+27,1.0792825708493112e+28
6.486066618,1.2070467821414063e+27,-3.7791702450744687e+27,1.0798940954634503e+28
6.490843128,1.2073568463722471e+27,-3.657388002843286e+27,1.0804803357556554e+28
6.495619587,1.2076319133223792e+27,-3.5362089780845114e+27,1.0810413658807714e+28
6.500396097,1.207872140216812e+27,-3.4156332983361676e+27,1.0815772602539211e+28
6.505172555,1.2080776847555934e+27,-3.2956610759053147e+27,1.0820880935520801e+28
6.509949066,1.2082487051148025e+27,-3.1762924079090087e+27,1.0825739407159379e+28
6.514725576,1.208385359947015e+27,-3.057527376311804e+27,1.0830348769520421e+28
6.519502087,1.2084878083812372e+27,-2.9393660479598517e+27,1.0834709777352252e+28
6.524278545,1.2085562100223097e+27,-2.821808474611654e+27,1.0838823188112951e+28
6.529055055,1.208590724949783e+27,-2.704854692965519e+27,1.084268976199988e+28
6.533831566,1.2085915137162657e+27,-2.588504724683747e+27,1.0846310261981698e+28
6.538608076,1.208558737345249e+27,-2.472758576413629e+27,1.084968545383277e+28
6.543384534,1.2084925573284082e+27,-2.3576162398053156e+27,1.0852816106169898e+28
6.548161045,1.2083931356223766e+27,-2.2430776915266073e+27,1.0855702990491245e+28
6.552937555,1.2082606346449931e+27,-2.1291428932747123e+27,1.0858346881217206e+28
6.557714014,1.2080952172710318e+27,-2.0158117917849992e+27,1.0860748555733024e+28
6.562490524,1.207897046827421e+27,-1.9030843188367542e+27,1.086290879443284e+28
6.567267034,1.207666287087957e+27,-1.7909603912559554e+27,1.0864828380764905e+28
6.572043493,1.2074031022675151e+27,-1.6794399109150868e+27,1.0866508101277667e+28
6.576820003,1.2071076570157591e+27,-1.5685227647300217e+27,1.0867948745666484e+28
6.581596514,1.2067801164103468e+27,-1.458208824654011e+27,1.0869151106820628e+28
6.586373024,1.2064206459496166e+27,-1.3484979476688087e+27,1.0870115980870222e+28
6.591149482,1.2060294115447571e+27,-1.23938997577297e+27,1.0870844167232822e+28
6.595925993,1.2056065795114618e+27,-1.1308847359673558e+27,1.0871336468659387e+28
6.600702503,1.2051523165610865e+27,-1.0229820402378796e+27,1.0871593691279437e+28
6.605478962,1.2046667897913228e+27,-9.156816855355409e+26,1.0871616644645265e+28
6.610255472,1.2041501666763964e+27,-8.089834537537958e+26,1.0871406141775139e+28
6.615031982,1.203602615056798e+27,-7.028871117033118e+26,1.0870962999195543e+28
6.619808493,1.2030243031285595e+27,-5.973924110841626e+26,1.087028803698238e+28
6.624584951,1.2024153994320844e+27,-4.9249908845552586e+26,1.0869382078801099e+28
6.629361462,1.2017760728405479e+27,-3.882068652029562e+26,1.086824595194562e+28
6.634137972,1.2011064925478921e+27,-2.845154475033115e+26,1.086688048737592e+28
6.638914482,1.2004068280564316e+27,-1.814245262874221e+26,1.086528651975406e+28
6.643690941,1.1996772491640911e+27,-7.893377720059118e+25,1.0863464887478377e+28
6.648467451,1.1989179259513052e+27,2.2957139438982865e+25,1.086141643271567e+28
6.653243962,1.1981290287676192e+27,1.2424857868376961e+26,1.0859142001431204e+28
6.65802042,1.197310728218027e+27,2.2494091100236308e+26,1.0856642443416513e+28
6.66279693,1.1964631951490807e+27,3.2503452232673716e+26,1.085391861231499e+28
6.667573441,1.195586600634827e+27,4.245298141012049e+26,1.0850971365645216e+28
6.672349899,1.1946811159626242e+27,5.23427203332986e+26,1.084780156482206e+28
6.677126409,1.1937469126188843e+27,6.217271226442853e+26,1.084441007517551e+28
6.68190292,1.1927841622747744e+27,7.194300203257833e+26,1.0840797765967265e+28
6.68667943,1.1917930367719146e+27,8.1653636039144e+26,1.0836965510405079e+28
6.691455889,1.1907737081080997e+27,9.130466226345067e+26,1.0832914185654787e+28
6.696232399,1.189726348423069e+27,1.0089613026846424e+27,1.0828644672850036e+28
6.701008909,1.1886511299843505e+27,1.1042809120660232e+27,1.0824157857099711e+28
6.705785368,1.187548225173209e+27,1.199005978256329e+27,1.0819454627492927e+28
6.710561878,1.1864178064707275e+27,1.2931370447464893e+27,1.0814535877101423e+28
6.715338389,1.1852600464440375e+27,1.3866746711010667e+27,1.0809402502979231e+28
6.720114899,1.1840751177327034e+27,1.479619433019151e+27,1.0804055406159452e+28
6.724891357,1.182863193035254e+27,1.571971922395643e+27,1.0798495491648013e+28
6.729667868,1.1816244450958611e+27,1.663732747382802e+27,1.0792723668414291e+28
6.734444378,1.1803590466911683e+27,1.7549025324519206e+27,1.0786740849378516e+28
6.739220837,1.1790671706172675e+27,1.845481918454998e+27,1.0780547951395884e+28
6.743997347,1.1777489896768289e+27,1.9354715626862826e+27,1.0774145895237314e+28
6.748773857,1.1764046766663851e+27,2.024872138943542e+27,1.0767535605566753e+28
6.753550368,1.175034404363774e+27,2.1136843375889308e+27,1.0760718010914979e+28
6.758326826,1.173638345515739e+27,2.2019088656093143e+27,1.0753694043649908e+28
6.763103337,1.1722166728256998e+27,2.2895464466759295e+27,1.0746464639943487e+28
6.767879847,1.1707695589417075e+27,2.3765978212032776e+27,1.0739030739735184e+28
6.772656305,1.1692971764445939e+27,2.4630637464071343e+27,1.0731393286692131e+28
6.777432816,1.1677996978363271e+27,2.5489449963615747e+27,1.072355322816595e+28
6.782209326,1.166277295528593e+27,2.634242362054923e+27,1.0715511515146341e+28
6.786985837,1.1647301418316094e+27,2.7189566514445186e+27,1.0707269102211604e+28
6.791762295,1.1631584089431842e+27,2.803088689510209e+27,1.0698826947476259e+28
6.796538805,1.1615622689380394e+27,2.886639318306488e+27,1.0690186012536055e+28
6.801315316,1.1599418937574142e+27,2.969609397013194e+27,1.0681347262410534e+28
6.806091826,1.1582974551989602e+27,3.0519998019846926e+27,1.067231166548325e+28
6.810868284,1.1566291249069396e+27,3.133811426797466e+27,1.0663080193439724e+28
6.815644795,1.1549370743627285e+27,3.215045182296055e+27,1.0653653821203282e+28
6.820421305,1.153221474875625e+27,3.29570199663729e+27,1.0644033526868891e+28
6.825197764,1.151482497573952e+27,3.3757828153327285e+27,1.0634220291635118e+28
6.829974274,1.1497203133964413e+27,3.455288601289205e+27,1.0624215099734388e+28
6.834750784,1.1479350930838865e+27,3.5342203348473883e+27,1.061401893836179e+28
6.839527295,1.1461270071710545e+27,3.6125790138182275e+27,1.0603632797602616e+28
6.844303753,1.1442962259788473e+27,3.690365653517157e+27,1.059305767035881e+28
6.849080264,1.1424429196067098e+27,3.7675812867959327e+27,1.0582294552274531e+28
6.853856774,1.1405672579252854e+27,3.8442269640719594e+27,1.0571344441661073e+28
6.858633284,1.1386694105693204e+27,3.9203037533549506e+27,1.0560208339421286e+28
6.863409743,1.1367495469308162e+27,3.995812740270771e+27,1.0548887248973668e+28
6.868186253,1.1348078361524318e+27,4.0707550280823357e+27,1.0537382176176228e+28
6.872962764,1.1328444471211312e+27,4.1451317377074225e+27,1.0525694129250217e+28
6.877739222,1.1308595484620781e+27,4.218944007733247e+27,1.0513824118703786e+28
6.882515732,1.1288533085327722e+27,4.2921929944276507e+27,1.0501773157255577e+28
6.887292243,1.1268258954174154e+27,4.3648798717467504e+27,1.0489542259758394e+28
6.892068753,1.1247774769214953e+27,4.43700583133886e+27,1.0477132443123167e+28
6.896845212,1.1227082205665771e+27,4.5085720825445044e+27,1.046454472624352e+28
6.901621722,1.1206182935852976e+27,4.579579852392342e+27,1.0451780129921197e+28
6.906398232,1.1185078629165545e+27,4.6500303855908405e+27,1.043883967679259e+28
6.911174691,1.1163770952008885e+27,4.7199249445155423e+27,1.0425724391256537e+28
6.915951201,1.114226156776056e+27,4.7892648091917954e+27,1.04124352994035e+28
6.920727712,1.1120552136727866e+27,4.858051277272771e+27,1.0398973428946344e+28
6.925504222,1.1098644316107318e+27,4.926285664012605e+27,1.0385339809152913e+28
6.93028068,1.1076539759946056e+27,4.993969302234486e+27,1.0371535470780648e+28
6.935057191,1.1054240119105241e+27,5.061103542293481e+27,1.0357561446013435e+28
6.939833701,1.1031747041225467e+27,5.12768975203386e+27,1.0343418768400806e+28
6.944610212,1.1009062170694225e+27,5.193729316740677e+27,1.0329108472799676e+28
6.94938667,1.0986187148615477e+27,5.259223639085393e+27,1.031463159531873e+28
6.95416318,1.0963123612781458e+27,5.32417413906534e+27,1.0299989173265544e+28
6.958939691,1.0939873197646814e+27,5.388582253936739e+27,1.0285182245096463e+28
6.963716201,1.0916437534305202e+27,5.452449438141085e+27,1.027021185036933e+28
6.968492659,1.0892818250468447e+27,5.515777163224655e+27,1.0255079029699143e+28
6.97326917,1.0869016970448286e+27,5.578566917751012e+27,1.0239784824716648e+28
6.97804568,1.0845035315140716e+27,5.640820207206308e+27,1.0224330278029895e+28
6.982822139,1.0820874902012904e+27,5.702538553897253e+27,1.0208716433188625e+28
6.987598649,1.0796537345092604e+27,5.763723496841659e+27,1.019294433465132e+28
6.992375159,1.0772024254959918e+27,5.824376591651516e+27,1.0177015027754716e+28
6.99715167,1.0747337238741306e+27,5.88449941040855e+27,1.016092955868557e+28
7.001928128,1.072247790010567e+27,5.944093541532181e+27,1.0144688974454376e+28
7.006704639,1.0697447839262321e+27,6.00316058963989e+27,1.0128294322870857e+28
7.011481149,1.0672248652960637e+27,6.061702175399994e+27,1.011174665252099e+28
7.016257607,1.0646881934491287e+27,6.119719935376784e+27,1.0095047012745304e+28
7.021034118,1.0621349273688863e+27,6.177215521868044e+27,1.0078196453618284e+28
7.025810628,1.0595652256935867e+27,6.234190602734925e+27,1.006119602592875e+28
7.030587139,1.0569792467167886e+27,6.290646861224245e+27,1.0044046781160996e+28
7.035363597,1.0543771483879774e+27,6.346585995783406e+27,1.0026749771476557e+28
7.040140107,1.0517590883132509e+27,6.402009719868098e+27,1.0009306049696442e+28
7.044916618,1.0491252237560431e+27,6.45691976174299e+27,9.991716669283622e+27
7.049693128,1.046475711637863e+27,6.511317864275612e+27,9.973982684325708e+27
7.054469587,1.0438107085390245e+27,6.565205784723681e+27,9.956105149517634e+27
7.059246097,1.0411303706993439e+27,6.618585294516213e+27,9.938085120144247e+27
7.064022607,1.0384348540187805e+27,6.671458179028737e+27,9.919923652062693e+27
7.068799118,1.0357243140580007e+27,6.723826237353012e+27,9.901621801684534e+27
7.073575576,1.0329989060388445e+27,6.775691282061656e+27,9.883180625957581e+27
7.078352087,1.0302587848446705e+27,6.827055138968055e+27,9.864601182347361e+27
7.083128597,1.027504105020557e+27,6.877919646881881e+27,9.845884528818177e+27
7.087905107,1.0247350207733441e+27,6.928286657360529e+27,9.827031723813693e+27
7.092681566,1.0219516859714982e+27,6.978158034456665e+27,9.808043826237055e+27
7.097458076,1.019154254144789e+27,7.027535654462078e+27,9.788921895430524e+27
7.102234587,1.0163428784837724e+27,7.076421405647928e+27,9.769666991154523e+27
7.107011097,1.0135177118390781e+27,7.124817188001454e+27,9.75028017356607e+27
7.111787555,1.0106789067204997e+27,7.172724912959182e+27,9.730762503196617e+27
7.116564066,1.0078266152958854e+27,7.220146503136643e+27,9.711115040929318e+27
7.121340576,1.0049609893898241e+27,7.267083892054634e+27,9.691338847975888e+27
7.126117034,1.0020821804821108e+27,7.313539023862112e+27,9.671434985853221e+27
7.130893545,9.991903397059908e+26,7.359513853055863e+27,9.651404516359856e+27
7.135670264,9.962856178461822e+26,7.405010344197084e+27,9.631248501552266e+27
7.140446514,9.933681653366749e+26,7.450030471625036e+27,9.610968003721015e+27
7.145223024,9.904381322583103e+26,7.494576219167921e+27,9.590564085366763e+27
7.149999534,9.874956683361465e+26,7.53864957985118e+27,9.570037809176135e+27
7.154776045,9.845409229366291e+26,7.582252555603407e+27,9.549390237997464e+27
7.159552555,9.815740450645866e+26,7.625387156960162e+27,9.528622434816436e+27
7.164329014,9.785951833600701e+26,7.668055402766015e+27,9.507735462731703e+27
7.169105524,9.756044860950506e+26,7.710259319875117e+27,9.486730384930485e+27
7.173882034,9.726021011699895e+26,7.752000942850665e+27,9.465608264664029e+27
7.178658545,9.695881761102937e+26,7.79328231366367e+27,9.444370165222787e+27
7.183435003,9.665628580626654e+26,7.834105481391429e+27,9.423017149911065e+27
7.188211514,9.635262937913613e+26,7.874472501916079e+27,9.401550282020852e+27
7.192988024,9.604786296743723e+26,7.914385437623589e+27,9.37997062480461e+27
7.197764482,9.574200116995283e+26,7.953846357103443e+27,9.358279241446832e+27
7.202540993,9.543505854605353e+26,7.992857334849205e+27,9.336477195034298e+27
7.207317503,9.512704961529503e+26,8.031420450960125e+27,9.314565548524876e+27
7.212094014,9.481798885701061e+26,8.069537790843932e+27,9.292545364714776e+27
7.216870524,9.450789070989945e+26,8.107211444920904e+27,9.270417706204202e+27
7.221646982,9.419676957161145e+26,8.14444350832935e+27,9.248183635361413e+27
7.226423493,9.388463979832985e+26,8.181236080632562e+27,9.225844214285168e+27
7.231200003,9.357151570435212e+26,8.217591265527261e+27,9.203400504765531e+27
7.235976514,9.325741156166914e+26,8.253511170553545e+27,9.180853568242979e+27
7.240752972,9.294234159954291e+26,8.288997906806284e+27,9.15820446576575e+27
7.245529482,9.262632000408313e+26,8.324053588647967e+27,9.135454257945454e+27
7.250305993,9.230936091782253e+26,8.358680333422974e+27,9.112604004910919e+27
7.255082503,9.199147843929075e+26,8.392880261173315e+27,9.08965476626027e+27
7.259858962,9.167268662258571e+26,8.426655494355809e+27,9.066607601011299e+27
7.264635472,9.135299947694086e+26,8.460008157560708e+27,9.043463567550179e+27
7.269411982,9.103243096628769e+26,8.492940377231791e+27,9.02022372357857e+27
7.274188441,9.071099500881282e+26,8.525454281387911e+27,8.996889126059181e+27
7.278964951,9.038870547650966e+26,8.557551999345978e+27,8.973460831159871e+27
7.283741462,9.006557619472439e+26,8.589235661445343e+27,8.949939894196326e+27
7.288517972,8.974162094169581e+26,8.62050739877356e+27,8.926327369573367e+27
7.29329443,8.941685344808797e+26,8.651369342893551e+27,8.902624310724957e+27
7.298070941,8.90912873965144e+26,8.68182362557221e+27,8.878831770052936e+27
7.302847451,8.876493642105274e+26,8.711872378510471e+27,8.854950798864512e+27
7.307623962,8.843781410674851e+26,8.74151773307483e+27,8.830982447308482e+27
7.31240042,8.810993398910693e+26,8.770761820030306e+27,8.806927764310162e+27
7.31717693,8.778130955357248e+26,8.799606769274808e+27,8.782787797505023e+27
7.321953441,8.745195423499495e+26,8.828054709574875e+27,8.758563593171038e+27
7.326729951,8.712188141708177e+26,8.856107768302778e+27,8.734256196159699e+27
7.331506409,8.679110443183638e+26,8.883768071174903e+27,8.709866649825719e+27
7.33628292,8.645963655898244e+26,8.9110377419914e+27,8.685395995955381e+27
7.34105943,8.612749102537391e+26,8.937918902377075e+27,8.660845274693483e+27
7.345835941,8.579468100439144e+26,8.964413671523489e+27,8.636215524468936e+27
7.350612399,8.546121961532595e+26,8.990524165932294e+27,8.611507781919009e+27
7.355388909,8.512711992275186e+26,9.016252499159878e+27,8.586723081812242e+27
7.36016542,8.479239493589173e+26,9.041600781563322e+27,8.561862456970017e+27
7.36494193,8.445705760797374e+26,9.066571120047741e+27,8.536926938186869e+27
7.369718389,8.412112083558309e+26,9.091165617815035e+27,8.51191755414957e+27
7.374494899,8.378459745800863e+26,9.11538637411413e+27,8.486835331354989e+27
7.379271409,8.344750025658695e+26,9.139235483992823e+27,8.461681294026705e+27
7.38404792,8.310984195404538e+26,9.162715038051344e+27,8.436456464030385e+27
7.388824378,8.277163521384581e+26,9.185827122197743e+27,8.411161860787962e+27
7.393600889,8.24328926395317e+26,9.208573817405207e+27,8.385798501190761e+27
7.398377399,8.209362677408136e+26,9.230957199471328e+27,8.360367399511633e+27
7.403153909,8.175385009927039e+26,9.252979338779298e+27,8.334869567316149e+27
7.407930368,8.141357503504548e+26,9.274642300060951e+27,8.309306013372881e+27
7.412706878,8.107281393891126e+26,9.295948142161619e+27,8.283677743562813e+27
7.417483389,8.073157910533179e+26,9.316898917806759e+27,8.257985760787971e+27
7.422259899,8.038988276514696e+26,9.337496673370381e+27,8.232231064879341e+27
7.427036357,8.004773708500523e+26,9.357743448645302e+27,8.206414652504103e+27
7.431812868,7.970515416681327e+26,9.377641276615267e+27,8.18053751707221e+27
7.436589378,7.936214604720336e+26,9.397192183228983e+27,8.154600648642283e+27
7.441365889,7.901872469701931e+26,9.416398187176173e+27,8.128605033826865e+27
7.446142347,7.867490202082095e+26,9.435261299665802e+27,8.102551655697017e+27
7.450918857,7.833068985640764e+26,9.453783524206609e+27,8.076441493686339e+27
7.455695368,7.798609997436053e+26,9.471966856390084e+27,8.050275523494502e+27
7.460471878,7.764114407760323e+26,9.489813283675978e+27,8.024054716990301e+27
7.465248337,7.729583380097997e+26,9.507324785180469e+27,7.997780042114328e+27
7.470024847,7.695018071085181e+26,9.52450333146714e+27,7.971452462781317e+27
7.474801357,7.660419630471157e+26,9.541350884340896e+27,7.945072938782245e+27
7.479577868,7.625789201081857e+26,9.557869396645086e+27,7.918642425686332e+27
7.484354326,7.591127918785426e+26,9.574060812062027e+27,7.892161874743111e+27
7.489130837,7.556436912459918e+26,9.589927064917066e+27,7.865632232784686e+27
7.493907347,7.521717303963129e+26,9.605470079986277e+27,7.839054442128324e+27
7.498683857,7.48697020810451e+26,9.620691772307762e+27,7.812429440479461e+27
7.503460316,7.452196732619124e+26,9.635594046996539e+27,7.785758160835243e+27
7.508236826,7.41739797814354e+26,9.650178799062914e+27,7.759041531388768e+27
7.513013337,7.382575038193652e+26,9.664447913234313e+27,7.732280475434253e+27
7.517789847,7.347728999144342e+26,9.678403263780626e+27,7.705475911273291e+27
7.522566357,7.312860940210957e+26,9.692046714343163e+27,7.67862875212231e+27
7.527342816,7.277971933432584e+26,9.70538011776739e+27,7.65173990602137e+27
7.532119326,7.243063043657197e+26,9.718405315939645e+27,7.624810275744418e+27
7.536895837,7.208135328528691e+26,9.731124139628001e+27,7.597840758711119e+27
7.541672347,7.173189838475869e+26,9.743538408327549e+27,7.570832246900405e+27
7.546448805,7.138227616703511e+26,9.755649930110375e+27,7.543785626765835e+27
7.551225316,7.103249699185623e+26,9.767460501480501e+27,7.516701779152933e+27
7.556001826,7.068257114660951e+26,9.778971907234002e+27,7.489581579218629e+27
7.560778284,7.033250884630819e+26,9.790185920324627e+27,7.462425896352942e+27
7.565554795,6.998232023359286e+26,9.801104301735178e+27,7.435235594103025e+27
7.570331305,6.963201537875727e+26,9.811728800354884e+27,7.408011530099717e+27
7.575107816,6.928160427979843e+26,9.822061152862941e+27,7.380754555986708e+27
7.579884326,6.893109686249124e+26,9.832103083618483e+27,7.353465517352421e+27
7.584660784,6.85805029804875e+26,9.841856304557261e+27,7.326145253664698e+27
7.589437295,6.822983241543849e+26,9.851322515095277e+27,7.298794598208364e+27
7.594213805,6.787909487714039e+26,9.860503402039549e+27,7.271414378025785e+27
7.598990316,6.752830000370213e+26,9.869400639506158e+27,7.244005413860433e+27
7.603766774,6.71774573617348e+26,9.87801588884564e+27,7.216568520103532e+27
7.608543284,6.682657644656288e+26,9.886350798575888e+27,7.18910450474379e+27
7.613319795,6.647566668245754e+26,9.894407004322684e+27,7.161614169320274e+27
7.618096305,6.612473742289272e+26,9.902186128768001e+27,7.134098308878497e+27
7.622872764,6.577379795082432e+26,9.909689781606185e+27,7.106557711929711e+27
7.627649274,6.542285747899242e+26,9.916919559508115e+27,7.078993160413497e+27
7.632425784,6.507192515024656e+26,9.92387704609342e+27,7.051405429663663e+27
7.637202295,6.4721010037894e+26,9.930563811910837e+27,7.02379528837749e+27
7.641978805,6.437012114607132e+26,9.936981414426728e+27,6.996163498588295e+27
7.646755264,6.40192674101391e+26,9.943131398021866e+27,6.968510815641312e+27
7.651531774,6.366845769709982e+26,9.949015293996464e+27,6.940837988172862e+27
7.656308284,6.331770080603885e+26,9.954634620583437e+27,6.913145758092841e+27
7.661084795,6.296700546858791e+26,9.959990882969793e+27,6.88543486057055e+27
7.665861253,6.2616380349411e+26,9.965085573326053e+27,6.857706024023867e+27
7.670637764,6.226583404671187e+26,9.969920170843602e+27,6.829959970111803e+27
7.675414274,6.191537509276171e+26,9.97449614177993e+27,6.802197413730556e+27
7.680190784,6.1565011954445696e+26,9.97881493951168e+27,6.774419063013167e+27
7.684967243,6.121475303382734e+26,9.982878004595485e+27,6.746625619332868e+27
7.689743753,6.086460666872987e+26,9.98668676483652e+27,6.71881777731023e+27
7.694520264,6.051458113333298e+26,9.990242635364715e+27,6.690996224824224e+27
7.699296774,6.0164684638783746e+26,9.99354701871866e+27,6.663161643027352e+27
7.704073232,5.9814925333820835e+26,9.996601304937108e+27,6.635314706364929e+27
7.708849743,5.946531130541131e+26,9.999406871657954e+27,6.607456082598602e+27
7.713626253,5.91158505793988e+26,1.0001965084224603e+28,6.57958643283411e+27
7.718402764,5.87665511211617e+26,1.0004277295799628e+28,6.551706411553315e+27
7.723179274,5.8417420836280745e+26,1.0006344847485652e+28,6.523816666650523e+27
7.727955732,5.8068467571215615e+26,1.000816906845334e+28,6.495917839473162e+27
7.732732243,5.77196991139893e+26,1.0009751276076341e+28,6.46801056486681e+27
7.737508753,5.737112319487878e+26,1.0011092776072862e+28,6.440095471224526e+27
7.742285264,5.702274748711055e+26,1.001219486265364e+28,6.412173180540374e+27
7.747061722,5.6674579607559327e+26,1.0013058818675994e+28,6.384244308466942e+27
7.751838232,5.632662711744844e+26,1.0013685915803636e+28,6.356309464376709e+27
7.756614743,5.597889752305075e+26,1.0014077414671878e+28,6.328369251427043e+27
7.761391253,5.563139827638899e+26,1.0014234565057869e+28,6.300424266628641e+27
7.766167764,5.528413677593453e+26,1.0014158606055533e+28,6.27247510091714e+27
7.770944222,5.4937120367303546e+26,1.0013850766254714e+28,6.244522339227738e+27
7.775720732,5.459035634394985e+26,1.0013312263924058e+28,6.216566560572619e+27
7.780497243,5.4243851947853344e+26,1.0012544307197125e+28,6.188608338120965e+27
7.785273753,5.3897614370203364e+26,1.0011548094261242e+28,6.160648239281391e+27
7.790050212,5.355165075207636e+26,1.0010324813548565e+28,6.132686825786603e+27
7.794826722,5.320596818510678e+26,1.0008875643928812e+28,6.104724653780119e+27
7.799603232,5.286057371215016e+26,1.0007201754903119e+28,6.076762273904893e+27
7.804379743,5.2515474327937736e+26,1.0005304306798561e+28,6.048800231393708e+27
7.809156253,5.2170676979722074e+26,1.0003184450962777e+28,6.020839066161239e+27
7.813932712,5.1826188567913026e+26,1.0000843329958236e+28,5.992879312897607e+27
7.818709222,5.148201594670313e+26,9.99828207775576e+27,5.964921501163262e+27
7.823485732,5.1138165924681916e+26,9.99550181992696e+27,5.936966155484984e+27
7.828262243,5.07946452654387e+26,9.992503673835276e+27,5.909013795452775e+27
7.833038701,5.045146068815347e+26,9.98928874882533e+27,5.881064935817453e+27
7.837815212,5.01086188681755e+26,9.985858146410377e+27,5.853120086588791e+27
7.842591722,4.976612643758933e+26,9.982212960457719e+27,5.825179753134014e+27
7.847368232,4.942398998576722e+26,9.978354277372037e+27,5.797244436276554e+27
7.852144691,4.9082216059907005e+26,9.974283176276673e+27,5.769314632394901e+27
7.856921201,4.874081116555483e+26,9.970000729192718e+27,5.741390833521477e+27
7.861697712,4.839978176711234e+26,9.965508001215846e+27,5.713473527441413e+27
7.866474222,4.805913428832818e+26,9.960806050690852e+27,5.685563197791196e+27
7.871250732,4.771887511277384e+26,9.955895929383838e+27,5.657660324157172e+27
7.876027191,4.7379010584303586e+26,9.950778682651938e+27,5.629765382173849e+27
7.880803701,4.7039547007498074e+26,9.945455349610553e+27,5.601878843621962e+27
7.885580212,4.670049064809133e+26,9.939926963298023e+27,5.574001176526253e+27
7.89035667,4.636184773338132e+26,9.934194550837701e+27,5.546132845252873e+27
7.89513318,4.602362445262426e+26,9.928259133597472e+27,5.518274310606326e+27
7.899909691,4.5685826957413174e+26,9.92212172734672e+27,5.490426029925959e+27
7.904686201,4.534846136204052e+26,9.915783342410642e+27,5.462588457181922e+27
7.909462712,4.5011533743845215e+26,9.9092449838219e+27,5.434762043070585e+27
7.914239222,4.467505014354437e+26,9.902507651469605e+27,5.406947235109384e+27
7.91901568,4.4339016565550196e+26,9.895572340245638e+27,5.379144477731033e+27
7.923792191,4.400343897827284e+26,9.888440040188295e+27,5.351354212377023e+27
7.928568701,4.3668323314409195e+26,9.881111736623215e+27,5.323576877590319e+27
7.933345212,4.333367547121831e+26,9.873588410301496e+27,5.295812909107195e+27
7.93812167,4.299950131078369e+26,9.865871037535025e+27,5.268062739948139e+27
7.94289818,4.266580666026293e+26,9.857960590329042e+27,5.240326800507786e+27
7.947674691,4.2332597312124626e+26,9.849858036511884e+27,5.212605518643845e+27
7.952451201,4.1999879024372796e+26,9.841564339861865e+27,5.184899319765054e+27
7.957227712,4.1667657520758926e+26,9.833080460231333e+27,5.157208626918212e+27
7.96200417,4.133593849098169e+26,9.82440735366799e+27,5.129533860874334e+27
7.96678068,4.100472759087498e+26,9.815545972533563e+27,5.101875440213926e+27
7.971557191,4.067403044258467e+26,9.806497265619892e+27,5.074233781411366e+27
7.976333701,4.034385263473492e+26,9.797262178262533e+27,5.046609298918325e+27
7.981110212,4.001419972258436e+26,9.787841652451968e+27,5.019002405246149e+27
7.98588667,3.9685077228173024e+26,9.778236626942526e+27,4.991413511047123e+27
7.99066318,3.935649064046043e+26,9.76844803735913e+27,4.963843025194573e+27
7.995439691,3.902844541545538e+26,9.758476816302064e+27,4.936291354861795e+27
8.000216201,3.870094697633801e+26,9.748323893449892e+27,4.9087589055998003e+27
8.004992659,3.837400071357491e+26,9.737990195660692e+27,4.8812460814138807e+27
8.00976917,3.804761198502791e+26,9.727476647071753e+27,4.853753284838959e+27
8.01454568,3.7721786116057004e+26,9.716784169197853e+27,4.826280917013707e+27
8.019322191,3.739652839961749e+26,9.705913681028175e+27,4.798829377753379e+27
8.024098701,3.707184409635095e+26,9.69486609912182e+27,4.771399065621277e+27
8.028875159,3.674773843466949e+26,9.683642337701932e+27,4.7439903779988003e+27
8.03365167,3.642421661083284e+26,9.672243308748384e+27,4.7166037111540156e+27
8.03842818,3.610128378901803e+26,9.66066992208892e+27,4.689239460308687e+27
8.043204691,3.577894510138074e+26,9.648923085488687e+27,4.6618980197036765e+27
8.047981149,3.545720564810748e+26,9.637003704738136e+27,4.6345797826626484e+27
8.052757659,3.5136070497457784e+26,9.62491268373925e+27,4.6072851416540086e+27
8.05753417,3.4815544685795956e+26,9.612650924590039e+27,4.5800144883509876e+27
8.06231068,3.449563321761168e+26,9.600219327667255e+27,4.552768213689765e+27
8.067087191,3.4176341065528914e+26,9.587618791707369e+27,4.5255467079255486e+27
8.071863649,3.385767317030278e+26,9.574850213885787e+27,4.498350360686539e+27
8.076640159,3.353963444080409e+26,9.561914489894369e+27,4.471179561025703e+27
8.08141667,3.322222975399166e+26,9.548812514017378e+27,4.4440346974702826e+27
8.08619318,3.290546395487233e+26,9.53554517920603e+27,4.4169161580689944e+27
8.090969691,3.2589341856448845e+26,9.522113377151792e+27,4.389824330436895e+27
8.095746149,3.2273868239655765e+26,9.508517998358561e+27,4.3627596017978646e+27
8.100522659,3.1959047853283534e+26,9.494759932213877e+27,4.335722359024684e+27
8.10529917,3.1644885413891075e+26,9.480840067059248e+27,4.308712988676654e+27
8.11007568,3.1331385605707545e+26,9.466759290259705e+27,4.281731877034719e+27
8.114852191,3.101855308052384e+26,9.452518488272667e+27,4.2547794101340595e+27
8.119628649,3.0706392457574183e+26,9.438118546716199e+27,4.227855973794168e+27
8.124405159,3.0394908323408216e+26,9.423560350436681e+27,4.200961953646393e+27
8.12918167,3.008410523175417e+26,9.408844783575963e+27,4.1740977351589275e+27
8.13395818,2.9773987703373787e+26,9.393972729638003e+27,4.147263703659233e+27
8.138734639,2.946456022590959e+26,9.378945071555011e+27,4.120460244353881e+27
8.143511149,2.915582725372502e+26,9.36376269175316e+27,4.093687742345816e+27
8.148287659,2.8847793207737833e+26,9.348426472217831e+27,4.066946582649077e+27
8.15306417,2.8540462475247116e+26,9.332937294558392e+27,4.0402371502010484e+27
8.15784068,2.823383940975462e+26,9.317296040072527e+27,4.0135598298723087e+27
8.162617139,2.7927928330781105e+26,9.301503589810155e+27,3.986915006474133e+27
8.167393649,2.7622733523678726e+26,9.285560824636844e+27,3.9603030647636967e+27
8.172170159,2.731825923944055e+26,9.269468625296672e+27,3.93372438944706e+27
8.17694667,2.7014509694508294e+26,9.253227872474414e+27,3.907179365180001e+27
8.18172318,2.6711489070579242e+26,9.236839446856953e+27,3.880668376566739e+27
8.186499639,2.640920151441312e+26,9.220304229193848e+27,3.854191808156576e+27
8.191276149,2.6107651137639706e+26,9.203623100356992e+27,3.8277500444384666e+27
8.196052659,2.5806842016567877e+26,9.186796941399329e+27,3.801343469833567e+27
8.20082917,2.5506778191996432e+26,9.169826633612562e+27,3.774972468685793e+27
8.20560568,2.52074636690271e+26,9.152713058583779e+27,3.748637425250477e+27
8.210382139,2.4908902416880113e+26,9.135457098250941e+27,3.722338723681205e+27
8.215158649,2.461109836871283e+26,9.118059634957255e+27,3.6960767480148935e+27
8.219935159,2.4314055421441873e+26,9.100521551504426e+27,3.669851882155135e+27
8.22471167,2.4017777435569283e+26,9.082843731204804e+27,3.643664509853883e+27
8.22948818,2.372226823501313e+26,9.065027057932434e+27,3.617515014691544e+27
8.234264639,2.342753160694289e+26,9.047072416172952e+27,3.591403780055614e+27
8.239041149,2.313357130161983e+26,9.028980691072352e+27,3.5653311891179703e+27
8.243817659,2.284039103224252e+26,9.010752768484652e+27,3.5392976248109146e+27
8.24859417,2.254799447479746e+26,8.99238953501847e+27,3.513303469802031e+27
8.25337068,2.2256385267914894e+26,8.973891878082577e+27,3.4873491064678973e+27
8.258147139,2.1965567012729707e+26,8.955260685930512e+27,3.4614349168667176e+27
8.262923649,2.1675543272747513e+26,8.936496847704274e+27,3.435561282709971e+27
8.267700159,2.1386317573716036e+26,8.917601253477076e+27,3.409728585333192e+27
8.27247667,2.1097893403501965e+26,8.898574794295155e+27,3.3839372056659793e+27
8.27725318,2.081027421197353e+26,8.879418362218639e+27,3.3581875242013115e+27
8.282029639,2.0523463410889032e+26,8.86013285036149e+27,3.332479920964237e+27
8.286806149,2.0237464373791736e+26,8.840719152930513e+27,3.3068147754799964e+27
8.291582659,1.995228043591157e+26,8.821178165263455e+27,3.281192466741615e+27
8.29635917,1.9667914894074257e+26,8.801510783866198e+27,3.2556133731770214e+27
8.30113568,1.938437100661851e+26,8.781717906449052e+27,3.2300778726157544e+27
8.305912139,1.9101651993321777e+26,8.761800431962104e+27,3.2045863422553187e+27
8.310688649,1.881976103533483e+26,8.741759260629649e+27,3.179139158627245e+27
8.315465159,1.8538701275125532e+26,8.721595293983736e+27,3.153736697562872e+27
8.32024167,1.8258475816432034e+26,8.701309434896958e+27,3.128379334158864e+27
8.32501818,1.797908772422557e+26,8.680902587614497e+27,3.1030674427424504e+27
8.329794639,1.7700540024683116e+26,8.660375657785431e+27,3.0778013968364137e+27
8.334571149,1.742283570517012e+26,8.639729552493308e+27,3.052581569123853e+27
8.339347659,1.7145977714233422e+26,8.618965180285969e+27,3.0274083314127397e+27
8.34412417,1.686996896160429e+26,8.598083451204612e+27,3.002282054600302e+27
8.34890068,1.65948123182116e+26,8.577085276812062e+27,2.977203108637287e+27
8.353677139,1.6320510616205054e+26,8.555971570220172e+27,2.9521718624921323e+27
8.358453649,1.6047066648988364e+26,8.53474324611628e+27,2.9271886841150504e+27
8.363230159,1.5774483171262307e+26,8.513401220788676e+27,2.9022539404020057e+27
8.36800667,1.5502762899077602e+26,8.49194641215106e+27,2.877367997158599e+27
8.37278318,1.5231908509897495e+26,8.470379739765908e+27,2.852531219063903e+27
8.377559639,1.4961922642669891e+26,8.448702124866638e+27,2.8277439696342825e+27
8.382336149,1.469280789790873e+26,8.426914490378551e+27,2.803006611187208e+27
8.387112659,1.4424566837784394e+26,8.405017760938484e+27,2.778319504805069e+27
8.39188917,1.4157201986222965e+26,8.383012862913202e+27,2.7536830102990085e+27
8.39666568,1.3890715829014171e+26,8.360900724416557e+27,2.729097486172801e+27
8.401442139,1.362511081392799e+26,8.338682275325482e+27,2.7045632895867995e+27
8.406218649,1.3360389350839855e+26,8.316358447294856e+27,2.680080776321992e+27
8.410995159,1.309655381186442e+26,8.293930173771217e+27,2.655650300744238e+27
8.41577167,1.2833606531497887e+26,8.271398390005294e+27,2.63127221576872e+27
8.42054818,1.2571549806768755e+26,8.248764033063341e+27,2.606946872824629e+27
8.425324639,1.2310385897396867e+26,8.22602804183723e+27,2.5826746218201285e+27
8.430101149,1.2050117025960563e+26,8.203191357053355e+27,2.5584558111076243e+27
8.434877659,1.1790745378071917e+26,8.180254921280376e+27,2.534290787449396e+27
8.43965417,1.1532273102560034e+26,8.157219678935781e+27,2.5101798959836107e+27
8.44443068,1.127470231166244e+26,8.134086576291297e+27,2.4861234801907735e+27
8.449207139,1.1018035081224596e+26,8.110856561477068e+27,2.4621218818606624e+27
8.453983649,1.0762273450907684e+26,8.087530584484625e+27,2.4381754410597598e+27
8.458760159,1.0507419424404768e+26,8.064109597168661e+27,2.4142844960992173e+27
8.46353667,1.0253474969665505e+26,8.040594553247647e+27,2.3904493835033858e+27
8.46831318,1.0000442019129588e+26,8.016986408303303e+27,2.3666704379789494e+27
8.473089691,9.74832246996912e+25,7.993286119778903e+27,2.3429479923847158e+27
8.477866149,9.497118184339973e+25,7.969494646976351e+27,2.319282377702072e+27
8.482642659,9.246830989642251e+25,7.94561295105197e+27,2.295673923006125e+27
8.48741917,8.997462678789903e+25,7.921641995010866e+27,2.272122955437549e+27
8.49219568,8.749015010489478e+25,7.897582743699798e+27,2.2486298001751728e+27
8.496972139,8.501489709527973e+25,7.87343616379849e+27,2.2251947804093167e+27
8.501748649,8.254888467069682e+25,7.849203223809289e+27,2.201818217315888e+27
8.506525159,8.009212940961939e+25,7.824884894045074e+27,2.1785004300312306e+27
8.51130167,7.764464756049752e+25,7.800482146615329e+27,2.1552417356277228e+27
8.51607818,7.520645504499254e+25,7.775995955410262e+27,2.1320424490901285e+27
8.520854691,7.277756746129853e+25,7.751427296082948e+27,2.108902883292697e+27
8.525631149,7.035800008754951e+25,7.726777146029569e+27,2.0858233489769923e+27
8.530407659,6.794776788531167e+25,7.702046484367815e+27,2.0628041547304127e+27
8.53518417,6.554688550316004e+25,7.677236291913524e+27,2.0398456069653623e+27
8.53996068,6.315536728033854e+25,7.65234755115556e+27,2.0169480098990395e+27
8.544737191,6.0773227250501904e+25,7.627381246228967e+27,1.9941116655338147e+27
8.549513649,5.84004791455373e+25,7.602338362886424e+27,1.9713368736381369e+27
8.554290159,5.603713639946368e+25,7.577219888468061e+27,1.9486239317279184e+27
8.55906667,5.368321215240667e+25,7.552026811869701e+27,1.925973135048347e+27
8.56384318,5.133871925464651e+25,7.526760123509613e+27,1.9033847765560694e+27
8.568619691,4.900367027073654e+25,7.501420815293819e+27,1.880859146901698e+27
8.573396201,4.667807748368984e+25,7.476009880579943e+27,1.85839653441261e+27
8.578172659,4.436195289923165e+25,7.450528314139546e+27,1.835997225076004e+27
8.58294917,4.205530825011469e+25,7.424977112118895e+27,1.8136615025221899e+27
8.58772568,3.975815500049453e+25,7.399357271998069e+27,1.7913896480080892e+27
8.592502191,3.7470504350361955e+25,7.373669792548276e+27,1.7691819404009296e+27
8.597278701,3.5192367240028504e+25,7.347915673787206e+27,1.747038656162115e+27
8.602055159,3.292375435466132e+25,7.322095916932285e+27,1.7249600693312535e+27
8.60683167,3.0664676128863723e+25,7.296211524351687e+27,1.7029464515103212e+27
8.61160818,2.841514275129767e+25,7.270263499512932e+27,1.680998071847936e+27
8.616384691,2.617516416934446e+25,7.244252846928884e+27,1.659115197023723e+27
8.621161201,2.394475009379991e+25,7.218180572100974e+27,1.6372980912327295e+27
8.625937712,2.1723910003599737e+25,7.192047681459509e+27,1.6155470161698634e+27
8.63071417,1.951265315057096e+25,7.16585518230085e+27,1.59386223101433e+27
8.63549068,1.7310988564204765e+25,7.139604082721241e+27,1.5722439924140583e+27
8.640267191,1.5118925056446037e+25,7.113295391547044e+27,1.5506925544701023e+27
8.645043701,1.2936471226494746e+25,7.086930118261225e+27,1.5292081687209894e+27
8.649820212,1.076363546561418e+25,7.060509272925971e+27,1.5077910841270044e+27
8.65459667,8.600425961941095e+24,7.03403386610138e+27,1.4864415470543916e+27
8.65937318,6.44685070529283e+24,7.007504908760256e+27,1.465159801259465e+27
8.664149691,4.3029174919662247e+24,6.980923412199116e+27,1.443946087872608e+27
8.668926201,2.168633929523174e+24,6.954290387945559e+27,1.422800645382165e+27
8.673702712,4.400744155749452e+22,6.927606847662152e+27,1.4017237096182512e+27
8.678479222,-2.0709547275622762e+24,6.900873803046995e+27,1.380715513736494e+27
8.68325568,-4.1762455079795914e+24,6.874092265731149e+27,1.3597762882017347e+27
8.688032191,-6.271857999671609e+24,6.847263247173031e+27,1.3389062607717046e+27
8.692808701,-8.35778546781146e+24,6.8203877585499e+27,1.3181056564806868e+27
8.697585212,-1.0434021338176635e+25,6.793466810646473e+27,1.2973746976231745e+27
8.702361722,-1.2500559192609127e+25,6.766501413740696e+27,1.2767136037375263e+27
8.70713818,-1.4557392764533004e+25,6.739492577486769e+27,1.2561225915896044e+27
8.711914691,-1.6604515934535212e+25,6.712441310795548e+27,1.2356018751563902e+27
8.716691201,-1.864192272601536e+25,6.685348621712426e+27,1.2151516656095833e+27
8.721467712,-2.0669607300910145e+25,6.658215517292745e+27,1.194772171299187e+27
8.726244222,-2.2687563955498053e+25,6.631043003474888e+27,1.1744635977370856e+27
8.731020732,-2.4695787116289907e+25,6.60383208495125e+27,1.1542261475806191e+27
8.735797191,-2.6694271336010916e+25,6.576583765037299e+27,1.1340600206161542e+27
8.740573701,-2.8683011289679847e+25,6.549299045539008e+27,1.1139654137426488e+27
8.745350212,-3.06620017707909e+25,6.521978926618773e+27,1.0939425209552111e+27
8.750126722,-3.263123768760352e+25,6.494624406659954e+27,1.0739915333286627e+27
8.754903232,-3.4590714059545395e+25,6.4672364821302e+27,1.0541126390011112e+27
8.759679691,-3.654042601373386e+25,6.439816147443802e+27,1.0343060231575397e+27
8.764456201,-3.8480368781621e+25,6.412364394823282e+27,1.0145718680134243e+27
8.769232712,-4.041053769576786e+25,6.38488221416041e+27,9.949103527983916e+26
8.774009222,-4.233092818675282e+25,6.357370592876838e+27,9.753216537399357e+26
8.778785732,-4.424153578021894e+25,6.329830515784539e+27,9.558059440472063e+26
8.783562243,-4.614235609406483e+25,6.302262964946267e+27,9.363633938948846e+26
8.788338701,-4.80333848357832e+25,6.274668919536202e+27,9.169941704071647e+26
8.793115212,-4.9914617799950926e+25,6.247049355701021e+27,8.976984376418478e+26
8.797891722,-5.178605086587405e+25,6.21940524642169e+27,8.7847635657456e+26
8.802668232,-5.364767999539107e+25,6.191737561376239e+27,8.593280850831038e+26
8.807444743,-5.549950123083743e+25,6.164047266803779e+27,8.402537779319608e+26
8.812221253,-5.734151069317425e+25,6.136335325369999e+27,8.212535867569644e+26
8.816997712,-5.917370458028358e+25,6.1086026960344e+27,8.023276600501604e+26
8.821774222,-6.0996079165431864e+25,6.080850333919545e+27,7.834761431448738e+26
8.826550732,-6.280863079590272e+25,6.05307919018258e+27,7.646991782010013e+26
8.831327243,-6.461135589180036e+25,6.025290211889227e+27,7.459969041905555e+26
8.836103753,-6.640425094502389e+25,5.997484341890426e+27,7.273694568834773e+26
8.840880264,-6.8187312518412395e+25,5.969662518701737e+27,7.088169688337396e+26
8.845656722,-6.996053724506083e+25,5.941825676385555e+27,6.903395693657714e+26
8.850433232,-7.17239218278065e+25,5.913974744436227e+27,6.719373845612275e+26
8.855209743,-7.347746303888616e+25,5.886110647668096e+27,6.536105372461317e+26
8.859986253,-7.522115771976307e+25,5.858234306106486e+27,6.353591469784215e+26
8.864762764,-7.695500278112319e+25,5.830346634881745e+27,6.171833300359136e+26
8.869539222,-7.867899520303902e+25,5.802448544126407e+27,5.990831994047178e+26
8.874315732,-8.039313203529965e+25,5.77454093887563e+27,5.81058864768115e+26
8.879092243,-8.20974103979059e+25,5.746624718970979e+27,5.63110432495919e+26
8.883868753,-8.379182748172884e+25,5.718700778967708e+27,5.4523800563432656e+26
8.888645264,-8.547638054932963e+25,5.690770008045647e+27,5.274416838962627e+26
8.893421774,-8.715106693593807e+25,5.662833289923782e+27,5.0972156365222936e+26
8.898198232,-8.88158840505873e+25,5.634891502778567e+27,4.920777379216641e+26
8.902974743,-9.047082937740218e+25,5.606945519165998e+27,4.745102963648148e+26
8.907751253,-9.21159004770385e+25,5.578996205947474e+27,4.57019325275138e+26
8.912527764,-9.375109498827018e+25,5.551044424219423e+27,4.3960490757222175e+26
8.917304274,-9.537641062972134e+25,5.523091029246684e+27,4.222671227952342e+26
8.922080784,-9.699184520173995e+25,5.49513687039965e+27,4.050060470968999e+26
8.926857243,-9.859739658840867e+25,5.467182791095149e+27,3.87821753238005e+26
8.931633753,-1.00193062759689e+26,5.439229628741045e+27,3.707143105824307e+26
8.936410264,-1.0177884177369455e+26,5.411278214684572e+27,3.5368378509271635e+26
8.941186774,-1.0335473177908964e+26,5.383329374164383e+27,3.3673023932615655e+26
8.945963284,-1.0492073101761005e+26,5.355383926266285e+27,3.198537324314403e+26
8.950739795,-1.064768378267021e+26,5.327442683882647e+27,3.0305432014584163e+26
8.955516253,-1.080230506422756e+26,5.299506453675487e+27,2.863320547929711e+26
8.960292764,-1.0955936800156598e+26,5.271576036043225e+27,2.6968698528109628e+26
8.965069274,-1.1108578854610065e+26,5.243652225091103e+27,2.531191571020399e+26
8.969845784,-1.1260231102476442e+26,5.215735808605304e+27,2.366286123306658e+26
8.974622295,-1.1410893429695926e+26,5.187827568030734e+27,2.2021538962496144e+26
8.979398805,-1.1560565733585415e+26,5.159928278452483e+27,2.0387952422672445e+26
8.984175264,-1.1709247923172099e+26,5.132038708580956e+27,1.876210479628585e+26
8.988951774,-1.1856939919535316e+26,5.104159620740575e+27,1.7143998924728363e+26
8.993728284,-1.2003641656156262e+26,5.076291770861956e+27,1.5533637308346534e+26
8.998504795,-1.2149353079275235e+26,5.048435908477406e+27,1.393102210675664e+26
9.003281305,-1.2294074148256074e+26,5.020592776719584e+27,1.2336155139222658e+26
9.008057816,-1.2437804835957389e+26,4.992763112323141e+27,1.0749037885097299e+26
9.012834274,-1.258054512911019e+26,4.964947645629192e+27,9.169671484326495e+25
9.017610784,-1.2722295028701428e+26,4.9371471005924944e+27,7.598056738017814e+25
9.022387295,-1.2863054550363023e+26,4.909362194791223e+27,6.03419410907319e+25
9.027163805,-1.3002823724766017e+26,4.8815936394392455e+27,4.478083722886439e+25
9.031940316,-1.3141602598019531e+26,4.853842139400784e+27,2.9297253681059823e+25
9.036716826,-1.32793912320742e+26,4.8261083932073405e+27,1.38911849746312e+25
9.041493337,-1.3416189705129682e+26,4.7983930930767484e+27,-1.4373777133378203e+24
9.046269795,-1.3551998112045848e+26,4.770696924934257e+27,-1.6688446546388465e+25
9.051046305,-1.3686816564757174e+26,4.743020568435586e+27,-3.186203701841606e+25
9.055822816,-1.3820645192689798e+26,4.7153646969918624e+27,-4.695816794272926e+25
9.060599326,-1.3953484143180726e+26,4.687729977796329e+27,-6.1976861440435865e+25
9.065375837,-1.4085333581898665e+26,4.660117071852745e+27,-7.691814292815192e+25
9.070152347,-1.4216193693265965e+26,4.632526634005351e+27,-9.178204110503066e+25
9.074928805,-1.4346064680881078e+26,4.6049593129702873e+27,-1.0656858793910802e+26
9.079705316,-1.447494676794107e+26,4.577415751368379e+27,-1.2127781865296096e+26
9.084481826,-1.4602840197663768e+26,4.549896585759231e+27,-1.3590977170867486e+26
9.089258337,-1.4729745233709107e+26,4.522402446676601e+27,-1.5046448879211557e+26
9.094034847,-1.4855662160599261e+26,4.494933958665009e+27,-1.6494201479650282e+26
9.098811357,-1.4980591284137196e+26,4.467491740317543e+27,-1.7934239780528083e+26
9.103587816,-1.5104532931823335e+26,4.4400764043148126e+27,-1.9366568907428227e+26
9.108364326,-1.522748745327009e+26,4.412688557465001e+27,-2.079119430131809e+26
9.113140837,-1.5349455220614018e+26,4.3853288007449793e+27,-2.2208121716622806e+26
9.117917347,-1.547043662892556e+26,4.3579977293424654e+27,-2.3617357219226946e+26
9.122693857,-1.5590432096616294e+26,4.3306959326991954e+27,-2.5018907184403684e+26
9.127470368,-1.5709442065843552e+26,4.3034239945550844e+27,-2.6412778294670837e+26
9.132246878,-1.582746700291229e+26,4.276182492993324e+27,-2.7798977537573097e+26
9.137023337,-1.5944507398673937e+26,4.2489720004863597e+27,-2.91775122033896e+26
9.141799847,-1.6060563768921933e+26,4.2217930839427034e+27,-3.0548389882766053e+26
9.146576357,-1.6175636654783675e+26,4.194646304754573e+27,-3.1911618464270754e+26
9.151352868,-1.628972662310834e+26,4.167532218846338e+27,-3.3267206131873755e+26
9.156129378,-1.6402834266850018e+26,4.140451376723696e+27,-3.461516136234824e+26
9.160905837,-1.65149602054456e+26,4.1134043235235404e+27,-3.595549292259338e+26
9.165682347,-1.6626105085186982e+26,4.086391599064431e+27,-3.728820986687809e+26
9.170458857,-1.6736269579587127e+26,4.0594137378976027e+27,-3.861332153400509e+26
9.175235368,-1.6845454389739647e+26,4.0324712693584227e+27,-3.9930837544394696e+26
9.180011878,-1.6953660244671466e+26,4.005564717618213e+27,-4.12407677970878e+26
9.184788389,-1.7060887901688152e+26,3.97869460173634e+27,-4.254312246666781e+26
9.189564899,-1.7167138146711626e+26,3.951861435712504e+27,-4.3837912000101516e+26
9.194341409,-1.7272411794610022e+26,3.925065728539111e+27,-4.5125147113499455e+26
9.199117868,-1.737670968951951e+26,3.89830798425363e+27,-4.6404838788796076e+26
9.203894378,-1.7480032705157937e+26,3.871588701990821e+27,-4.767699827035034e+26
9.208670889,-1.758238174513018e+26,3.8449083760347074e+27,-4.8941637061467746e+26
9.213447399,-1.768375774322513e+26,3.818267495870203e+27,-5.0198766920844936e+26
9.218223909,-1.778416166370415e+26,3.7916665462342896e+27,-5.144839985893802e+26
9.22300042,-1.7883594501580955e+26,3.7651060071666446e+27,-5.269054813425547e+26
9.227776878,-1.7982057282892828e+26,3.738586354059645e+27,-5.392522424957644e+26
9.232553389,-1.807955106496319e+26,3.7121080577076775e+27,-5.515244094809506e+26
9.237329899,-1.8176076936655398e+26,3.6856715843557184e+27,-5.637221120949167e+26
9.242106409,-1.8271636018617646e+26,3.6592773957471415e+27,-5.758454824593148e+26
9.24688292,-1.8366229463518884e+26,3.63292594917072e+27,-5.8789465497990914e+26
9.25165943,-1.8459858456275716e+26,3.6066176975067954e+27,-5.998697663051219e+26
9.256435889,-1.855252421427033e+26,3.5803530892726026e+27,-6.1177095528386586e+26
9.261212399,-1.8644227987559407e+26,3.5541325686667487e+27,-6.2359836292267e+26
9.265988909,-1.873497105907389e+26,3.5279565756128696e+27,-6.353521323421052e+26
9.27076542,-1.8824754744809602e+26,3.501825545802484e+27,-6.470324087325192e+26
9.27554193,-1.8913580394008375e+26,3.475739910737035e+27,-6.58639339309094e+26
9.280318441,-1.9001449389329255e+26,3.4497000977690813e+27,-6.701730732662359e+26
9.285094951,-1.908836314700949e+26,3.4237065301426364e+27,-6.816337617313111e+26
9.289871409,-1.9174323117015087e+26,3.397759627032659e+27,-6.930215577177388e+26
9.29464792,-1.9259330783180582e+26,3.371859803583707e+27,-7.043366160774546e+26
9.29942443,-1.9343387663337826e+26,3.346007470947757e+27,-7.155790934527619e+26
9.304200941,-1.94264953094336e+26,3.320203036321208e+27,-7.26749148227585e+26
9.308977451,-1.9508655307635937e+26,3.294446902981093e+27,-7.378469404781428e+26
9.313753962,-1.9589869278429157e+26,3.268739470320515e+27,-7.48872631923063e+26
9.318530472,-1.9670138876697858e+26,3.2430811338833155e+27,-7.598263858729527e+26
9.32330693,-1.9749465791800177e+26,3.217472285397956e+27,-7.707083671794364e+26
9.328083441,-1.982785174763057e+26,3.191913312810613e+27,-7.815187421836723e+26
9.332859951,-1.9905298502672236e+26,3.1664046003175124e+27,-7.92257678664366e+26
9.337636462,-1.9981807850039273e+26,3.140946528396525e+27,-8.029253457853036e+26
9.342412972,-2.0057381617508713e+26,3.115539473838016e+27,-8.135219140424183e+26
9.347189482,-2.0132021667542395e+26,3.090183809774964e+27,-8.240475552104095e+26
9.351965993,-2.020572989729876e+26,3.064879905712365e+27,-8.345024422889348e+26
9.356742451,-2.0278508238634634e+26,3.0396281275559115e+27,-8.448867494484096e+26
9.361518962,-2.0350358658097072e+26,3.0144288376399357e+27,-8.552006519754547e+26
9.366295472,-2.04212831569054e+26,2.9892823947546224e+27,-8.654443262180399e+26
9.371071982,-2.0491283770923376e+26,2.9641891541725063e+27,-8.756179495303691e+26
9.375848493,-2.0560362570621305e+26,2.9391494676743063e+27,-8.85721700217556e+26
9.380625003,-2.062852166102808e+26,2.9141636835741307e+27,-8.957557574801385e+26
9.385401514,-2.0695763181673238e+26,2.8892321467440885e+27,-9.057203013584927e+26
9.390177972,-2.0762089306519e+26,2.864355198638338e+27,-9.156155126772002e+26
9.394954482,-2.0827502243882134e+26,2.839533177316582e+27,-9.254415729894286e+26
9.399730993,-2.0892004236345386e+26,2.814766417467032e+27,-9.351986645213731e+26
9.404507503,-2.0955597560658302e+26,2.790055250428855e+27,-9.44886970116808e+26
9.409284014,-2.1018284527627143e+26,2.7654000042140853e+27,-9.545066731818076e+26
9.414060524,-2.1080067481993494e+26,2.7408010035290063e+27,-9.640579576296909e+26
9.418836982,-2.114094880230109e+26,2.716258569795013e+27,-9.735410078262475e+26
9.423613493,-2.1200930900750187e+26,2.691773021168994e+27,-9.829560085353049e+26
9.428390003,-2.1260016223038866e+26,2.6673446725632566e+27,-9.923031448646955e+26
9.433166514,-2.1318207248190752e+26,2.642973835665036e+27,-1.0015826022126912e+27
9.437943024,-2.1375506488368663e+26,2.618660818955614e+27,-1.010794566214964e+27
9.442719534,-2.1431916488673793e+26,2.594405927729088e+27,-1.0199392226921278e+27
9.447496045,-2.1487439826929982e+26,2.570209464110811e+27,-1.0290167575979114e+27
9.452272503,-2.1542079113452656e+26,2.546071727075526e+27,-1.0380273569680076e+27
9.457049014,-2.1595836990801794e+26,2.52199301246522e+27,-1.0469712068696433e+27
9.461825524,-2.1648716133518348e+26,2.49797361300673e+27,-1.055848493351921e+27
9.466602034,-2.17007192478437e+26,2.4740138183291107e+27,-1.0646594023969818e+27
9.471378545,-2.1751849071421672e+26,2.450113914980771e+27,-1.0734041198720361e+27
9.476155055,-2.1802108372982494e+26,2.426274186446408e+27,-1.0820828314823086e+27
9.480931566,-2.18514999520085e+26,2.4024949131637347e+27,-1.090695722724948e+27
9.485708024,-2.1900026638381372e+26,2.3787763725399677e+27,-1.0992429788439494e+27
9.490484534,-2.1947691292010683e+26,2.3551188389680592e+27,-1.1077247847861405e+27
9.495261045,-2.1994496802443665e+26,2.3315225838426368e+27,-1.1161413251582813e+27
9.500037555,-2.2040446088456393e+26,2.3079878755756214e+27,-1.1244927841853229e+27
9.504814066,-2.2085542097626538e+26,2.2845149796115017e+27,-1.1327793456698687e+27
9.509590576,-2.2129787805887818e+26,2.261104158442261e+27,-1.1410011929528724e+27
9.514367087,-2.217318621706642e+26,2.2377556716219718e+27,-1.1491585088756058e+27
9.519143597,-2.221574036239943e+26,2.214469775781077e+27,-1.1572514757429265e+27
9.523920055,-2.2257453300035347e+26,2.1912467246403688e+27,-1.1652802752878689e+27
9.528696566,-2.2298328114516763e+26,2.1680867690246614e+27,-1.1732450886375816e+27
9.533473076,-2.2338367916245748e+26,2.1449901568761603e+27,-1.1811460962806234e+27
9.538249587,-2.237757584093246e+26,2.1219571332675257e+27,-1.1889834780356319e+27
9.543026097,-2.241595504902774e+26,2.098987940414649e+27,-1.1967574130213777e+27
9.547802607,-2.245350872514025e+26,2.0760828176891478e+27,-1.2044680796282128e+27
9.552579118,-2.249024007743879e+26,2.053242001630575e+27,-1.2121156554909159e+27
9.557355576,-2.252615233704061e+26,2.0304657259583415e+27,-1.2197003174629295e+27
9.562132087,-2.2561248757386657e+26,2.0077542215833582e+27,-1.227222241591973e+27
9.566908597,-2.2595532613604804e+26,1.985107716619398e+27,-1.2346816030970121e+27
9.571685107,-2.2629007201862165e+26,1.962526436394173e+27,-1.2420785763465667e+27
9.576461618,-2.2661675838707554e+26,1.9400106034600954e+27,-1.2494133348383315e+27
9.581238128,-2.2693541860405073e+26,1.9175604376047062e+27,-1.2566860511800781e+27
9.586014639,-2.2724608622259673e+26,1.8951761558607595e+27,-1.2638968970718197e+27
9.590791149,-2.275487949793551e+26,1.8728579725159467e+27,-1.2710460432892073e+27
9.595567607,-2.2784357878767868e+26,1.8506060991222337e+27,-1.278133659668133e+27
9.600344118,-2.2813047173069568e+26,1.8284207445047885e+27,-1.285159915090511e+27
9.605120628,-2.2840950805432823e+26,1.8063021147704632e+27,-1.292124977471217e+27
9.609897139,-2.286807221602748e+26,1.7842504133158094e+27,-1.2990290137461744e+27
9.614673649,-2.2894414859896512e+26,1.762265840834603e+27,-1.3058721898615707e+27
9.619450159,-2.2919982206249653e+26,1.740348595324862e+27,-1.312654670764183e+27
9.62422667,-2.294477773775601e+26,1.718498872095337e+27,-1.3193766203928005e+27
9.629003128,-2.2968804949836494e+26,1.6967168637714709e+27,-1.3260382016707337e+27
9.633779639,-2.2992067349957003e+26,1.675002760300829e+27,-1.332639576499403e+27
9.638556149,-2.301456845692311e+26,1.6533567489580128e+27,-1.339180905752984e+27
9.643332659,-2.3036311800177035e+26,1.631779014349094e+27,-1.3456623492740895e+27
9.64810917,-2.3057300919097753e+26,1.6102697384155876e+27,-1.3520840658704773e+27
9.65288568,-2.3077539362304837e+26,1.5888291004380015e+27,-1.358446213312753e+27
9.657662191,-2.3097030686966644e+26,1.5674572770389896e+27,-1.3647489483330624e+27
9.662438701,-2.3115778458113344e+26,1.5461544421861338e+27,-1.3709924266247564e+27
9.667215159,-2.3133786247955356e+26,1.5249207671943783e+27,-1.3771768028430142e+27
9.67199167,-2.31510576352077e+26,1.5037564207281271e+27,-1.3833022306064174e+27
9.67676818,-2.316759620442075e+26,1.4826615688030325e+27,-1.3893688624994744e+27
9.681544691,-2.3183405545318005e+26,1.4616363747874832e+27,-1.3953768500760906e+27
9.686321201,-2.3198489252141347e+26,1.4406809994037986e+27,-1.401326343863973e+27
9.691097712,-2.321285092300423e+26,1.4197956007291437e+27,-1.407217493369952e+27
9.695874222,-2.3226494159253394e+26,1.3989803341961798e+27,-1.4130504470862062e+27
9.70065068,-2.3239422564839736e+26,1.3782353525934847e+27,-1.4188253524973664e+27
9.705427191,-2.325163974569908e+26,1.3575608060657793e+27,-1.4245423560884793e+27
9.710203701,-2.3263149309143616e+26,1.3369568421139952e+27,-1.4302016033538328e+27
9.714980212,-2.3273954863265034e+26,1.3164236055952183e+27,-1.4358032388066383e+27
9.719756722,-2.3284060016350076e+26,1.2959612387225343e+27,-1.4413474059895572e+27
9.724533232,-2.329346837630915e+26,1.275569881064798e+27,-1.446834247486061e+27
9.729309743,-2.3302183550118517e+26,1.2552496695463508e+27,-1.4522639049326162e+27
9.734086253,-2.3310209143276313e+26,1.2350007384467192e+27,-1.4576365190316767e+27
9.738862764,-2.3317548759272604e+26,1.2148232194003215e+27,-1.4629522295654814e+27
9.743639222,-2.332420599907353e+26,1.1947172413962226e+27,-1.4682111754106593e+27
9.748415732,-2.3330184460619707e+26,1.1746829307779666e+27,-1.4734134945536325e+27
9.753192243,-2.3335487738339052e+26,1.1547204112435098e+27,-1.478559324106804e+27
9.757968753,-2.3340119422674418e+26,1.1348298038452706e+27,-1.4836488003255183e+27
9.762745264,-2.334408309962619e+26,1.1150112269902926e+27,-1.488682058625797e+27
9.767521774,-2.3347382350310086e+26,1.0952647964405291e+27,-1.493659233602836e+27
9.772298284,-2.3350020750530695e+26,1.0755906253132437e+27,-1.49858045905026e+27
9.777074795,-2.335200187037129e+26,1.055988824081523e+27,-1.5034458679801063e+27
9.781851253,-2.335332927380044e+26,1.0364595005748947e+27,-1.508255592643523e+27
9.786627764,-2.3354006518295596e+26,1.0170027599800352e+27,-1.5130097645521412e+27
9.791404274,-2.335403715448407e+26,9.976187048415594e+26,-1.5177085145000974e+27
9.796180784,-2.335342472580132e+26,9.783074350628928e+26,-1.5223519725866783e+27
9.800957295,-2.335217276816668e+26,9.590690479072274e+26,-1.5269402682395604e+27
9.805733805,-2.3350284809676456e+26,9.399036379985692e+26,-1.5314735302386208e+27
9.810510316,-2.3347764370314296e+26,9.208112973228801e+26,-1.5359518867403026e+27
9.815286826,-2.3344614961678444e+26,9.017921152293084e+26,-1.540375465302508e+27
9.820063284,-2.3340840086725426e+26,8.828461784315017e+26,-1.5447443929099895e+27
9.824839795,-2.3336443239529583e+26,8.639735710089898e+26,-1.549058796000203e+27
9.829616305,-2.3331427905057806e+26,8.451743744086343e+26,-1.5533188004895787e+27
9.834392816,-2.332579755895893e+26,8.264486674461454e+26,-1.557524531800173e+27
9.839169326,-2.3319555667367332e+26,8.077965263076736e+26,-1.5616761148866511e+27
9.843945837,-2.3312705686720517e+26,7.89218024551468e+26,-1.565773674263566e+27
9.848722347,-2.330525106359027e+26,7.707132331095989e+26,-1.5698173340329048e+27
9.853498857,-2.3297195234527062e+26,7.522822202897407e+26,-1.5738072179118853e+27
9.858275368,-2.3288541625917404e+26,7.339250517770258e+26,-1.5777434492609732e+27
9.863051826,-2.3279293653853737e+26,7.156417906359789e+26,-1.581626151112085e+27
9.867828337,-2.3269454724016563e+26,6.974324973125442e+26,-1.5854554461969347e+27
9.872604847,-2.3259028231568597e+26,6.792972296362263e+26,-1.5892314569754817e+27
9.877381357,-2.324801756106081e+26,6.612360428223627e+26,-1.5929543056644402e+27
9.882157868,-2.3236426086350513e+26,6.432489894745519e+26,-1.5966241142658138e+27
9.886934378,-2.3224257170531515e+26,6.25336119587263e+26,-1.6002410045954127e+27
9.891710889,-2.321151416587642e+26,6.074974805486547e+26,-1.6038050983113224e+27
9.896487399,-2.3198200413791257e+26,5.897331171436244e+26,-1.6073165169422946e+27
9.901263857,-2.3184319244782532e+26,5.720430715571159e+26,-1.610775381916045e+27
9.906040368,-2.316987397843682e+26,5.544273833777047e+26,-1.614181814587427e+27
9.910816878,-2.3154867923412754e+26,5.368860896014754e+26,-1.6175359362664707e+27
9.915593389,-2.313930437744541e+26,5.194192246362112e+26,-1.620837868246281e+27
9.920369899,-2.3123186627362864e+26,5.0202682030590665e+26,-1.6240877318307748e+27
9.925146409,-2.3106517949114906e+26,4.8470890585561564e+26,-1.6272856483622558e+27
9.92992292,-2.3089301607813658e+26,4.674655079566464e+26,-1.6304317392488e+27
9.93469943,-2.3071540857785882e+26,4.502966507121189e+26,-1.6335261259914383e+27
9.939475941,-2.3053238942636732e+26,4.3320235566289865e+26,-1.636568930211108e+27
9.944252399,-2.3034399095324567e+26,4.161826417939231e+26,-1.6395602736753356e+27
9.949028909,-2.3015024538246636e+26,3.992375255409339e+26,-1.6425002783246223e+27
9.95380542,-2.2995118483335258e+26,3.8236702079762665e+26,-1.645389066298512e+27
9.95858193,-2.2974684132164166e+26,3.6557113892322913e+26,-1.6482267599613216e+27
9.963358441,-2.2953724676064625e+26,3.488498887505179e+26,-1.6510134819275094e+27
9.968134951,-2.293224329625074e+26,3.3220327659428244e+26,-1.6537493550866575e+27
9.972911462,-2.2910243163953246e+26,3.15631306260243e+26,-1.6564345026280598e+27
9.977687972,-2.2887727440561145e+26,2.9913397905443146e+26,-1.6590690480648976e+27
9.98246443,-2.286469927777059e+26,2.827112937930429e+26,-1.6616531152579914e+27
9.987240941,-2.2841161817740344e+26,2.6636324681276546e+26,-1.6641868284391236e+27
9.992017451,-2.2817118193253228e+26,2.5008983198159393e+26,-1.6666703122339395e+27
9.996793962,-2.2792571527882962e+26,2.338910407101355e+26,-1.6691036916844407e+27
10.00157047,-2.2767524936166024e+26,2.177668619634185e+26,-1.6714870922710878e+27
10.00634698,-2.2741981523778202e+26,2.0171728227321416e+26,-1.673820639934511e+27
10.01112349,-2.271594438771574e+26,1.8574228575088234e+26,-1.6761044610968344e+27
10.0159,-2.2689416616480962e+26,1.6984185410075364e+26,-1.6783386826826038e+27
10.02067651,-2.2662401290272295e+26,1.5401596663405844e+26,-1.6805234321393127e+27
10.02545297,-2.263490148117847e+26,1.3826460028341373e+26,-1.682658837457523e+27
10.03022948,-2.260692025337707e+26,1.2258772961787917e+26,-1.684745027190575e+27
10.03500599,-2.257846066333766e+26,1.0698532685859378e+26,-1.68678213047388e+27
10.0397825,-2.2549525760029755e+26,9.14573618950051e+25,-1.6887702770437975e+27
10.04455901,-2.252011858513606e+26,7.600380230170159e+25,-1.6907095972561107e+27
10.04933552,-2.2490242173271174e+26,6.062461335585831e+25,-1.692600222104095e+27
10.05411203,-2.245989955220595e+26,4.531975805530451e+25,-1.6944422832361985e+27
10.05888854,-2.2429093743097487e+26,3.008919713722139e+25,-1.6962359129733328e+27
10.063665,-2.239782776072473e+26,1.493288909747762e+25,-1.6979812443257658e+27
10.06844151,-2.2366104613729636e+26,-1.492097893907558e+23,-1.6996784110096168e+27
10.07321802,-2.2333927304863898e+26,-1.5157145449549933e+25,-1.7013275474629598e+27
10.07799453,-2.230129883124096e+26,-3.009096598858204e+25,-1.7029287888615244e+27
10.08277105,-2.2268222184593203e+26,-4.495072166953787e+25,-1.704482271133986e+27
10.08754756,-2.2234700351533958e+26,-5.9736464890324165e+25,-1.705988130976833e+27
10.09232407,-2.2200736313824218e+26,-7.444825016042174e+25,-1.707446505868775e+27
10.09710058,-2.2166333048643832e+26,-8.908613407693132e+25,-1.708857534084654e+27
10.10187709,-2.213149352886699e+26,-1.0365017529994477e+26,-1.7102213547087985e+27
10.1066536,-2.2096220723341803e+26,-1.1814043452723981e+26,-1.7115381076477782e+27
10.11143006,-2.2060517597173722e+26,-1.3255697446829734e+26,-1.7128079336425077e+27
10.11620657,-2.2024387112012574e+26,-1.4689985981764142e+26,-1.7140309742796633e+27
10.12098308,-2.198783222634302e+26,-1.6116915722750243e+26,-1.7152073720023706e+27
10.12575959,-2.195085589577818e+26,-1.7536493527980543e+26,-1.7163372701201263e+27
10.1305361,-2.1913461073356207e+26,-1.894872644574866e+26,-1.7174208128179198e+27
10.13531261,-2.1875650709839283e+26,-2.035362171151392e+26,-1.7184581451645084e+27
10.14008912,-2.183742775401449e+26,-2.1751186744899098e+26,-1.71944941311979e+27
10.14486563,-2.179879515299589e+26,-2.3141429146621505e+26,-1.720394763541223e+27
10.14964214,-2.175975585252714e+26,-2.452435669535779e+26,-1.72129434418925e+27
10.15441865,-2.1720312797283914e+26,-2.5899977344543018e+26,-1.7221483037317036e+27
10.15919511,-2.1680468931175475e+26,-2.7268299219104616e+26,-1.722956791747155e+27
10.16397162,-2.1640227197644533e+26,-2.862933061213199e+26,-1.7237199587271726e+27
10.16874813,-2.1599590539964583e+26,-2.998307998148263e+26,-1.724437956077476e+27
10.17352464,-2.155856190153386e+26,-3.1329555946325686e+26,-1.7251109361179962e+27
10.17830115,-2.151714422616517e+26,-3.2668767283624215e+26,-1.725739052081861e+27
10.18307766,-2.147534045837077e+26,-3.400072292455746e+26,-1.726322458113335e+27
10.18785417,-2.143315354364163e+26,-3.5325431950884424e+26,-1.7268613092647322e+27
10.19263068,-2.139058642872053e+26,-3.664290359125035e+26,-1.7273557614923124e+27
10.19740719,-2.1347642061868654e+26,-3.795314721743782e+26,-1.7278059716511883e+27
10.2021837,-2.1304323393125285e+26,-3.92561723405643e+26,-1.7282120974892652e+27
10.20696016,-2.1260633374560234e+26,-4.0551988607227875e+26,-1.7285742976402323e+27
10.21173667,-2.1216574960518638e+26,-4.184060579560261e+26,-1.7288927316156337e+27
10.21651318,-2.1172151107857798e+26,-4.312203381148541e+26,-1.7291675597960494e+27
10.22128969,-2.1127364776175714e+26,-4.439628268429643e+26,-1.7293989434214095e+27
10.2260662,-2.1082218928030904e+26,-4.566336256303515e+26,-1.729587044580469e+27
10.23084271,-2.103671652915315e+26,-4.6923283712194184e+26,-1.7297320261994833e+27
10.23561922,-2.0990860548644798e+26,-4.817605650763326e+26,-1.7298340520301354e+27
10.24039573,-2.0944653959172007e+26,-4.9421691432415645e+26,-1.7298932866367636e+27
10.24517224,-2.089809973714541e+26,-5.066019907260911e+26,-1.7299098953829219e+27
10.24994875,-2.085120086288949e+26,-5.189159011305386e+26,-1.7298840444172987e+27
10.25472521,-2.080396032080027e+26,-5.311587533309981e+26,-1.72981590065905e+27
10.25950172,-2.0756381099490768e+26,-5.4333065602315905e+26,-1.7297056317826064e+27
10.26427823,-2.070846619192366e+26,-5.5543171876173926e+26,-1.7295534062020152e+27
10.26905474,-2.0660218595530727e+26,-5.6746205191709914e+26,-1.7293593930548753e+27
10.27383125,-2.0611641312318658e+26,-5.794217666316635e+26,-1.7291237621859255e+27
10.27860776,-2.056273734896063e+26,-5.9131097477618514e+26,-1.7288466841303362e+27
10.28338427,-2.051350971687322e+26,-6.0312978890588386e+26,-1.7285283300967574e+27
10.28816078,-2.046396143227807e+26,-6.1487832221649544e+26,-1.7281688719501638e+27
10.2929373,-2.0414095516247674e+26,-6.265566885002661e+26,-1.7277684821945466e+27
10.2977138,-2.036391499473495e+26,-6.381650021019213e+26,-1.7273273339554948e+27
10.30249026,-2.0313422898586197e+26,-6.497033778746424e+26,-1.7268456009627e+27
10.30726677,-2.026262226353716e+26,-6.611719311360832e+26,-1.7263234575324083e+27
10.31204328,-2.021151613019197e+26,-6.72570777624456e+26,-1.7257610785498337e+27
10.3168198,-2.0160107543984645e+26,-6.83900033454722e+26,-1.7251586394515587e+27
10.3215963,-2.0108399555122944e+26,-6.951598150749197e+26,-1.72451631620793e+27
10.32637282,-2.0056395218514303e+26,-7.06350239222668e+26,-1.7238342853054597e+27
10.33114933,-2.0004097593673658e+26,-7.174714228818768e+26,-1.7231127237292563e+27
10.33592584,-1.995150974461292e+26,-7.285234832397013e+26,-1.7223518089455253e+27
10.34070235,-1.9898634739711813e+26,-7.395065376437806e+26,-1.7215517188841896e+27
10.34547886,-1.9845475651569928e+26,-7.504207035597953e+26,-1.7207126319216615e+27
10.35025537,-1.9792035556840124e+26,-7.612660985293909e+26,-1.7198347268638162e+27
10.35503183,-1.9738317536043535e+26,-7.720428401285202e+26,-1.718918182929215e+27
10.35980834,-1.968432467336671e+26,-7.827510459262595e+26,-1.7179631797326214e+27
10.36458485,-1.96300600564416e+26,-7.933908334441509e+26,-1.7169698972688632e+27
10.36936136,-1.9575526776109026e+26,-8.039623201161244e+26,-1.7159385158970802e+27
10.37413787,-1.952072792616631e+26,-8.144656232490436e+26,-1.7148692163253903e+27
10.37891438,-1.9465666603099908e+26,-8.249008599839229e+26,-1.7137621795960005e+27
10.38369089,-1.9410345905803904e+26,-8.352681472578735e+26,-1.71261758707079e+27
10.3884674,-1.935476893528531e+26,-8.455676017668309e+26,-1.711435620417396e+27
10.39324391,-1.929893879435704e+26,-8.557993399291169e+26,-1.7102164615958322e+27
10.39802042,-1.9242858587319495e+26,-8.659634778498851e+26,-1.7089602928456362e+27
10.40279688,-1.9186531419631837e+26,-8.760601312865037e+26,-1.7076672966735556e+27
10.40757339,-1.9129960397573788e+26,-8.860894156149344e+26,-1.7063376558417677e+27
10.4123499,-1.9073148627898905e+26,-8.96051445797162e+26,-1.7049715533566405e+27
10.41712641,-1.9016099217480317e+26,-9.059463363497227e+26,-1.7035691724580386e+27
10.42190292,-1.8958815272949756e+26,-9.157742013133843e+26,-1.7021306966091792e+27
10.42667943,-1.8901299900330537e+26,-9.25535154224034e+26,-1.700656309487042e+27
10.43145594,-1.884355620466505e+26,-9.352293080848284e+26,-1.6991461949733448e+27
10.43623245,-1.8785587289637286e+26,-9.448567753396592e+26,-1.6976005371460967e+27
10.44100896,-1.872739625719116e+26,-9.544176678479874e+26,-1.696019520271752e+27
10.44578547,-1.86689862071453e+26,-9.639120968610922e+26,-1.694403328797987e+27
10.45056198,-1.861036023680522e+26,-9.733401729997786e+26,-1.6927521473471191e+27
10.45533844,-1.8551521440573605e+26,-9.827020062335931e+26,-1.6910661607101933e+27
10.46011495,-1.8492472909559503e+26,-9.919977058616012e+26,-1.689345553841736e+27
10.46489146,-1.8433217731186672e+26,-1.0012273804947623e+27,-1.6875905118551665e+27
10.46966797,-1.8373758988801522e+26,-1.0103911380399336e+27,-1.6858012200188648e+27
10.47444448,-1.831409976128098e+26,-1.0194890856855274e+27,-1.6839778637529016e+27
10.47922099,-1.8254243122640612e+26,-1.0285213298888377e+27,-1.682120628626413e+27
10.4839975,-1.8194192141643435e+26,-1.0374879763650555e+27,-1.6802297003555967e+27
10.48877401,-1.8133949881409653e+26,-1.0463891300779863e+27,-1.6783052648023273e+27
10.49355052,-1.8073519399027583e+26,-1.0552248952324769e+27,-1.6763475079733705e+27
10.49832703,-1.8012903745165903e+26,-1.0639953752685558e+27,-1.6743566160201768e+27
10.50310349,-1.7952105963687616e+26,-1.0727006728572928e+27,-1.6723327752392268e+27
10.50788006,-1.7891129091265828e+26,-1.081340889898379e+27,-1.6702761720729062e+27
10.51265651,-1.7829976157001445e+26,-1.0899161275194214e+27,-1.668186993110898e+27
10.51743302,-1.776865018204307e+26,-1.0984264860769366e+27,-1.6660654250920732e+27
10.52220953,-1.7707154179209413e+26,-1.1068720651590177e+27,-1.6639116549068445e+27
10.52698605,-1.7645491152614397e+26,-1.115252963589652e+27,-1.661725869599954e+27
10.53176256,-1.7583664097295235e+26,-1.12356927943466e+27,-1.6595082563736578e+27
10.53653907,-1.752167599884381e+26,-1.131821110009221e+27,-1.6572590025912704e+27
10.54131558,-1.7459529833041805e+26,-1.1400085518869672e+27,-1.654978295781029e+27
10.54609209,-1.73972285654999e+26,-1.1481317009106154e+27,-1.6526663236402292e+27
10.5508686,-1.7334775151301308e+26,-1.1561906522040985e+27,-1.6503232740395796e+27
10.55564511,-1.727217253464982e+26,-1.1641855001861557e+27,-1.6479493350277204e+27
10.56042162,-1.7209423648522528e+26,-1.1721163385853396e+27,-1.6455446948358636e+27
10.56519808,-1.714653141432735e+26,-1.1799832604563912e+27,-1.643109541882501e+27
10.56997459,-1.708349874156549e+26,-1.18778635819794e+27,-1.6406440647781365e+27
10.5747511,-1.7020328527498763e+26,-1.1955257235714828e+27,-1.6381484523299854e+27
10.57952761,-1.6957023656821875e+26,-1.2032014477215977e+27,-1.6356228935465946e+27
10.58430412,-1.6893587001339653e+26,-1.2108136211973476e+27,-1.6330675776423242e+27
10.58908063,-1.6830021419649372e+26,-1.2183623339748225e+27,-1.6304826940416334e+27
10.59385714,-1.6766329756828105e+26,-1.2258476754807763e+27,-1.6278684323831003e+27
10.59863365,-1.6702514844125166e+26,-1.2332697346173158e+27,-1.6252249825231205e+27
10.60341016,-1.663857949865966e+26,-1.2406285997875903e+27,-1.622552534539228e+27
10.60818667,-1.657452652312323e+26,-1.2479243589224387e+27,-1.6198512787329953e+27
10.61296318,-1.6510358705488217e+26,-1.2551570995079427e+27,-1.6171214056324834e+27
10.61773969,-1.64460788187216e+26,-1.2623269086138435e+27,-1.6143631059942142e+27
10.6225162,-1.6381689620505117e+26,-1.269433872922781e+27,-1.611576570804657e+27
10.62729266,-1.6317193852962102e+26,-1.276478078760316e+27,-1.608761991281223e+27
10.63206917,-1.6252594242391535e+26,-1.2834596121256916e+27,-1.605919558872774e+27
10.63684568,-1.6187893499009644e+26,-1.2903785587232882e+27,-1.6030494652596594e+27
10.64162219,-1.6123094316699576e+26,-1.2972350039947252e+27,-1.6001519023532974e+27
10.6463987,-1.605819937276956e+26,-1.3040290331515688e+27,-1.5972270622953284e+27
10.65117521,-1.599321132771998e+26,-1.3107607312086077e+27,-1.5942751374563707e+27
10.65595172,-1.592813282501983e+26,-1.3174301830176678e+27,-1.5912963204344146e+27
10.66072823,-1.5862966490893074e+26,-1.324037473301921e+27,-1.5882908040528729e+27
10.66550474,-1.5797714934115268e+26,-1.3305826866906298e+27,-1.5852587813582794e+27
10.67028125,-1.573238074582094e+26,-1.3370659077542575e+27,-1.5822004456176272e+27
10.67505776,-1.566696649932191e+26,-1.3434872210398824e+27,-1.5791159903153308e+27
10.67983427,-1.560147474993681e+26,-1.3498467111068604e+27,-1.576005609149805e+27
10.68461073,-1.553590803483209e+26,-1.3561444625626858e+27,-1.572869496029667e+27
10.68938724,-1.5470268872874752e+26,-1.3623805600990188e+27,-1.5697078450695761e+27
10.69416375,-1.5404559764497221e+26,-1.3685550885278408e+27,-1.5665208505857208e+27
10.69894026,-1.5338783191574509e+26,-1.374668132817713e+27,-1.563308707090957e+27
10.70371677,-1.5272941617313914e+26,-1.3807197781301012e+27,-1.56007160928959e+27
10.70849328,-1.5207037486157123e+26,-1.3867101098557347e+27,-1.5568097520717977e+27
10.7132698,-1.5141073223694625e+26,-1.3926392136509565e+27,-1.553523330507708e+27
10.71804631,-1.5075051236592215e+26,-1.3985071754740222e+27,-1.5502125398411518e+27
10.72282282,-1.5008973912529332e+26,-1.4043140816212914e+27,-1.5468775754831172e+27
10.72759933,-1.4942843620148843e+26,-1.4100600187632548e+27,-1.543518633004927e+27
10.73237584,-1.4876662709017801e+26,-1.4157450739803405e+27,-1.5401359081311673e+27
10.73715235,-1.4810433509598848e+26,-1.4213693347984658e+27,-1.5367295967323864e+27
10.74192886,-1.4744158333231907e+26,-1.4269328892243005e+27,-1.5332998948175765e+27
10.74670532,-1.4677839472125903e+26,-1.4324358257802075e+27,-1.5298469985264577e+27
10.75148188,-1.4611479199360338e+26,-1.4378782335388288e+27,-1.5263711041215914e+27
10.75625834,-1.4545079768896418e+26,-1.4432602021572894e+27,-1.5228724079803417e+27
10.76103485,-1.4478643415597561e+26,-1.4485818219109736e+27,-1.5193511065866877e+27
10.76581136,-1.4412172355259179e+26,-1.4538431837268325e+27,-1.515807396522898e+27
10.77058787,-1.4345668784647573e+26,-1.4590443792161813e+27,-1.5122414744610874e+27
10.77536438,-1.4279134881547805e+26,-1.464185500706951e+27,-1.508653537154657e+27
10.78014089,-1.421257280482028e+26,-1.4692666412753474e+27,-1.5050437814296173e+27
10.7849174,-1.4145984694465726e+26,-1.4742878947768727e+27,-1.5014124041757754e+27
10.78969391,-1.4079372671698219e+26,-1.4792493558766698e+27,-1.497759602337766e+27
10.79447042,-1.4012738839025898e+26,-1.48415112007915e+27,-1.4940855729059174e+27
10.79924693,-1.3946085280339035e+26,-1.4889932837568792e+27,-1.4903905129069346e+27
10.80402344,-1.3879414061005037e+26,-1.4937759441786944e+27,-1.486674619394372e+27
10.80879995,-1.3812727227970035e+26,-1.4984991995370291e+27,-1.4829380894388666e+27
10.81357646,-1.374602680986678e+26,-1.5031631489744224e+27,-1.4791811201180986e+27
10.81835292,-1.3679314817128504e+26,-1.507767892609197e+27,-1.4754039085064583e+27
10.82312943,-1.3612593242108433e+26,-1.5123135315602924e+27,-1.4716066516643857e+27
10.82790594,-1.3545864059204584e+26,-1.5168001679712418e+27,-1.4677895466273728e+27
10.83268245,-1.3479129224989515e+26,-1.521227905033283e+27,-1.4639527903946123e+27
10.83745896,-1.3412390678344587e+26,-1.52559684700761e+27,-1.4600965799172766e+27
10.84223547,-1.334565034059831e+26,-1.5299070992467845e+27,-1.456221112086435e+27
10.84701198,-1.3278910115668385e+26,-1.5341587682153185e+27,-1.452326583720608e+27
10.85178849,-1.3212171890207117e+26,-1.5383519615094496e+27,-1.448413191552966e+27
10.856565,-1.3145437533749944e+26,-1.5424867878761158e+27,-1.4444811322181675e+27
10.86134151,-1.3078708898866824e+26,-1.546563357231144e+27,-1.4405306022388483e+27
10.86611802,-1.3011987821316226e+26,-1.5505817806766612e+27,-1.4365617980117564e+27
10.87089453,-1.2945276120201475e+26,-1.5545421705177526e+27,-1.4325749157935384e+27
10.87567104,-1.2878575598129348e+26,-1.558444640278387e+27,-1.4285701516861963e+27
10.88044756,-1.2811888041370738e+26,-1.5622893047166423e+27,-1.4245477016222493e+27
10.88522401,-1.2745215220023311e+26,-1.5660762798392615e+27,-1.4205077613496282e+27
10.89000052,-1.2678558888176053e+26,-1.569805682915585e+27,-1.4164505264163396e+27
10.89477703,-1.2611920784075495e+26,-1.573477632490904e+27,-1.41237619215493e+27
10.89955354,-1.2545302630293424e+26,-1.5770922483992668e+27,-1.4082849536667733e+27
10.90433006,-1.2478706133895818e+26,-1.580649651775778e+27,-1.404177005806214e+27
10.90910657,-1.2412132986612694e+26,-1.584149965068423e+27,-1.4000525431646026e+27
10.91388308,-1.2345584865008547e+26,-1.587593312049448e+27,-1.3959117600542616e+27
10.91865959,-1.2279063430652951e+26,-1.590979817826326e+27,-1.3917548504924268e+27
10.9234361,-1.2212570330291028e+26,-1.594309608852337e+27,-1.3875820081851985e+27
10.92821261,-1.2146107196013414e+26,-1.5975828129367926e+27,-1.3833934265115418e+27
10.93298912,-1.2079675645425314e+26,-1.6007995592549327e+27,-1.3791892985073694e+27
10.93776563,-1.2013277281814214e+26,-1.6039599783575122e+27,-1.3749698168497422e+27
10.94254214,-1.1946913694315843e+26,-1.6070642021800946e+27,-1.3707351738412075e+27
10.94731865,-1.1880586458077887e+26,-1.6101123640520372e+27,-1.3664855613943096e+27
10.95209511,-1.1814297134420944e+26,-1.6131045987051638e+27,-1.362221171016299e+27
10.95687162,-1.1748047270996321e+26,-1.6160410422821015e+27,-1.3579421937940748e+27
10.96164813,-1.1681838401940263e+26,-1.6189218323442366e+27,-1.3536488203793753e+27
10.96642464,-1.161567204802426e+26,-1.621747107879266e+27,-1.3493412409742606e+27
10.97120115,-1.1549549716801128e+26,-1.6245170093083268e+27,-1.3450196453169355e+27
10.97597766,-1.1483472902746576e+26,-1.6272316784926806e+27,-1.3406842226679508e+27
10.98075417,-1.141744308739602e+26,-1.629891258739922e+27,-1.336335161796817e+27
10.98553068,-1.1351461739476462e+26,-1.6324958948096783e+27,-1.331972650969058e+27
10.99030719,-1.1285530315033215e+26,-1.6350457329187748e+27,-1.3275968779337186e+27
10.9950837,-1.1219650257551339e+26,-1.6375409207458465e+27,-1.3232080299113465e+27
10.99986021,-1.1153822998071632e+26,-1.6399816074353774e+27,-1.3188062935824575e+27
11.00463672,-1.1088049955301233e+26,-1.642367943601155e+27,-1.3143918550764942e+27
11.00941323,-1.1022332535719046e+26,-1.6447000813291565e+27,-1.3099648999612733e+27
11.01418974,-1.0956672133676281e+26,-1.646978174179878e+27,-1.3055256132329136e+27
11.01896625,-1.0891070131492274e+26,-1.649202377190126e+27,-1.3010741793062355e+27
11.02374276,-1.0825527899545859e+26,-1.651372846874266e+27,-1.296610782005626e+27
11.02851927,-1.0760046796362567e+26,-1.6534897412249278e+27,-1.2921356045563567e+27
11.03329573,-1.069462816869784e+26,-1.6555532197131648e+27,-1.2876488295763384e+27
11.03807224,-1.0629273351616355e+26,-1.6575634432880532e+27,-1.2831506390683024e+27
11.04284875,-1.0563983668567588e+26,-1.6595205743757332e+27,-1.2786412144124214e+27
11.04762526,-1.0498760431457876e+26,-1.6614247768779027e+27,-1.2741207363593602e+27
11.05240177,-1.04336049407193e+26,-1.6632762161697706e+27,-1.2695893850237424e+27
11.05717828,-1.0368518485375628e+26,-1.6650750590974938e+27,-1.2650473398780134e+27
11.0619548,-1.030350234310562e+26,-1.6668214739751173e+27,-1.2604947797466826e+27
11.06673131,-1.0238557780304008e+26,-1.668515630581022e+27,-1.25593188280093e+27
11.07150782,-1.0173686052140391e+26,-1.67015770015391e+27,-1.2513588265535562e+27
11.07628433,-1.0108888402616245e+26,-1.6717478553883437e+27,-1.246775787854258e+27
11.08106084,-1.0044166064620101e+26,-1.6732862704298678e+27,-1.2421829428852018e+27
11.08583735,-9.97952025998097e+25,-1.674773120869733e+27,-1.237580467156877e+27
11.09061386,-9.914952199520103e+25,-1.6762085837392549e+27,-1.2329685355041995e+27
11.09539037,-9.850463083101211e+25,-1.6775928375038362e+27,-1.228347322082857e+27
11.10016688,-9.786054099679337e+25,-1.6789260620566723e+27,-1.2237170003658752e+27
11.10494339,-9.721726427348589e+25,-1.680208438712174e+27,-1.2190777431403983e+27
11.1097199,-9.657481233388981e+25,-1.6814401501991482e+27,-1.2144297225046691e+27
