"Time (s)","Acceleration x (m/s^2)","Acceleration y (m/s^2)","Acceleration z (m/s^2)"
1.870245100E-2,-2.922234535E0,6.464808464E0,7.627720356E0
2.347890900E-2,-2.925225735E0,6.455237389E0,7.891529083E0
2.825542000E-2,-2.938984394E0,6.440880299E0,7.944170952E0
3.303187800E-2,-2.944966555E0,6.425925255E0,7.804789066E0
3.780833700E-2,-3.026920557E0,6.445067883E0,7.613363266E0
4.258484700E-2,-3.113660574E0,6.503093719E0,7.465008259E0
4.736130500E-2,-3.390031576E0,6.585047722E0,7.485347271E0
5.213781600E-2,-3.631706476E0,6.622735023E0,7.611568928E0
5.691427400E-2,-3.707080364E0,6.670591354E0,7.799405575E0
6.169078400E-2,-3.534797192E0,6.685546398E0,8.009375572E0
6.646724300E-2,-3.186641455E0,6.638288021E0,8.012366295E0
7.124375300E-2,-2.749353170E0,6.503692150E0,7.895118237E0
7.602021200E-2,-2.341377020E0,6.249454498E0,7.576872826E0
8.079667000E-2,-1.993221283E0,5.937191010E0,7.478767395E0
8.555984700E-2,-1.584048629E0,5.577071190E0,7.337590694E0
9.034963900E-2,-1.178465128E0,5.274379253E0,7.460222721E0
9.512614900E-2,-8.566305041E-1,5.048855782E0,7.699504852E0
9.988932600E-2,-6.843472719E-1,4.904688358E0,7.823333740E0
1.046791180E-1,-6.358926296E-1,4.808377266E0,7.909475327E0
1.094555760E-1,-6.317051649E-1,4.735994339E0,7.827520847E0
1.142320870E-1,-5.276173949E-1,4.654638290E0,7.726424217E0
1.190085450E-1,-3.762713671E-1,4.578067780E0,7.495516777E0
1.237850550E-1,-1.154536903E-1,4.612165451E0,7.373483181E0
1.285482320E-1,2.883351147E-1,4.661816597E0,7.237092018E0
1.333379720E-1,7.800601721E-1,4.773681164E0,6.845865726E0
1.381144820E-1,9.074779749E-1,4.697110653E0,6.687341213E0
1.428776590E-1,6.897311211E-1,4.523033142E0,6.745965004E0
1.476674510E-1,2.703889608E-1,4.372883320E0,7.256833076E0
1.524439090E-1,-1.633101404E-1,4.342374802E0,7.950153351E0
1.572204200E-1,-4.019941986E-1,4.442873478E0,8.657232285E0
1.619968780E-1,-3.481557071E-1,4.591826439E0,9.035896301E0
1.667733890E-1,-1.483550072E-1,4.736592293E0,9.139984131E0
1.715498470E-1,1.734796464E-1,4.776073933E0,8.821739197E0
1.763263570E-1,4.570291340E-1,4.777270317E0,8.503493309E0
1.811028160E-1,4.983053207E-1,4.748556614E0,8.234300613E0
1.858793260E-1,2.315055877E-1,4.588835716E0,8.101499557E0
1.906557840E-1,-1.220339537E-1,4.496711731E0,7.868198872E0
1.954322430E-1,-4.420739710E-1,4.370490551E0,7.534400463E0
2.002087530E-1,-6.705885530E-1,4.158127785E0,7.338787079E0
2.049852120E-1,-8.285148144E-1,3.988835335E0,7.877171993E0
2.097617220E-1,-9.966106415E-1,3.689732552E0,8.281558990E0
2.145381800E-1,-1.252044439E0,3.380460262E0,8.368897438E0
2.193146910E-1,-1.313061476E0,3.197409153E0,8.407780647E0
2.240911490E-1,-8.685946465E-1,3.096910715E0,7.883154392E0
2.288676590E-1,2.632104978E-2,3.090330362E0,7.182057381E0
2.336441180E-1,6.053841114E-1,3.154338360E0,7.006184578E0
2.384206280E-1,8.249256015E-1,2.991028309E0,7.024729252E0
2.431837530E-1,1.134796143E0,2.678166628E0,7.642675400E0
2.479735450E-1,1.643270969E0,2.308475733E0,8.230113029E0
2.527500550E-1,2.113460541E0,2.015354872E0,8.741579056E0
2.575132320E-1,2.219342947E0,2.083550215E0,8.985647202E0
2.623030240E-1,2.005783558E0,2.367099762E0,9.173483849E0
2.670794820E-1,1.194018483E0,2.769093990E0,9.690931320E0
2.718426590E-1,4.366901144E-2,3.108276606E0,9.999606133E0
2.766324510E-1,-9.254241586E-1,3.356531858E0,1.037348461E1
2.814089620E-1,-1.442872047E0,3.331407309E0,1.059721375E1
2.861721390E-1,-1.420140266E0,3.012563705E0,1.105783176E1
2.909618780E-1,-6.879364848E-1,2.691327333E0,1.154835987E1
2.957383890E-1,5.138586760E-1,2.867797852E0,1.210887909E1
3.005015660E-1,1.951945066E0,3.675973892E0,1.199522018E1
3.052913570E-1,2.495713949E0,3.677170277E0,1.139701462E1
3.100678160E-1,3.593421459E0,3.930809498E0,1.053679466E1
3.148309930E-1,3.211168051E0,3.612564087E0,1.013599682E1
3.196207840E-1,1.457827210E0,2.673381090E0,9.944570541E0
3.243972950E-1,-2.249253243E-1,2.380260229E0,1.014496994E1
3.291604720E-1,-1.954337835E0,2.915654421E0,9.995418549E0
3.339502640E-1,-3.132802963E0,3.327219963E0,9.597611427E0
3.387267220E-1,-2.557329178E0,3.223132133E0,9.619147301E0
3.435032320E-1,-1.131805062E0,2.816352367E0,9.895518303E0
3.482796910E-1,4.067798555E-1,2.468794823E0,9.964311600E0
3.530561490E-1,2.222334146E0,2.415554523E0,9.675976753E0
3.578193260E-1,4.408775806E0,2.974876642E0,8.796614647E0
3.626091180E-1,6.081358910E0,4.410570145E0,7.649255753E0
3.673856280E-1,6.707081795E0,6.156134605E0,6.704091072E0
3.721488050E-1,5.895316601E0,7.200003147E0,5.858228207E0
3.769385970E-1,5.595615864E0,6.568896294E0,4.899902344E0
3.817150550E-1,5.441876888E0,5.523830891E0,4.009174347E0
3.864782320E-1,4.267001152E0,4.451248169E0,3.540779352E0
3.912680240E-1,3.395415306E0,3.355933666E0,3.436093330E0
3.960445340E-1,3.137588739E0,2.516651154E0,3.720839262E0
4.008076590E-1,3.376870871E0,2.054238319E0,4.516452789E0
4.055974510E-1,3.686741590E0,1.750947952E0,5.177470207E0
4.103739620E-1,3.805186272E0,1.360917926E0,5.657230854E0
4.151371390E-1,3.771088600E0,9.948160052E-1,6.180062771E0
4.199269300E-1,3.276372433E0,7.806583643E-1,6.840481758E0
4.247033890E-1,2.365903378E0,7.686942816E-1,7.272386074E0
4.294665660E-1,1.960918188E0,6.281159520E-1,7.188039303E0
4.342563570E-1,1.960319996E0,2.578266263E-1,6.881757736E0
4.390328680E-1,1.447657704E0,-3.290131316E-2,6.918248653E0
4.437960450E-1,4.809573591E-1,-1.507478207E-1,7.412366390E0
4.485858370E-1,-6.227321029E-1,-1.824527234E-1,8.282156944E0
4.533622950E-1,-1.661217093E0,-3.020938635E-1,9.530612946E0
4.581254720E-1,-2.590230465E0,-5.886343718E-1,1.000618649E1
4.629152640E-1,-3.162713289E0,-1.004387259E0,1.023470020E1
4.676917740E-1,-3.717848301E0,-1.655833244E0,1.020000458E1
4.724548990E-1,-4.259822369E0,-2.350948334E0,9.853045464E0
4.772446910E-1,-3.949951887E0,-2.875574589E0,9.692726135E0
4.820212010E-1,-2.462812662E0,-2.842673302E0,9.411569595E0
4.867843780E-1,-5.282155871E-1,-2.476571321E0,8.498707771E0
4.915741700E-1,3.423531055E0,-2.104487419E0,6.765107632E0
4.963506280E-1,6.121438503E0,-1.625324726E0,5.536991596E0
5.011138050E-1,6.430112839E0,-9.397810698E-1,5.068596363E0
5.059035970E-1,6.245266914E0,-3.888336942E-2,4.061218262E0
5.106801070E-1,5.825326920E0,8.123632669E-1,3.477967739E0
5.154432840E-1,5.699703693E0,1.429113269E0,3.468396425E0
5.202330760E-1,6.236892223E0,1.864008784E0,3.724428415E0
5.250095340E-1,7.110870838E0,2.313859463E0,4.420141697E0
5.297727120E-1,9.390034676E0,2.675773859E0,4.686343193E0
5.345625030E-1,1.126062298E1,2.733201742E0,4.018745422E0
5.393389620E-1,1.145025444E1,2.590230465E0,2.266601324E0
5.441021390E-1,1.016949654E1,2.404786825E0,4.881358147E-1
5.488919300E-1,8.417949677E0,1.904088616E0,9.008977413E-1
5.536684410E-1,7.061219692E0,1.037886858E0,2.606980324E0
5.584316180E-1,6.407381058E0,-2.267199457E-1,4.036691666E0
5.632214090E-1,5.360520840E0,-1.024726272E0,5.132006168E0
5.679978680E-1,4.139583111E0,-1.462014675E0,5.959324837E0
5.727610450E-1,3.184248686E0,-1.816152334E0,6.713662148E0
5.775508370E-1,2.466402054E0,-2.116451740E0,7.422535896E0
5.823273470E-1,2.132603168E0,-2.377867460E0,8.024929047E0
5.870905240E-1,1.932802439E0,-2.600399971E0,8.615956306E0
5.918803160E-1,1.779661894E0,-2.919243574E0,9.092127800E0
5.966567740E-1,1.663609982E0,-3.184248686E0,9.395418167E0
6.014199510E-1,1.584646821E0,-3.300300598E0,9.630513191E0
6.062097430E-1,1.390828133E0,-3.430709362E0,9.781260490E0
6.109862530E-1,9.960124493E-1,-3.600599766E0,9.831509590E0
6.157493780E-1,7.339983582E-1,-3.827319860E0,9.582656860E0
6.205391700E-1,7.950153351E-1,-3.991228104E0,9.390632629E0
6.253156800E-1,1.308874011E0,-4.134199142E0,9.210572243E0
6.300788570E-1,2.145165443E0,-4.430311203E0,8.947361946E0
6.348686490E-1,3.204587698E0,-4.774877548E0,8.505288124E0
6.396451070E-1,4.515854359E0,-5.200201988E0,7.899305820E0
6.444082840E-1,5.858826160E0,-5.644668579E0,7.138986588E0
6.491980760E-1,7.063014030E0,-6.156732559E0,6.206383705E0
6.539745870E-1,8.105088234E0,-6.678966045E0,5.174479008E0
6.587377640E-1,8.995218277E0,-7.119843960E0,4.114458561E0
6.635275550E-1,9.745966911E0,-7.357929707E0,2.349751949E0
6.683040140E-1,1.039023399E1,-7.398607731E0,2.446661144E-1
6.730671910E-1,1.073360443E1,-7.262216568E0,-1.063011408E0
6.778569820E-1,1.100818062E1,-7.078567505E0,-1.112064362E0
6.826334930E-1,1.134497070E1,-6.860820770E0,-5.288137794E-1
6.873966180E-1,1.181874943E1,-6.638288021E0,1.262213886E-1
6.921864090E-1,1.230987644E1,-6.521637917E0,4.307080805E-1
6.969629200E-1,1.295773315E1,-6.501298904E0,5.371887088E-1
7.017260970E-1,1.379940796E1,-6.320641041E0,5.377869010E-1
7.065158890E-1,1.493240929E1,-6.279963017E0,6.759724021E-1
7.112923470E-1,1.620957947E1,-6.435496330E0,9.433703423E-1
7.160555240E-1,1.729711723E1,-6.741179466E0,1.220937729E0
7.208453160E-1,1.806760597E1,-7.014559746E0,1.845464468E0
7.256218260E-1,1.845763588E1,-7.298109055E0,2.438884497E0
7.303850030E-1,1.843011856E1,-7.505686283E0,2.535195589E0
7.351747950E-1,1.830569077E1,-7.597211838E0,2.367697954E0
7.399512530E-1,1.815793419E1,-7.511070251E0,2.353939295E0
7.447144300E-1,1.798325920E1,-7.429714203E0,2.527418852E0
7.495042220E-1,1.776072693E1,-7.338787079E0,2.917448997E0
7.542807320E-1,1.766860199E1,-7.237690449E0,3.416950703E0
7.590439090E-1,1.771346855E1,-7.122236729E0,3.857828379E0
7.638337010E-1,1.783011818E1,-7.025925636E0,4.299304008E0
7.686101590E-1,1.809930992E1,-6.953542709E0,4.715056896E0
7.733733370E-1,1.902114487E1,-7.143772125E0,5.247459888E0
7.781631280E-1,1.974617004E1,-6.978667259E0,5.647061348E0
7.829396390E-1,2.039462471E1,-6.610770702E0,5.998806477E0
7.877027640E-1,2.104607201E1,-6.128018856E0,6.258427620E0
7.924925550E-1,2.163530350E1,-5.475974560E0,6.423532486E0
7.972690660E-1,2.217967224E1,-4.756931305E0,6.430112839E0
8.020322430E-1,2.263311195E1,-4.037888050E0,6.253642082E0
8.068220340E-1,2.292922211E1,-3.342773199E0,6.045466423E0
8.115984930E-1,2.313560486E1,-2.706880569E0,5.847460270E0
8.163616700E-1,2.317927361E1,-2.137987137E0,5.530411243E0
8.211514620E-1,2.299382973E1,-1.656431437E0,5.069792747E0
8.259279720E-1,2.270369911E1,-1.198804140E0,4.485944271E0
8.306911490E-1,2.246501541E1,-6.981059909E-1,3.771088600E0
8.354809410E-1,2.248176575E1,-1.339980662E-1,2.921038151E0
8.402573990E-1,2.307099724E1,4.360919297E-1,1.617548108E0
8.450205760E-1,2.446302223E1,8.835497499E-1,-2.632104978E-2
8.498103680E-1,2.542433929E1,1.228714466E0,-6.125625968E-1
8.545868780E-1,2.606322289E1,1.360319614E0,-1.110269666E0
8.593500550E-1,2.653460884E1,1.265205026E0,-1.875374794E0
8.641398470E-1,2.655315208E1,1.068395257E0,-2.811566591E0
8.689163050E-1,2.578027153E1,7.004988194E-1,-3.382853031E0
8.736794820E-1,2.446661186E1,2.733799815E-1,-3.692125320E0
8.784692740E-1,2.284906387E1,-9.152546525E-2,-3.861417532E0
8.832457320E-1,2.099342918E1,-4.193421602E-1,-4.077369690E0
8.880089090E-1,1.906959915E1,-7.268198729E-1,-4.527220249E0
8.927987010E-1,1.723430443E1,-1.251446247E0,-4.656432629E0
8.975752120E-1,1.542114353E1,-1.646261930E0,-4.843671322E0
9.023383890E-1,1.397049522E1,-1.885544300E0,-4.990231514E0
9.071281800E-1,1.295175076E1,-2.094916344E0,-5.161916733E0
9.119046390E-1,1.227936745E1,-2.540579557E0,-4.856233597E0
9.166678160E-1,1.209392357E1,-3.302095175E0,-3.707080364E0
9.214576070E-1,1.185404301E1,-3.906282902E0,-1.997408748E0
9.262341180E-1,1.164108181E1,-4.562514782E0,2.117647976E-1
9.309972950E-1,1.146879864E1,-5.041079044E0,2.056032896E0
9.357870870E-1,1.120379353E1,-5.307280540E0,3.866801500E0
9.405635450E-1,1.106022453E1,-5.385645390E0,5.172684193E0
9.453267220E-1,1.095194912E1,-5.424529076E0,6.162116528E0
9.501165140E-1,1.069771194E1,-5.410770416E0,6.561717987E0
9.548930240E-1,9.943374634E0,-5.133202553E0,6.282355785E0
9.596562010E-1,8.933603287E0,-4.865804672E0,5.514857769E0
9.644459930E-1,1.039083195E1,-5.450251579E0,6.131010056E0
9.692224510E-1,1.233081341E1,-5.822335720E0,7.383652687E0
9.739856280E-1,1.035015392E1,-5.310869694E0,6.587440968E0
9.787754200E-1,1.054217815E1,-4.747360229E0,7.176074982E0
9.835519300E-1,1.422951794E1,-4.653441906E0,1.269990635E1
9.883150550E-1,1.377787304E1,-4.059423447E0,1.701655769E1
9.931048470E-1,1.100997543E1,-4.214358807E0,1.402134228E1
9.978813570E-1,8.915059090E0,-4.843671322E0,9.459425926E0
1.002644534E0,6.914061069E0,-4.932804108E0,4.191627026E0
1.007434326E0,5.860620975E0,-4.470390797E0,-5.790630579E-1
1.012210784E0,5.226522923E0,-3.288934708E0,-5.562116146E0
1.016973962E0,5.166702271E0,-1.954337835E0,-6.897311211E0
1.021763753E0,4.994419098E0,-1.189232826E0,-5.130809784E0
1.026540264E0,4.523631096E0,-9.900303483E-1,-1.860419631E0
1.031303441E0,1.814955950E0,-8.662018180E-1,-2.047657967E0
1.036093232E0,6.751348972E0,-1.962712765E0,-1.467996716E0
1.040869691E0,1.030110168E1,-3.107080221E0,2.756531715E0
1.045632868E0,1.248215961E1,-4.408775806E0,5.515456200E0
1.050422659E0,1.475414467E1,-5.639284611E0,1.079222870E1
1.055199170E0,1.325264835E1,-5.657829285E0,1.200538921E1
1.059962347E0,1.059721375E1,-4.868795872E0,1.070309544E1
1.064752139E0,7.603193760E0,-3.844069481E0,7.886743546E0
1.069528597E0,6.431907177E0,-3.291327477E0,5.641677380E0
1.074291774E0,5.764907837E0,-3.142374277E0,3.212364435E0
1.079081566E0,6.445067883E0,-3.236890793E0,2.397608280E0
1.083858076E0,7.101299286E0,-3.298506021E0,3.047259569E0
1.088621253E0,7.706085205E0,-3.219542980E0,2.458027124E0
1.093411045E0,8.966505051E0,-3.207578659E0,3.982254982E0
1.098187503E0,8.093722343E0,-2.723032236E0,3.784847260E0
1.102950680E0,7.782057285E0,-2.294118643E0,2.159522533E0
1.107740472E0,8.860622406E0,-2.442473650E0,4.908875465E0
1.112516982E0,5.531009674E0,-2.367697954E0,4.278367043E0
1.117293441E0,6.750751019E0,-2.735594511E0,2.798406124E0
1.122069951E0,6.460022926E0,-2.818146944E0,2.694318295E0
1.126846409E0,4.846662045E0,-2.474776745E0,1.176670551E0
1.131609587E0,5.385047436E0,-2.298306227E0,-8.560323119E-1
1.136399378E0,1.141854954E1,-2.838485956E0,1.060618591E1
1.141175837E0,5.232504845E0,-2.471187592E0,6.775277138E0
1.145939014E0,1.953141451E0,-2.667997360E0,-1.370489120E0
1.150728805E0,3.035893679E0,-2.535195589E0,-1.660020709E0
1.155505316E0,5.592624664E0,-1.878963947E0,-9.774680734E-1
1.160268493E0,8.609375954E0,-2.137388945E0,5.665007830E-1
1.165058284E0,1.398724461E1,-2.912663460E0,6.667600155E0
1.169834743E0,1.236491108E1,-3.416352510E0,1.498804283E1
1.174597920E0,6.613163471E0,-3.195016384E0,5.846862316E0
1.179387712E0,7.858627796E0,-3.167499065E0,5.677569866E0
1.184164222E0,9.912267685E0,-3.376272678E0,9.996016502E0
1.188927399E0,1.087178993E1,-3.401397467E0,1.670967865E1
1.193717191E0,5.754140377E0,-2.172084808E0,8.980263710E0
1.198493649E0,3.247060299E0,-1.750349760E0,6.658028960E-1
1.203256826E0,2.385046005E0,-1.307079315E0,-3.979862213E0
1.208046618E0,2.769093990E0,-8.333004713E-1,-5.474778175E0
1.212823128E0,3.650849104E0,-7.591229677E-1,-5.249254704E0
1.217586305E0,4.738985062E0,-1.219143152E0,-4.131208420E0
1.222376097E0,5.402993679E0,-1.691127419E0,-1.524227977E0
1.227152555E0,5.790630817E0,-1.980658889E0,9.798609018E-1
1.231915732E0,6.002993584E0,-1.865205288E0,3.114258766E0
1.236705524E0,6.273382664E0,-1.884945989E0,4.590630054E0
1.241482034E0,6.676573277E0,-2.052443504E0,5.135595798E0
1.246245212E0,6.640681267E0,-2.216351986E0,5.395216942E0
1.251035003E0,6.019743443E0,-2.299502611E0,4.870590687E0
1.255811462E0,5.125426292E0,-2.301297188E0,4.107280254E0
1.260574639E0,4.334000111E0,-2.163111687E0,3.137588739E0
1.265364430E0,4.183850288E0,-2.038086653E0,2.806781054E0
1.270140941E0,3.670589924E0,-1.904088616E0,2.084746838E0
1.274904118E0,3.457628727E0,-1.861017823E0,1.548156261E0
1.279693909E0,3.532404423E0,-1.802991867E0,1.307677627E0
1.284470368E0,3.817748547E0,-1.667797327E0,1.454836130E0
1.289246878E0,3.937389612E0,-1.339980721E0,1.689332843E0
1.294023337E0,4.987838745E0,-1.216750264E0,2.394019127E0
1.298799847E0,6.054439545E0,-1.408176184E0,3.209373474E0
1.303562972E0,6.617351055E0,-1.497906923E0,3.523431301E0
1.308352816E0,6.745367050E0,-1.550549030E0,3.393022537E0
1.313129274E0,7.733603001E0,-2.463410854E0,2.625524759E0
1.317892451E0,7.406384468E0,-2.638087034E0,3.543770313E0
1.322682243E0,6.820741177E0,-2.335394859E0,3.561118364E0
1.327458701E0,6.508477688E0,-1.912463546E0,3.365504980E0
1.332235212E0,6.259624004E0,-1.720439434E0,3.132204771E0
1.337011722E0,5.526223660E0,-1.654636860E0,3.116651535E0
1.341788180E0,4.910071850E0,-1.642074585E0,3.498904943E0
1.346564639E0,4.911268711E0,-1.411167145E0,3.786043644E0
1.351341149E0,5.124827862E0,-9.762716293E-1,3.972085476E0
1.356117607E0,5.720042706E0,-1.418943882E0,4.559523582E0
1.360894118E0,5.542973518E0,-1.794616938E0,4.229912281E0
1.365670576E0,5.169693470E0,-1.998006940E0,4.539184570E0
1.370447087E0,4.851448059E0,-1.965703845E0,5.370690346E0
1.375210264E0,4.459623337E0,-1.624726534E0,5.362913609E0
1.380000055E0,4.543372154E0,-1.374078393E0,5.904289722E0
1.384776514E0,4.403391838E0,-1.393819213E0,5.583651543E0
1.389553024E0,4.412364960E0,-1.624128342E0,3.846462488E0
1.394329482E0,4.752145767E0,-2.051247120E0,2.271386862E0
1.399105993E0,6.982256413E0,-2.523231506E0,2.638685226E0
1.403869170E0,7.129415035E0,-2.797209740E0,3.262613773E0
1.408658962E0,6.708278179E0,-2.967100143E0,3.600599766E0
1.413435420E0,7.533802032E0,-3.287140131E0,2.171486616E0
1.418198597E0,7.878368378E0,-3.690928936E0,6.819544435E-1
1.422988389E0,8.462815285E0,-4.199403763E0,-4.725824594E-1
1.427764899E0,7.354340553E0,-4.206582069E0,-4.480560422E-1
1.432528076E0,6.419344902E0,-4.151547432E0,7.375875711E-1
1.437317868E0,6.500102520E0,-3.978665829E0,1.615155339E0
1.442094326E0,7.200601578E0,-3.813561201E0,2.653042078E0
1.446857503E0,8.330612183E0,-3.859024763E0,2.297109842E0
1.451647295E0,9.762716293E0,-4.355535507E0,4.420739710E-1
1.456423805E0,1.019462109E1,-4.787439823E0,-7.884350419E-1
1.461186982E0,9.299106598E0,-4.751547337E0,-1.692921966E-1
1.465976774E0,9.535398483E0,-4.920241356E0,1.063011408E0
1.470753232E0,1.028853893E1,-5.250451088E0,3.918247223E-1
1.475516409E0,1.087178993E1,-5.296513081E0,-7.674978375E-1
1.480306201E0,1.084786129E1,-5.127819061E0,-1.443470240E0
1.485082712E0,1.130548859E1,-5.010570526E0,-2.079961061E0
1.489845889E0,1.098305607E1,-4.794618607E0,-2.490928411E0
1.494635680E0,1.008634567E1,-4.758127689E0,-2.842075109E0
1.499412139E0,8.929415703E0,-4.962714195E0,-3.108874798E0
1.504175316E0,8.181060791E0,-5.128417015E0,-3.503092289E0
1.508965107E0,7.900502205E0,-5.427519798E0,-3.602394581E0
1.513741618E0,7.508079052E0,-5.654838085E0,-3.254837036E0
1.518504795E0,7.063612461E0,-5.916851997E0,-2.959323406E0
1.523294587E0,7.313662529E0,-6.561717987E0,-2.139781713E0
1.528071045E0,8.665607452E0,-7.749155998E0,-2.309073806E-1
1.532834222E0,9.278169632E0,-9.053842545E0,1.197009563E0
1.537624014E0,8.623134613E0,-9.908679008E0,1.747358680E0
1.542400524E0,7.181458950E0,-9.522237778E0,1.980658889E0
1.547163701E0,7.138388157E0,-9.311071396E0,2.844467878E0
1.551953493E0,4.173680782E0,-7.444669247E0,4.461417675E0
1.556729951E0,3.275774240E0,-6.478567123E0,5.281557560E0
1.561493128E0,4.556532383E0,-6.315855503E0,3.824927092E0
1.566282920E0,5.931807518E0,-5.998806477E0,2.474178553E0
1.571059430E0,7.293921471E0,-5.860620975E0,1.329811215E0
1.575822607E0,8.105687141E0,-6.079564095E0,2.512463741E-2
1.580612347E0,8.216953278E0,-6.608377934E0,-7.190431952E-1
1.585388857E0,7.812565804E0,-7.346563816E0,-1.042672515E0
1.590152034E0,6.954140663E0,-7.979465485E0,-1.023529887E0
1.594941826E0,5.917450428E0,-8.280961037E0,-1.109073281E0
1.599718337E0,5.280361176E0,-8.513663292E0,-1.024128079E0
1.604481462E0,4.719244480E0,-8.813364029E0,-1.217348576E0
1.609271305E0,4.431507587E0,-9.175876617E0,-9.326026440E-1
1.614047764E0,4.520640373E0,-9.729815483E0,-7.124629617E-1
1.618810941E0,4.493721008E0,-1.026401234E1,-7.214360237E-1
1.623600732E0,4.703093052E0,-1.010548782E1,1.028913707E-1
1.628377243E0,4.406980991E0,-9.879964828E0,8.632107973E-1
1.633153701E0,4.569094658E0,-9.903892517E0,8.428717852E-1
1.637930212E0,4.827519894E0,-9.556335449E0,5.048855543E-1
1.642706670E0,4.498506546E0,-9.480362892E0,1.269990563E0
1.647483128E0,4.740779877E0,-9.263215065E0,1.287936807E0
1.652259639E0,4.750350952E0,-9.021539688E0,1.474576950E0
1.657036097E0,4.209573269E0,-8.392825127E0,2.120040894E0
1.661799274E0,3.692125320E0,-7.483552933E0,2.712264538E0
1.666589066E0,3.209373474E0,-6.857829571E0,1.946561217E0
1.671365576E0,2.859423161E0,-6.501298904E0,-6.867401004E-1
1.676128753E0,2.571686029E0,-5.928816319E0,-8.201399446E-1
1.680918545E0,2.261217356E0,-5.413163185E0,-1.466202021E0
1.685695003E0,1.676172256E0,-4.908875465E0,-1.967498422E0
1.690458180E0,1.122832060E0,-4.393820763E0,-2.632703066E0
1.695247972E0,8.171489239E-1,-4.013959885E0,-3.494717360E0
1.700024482E0,6.699903607E-1,-3.763910055E0,-4.094119549E0
1.704787659E0,8.422735929E-1,-3.555734396E0,-4.526622295E0
1.709577451E0,8.853443861E-1,-3.444468260E0,-4.455435753E0
1.714353909E0,8.291130662E-1,-3.329014540E0,-4.272384644E0
1.719117087E0,8.123632669E-1,-3.214159012E0,-3.807579041E0
1.723906878E0,7.531409264E-1,-3.069991350E0,-3.317648649E0
1.728683389E0,9.852447510E-1,-3.204587698E0,-2.771486759E0
1.733459847E0,2.898306370E0,-4.207180500E0,-2.425125837E0
1.738236357E0,4.343571186E0,-4.825126648E0,-2.192423820E0
1.743012816E0,3.946960926E0,-4.493721008E0,-1.552941918E0
1.747775993E0,3.653840065E0,-4.533202648E0,-4.378865361E-1
1.752565784E0,2.605185747E0,-3.967898130E0,2.919243574E-1
1.757342295E0,1.283151150E0,-3.325425386E0,7.154539824E-1
1.762105472E0,2.937189937E-1,-2.784049034E0,1.028315544E0
1.766895264E0,3.439682424E-1,-3.174677372E0,2.093719721E0
1.771671722E0,5.599204898E-1,-3.641875982E0,2.961117983E0
1.776434899E0,7.178467698E-3,-2.852244616E0,1.691725612E0
1.781224691E0,-4.414757788E-1,-2.621935368E0,7.920243144E-1
1.786001201E0,-7.447660565E-1,-2.550150633E0,1.405783296E-1
1.790764378E0,-8.620143533E-1,-2.444268227E0,-1.010967612E0
1.795554170E0,-9.732806087E-1,-2.361117840E0,-2.142772675E0
1.800330628E0,-1.226919770E0,-2.405385017E0,-2.275574446E0
1.805093805E0,-1.419542074E0,-2.512463808E0,-1.957927108E0
1.809883597E0,-1.416550994E0,-2.738585472E0,-1.603191137E0
1.814660107E0,-3.001796007E0,-8.875576973E0,-1.119840980E0
1.819423284E0,-9.084351540E0,-2.824906540E1,1.516451359E0
1.824213076E0,-1.390289783E1,-4.792823792E1,2.894119024E0
1.828989534E0,-1.507238960E1,-5.973023605E1,3.062813044E0
1.833752712E0,-1.043330479E1,-6.686145020E1,-1.419542074E0
1.838542503E0,-1.545165181E0,-5.962674713E1,-2.910868645E0
1.843319014E0,8.630910873E0,-4.920480728E1,-3.719642878E0
1.848082191E0,1.461356640E1,-3.622075272E1,-4.378865242E0
1.852871982E0,1.535773373E1,-2.502234459E1,-5.067399979E0
1.857648441E0,1.446281815E1,-1.673241043E1,-5.447260857E0
1.862411618E0,1.273579884E1,-1.072403336E1,-5.437689304E0
1.867201409E0,1.059721375E1,-6.591030121E0,-5.180460930E0
1.871977920E0,8.492725372E0,-4.018745422E0,-4.859224796E0
1.876741097E0,5.747560024E0,-3.067000389E0,-4.327419758E0
1.881530889E0,2.212164640E0,-3.909872293E0,-3.257229805E0
1.886307347E0,-7.986045480E-1,-5.006382942E0,-2.122433662E0
1.891070524E0,-3.210569859E0,-5.870192051E0,-1.034297585E0
1.895860316E0,-5.285147190E0,-6.525825500E0,1.956132501E-1
1.900636826E0,-6.178866386E0,-7.063612461E0,8.201399446E-1
1.905400003E0,-5.048257351E0,-7.089335442E0,5.210371017E-1
1.910189795E0,-2.983251572E0,-7.368099213E0,-4.061816335E-1
1.914966253E0,-1.504487276E0,-7.869993687E0,-8.261220455E-1
1.919729430E0,-5.150550604E-1,-8.397610664E0,-1.085145116E0
1.924519222E0,1.184447184E-1,-8.998209953E0,-1.342373490E0
1.929295732E0,4.145565331E-1,-9.570692062E0,-1.472782373E0
1.934072191E0,3.026920557E-1,-1.009591675E1,-1.356730461E0
1.938848701E0,8.135596663E-2,-1.042492962E1,-1.163509965E0
1.943625212E0,1.022931710E-1,-1.053081226E1,-9.475577474E-1
1.948401670E0,2.644068897E-1,-1.040518951E1,-8.285148144E-1
1.953178180E0,4.636093974E-1,-1.021615601E1,-7.962117195E-1
1.957954639E0,5.814558864E-1,-9.975079536E0,-8.165507317E-1
1.962731149E0,6.418746710E-1,-9.700503349E0,-8.602197170E-1
1.967507607E0,4.989035130E-1,-9.561120987E0,-9.026923180E-1
1.972284118E0,3.266202807E-1,-9.383454323E0,-9.254241586E-1
1.977060576E0,1.501496136E-1,-9.249456406E0,-9.439685345E-1
1.981837087E0,-6.939185411E-2,-9.206384659E0,-9.571290612E-1
1.986613545E0,-2.165504545E-1,-9.066405296E0,-8.943174481E-1
1.991390055E0,-2.362912297E-1,-9.071190834E0,-1.013958573E0
1.996166514E0,-1.848455518E-1,-9.187242508E0,-1.172483087E0
2.000943024E0,-1.525424421E-1,-9.297910690E0,-1.398006678E0
2.005719482E0,-1.106680483E-1,-9.317052841E0,-1.595414519E0
2.010495993E0,4.067798331E-2,-9.268598557E0,-1.749751568E0
2.015272451E0,1.357926875E-1,-9.277571678E0,-1.788634896E0
2.020048962E0,2.452643216E-1,-9.209974289E0,-1.693520188E0
2.024825420E0,2.937189937E-1,-9.214759827E0,-1.616949916E0
2.029601930E0,3.756731451E-1,-9.233902931E0,-1.381855130E0
2.034378389E0,4.683950245E-1,-9.306285858E0,-1.079761267E0
2.039154899E0,5.419743061E-1,-9.287142754E0,-7.304090858E-1
2.043931357E0,6.759724021E-1,-9.040681839E0,-4.432703853E-1
2.048707868E0,7.770691514E-1,-9.078967094E0,-2.129612118E-1
2.053484326E0,8.344969153E-1,-8.876773834E0,6.885347366E-1
2.058260837E0,8.333004713E-1,-8.757132530E0,2.147558212E0
2.063024014E0,8.069794178E-1,-9.089735031E0,2.315654039E0
2.067813805E0,6.753742099E-1,-9.610174179E0,1.582253933E0
2.072590264E0,6.628118753E-1,-9.994820595E0,8.536394835E-1
2.077366774E0,6.622136831E-1,-1.011984539E1,-1.447657645E-1
2.082143232E0,5.868397355E-1,-9.782457352E0,-1.415952802E0
2.086919743E0,4.498506486E-1,-9.305686951E0,-2.586641312E0
2.091682920E0,2.781656384E-1,-9.098110199E0,-3.272184849E0
2.096472712E0,-5.623133108E-2,-8.988039970E0,-3.366701365E0
2.101249170E0,-4.193421602E-1,-8.839685440E0,-2.856431961E0
2.106025680E0,-7.471588850E-1,-8.706285477E0,-1.957328916E0
2.110802139E0,-8.709874153E-1,-8.620143890E0,-1.145563841E0
2.115578649E0,-9.475577474E-1,-8.534002304E0,-3.870390654E-1
2.120341826E0,-9.912267923E-1,-8.544171333E0,2.273181528E-1
2.125131618E0,-9.744769931E-1,-8.616554260E0,6.352944374E-1
2.129908076E0,-9.583254457E-1,-8.654839516E0,9.044869542E-1
2.134671253E0,-9.672985673E-1,-8.665008545E0,1.028913736E0
2.139461045E0,-1.000199914E0,-8.684151649E0,1.034297585E0
2.144237555E0,-1.000798106E0,-8.751749039E0,9.523434043E-1
2.149014014E0,-1.029511929E0,-8.910273552E0,7.800601721E-1
2.153790524E0,-1.054038405E0,-9.093324661E0,5.449653864E-1
2.158566982E0,-9.750752449E-1,-9.214161873E0,2.374876440E-1
2.163343493E0,-8.482556343E-1,-9.401400566E0,-1.034895778E-1
2.168119951E0,-6.969096065E-1,-9.583852768E0,-3.924229145E-1
2.172896462E0,-6.173482537E-1,-9.718449593E0,-6.185446382E-1
2.177672920E0,-6.083751321E-1,-9.853045464E0,-8.051848412E-1
2.182449430E0,-5.802595019E-1,-9.954142570E0,-9.349954724E-1
2.187225889E0,-5.665007830E-1,-1.006959629E1,-1.054636598E0
2.192002399E0,-5.479564071E-1,-1.014138031E1,-1.160519004E0
2.196778909E0,-5.341976285E-1,-1.020419216E1,-1.280160069E0
2.201555368E0,-5.108676553E-1,-1.023290634E1,-1.395613790E0
2.206331826E0,-4.444667995E-1,-1.029033375E1,-1.511665702E0
2.211108337E0,-3.882354796E-1,-1.036810017E1,-1.631905079E0
2.215884795E0,-3.224328458E-1,-1.041117096E1,-1.785643935E0
2.220661305E0,-2.614158690E-1,-1.045424175E1,-1.958525300E0
2.225437816E0,-2.195414752E-1,-1.047817039E1,-2.097907305E0
2.230214274E0,-1.770688742E-1,-1.047757244E1,-2.218146563E0
2.234990784E0,-1.304088384E-1,-1.048714352E1,-2.309073925E0
2.239767243E0,-8.793623000E-2,-1.047757244E1,-2.347957134E0
2.244543753E0,-3.529413417E-2,-1.047278690E1,-2.319243431E0
2.249320212E0,1.794617064E-2,-1.044347477E1,-2.199602127E0
2.254096722E0,9.092725813E-2,-1.037647533E1,-1.979462504E0
2.258873180E0,1.776670814E-1,-1.032802105E1,-1.701895118E0
2.263649691E0,1.986042857E-1,-1.029930687E1,-1.375274777E0
2.268426149E0,2.338984162E-1,-1.027478027E1,-1.058824062E0
2.273202659E0,2.781656384E-1,-1.024546814E1,-7.710871100E-1
2.277979118E0,2.895315289E-1,-1.023589706E1,-5.126622319E-1
2.282755628E0,3.379862010E-1,-1.022632599E1,-2.769692242E-1
2.287532087E0,3.439682424E-1,-1.022154045E1,-8.494520187E-2
2.292308597E0,2.691925466E-1,-1.020299530E1,7.357929647E-2
2.297085055E0,2.129612118E-1,-1.019820976E1,2.081755698E-1
2.301861566E0,1.136590764E-1,-1.021795082E1,2.997010350E-1
2.306638024E0,-1.555334684E-2,-1.017488003E1,3.194418252E-1
2.311414534E0,-1.962114573E-1,-1.010309505E1,3.445664644E-1
2.316190993E0,-3.200400174E-1,-1.006002426E1,3.020938635E-1
2.320967503E0,-3.972085714E-1,-9.992427826E0,2.207378894E-1
2.325743962E0,-5.216353536E-1,-9.930213928E0,1.202393398E-1
2.330520472E0,-6.514459848E-1,-9.819545746E0,-3.230310604E-2
2.335296982E0,-7.046862841E-1,-9.742975235E0,-2.045863420E-1
2.340073441E0,-6.921239495E-1,-9.655637741E0,-3.828516304E-1
2.344849899E0,-6.358926296E-1,-9.588040352E0,-5.222335458E-1
2.349626409E0,-5.228317380E-1,-9.530014038E0,-6.478567123E-1
2.354402920E0,-3.810569942E-1,-9.467203140E0,-7.543373108E-1
2.359179378E0,-2.195414752E-1,-9.385248184E0,-7.980063558E-1
2.363955837E0,-8.673982322E-2,-9.326624870E0,-8.033902049E-1
2.368732347E0,7.537391037E-2,-9.297312737E0,-7.806583643E-1
2.373508805E0,2.901297510E-1,-9.297312737E0,-6.951149702E-1
2.378285316E0,5.048855543E-1,-9.296713829E0,-5.814558864E-1
2.383061826E0,7.148557901E-1,-9.324830055E0,-4.384847581E-1
2.387838284E0,8.775677085E-1,-9.348757744E0,-2.853440940E-1
2.392614795E0,1.021137118E0,-9.406186104E0,-1.178465188E-1
2.397391253E0,1.079761267E0,-9.454640388E0,4.007977992E-2
2.402167764E0,1.071386337E0,-9.516854286E0,2.033899277E-1
2.406944222E0,1.048654556E0,-9.608977318E0,3.661018610E-1
2.411720732E0,8.835497499E-1,-9.662218094E0,5.258227587E-1
2.416497191E0,7.226324677E-1,-9.715457916E0,6.753742099E-1
2.421273701E0,5.904290080E-1,-9.798010826E0,7.770691514E-1
2.426050159E0,4.576273263E-1,-9.846465111E0,8.261220455E-1
2.430826670E0,3.768695593E-1,-9.879964828E0,8.165507317E-1
2.435603128E0,2.626122832E-1,-9.899705887E0,7.543373108E-1
2.440379639E0,2.195414752E-1,-9.914062500E0,6.634100676E-1
2.445156097E0,2.422732860E-1,-9.933204651E0,5.479564071E-1
2.449932607E0,2.560320199E-1,-9.942776680E0,4.091726840E-1
2.454709066E0,2.931207716E-1,-9.961918831E0,2.793620527E-1
2.459485576E0,2.925225794E-1,-9.957133293E0,1.405783296E-1
2.464262034E0,3.008974493E-1,-9.942776680E0,1.076770201E-2
2.469038545E0,3.385843933E-1,-9.923035622E0,-7.597211748E-2
2.473815055E0,4.139583111E-1,-9.923035622E0,-1.483550072E-1
2.478591514E0,4.331009090E-1,-9.927821159E0,-1.722832322E-1
2.483368024E0,4.803591371E-1,-9.932606697E0,-1.722832322E-1
2.488144482E0,5.330012441E-1,-9.932606697E0,-1.393819153E-1
2.492920993E0,6.095715761E-1,-9.922437668E0,-1.202393398E-1
2.497697451E0,6.711867452E-1,-9.903294563E0,-7.776673883E-2
2.502473962E0,7.142575383E-1,-9.917651176E0,-2.033899166E-2
2.507250420E0,7.052844763E-1,-9.874580383E0,2.751746029E-2
2.512026930E0,6.861419082E-1,-9.854840279E0,6.161518395E-2
2.516803389E0,7.339983582E-1,-9.850054741E0,1.136590764E-1
2.521579899E0,6.861419082E-1,-9.787840843E0,1.142572835E-1
2.526356357E0,6.101697683E-1,-9.778269768E0,1.483550072E-1
2.531132868E0,5.437689424E-1,-9.768698692E0,1.483550072E-1
2.535909326E0,4.438686073E-1,-9.744770050E0,1.585244983E-1
2.540685837E0,4.390829504E-1,-9.769296646E0,1.680957973E-1
2.545462295E0,4.013960063E-1,-9.778867722E0,1.585244983E-1
2.550238805E0,3.110669553E-1,-9.788438797E0,1.495514214E-1
2.555015264E0,2.488535494E-1,-9.803394318E0,1.501496136E-1
2.559791774E0,2.297109663E-1,-9.817750931E0,1.118644550E-1
2.564568232E0,2.679961324E-1,-9.836894035E0,6.819544733E-2
2.569344743E0,3.535395563E-1,-9.860821724E0,3.409772366E-2
2.574121253E0,4.576273263E-1,-9.884750366E0,1.016949583E-2
2.578897712E0,5.102694035E-1,-9.899106979E0,-0.000000000E0
2.583674222E0,5.623133183E-1,-9.879366875E0,4.785645287E-3
2.588450680E0,6.245267391E-1,-9.874580383E0,1.854437590E-2
2.593227191E0,7.483552694E-1,-9.878767967E0,1.040877849E-1
2.598003649E0,8.249256015E-1,-9.859625816E0,1.806581169E-1
2.602780159E0,8.679963946E-1,-9.840482712E0,2.476571500E-1
2.607556618E0,9.397810698E-1,-9.869196892E0,3.433700502E-1
2.612333128E0,1.016351461E0,-9.888339996E0,4.097708762E-1
2.617109587E0,1.031306505E0,-9.888339996E0,4.911268353E-1
2.621886097E0,9.744769931E-1,-9.854840279E0,5.156532526E-1
2.626662555E0,9.840483069E-1,-9.854840279E0,5.682953596E-1
2.631439066E0,9.601200819E-1,-9.840482712E0,5.826523304E-1
2.636215524E0,9.798609018E-1,-9.873982430E0,6.017948985E-1
2.640992034E0,9.702895880E-1,-9.912267685E0,5.970092416E-1
2.645768493E0,8.177471161E-1,-9.898509026E0,5.647061467E-1
2.650545003E0,7.034898400E-1,-9.884152412E0,5.551348329E-1
2.655321514E0,6.508477330E-1,-9.865009308E0,5.270192027E-1
2.660097972E0,6.125625968E-1,-9.865009308E0,4.791627228E-1
2.664874482E0,5.838487148E-1,-9.874580383E0,4.360919297E-1
2.669650941E0,5.222335458E-1,-9.875179291E0,4.366901219E-1
2.674427451E0,4.845465720E-1,-9.845867157E0,4.845465720E-1
2.679203909E0,4.797609448E-1,-9.817152977E0,5.324030519E-1
2.683980420E0,4.995017350E-1,-9.802796364E0,6.233302951E-1
2.688756878E0,5.425725579E-1,-9.774082184E0,7.046862841E-1
2.693533389E0,5.856433511E-1,-9.706484795E0,7.674978375E-1
2.698309847E0,6.568298340E-1,-9.648459435E0,8.440681696E-1
2.703086357E0,7.668996453E-1,-9.609575272E0,9.200403094E-1
2.707862816E0,8.572286963E-1,-9.580862045E0,9.912267923E-1
2.712639326E0,9.768698215E-1,-9.570692062E0,1.091725349E0
2.717415784E0,1.063011408E0,-9.556335449E0,1.158126116E0
2.722192295E0,1.115653515E0,-9.512666702E0,1.263410330E0
2.726968805E0,1.149751306E0,-9.483952522E0,1.363908887E0
2.731745264E0,1.207777262E0,-9.459425926E0,1.478764415E0
2.736521774E0,1.212562919E0,-9.445069313E0,1.531406522E0
2.741298232E0,1.189232826E0,-9.425926208E0,1.579861164E0
2.746074743E0,1.127019525E0,-9.430712700E0,1.603789330E0
2.750851201E0,1.074377418E0,-9.421739578E0,1.609173179E0
2.755627712E0,9.840483069E-1,-9.464810371E0,1.585245013E0
2.760404170E0,8.841479421E-1,-9.484550476E0,1.552343726E0
2.765180680E0,8.081758618E-1,-9.508479118E0,1.500299811E0
2.769957139E0,7.363911867E-1,-9.528220177E0,1.404586911E0
2.774733649E0,6.544370055E-1,-9.533005714E0,1.284945726E0
2.779510107E0,5.970092416E-1,-9.571888924E0,1.160519004E0
2.784286618E0,5.676971674E-1,-9.614959717E0,9.978070259E-1
2.789063076E0,5.617151260E-1,-9.658030510E0,8.344969153E-1
2.793839587E0,5.802595019E-1,-9.672387123E0,6.999006271E-1
2.798616045E0,5.886343718E-1,-9.677172661E0,5.700899959E-1
2.803392555E0,5.742774606E-1,-9.701699257E0,4.839483798E-1
2.808169066E0,5.838487148E-1,-9.773484230E0,4.265206456E-1
2.812945524E0,6.735795736E-1,-9.811769485E0,3.732803464E-1
2.817722034E0,7.830511928E-1,-9.873982430E0,3.583251834E-1
2.822498493E0,9.020941257E-1,-9.932008743E0,3.385843933E-1
2.827275003E0,9.972088337E-1,-9.955338478E0,3.332005441E-1
2.832051462E0,1.068395257E0,-9.969695091E0,3.236292601E-1
2.836827972E0,1.192822099E0,-9.988838196E0,3.320041299E-1
2.841604430E0,1.207179070E0,-1.000798035E1,3.032902777E-1
2.846380941E0,1.268794179E0,-1.001276588E1,2.937189937E-1
2.851157399E0,1.378265858E0,-1.005583763E1,2.883351147E-1
2.855933909E0,1.387837172E0,-1.007497978E1,2.883351147E-1
2.860710368E0,1.459023595E0,-1.009412193E1,2.829512656E-1
2.865486878E0,1.554736495E0,-1.012283611E1,2.775674164E-1
2.870263389E0,1.606780410E0,-1.015155029E1,3.014956415E-1
2.875039847E0,1.645065546E0,-1.017069244E1,2.871387303E-1
2.879816357E0,1.635494232E0,-1.017547798E1,2.775674164E-1
2.884592816E0,1.630708575E0,-1.012762165E1,2.775674164E-1
2.889369326E0,1.658824325E0,-1.012702370E1,2.817548811E-1
2.894145784E0,1.668395638E0,-1.013180923E1,2.721835673E-1
2.898922295E0,1.645065546E0,-1.012223816E1,2.727817893E-1
2.903698753E0,1.611566067E0,-1.010309505E1,2.727817893E-1
2.908475264E0,1.554138303E0,-1.007916737E1,2.727817893E-1
2.913251722E0,1.473380566E0,-1.005045319E1,2.877369225E-1
2.918028232E0,1.406979680E0,-1.003131104E1,3.026920557E-1
2.922804691E0,1.335195065E0,-9.983454704E0,3.074777126E-1
2.927581201E0,1.254437327E0,-9.935597420E0,3.080759048E-1
2.932357712E0,1.178465128E0,-9.887741089E0,3.272185028E-1
2.937134170E0,1.101296663E0,-9.859027863E0,3.278166950E-1
2.941910680E0,1.054038405E0,-9.815957069E0,3.427718580E-1
2.946687139E0,1.030110121E0,-9.772287369E0,3.523431420E-1
2.951463649E0,9.918249846E-1,-9.748359680E0,3.667000830E-1
2.956240107E0,9.828519225E-1,-9.729216576E0,3.954139352E-1
2.961016618E0,9.684949517E-1,-9.700503349E0,4.049852192E-1
2.965793076E0,9.684949517E-1,-9.695717812E0,4.241278172E-1
2.970569587E0,9.684949517E-1,-9.681360245E0,4.534398913E-1
2.975346045E0,9.732806087E-1,-9.662218094E0,4.869394004E-1
2.980122555E0,9.690931439E-1,-9.662218094E0,5.347958803E-1
2.984899066E0,9.882357717E-1,-9.657432556E0,5.730810165E-1
2.989675524E0,9.696913958E-1,-9.676574707E0,5.874379873E-1
2.994452034E0,9.553344250E-1,-9.667003632E0,6.352944374E-1
2.999228493E0,9.511470199E-1,-9.676574707E0,6.789634228E-1
3.004005003E0,9.272187948E-1,-9.705288887E0,7.028916478E-1
3.008781462E0,8.799605370E-1,-9.739386559E0,7.316055298E-1
3.013557972E0,8.327022791E-1,-9.758528709E0,7.369893789E-1
3.018334430E0,7.896314859E-1,-9.787840843E0,7.274180651E-1
3.023110941E0,7.094719410E-1,-9.806983948E0,7.328019142E-1
3.027887399E0,7.046862841E-1,-9.841081619E0,7.184450030E-1
3.032663909E0,5.952146053E-1,-9.879366875E0,6.759724021E-1
3.037440368E0,4.995017350E-1,-9.903892517E0,6.430711150E-1
3.042216878E0,4.283152521E-1,-9.903892517E0,6.143572330E-1
3.046993389E0,4.091726840E-1,-9.933204651E0,5.856433511E-1
3.051769847E0,3.948157430E-1,-9.961918831E0,5.569294691E-1
3.056546357E0,3.708875179E-1,-9.981060982E0,4.851447940E-1
3.061322816E0,3.942175210E-1,-9.976275444E0,4.229314029E-1
3.066099326E0,4.408775866E-1,-9.942177773E0,3.553341627E-1
3.070875784E0,5.258227587E-1,-9.923035622E0,2.733799815E-1
3.075652295E0,6.251249313E-1,-9.884152412E0,2.105683982E-1
3.080428753E0,7.345965505E-1,-9.869196892E0,1.621137410E-1
3.085205264E0,8.386843204E-1,-9.840482712E0,1.280160099E-1
3.089981722E0,9.481559992E-1,-9.830313683E0,1.130608693E-1
3.094758232E0,1.033699393E0,-9.825528145E0,1.268195957E-1
3.099534691E0,1.100100160E0,-9.801001549E0,1.453639716E-1
3.104311201E0,1.172483087E0,-9.791430473E0,1.645065546E-1
3.109087712E0,1.258026481E0,-9.757332802E0,1.974078715E-1
3.113864170E0,1.329213023E0,-9.742975235E0,2.165504545E-1
3.118640680E0,1.424327731E0,-9.737591743E0,2.446661144E-1
3.123417139E0,1.496112347E0,-9.732806206E0,2.727817893E-1
3.128193649E0,1.572084427E0,-9.737591743E0,2.871387303E-1
3.132970107E0,1.624726534E0,-9.722636223E0,2.865405083E-1
3.137746618E0,1.653440475E0,-9.736993790E0,3.104687333E-1
3.142523076E0,1.663011789E0,-9.732208252E0,3.152543902E-1
3.147299587E0,1.696511269E0,-9.736993790E0,3.391826153E-1
3.152076045E0,1.701296926E0,-9.732208252E0,3.678964674E-1
3.156852555E0,1.701296926E0,-9.741779327E0,4.253242314E-1
3.161629066E0,1.654636860E0,-9.771091461E0,5.024927258E-1
3.166405524E0,1.569691658E0,-9.785448074E0,5.700899959E-1
3.171182034E0,1.508076429E0,-9.795618057E0,6.329016089E-1
3.175958493E0,1.442273855E0,-9.819545746E0,7.148557901E-1
3.180735003E0,1.390229940E0,-9.839286804E0,7.728816867E-1
3.185511462E0,1.323829174E0,-9.868598938E0,8.213363886E-1
3.190287972E0,1.319043517E0,-9.902098656E0,8.213363886E-1
3.195064430E0,1.299900889E0,-9.921240807E0,7.878368497E-1
3.199840941E0,1.295115232E0,-9.935597420E0,7.537391186E-1
3.204617451E0,1.328016520E0,-9.935597420E0,7.250252366E-1
3.209393909E0,1.395015597E0,-9.969097137E0,6.909275651E-1
3.214170420E0,1.447059512E0,-9.973882675E0,6.424728632E-1
3.218946878E0,1.489532113E0,-1.000259686E1,6.089733839E-1
3.223723389E0,1.584646821E0,-1.001216793E1,5.653043389E-1
3.228499847E0,1.674377680E0,-1.004566765E1,5.359922647E-1
3.233276357E0,1.745564103E0,-1.005464077E1,5.114658475E-1
3.238052816E0,1.835893154E0,-1.004028416E1,4.875376225E-1
3.242829326E0,1.916650891E0,-1.003549862E1,4.677968323E-1
3.247605784E0,1.950150490E0,-9.996614456E0,4.719842672E-1
3.252382295E0,2.006979942E0,-9.957731247E0,4.767699242E-1
3.257158805E0,1.992623091E0,-9.938589096E0,5.246263742E-1
3.261935264E0,1.954936147E0,-9.938589096E0,5.491527915E-1
3.266711774E0,1.907677889E0,-9.963115692E0,5.826523304E-1
3.271488232E0,1.770090580E0,-9.958928108E0,6.269195080E-1
3.276264743E0,1.642074585E0,-9.954142570E0,6.993024349E-1
3.281041201E0,1.470987678E0,-9.926026344E0,7.633104324E-1
3.285817712E0,1.262213945E0,-9.897313118E0,8.171489239E-1
3.290594170E0,1.037886858E0,-9.835099220E0,8.614161611E-1
3.295370680E0,7.908278704E-1,-9.778269768E0,8.673982024E-1
3.300147191E0,5.240281820E-1,-9.725627899E0,8.494520187E-1
3.304923649E0,3.140579760E-1,-9.653842926E0,7.878368497E-1
3.309700159E0,1.381855011E-1,-9.572486877E0,7.603194118E-1
3.314476618E0,-3.888336942E-2,-9.495916367E0,7.316055298E-1
3.319253128E0,-1.722832322E-1,-9.457631111E0,7.178468108E-1
3.324029587E0,-2.865405083E-1,-9.443872452E0,7.375875711E-1
3.328806097E0,-3.858426511E-1,-9.472586632E0,7.525427341E-1
3.333582555E0,-4.666004181E-1,-9.506684303E0,7.824530005E-1
3.338359066E0,-5.377869010E-1,-9.545567513E0,8.021938205E-1
3.343135576E0,-5.802595019E-1,-9.559925079E0,7.974081635E-1
3.347912034E0,-6.041877270E-1,-9.598808289E0,7.878368497E-1
3.352688545E0,-5.569294691E-1,-9.632308006E0,7.489534616E-1
3.357465003E0,-4.666004181E-1,-9.661021233E0,6.909275651E-1
3.362241514E0,-3.768695593E-1,-9.660423279E0,6.137589812E-1
3.367017972E0,-2.255235314E-1,-9.607182503E0,5.359922647E-1
3.371794482E0,-3.529413417E-2,-9.635298729E0,4.725824594E-1
3.376570941E0,1.651047617E-1,-9.678369522E0,4.283152521E-1
3.381347451E0,3.499503136E-1,-9.707083702E0,4.037888348E-1
3.386123962E0,4.929214716E-1,-9.759127617E0,3.936193287E-1
3.390900420E0,6.215356588E-1,-9.792626381E0,4.121637046E-1
3.395676930E0,7.262216806E-1,-9.792626381E0,4.354937077E-1
3.400453389E0,7.980063558E-1,-9.777671814E0,4.492524564E-1
3.405229899E0,8.452646136E-1,-9.753743172E0,4.683950245E-1
3.410006357E0,9.074779749E-1,-9.744172096E0,4.821537733E-1
3.414782868E0,9.212366939E-1,-9.739386559E0,4.630111754E-1
3.419559326E0,9.355936646E-1,-9.744172096E0,4.773681164E-1
3.424335837E0,8.979067206E-1,-9.753743172E0,5.012963414E-1
3.429112347E0,8.315058947E-1,-9.768099785E0,5.353940725E-1
3.433888805E0,7.555337548E-1,-9.787840843E0,5.407779217E-1
3.438665316E0,7.034898400E-1,-9.787840843E0,5.694918036E-1
3.443441774E0,6.562315822E-1,-9.778269768E0,6.131607890E-1
3.448218284E0,6.041877270E-1,-9.768698692E0,6.807580590E-1
3.452994743E0,5.569294691E-1,-9.774082184E0,7.627122402E-1
3.457771253E0,5.341976285E-1,-9.778867722E0,8.638089895E-1
3.462547712E0,5.772684813E-1,-9.802796364E0,9.786644578E-1
3.467324222E0,6.873382926E-1,-9.850652695E0,1.068993568E0
3.472100732E0,7.597211599E-1,-9.908080101E0,1.121635556E0
3.476877191E0,8.213363886E-1,-9.932008743E0,1.121635556E0
3.481653701E0,8.925228715E-1,-9.927223206E0,1.077966571E0
3.486430159E0,9.678967595E-1,-9.917651176E0,1.015154958E0
3.491206670E0,9.960124493E-1,-9.888339996E0,9.571290612E-1
3.495983128E0,1.004985452E0,-9.864411354E0,8.614161611E-1
3.500759639E0,9.996016622E-1,-9.840482712E0,7.411768436E-1
3.505536149E0,9.655039310E-1,-9.806385040E0,6.305087805E-1
3.510312607E0,9.361918569E-1,-9.768099785E0,5.587241054E-1
3.515089118E0,8.829515576E-1,-9.725028992E0,4.630111754E-1
3.519865576E0,7.872386575E-1,-9.686744690E0,3.822534084E-1
3.524642087E0,6.825526357E-1,-9.658030510E0,3.152543902E-1
3.529418545E0,6.011967063E-1,-9.629316330E0,2.871387303E-1
3.534195055E0,5.252245665E-1,-9.610174179E0,2.925225794E-1
3.538971514E0,4.348955154E-1,-9.581459999E0,2.925225794E-1
3.543748024E0,3.870390654E-1,-9.557532310E0,3.266202807E-1
3.548524482E0,3.260220885E-1,-9.557532310E0,3.750749528E-1
3.553300993E0,2.877369225E-1,-9.576674461E0,4.037888348E-1
3.558077503E0,2.027917206E-1,-9.591629982E0,4.187439680E-1
3.562853962E0,1.405783296E-1,-9.601201057E0,4.384847581E-1
3.567630472E0,1.124626622E-1,-9.611370087E0,4.528416991E-1
3.572406930E0,6.520441920E-2,-9.635298729E0,4.767699242E-1
3.577183441E0,3.170489892E-2,-9.668798447E0,4.725824594E-1
3.581959951E0,4.127619043E-2,-9.688538551E0,4.630111754E-1
3.586736409E0,2.213360928E-2,-9.717252731E0,4.438686073E-1
3.591512920E0,3.170489892E-2,-9.745966911E0,3.906283081E-1
3.596289378E0,2.213360928E-2,-9.784850121E0,3.236292601E-1
3.601065889E0,4.965107143E-2,-9.789037704E0,2.374876440E-1
3.605842347E0,1.064806059E-1,-9.798608780E0,1.363908947E-1
3.610618857E0,1.674975902E-1,-9.822537422E0,3.529413417E-2
3.615395316E0,2.434697002E-1,-9.841679573E0,-7.058826834E-2
3.620171826E0,3.236292601E-1,-9.875179291E0,-1.860419661E-1
3.624948337E0,4.133601189E-1,-9.894321442E0,-2.871387303E-1
3.629724795E0,4.839483798E-1,-9.908080101E0,-3.451646566E-1
3.634501305E0,5.694918036E-1,-9.908080101E0,-3.798605800E-1
3.639277764E0,6.311069727E-1,-9.908080101E0,-3.942175210E-1
3.644054274E0,6.741777658E-1,-9.883553505E0,-3.900300860E-1
3.648830732E0,7.268198729E-1,-9.859625816E0,-3.463610709E-1
3.653607243E0,7.794619799E-1,-9.845269203E0,-2.889333367E-1
3.658383753E0,7.938188910E-1,-9.820742607E0,-2.027917206E-1
3.663160212E0,7.800601721E-1,-9.830911636E0,-1.310070455E-1
3.667936722E0,7.710871100E-1,-9.826126099E0,-3.469592705E-2
3.672713180E0,8.003991842E-1,-9.806385040E0,6.101697683E-2
3.677489691E0,7.956135273E-1,-9.782457352E0,1.423729509E-1
3.682266149E0,7.627122402E-1,-9.777671814E0,2.045863420E-1
3.687042659E0,7.160521746E-1,-9.787840843E0,2.673979402E-1
3.691819170E0,6.448656917E-1,-9.763913155E0,3.110669553E-1
3.696595628E0,5.832505226E-1,-9.754341125E0,3.355933726E-1
3.701372139E0,5.449653864E-1,-9.754341125E0,3.690928817E-1
3.706148597E0,5.264210105E-1,-9.778269768E0,3.834498227E-1
3.710925107E0,4.833501875E-1,-9.778867722E0,3.888336718E-1
3.715701566E0,4.689932466E-1,-9.807581902E0,3.744767308E-1
3.720478076E0,4.737788737E-1,-9.831509590E0,3.457628787E-1
3.725254587E0,5.024927258E-1,-9.860223770E0,2.925225794E-1
3.730031045E0,5.210371017E-1,-9.884152412E0,2.111666054E-1
3.734807555E0,5.772684813E-1,-9.869794846E0,1.483550072E-1
3.739584014E0,6.149554253E-1,-9.865009308E0,7.597211748E-2
3.744360524E0,6.430711150E-1,-9.893723488E0,4.187439568E-3
3.749136982E0,6.664010882E-1,-9.898509026E0,-5.383851007E-2
3.753913493E0,7.040880919E-1,-9.898509026E0,-1.064806059E-1
3.758690003E0,7.232306600E-1,-9.897911072E0,-1.112662554E-1
3.763466462E0,7.280163169E-1,-9.883553505E0,-1.447657645E-1
3.768242972E0,7.609176040E-1,-9.854840279E0,-1.501496136E-1
3.773019430E0,7.848458290E-1,-9.820742607E0,-1.501496136E-1
3.777795941E0,7.752745152E-1,-9.782457352E0,-1.214357466E-1
3.782572399E0,7.896314859E-1,-9.768099785E0,-9.272187948E-2
3.787348909E0,8.183453679E-1,-9.787242889E0,-5.922235921E-2
3.792125420E0,8.518448472E-1,-9.792028427E0,-6.580262445E-3
3.796901878E0,8.428717852E-1,-9.792028427E0,2.691925503E-2
3.801678389E0,8.476574421E-1,-9.777671814E0,8.434699476E-2
3.806454847E0,8.668000102E-1,-9.772886276E0,1.082752272E-1
3.811231357E0,9.002995491E-1,-9.768099785E0,1.465603858E-1
3.816007816E0,9.577272534E-1,-9.787242889E0,1.944168359E-1
3.820784326E0,9.960124493E-1,-9.772287369E0,2.033899277E-1
3.825560837E0,1.024726272E0,-9.757930756E0,2.368894368E-1
3.830337295E0,1.034297585E0,-9.738788605E0,2.751746178E-1
3.835113805E0,1.082154036E0,-9.719645500E0,2.991028428E-1
3.839890264E0,1.110269666E0,-9.704689980E0,3.182454109E-1
3.844666774E0,1.134796143E0,-9.675976753E0,3.373879790E-1
3.849443232E0,1.149153113E0,-9.652048111E0,3.320041299E-1
3.854219743E0,1.196411371E0,-9.637093544E0,3.320041299E-1
3.858996253E0,1.234696507E0,-9.641879082E0,3.080759048E-1
3.863772712E0,1.234098315E0,-9.622735977E0,2.841476798E-1
3.868549222E0,1.234098315E0,-9.598808289E0,2.404786795E-1
3.873325680E0,1.257428288E0,-9.574281693E0,2.069791555E-1
3.878102191E0,1.285543919E0,-9.540781975E0,1.782652885E-1
3.882878649E0,1.318445325E0,-9.535996437E0,1.393819153E-1
3.887655159E0,1.328016520E0,-9.531210899E0,1.058823988E-1
3.892431670E0,1.337587833E0,-9.535996437E0,8.673982322E-2
3.897208128E0,1.360917926E0,-9.550353050E0,5.742774159E-2
3.901984639E0,1.328016520E0,-9.579067230E0,6.759724021E-2
3.906761097E0,1.342373490E0,-9.602995872E0,5.802594870E-2
3.911537607E0,1.294517040E0,-9.617950439E0,5.324030295E-2
3.916314118E0,1.280160069E0,-9.641879082E0,4.366901144E-2
3.921090576E0,1.242473125E0,-9.670592308E0,5.383851007E-2
3.925867087E0,1.228116274E0,-9.709476471E0,3.469592705E-2
3.930643545E0,1.185643673E0,-9.738189697E0,1.076770201E-2
3.935420055E0,1.166501045E0,-9.757332802E0,-1.316052489E-2
3.940196514E0,1.152144074E0,-9.791430473E0,-3.708875179E-2
3.944973024E0,1.161715388E0,-9.805787086E0,-6.580262631E-2
3.949749534E0,1.122832060E0,-9.824930191E0,-9.930214286E-2
3.954525993E0,1.108475089E0,-9.882955551E0,-1.040877849E-1
3.959302503E0,1.084546804E0,-9.926026344E0,-1.178465188E-1
3.964078962E0,1.108475089E0,-9.940383911E0,-1.280160099E-1
3.968855472E0,1.122832060E0,-9.954740524E0,-1.567298770E-1
3.973631930E0,1.132403374E0,-9.998409271E0,-1.663011760E-1
3.978408441E0,1.161117196E0,-9.988838196E0,-1.758724600E-1
3.983184951E0,1.194616675E0,-1.001276588E1,-1.950150430E-1
3.987961409E0,1.175474167E0,-9.973882675E0,-1.854437590E-1
3.992737920E0,1.137188911E0,-9.964311600E0,-2.189432681E-1
3.997514378E0,1.103091240E0,-9.926026344E0,-2.189432681E-1
4.002290889E0,1.064806104E0,-9.892526627E0,-2.333002090E-1
4.007067347E0,1.055234790E0,-9.873384476E0,-2.285145670E-1
4.011843857E0,1.069591761E0,-9.849455833E0,-2.189432681E-1
4.016620368E0,1.069591761E0,-9.844670296E0,-2.045863420E-1
4.021396826E0,1.127019525E0,-9.824930191E0,-1.854437590E-1
4.026173337E0,1.170688510E0,-9.810572624E0,-1.423729509E-1
4.030949795E0,1.189831018E0,-9.810572624E0,-9.451649338E-2
4.035726305E0,1.204187989E0,-9.776474953E0,-3.230310604E-2
4.040502816E0,1.242473125E0,-9.762118340E0,2.512463741E-2
4.045279274E0,1.210170031E0,-9.742975235E0,1.160518974E-1
4.050055784E0,1.243669510E0,-9.747760773E0,1.878365725E-1
4.054832295E0,1.205982566E0,-9.733404160E0,2.362912297E-1
4.059608753E0,1.139581800E0,-9.728618622E0,2.793620527E-1
4.064385264E0,1.096511006E0,-9.738788605E0,3.038884699E-1
4.069161722E0,1.010967612E0,-9.748359680E0,3.284149170E-1
4.073938232E0,9.254241586E-1,-9.739386559E0,3.337987661E-1
4.078714691E0,8.727820516E-1,-9.744172096E0,3.194418252E-1
4.083491201E0,8.488538265E-1,-9.734601021E0,2.859423161E-1
4.088267712E0,8.392825127E-1,-9.748957634E0,2.524427772E-1
4.093044170E0,8.386843204E-1,-9.763314247E0,1.806581169E-1
4.097820680E0,8.428717852E-1,-9.768099785E0,9.391828626E-2
4.102597139E0,8.476574421E-1,-9.748957634E0,2.691925503E-2
4.107373649E0,8.751748800E-1,-9.738788605E0,-5.982056633E-2
4.112150107E0,9.367900491E-1,-9.757930756E0,-1.028913707E-1
4.116926618E0,8.847461939E-1,-9.763314247E0,-1.363908947E-1
4.121703128E0,8.602197170E-1,-9.796813965E0,-1.842473447E-1
4.126479587E0,8.177471161E-1,-9.806385040E0,-1.836491376E-1
4.131256097E0,7.417750359E-1,-9.816555023E0,-2.123630047E-1
4.136032555E0,6.939185858E-1,-9.797411919E0,-2.410768867E-1
4.140809066E0,6.412764788E-1,-9.773484230E0,-2.787638307E-1
4.145585576E0,6.215356588E-1,-9.739386559E0,-3.074777126E-1
4.150362034E0,5.976074338E-1,-9.715457916E0,-3.409772217E-1
4.155138545E0,5.922235847E-1,-9.672387123E0,-4.085744619E-1
4.159915003E0,6.299105883E-1,-9.657432556E0,-4.522434771E-1
4.164691514E0,6.442674994E-1,-9.633503914E0,-4.953143001E-1
4.169467972E0,6.771687865E-1,-9.638289452E0,-5.198407173E-1
4.174244482E0,6.628118753E-1,-9.614361763E0,-5.246263742E-1
4.179020993E0,7.058826685E-1,-9.613762856E0,-4.767699242E-1
4.183797451E0,7.824530005E-1,-9.608977318E0,-4.097708762E-1
4.188573962E0,8.398807645E-1,-9.618548393E0,-3.182454109E-1
4.193350420E0,8.404789567E-1,-9.618548393E0,-2.129612118E-1
4.198126930E0,8.458628058E-1,-9.613762856E0,-1.316052526E-1
4.202903441E0,8.608179688E-1,-9.599406242E0,-5.982056633E-2
4.207679899E0,8.991031051E-1,-9.604191780E0,2.153540403E-2
4.212456409E0,9.278169870E-1,-9.604191780E0,8.374879509E-2
4.217232868E0,9.571290612E-1,-9.618548393E0,1.459621787E-1
4.222009378E0,9.762716293E-1,-9.608977318E0,1.794617027E-1
4.226785889E0,9.858429432E-1,-9.623334885E0,2.177468538E-1
4.231562347E0,9.906286001E-1,-9.623334885E0,2.368894368E-1
4.236338857E0,9.912267923E-1,-9.637691498E0,2.368894368E-1
4.241115316E0,9.577272534E-1,-9.647262573E0,2.279163599E-1
4.245891826E0,9.337990284E-1,-9.642477036E0,1.992024779E-1
4.250668337E0,9.050851464E-1,-9.671789169E0,1.848455518E-1
4.255444795E0,8.572286963E-1,-9.710074425E0,1.513460279E-1
4.260221305E0,8.051848412E-1,-9.729815483E0,8.973085135E-2
4.264997764E0,7.429714203E-1,-9.744172096E0,3.708875179E-2
4.269774274E0,6.999006271E-1,-9.758528709E0,-2.991028316E-2
4.274550732E0,6.472585201E-1,-9.783055305E0,-8.255238086E-2
4.279327243E0,5.802595019E-1,-9.802198410E0,-1.537388563E-1
4.284103753E0,5.563312769E-1,-9.816555023E0,-2.111666054E-1
4.288880212E0,5.180460811E-1,-9.836296082E0,-2.590230405E-1
4.293656722E0,4.701896608E-1,-9.869794846E0,-3.116651475E-1
4.298433232E0,4.366901219E-1,-9.908679008E0,-3.595215976E-1
4.303209691E0,4.366901219E-1,-9.908679008E0,-3.840480447E-1
4.307986201E0,4.408775866E-1,-9.927821159E0,-4.223332107E-1
4.312762659E0,4.504488707E-1,-9.927821159E0,-4.414757788E-1
4.317539170E0,5.072783828E-1,-9.908080101E0,-4.420739710E-1
4.322315628E0,5.264210105E-1,-9.888937950E0,-4.420739710E-1
4.327092139E0,5.694918036E-1,-9.884152412E0,-4.372883439E-1
4.331868649E0,6.215356588E-1,-9.888937950E0,-3.990031779E-1
4.336645107E0,6.598208547E-1,-9.888937950E0,-3.559323549E-1
4.341421618E0,6.837490797E-1,-9.888339996E0,-3.272185028E-1
4.346198076E0,6.652047038E-1,-9.898509026E0,-2.931207716E-1
4.350974587E0,6.604190469E-1,-9.893723488E0,-2.596212626E-1
4.355751097E0,6.370890141E-1,-9.874580383E0,-2.213360965E-1
4.360527555E0,5.994020700E-1,-9.845269203E0,-1.878365725E-1
4.365304066E0,5.754738450E-1,-9.826126099E0,-1.776670814E-1
4.370080524E0,5.371887088E-1,-9.773484230E0,-1.633101404E-1
4.374857034E0,5.132604837E-1,-9.725627899E0,-1.824527234E-1
4.379633545E0,4.893322289E-1,-9.658030510E0,-1.920240223E-1
4.384410003E0,4.606183469E-1,-9.610174179E0,-1.872383654E-1
4.389186514E0,4.648058116E-1,-9.566504478E0,-1.824527234E-1
4.393962972E0,4.797609448E-1,-9.542576790E0,-1.441675574E-1
4.398739482E0,5.180460811E-1,-9.552147865E0,-8.673982322E-2
4.403515993E0,5.754738450E-1,-9.552147865E0,-2.931207791E-2
4.408292451E0,6.137589812E-1,-9.580862045E0,3.290131316E-2
4.413068962E0,6.855437160E-1,-9.609575272E0,9.032905847E-2
4.417845472E0,7.573283911E-1,-9.671789169E0,1.471585929E-1
4.422621930E0,8.009973764E-1,-9.734601021E0,2.045863420E-1
4.427398441E0,8.249256015E-1,-9.801599503E0,2.476571500E-1
4.432174899E0,8.536394835E-1,-9.873982430E0,2.524427772E-1
4.436951409E0,8.775677085E-1,-9.921838760E0,2.572284341E-1
4.441727868E0,8.781659007E-1,-9.994221687E0,2.333002090E-1
4.446504378E0,8.685946465E-1,-1.005224800E1,2.045863420E-1
4.451280889E0,8.781659007E-1,-1.009531879E1,1.710868180E-1
4.456057347E0,8.919246197E-1,-1.012881851E1,1.471585929E-1
4.460833857E0,9.254241586E-1,-1.015813065E1,1.082752272E-1
4.465610316E0,9.487541914E-1,-1.015753174E1,6.520441920E-2
4.470386826E0,9.816554785E-1,-1.013360405E1,1.196411345E-2
4.475163337E0,1.057029366E0,-1.007557774E1,-6.520441920E-2
4.479939795E0,1.118046403E0,-9.998409271E0,-1.280160099E-1
4.484716305E0,1.199402332E0,-9.906884193E0,-1.812563092E-1
4.489492764E0,1.269990563E0,-9.839286804E0,-2.051845491E-1
4.494269274E0,1.326820135E0,-9.771689415E0,-1.962114573E-1
4.499045784E0,1.374676585E0,-9.704092026E0,-1.722832322E-1
4.503822243E0,1.407577872E0,-9.665208817E0,-1.393819153E-1
4.508598753E0,1.421934843E0,-9.617352486E0,-1.058823988E-1
4.513375264E0,1.421934843E0,-9.549755096E0,-8.673982322E-2
4.518151722E0,1.407577872E0,-9.492327690E0,-7.178468257E-2
4.522928232E0,1.350748420E0,-9.454042435E0,-7.178468257E-2
4.527704691E0,1.317248821E0,-9.439684868E0,-9.092725813E-2
4.532481201E0,1.283749342E0,-9.419944763E0,-1.148554832E-1
4.537257712E0,1.240678549E0,-9.434899330E0,-1.381855011E-1
4.542034170E0,1.202393413E0,-9.454042435E0,-1.477568001E-1
4.546810680E0,1.159920812E0,-9.492925644E0,-1.668993831E-1
4.551587139E0,1.111466169E0,-9.540781975E0,-1.902294010E-1
4.556363649E0,1.083350420E0,-9.613164902E0,-1.998006850E-1
4.561140159E0,1.045065284E0,-9.671191216E0,-2.285145670E-1
4.565916618E0,9.930213690E-1,-9.729216576E0,-2.327020019E-1
4.570693128E0,9.553344250E-1,-9.781859398E0,-2.422732860E-1
4.575469587E0,9.032905698E-1,-9.815957069E0,-2.368894368E-1
4.580246097E0,8.745766878E-1,-9.849455833E0,-2.368894368E-1
4.585022607E0,8.841479421E-1,-9.883553505E0,-2.177468538E-1
4.589799066E0,8.799605370E-1,-9.931410789E0,-1.890329868E-1
4.594575576E0,9.134600163E-1,-9.965508461E0,-1.746760458E-1
4.599352034E0,9.373882413E-1,-9.984650612E0,-1.459621787E-1
4.604128545E0,9.661021233E-1,-1.000379372E1,-1.411765367E-1
4.608905055E0,9.852447510E-1,-9.974481583E0,-1.369891018E-1
4.613681514E0,1.027717352E0,-9.964909554E0,-1.369891018E-1
4.618458024E0,1.079761267E0,-9.936196327E0,-1.369891018E-1
4.623234482E0,1.108475089E0,-9.911669731E0,-1.519442350E-1
4.628010993E0,1.146760225E0,-9.887741089E0,-1.615155339E-1
4.632787503E0,1.180259824E0,-9.858428955E0,-1.615155339E-1
4.637563962E0,1.217946768E0,-9.844072342E0,-1.860419661E-1
4.642340472E0,1.222732425E0,-9.829715729E0,-2.003988922E-1
4.647116982E0,1.222134113E0,-9.796216011E0,-2.147558331E-1
4.651893441E0,1.207777262E0,-9.766903877E0,-2.243271172E-1
4.656669951E0,1.217348576E0,-9.723833084E0,-2.195414752E-1
4.661446409E0,1.188634634E0,-9.714262009E0,-2.051845491E-1
4.666222920E0,1.155733347E0,-9.695118904E0,-1.956132501E-1
4.670999430E0,1.131206870E0,-9.680762291E0,-1.423729509E-1
4.675775889E0,1.093519926E0,-9.685547829E0,-8.015955985E-2
4.680552399E0,1.046859860E0,-9.695118904E0,-2.213360928E-2
4.685328857E0,9.852447510E-1,-9.710074425E0,3.589234129E-2
4.690105368E0,9.284151793E-1,-9.729216576E0,9.870393574E-2
4.694881878E0,8.482556343E-1,-9.748957634E0,1.663011760E-1
4.699658337E0,7.818548083E-1,-9.739386559E0,2.093719840E-1
4.704434847E0,7.393822074E-1,-9.753743172E0,2.482553422E-1
4.709211357E0,6.969096065E-1,-9.763913155E0,2.721835673E-1
4.713987816E0,6.777670383E-1,-9.763913155E0,2.817548811E-1
4.718764326E0,6.634100676E-1,-9.763913155E0,2.967100143E-1
4.723540784E0,6.777670383E-1,-9.749555588E0,2.865405083E-1
4.728317295E0,7.202396393E-1,-9.744172096E0,2.769692242E-1
4.733093805E0,7.250252366E-1,-9.720243454E0,2.673979402E-1
4.737870264E0,7.441678643E-1,-9.725028992E0,2.721835673E-1
4.742646774E0,7.633104324E-1,-9.725028992E0,2.578266263E-1
4.747423232E0,7.633104324E-1,-9.734601021E0,2.530409992E-1
4.752199743E0,7.818548083E-1,-9.720243454E0,2.237289101E-1
4.756976253E0,8.009973764E-1,-9.725028992E0,2.189432681E-1
4.761752712E0,8.338986635E-1,-9.725028992E0,2.045863420E-1
4.766529222E0,8.434699774E-1,-9.715457916E0,1.854437590E-1
4.771305732E0,8.578268886E-1,-9.710074425E0,1.752742529E-1
4.776082191E0,8.859425783E-1,-9.705288887E0,1.704886109E-1
4.780858701E0,9.050851464E-1,-9.710074425E0,1.657029688E-1
4.785635159E0,9.146564603E-1,-9.695717812E0,1.752742529E-1
4.790411670E0,9.146564603E-1,-9.724431038E0,1.752742529E-1
4.795188180E0,9.146564603E-1,-9.724431038E0,1.752742529E-1
4.799964639E0,9.098708034E-1,-9.738788605E0,1.848455518E-1
4.804741149E0,8.865407705E-1,-9.763314247E0,1.896311939E-1
4.809517659E0,8.721838593E-1,-9.792028427E0,1.752742529E-1
4.814294118E0,8.291130662E-1,-9.816555023E0,1.615155339E-1
4.819070628E0,8.105686903E-1,-9.830911636E0,1.710868180E-1
4.823847087E0,7.914260626E-1,-9.854840279E0,1.615155339E-1
4.828623597E0,7.722834945E-1,-9.878767967E0,1.519442350E-1
4.833400107E0,7.441678643E-1,-9.903294563E0,1.573280841E-1
4.838176566E0,7.393822074E-1,-9.917651176E0,1.573280841E-1
4.842953076E0,7.585247755E-1,-9.917651176E0,1.716850251E-1
4.847729534E0,7.489534616E-1,-9.917651176E0,1.908276081E-1
4.852506045E0,7.489534616E-1,-9.893723488E0,2.243271172E-1
4.857282555E0,7.208378315E-1,-9.879366875E0,2.338984162E-1
4.862059014E0,7.112665176E-1,-9.879366875E0,2.530409992E-1
4.866835524E0,6.825526357E-1,-9.869794846E0,2.434697002E-1
4.871612034E0,6.586244106E-1,-9.850652695E0,2.440679073E-1
4.876388493E0,6.346961856E-1,-9.830911636E0,2.105683982E-1
4.881165003E0,6.299105883E-1,-9.792626381E0,1.866401732E-1
4.885941462E0,6.436693072E-1,-9.783055305E0,1.477568001E-1
4.890717972E0,6.245267391E-1,-9.763913155E0,1.286142170E-1
4.895494482E0,5.766702294E-1,-9.739984512E0,9.092725813E-2
4.900270941E0,5.718846321E-1,-9.730413437E0,9.571290761E-2
4.905047451E0,5.575276613E-1,-9.725627899E0,1.004985496E-1
4.909823962E0,5.623133183E-1,-9.705886841E0,1.100698411E-1
4.914600420E0,5.718846321E-1,-9.681958199E0,1.292124242E-1
4.919376930E0,5.958128572E-1,-9.681958199E0,1.531406492E-1
4.924153389E0,6.197410822E-1,-9.691530228E0,1.866401732E-1
4.928929899E0,6.394818425E-1,-9.720243454E0,2.201396823E-1
4.933706409E0,6.681957245E-1,-9.744770050E0,2.578266263E-1
4.938482868E0,6.873382926E-1,-9.763913155E0,2.817548811E-1
4.943259378E0,7.016952634E-1,-9.783055305E0,3.104687333E-1
4.948035889E0,7.160521746E-1,-9.783055305E0,3.296113312E-1
4.952812347E0,7.639086246E-1,-9.787840843E0,3.391826153E-1
4.957588857E0,7.830511928E-1,-9.792626381E0,3.487538993E-1
4.962365316E0,8.117650747E-1,-9.777671814E0,3.678964674E-1
4.967141826E0,8.303094506E-1,-9.772886276E0,3.822534084E-1
4.971918337E0,8.685946465E-1,-9.758528709E0,3.768695593E-1
4.976694795E0,9.110672474E-1,-9.748957634E0,3.625126183E-1
4.981471305E0,9.684949517E-1,-9.738788605E0,3.714857101E-1
4.986247816E0,9.966106415E-1,-9.734002113E0,3.619144261E-1
4.991024274E0,1.025324464E0,-9.738788605E0,3.475574851E-1
4.995800784E0,1.020538807E0,-9.719645500E0,3.332005441E-1
5.000577295E0,1.048654556E0,-9.724431038E0,3.182454109E-1
5.005353753E0,1.058225870E0,-9.734002113E0,2.991028428E-1
5.010130264E0,1.019940615E0,-9.738788605E0,2.608176768E-1
5.014906722E0,1.000798106E0,-9.743574142E0,2.518445849E-1
5.019683232E0,9.625129104E-1,-9.757930756E0,2.231307179E-1
5.024459743E0,9.296116233E-1,-9.777671814E0,2.087737769E-1
5.029236201E0,8.961120844E-1,-9.792028427E0,1.800599098E-1
5.034012712E0,8.769695163E-1,-9.811170578E0,1.609173268E-1
5.038789170E0,8.338986635E-1,-9.806385040E0,1.519442350E-1
5.043565680E0,8.003991842E-1,-9.821340561E0,1.328016520E-1
5.048342191E0,7.722834945E-1,-9.830911636E0,1.280160099E-1
5.053118701E0,7.579265833E-1,-9.845269203E0,1.232303679E-1
5.057895159E0,7.483552694E-1,-9.854840279E0,1.184447184E-1
5.062671670E0,7.483552694E-1,-9.859625816E0,8.494520187E-2
5.067448128E0,7.579265833E-1,-9.845269203E0,1.040877849E-1
5.072224639E0,7.387840152E-1,-9.840482712E0,1.088734269E-1
5.077001149E0,7.674978375E-1,-9.811769485E0,1.040877849E-1
5.081777607E0,7.674978375E-1,-9.787242889E0,1.184447184E-1
5.086554118E0,7.674978375E-1,-9.753743172E0,1.567298770E-1
5.091330576E0,7.722834945E-1,-9.720243454E0,1.663011760E-1
5.096107087E0,8.051848412E-1,-9.705288887E0,1.806581169E-1
5.100883597E0,8.009973764E-1,-9.690931320E0,2.093719840E-1
5.105660055E0,8.195417523E-1,-9.686145782E0,2.093719840E-1
5.110436566E0,8.291130662E-1,-9.690931320E0,2.045863420E-1
5.115213076E0,8.243274093E-1,-9.676574707E0,2.045863420E-1
5.119989534E0,8.434699774E-1,-9.681360245E0,1.902294010E-1
5.124766045E0,8.578268886E-1,-9.686145782E0,1.800599098E-1
5.129542555E0,8.668000102E-1,-9.705288887E0,1.609173268E-1
5.134319014E0,8.859425783E-1,-9.729216576E0,1.561316848E-1
5.139095524E0,8.907282352E-1,-9.753743172E0,1.657029688E-1
5.143872034E0,8.817551732E-1,-9.772886276E0,1.609173268E-1
5.148648493E0,8.817551732E-1,-9.768099785E0,1.800599098E-1
5.153425003E0,8.817551732E-1,-9.768099785E0,1.848455518E-1
5.158201462E0,8.626125455E-1,-9.763314247E0,2.045863420E-1
5.162977972E0,8.536394835E-1,-9.772886276E0,2.524427772E-1
5.167754482E0,8.584251404E-1,-9.806385040E0,2.859423161E-1
5.172530941E0,8.350951076E-1,-9.830911636E0,3.146561682E-1
5.177307451E0,8.356932998E-1,-9.869196892E0,3.678964674E-1
5.182083909E0,8.219345808E-1,-9.883553505E0,4.205385745E-1
5.186860420E0,8.219345808E-1,-9.912865639E0,4.253242314E-1
5.191636930E0,8.219345808E-1,-9.941579819E0,4.205385745E-1
5.196413389E0,8.123632669E-1,-9.946365356E0,3.966103494E-1
5.201189899E0,8.117650747E-1,-9.960722923E0,3.583251834E-1
5.205966409E0,8.356932998E-1,-9.951150894E0,3.050848842E-1
5.210742868E0,8.255237937E-1,-9.951150894E0,2.572284341E-1
5.215519378E0,8.440681696E-1,-9.927223206E0,2.093719840E-1
5.220295889E0,8.632107973E-1,-9.902696609E0,1.663011760E-1
5.225072347E0,8.913264275E-1,-9.873982430E0,1.322034448E-1
5.229848857E0,9.050851464E-1,-9.835099220E0,1.034895778E-1
5.234625368E0,9.194421172E-1,-9.811170578E0,8.913264424E-2
5.239401826E0,9.379864931E-1,-9.768099785E0,1.082752272E-1
5.244178337E0,9.475577474E-1,-9.738788605E0,1.028913707E-1
5.248954847E0,9.571290612E-1,-9.700503349E0,1.172483116E-1
5.253731305E0,9.571290612E-1,-9.686145782E0,1.172483116E-1
5.258507816E0,9.523434043E-1,-9.681360245E0,1.465603858E-1
5.263284274E0,9.523434043E-1,-9.666405678E0,1.561316848E-1
5.268060784E0,9.385846853E-1,-9.671789169E0,1.848455518E-1
5.272837295E0,9.433703423E-1,-9.681360245E0,2.039881349E-1
5.277613753E0,9.200403094E-1,-9.681360245E0,2.422732860E-1
5.282390264E0,9.104689956E-1,-9.710074425E0,2.614158690E-1
5.287166774E0,8.823533654E-1,-9.725028992E0,2.859423161E-1
5.291943232E0,8.398807645E-1,-9.739386559E0,3.146561682E-1
5.296719743E0,8.111668825E-1,-9.748957634E0,3.098705411E-1
5.301496253E0,9.098708034E-1,-9.695717812E0,2.087737769E-1
5.306272712E0,8.153542876E-1,-9.763314247E0,1.806581169E-1
5.311049222E0,6.729813814E-1,-9.792626381E0,2.727817893E-1
5.315825732E0,6.783652306E-1,-9.816555023E0,3.445664644E-1
5.320602191E0,7.214360237E-1,-9.783055305E0,4.354937077E-1
5.325378701E0,7.788637877E-1,-9.792626381E0,4.444667995E-1
5.330155159E0,7.974081635E-1,-9.811769485E0,4.157529473E-1
5.334931670E0,8.165507317E-1,-9.830911636E0,3.631108403E-1
5.339708180E0,9.062815905E-1,-9.825528145E0,3.194418252E-1
5.344484639E0,9.439685345E-1,-9.815957069E0,2.470589429E-1
5.349261149E0,9.248259664E-1,-9.801599503E0,2.183450609E-1
5.354037659E0,9.391828775E-1,-9.792028427E0,2.135594189E-1
5.358814118E0,9.870393276E-1,-9.806385040E0,2.374876440E-1
5.363590628E0,1.000798106E0,-9.830313683E0,2.374876440E-1
5.368367139E0,1.048654556E0,-9.868598938E0,2.512463629E-1
5.373143597E0,1.010967612E0,-9.863813400E0,2.422732860E-1
5.377920107E0,1.039083242E0,-9.888339996E0,2.368894368E-1
5.382696618E0,1.043868899E0,-9.882955551E0,2.225325108E-1
5.387473076E0,1.010369420E0,-9.878767967E0,1.986042857E-1
5.392249587E0,9.864411354E-1,-9.863813400E0,1.752742529E-1
5.397026097E0,9.768698215E-1,-9.854242325E0,1.704886109E-1
5.401802555E0,9.481559992E-1,-9.839884758E0,1.657029688E-1
5.406579066E0,9.337990284E-1,-9.835099220E0,1.417747438E-1
5.411355524E0,9.194421172E-1,-9.815957069E0,1.369891018E-1
5.416132034E0,9.242277741E-1,-9.796813965E0,1.322034448E-1
5.420908545E0,9.146564603E-1,-9.787242889E0,1.226321608E-1
5.425685003E0,9.098708034E-1,-9.772886276E0,1.130608693E-1
5.430461514E0,9.146564603E-1,-9.753743172E0,1.274178028E-1
5.435238024E0,9.242277741E-1,-9.743574142E0,1.274178028E-1
5.440014482E0,9.290133715E-1,-9.724431038E0,1.465603858E-1
5.444790993E0,9.337990284E-1,-9.719645500E0,1.513460279E-1
5.449567503E0,9.433703423E-1,-9.695717812E0,1.848455518E-1
5.454343962E0,9.672985673E-1,-9.695717812E0,1.992024779E-1
5.459120472E0,9.290133715E-1,-9.705288887E0,2.039881349E-1
5.463896982E0,9.385846853E-1,-9.705288887E0,1.992024779E-1
5.468673441E0,9.098708034E-1,-9.681360245E0,1.992024779E-1
5.473449951E0,8.865407705E-1,-9.690931320E0,1.992024779E-1
5.478226462E0,8.721838593E-1,-9.690931320E0,1.944168359E-1
5.483002920E0,8.721838593E-1,-9.695717812E0,1.896311939E-1
5.487779430E0,8.626125455E-1,-9.686145782E0,1.752742529E-1
5.492555941E0,8.721838593E-1,-9.705288887E0,1.704886109E-1
5.497332399E0,9.050851464E-1,-9.705288887E0,1.752742529E-1
5.502108909E0,9.577272534E-1,-9.705288887E0,1.704886109E-1
5.506885368E0,9.810572863E-1,-9.710074425E0,1.794617027E-1
5.511661878E0,1.028913736E0,-9.734002113E0,1.746760458E-1
5.516438389E0,1.062413216E0,-9.738788605E0,1.794617027E-1
5.521214847E0,1.100698471E0,-9.757930756E0,1.932204217E-1
5.525991357E0,1.124028444E0,-9.772287369E0,1.980060786E-1
5.530767868E0,1.148554921E0,-9.796216011E0,2.027917206E-1
5.535544326E0,1.148554921E0,-9.820143700E0,1.980060786E-1
5.540320837E0,1.129412293E0,-9.839884758E0,1.980060786E-1
5.545097347E0,1.115055323E0,-9.839884758E0,2.027917206E-1
5.549873805E0,1.100698471E0,-9.859027863E0,2.033899277E-1
5.554650316E0,1.058225870E0,-9.859027863E0,1.890329868E-1
5.559426826E0,1.015154958E0,-9.878170013E0,1.746760458E-1
5.564203284E0,9.768698215E-1,-9.859027863E0,1.752742529E-1
5.568979795E0,9.433703423E-1,-9.839884758E0,1.704886109E-1
5.573756305E0,8.913264275E-1,-9.835697174E0,1.752742529E-1
5.578532764E0,8.626125455E-1,-9.830911636E0,1.561316848E-1
5.583309274E0,8.673982024E-1,-9.826126099E0,1.561316848E-1
5.588085784E0,8.626125455E-1,-9.815957069E0,1.609173268E-1
5.592862243E0,8.673982024E-1,-9.811170578E0,1.561316848E-1
5.597638753E0,8.721838593E-1,-9.796813965E0,1.513460279E-1
5.602415264E0,8.817551732E-1,-9.787242889E0,1.704886109E-1
5.607191722E0,8.961120844E-1,-9.768099785E0,1.800599098E-1
5.611968232E0,9.008977413E-1,-9.768099785E0,1.896311939E-1
5.616744743E0,9.337990284E-1,-9.758528709E0,1.992024779E-1
5.621521201E0,9.481559992E-1,-9.743574142E0,2.183450609E-1
5.626297712E0,9.720842242E-1,-9.743574142E0,2.279163599E-1
5.631074222E0,9.864411354E-1,-9.738788605E0,2.518445849E-1
5.635850680E0,9.960124493E-1,-9.743574142E0,2.518445849E-1
5.640627191E0,9.960124493E-1,-9.748359680E0,2.662015259E-1
5.645403701E0,9.960124493E-1,-9.757930756E0,2.566302419E-1
5.650180159E0,1.000798106E0,-9.762716293E0,2.422732860E-1
5.654956670E0,9.864411354E-1,-9.757930756E0,2.279163599E-1
5.659733180E0,9.535398483E-1,-9.763314247E0,2.422732860E-1
5.664509639E0,9.535398483E-1,-9.782457352E0,2.374876440E-1
5.669286149E0,9.487541914E-1,-9.787242889E0,2.279163599E-1
5.674062607E0,9.439685345E-1,-9.777671814E0,2.374876440E-1
5.678839118E0,9.391828775E-1,-9.782457352E0,2.327020019E-1
5.683615628E0,9.152546525E-1,-9.777671814E0,2.135594189E-1
5.688392139E0,9.104689956E-1,-9.782457352E0,2.279163599E-1
5.693168597E0,8.721838593E-1,-9.777671814E0,2.285145670E-1
5.697945107E0,8.961120844E-1,-9.772886276E0,2.183450609E-1
5.702721566E0,8.913264275E-1,-9.763314247E0,2.374876440E-1
5.707498076E0,8.721838593E-1,-9.758528709E0,2.285145670E-1
5.712274587E0,8.721838593E-1,-9.748957634E0,2.428714931E-1
5.717051097E0,8.727820516E-1,-9.744172096E0,2.763710022E-1
5.721827555E0,8.823533654E-1,-9.729815483E0,2.907279432E-1
5.726604066E0,8.967102766E-1,-9.748957634E0,3.002992272E-1
5.731380576E0,9.110672474E-1,-9.748957634E0,3.146561682E-1
5.736157034E0,9.206385016E-1,-9.748957634E0,3.044866920E-1
5.740933545E0,9.302098155E-1,-9.739386559E0,3.188436031E-1
5.745710055E0,9.397810698E-1,-9.748957634E0,3.188436031E-1
5.750486514E0,9.445667267E-1,-9.758528709E0,3.284149170E-1
5.755263024E0,9.397810698E-1,-9.772886276E0,3.044866920E-1
5.760039534E0,9.302098155E-1,-9.777671814E0,2.949153781E-1
5.764815993E0,9.391828775E-1,-9.792028427E0,2.853440940E-1
5.769592503E0,9.391828775E-1,-9.801599503E0,2.757728100E-1
5.774368962E0,9.296116233E-1,-9.796813965E0,2.566302419E-1
5.779145472E0,9.296116233E-1,-9.811170578E0,2.087737769E-1
5.783921982E0,9.296116233E-1,-9.820742607E0,1.848455518E-1
5.788698441E0,9.200403094E-1,-9.825528145E0,1.561316848E-1
5.793474951E0,8.865407705E-1,-9.820742607E0,1.322034448E-1
5.798251462E0,8.673982024E-1,-9.815957069E0,1.226321608E-1
5.803027972E0,8.578268886E-1,-9.811170578E0,1.178465188E-1
5.807804430E0,8.434699774E-1,-9.826126099E0,1.232303679E-1
5.812580941E0,8.530412912E-1,-9.801599503E0,1.322034448E-1
5.817357451E0,8.721838593E-1,-9.792028427E0,1.417747438E-1
5.822133909E0,8.817551732E-1,-9.782457352E0,1.417747438E-1
5.826910420E0,9.242277741E-1,-9.748957634E0,1.513460279E-1
5.831686930E0,9.577272534E-1,-9.724431038E0,1.800599098E-1
5.836463389E0,9.672985673E-1,-9.705288887E0,1.944168359E-1
5.841239899E0,9.672985673E-1,-9.690931320E0,2.039881349E-1
5.846016409E0,9.720842242E-1,-9.656833649E0,2.183450609E-1
5.850792868E0,9.954141974E-1,-9.661619186E0,2.225325108E-1
5.855569378E0,9.960124493E-1,-9.656833649E0,2.368894368E-1
5.860345889E0,9.912267923E-1,-9.656833649E0,2.225325108E-1
5.865122347E0,1.024128079E0,-9.671191216E0,2.177468538E-1
5.869898857E0,1.052842021E0,-9.700503349E0,2.129612118E-1
5.874675368E0,1.048056364E0,-9.714859962E0,2.033899277E-1
5.879451826E0,1.043270707E0,-9.734002113E0,2.033899277E-1
5.884228337E0,1.024726272E0,-9.757930756E0,2.081755698E-1
5.889004847E0,1.005583763E0,-9.782457352E0,1.986042857E-1
5.893781305E0,9.672985673E-1,-9.830313683E0,1.944168359E-1
5.898557816E0,9.008977413E-1,-9.845269203E0,1.944168359E-1
5.903334326E0,8.721838593E-1,-9.854840279E0,1.854437590E-1
5.908110784E0,8.249256015E-1,-9.840482712E0,1.710868180E-1
5.912887295E0,7.770691514E-1,-9.830911636E0,1.567298770E-1
5.917663805E0,7.770691514E-1,-9.830911636E0,1.615155339E-1
5.922440264E0,7.962117195E-1,-9.826126099E0,1.328016520E-1
5.927216774E0,8.195417523E-1,-9.826126099E0,1.375873089E-1
5.931993284E0,8.530412912E-1,-9.806385040E0,1.178465188E-1
5.936769743E0,9.098708034E-1,-9.811170578E0,1.034895778E-1
5.941546253E0,9.619147182E-1,-9.772886276E0,1.076770201E-1
5.946322764E0,9.954141974E-1,-9.762716293E0,8.853443712E-2
5.951099222E0,1.018744230E0,-9.772287369E0,8.853443712E-2
5.955875732E0,1.028315544E0,-9.753145218E0,1.028913707E-1
5.960652243E0,1.037886858E0,-9.729216576E0,1.268195957E-1
5.965428753E0,1.014556766E0,-9.710074425E0,1.555334777E-1
5.970205212E0,9.954141974E-1,-9.686145782E0,1.842473447E-1
5.974981722E0,9.672985673E-1,-9.681360245E0,2.614158690E-1
5.979758180E0,9.439685345E-1,-9.681360245E0,3.044866920E-1
5.984534691E0,9.535398483E-1,-9.676574707E0,3.427718580E-1
5.989311201E0,9.535398483E-1,-9.671789169E0,3.571287692E-1
5.994087712E0,9.397810698E-1,-9.690931320E0,3.816552162E-1
5.998864170E0,9.254241586E-1,-9.700503349E0,3.864408433E-1
6.003640680E0,9.158528447E-1,-9.710074425E0,3.720839322E-1
6.008417191E0,9.302098155E-1,-9.734601021E0,3.332005441E-1
6.013193649E0,9.110672474E-1,-9.734601021E0,2.997010350E-1
6.017970159E0,9.200403094E-1,-9.753743172E0,2.470589429E-1
6.022746670E0,9.152546525E-1,-9.748957634E0,2.087737769E-1
6.027523128E0,9.146564603E-1,-9.753743172E0,1.752742529E-1
6.032299639E0,9.481559992E-1,-9.763314247E0,1.561316848E-1
6.037076149E0,9.810572863E-1,-9.762716293E0,1.459621787E-1
6.041852607E0,9.672985673E-1,-9.768099785E0,1.507478207E-1
6.046629118E0,9.768698215E-1,-9.772886276E0,1.944168359E-1
6.051405628E0,9.535398483E-1,-9.782457352E0,2.374876440E-1
6.056182087E0,9.535398483E-1,-9.787242889E0,2.757728100E-1
6.060958597E0,9.583254457E-1,-9.806385040E0,2.949153781E-1
6.065735107E0,9.535398483E-1,-9.801599503E0,2.997010350E-1
6.070511566E0,9.439685345E-1,-9.782457352E0,2.949153781E-1
6.075288076E0,9.535398483E-1,-9.796813965E0,2.709871531E-1
6.080064587E0,9.487541914E-1,-9.806385040E0,2.470589429E-1
6.084841097E0,9.768698215E-1,-9.792028427E0,2.087737769E-1
6.089617555E0,9.912267923E-1,-9.782457352E0,1.986042857E-1
6.094394066E0,1.010369420E0,-9.762716293E0,1.938186288E-1
6.099170524E0,1.028913736E0,-9.757930756E0,1.890329868E-1
6.103947034E0,1.024128079E0,-9.748359680E0,1.794617027E-1
6.108723545E0,1.024128079E0,-9.753145218E0,1.842473447E-1
6.113500055E0,1.038485050E0,-9.762716293E0,1.794617027E-1
6.118276514E0,1.043270707E0,-9.762716293E0,1.698904037E-1
6.123053024E0,1.067198873E0,-9.743574142E0,1.603191197E-1
6.127829534E0,1.071984529E0,-9.729216576E0,1.746760458E-1
6.132605993E0,1.052842021E0,-9.729216576E0,1.794617027E-1
6.137382503E0,1.000199914E0,-9.710074425E0,1.938186288E-1
6.142159014E0,9.433703423E-1,-9.700503349E0,2.422732860E-1
6.146935472E0,9.200403094E-1,-9.725028992E0,2.709871531E-1
6.151711982E0,8.775677085E-1,-9.748957634E0,2.715853751E-1
6.156488493E0,8.344969153E-1,-9.744172096E0,2.620140910E-1
6.161264951E0,8.063812256E-1,-9.763314247E0,2.620140910E-1
6.166041462E0,7.818548083E-1,-9.748957634E0,2.285145670E-1
6.170817972E0,7.962117195E-1,-9.748957634E0,2.141576260E-1
6.175594482E0,7.914260626E-1,-9.748957634E0,1.854437590E-1
6.180370941E0,8.147560954E-1,-9.753743172E0,1.567298770E-1
6.185147451E0,8.626125455E-1,-9.753743172E0,1.417747438E-1
6.189923962E0,8.955138922E-1,-9.768099785E0,1.322034448E-1
6.194700420E0,9.385846853E-1,-9.796813965E0,1.082752272E-1
6.199476930E0,9.379864931E-1,-9.777671814E0,9.870393574E-2
6.204253441E0,9.714859724E-1,-9.792028427E0,1.172483116E-1
6.209029899E0,9.954141974E-1,-9.801599503E0,1.076770201E-1
6.213806409E0,1.028913736E0,-9.801599503E0,1.028913707E-1
6.218582920E0,1.033699393E0,-9.792028427E0,1.124626622E-1
6.223359378E0,1.066600680E0,-9.786644936E0,9.750752151E-2
6.228135889E0,1.076171994E0,-9.806385040E0,1.070788130E-1
6.232912399E0,1.076171994E0,-9.801599503E0,1.070788130E-1
6.237688857E0,1.076171994E0,-9.796216011E0,1.118644550E-1
6.242465368E0,1.071386337E0,-9.781859398E0,1.214357466E-1
6.247241878E0,1.057029366E0,-9.786644936E0,1.124626622E-1
6.252018389E0,1.052243710E0,-9.792028427E0,9.810572863E-2
6.256794847E0,1.047458172E0,-9.792028427E0,9.332008660E-2
6.261571357E0,1.052243710E0,-9.801599503E0,8.374879509E-2
6.266347868E0,1.047458172E0,-9.792028427E0,8.374879509E-2
6.271124326E0,1.052243710E0,-9.777072906E0,6.400800496E-2
6.275900837E0,1.028315544E0,-9.772287369E0,7.417750359E-2
6.280677347E0,1.013958573E0,-9.772287369E0,7.417750359E-2
6.285453805E0,1.004985452E0,-9.757930756E0,9.332008660E-2
6.290230316E0,1.000199914E0,-9.757930756E0,1.220339537E-1
6.295006826E0,9.954141974E-1,-9.743574142E0,1.411765367E-1
6.299783284E0,9.906286001E-1,-9.734002113E0,1.651047617E-1
6.304559795E0,9.912267923E-1,-9.719645500E0,1.890329868E-1
6.309336305E0,9.960124493E-1,-9.724431038E0,2.129612118E-1
6.314112816E0,9.960124493E-1,-9.724431038E0,2.225325108E-1
6.318889274E0,9.960124493E-1,-9.724431038E0,2.321037948E-1
6.323665784E0,9.912267923E-1,-9.729216576E0,2.225325108E-1
6.328442295E0,9.768698215E-1,-9.724431038E0,2.327020019E-1
6.333218753E0,9.481559992E-1,-9.738788605E0,2.183450609E-1
6.337995264E0,9.152546525E-1,-9.753743172E0,2.087737769E-1
6.342771774E0,8.961120844E-1,-9.758528709E0,1.992024779E-1
6.347548232E0,8.673982024E-1,-9.763314247E0,1.800599098E-1
6.352324743E0,8.482556343E-1,-9.772886276E0,1.615155339E-1
6.357101253E0,8.243274093E-1,-9.792028427E0,1.328016520E-1
6.361877764E0,8.291130662E-1,-9.787242889E0,1.040877849E-1
6.366654222E0,8.291130662E-1,-9.792028427E0,7.956135273E-2
6.371430732E0,8.380861282E-1,-9.801599503E0,4.127619043E-2
6.376207243E0,8.668000102E-1,-9.796813965E0,4.127619043E-2
6.380983701E0,8.901300430E-1,-9.796813965E0,3.649054468E-2
6.385760212E0,9.236295223E-1,-9.796813965E0,2.153540403E-2
6.390536722E0,9.427721500E-1,-9.787242889E0,5.024927482E-2
6.395313180E0,9.619147182E-1,-9.787242889E0,6.939185411E-2
6.400089691E0,9.858429432E-1,-9.787242889E0,1.076770201E-1
6.404866201E0,1.004985452E0,-9.782457352E0,1.411765367E-1
6.409642712E0,1.028913736E0,-9.792028427E0,1.603191197E-1
6.414419170E0,1.043270707E0,-9.820742607E0,1.698904037E-1
6.419195680E0,1.057627559E0,-9.815957069E0,1.603191197E-1
6.423972191E0,1.048056364E0,-9.820742607E0,1.555334777E-1
6.428748649E0,1.057627559E0,-9.811170578E0,1.555334777E-1
6.433525159E0,1.057627559E0,-9.815957069E0,1.411765367E-1
6.438301670E0,1.057627559E0,-9.811170578E0,1.316052526E-1
6.443078128E0,1.024128079E0,-9.811170578E0,1.268195957E-1
6.447854639E0,1.000199914E0,-9.815957069E0,1.363908947E-1
6.452631149E0,9.672985673E-1,-9.801599503E0,1.268195957E-1
6.457407659E0,9.242277741E-1,-9.787242889E0,1.369891018E-1
6.462184118E0,8.817551732E-1,-9.787242889E0,1.369891018E-1
6.466960628E0,8.668000102E-1,-9.777671814E0,1.178465188E-1
6.471737139E0,8.338986635E-1,-9.763314247E0,1.130608693E-1
6.476513597E0,8.380861282E-1,-9.758528709E0,8.913264424E-2
6.481290107E0,8.380861282E-1,-9.739386559E0,8.913264424E-2
6.486066618E0,8.333004713E-1,-9.710074425E0,1.082752272E-1
6.490843128E0,8.285148144E-1,-9.710672379E0,1.178465188E-1
6.495619587E0,8.572286963E-1,-9.705288887E0,1.465603858E-1
6.500396097E0,8.769695163E-1,-9.710074425E0,1.752742529E-1
6.505172555E0,8.865407705E-1,-9.719645500E0,2.039881349E-1
6.509949066E0,9.104689956E-1,-9.734601021E0,2.087737769E-1
6.514725576E0,9.146564603E-1,-9.710074425E0,2.087737769E-1
6.519502087E0,9.433703423E-1,-9.710074425E0,2.087737769E-1
6.524278545E0,9.768698215E-1,-9.710074425E0,2.135594189E-1
6.529055055E0,9.816554785E-1,-9.714859962E0,2.135594189E-1
6.533831566E0,9.816554785E-1,-9.734002113E0,2.039881349E-1
6.538608076E0,9.290133715E-1,-9.734002113E0,2.087737769E-1
6.543384534E0,9.487541914E-1,-9.758528709E0,2.279163599E-1
6.548161045E0,9.391828775E-1,-9.801599503E0,2.231307179E-1
6.552937555E0,9.487541914E-1,-9.835099220E0,1.800599098E-1
6.557714014E0,9.385846853E-1,-9.854840279E0,1.417747438E-1
6.562490524E0,8.955138922E-1,-9.845269203E0,1.082752272E-1
6.567267034E0,8.859425783E-1,-9.835697174E0,9.870393574E-2
6.572043493E0,9.385846853E-1,-9.864411354E0,9.870393574E-2
6.576820003E0,1.024128079E0,-9.897911072E0,7.417750359E-2
6.581596514E0,1.023529887E0,-9.897911072E0,2.632104978E-2
6.586373024E0,9.810572863E-1,-9.859027863E0,1.196411345E-2
6.591149482E0,9.571290612E-1,-9.811170578E0,3.589234129E-2
6.595925993E0,1.071386337E0,-9.835099220E0,4.486542568E-2
6.600702503E0,1.071386337E0,-9.835099220E0,4.007977992E-2
6.605478962E0,9.948160052E-1,-9.777072906E0,4.067798331E-2
6.610255472E0,1.028315544E0,-9.734002113E0,1.028913707E-1
6.615031982E0,1.100100160E0,-9.748359680E0,1.597209126E-1
6.619808493E0,1.090528965E0,-9.762716293E0,1.405783296E-1
6.624584951E0,9.954141974E-1,-9.724431038E0,1.172483116E-1
6.629361462E0,9.762716293E-1,-9.714859962E0,1.459621787E-1
6.634137972E0,9.714859724E-1,-9.710074425E0,1.507478207E-1
6.638914482E0,9.529415965E-1,-9.695717812E0,1.657029688E-1
6.643690941E0,1.000199914E0,-9.705288887E0,1.507478207E-1
6.648467451E0,9.906286001E-1,-9.700503349E0,1.459621787E-1
6.653243962E0,9.571290612E-1,-9.690931320E0,1.316052526E-1
6.658020420E0,9.284151793E-1,-9.695717812E0,1.274178028E-1
6.662796930E0,9.284151793E-1,-9.690931320E0,1.178465188E-1
6.667573441E0,9.194421172E-1,-9.714859962E0,1.178465188E-1
6.672349899E0,9.098708034E-1,-9.710074425E0,1.369891018E-1
6.677126409E0,9.050851464E-1,-9.710074425E0,1.369891018E-1
6.681902920E0,8.955138922E-1,-9.719645500E0,1.513460279E-1
6.686679430E0,9.050851464E-1,-9.719645500E0,1.417747438E-1
6.691455889E0,8.955138922E-1,-9.724431038E0,1.465603858E-1
6.696232399E0,8.859425783E-1,-9.739386559E0,1.369891018E-1
6.701008909E0,8.811569214E-1,-9.768099785E0,1.274178028E-1
6.705785368E0,8.955138922E-1,-9.768099785E0,1.178465188E-1
6.710561878E0,9.002995491E-1,-9.782457352E0,9.870393574E-2
6.715338389E0,9.194421172E-1,-9.796813965E0,7.477571070E-2
6.720114899E0,9.236295223E-1,-9.806385040E0,6.520441920E-2
6.724891357E0,9.523434043E-1,-9.820742607E0,4.067798331E-2
6.729667868E0,9.619147182E-1,-9.835099220E0,1.674975827E-2
6.734444378E0,9.708877802E-1,-9.854242325E0,-1.196411345E-2
6.739220837E0,9.852447510E-1,-9.863813400E0,-1.196411345E-2
6.743997347E0,9.852447510E-1,-9.878170013E0,-3.110669367E-2
6.748773857E0,9.804590940E-1,-9.835099220E0,-3.110669367E-2
6.753550368E0,9.948160052E-1,-9.820742607E0,-2.632104978E-2
6.758326826E0,9.852447510E-1,-9.820742607E0,-4.067798331E-2
6.763103337E0,9.756734371E-1,-9.792028427E0,-1.196411345E-2
6.767879847E0,9.619147182E-1,-9.767501831E0,3.589234129E-2
6.772656305E0,9.571290612E-1,-9.743574142E0,5.982056633E-2
6.777432816E0,9.523434043E-1,-9.729216576E0,1.172483116E-1
6.782209326E0,9.385846853E-1,-9.734002113E0,1.417747438E-1
6.786985837E0,9.146564603E-1,-9.729216576E0,1.513460279E-1
6.791762295E0,9.002995491E-1,-9.724431038E0,1.417747438E-1
6.796538805E0,9.050851464E-1,-9.700503349E0,1.417747438E-1
6.801315316E0,9.002995491E-1,-9.705288887E0,1.178465188E-1
6.806091826E0,8.811569214E-1,-9.719645500E0,1.226321608E-1
6.810868284E0,8.811569214E-1,-9.714859962E0,1.322034448E-1
6.815644795E0,8.763712645E-1,-9.714859962E0,1.609173268E-1
6.820421305E0,8.626125455E-1,-9.734601021E0,1.704886109E-1
6.825197764E0,8.482556343E-1,-9.729815483E0,1.950150430E-1
6.829974274E0,8.626125455E-1,-9.753743172E0,2.141576260E-1
6.834750784E0,8.673982024E-1,-9.753743172E0,2.237289101E-1
6.839527295E0,8.865407705E-1,-9.763314247E0,2.476571500E-1
6.844303753E0,9.008977413E-1,-9.772886276E0,2.518445849E-1
6.849080264E0,9.056833982E-1,-9.768099785E0,2.566302419E-1
6.853856774E0,9.152546525E-1,-9.782457352E0,2.374876440E-1
6.858633284E0,9.008977413E-1,-9.782457352E0,2.279163599E-1
6.863409743E0,9.008977413E-1,-9.782457352E0,1.896311939E-1
6.868186253E0,8.817551732E-1,-9.782457352E0,1.609173268E-1
6.872962764E0,8.865407705E-1,-9.811769485E0,1.226321608E-1
6.877739222E0,8.811569214E-1,-9.826126099E0,7.956135273E-2
6.882515732E0,9.050851464E-1,-9.850054741E0,4.127619043E-2
6.887292243E0,9.379864931E-1,-9.850054741E0,1.196411345E-2
6.892068753E0,9.523434043E-1,-9.830313683E0,7.178467698E-3
6.896845212E0,9.804590940E-1,-9.830313683E0,-7.178467698E-3
6.901621722E0,9.996016622E-1,-9.820742607E0,-2.392822644E-3
6.906398232E0,1.009172916E0,-9.825528145E0,-7.178467698E-3
6.911174691E0,1.018744230E0,-9.825528145E0,1.196411345E-2
6.915951201E0,1.033101201E0,-9.792028427E0,2.572284266E-2
6.920727712E0,1.018744230E0,-9.792028427E0,3.589234129E-2
6.925504222E0,1.009172916E0,-9.772886276E0,4.546362907E-2
6.930280680E0,1.004387259E0,-9.743574142E0,5.024927482E-2
6.935057191E0,1.018744230E0,-9.714859962E0,5.024927482E-2
6.939833701E0,1.013958573E0,-9.671789169E0,4.067798331E-2
6.944610212E0,1.018146038E0,-9.642477036E0,4.007977992E-2
6.949386670E0,1.027717352E0,-9.642477036E0,5.922235921E-2
6.954163180E0,1.027717352E0,-9.661619186E0,5.443671346E-2
6.958939691E0,1.042672515E0,-9.675976753E0,6.400800496E-2
6.963716201E0,1.023529887E0,-9.690931320E0,6.939185411E-2
6.968492659E0,1.009172916E0,-9.710074425E0,9.332008660E-2
6.973269170E0,1.019342422E0,-9.729216576E0,1.124626622E-1
6.978045680E0,1.014556766E0,-9.777671814E0,1.411765367E-1
6.982822139E0,1.019342422E0,-9.787242889E0,1.746760458E-1
6.987598649E0,1.039083242E0,-9.796813965E0,2.177468538E-1
6.992375159E0,1.043868899E0,-9.806385040E0,2.560320199E-1
6.997151670E0,1.049252748E0,-9.815957069E0,2.991028428E-1
7.001928128E0,1.054038405E0,-9.815957069E0,3.619144261E-1
7.006704639E0,1.049850941E0,-9.839884758E0,4.241278172E-1
7.011481149E0,1.050449133E0,-9.839884758E0,4.767699242E-1
7.016257607E0,1.031306505E0,-9.845269203E0,5.102694035E-1
7.021034118E0,1.021735311E0,-9.840482712E0,5.198407173E-1
7.025810628E0,1.021735311E0,-9.825528145E0,5.150550604E-1
7.030587139E0,1.031306505E0,-9.835099220E0,4.624129832E-1
7.035363597E0,1.040279627E0,-9.825528145E0,3.954139352E-1
7.040140107E0,1.034895778E0,-9.825528145E0,2.943171859E-1
7.044916618E0,1.019940615E0,-9.820742607E0,1.986042857E-1
7.049693128E0,9.858429432E-1,-9.811170578E0,9.332008660E-2
7.054469587E0,9.708877802E-1,-9.787242889E0,-1.196411345E-2
7.059246097E0,9.517452121E-1,-9.796813965E0,-7.417750359E-2
7.064022607E0,9.086744189E-1,-9.787242889E0,-9.810572863E-2
7.068799118E0,8.895317912E-1,-9.792028427E0,-8.853443712E-2
7.073575576E0,8.518448472E-1,-9.792028427E0,-5.922235921E-2
7.078352087E0,8.189435601E-1,-9.777671814E0,-2.093719877E-2
7.083128597E0,7.998009920E-1,-9.758528709E0,3.649054468E-2
7.087905107E0,7.812566161E-1,-9.772886276E0,9.451649338E-2
7.092681566E0,7.627122402E-1,-9.787840843E0,1.519442350E-1
7.097458076E0,7.674978375E-1,-9.797411919E0,1.663011760E-1
7.102234587E0,8.009973764E-1,-9.792626381E0,1.663011760E-1
7.107011097E0,8.721838593E-1,-9.796813965E0,1.417747438E-1
7.111787555E0,9.242277741E-1,-9.811170578E0,1.082752272E-1
7.116564066E0,9.714859724E-1,-9.792028427E0,5.503492057E-2
7.121340576E0,1.004985452E0,-9.782457352E0,7.417750359E-2
7.126117034E0,1.061815023E0,-9.762716293E0,5.443671346E-2
7.130893545E0,1.066600680E0,-9.738788605E0,6.879365444E-2
7.135670264E0,1.080957651E0,-9.748359680E0,1.262213886E-1
7.140446514E0,1.109671474E0,-9.757930756E0,1.836491376E-1
7.145223024E0,1.119840980E0,-9.757930756E0,2.315055877E-1
7.149999534E0,1.177268744E0,-9.757930756E0,2.315055877E-1
7.154776045E0,1.191625714E0,-9.738788605E0,2.219343036E-1
7.159552555E0,1.210170031E0,-9.733404160E0,1.639083475E-1
7.164329014E0,1.210170031E0,-9.733404160E0,1.351944804E-1
7.169105524E0,1.181456208E0,-9.753145218E0,1.405783296E-1
7.173882034E0,1.186840057E0,-9.777072906E0,1.645065546E-1
7.178658545E0,1.172483087E0,-9.786644936E0,1.836491376E-1
7.183435003E0,1.172483087E0,-9.796216011E0,1.884347796E-1
7.188211514E0,1.124028444E0,-9.791430473E0,1.788634956E-1
7.192988024E0,1.114457130E0,-9.811170578E0,1.645065546E-1
7.197764482E0,1.104885817E0,-9.825528145E0,1.262213886E-1
7.202540993E0,1.090528965E0,-9.815957069E0,7.357929647E-2
7.207317503E0,1.052243710E0,-9.815957069E0,1.136590727E-2
7.212094014E0,1.046859860E0,-9.801599503E0,-4.127619043E-2
7.216870524E0,1.060618639E0,-9.781859398E0,-9.391828626E-2
7.221646982E0,1.051047325E0,-9.781859398E0,-1.274178028E-1
7.226423493E0,1.055832982E0,-9.767501831E0,-1.226321608E-1
7.231200003E0,1.089332461E0,-9.767501831E0,-1.280160099E-1
7.235976514E0,1.117448211E0,-9.767501831E0,-1.375873089E-1
7.240752972E0,1.146760225E0,-9.767501831E0,-1.423729509E-1
7.245529482E0,1.184447169E0,-9.767501831E0,-1.477568001E-1
7.250305993E0,1.217946768E0,-9.757332802E0,-1.573280841E-1
7.255082503E0,1.232303619E0,-9.747760773E0,-1.286142170E-1
7.259858962E0,1.222732425E0,-9.747760773E0,-1.238285750E-1
7.264635472E0,1.213161111E0,-9.752547264E0,-1.046859920E-1
7.269411982E0,1.204187989E0,-9.738189697E0,-9.032905847E-2
7.274188441E0,1.189831018E0,-9.738189697E0,-8.015955985E-2
7.278964951E0,1.151545882E0,-9.723833084E0,-7.537391037E-2
7.283741462E0,1.107876897E0,-9.719047546E0,-9.451649338E-2
7.288517972E0,1.098305583E0,-9.695118904E0,-8.973085135E-2
7.293294430E0,1.084546804E0,-9.680762291E0,-7.537391037E-2
7.298070941E0,1.098903775E0,-9.680762291E0,-5.623133108E-2
7.302847451E0,1.103689432E0,-9.666405678E0,-2.991028363E-3
7.307623962E0,1.122832060E0,-9.671191216E0,3.050848842E-2
7.312400420E0,1.128215909E0,-9.690333366E0,8.315058798E-2
7.317176930E0,1.128215909E0,-9.704689980E0,1.214357466E-1
7.321953441E0,1.114457130E0,-9.714859962E0,1.501496136E-1
7.326729951E0,1.076770186E0,-9.748359680E0,1.794617027E-1
7.331506409E0,1.019342422E0,-9.768099785E0,1.842473447E-1
7.336282920E0,9.672985673E-1,-9.763314247E0,1.752742529E-1
7.341059430E0,8.769695163E-1,-9.763314247E0,1.513460279E-1
7.345835941E0,8.147560954E-1,-9.748957634E0,1.280160099E-1
7.350612399E0,7.100701332E-1,-9.729815483E0,8.973085135E-2
7.355388909E0,6.095715761E-1,-9.720842361E0,5.204389244E-2
7.360165420E0,5.192425251E-1,-9.706484795E0,9.571290575E-3
7.364941930E0,4.474578202E-1,-9.711270332E0,-4.785645287E-3
7.369718389E0,3.762713671E-1,-9.720842361E0,-4.247260094E-2
7.374494899E0,2.949153781E-1,-9.735796928E0,-7.597211748E-2
7.379271409E0,2.141576260E-1,-9.750154495E0,-8.973085135E-2
7.384047920E0,1.716850251E-1,-9.765109062E0,-1.040877849E-1
7.388824378E0,1.429711580E-1,-9.793823242E0,-1.130608693E-1
7.393600889E0,1.094716340E-1,-9.784252167E0,-1.130608693E-1
7.398377399E0,9.092725813E-2,-9.798608780E0,-1.130608693E-1
7.403153909E0,1.004985496E-1,-9.823135376E0,-8.913264424E-2
7.407930368E0,9.571290761E-2,-9.847063065E0,-6.520441920E-2
7.412706878E0,1.058823988E-1,-9.851848602E0,-3.170489892E-2
7.417483389E0,1.154536903E-1,-9.861420631E0,-2.691925503E-2
7.422259899E0,1.393819153E-1,-9.870991707E0,-7.776673418E-3
7.427036357E0,1.393819153E-1,-9.880562782E0,1.136590727E-2
7.431812868E0,1.680957973E-1,-9.880562782E0,3.050848842E-2
7.436589378E0,2.201396823E-1,-9.885348320E0,4.965107143E-2
7.441365889E0,2.392822653E-1,-9.880562782E0,6.400800496E-2
7.446142347E0,2.488535494E-1,-9.870991707E0,9.750752151E-2
7.450918857E0,2.679961324E-1,-9.875777245E0,1.214357466E-1
7.455695368E0,2.871387303E-1,-9.875777245E0,1.304088384E-1
7.460471878E0,3.158525825E-1,-9.865608215E0,1.495514214E-1
7.465248337E0,3.254238665E-1,-9.860821724E0,1.399801224E-1
7.470024847E0,3.254238665E-1,-9.841679573E0,1.351944804E-1
7.474801357E0,3.302095234E-1,-9.822537422E0,1.399801224E-1
7.479577868E0,3.631108403E-1,-9.807581902E0,1.495514214E-1
7.484354326E0,3.918247223E-1,-9.798010826E0,1.441675574E-1
7.489130837E0,4.061816335E-1,-9.788438797E0,1.489532143E-1
7.493907347E0,4.253242314E-1,-9.778867722E0,1.489532143E-1
7.498683857E0,4.438686073E-1,-9.778867722E0,1.489532143E-1
7.503460316E0,4.725824594E-1,-9.788438797E0,1.393819153E-1
7.508236826E0,5.150550604E-1,-9.778867722E0,1.387837082E-1
7.513013337E0,5.533402562E-1,-9.768698692E0,1.339980662E-1
7.517789847E0,6.197410822E-1,-9.754341125E0,9.990034252E-2
7.522566357E0,7.004988194E-1,-9.753743172E0,6.580262631E-2
7.527342816E0,7.710871100E-1,-9.734601021E0,4.187439755E-2
7.532119326E0,8.901300430E-1,-9.729216576E0,7.776673418E-3
7.536895837E0,9.613165259E-1,-9.724431038E0,-1.196411345E-2
7.541672347E0,1.042074203E0,-9.724431038E0,-1.734796353E-2
7.546448805E0,1.118046403E0,-9.719047546E0,-1.794617064E-2
7.551225316E0,1.170688510E0,-9.719047546E0,-2.273181453E-2
7.556001826E0,1.213759303E0,-9.719047546E0,-8.374879137E-3
7.560778284E0,1.237687469E0,-9.728618622E0,1.196411322E-3
7.565554795E0,1.232901812E0,-9.733404160E0,5.982056726E-3
7.570331305E0,1.223330617E0,-9.752547264E0,-3.589233849E-3
7.575107816E0,1.200000525E0,-9.767501831E0,5.982056726E-3
7.579884326E0,1.180858016E0,-9.772287369E0,5.982056726E-3
7.584660784E0,1.190429211E0,-9.777072906E0,2.991028316E-2
7.589437295E0,1.195214868E0,-9.781859398E0,5.862415582E-2
7.594213805E0,1.176670551E0,-9.781859398E0,1.166501045E-1
7.598990316E0,1.172483087E0,-9.791430473E0,1.501496136E-1
7.603766774E0,1.172483087E0,-9.810572624E0,1.836491376E-1
7.608543284E0,1.158126116E0,-9.781859398E0,2.123630047E-1
7.613319795E0,1.144367456E0,-9.801001549E0,2.315055877E-1
7.618096305E0,1.105484009E0,-9.791430473E0,2.368894368E-1
7.622872764E0,1.076770186E0,-9.786644936E0,2.321037948E-1
7.627649274E0,1.038485050E0,-9.777072906E0,2.033899277E-1
7.632425784E0,9.912267923E-1,-9.796813965E0,1.507478207E-1
7.637202295E0,9.523434043E-1,-9.801599503E0,9.810572863E-2
7.641978805E0,9.140582681E-1,-9.815957069E0,3.649054468E-2
7.646755264E0,8.757730722E-1,-9.825528145E0,-2.572284266E-2
7.651531774E0,8.518448472E-1,-9.840482712E0,-6.400800496E-2
7.656308284E0,8.374879360E-1,-9.859625816E0,-1.214357466E-1
7.661084795E0,8.231309652E-1,-9.864411354E0,-1.501496136E-1
7.665861253E0,8.321040869E-1,-9.864411354E0,-1.890329868E-1
7.670637764E0,8.560323119E-1,-9.859625816E0,-2.129612118E-1
7.675414274E0,8.512466550E-1,-9.850054741E0,-2.177468538E-1
7.680190784E0,8.273184299E-1,-9.845269203E0,-2.081755698E-1
7.684967243E0,8.273184299E-1,-9.830911636E0,-1.692921966E-1
7.689743753E0,8.231309652E-1,-9.806385040E0,-1.214357466E-1
7.694520264E0,7.944171429E-1,-9.772886276E0,-8.315058798E-2
7.699296774E0,7.854440212E-1,-9.758528709E0,-3.529413417E-2
7.704073232E0,7.423732281E-1,-9.725028992E0,8.374879137E-3
7.708849743E0,7.142575383E-1,-9.696315765E0,3.708875179E-2
7.713626253E0,6.855437160E-1,-9.686744690E0,7.118647546E-2
7.718402764E0,6.574280262E-1,-9.710672379E0,6.640082598E-2
7.723179274E0,6.143572330E-1,-9.681958199E0,3.768695518E-2
7.727955732E0,5.952146053E-1,-9.681958199E0,4.187439568E-3
7.732732243E0,5.946164131E-1,-9.681958199E0,-3.888336942E-2
7.737508753E0,6.281159520E-1,-9.691530228E0,-6.281159073E-2
7.742285264E0,6.418746710E-1,-9.701101303E0,-8.733802289E-2
7.747061722E0,6.801598072E-1,-9.725028992E0,-9.212367237E-2
7.751838232E0,7.274180651E-1,-9.734601021E0,-1.112662554E-1
7.756614743E0,7.561319470E-1,-9.744172096E0,-1.070788130E-1
7.761391253E0,7.752745152E-1,-9.758528709E0,-1.022931710E-1
7.766167764E0,7.896314859E-1,-9.758528709E0,-8.793623000E-2
7.770944222E0,7.944171429E-1,-9.768099785E0,-7.357929647E-2
7.775720732E0,8.039883971E-1,-9.782457352E0,-5.443671346E-2
7.780497243E0,8.237292171E-1,-9.782457352E0,-2.093719877E-2
7.785273753E0,7.902296782E-1,-9.792626381E0,-2.093719877E-2
7.790050212E0,8.093722463E-1,-9.802198410E0,-1.136590727E-2
7.794826722E0,8.093722463E-1,-9.806983948E0,-2.093719877E-2
7.799603232E0,7.998009920E-1,-9.816555023E0,-2.572284266E-2
7.804379743E0,8.141579032E-1,-9.826126099E0,-4.486542568E-2
7.809156253E0,8.039883971E-1,-9.826126099E0,-7.836493850E-2
7.813932712E0,7.992027402E-1,-9.811769485E0,-1.166501045E-1
7.818709222E0,8.033902049E-1,-9.801599503E0,-1.692921966E-1
7.823485732E0,7.986045480E-1,-9.792028427E0,-2.123630047E-1
7.828262243E0,8.219345808E-1,-9.787242889E0,-2.321037948E-1
7.833038701E0,8.458628058E-1,-9.772886276E0,-2.512463629E-1
7.837815212E0,8.697910309E-1,-9.792028427E0,-2.464607358E-1
7.842591722E0,9.128618240E-1,-9.782457352E0,-1.986042857E-1
7.847368232E0,9.415757060E-1,-9.787242889E0,-1.651047617E-1
7.852144691E0,9.750752449E-1,-9.787242889E0,-1.322034448E-1
7.856921201E0,1.022931695E0,-9.767501831E0,-7.477571070E-2
7.861697712E0,1.070788145E0,-9.753145218E0,-2.691925503E-2
7.866474222E0,1.094716311E0,-9.753145218E0,4.007977992E-2
7.871250732E0,1.128215909E0,-9.762716293E0,8.315058798E-2
7.876027191E0,1.148554921E0,-9.767501831E0,1.501496136E-1
7.880803701E0,1.167697430E0,-9.757930756E0,1.980060786E-1
7.885580212E0,1.153938770E0,-9.777072906E0,2.410768867E-1
7.890356670E0,1.144367456E0,-9.767501831E0,2.650051117E-1
7.895133180E0,1.125224829E0,-9.781859398E0,2.943171859E-1
7.899909691E0,1.096511006E0,-9.777072906E0,2.799602449E-1
7.904686201E0,1.077368379E0,-9.767501831E0,2.560320199E-1
7.909462712E0,1.057627559E0,-9.738788605E0,2.081755698E-1
7.914239222E0,1.033699393E0,-9.729216576E0,1.746760458E-1
7.919015680E0,1.037886858E0,-9.710074425E0,1.363908947E-1
7.923792191E0,1.009172916E0,-9.705288887E0,9.810572863E-2
7.928568701E0,9.900303483E-1,-9.705288887E0,5.024927482E-2
7.933345212E0,9.996016622E-1,-9.700503349E0,2.153540403E-2
7.938121670E0,9.942178130E-1,-9.714859962E0,-3.170489892E-2
7.942898180E0,9.942178130E-1,-9.714859962E0,-6.999006122E-2
7.947674691E0,1.008574724E0,-9.710074425E0,-8.434699476E-2
7.952451201E0,9.990034699E-1,-9.724431038E0,-9.870393574E-2
7.957227712E0,9.942178130E-1,-9.738788605E0,-1.130608693E-1
7.962004170E0,9.846464992E-1,-9.762716293E0,-1.130608693E-1
7.966780680E0,9.846464992E-1,-9.767501831E0,-9.870393574E-2
7.971557191E0,9.565308690E-1,-9.792028427E0,-5.024927482E-2
7.976333701E0,9.565308690E-1,-9.801599503E0,-3.110669367E-2
7.981110212E0,9.475577474E-1,-9.811170578E0,-7.178467698E-3
7.985886670E0,9.236295223E-1,-9.820742607E0,1.674975827E-2
7.990663180E0,9.092726111E-1,-9.830313683E0,2.691925503E-2
7.995439691E0,8.811569214E-1,-9.826126099E0,2.691925503E-2
8.000216201E0,8.524430394E-1,-9.816555023E0,4.606183618E-2
8.004992659E0,8.141579032E-1,-9.811769485E0,2.213360928E-2
8.009769170E0,7.950153351E-1,-9.826126099E0,7.776673418E-3
8.014545680E0,7.764709592E-1,-9.816555023E0,1.794617064E-2
8.019322191E0,7.806583643E-1,-9.811769485E0,-1.076770201E-2
8.024098701E0,7.429714203E-1,-9.816555023E0,-2.033899166E-2
8.028875159E0,7.238288522E-1,-9.816555023E0,-1.076770201E-2
8.033651670E0,7.094719410E-1,-9.797411919E0,-1.196411322E-3
8.038428180E0,6.999006271E-1,-9.787840843E0,8.374879137E-3
8.043204691E0,6.903293133E-1,-9.768698692E0,3.708875179E-2
8.047981149E0,6.861419082E-1,-9.763913155E0,8.554340899E-2
8.052757659E0,7.004988194E-1,-9.749555588E0,1.094716340E-1
8.057534170E0,7.004988194E-1,-9.759127617E0,1.429711580E-1
8.062310680E0,7.004988194E-1,-9.739386559E0,1.525424421E-1
8.067087191E0,7.100701332E-1,-9.725028992E0,1.621137410E-1
8.071863649E0,7.387840152E-1,-9.720243454E0,1.423729509E-1
8.076640159E0,7.621139884E-1,-9.705886841E0,1.136590764E-1
8.081416670E0,7.668996453E-1,-9.701101303E0,8.494520187E-2
8.086193180E0,7.902296782E-1,-9.701101303E0,3.649054468E-2
8.090969691E0,8.183453679E-1,-9.681360245E0,-1.136590727E-2
8.095746149E0,8.231309652E-1,-9.671789169E0,-5.922235921E-2
8.100522659E0,8.416753411E-1,-9.690931320E0,-9.750752151E-2
8.105299170E0,8.560323119E-1,-9.676574707E0,-1.076770201E-1
8.110075680E0,8.841479421E-1,-9.676574707E0,-1.124626622E-1
8.114852191E0,8.895317912E-1,-9.676574707E0,-8.374879509E-2
8.119628649E0,8.943174481E-1,-9.676574707E0,-6.460621208E-2
8.124405159E0,9.086744189E-1,-9.671789169E0,-5.024927482E-2
8.129181670E0,9.134600163E-1,-9.681360245E0,-2.632104978E-2
8.133958180E0,9.421738982E-1,-9.695717812E0,-1.674975827E-2
8.138734639E0,9.661021233E-1,-9.719645500E0,7.178467698E-3
8.143511149E0,9.804590940E-1,-9.719645500E0,2.632104978E-2
8.148287659E0,1.028315544E0,-9.724431038E0,3.529413417E-2
8.153064170E0,1.052243710E0,-9.762716293E0,4.486542568E-2
8.157840680E0,1.066002488E0,-9.762716293E0,4.007977992E-2
8.162617139E0,1.080359459E0,-9.781859398E0,4.007977992E-2
8.167393649E0,1.075573802E0,-9.796216011E0,3.529413417E-2
8.172170159E0,1.075573802E0,-9.796216011E0,3.529413417E-2
8.176946670E0,1.047458172E0,-9.815957069E0,3.529413417E-2
8.181723180E0,1.033101201E0,-9.815957069E0,2.093719877E-2
8.186499639E0,1.023529887E0,-9.830313683E0,4.067798331E-2
8.191276149E0,1.009172916E0,-9.835099220E0,2.632104978E-2
8.196052659E0,9.996016622E-1,-9.839884758E0,2.392822644E-3
8.200829170E0,9.804590940E-1,-9.849455833E0,-1.196411345E-2
8.205605680E0,9.852447510E-1,-9.844670296E0,-6.460621208E-2
8.210382139E0,1.013360381E0,-9.844670296E0,-9.870393574E-2
8.215158649E0,1.046261668E0,-9.868598938E0,-1.513460279E-1
8.219935159E0,1.070189953E0,-9.863813400E0,-1.950150430E-1
8.224711670E0,1.098305583E0,-9.878170013E0,-2.428714931E-1
8.229488180E0,1.141376376E0,-9.878170013E0,-2.524427772E-1
8.234264639E0,1.146162033E0,-9.873384476E0,-2.913261652E-1
8.239041149E0,1.174875975E0,-9.863214493E0,-2.769692242E-1
8.243817659E0,1.193420291E0,-9.863214493E0,-2.721835673E-1
8.248594170E0,1.198804140E0,-9.853643417E0,-2.243271172E-1
8.253370680E0,1.194018483E0,-9.848857880E0,-1.908276081E-1
8.258147139E0,1.185045362E0,-9.834501266E0,-1.519442350E-1
8.262923649E0,1.146760225E0,-9.820143700E0,-1.136590764E-1
8.267700159E0,1.122832060E0,-9.796216011E0,-7.058826834E-2
8.272476670E0,1.094716311E0,-9.791430473E0,-2.213360928E-2
8.277253180E0,1.023529887E0,-9.782457352E0,1.136590727E-2
8.282029639E0,9.714859724E-1,-9.777671814E0,5.024927482E-2
8.286806149E0,9.236295223E-1,-9.768099785E0,8.434699476E-2
8.291582659E0,8.578268886E-1,-9.777671814E0,1.130608693E-1
8.296359170E0,8.243274093E-1,-9.763314247E0,1.375873089E-1
8.301135680E0,7.812566161E-1,-9.753743172E0,1.328016520E-1
8.305912139E0,7.722834945E-1,-9.763314247E0,1.280160099E-1
8.310688649E0,7.627122402E-1,-9.758528709E0,1.280160099E-1
8.315465159E0,7.812566161E-1,-9.739386559E0,9.930214286E-2
8.320241670E0,8.147560954E-1,-9.739386559E0,8.494520187E-2
8.325018180E0,8.285148144E-1,-9.744172096E0,8.434699476E-2
8.329794639E0,8.715856671E-1,-9.739386559E0,8.434699476E-2
8.334571149E0,9.044869542E-1,-9.744172096E0,6.999006122E-2
8.339347659E0,9.427721500E-1,-9.753743172E0,5.503492057E-2
8.344124170E0,9.762716293E-1,-9.768099785E0,4.546362907E-2
8.348900680E0,9.804590940E-1,-9.768099785E0,3.589234129E-2
8.353677139E0,9.996016622E-1,-9.787242889E0,2.153540403E-2
8.358453649E0,1.004387259E0,-9.796813965E0,1.674975827E-2
8.363230159E0,9.756734371E-1,-9.796813965E0,1.674975827E-2
8.368006670E0,9.619147182E-1,-9.811170578E0,3.589234129E-2
8.372783180E0,9.284151793E-1,-9.825528145E0,6.041877344E-2
8.377559639E0,8.955138922E-1,-9.815957069E0,1.082752272E-1
8.382336149E0,8.626125455E-1,-9.821340561E0,1.369891018E-1
8.387112659E0,8.434699774E-1,-9.821340561E0,1.663011760E-1
8.391889170E0,8.536394835E-1,-9.811769485E0,1.950150430E-1
8.396665680E0,8.488538265E-1,-9.802198410E0,2.141576260E-1
8.401442139E0,8.679963946E-1,-9.806983948E0,2.189432681E-1
8.406218649E0,8.727820516E-1,-9.816555023E0,2.428714931E-1
8.410995159E0,8.967102766E-1,-9.811769485E0,2.620140910E-1
8.415771670E0,9.062815905E-1,-9.821340561E0,2.763710022E-1
8.420548180E0,8.919246197E-1,-9.830911636E0,2.811566591E-1
8.425324639E0,8.775677085E-1,-9.835697174E0,2.763710022E-1
8.430101149E0,8.632107973E-1,-9.826126099E0,2.763710022E-1
8.434877659E0,8.297112584E-1,-9.797411919E0,2.428714931E-1
8.439654170E0,8.105686903E-1,-9.797411919E0,2.189432681E-1
8.444430680E0,7.818548083E-1,-9.768698692E0,2.045863420E-1
8.449207139E0,7.627122402E-1,-9.734601021E0,1.710868180E-1
8.453983649E0,7.387840152E-1,-9.705886841E0,1.663011760E-1
8.458760159E0,7.483552694E-1,-9.677172661E0,1.567298770E-1
8.463536670E0,7.387840152E-1,-9.658030510E0,1.471585929E-1
8.468313180E0,7.381857634E-1,-9.614361763E0,1.328016520E-1
8.473089691E0,7.525427341E-1,-9.580862045E0,1.232303679E-1
8.477866149E0,7.854440212E-1,-9.565906525E0,1.232303679E-1
8.482642659E0,8.237292171E-1,-9.590433121E0,1.274178028E-1
8.487419170E0,8.572286963E-1,-9.580264091E0,1.322034448E-1
8.492195680E0,8.811569214E-1,-9.604191780E0,1.417747438E-1
8.496972139E0,9.140582681E-1,-9.613762856E0,1.513460279E-1
8.501748649E0,9.385846853E-1,-9.647860527E0,1.657029688E-1
8.506525159E0,9.475577474E-1,-9.676574707E0,1.561316848E-1
8.511301670E0,9.672985673E-1,-9.710074425E0,1.698904037E-1
8.516078180E0,9.864411354E-1,-9.748957634E0,1.698904037E-1
8.520854691E0,1.005583763E0,-9.787242889E0,1.842473447E-1
8.525631149E0,1.005583763E0,-9.815957069E0,1.698904037E-1
8.530407659E0,1.015154958E0,-9.859625816E0,1.603191197E-1
8.535184170E0,1.015154958E0,-9.869196892E0,1.603191197E-1
8.539960680E0,1.000798106E0,-9.907482147E0,1.698904037E-1
8.544737191E0,1.000798106E0,-9.921838760E0,1.651047617E-1
8.549513649E0,1.005583763E0,-9.940981865E0,1.698904037E-1
8.554290159E0,9.918249846E-1,-9.931410789E0,1.752742529E-1
8.559066670E0,9.912267923E-1,-9.917053223E0,1.651047617E-1
8.563843180E0,9.912267923E-1,-9.888339996E0,1.555334777E-1
8.568619691E0,1.015154958E0,-9.873982430E0,1.411765367E-1
8.573396201E0,1.009771109E0,-9.844670296E0,1.316052526E-1
8.578172659E0,1.014556766E0,-9.844670296E0,1.268195957E-1
8.582949170E0,1.004985452E0,-9.835099220E0,1.268195957E-1
8.587725680E0,9.625129104E-1,-9.815957069E0,1.369891018E-1
8.592502191E0,9.529415965E-1,-9.811170578E0,1.322034448E-1
8.597278701E0,9.242277741E-1,-9.792028427E0,1.226321608E-1
8.602055159E0,9.002995491E-1,-9.787242889E0,1.130608693E-1
8.606831670E0,8.715856671E-1,-9.792028427E0,1.082752272E-1
8.611608180E0,8.243274093E-1,-9.782457352E0,8.913264424E-2
8.616384691E0,7.908278704E-1,-9.778269768E0,8.015955985E-2
8.621161201E0,7.573283911E-1,-9.778269768E0,6.101697683E-2
8.625937712E0,7.525427341E-1,-9.763913155E0,3.708875179E-2
8.630714170E0,7.094719410E-1,-9.763913155E0,2.273181453E-2
8.635490680E0,6.951149702E-1,-9.759127617E0,2.751746029E-2
8.640267191E0,6.909275651E-1,-9.759127617E0,4.187439755E-2
8.645043701E0,6.909275651E-1,-9.763913155E0,6.161518395E-2
8.649820212E0,7.004988194E-1,-9.773484230E0,8.554340899E-2
8.654596670E0,7.052844763E-1,-9.773484230E0,1.046859920E-1
8.659373180E0,7.196413875E-1,-9.759127617E0,1.429711580E-1
8.664149691E0,7.387840152E-1,-9.763913155E0,1.764706671E-1
8.668926201E0,7.770691514E-1,-9.753743172E0,2.045863420E-1
8.673702712E0,7.914260626E-1,-9.763314247E0,2.380858511E-1
8.678479222E0,8.201399446E-1,-9.763314247E0,2.572284341E-1
8.683255680E0,8.344969153E-1,-9.777671814E0,2.811566591E-1
8.688032191E0,8.536394835E-1,-9.782457352E0,2.811566591E-1
8.692808701E0,8.584251404E-1,-9.787242889E0,2.811566591E-1
8.697585212E0,8.871390224E-1,-9.787242889E0,2.620140910E-1
8.702361722E0,9.008977413E-1,-9.796813965E0,2.327020019E-1
8.707138180E0,9.056833982E-1,-9.787242889E0,2.039881349E-1
8.711914691E0,9.056833982E-1,-9.811170578E0,1.609173268E-1
8.716691201E0,8.961120844E-1,-9.820742607E0,1.322034448E-1
8.721467712E0,9.002995491E-1,-9.825528145E0,9.870393574E-2
8.726244222E0,8.907282352E-1,-9.830911636E0,6.999006122E-2
8.731020732E0,9.002995491E-1,-9.820742607E0,6.041877344E-2
8.735797191E0,8.763712645E-1,-9.806385040E0,6.999006122E-2
8.740573701E0,8.907282352E-1,-9.811170578E0,6.999006122E-2
8.745350212E0,8.811569214E-1,-9.806385040E0,7.477571070E-2
8.750126722E0,8.620143533E-1,-9.806385040E0,8.434699476E-2
8.754903232E0,8.859425783E-1,-9.811170578E0,8.434699476E-2
8.759679691E0,8.859425783E-1,-9.806385040E0,8.913264424E-2
8.764456201E0,9.002995491E-1,-9.801599503E0,1.082752272E-1
8.769232712E0,9.146564603E-1,-9.806385040E0,1.082752272E-1
8.774009222E0,9.242277741E-1,-9.796813965E0,9.391828626E-2
8.778785732E0,9.194421172E-1,-9.787242889E0,1.178465188E-1
8.783562243E0,9.337990284E-1,-9.772886276E0,1.274178028E-1
8.788338701E0,9.481559992E-1,-9.777671814E0,1.465603858E-1
8.793115212E0,9.577272534E-1,-9.758528709E0,1.561316848E-1
8.797891722E0,9.577272534E-1,-9.743574142E0,1.752742529E-1
8.802668232E0,9.768698215E-1,-9.743574142E0,1.746760458E-1
8.807444743E0,9.912267923E-1,-9.743574142E0,1.938186288E-1
8.812221253E0,1.005583763E0,-9.729216576E0,2.081755698E-1
8.816997712E0,1.010369420E0,-9.738788605E0,2.129612118E-1
8.821774222E0,1.010369420E0,-9.734002113E0,2.081755698E-1
8.826550732E0,1.024726272E0,-9.734002113E0,2.129612118E-1
8.831327243E0,1.038485050E0,-9.719645500E0,2.033899277E-1
8.836103753E0,1.043270707E0,-9.714859962E0,2.081755698E-1
8.840880264E0,1.038485050E0,-9.719645500E0,1.794617027E-1
8.845656722E0,1.028913736E0,-9.705288887E0,1.794617027E-1
8.850433232E0,1.019342422E0,-9.695717812E0,1.555334777E-1
8.855209743E0,1.000199914E0,-9.710074425E0,1.459621787E-1
8.859986253E0,1.019342422E0,-9.719645500E0,1.220339537E-1
8.864762764E0,1.014556766E0,-9.734002113E0,1.076770201E-1
8.869539222E0,1.000199914E0,-9.729216576E0,1.028913707E-1
8.874315732E0,9.906286001E-1,-9.734002113E0,7.417750359E-2
8.879092243E0,9.900303483E-1,-9.729216576E0,5.982056633E-2
8.883868753E0,1.009172916E0,-9.734002113E0,4.546362907E-2
8.888645264E0,1.009172916E0,-9.743574142E0,2.153540403E-2
8.893421774E0,1.033101201E0,-9.757930756E0,1.136590727E-2
8.898198232E0,1.022931695E0,-9.743574142E0,1.794616925E-3
8.902974743E0,1.037288666E0,-9.743574142E0,1.615155302E-2
8.907751253E0,1.046859860E0,-9.753145218E0,6.580262445E-3
8.912527764E0,1.046859860E0,-9.743574142E0,1.615155302E-2
8.917304274E0,1.028315544E0,-9.767501831E0,1.136590727E-2
8.922080784E0,1.042672515E0,-9.772287369E0,3.050848842E-2
8.926857243E0,1.042672515E0,-9.772287369E0,3.529413417E-2
8.931633753E0,1.047458172E0,-9.777671814E0,2.572284266E-2
8.936410264E0,1.033101201E0,-9.787242889E0,2.572284266E-2
8.941186774E0,1.018744230E0,-9.782457352E0,2.153540403E-2
8.945963284E0,1.009172916E0,-9.777671814E0,4.067798331E-2
8.950739795E0,9.996016622E-1,-9.763314247E0,3.589234129E-2
8.955516253E0,9.900303483E-1,-9.753743172E0,3.589234129E-2
8.960292764E0,9.900303483E-1,-9.738788605E0,4.067798331E-2
8.965069274E0,9.900303483E-1,-9.734002113E0,6.460621208E-2
8.969845784E0,1.000199914E0,-9.743574142E0,7.896314561E-2
8.974622295E0,1.000199914E0,-9.753743172E0,9.332008660E-2
8.979398805E0,9.954141974E-1,-9.753743172E0,9.810572863E-2
8.984175264E0,1.000199914E0,-9.748359680E0,1.124626622E-1
8.988951774E0,9.762716293E-1,-9.724431038E0,9.332008660E-2
8.993728284E0,9.852447510E-1,-9.710074425E0,6.939185411E-2
8.998504795E0,9.565308690E-1,-9.690931320E0,5.503492057E-2
9.003281305E0,9.140582681E-1,-9.667003632E0,6.460621208E-2
9.008057816E0,8.901300430E-1,-9.652647018E0,8.913264424E-2
9.012834274E0,8.668000102E-1,-9.676574707E0,1.513460279E-1
9.017610784E0,8.344969153E-1,-9.725028992E0,2.141576260E-1
9.022387295E0,8.111668825E-1,-9.763913155E0,2.811566591E-1
9.027163805E0,7.686942816E-1,-9.821340561E0,3.487538993E-1
9.031940316E0,7.501499057E-1,-9.841081619E0,3.966103494E-1
9.036716826E0,7.405785918E-1,-9.826724052E0,4.013960063E-1
9.041493337E0,7.639086246E-1,-9.778269768E0,3.774677813E-1
9.046269795E0,7.974081635E-1,-9.734601021E0,3.774677813E-1
9.051046305E0,8.727820516E-1,-9.676574707E0,3.625126183E-1
9.055822816E0,9.631111026E-1,-9.628718376E0,3.667000830E-1
9.060599326E0,1.043868899E0,-9.599406242E0,3.954139352E-1
9.065375837E0,1.110867858E0,-9.585049629E0,4.426721931E-1
9.070152347E0,1.164108157E0,-9.589237213E0,4.905286431E-1
9.074928805E0,1.193420291E0,-9.589237213E0,5.670989752E-1
9.079705316E0,1.226919770E0,-9.613164902E0,5.910272002E-1
9.084481826E0,1.226919770E0,-9.642477036E0,5.958128572E-1
9.089258337E0,1.226321578E0,-9.642477036E0,5.623133183E-1
9.094034847E0,1.211964726E0,-9.661619186E0,4.953143001E-1
9.098811357E0,1.154536963E0,-9.695118904E0,3.852444589E-1
9.103587816E0,1.100698471E0,-9.724431038E0,2.751746178E-1
9.108364326E0,1.019342422E0,-9.753145218E0,1.555334777E-1
9.113140837E0,9.667003751E-1,-9.792028427E0,5.982056633E-2
9.117917347E0,9.092726111E-1,-9.815957069E0,-3.110669367E-2
9.122693857E0,8.949156404E-1,-9.840482712E0,-7.417750359E-2
9.127470368E0,8.991031051E-1,-9.854840279E0,-1.268195957E-1
9.132246878E0,9.182456732E-1,-9.869196892E0,-1.603191197E-1
9.137023337E0,9.702895880E-1,-9.883553505E0,-1.752742529E-1
9.141799847E0,1.041476011E0,-9.893125534E0,-1.896311939E-1
9.146576357E0,1.103091240E0,-9.892526627E0,-2.045863420E-1
9.151352868E0,1.184447169E0,-9.897313118E0,-2.338984162E-1
9.156129378E0,1.246062398E0,-9.892526627E0,-2.482553422E-1
9.160905837E0,1.279561877E0,-9.872786522E0,-2.775674164E-1
9.165682347E0,1.317248821E0,-9.858428955E0,-2.919243574E-1
9.170458857E0,1.331605792E0,-9.868000984E0,-2.919243574E-1
9.175235368E0,1.331605792E0,-9.863214493E0,-2.823530734E-1
9.180011878E0,1.331605792E0,-9.853643417E0,-2.392822653E-1
9.184788389E0,1.332203984E0,-9.853643417E0,-1.962114573E-1
9.189564899E0,1.322632670E0,-9.844072342E0,-1.292124242E-1
9.194341409E0,1.299302697E0,-9.829715729E0,-5.682953820E-2
9.199117868E0,1.280758262E0,-9.824930191E0,2.931207791E-2
9.203894378E0,1.262213945E0,-9.805787086E0,1.256231815E-1
9.208670889E0,1.253240824E0,-9.801001549E0,1.974078715E-1
9.213447399E0,1.220339537E0,-9.786644936E0,2.410768867E-1
9.218223909E0,1.211366415E0,-9.781859398E0,2.937189937E-1
9.223000420E0,1.182652593E0,-9.767501831E0,3.367897868E-1
9.227776878E0,1.154536963E0,-9.762716293E0,3.565305769E-1
9.232553389E0,1.120439172E0,-9.753145218E0,3.373879790E-1
9.237329899E0,1.082154036E0,-9.762716293E0,3.182454109E-1
9.242106409E0,1.039083242E0,-9.763314247E0,2.799602449E-1
9.246882920E0,9.774680734E-1,-9.758528709E0,2.709871531E-1
9.251659430E0,9.529415965E-1,-9.758528709E0,2.183450609E-1
9.256435889E0,9.337990284E-1,-9.753743172E0,1.848455518E-1
9.261212399E0,9.050851464E-1,-9.772886276E0,1.513460279E-1
9.265988909E0,8.955138922E-1,-9.787242889E0,1.082752272E-1
9.270765420E0,9.050851464E-1,-9.787242889E0,9.870393574E-2
9.275541930E0,9.188438654E-1,-9.782457352E0,6.999006122E-2
9.280318441E0,9.140582681E-1,-9.772886276E0,6.041877344E-2
9.285094951E0,9.284151793E-1,-9.787242889E0,6.999006122E-2
9.289871409E0,9.475577474E-1,-9.792028427E0,6.939185411E-2
9.294647920E0,9.523434043E-1,-9.806385040E0,7.417750359E-2
9.299424430E0,9.619147182E-1,-9.806385040E0,5.982056633E-2
9.304200941E0,9.523434043E-1,-9.801599503E0,5.503492057E-2
9.308977451E0,9.284151793E-1,-9.806385040E0,4.546362907E-2
9.313753962E0,9.332008362E-1,-9.792028427E0,3.110669367E-2
9.318530472E0,9.236295223E-1,-9.782457352E0,-2.392822644E-3
9.323306930E0,9.188438654E-1,-9.782457352E0,-1.196411345E-2
9.328083441E0,9.182456732E-1,-9.768099785E0,-3.110669367E-2
9.332859951E0,9.038887620E-1,-9.758528709E0,-4.546362907E-2
9.337636462E0,9.182456732E-1,-9.772886276E0,-2.153540403E-2
9.342412972E0,9.092726111E-1,-9.787242889E0,-2.392822644E-3
9.347189482E0,9.236295223E-1,-9.811170578E0,3.110669367E-2
9.351965993E0,9.332008362E-1,-9.806385040E0,6.460621208E-2
9.356742451E0,9.337990284E-1,-9.811170578E0,9.870393574E-2
9.361518962E0,9.529415965E-1,-9.801599503E0,1.226321608E-1
9.366295472E0,9.385846853E-1,-9.782457352E0,1.417747438E-1
9.371071982E0,9.433703423E-1,-9.782457352E0,1.609173268E-1
9.375848493E0,9.433703423E-1,-9.777671814E0,1.992024779E-1
9.380625003E0,9.487541914E-1,-9.787242889E0,2.231307179E-1
9.385401514E0,9.583254457E-1,-9.792028427E0,2.374876440E-1
9.390177972E0,9.631111026E-1,-9.782457352E0,2.422732860E-1
9.394954482E0,9.726824164E-1,-9.763314247E0,2.757728100E-1
9.399730993E0,9.870393276E-1,-9.763314247E0,2.757728100E-1
9.404507503E0,9.870393276E-1,-9.744172096E0,2.901297510E-1
9.409284014E0,1.001396298E0,-9.729216576E0,2.949153781E-1
9.414060524E0,1.015154958E0,-9.719645500E0,2.949153781E-1
9.418836982E0,1.024726272E0,-9.724431038E0,2.799602449E-1
9.423613493E0,1.024726272E0,-9.695717812E0,2.608176768E-1
9.428390003E0,1.034297585E0,-9.700503349E0,2.512463629E-1
9.433166514E0,1.034297585E0,-9.700503349E0,2.416750938E-1
9.437943024E0,1.052842021E0,-9.714859962E0,2.177468538E-1
9.442719534E0,1.062413216E0,-9.719645500E0,2.033899277E-1
9.447496045E0,1.067198873E0,-9.714859962E0,2.033899277E-1
9.452272503E0,1.067198873E0,-9.743574142E0,1.986042857E-1
9.457049014E0,1.052842021E0,-9.762716293E0,1.986042857E-1
9.461825524E0,1.052842021E0,-9.767501831E0,1.938186288E-1
9.466602034E0,1.038485050E0,-9.767501831E0,1.938186288E-1
9.471378545E0,1.028913736E0,-9.767501831E0,1.986042857E-1
9.476155055E0,1.033699393E0,-9.753145218E0,1.938186288E-1
9.480931566E0,1.024128079E0,-9.753145218E0,1.842473447E-1
9.485708024E0,1.019342422E0,-9.748359680E0,1.698904037E-1
9.490484534E0,1.043270707E0,-9.767501831E0,1.651047617E-1
9.495261045E0,1.052842021E0,-9.777072906E0,1.603191197E-1
9.500037555E0,1.043270707E0,-9.777072906E0,1.411765367E-1
9.504814066E0,1.043270707E0,-9.792028427E0,1.316052526E-1
9.509590576E0,1.033699393E0,-9.792028427E0,1.172483116E-1
9.514367087E0,1.038485050E0,-9.792028427E0,1.028913707E-1
9.519143597E0,1.028315544E0,-9.781859398E0,8.853443712E-2
9.523920055E0,1.013958573E0,-9.772287369E0,6.939185411E-2
9.528696566E0,9.948160052E-1,-9.762716293E0,6.939185411E-2
9.533473076E0,1.009172916E0,-9.767501831E0,5.503492057E-2
9.538249587E0,1.009172916E0,-9.753145218E0,4.546362907E-2
9.543026097E0,1.004387259E0,-9.748359680E0,5.024927482E-2
9.547802607E0,1.018744230E0,-9.743574142E0,5.024927482E-2
9.552579118E0,1.018744230E0,-9.738788605E0,5.982056633E-2
9.557355576E0,1.028315544E0,-9.724431038E0,6.939185411E-2
9.562132087E0,1.052243710E0,-9.719645500E0,8.315058798E-2
9.566908597E0,1.061815023E0,-9.714859962E0,1.166501045E-1
9.571685107E0,1.061815023E0,-9.705288887E0,1.411765367E-1
9.576461618E0,1.076171994E0,-9.699904442E0,1.597209126E-1
9.581238128E0,1.076171994E0,-9.705288887E0,1.842473447E-1
9.586014639E0,1.085743308E0,-9.714859962E0,1.842473447E-1
9.590791149E0,1.076770186E0,-9.714859962E0,1.986042857E-1
9.595567607E0,1.071984529E0,-9.714859962E0,1.986042857E-1
9.600344118E0,1.057627559E0,-9.738788605E0,1.938186288E-1
9.605120628E0,1.062413216E0,-9.757930756E0,1.746760458E-1
9.609897139E0,1.043270707E0,-9.743574142E0,1.651047617E-1
9.614673649E0,1.052842021E0,-9.757930756E0,1.459621787E-1
9.619450159E0,1.061815023E0,-9.762716293E0,1.411765367E-1
9.624226670E0,1.052243710E0,-9.762716293E0,1.076770201E-1
9.629003128E0,1.052243710E0,-9.772287369E0,1.028913707E-1
9.633779639E0,1.052243710E0,-9.781859398E0,8.853443712E-2
9.638556149E0,1.061815023E0,-9.762716293E0,6.400800496E-2
9.643332659E0,1.061815023E0,-9.767501831E0,4.965107143E-2
9.648109170E0,1.057029366E0,-9.791430473E0,3.529413417E-2
9.652885680E0,1.066600680E0,-9.791430473E0,3.529413417E-2
9.657662191E0,1.075573802E0,-9.791430473E0,4.007977992E-2
9.662438701E0,1.076171994E0,-9.805787086E0,4.965107143E-2
9.667215159E0,1.085743308E0,-9.801001549E0,5.922235921E-2
9.671991670E0,1.085743308E0,-9.777072906E0,6.879365444E-2
9.676768180E0,1.090528965E0,-9.767501831E0,7.836493850E-2
9.681544691E0,1.085743308E0,-9.781859398E0,9.750752151E-2
9.686321201E0,1.085743308E0,-9.777072906E0,1.022931710E-1
9.691097712E0,1.090528965E0,-9.762716293E0,1.214357466E-1
9.695874222E0,1.080957651E0,-9.753145218E0,1.357926875E-1
9.700650680E0,1.071984529E0,-9.753145218E0,1.555334777E-1
9.705427191E0,1.067198873E0,-9.757930756E0,1.698904037E-1
9.710203701E0,1.071984529E0,-9.757930756E0,1.794617027E-1
9.714980212E0,1.062413216E0,-9.743574142E0,1.794617027E-1
9.719756722E0,1.057627559E0,-9.743574142E0,1.746760458E-1
9.724533232E0,1.057627559E0,-9.738788605E0,1.746760458E-1
9.729309743E0,1.057627559E0,-9.729216576E0,1.698904037E-1
9.734086253E0,1.057627559E0,-9.729216576E0,1.651047617E-1
9.738862764E0,1.052842021E0,-9.738788605E0,1.698904037E-1
9.743639222E0,1.033699393E0,-9.738788605E0,1.603191197E-1
9.748415732E0,1.033699393E0,-9.743574142E0,1.507478207E-1
9.753192243E0,1.024128079E0,-9.757930756E0,1.555334777E-1
9.757968753E0,1.009771109E0,-9.763314247E0,1.507478207E-1
9.762745264E0,1.009771109E0,-9.772886276E0,1.268195957E-1
