Time (s),Acceleration x (m/s^2),Acceleration y (m/s^2),Acceleration z (m/s^2)
9.000590225,2.188488486732575e+68,-2.7523339254040515e+68,-8.511003477772653e+67
9.005366684,2.167368527382983e+68,-2.7253247220835537e+68,-8.434596484633931e+67
9.010143142,2.146450342045567e+68,-2.6985900417238135e+68,-8.35889218547737e+67
9.014919653,2.1257320051770838e+68,-2.672127008266117e+68,-8.283883659207637e+67
9.019696111,2.1052116093235615e+68,-2.6459327731590193e+68,-8.209564052243708e+67
9.024472621,2.0848872649728865e+68,-2.620004515161631e+68,-8.135926578008625e+67
9.02924908,2.0647571004090573e+68,-2.594339440148941e+68,-8.062964516418575e+67
9.034025538,2.0448192615680438e+68,-2.568934780919159e+68,-7.990671213371434e+67
9.038802048,2.0250719118951904e+68,-2.5437877970030384e+68,-7.919040080234958e+67
9.043578507,2.0055132322041056e+68,-2.5188957744751155e+68,-7.848064593334757e+67
9.048354965,1.986141420536962e+68,-2.494256025766805e+68,-7.777738293442279e+67
9.053131475,1.9669546920261464e+68,-2.4698658894812844e+68,-7.708054785263019e+67
9.057907934,1.9479512787572005e+68,-2.4457227302101053e+68,-7.639007736925144e+67
9.062684444,1.9291294296329908e+68,-2.4218239383514653e+68,-7.570590879468712e+67
9.067460903,1.9104874102390438e+68,-2.398166929930083e+68,-7.502798006335736e+67
9.072237361,1.8920235027099952e+68,-2.374749146418608e+68,-7.435622972861281e+67
9.077013871,1.8737360055970996e+68,-2.3515680545605033e+68,-7.369059695765831e+67
9.08179033,1.8556232337367389e+68,-2.328621146194348e+68,-7.303102152649157e+67
9.086566788,1.8376835181198742e+68,-2.3059059380795015e+68,-7.237744381485856e+67
9.091343298,1.8199152057623858e+68,-2.2834199717230603e+68,-7.172980480122722e+67
9.096119757,1.8023166595762493e+68,-2.2611608132080323e+68,-7.108804605778012e+67
9.100896267,1.7848862582415072e+68,-2.2391260530226425e+68,-7.045210974542666e+67
9.105672725,1.7676223960789837e+68,-2.217313305890698e+68,-6.982193860883552e+67
9.110449184,1.7505234829236872e+68,-2.195720210602936e+68,-6.919747597148791e+67
9.115225694,1.7335879439988428e+68,-2.174344429849286e+68,-6.857866573075274e+67
9.120002153,1.7168142197904788e+68,-2.1531836500519713e+68,-6.79654523529847e+67
9.124778611,1.70020076592249e+68,-2.1322355811993788e+68,-6.735778086864667e+67
9.129555121,1.683746053032105e+68,-2.1114979566806155e+68,-6.67555968674575e+67
9.13433158,1.6674485666456967e+68,-2.0909685331206943e+68,-6.615884649356709e+67
9.139108038,1.6513068070548764e+68,-2.0706450902162839e+68,-6.556747644076098e+67
9.143884548,1.635319289192827e+68,-2.0505254305719471e+68,-6.498143394769689e+67
9.148661007,1.619484542510843e+68,-2.0306073795367894e+68,-6.440066679317553e+67
9.153437517,1.6038011108550474e+68,-2.0108887850414369e+68,-6.382512329144745e+67
9.158213975,1.5882675523432497e+68,-1.9913675174352609e+68,-6.325475228755749e+67
9.162990434,1.5728824392419402e+68,-1.9720414693237648e+68,-6.268950315272831e+67
9.167766944,1.5576443578434202e+68,-1.9529085554060704e+68,-6.212932577978412e+67
9.172543403,1.5425519083430646e+68,-1.9339667123124639e+68,-6.157417057861533e+67
9.177319861,1.5276037047167144e+68,-1.9152138984419705e+68,-6.102398847168457e+67
9.182096371,1.5127983745981785e+68,-1.8966480937999292e+68,-6.047873088957427e+67
9.18687283,1.4981345591568242e+68,-1.878267299835546e+68,-5.993834976657584e+67
9.19164934,1.4836109129752528e+68,-1.8600695392794018e+68,-5.940279753632019e+67
9.196425798,1.4692261039270797e+68,-1.842052855980891e+68,-5.887202712744907e+67
9.201202257,1.4549788130548458e+68,-1.8242153147455734e+68,-5.834599195932576e+67
9.205978767,1.4408677344480792e+68,-1.806555001172432e+68,-5.782464593778376e+67
9.210755225,1.4268915751215305e+68,-1.789070021491017e+68,-5.730794345091214e+67
9.215531684,1.4130490548936e+68,-1.771758502398478e+68,-5.679583936487581e+67
9.220308194,1.3993389062649811e+68,-1.7546185908964875e+68,-5.628828901976895e+67
9.225084653,1.3857598742975517e+68,-1.7376484541280873e+68,-5.578524822549961e+67
9.229861111,1.3723107164935242e+68,-1.7208462792144635e+68,-5.528667325770412e+67
9.234637621,1.3589902026748835e+68,-1.7042102730916685e+68,-5.479252085368942e+67
9.23941408,1.3457971148631349e+68,-1.6877386623472996e+68,-5.430274820840161e+67
9.24419059,1.332730247159385e+68,-1.671429693057156e+68,-5.3817312970419615e+67
9.248967048,1.3197884056247722e+68,-1.6552816306218993e+68,-5.3336173237972265e+67
9.253743507,1.3069704081612715e+68,-1.6392927596037395e+68,-5.285928755497692e+67
9.258520017,1.294275084392897e+68,-1.6234613835631593e+68,-5.238661490709805e+67
9.263296475,1.281701275547326e+68,-1.6077858248956935e+68,-5.1918114717824044e+67
9.268072934,1.2692478343379594e+68,-1.5922644246687738e+68,-5.145374684456093e+67
9.272849444,1.2569136248464482e+68,-1.5768955424586502e+68,-5.099347157474209e+67
9.277625903,1.2446975224057314e+68,-1.561677556187395e+68,-5.053724962195294e+67
9.282402361,1.2325984134836206e+68,-1.546608861959998e+68,-5.0085042122069447e+67
9.287178871,1.2206151955669808e+68,-1.5316878739015776e+68,-4.963681062940946e+67
9.29195533,1.2087467770465375e+68,-1.516913023994745e+68,-4.919251711289637e+67
9.29673184,1.1969920771023387e+68,-1.5022827619171416e+68,-4.875212395223547e+67
9.301508298,1.1853500255898977e+68,-1.4877955548791923e+68,-4.831559393410338e+67
9.306284757,1.1738195629270436e+68,-1.4734498874621227e+68,-4.788289024835125e+67
9.311061267,1.1623996399814987e+68,-1.459244261456294e+68,-4.7453976484221984e+67
9.315837725,1.1510892179592046e+68,-1.4451771956998926e+68,-4.702881662658199e+67
9.320614184,1.1398872682934144e+68,-1.431247225917999e+68,-4.6607375052167885e+67
9.325390694,1.1287927725345743e+68,-1.4174529045620606e+68,-4.6189616525848373e+67
9.330167153,1.1178047222410139e+68,-1.4037928006498016e+68,-4.5775506196901566e+67
9.334943663,1.1069221188704686e+68,-1.3902654996056138e+68,-4.536500959530788e+67
9.339720121,1.0961439736724488e+68,-1.3768696031014658e+68,-4.4958092628058533e+67
9.34449658,1.085469307581472e+68,-1.3636037288983688e+68,-4.455472157547944e+67
9.34927309,1.0748971511111734e+68,-1.3504665106884163e+68,-4.415486308757021e+67
9.354049548,1.0644265442493107e+68,-1.337456597937412e+68,-4.3758484180357665e+67
9.358826007,1.0540565363536783e+68,-1.3245726557281127e+68,-4.336555223226323e+67
9.363602517,1.0437861860489439e+68,-1.3118133646041213e+68,-4.297603498048347e+67
9.368378975,1.0336145611244096e+68,-1.2991774204144564e+68,-4.258990051738361e+67
9.373155434,1.0235407384327019e+68,-1.2866635341588303e+68,-4.220711728690377e+67
9.377931944,1.0135638037894017e+68,-1.2742704318336403e+68,-4.1827654080978437e+67
9.382708403,1.0036828518736215e+68,-1.2619968542786795e+68,-4.1451480035969216e+67
9.387484913,9.938969861295364e+67,-1.249841557024561e+68,-4.107856462911108e+67
9.392261371,9.84205318668863e+67,-1.237803310140846e+68,-4.0708877674972164e+67
9.39703783,9.746069701742767e+67,-1.2258808980848744e+68,-4.0342389321927244e+67
9.40181434,9.651010698037552e+67,-1.2140731195512916e+68,-3.997907004864517e+67
9.406590798,9.556867550958482e+67,-1.2023787873222633e+68,-3.96188906605907e+67
9.411367257,9.46363171875865e+67,-1.1907967281183797e+68,-3.926182228654133e+67
9.416143767,9.371294741629769e+67,-1.1793257824502504e+68,-3.890783637511974e+67
9.420920225,9.279848240782282e+67,-1.1679648044707928e+68,-3.855690469134238e+67
9.425696736,9.189283917534541e+67,-1.1567126618282161e+68,-3.8208999313184587e+67
9.430473194,9.099593552411163e+67,-1.145568235519689e+68,-3.786409262816293e+67
9.435249653,9.010769004250716e+67,-1.1345304197456778e+68,-3.7522157329935095e+67
9.440026163,8.922802209322831e+67,-1.1235981217649437e+68,-3.7183166414917534e+67
9.444802621,8.835685180454791e+67,-1.1127702617501896e+68,-3.6847093178921014e+67
9.44957908,8.749410006167667e+67,-1.1020457726443422e+68,-3.651391121380403e+67
9.45435559,8.663968849822167e+67,-1.0914236000174585e+68,-3.618359440414394e+67
9.459132048,8.579353948774285e+67,-1.0809027019242493e+68,-3.585611692392591e+67
9.463908507,8.495557613540698e+67,-1.0704820487622252e+68,-3.5531453233250005e+67
9.468685017,8.412572226973887e+67,-1.060160623130473e+68,-3.520957807505664e+67
9.473461475,8.330390243446929e+67,-1.0499374196890797e+68,-3.489046647187032e+67
9.478237986,8.249004188048005e+67,-1.0398114450192114e+68,-3.457409372256117e+67
9.483014444,8.168406655784627e+67,-1.029781717483856e+68,-3.426043539912435e+67
9.487790903,8.088590310797615e+67,-1.0198472670892492e+68,-3.3949467343477503e+67
9.492567413,8.009547885584828e+67,-1.0100071353469913e+68,-3.3641165664276433e+67
9.497343871,7.931272180234717e+67,-1.0002603751368511e+68,-3.333550673374947e+67
9.50212033,7.85375606166978e+67,-9.906060505702644e+67,-3.303246718455105e+67
9.50689684,7.776992462899957e+67,-9.81043236854532e+67,-3.2732023906635065e+67
9.511673298,7.70097438228596e+67,-9.715710201577288e+67,-3.243415404414827e+67
9.516449757,7.625694882812526e+67,-9.621884974743288e+67,-3.2138834992344344e+67
9.521226267,7.551147091371556e+67,-9.528947764915609e+67,-3.1846044394518836e+67
9.526002725,7.477324198055073e+67,-9.436889754565116e+67,-3.1555760138965106e+67
9.530779236,7.404219455457904e+67,-9.345702230439918e+67,-3.1267960355951386e+67
9.535555694,7.331826177989923e+67,-9.255376582251787e+67,-3.098262341471938e+67
9.540332153,7.260137741197709e+67,-9.165904301370461e+67,-3.069972792050476e+67
9.545108663,7.189147581095442e+67,-9.077276979525966e+67,-3.0419252711579786e+67
9.549885121,7.118849193504752e+67,-8.989486307519051e+67,-3.0141176856318344e+67
9.55466158,7.049236133403299e+67,-8.902524073939868e+67,-2.9865479650283855e+67
9.55943809,6.980302014281895e+67,-8.816382163895032e+67,-2.959214061334053e+67
9.564214548,6.912040507509965e+67,-8.731052557743216e+67,-2.9321139486788276e+67
9.568991007,6.844445341709193e+67,-8.646527329839446e+67,-2.905245623052168e+67
9.573767517,6.777510302135252e+67,-8.562798647288261e+67,-2.8786071020213194e+67
9.578543975,6.711229230067461e+67,-8.479858768705984e+67,-2.852196424452045e+67
9.583320486,6.64559602220632e+67,-8.397700042992263e+67,-2.826011650231755e+67
9.588096944,6.580604630078824e+67,-8.316314908111008e+67,-2.8000508599950263e+67
9.592873403,6.516249059451472e+67,-8.235695889880864e+67,-2.7743121548514835e+67
9.597649913,6.452523369750909e+67,-8.155835600775358e+67,-2.7487936561160263e+67
9.602426371,6.389421673492007e+67,-8.07672673873288e+67,-2.723493505041359e+67
9.60720283,6.326938135713271e+67,-7.998362085976584e+67,-2.6984098625527844e+67
9.61197934,6.265066973419413e+67,-7.920734507844309e+67,-2.6735409089852178e+67
9.616755798,6.203802455031038e+67,-7.843836951628701e+67,-2.648884843822428e+67
9.621532257,6.143138899841428e+67,-7.767662445427676e+67,-2.624439885438504e+67
9.626308767,6.083070677480403e+67,-7.692204097005388e+67,-2.600204270841551e+67
9.631085225,6.023592207385249e+67,-7.617455092663864e+67,-2.576176255419628e+67
9.635861736,5.964697958278749e+67,-7.543408696125515e+67,-2.5523541126889228e+67
9.640638194,5.906382447654342e+67,-7.470058247426712e+67,-2.5287361340441574e+67
9.645414653,5.848640241268385e+67,-7.397397161822611e+67,-2.5053206285112304e+67
9.650191163,5.791465952639502e+67,-7.325418928703446e+67,-2.4821059225021087e+67
9.654967621,5.734854242554924e+67,-7.25411711052243e+67,-2.4590903595719826e+67
9.65974408,5.678799818583797e+67,-7.183485341735394e+67,-2.4362723001786946e+67
9.66452059,5.623297434597372e+67,-7.113517327752241e+67,-2.4136501214444676e+67
9.669297048,5.568341890296025e+67,-7.044206843900275e+67,-2.391222216919963e+67
9.674073507,5.513928030743118e+67,-6.975547734399417e+67,-2.36898699635069e+67
9.678850017,5.460050745905698e+67,-6.907533911349371e+67,-2.3469428854458e+67
9.683626475,5.406704970201995e+67,-6.840159353728752e+67,-2.3250883256492988e+67
9.688402934,5.353885682055765e+67,-6.773418106406203e+67,-2.3034217739137147e+67
9.693179444,5.301587903457481e+67,-6.707304279163468e+67,-2.2819417024762577e+67
9.697955903,5.2498066995323836e+67,-6.641812045730371e+67,-2.2606465986375035e+67
9.702732413,5.1985371781153686e+67,-6.576935642831652e+67,-2.2395349645426367e+67
9.707508871,5.14777448933262e+67,-6.512669369245647e+67,-2.2186053169652686e+67
9.71228533,5.09751382518991e+67,-6.449007584874786e+67,-2.1978561870938432e+67
9.71706184,5.047750419167478e+67,-6.385944709827904e+67,-2.1772861203206484e+67
9.721838298,4.998479545821401e+67,-6.323475223514498e+67,-2.1568936760334444e+67
9.726614757,4.9496965203913757e+67,-6.26159366375112e+67,-2.136677427409729e+67
9.731391267,4.901396698414877e+67,-6.200294625880086e+67,-2.116635961213669e+67
9.736167725,4.853575475347671e+67,-6.139572761900682e+67,-2.096767877595728e+67
9.740944184,4.806228286190661e+67,-6.079422779613053e+67,-2.077071789895004e+67
9.745720694,4.759350605123024e+67,-6.01983944177491e+67,-2.0575463244442802e+67
9.750497153,4.7129379451415686e+67,-5.960817565271191e+67,-2.0381901203777847e+67
9.755273663,4.666985857706271e+67,-5.90235202029676e+67,-2.0190018294416744e+67
9.760050121,4.6214899323919524e+67,-5.844437729552229e+67,-1.999980115807254e+67
9.76482658,4.5764457965460586e+67,-5.787069667452974e+67,-1.9811236558869358e+67
9.76960309,4.5318491149524826e+67,-5.730242859351416e+67,-1.9624311381529214e+67
9.774379548,4.48769558950137e+67,-5.673952380772686e+67,-1.9439012629585795e+67
9.779156007,4.4439809588648043e+67,-5.618193356663697e+67,-1.925532742362504e+67
9.783932517,4.4007009981782776e+67,-5.562960960655738e+67,-1.9073242999552293e+67
9.788708975,4.3578515187278076e+67,-5.50825041434059e+67,-1.8892746706885885e+67
9.793485434,4.315428367642572e+67,-5.454056986560181e+67,-1.8713826007076884e+67
9.798261944,4.273427427592931e+67,-5.400375992709799e+67,-1.8536468471854785e+67
9.803038403,4.231844616493705e+67,-5.3472027940548365e+67,-1.8360661781598825e+67
9.807814861,4.190675887212586e+67,-5.294532797061001e+67,-1.8186393723734443e+67
9.812591371,4.149917227283532e+67,-5.242361452737922e+67,-1.8013652191154477e+67
9.81736783,4.109564658625017e+67,-5.19068425599606e+67,-1.784242518066485e+67
9.822144288,4.0696142372630184e+67,-5.139496745016805e+67,-1.7672700791454493e+67
9.826920798,4.030062053058639e+67,-5.0887945006356975e+67,-1.7504467223589245e+67
9.831697257,3.9909042294402907e+67,-5.0385731457387056e+67,-1.733771277652951e+67
9.836473767,3.9521369231403675e+67,-4.988828344671534e+67,-1.7172425847671624e+67
9.841250225,3.9137563239363545e+67,-4.939555802661883e+67,-1.7008594930912655e+67
9.846026684,3.8757586543963095e+67,-4.8907512652545047e+67,-1.6846208615238415e+67
9.850803194,3.8381401696286537e+67,-4.8424105177588504e+67,-1.6685255583334533e+67
9.855579653,3.800897157036178e+67,-4.7945293847091085e+67,-1.6525724610220404e+67
9.860356111,3.764025936074139e+67,-4.747103729336421e+67,-1.6367604561905813e+67
9.865132621,3.7275228580122794e+67,-4.700129453053055e+67,-1.621088439407002e+67
9.86990908,3.691384305700604e+67,-4.65360249494828e+67,-1.605555315076314e+67
9.87468559,3.6556066933386876e+67,-4.6075188312956546e+67,-1.5901599963129446e+67
9.879462048,3.6201864662483417e+67,-4.5618744750714404e+67,-1.5749014048152413e+67
9.884238507,3.585120100649476e+67,-4.5166654754838534e+67,-1.5597784707421307e+67
9.889015017,3.5504041034389776e+67,-4.4718879175128454e+67,-1.5447901325919304e+67
9.893791475,3.516035011972439e+67,-4.4275379214601206e+67,-1.5299353370833093e+67
9.898567934,3.482009393848565e+67,-4.383611642509084e+67,-1.5152130390384042e+67
9.903344444,3.4483238466961313e+67,-4.340105270294425e+67,-1.5006222012681002e+67
9.908120903,3.414974997963355e+67,-4.297015028481086e+67,-1.4861617944594714e+67
9.912897361,3.381959504709542e+67,-4.2543371743523814e+67,-1.471830797065386e+67
9.917673871,3.349274053398867e+67,-4.2120679984070404e+67,-1.4576281951962792e+67
9.92245033,3.3169153596961784e+67,-4.1702038239649564e+67,-1.4435529825140962e+67
9.927226788,3.284880168264702e+67,-4.1287410067814686e+67,-1.429604160128419e+67
9.932003298,3.25316525256555e+67,-4.0876759346699604e+67,-1.415780736494777e+67
9.936779757,3.221767414658949e+67,-4.047005027132595e+67,-1.4020817273151553e+67
9.941556215,3.190683485007139e+67,-4.006724734998982e+67,-1.3885061554407028e+67
9.946332725,3.1599103222788797e+67,-3.966831540072554e+67,-1.3750530507766474e+67
9.951109184,3.1294448131554735e+67,-3.9273219547844717e+67,-1.3617214501894213e+67
9.955885694,3.099283872138223e+67,-3.8881925218548983e+67,-1.348510397415986e+67
9.960662153,3.06942444135727e+67,-3.849439813961436e+67,-1.335418942975359e+67
9.965438611,3.0398634903817886e+67,-3.811060433414505e+67,-1.3224461440823412e+67
9.970215121,3.0105980160315244e+67,-3.7730510118394445e+67,-1.3095910645634518e+67
9.97499158,2.9816250421896826e+67,-3.735408209865117e+67,-1.2968527747750602e+67
9.979768038,2.952941619617127e+67,-3.698128716818806e+67,-1.2842303515237142e+67
9.984544548,2.924544825767877e+67,-3.661209250427251e+67,-1.271722877988655e+67
9.989321007,2.8964317646058743e+67,-3.6246465565236516e+67,-1.2593294436465226e+67
9.994097465,2.868599566423013e+67,-3.5884374087605286e+67,-1.2470491441982358e+67
9.998873975,2.8410453876584304e+67,-3.5525786083282935e+67,-1.2348810814980204e+67
10.00365043,2.813766410719021e+67,-3.517066983679366e+67,-1.2228243634845407e+67
10.00842689,2.7867598438011574e+67,-3.48189939025769e+67,-1.2108781041140894e+67
10.0132034,2.760022920713546e+67,-3.447072710233495e+67,-1.1990414232957911e+67
10.01797986,2.733552900701177e+67,-3.4125838522431644e+67,-1.187313446828777e+67
10.02275632,2.7073470682703376e+67,-3.3784297511340974e+67,-1.175693306341293e+67
10.02753283,2.6814027330146528e+67,-3.344607367714444e+67,-1.1641801392317038e+67
10.03230929,2.655717229442151e+67,-3.311113688507648e+67,-1.15277308861135e+67
10.03708575,2.6302879168033222e+67,-3.2779457255117184e+67,-1.1414713032492189e+67
10.04186226,2.6051121789201316e+67,-3.245100515963097e+67,-1.130273937518387e+67
10.04663872,2.5801874240159585e+67,-3.2125751221050135e+67,-1.1191801513441936e+67
10.05141523,2.5555110845464305e+67,-3.180366630960199e+67,-1.1081891101541026e+67
10.05619168,2.5310806170311193e+67,-3.148472154107833e+67,-1.0972999848292125e+67
10.06096814,2.5068935018860773e+67,-3.11688882746461e+67,-1.0865119516573735e+67
10.06574465,2.4829472432571907e+67,-3.085613811069785e+67,-1.0758241922878693e+67
10.07052111,2.4592393688543228e+67,-3.054644288874096e+67,-1.065235893687609e+67
10.07529762,2.4357674297862285e+67,-3.0239774685324537e+67,-1.0547462480987727e+67
10.08007408,2.4125290003962464e+67,-2.9936105812003226e+67,-1.0443544529978568e+67
10.08485054,2.3895216780987817e+67,-2.963540881333669e+67,-1.0340597110560653e+67
10.089627,2.3667430832165915e+67,-2.9337656464923904e+67,-1.023861230100998e+67
10.09440351,2.344190858818876e+67,-2.904282177147136e+67,-1.0137582230795826e+67
10.09917997,2.321862670560163e+67,-2.8750877964894237e+67,-1.0037499080221936e+67
10.10395648,2.2997562065199646e+67,-2.84617985024497e+67,-9.938355080079069e+66
10.10873293,2.2778691770431728e+67,-2.8175557064901295e+67,-9.840142511308407e+66
10.11350939,2.2561993145811655e+67,-2.7892127554713326e+67,-9.742853704675402e+66
10.11828585,2.2347443735335802e+67,-2.761148409427423e+67,-9.646481040453539e+66
10.12306236,2.2135021300907284e+67,-2.733360102414796e+67,-9.551016948117588e+66
10.12783882,2.1924703820766438e+67,-2.705845290135262e+67,-9.456453906045928e+66
10.13261533,2.171646948792773e+67,-2.6786014497665677e+67,-9.362784441231623e+66
10.13739179,2.1510296708623207e+67,-2.6516260797955066e+67,-9.270001129001846e+66
10.14216825,2.1306164100752468e+67,-2.624916699853555e+67,-9.178096592745316e+66
10.14694476,2.110405049233897e+67,-2.598470850554938e+67,-9.087063503647426e+66
10.15172122,2.0903934919992557e+67,-2.5722860933370495e+67,-8.99689458043269e+66
10.15649773,2.0705796627378095e+67,-2.5463600103031417e+67,-8.907582589114245e+66
10.16127418,2.0509615063690175e+67,-2.520690204067188e+67,-8.819120342750064e+66
10.16605064,2.0315369882134083e+67,-2.4952742976008208e+67,-8.73150070120555e+66
10.17082715,2.0123040938413195e+67,-2.4701099340822342e+67,-8.64471657092219e+66
10.17560361,1.9932608289222973e+67,-2.4451947767469386e+67,-8.558760904691954e+66
10.18038007,1.974405219075158e+67,-2.42052650874026e+67,-8.473626701437237e+66
10.18515658,1.9557353097186944e+67,-2.3961028329714725e+67,-8.389307005996145e+66
10.18993304,1.9372491659230214e+67,-2.3719214719694622e+67,-8.305794908912805e+66
10.1947095,1.9189448722615605e+67,-2.3479801677398304e+67,-8.223083546232394e+66
10.19948601,1.9008205326636504e+67,-2.3242766816233612e+67,-8.141166099300548e+66
10.20426247,1.8828742702677714e+67,-2.3008087941557643e+67,-8.06003579456681e+66
10.20903892,1.865104227275377e+67,-2.2775743049286082e+67,-7.979685903391726e+66
10.21381543,1.847508564805309e+67,-2.2545710324513457e+67,-7.900109741857319e+66
10.21859189,1.8300854627487782e+67,-2.2317968140143346e+67,-7.821300670580613e+66
10.22336835,1.8128331196249094e+67,-2.2092495055527644e+67,-7.743252094529941e+66
10.22814486,1.7957497524368572e+67,-2.186926981511404e+67,-7.665957462843771e+66
10.23292132,1.778833596528494e+67,-2.1648271347100794e+67,-7.589410268651888e+66
10.23769778,1.762082905441664e+67,-2.142947876209799e+67,-7.513604048898768e+66
10.24247429,1.7454959507740083e+67,-2.121287135179442e+67,-7.438532384168951e+66
10.24725075,1.7290710220373378e+67,-2.099842858762945e+67,-7.364188898514224e+66
10.25202721,1.7128064265165478e+67,-2.0786130119469323e+67,-7.290567259282522e+66
10.25680372,1.6967004891290533e+67,-2.0575955774287383e+67,-7.217661176948384e+66
10.26158017,1.680751552284715e+67,-2.036788555484787e+67,-7.145464404944821e+66
10.26635663,1.6649579757462065e+67,-2.0161899638392867e+67,-7.073970739496453e+66
10.27113314,1.6493181364897878e+67,-1.9957978375332078e+67,-7.003174019453797e+66
10.2759096,1.633830428566468e+67,-1.9756102287934904e+67,-6.933068126128559e+66
10.28068606,1.6184932629635498e+67,-1.95562520690244e+67,-6.863646983129777e+66
10.28546257,1.603305067466543e+67,-1.935840858067277e+67,-6.794904556200664e+66
10.29023903,1.5882642865214548e+67,-1.9162552852898133e+67,-6.726834853056062e+66
10.29501554,1.5733693810974407e+67,-1.8968666082362467e+67,-6.659431923220446e+66
10.299792,1.5586188285498007e+67,-1.877672963107039e+67,-6.592689857866412e+66
10.30456846,1.5440111224832917e+67,-1.8586725025068605e+67,-6.52660278965356e+66
10.30934497,1.529544772615748e+67,-1.839863395314586e+67,-6.461164892567635e+66
10.31412142,1.5152183046420027e+67,-1.821243826553325e+67,-6.396370381759862e+66
10.31889788,1.501030260098108e+67,-1.8028119972604588e+67,-6.332213513386314e+66
10.32367439,1.4869791962258495e+67,-1.7845661243576687e+67,-6.268688584447234e+66
10.32845085,1.4730636858375477e+67,-1.766504440520958e+67,-6.2057899326262315e+66
10.33322731,1.4592823171811512e+67,-1.7486251940506845e+67,-6.1435119361293015e+66
10.33800382,1.445633693805638e+67,-1.7309266487416297e+67,-6.0818490135235825e+66
10.34278028,1.4321164344267543e+67,-1.7134070837531162e+67,-6.020795623575756e+66
10.34755674,1.4187291727931128e+67,-1.6960647934791967e+67,-5.9603462650899974e+66
10.35233325,1.4054705575526744e+67,-1.6788980874189444e+67,-5.900495476745441e+66
10.35710971,1.3923392521196168e+67,-1.661905290046893e+67,-5.841237836933143e+66
10.36188616,1.3793339345416015e+67,-1.6450847406836697e+67,-5.7825679635925245e+66
10.36666267,1.3664532973674576e+67,-1.6284347933668633e+67,-5.7244805140472914e+66
10.37143913,1.3536960475153062e+67,-1.6119538167221752e+67,-5.6669701848408774e+66
10.37621559,1.3410609061411482e+67,-1.5956401938349026e+67,-5.610031711571497e+66
10.3809921,1.3285466085079378e+67,-1.57949232212181e+67,-5.553659868726875e+66
10.38576856,1.3161519038551606e+67,-1.5635086132034367e+67,-5.497849469518673e+66
10.39054507,1.3038755552689468e+67,-1.5476874927768772e+67,-5.442595365716618e+66
10.39532153,1.2917163395527522e+67,-1.5320274004890854e+67,-5.387892447482324e+66
10.40009799,1.2796730470986444e+67,-1.5165267898107405e+67,-5.333735643202765e+66
10.4048745,1.2677444817592179e+67,-1.501184127910721e+67,-5.280119919323399e+66
10.40965096,1.2559294607201595e+67,-1.4859978955312234e+67,-5.227040280180931e+66
10.41442741,1.2442268143734698e+67,-1.47096658686356e+67,-5.174491767835683e+66
10.41920392,1.2326353861913591e+67,-1.4560887094246837e+67,-5.122469461903556e+66
10.42398038,1.221154032600832e+67,-1.4413627839344822e+67,-5.070968479387622e+66
10.42875684,1.2097816228589625e+67,-1.4267873441938807e+67,-5.0199839745093354e+66
10.43353335,1.1985170389288612e+67,-1.4123609369637812e+67,-4.9695111385393504e+66
10.43830981,1.1873591753563239e+67,-1.3980821218448652e+67,-4.91954519962794e+66
10.44308627,1.1763069391471446e+67,-1.3839494711582837e+67,-4.870081422635009e+66
10.44786278,1.1653592496450723e+67,-1.3699615698272578e+67,-4.82111510895964e+66
10.45263924,1.1545150384103934e+67,-1.3561170152596284e+67,-4.772641596369111e+66
10.45741569,1.1437732490991276e+67,-1.342414417231384e+67,-4.724656258827365e+66
10.46219221,1.1331328373428243e+67,-1.3288523977711828e+67,-4.677154506322952e+66
10.46696866,1.122592770628938e+67,-1.3154295910458841e+67,-4.630131784696407e+66
10.47174512,1.1121520281817617e+67,-1.3021446432470979e+67,-4.58358357546701e+66
10.47652163,1.1018096008438933e+67,-1.2889962124787624e+67,-4.5375053956588935e+66
10.48129809,1.0915644909582049e+67,-1.275982968645763e+67,-4.491892797626444e+66
10.4860746,1.0814157122502866e+67,-1.2631035933436108e+67,-4.446741368878932e+66
10.49085106,1.0713622897113476e+67,-1.2503567797491966e+67,-4.402046731904319e+66
10.49562752,1.0614032594815525e+67,-1.2377412325126394e+67,-4.357804543992204e+66
10.50040403,1.0515376687337803e+67,-1.2252556676502398e+67,-4.314010497055901e+66
10.50518049,1.0417645755577868e+67,-1.212898812438556e+67,-4.2706603174536616e+66
10.50995694,1.0320830488447537e+67,-1.2006694053096196e+67,-4.227749765809051e+66
10.51473346,1.0224921681722107e+67,-1.1885661957473122e+67,-4.185274636830478e+66
10.51950991,1.0129910236893226e+67,-1.176587944184922e+67,-4.1432307591298885e+66
10.52428637,1.003578716002536e+67,-1.1647334219038948e+67,-4.101613995040679e+66
10.52906288,9.942543560615778e+66,-1.1530014109337883e+67,-4.06042024043491e+66
10.53383934,9.850170650458066e+66,-1.1413907039534322e+67,-4.0196454245399245e+66
10.5386158,9.758659742509254e+66,-1.1299001041932964e+67,-3.979285509754462e+66
10.54339231,9.668002249760628e+66,-1.1185284253390765e+67,-3.939336491464362e+66
10.54816877,9.578189684112232e+66,-1.1072744914365125e+67,-3.8997943978579364e+66
10.55294522,9.489213655251107e+66,-1.0961371367974652e+67,-3.860655289741098e+66
10.55772174,9.401065869533238e+66,-1.0851152059072658e+67,-3.82191526035231e+66
10.56249819,9.313738128869204e+66,-1.0742075533333504e+67,-3.783570435177434e+66
10.56727465,9.227222329613621e+66,-1.0634130436351927e+67,-3.745616971764545e+66
10.57205116,9.141510461458438e+66,-1.0527305512755491e+67,-3.7080510595388e+66
10.57682762,9.056594606330287e+66,-1.0421589605330235e+67,-3.670868919617417e+66
10.58160408,8.972466937292183e+66,-1.031697165415958e+67,-3.634066804624799e+66
10.58638059,8.889119717449863e+66,-1.021344069577668e+67,-3.5976409985078474e+66
10.59115705,8.80654529886302e+66,-1.0110985862330253e+67,-3.561587816351498e+66
10.59593351,8.724736121461754e+66,-1.000959638076389e+67,-3.525903604194534e+66
10.60071002,8.64368471196856e+66,-9.909261572008724e+66,-3.490584738845741e+66
10.60548648,8.563383682826096e+66,-9.809970850189423e+66,-3.4556276277004444e+66
10.61026299,8.483825731131018e+66,-9.711713721843332e+66,-3.421028708557471e+66
10.61503944,8.405003637574191e+66,-9.614479785152609e+66,-3.386784449436578e+66
10.6198159,8.326910265387552e+66,-9.518258729189064e+66,-3.3528913483963824e+66
10.62459236,8.249538559297906e+66,-9.423040333171417e+66,-3.319345933352846e+66
10.62936887,8.172881544487845e+66,-9.32881446573459e+66,-3.2861447618983505e+66
10.63414533,8.096932325563916e+66,-9.235571084210698e+66,-3.2532844211214587e+66
10.63892184,8.021684085532226e+66,-9.143300233921321e+66,-3.220761527427475e+66
10.6436983,7.947130084781707e+66,-9.051992047480755e+66,-3.188572726359909e+66
10.64847476,7.87326366007518e+66,-8.961636744109971e+66,-3.156714692422932e+66
10.65325127,7.800078223548339e+66,-8.872224628961014e+66,-3.1251841289048925e+66
10.65802772,7.727567261716681e+66,-8.783746092451513e+66,-3.0939777677029523e+66
10.66280418,7.6557243344904e+66,-8.696191609608976e+66,-3.0630923691488325e+66
10.66758069,7.584543074197247e+66,-8.609551739424502e+66,-3.032524721835669e+66
10.67235715,7.514017184613465e+66,-8.523817124215543e+66,-3.002271642445981e+66
10.67713361,7.44414044000294e+66,-8.438978488997441e+66,-2.972329975580743e+66
10.68191012,7.374906684164857e+66,-8.355026640863497e+66,-2.9426965935895495e+66
10.68668658,7.306309829490147e+66,-8.271952468373279e+66,-2.9133683964018517e+66
10.69146304,7.238343856026977e+66,-8.189746940948862e+66,-2.8843423113592443e+66
10.69623955,7.171002810555457e+66,-8.108401108278743e+66,-2.855615293048737e+66
10.70101601,7.104280805671736e+66,-8.027906099729162e+66,-2.827184323136952e+66
10.70579246,7.038172018881638e+66,-7.948253123762541e+66,-2.7990464102051797e+66
10.71056898,6.972670691703994e+66,-7.86943346736273e+66,-2.7711985895852193e+66
10.71534543,6.907771128783848e+66,-7.791438495466803e+66,-2.7436379231959436e+66
10.72012189,6.843467697015741e+66,-7.714259650403101e+66,-2.7163614993805494e+66
10.7248984,6.779754824677376e+66,-7.637888451335362e+66,-2.6893664327444387e+66
10.72967486,6.7166270005738366e+66,-7.562316493712832e+66,-2.6626498639936844e+66
10.73445132,6.654078773192576e+66,-7.487535448726245e+66,-2.6362089597740195e+66
10.73922783,6.592104749869331e+66,-7.413537062769528e+66,-2.6100409125103053e+66
10.74400429,6.530699595965088e+66,-7.340313156907142e+66,-2.584142940246427e+66
10.74878075,6.469858034054215e+66,-7.267855626346919e+66,-2.55851228648555e+66
10.75355726,6.409574843123789e+66,-7.196156439918251e+66,-2.5331462200306674e+66
10.75833372,6.349844857784144e+66,-7.125207639555528e+66,-2.5080420348253975e+66
10.76311017,6.290662967490562e+66,-7.055001339786636e+66,-2.4831970497949818e+66
10.76788668,6.232024115776061e+66,-6.985529727226426e+66,-2.4586086086874497e+66
10.77266314,6.1739232994951984e+66,-6.916785060075008e+66,-2.4342740799148948e+66
10.7774396,6.116355568078809e+66,-6.848759667620723e+66,-2.4101908563948103e+66
10.78221611,6.059316022799507e+66,-6.781445949747619e+66,-2.3863563553914105e+66
10.78699257,6.002799816047787e+66,-6.7148363764472995e+66,-2.3627680183568583e+66
10.79176908,5.946802150618543e+66,-6.6489234873349844e+66,-2.339423310772335e+66
10.79654554,5.891318279007878e+66,-6.58369989116957e+66,-2.3163197219888815e+66
10.801322,5.836343502720035e+66,-6.519158265377469e+66,-2.2934547650679634e+66
10.80609851,5.781873171584326e+66,-6.4552913555800676e+66,-2.270825976621716e+66
10.81087496,5.727902683081945e+66,-6.392091975124651e+66,-2.248430916652841e+66
10.81565142,5.67442748168258e+66,-6.329553004618632e+66,-2.2262671683941157e+66
10.82042793,5.6214430581907105e+66,-6.2676673914669116e+66,-2.2043323381474586e+66
10.82520439,5.5689449491015375e+66,-6.206428149412297e+66,-2.182624055122507e+66
10.82998085,5.516928735966486e+66,-6.145828358078938e+66,-2.1611399712746882e+66
10.83475736,5.465390044768259e+66,-6.0858611625187935e+66,-2.1398777611427684e+66
10.83953382,5.4143245453053916e+66,-6.026519772761099e+66,-2.118835121685867e+66
10.84431028,5.3637279505862615e+66,-5.967797463364839e+66,-2.0980097721199247e+66
10.84908679,5.313596016232542e+66,-5.9096875729741944e+66,-2.077399453753635e+66
10.85386325,5.2639245398920704e+66,-5.852183503876948e+66,-2.0570019298238345e+66
10.8586397,5.214709360661061e+66,-5.795278721565798e+66,-2.0368149853303707e+66
10.86341622,5.16594635851558e+66,-5.7389667543025694e+66,-2.0168364268704672e+66
10.86819267,5.117631453752195e+66,-5.683241192685271e+66,-1.9970640824725942e+66
10.87296913,5.06976060643774e+66,-5.628095689217912e+66,-1.977495801429837e+66
10.87774564,5.022329815868149e+66,-5.573523957883027e+66,-1.958129454132751e+66
10.8825221,4.975335120036355e+66,-5.51951977371684e+66,-1.9389629319017356e+66
10.88729856,4.928772595109233e+66,-5.4660769723870065e+66,-1.919994146818965e+66
10.89207507,4.882638354913617e+66,-5.413189449772925e+66,-1.901221031559934e+66
10.89685153,4.836928550431377e+66,-5.360851161548619e+66,-1.8826415392246557e+66
10.90162799,4.791639369303546e+66,-5.309056122768164e+66,-1.864253643168578e+66
10.9064045,4.746767035343468e+66,-5.2577984074536295e+66,-1.846055336833274e+66
10.91118096,4.702307808058937e+66,-5.2070721481854685e+66,-1.828044633577003e+66
10.91595741,4.6582579821832446e+66,-5.15687153569533e+66,-1.8102195665052378e+66
10.92073392,4.6146138872150825e+66,-5.107190818461258e+66,-1.792578188301265e+66
10.92551038,4.571371886967201e+66,-5.0580243023052696e+66,-1.775118571056951e+66
10.93028684,4.52852837912374e+66,-5.009366349993299e+66,-1.7578388061037662e+66
10.93506335,4.486079794806199e+66,-4.961211380837517e+66,-1.740737003844158e+66
10.93983981,4.444022598147965e+66,-4.9135538703010306e+66,-1.7238112935833428e+66
10.94461627,4.402353285877293e+66,-4.866388349604989e+66,-1.707059823361598e+66
10.94939278,4.361068386908593e+66,-4.81970940533809e+66,-1.6904807597871303e+66
10.95416924,4.3201644619418234e+66,-4.773511679068441e+66,-1.6740722878696127e+66
10.95894569,4.2796381030697745e+66,-4.7277898669576756e+66,-1.6578326108544673e+66
10.9637222,4.23948593339299e+66,-4.682538719377229e+66,-1.64175995005797e+66
10.96849866,4.199704606642109e+66,-4.63775304052664e+66,-1.6258525447032303e+66
10.97327512,4.160290806807388e+66,-4.593427688053763e+66,-1.610108651757107e+66
10.97805163,4.121241247775173e+66,-4.549557572676771e+66,-1.5945265457681113e+66
10.98282809,4.082552672971145e+66,-4.5061376578078606e+66,-1.5791045187053227e+66
10.98760455,4.044221855010118e+66,-4.463162959178576e+66,-1.5638408797983466e+66
10.99238106,4.006245595352202e+66,-4.420628544466691e+66,-1.5487339553783488e+66
10.99715752,3.968620723965179e+66,-4.378529532924585e+66,-1.5337820887201911e+66
11.00193398,3.93134409899299e+66,-4.336861095009049e+66,-1.518983639885669e+66
11.00671049,3.894412606430204e+66,-4.295618452012445e+66,-1.5043369855678627e+66
11.01148694,3.857823159802348e+66,-4.254796875695162e+66,-1.489840518936615e+66
11.0162634,3.8215726998519565e+66,-4.214391687919344e+66,-1.4754926494851415e+66
11.02103991,3.7856581942302234e+66,-4.174398260283813e+66,-1.4612918028777981e+66
11.02581637,3.75007663719414e+66,-4.1348120137601504e+66,-1.4472364207990217e+66
11.03059283,3.7148250493090315e+66,-4.095628418329843e+66,-1.4333249608034617e+66
11.03536934,3.679900477156405e+66,-4.056842992622443e+66,-1.4195558961673148e+66
11.0401458,3.6452999930470704e+66,-4.018451303554643e+66,-1.405927715740871e+66
11.04492226,3.611020694739469e+66,-3.9804489659701904e+66,-1.3924389238022868e+66
11.04969877,3.577059705163193e+66,-3.942831642280578e+66,-1.3790880399125915e+66
11.05447523,3.5434141721476114e+66,-3.905595042106428e+66,-1.3658735987719504e+66
11.05925174,3.5100812681554995e+66,-3.868734921919513e+66,-1.3527941500771949e+66
11.06402819,3.477058190021561e+66,-3.832247084685345e+66,-1.3398482583806233e+66
11.06880465,3.444342158695724e+66,-3.796127379506305e+66,-1.3270345029500862e+66
11.07358116,3.411930418991075e+66,-3.760371701265277e+66,-1.3143514776303712e+66
11.07835762,3.379820239336277e+66,-3.724975990269772e+66,-1.3017977907058927e+66
11.08313408,3.3480089115323287e+66,-3.689936231896535e+66,-1.2893720647646914e+66
11.08791054,3.3164937505135444e+66,-3.655248456236617e+66,-1.277072936563744e+66
11.09268705,3.2852720941126495e+66,-3.620908737740893e+66,-1.264899056895579e+66
11.09746351,3.254341302829897e+66,-3.586913194866009e+66,-1.2528490904561939e+66
11.10223996,3.2236987596061237e+66,-3.553257989720718e+66,-1.2409217157142622e+66
11.10701648,3.193341869599661e+66,-3.519939327712571e+66,-1.2291156247816295e+66
11.11179293,3.1632680599670116e+66,-3.486953457194974e+66,-1.217429523285085e+66
11.11656944,3.133474779647199e+66,-3.454296669114573e+66,-1.2058621302393942e+66
11.1213459,3.103959499149719e+66,-3.421965296658924e+66,-1.194412177921577e+66
11.12612236,3.0747197103460515e+66,-3.389955714904409e+66,-1.1830784117464052e+66
11.13089882,3.0457529262646852e+66,-3.358264340464348e+66,-1.1718595901431053e+66
11.13567533,3.0170566808896098e+66,-3.326887631137298e+66,-1.1607544844332442e+66
11.14045179,2.988628528962209e+66,-3.2958220855554725e+66,-1.1497618787097832e+66
11.1452283,2.9604660457864972e+66,-3.2650642428332838e+66,-1.1388805697172843e+66
11.15000476,2.932566827037607e+66,-3.2346106822159796e+66,-1.1281093667332555e+66
11.15478122,2.9049284885734436e+66,-3.204458022728381e+66,-1.1174470914506187e+66
11.15955772,2.8775486662494367e+66,-3.1746029228237256e+66,-1.1068925778612878e+66
11.16433418,2.8504250157363456e+66,-3.14504208003263e+66,-1.0964446721408427e+66
11.16911064,2.823555212341076e+66,-3.115772230612202e+66,-1.0861022325342787e+66
11.17388715,2.7969369508304794e+66,-3.086790149195346e+66,-1.0758641292428206e+66
11.17866361,2.770567945258094e+66,-3.058092648440283e+66,-1.0657292443117884e+66
11.18344007,2.7444459287938107e+66,-3.0296765786803033e+66,-1.0556964715195006e+66
11.18821658,2.718568653556432e+66,-3.0015388275737744e+66,-1.0457647162671992e+66
11.19299304,2.692933890449086e+66,-2.9736763197544254e+66,-1.0359328954699838e+66
11.1977695,2.6675394289974475e+66,-2.94608601648191e+66,-1.026199937448736e+66
11.20254601,2.642383077190728e+66,-2.918764915292647e+66,-1.016564781823023e+66
11.20732246,2.6174626613253874e+66,-2.8917100496509193e+66,-1.0070263794049662e+66
11.21209892,2.5927760258515406e+66,-2.864918488600219e+66,-9.975836920940516e+65
11.21687543,2.5683210332220242e+66,-2.8383873364148276e+66,-9.88235692772858e+65
11.22165189,2.5440955637440834e+66,-2.8121137322516112e+66,-9.789813652036786e+65
11.22642835,2.5200975154336492e+66,-2.7860948498020322e+66,-9.69819703926011e+65
11.23120486,2.49632480387218e+66,-2.7603278969443853e+66,-9.607497141548996e+65
11.23598132,2.4727753620660147e+66,-2.7348101153962956e+66,-9.517704116801179e+65
11.24075778,2.4494471403081746e+66,-2.7095387803675185e+66,-9.42880822766177e+65
11.24553429,2.4263381060425114e+66,-2.684511200213102e+66,-9.34079984053141e+65
11.25031075,2.4034462437301175e+66,-2.659724716086971e+66,-9.253669424582388e+65
11.2550872,2.3807695547178994e+66,-2.635176701595968e+66,-9.167407550782667e+65
11.25986366,2.3583060571092255e+66,-2.610864562454383e+66,-9.082004890927731e+65
11.26464017,2.3360537856365613e+66,-2.58678573613901e+66,-8.997452216680096e+65
11.26941663,2.3140107915360385e+66,-2.562937691544787e+66,-8.913740398616335e+65
11.27419314,2.292175142423894e+66,-2.539317928641055e+66,-8.830860405281448e+65
11.2789696,2.2705449221747176e+66,-2.515923978128506e+66,-8.74880330225047e+65
11.28374606,2.249118230801442e+66,-2.492753401096887e+66,-8.667560251197184e+65
11.28852252,2.2278931843369894e+66,-2.469803788683513e+66,-8.587122508969936e+65
11.29329903,2.2068679147175063e+66,-2.447072761732667e+66,-8.507481426674497e+65
11.29807549,2.1860405696671117e+66,-2.4245579704559727e+66,-8.428628448763976e+65
11.30285194,2.1654093125841035e+66,-2.402257094093815e+66,-8.350555112135881e+65
11.30762846,2.1449723224285384e+66,-2.3801678405778797e+66,-8.273253045236422e+65
11.31240491,2.124727793611132e+66,-2.3582879461948778e+66,-8.196713967172149e+65
11.31718142,2.1046739358834195e+66,-2.3366151752515253e+66,-8.1209296868290085e+65
11.32195788,2.084808974229124e+66,-2.3151473197408512e+66,-8.045892101998871e+65
11.32673434,2.065131148756688e+66,-2.293882199009927e+66,-7.971593198513532e+65
11.33151085,2.04563871459293e+66,-2.2728176594291056e+66,-7.898025049386153e+65
11.33628731,2.026329941777771e+66,-2.251951574062857e+66,-7.82517981396003e+65
11.34106377,2.0072031151599725e+66,-2.231281842342316e+66,-7.75304973706457e+65
11.34584028,1.988256534293844e+66,-2.210806389739648e+66,-7.681627148178347e+65
11.35061674,1.9694885133368937e+66,-2.1905231674443544e+66,-7.610904460599125e+65
11.35539319,1.9508973809484097e+66,-2.1704301520416138e+66,-7.540874170620774e+65
11.36016965,1.9324814801889515e+66,-2.1505253451927547e+66,-7.47152885671702e+65
11.36494616,1.9142391684206888e+66,-2.130806773317924e+66,-7.402861178731999e+65
11.36972262,1.896168817208535e+66,-2.1112724872810334e+66,-7.334863877077611e+65
11.37449908,1.878268812222023e+66,-2.0919205620770405e+66,-7.26752977193772e+65
11.37927559,1.8605375531378797e+66,-2.0727490965216304e+66,-7.200851762479179e+65
11.38405205,1.8429734535432585e+66,-2.053756212943367e+66,-7.134822826069707e+65
11.38882851,1.825574940839578e+66,-2.0349400568783757e+66,-7.069436017502554e+65
11.39360502,1.808340456146935e+66,-2.016298796767634e+66,-7.004684468227949e+65
11.39838148,1.791268454209061e+66,-1.99783062365694e+66,-6.940561385591293e+65
11.40315799,1.774357403298796e+66,-1.9795337508996127e+66,-6.877060052078054e+65
11.40793444,1.7576057851240622e+66,-1.9614064138619635e+66,-6.814173824565262e+65
11.4127109,1.741012094734288e+66,-1.943446869631579e+66,-6.751896133579497e+65
11.41748736,1.7245748404272644e+66,-1.925653396728456e+66,-6.690220482561269e+65
11.42226387,1.7082925436564025e+66,-1.908024294819035e+66,-6.629140447135701e+65
11.42704033,1.6921637389383886e+66,-1.890557884433167e+66,-6.568649674389437e+65
11.43181684,1.6761869737612327e+66,-1.8732525066840464e+66,-6.50874188215369e+65
11.4365933,1.6603608084927064e+66,-1.856106522991134e+66,-6.449410858293326e+65
11.44136976,1.644683816289171e+66,-1.839118314806092e+66,-6.390650460001909e+65
11.44614622,1.6291545830048e+66,-1.8222862833417256e+66,-6.332454613102601e+65
11.45092272,1.61377170710119e+66,-1.8056088493039205e+66,-6.274817311354754e+65
11.45569918,1.5985337995573588e+66,-1.7890844526265532e+66,-6.217732615766119e+65
11.46047564,1.5834394837801288e+66,-1.772711552209366e+66,-6.161194653910581e+65
11.46525215,1.5684873955148982e+66,-1.756488625658792e+66,-6.105197619251343e+65
11.47002861,1.5536761827567777e+66,-1.7404141690317205e+66,-6.049735770469433e+65
11.47480507,1.5390045056620785e+66,-1.7244866965821925e+66,-5.994803430797395e+65
11.47958158,1.5244710364601508e+66,-1.7087047405110077e+66,-5.940394987358091e+65
11.48435804,1.51007445936559e+66,-1.6930668507182253e+66,-5.886504890508484e+65
11.4891345,1.4958134704908269e+66,-1.677571594558536e+66,-5.833127653188361e+65
11.49391101,1.4816867777591163e+66,-1.6622175565994968e+66,-5.7802578502739605e+65
11.49868747,1.4676931008179381e+66,-1.6470033383826268e+66,-5.727890117936507e+65
11.50346392,1.4538311709528293e+66,-1.6319275581873645e+66,-5.676019153005607e+65
11.50824043,1.4400997310016522e+66,-1.6169888507978829e+66,-5.624639712337444e+65
11.51301689,1.4264975352693022e+66,-1.6021858672727497e+66,-5.573746612187709e+65
11.51779335,1.4130233494428581e+66,-1.587517274717418e+66,-5.523334727589213e+65
11.52256986,1.399675950507187e+66,-1.572981756059523e+66,-5.4733989917341345e+65
11.52734632,1.386454126661012e+66,-1.5585780098269847e+66,-5.423934395360861e+65
11.53212278,1.3733566772334518e+66,-1.54430474992891e+66,-5.374935986145393e+65
11.53689929,1.3603824126010234e+66,-1.5301607054393089e+66,-5.326398868097278e+65
11.54167575,1.347530154105101e+66,-1.5161446203836409e+66,-5.27831820096004e+65
11.54645221,1.3347987339698216e+66,-1.5022552535282115e+66,-5.230689199616001e+65
11.55122872,1.3221869952204166e+66,-1.4884913781724376e+66,-5.18350713349546e+65
11.55600517,1.3096937916019656e+66,-1.474851781944001e+66,-5.1367673259902075e+65
11.56078163,1.2973179874985647e+66,-1.4613352665968982e+66,-5.090465153871469e+65
11.56555814,1.2850584578529021e+66,-1.4479406478124003e+66,-5.044596046712324e+65
11.5703346,1.272914088086215e+66,-1.4346667550029205e+66,-4.999155486314678e+65
11.57511106,1.2608837740186056e+66,-1.4215124311187702e+66,-4.954139006140802e+65
11.57988757,1.2489664217897006e+66,-1.4084765324577832e+66,-4.909542190749496e+65
11.58466403,1.2371609477796327e+66,-1.3955579284777894e+66,-4.865360675236914e+65
11.58944049,1.2254662785303332e+66,-1.3827555016119185e+66,-4.821590144682085e+65
11.594217,1.2138813506671305e+66,-1.3700681470867167e+66,-4.778226333597134e+65
11.59899346,1.2024051108206556e+66,-1.3574947727430496e+66,-4.735265025382241e+65
11.60376991,1.1910365155490547e+66,-1.3450342988597592e+66,-4.692702051785349e+65
11.60854642,1.1797745312605066e+66,-1.3326856579800368e+66,-4.650533292366675e+65
11.61332288,1.1686181341360521e+66,-1.3204477947404672e+66,-4.608754673968047e+65
11.61809934,1.1575663100527444e+66,-1.3083196657027033e+66,-4.56736217018712e+65
11.62287585,1.146618054507141e+66,-1.2963002391877251e+66,-4.526351800856511e+65
11.62765231,1.1357723725391595e+66,-1.2843884951126555e+66,-4.485719631527901e+65
11.63242877,1.1250282786563226e+66,-1.2725834248300896e+66,-4.445461772961088e+65
11.63720528,1.1143847967584212e+66,-1.260884030969894e+66,-4.405574380617935e+65
11.64198174,1.1038409600626247e+66,-1.2492893272834214e+66,-4.366053654161151e+65
11.64675819,1.093395811029056e+66,-1.2377983384901054e+66,-4.326895836957829e+65
11.65153471,1.0830484012868397e+66,-1.2264101001264082e+66,-4.288097215587696e+65
11.65631116,1.0727977915606289e+66,-1.215123658397101e+66,-4.249654119355987e+65
11.66108762,1.0626430515976219e+66,-1.2039380700288392e+66,-4.2115629198108883e+65
11.66586408,1.0525832600950842e+66,-1.192852402125989e+66,-4.1738200302654856e+65
11.67064059,1.0426175046283933e+66,-1.1818657320286577e+66,-4.1364219053241353e+65
11.67541705,1.032744881579626e+66,-1.1709771471728871e+66,-4.0993650404132043e+65
11.68019356,1.022964496066711e+66,-1.1601857449529824e+66,-4.06264597131614e+65
11.68497002,1.013275461873157e+66,-1.1494906325859555e+66,-4.026261273712824e+65
11.68974648,1.0036769013783609e+66,-1.1388909269780486e+66,-3.9902075627231924e+65
11.69452299,9.941679454885058e+65,-1.1283857545933176e+66,-3.954481492455093e+65
11.69929944,9.84747733568038e+65,-1.1179742513242565e+66,-3.919079755556316e+65
11.7040759,9.754154133717094e+65,-1.1076555623644383e+66,-3.8839990827707435e+65
11.70885241,9.66170140977159e+65,-1.0974288420831544e+66,-3.849236242498524e+65
11.71362887,9.57011080718006e+65,-1.0872932539020348e+66,-3.814788040360157e+65
11.71840533,9.47937405117421e+65,-1.0772479701736254e+66,-3.780651318764404e+65
11.72318179,9.389482948221466e+65,-1.0672921720618843e+66,-3.746822956479966e+65
11.7279583,9.300429385369482e+65,-1.0574250494245736e+66,-3.713299868210842e+65
11.73273476,9.212205329594776e+65,-1.047645800697521e+66,-3.680079004175318e+65
11.73751122,9.124802827155262e+65,-1.0379536327807356e+66,-3.647157349688532e+65
11.74228772,9.038214002946453e+65,-1.0283477609263461e+66,-3.614531924748567e+65
11.74706418,8.952431059861032e+65,-1.018827408628334e+66,-3.582199783626003e+65
11.75184064,8.867446278151503e+65,-1.0093918075140338e+66,-3.5501580144568696e+65
11.75661715,8.78325201479567e+65,-1.0000401972373695e+66,-3.5184037388389525e+65
11.76139361,8.69984070286468e+65,-9.90771825373785e+65,-3.486934111431436e+65
11.76617007,8.6172048508934e+65,-9.815859473168284e+65,-3.4557463195578803e+65
11.77094658,8.53533704225294e+65,-9.724818261763406e+65,-3.424837582812546e+65
11.77572304,8.454229934525182e+65,-9.634587326782092e+65,-3.3942051526700863e+65
11.7804995,8.373876258879168e+65,-9.545159450656447e+65,-3.36384631209865e+65
11.78527601,8.2942688194493875e+65,-9.456527490019392e+65,-3.33375837517643e+65
11.79005246,8.215400492715977e+65,-9.368684374746675e+65,-3.303938686711709e+65
11.79482892,8.13726422688696e+65,-9.281623107013006e+65,-3.2743846218664665e+65
11.79960543,8.059853041282649e+65,-9.19533676036207e+65,-3.2450935857836122e+65
11.80438189,7.983160025722319e+65,-9.10981847879009e+65,-3.216063013217925e+65
11.80915835,7.907178339913225e+65,-9.025061475842626e+65,-3.187290368170783e+65
11.81393486,7.831901212842006e+65,-8.941059033724414e+65,-3.1587731435287377e+65
11.81871132,7.757321942168508e+65,-8.857804502421924e+65,-3.130508860705958e+65
11.82348778,7.683433893621927e+65,-8.775291298838451e+65,-3.102495069290586e+65
11.82826429,7.610230500399173e+65,-8.693512905941375e+65,-3.0747293466950233e+65
11.83304075,7.537705262565337e+65,-8.612462871921325e+65,-3.0472092978101804e+65
11.8378172,7.465851746456186e+65,-8.532134809362996e+65,-3.019932554663727e+65
11.84259372,7.394663584082635e+65,-8.452522394427422e+65,-2.9928967760823765e+65
11.84737017,7.324134472537205e+65,-8.373619366045606e+65,-2.9660996473582287e+65
11.85214663,7.254258173402465e+65,-8.295419525123414e+65,-2.9395388799192007e+65
11.85692314,7.185028512161458e+65,-8.217916733757557e+65,-2.913212211003562e+65
11.8616996,7.116439377610181e+65,-8.141104914462525e+65,-2.8871174033385753e+65
11.86647606,7.048484721272124e+65,-8.064978049408324e+65,-2.8612522448232396e+65
11.87125252,6.981158556814935e+65,-7.989530179668887e+65,-2.835614548215117e+65
11.87602903,6.914454959469245e+65,-7.914755404481045e+65,-2.8102021508212265e+65
11.88080549,6.848368065449708e+65,-7.840647880513974e+65,-2.7850129141929796e+65
11.88558194,6.782892071378235e+65,-7.767201821148992e+65,-2.7600447238251383e+65
11.89035846,6.718021233709445e+65,-7.69441149576973e+65,-2.7352954888587434e+65
11.89513491,6.653749868158351e+65,-7.622271229062651e+65,-2.710763141787999e+65
11.89991137,6.590072349130292e+65,-7.550775400327862e+65,-2.6864456381710874e+65
11.90468788,6.526983109153166e+65,-7.479918442800101e+65,-2.6623409563449017e+65
11.90946434,6.464476638311976e+65,-7.409694842979747e+65,-2.638447097143679e+65
11.9142408,6.40254748368572e+65,-7.34009913997367e+65,-2.614762083621495e+65
11.91901731,6.341190248786684e+65,-7.271125924845833e+65,-2.5912839607785733e+65
11.92379377,6.280399593002174e+65,-7.202769839977547e+65,-2.568010795291371e+65
11.92857023,6.220170231038664e+65,-7.135025578437229e+65,-2.544940675246407e+65
11.93334674,6.160496932368367e+65,-7.067887883359471e+65,-2.522071709877805e+65
11.93812319,6.1013745206782455e+65,-7.00135154733325e+65,-2.499402029308493e+65
11.94289965,6.042797873321449e+65,-6.93541141179903e+65,-2.4769297842950223e+65
11.94767616,5.984761920771227e+65,-6.870062366454625e+65,-2.454653145975959e+65
11.95245262,5.927261646077283e+65,-6.805299348669603e+65,-2.4325703056237964e+65
11.95722908,5.870292084324559e+65,-6.74111734290807e+65,-2.4106794744003133e+65
11.96200559,5.813848322094394e+65,-6.677511380159701e+65,-2.388978883115303e+65
11.96678205,5.757925496928042e+65,-6.614476537378898e+65,-2.367466781988576e+65
11.97155851,5.702518796792529e+65,-6.552007936931977e+65,-2.346141440415152e+65
11.97633497,5.647623459548788e+65,-6.490100746052211e+65,-2.325001146733569e+65
11.98111148,5.593234772421965e+65,-6.428750176302536e+65,-2.3040442079972902e+65
11.98588793,5.539348071473787e+65,-6.367951483045794e+65,-2.2832689497491953e+65
11.99066444,5.485958741076965e+65,-6.307699964922336e+65,-2.2626737157991477e+65
11.9954409,5.4330622133916065e+65,-6.247990963334794e+65,-2.2422568680046264e+65
12.00021736,5.3806539678437415e+65,-6.188819861939878e+65,-2.222016786054407e+65
12.00499382,5.328729530606042e+65,-6.130182086147061e+65,-2.201951867255281e+65
12.00977033,5.277284474080877e+65,-6.072073102624092e+65,-2.1820605263217814e+65
12.01454679,5.226314416385757e+65,-6.014488418809238e+65,-2.1623411951688712e+65
12.01932325,5.175815020841199e+65,-5.957423582430214e+65,-2.142792322707536e+65
12.02409976,5.125781995460994e+65,-5.900874181029749e+65,-2.1234123746432456e+65
12.02887622,5.07621109244487e+65,-5.8448358414977245e+65,-2.1041998332772405e+65
12.03365267,5.027098107673535e+65,-5.78930422960977e+65,-2.0851531973105717e+65
12.03842918,4.9784388802060955e+65,-5.734275049572203e+65,-2.0662709816508049e+65
12.04320564,4.930229291779887e+65,-5.679744043573193e+65,-2.0475517172212924e+65
12.0479821,4.882465266312775e+65,-5.62570699134007e+65,-2.0289939507729435e+65
12.05275861,4.835142769408012e+65,-5.572159709702621e+65,-2.010596244698394e+65
12.05753507,4.788257807861704e+65,-5.519098052162281e+65,-1.992357176848462e+65
12.06231153,4.741806429172999e+65,-5.466517908467083e+65,-1.9742753403507918e+65
12.06708804,4.695784721057025e+65,-5.414415204192312e+65,-1.9563493434306113e+65
12.0718645,4.650188810960682e+65,-5.36278590032675e+65,-1.9385778092335283e+65
12.07664096,4.605014865581354e+65,-5.311625992864464e+65,-1.9209593756503022e+65
12.08141747,4.560259090388598e+65,-5.2609315124020195e+65,-1.9034926951435229e+65
12.08619392,4.515917729148913e+65,-5.210698523741035e+65,-1.8861764345761314e+65
12.09097038,4.471987063453671e+65,-5.160923125496058e+65,-1.8690092750417134e+65
12.09574689,4.428463412250297e+65,-5.111601449707787e+65,-1.8519899116964993e+65
12.10052335,4.38534313137684e+65,-5.06272966146161e+65,-1.8351170535930116e+65
12.10529981,4.342622613100107e+65,-5.014303958511441e+65,-1.8183894235153129e+65
12.11007627,4.30029828565751e+65,-4.966320570908828e+65,-1.8018057578158091e+65
12.11485278,4.258366612802766e+65,-4.91877576063731e+65,-1.7853648062535805e+65
12.11962924,4.216824093355587e+65,-4.871665821251963e+65,-1.7690653318342077e+65
12.12440569,4.1756672607554825e+65,-4.824987077524043e+65,-1.7529061106510699e+65
12.12918221,4.1348926826198483e+65,-4.778735885090724e+65,-1.7368859317280763e+65
12.13395866,4.0944969603064705e+65,-4.732908630109863e+65,-1.7210035968637924e+65
12.13873512,4.0544767284805908e+65,-4.687501728919802e+65,-1.7052579204769067e+65
12.14351163,4.0148286546866597e+65,-4.6425116277040865e+65,-1.6896477294529797e+65
12.14828809,3.9755494389248882e+65,-4.597934802161037e+65,-1.6741718629924176e+65
12.15306455,3.936635813232684e+65,-4.5537677571780355e+65,-1.6588291724596207e+65
12.15784106,3.8980845412710435e+65,-4.510007026510469e+65,-1.643618521233274e+65
12.16261752,3.8598924179159694e+65,-4.4666491724652315e+65,-1.6285387845577532e+65
12.16739398,3.8220562688549614e+65,-4.423690785588753e+65,-1.613588849395626e+65
12.17217049,3.784572950188563e+65,-4.381128484359515e+65,-1.5987676142812251e+65
12.17694694,3.7474393480369405e+65,-4.3389589148849795e+65,-1.5840739891752762e+65
12.1817234,3.7106523781514588e+65,-4.297178750602861e+65,-1.569506895320553e+65
12.18649986,3.674208985531197e+65,-4.255784691986683e+65,-1.5550652650985446e+65
12.19127637,3.6381061440443527e+65,-4.214773466255582e+65,-1.5407480418871232e+65
12.19605283,3.6023408560544747e+65,-4.1741418270883456e+65,-1.5265541799192075e+65
12.20082929,3.5669101520514937e+65,-4.133886554341629e+65,-1.5124826441424227e+65
12.2056058,3.531811090287522e+65,-4.0940044537723714e+65,-1.4985324100797697e+65
12.21038226,3.4970407564174207e+65,-4.054492356764413e+65,-1.4847024636913052e+65
12.21515872,3.462596263144156e+65,-4.015347120059357e+65,-1.470991801236831e+65
12.21993522,3.4284747498689773e+65,-3.9765656254917284e+65,-1.4573994291395946e+65
12.22471168,3.394673382346434e+65,-3.938144779728512e+65,-1.4439243638510127e+65
12.22948814,3.3611893523442335e+65,-3.9000815140131057e+65,-1.4305656317164121e+65
12.23426465,3.3280198773079247e+65,-3.862372783913716e+65,-1.4173222688417994e+65
12.23904111,3.2951622000303724e+65,-3.8250155690761983e+65,-1.4041933209616755e+65
12.24381757,3.2626135883259777e+65,-3.7880068729813304e+65,-1.3911778433079017e+65
12.24859408,3.2303713347096362e+65,-3.7513437227065013e+65,-1.3782749004796214e+65
12.25337054,3.1984327560804477e+65,-3.7150231686917855e+65,-1.3654835663142598e+65
12.258147,3.166795193410192e+65,-3.6790422845103445e+65,-1.3528029237596217e+65
12.26292351,3.1354560114365565e+65,-3.643398166643099e+65,-1.340232064747099e+65
12.26769996,3.1044125983610906e+65,-3.608087934257584e+65,-1.3277700900660052e+65
12.27247642,3.0736623655518864e+65,-3.573108728990909e+65,-1.3154161092390468e+65
12.27725293,3.043202747250988e+65,-3.5384577147367415e+65,-1.3031692403989476e+65
12.28202939,3.013031200286527e+65,-3.5041320774362343e+65,-1.291028610166249e+65
12.28680585,2.9831452037895797e+65,-3.4701290248728176e+65,-1.2789933535283124e+65
12.29158231,2.9535422589157264e+65,-3.4364457864707944e+65,-1.267062613719564e+65
12.29635882,2.9242198885713175e+65,-3.4030796130976605e+65,-1.2552355421030412e+65
12.30113528,2.89517563714443e+65,-3.3700277768700516e+65,-1.2435112980532857e+65
12.30591174,2.866407070240485e+65,-3.337287570963213e+65,-1.2318890488406255e+65
12.31068825,2.8379117744224993e+65,-3.304856309423891e+65,-1.2203679695168818e+65
12.3154647,2.80968735695594e+65,-3.272731326986564e+65,-1.2089472428025287e+65
12.32024116,2.7817314455581414e+65,-3.2409099788929203e+65,-1.1976260589753294e+65
12.32501767,2.754041688152265e+65,-3.20938964071449e+65,-1.1864036157604605e+65
12.32979413,2.726615752625781e+65,-3.1781677081783105e+65,-1.1752791182221477e+65
12.33457059,2.6994513265934293e+65,-3.14724159699552e+65,-1.1642517786568373e+65
12.3393471,2.672546117164602e+65,-3.1166087426927424e+65,-1.1533208164879331e+65
12.34412356,2.6458978507151083e+65,-3.086266600446146e+65,-1.14248545816213e+65
12.34890002,2.619504272663284e+65,-3.056212644918086e+65,-1.1317449370473647e+65
12.35367653,2.5933631472503965e+65,-3.0264443700962533e+65,-1.1210984933323946e+65
12.35845299,2.5674722573253147e+65,-2.996959289135284e+65,-1.1105453739280262e+65
12.36322944,2.541829404133413e+65,-2.9677549342007684e+65,-1.1000848323700132e+65
12.3680059,2.5164324071097025e+65,-2.93882885631561e+65,-1.0897161287236383e+65
12.37278241,2.4912791036761537e+65,-2.910178625208668e+65,-1.0794385294899847e+65
12.37755887,2.4663673490431605e+65,-2.881801829165621e+65,-1.0692513075138925e+65
12.38233533,2.4416950160150746e+65,-2.8536960748819643e+65,-1.0591537418935908e+65
12.38711184,2.417259994799744e+65,-2.8258589873180524e+65,-1.0491451178919967e+65
12.3918883,2.3930601928220013e+65,-2.798288209556089e+65,-1.0392247268496721e+65
12.39666476,2.369093534541052e+65,-2.770981402658956e+65,-1.0293918660994254e+65
12.40144127,2.3453579612716857e+65,-2.74393624553076e+65,-1.0196458388825407e+65
12.40621773,2.3218514310092247e+65,-2.717150434779001e+65,-1.009985954266621e+65
12.41099418,2.2985719182581364e+65,-2.690621684578268e+65,-1.0004115270650213e+65
12.41577069,2.275517413864233e+65,-2.664347726535419e+65,-9.909218777578382e+64
12.42054715,2.252685924850374e+65,-2.638326309556193e+65,-9.815163324144256e+64
12.42532361,2.230075474255561e+65,-2.612555199713215e+65,-9.721942226174046e+64
12.43010007,2.20768410097734e+65,-2.587032180115367e+65,-9.629548853881361e+64
12.43487658,2.185509859617428e+65,-2.5617550507784718e+65,-9.537976631136235e+64
12.43965304,2.1635508203304735e+65,-2.5367216284972706e+65,-9.447219034748164e+64
12.44442955,2.141805068675871e+65,-2.5119297467186444e+65,-9.357269593762866e+64
12.44920601,2.120270705472531e+65,-2.487377255416091e+65,-9.26812188877242e+64
12.45398247,2.0989458466565268e+65,-2.463062020965473e+65,-9.179769551238412e+64
12.45875892,2.0778286231415422e+65,-2.43898192602205e+65,-9.092206262827747e+64
12.46353543,2.0569171806820516e+65,-2.415134869398809e+65,-9.005425754760747e+64
12.46831189,2.0362096797391624e+65,-2.39151876594608e+65,-8.919421807171232e+64
12.47308835,2.0157042953490642e+65,-2.368131546432461e+65,-8.834188248478362e+64
12.47786486,1.9953992169940346e+65,-2.3449711574270763e+65,-8.749718954770018e+64
12.48264132,1.9752926484759415e+65,-2.3220355611832133e+65,-8.666007849197491e+64
12.48741778,1.9553828077921708e+65,-2.299322735523361e+65,-8.583048901381336e+64
12.49219429,1.9356679270139083e+65,-2.276830673725674e+65,-8.500836126828214e+64
12.49697075,1.916146252166703e+65,-2.2545573844118997e+65,-8.41936358635856e+64
12.50174721,1.8968160431132495e+65,-2.2325008914367786e+65,-8.338625385544839e+64
12.50652372,1.877675573438328e+65,-2.2106592337789423e+65,-8.258615674160181e+64
12.51130017,1.858723130335842e+65,-2.189030465433293e+65,-8.179328645637171e+64
12.51607663,1.839957014497892e+65,-2.1676126553048643e+65,-8.100758536536535e+64
12.52085314,1.8213755400058193e+65,-2.1464038871041256e+65,-8.022899626025479e+64
12.5256296,1.8029770342231596e+65,-2.1254022592437354e+65,-7.945746235365509e+64
12.53040606,1.7847598376904426e+65,-2.1046058847367412e+65,-7.869292727409575e+64
12.53518252,1.7667223040217842e+65,-2.084012891096238e+65,-7.793533506108435e+64
12.53995903,1.7488627998032185e+65,-2.0636214202364873e+65,-7.718463016026078e+64
12.54473549,1.7311797044927246e+65,-2.0434296283755145e+65,-7.644075741864068e+64
12.54951194,1.7136714103218917e+65,-2.023435685939191e+65,-7.570366207994687e+64
12.55428846,1.696336322199164e+65,-2.0036377774668064e+65,-7.497328978002755e+64
12.55906491,1.679172857614615e+65,-1.984034101518132e+65,-7.424958654235926e+64
12.56384137,1.6621794465462017e+65,-1.9646228705819733e+65,-7.353249877363377e+64
12.56861788,1.6453545313674452e+65,-1.9454023109862081e+65,-7.282197325942708e+64
12.57339434,1.6286965667564865e+65,-1.9263706628092946e+65,-7.211795715994948e+64
12.5781708,1.6122040196064815e+65,-1.9075261797932222e+65,-7.142039800587538e+64
12.58294726,1.5958753689372969e+65,-1.8888671292578817e+65,-7.072924369425183e+64
12.58772377,1.579709105808473e+65,-1.8703917920168207e+65,-7.004444248448378e+64
12.59250022,1.5637037332334066e+65,-1.8520984622943351e+65,-6.936594299439522e+64
12.59727674,1.5478577660947114e+65,-1.833985447643848e+65,-6.86936941963654e+64
12.60205319,1.5321697310607153e+65,-1.8160510688675185e+65,-6.802764541354012e+64
12.60682965,1.5166381665030618e+65,-1.7982936599370302e+65,-6.736774631611802e+64
12.61160611,1.5012616224153903e+65,-1.7807115679155054e+65,-6.671394691771167e+64
12.61638262,1.4860386603330466e+65,-1.7633031528804835e+65,-6.606619757178382e+64
12.62115908,1.4709678532537842e+65,-1.7460667878479117e+65,-6.542444896815811e+64
12.62593554,1.4560477855594175e+65,-1.72900085869709e+65,-6.478865212960394e+64
12.63071205,1.441277052938388e+65,-1.712103764096508e+65,-6.415875840849487e+64
12.63548851,1.426654262309219e+65,-1.6953739154305146e+65,-6.353471948353962e+64
12.64026496,1.4121780317448457e+65,-1.6788097367267697e+65,-6.291648735658558e+64
12.64504148,1.3978469903978097e+65,-1.662409664584427e+65,-6.23040143494936e+64
12.64981793,1.3836597784263088e+65,-1.646172148103003e+65,-6.169725310108359e+64
12.65459439,1.369615046921097e+65,-1.6300956488118804e+65,-6.109615656415009e+64
12.6593709,1.3557114578332147e+65,-1.6141786406003766e+65,-6.050067800254735e+64
12.66414736,1.341947683902523e+65,-1.5984196096483116e+65,-5.991077098834412e+64
12.66892382,1.3283224085870224e+65,-1.5828170543569962e+65,-5.932638939904819e+64
12.67370028,1.3148343259929334e+65,-1.5673694852805731e+65,-5.874748741490117e+64
12.67847679,1.3014821408055384e+65,-1.5520754250576364e+65,-5.817401951624358e+64
12.68325325,1.2882645682207835e+65,-1.5369334083430754e+65,-5.760594048095034e+64
12.6880297,1.2751803338776307e+65,-1.5219419817400869e+65,-5.704320538193656e+64
12.69280622,1.262228173791154e+65,-1.5070997037323113e+65,-5.648576958473348e+64
12.69758267,1.2494068342863653e+65,-1.492405144616062e+65,-5.59335887451344e+64
12.70235913,1.2367150719327648e+65,-1.47785688643261e+65,-5.538661880691037e+64
12.70713564,1.224151653479587e+65,-1.463453522900501e+65,-5.484481599959515e+64
12.7119121,1.2117153557917244e+65,-1.4491936593478839e+65,-5.430813683633913e+64
12.71668856,1.1994049657862963e+65,-1.4350759126448516e+65,-5.37765381118317e+64
12.72146502,1.1872192803698248e+65,-1.4210989111357808e+65,-5.32499769002909e+64
12.72624153,1.175157106375997e+65,-1.4072612945716672e+65,-5.272841055351957e+64
12.73101799,1.1632172605039826e+65,-1.3935617140424642e+65,-5.221179669902637e+64
12.73579444,1.1513985692572864e+65,-1.3799988319094295e+65,-5.1700093238210716e+64
12.74057096,1.1396998688831104e+65,-1.3665713217375046e+65,-5.119325834461003e+64
12.74534741,1.1281200053122062e+65,-1.3532778682277437e+65,-5.069125046220777e+64
12.75012387,1.1166578340992028e+65,-1.3401171671498207e+65,-5.0194028303800105e+64
12.75490038,1.1053122203633986e+65,-1.3270879252746413e+65,-4.9701550849419227e+64
12.75967684,1.0940820387300012e+65,-1.3141888603070816e+65,-4.9213777344811416e+64
12.7644533,1.0829661732718048e+65,-1.3014187008188535e+65,-4.8730667299968155e+64
12.76922976,1.0719635174512928e+65,-1.2887761861815028e+65,-4.825218048770859e+64
12.77400627,1.0610729740631532e+65,-1.2762600664995515e+65,-4.777827694231175e+64
12.77878273,1.0502934551771778e+65,-1.2638691025437914e+65,-4.7308916958197313e+64
12.78355924,1.0396238820815062e+65,-1.2516020656847429e+65,-4.684406108865375e+64
12.78833569,1.0290631852261744e+65,-1.239457737826274e+65,-4.638367014461231e+64
12.79311215,1.0186103041669401e+65,-1.227434911339377e+65,-4.5927705193465025e+64
12.79788861,1.0082641875093767e+65,-1.2155323889961111e+65,-4.5476127557924954e+64
12.80266512,9.980237928532275e+64,-1.2037489839037214e+65,-4.5028898814926467e+64
12.80744158,9.878880867370069e+64,-1.192083519438937e+65,-4.4585980794563606e+64
12.81221804,9.778560445828305e+64,-1.1805348291824479e+65,-4.414733557906466e+64
12.8169945,9.679266506414453e+64,-1.1691017568535518e+65,-4.37129255018009e+64
12.82177101,9.580988979374469e+64,-1.1577831562449795e+65,-4.328271314632776e+64
12.82654746,9.483717882146617e+64,-1.1465778911578941e+65,-4.2856661345457033e+64
12.83132392,9.387443318816677e+64,-1.1354848353370706e+65,-4.243473318035857e+64
12.83610043,9.292155479574296e+64,-1.1245028724062605e+65,-4.2016891979689956e+64
12.84087689,9.197844640170243e+64,-1.1136308958037436e+65,-4.1603101318752306e+64
12.84565335,9.104501161374285e+64,-1.102867808718056e+65,-4.119332501867066e+64
12.85042986,9.012115488433407e+64,-1.0922125240238797e+65,-4.078752714559756e+64
12.85520632,8.920678150530131e+64,-1.0816639642180887e+65,-4.038567200993835e+64
12.85998278,8.830179760240734e+64,-1.0712210613559463e+65,-3.9987724165596466e+64
12.86475929,8.740611012993182e+64,-1.0608827569874627e+65,-3.959364840923685e+64
12.86953575,8.651962686524678e+64,-1.0506480020939188e+65,-3.920340977956548e+64
12.8743122,8.564225640338704e+64,-1.0405157570245611e+65,-3.881697355662299e+64
12.87908872,8.477390815161418e+64,-1.0304849914334776e+65,-3.84343052610905e+64
12.88386517,8.39144923239731e+64,-1.0205546842166587e+65,-3.805537065360589e+64
12.88864163,8.306391993584084e+64,-1.0107238234492452e+65,-3.7680135734089106e+64
12.89341809,8.222210279846771e+64,-1.0009914063229683e+65,-3.730856674107494e+64
12.8981946,8.138895351351103e+64,-9.913564390837891e+64,-3.6940630151052273e+64
12.90297106,8.056438546756153e+64,-9.818179369697401e+64,-3.6576292677808637e+64
12.90774752,7.974831282666238e+64,-9.723749241489653e+64,-3.6215521271779087e+64
12.91252403,7.894065053082105e+64,-9.63026433657969e+64,-3.585828311939789e+64
12.91730049,7.814131428851465e+64,-9.537715073400836e+64,-3.5504545642451636e+64
12.92207694,7.735022057118924e+64,-9.446091957841722e+64,-3.5154276497432664e+64
12.92685346,7.656728660775347e+64,-9.355385582635807e+64,-3.480744357489184e+64
12.93162991,7.579243037906731e+64,-9.265586626753559e+64,-3.446401499878938e+64
12.93640637,7.50255706124269e+64,-9.1766858547974e+64,-3.412395912584255e+64
12.94118288,7.426662677604689e+64,-9.088674116399499e+64,-3.3787244544869594e+64
12.94595934,7.351551907354106e+64,-9.001542345622455e+64,-3.345384007612901e+64
12.9507358,7.277216843840277e+64,-8.915281560362977e+64,-3.31237147706533e+64
12.95551226,7.203649652848671e+64,-8.829882861758639e+64,-3.279683790957628e+64
12.96028877,7.130842572049371e+64,-8.745337433597772e+64,-3.247317900345285e+64
12.96506522,7.058787910445991e+64,-8.661636541732572e+64,-3.2152707791570357e+64
12.96984168,6.987478047825218e+64,-8.57877153349546e+64,-3.183539424125124e+64
12.97461819,6.916905434207129e+64,-8.496733837118714e+64,-3.1521208547147097e+64
12.97939465,6.847062589296452e+64,-8.415514961157356e+64,-3.12101211305245e+64
12.98417111,6.777942101934986e+64,-8.335106493915336e+64,-3.090210263854266e+64
12.98894757,6.709536629555379e+64,-8.255500102875003e+64,-3.0597123943523195e+64
12.99372408,6.641838897636467e+64,-8.176687534129864e+64,-3.029515614221207e+64
12.99850054,6.574841699160306e+64,-8.098660611820658e+64,-2.9996170555033905e+64
13.003277,6.508537894071151e+64,-8.021411237574813e+64,-2.9700138725338744e+64
13.00805351,6.442920408736649e+64,-7.944931389949337e+64,-2.940703241864168e+64
13.01282997,6.377982235411456e+64,-7.869213123877276e+64,-2.911682362185533e+64
13.01760642,6.313716431703477e+64,-7.794248570117767e+64,-2.8829484542515125e+64
13.02238288,6.250116120042836e+64,-7.720029934709665e+64,-2.854498760799722e+64
13.02715939,6.187174487153779e+64,-7.646549498428688e+64,-2.8263305464729066e+64
13.03193585,6.12488478352965e+64,-7.573799616248049e+64,-2.798441097739322e+64
13.03671231,6.063240322911139e+64,-7.501772716802546e+64,-2.7708277228124784e+64
13.04148882,6.002234481767952e+64,-7.430461301855998e+64,-2.7434877515703065e+64
13.04626528,5.941860698784064e+64,-7.359857945771956e+64,-2.716418535473782e+64
13.05104174,5.882112474346711e+64,-7.289955294987525e+64,-2.689617447485049e+64
13.05581825,5.822983370039229e+64,-7.220746067490151e+64,-2.66308188198508e+64
13.06059471,5.764467008137827e+64,-7.152223052297193e+64,-2.636809254690931e+64
13.06537116,5.706557071112418e+64,-7.084379108938138e+64,-2.6107970025726127e+64
13.07014767,5.649247301131574e+64,-7.017207166939274e+64,-2.5850425837696336e+64
13.07492413,5.592531499571709e+64,-6.950700225310649e+64,-2.5595434775072368e+64
13.07970059,5.536403526530556e+64,-6.884851352035192e+64,-2.534297184012348e+64
13.0844771,5.480857300345029e+64,-6.819653683559825e+64,-2.5093012244292272e+64
13.08925356,5.425886797113468e+64,-6.755100424288427e+64,-2.4845531407348367e+64
13.09403002,5.371486050222261e+64,-6.69118484607651e+64,-2.4600504956539273e+64
13.09880648,5.317649149876804e+64,-6.62790028772752e+64,-2.4357908725738383e+64
13.10358299,5.2643702426367566e+64,-6.565240154490671e+64,-2.4117718754589892e+64
13.10835944,5.211643530955535e+64,-6.503197917560309e+64,-2.3879911287650322e+64
13.1131359,5.159463272723998e+64,-6.441767113576815e+64,-2.3644462773526447e+64
13.11791241,5.107823780818278e+64,-6.380941344129027e+64,-2.341134986400943e+64
13.12268887,5.0567194226517577e+64,-6.320714275258243e+64,-2.3180549413205004e+64
13.12746533,5.006144619731138e+64,-6.2610796369638e+64,-2.295203847665964e+64
13.13224179,4.95609384721651e+64,-6.202031222710229e+64,-2.2725794310482686e+64
13.1370183,4.9065616334853364e+64,-6.143562888935963e+64,-2.2501794370464453e+64
13.14179476,4.85754255970023e+64,-6.085668554563611e+64,-2.228001631119035e+64
13.14657122,4.8090312593804706e+64,-6.028342200511783e+64,-2.206043798515094e+64
13.15134772,4.761022417977186e+64,-5.971577869208443e+64,-2.1843037441847824e+64
13.15612418,4.7135107724521456e+64,-5.91536966410576e+64,-2.1627792926895026e+64
13.16090064,4.666491110860099e+64,-5.859711749196494e+64,-2.1414682881115697e+64
13.16567715,4.619958271934587e+64,-5.80459834853189e+64,-2.120368593963404e+64
13.17045361,4.573907144677161e+64,-5.750023745741062e+64,-2.0994780930962306e+64
13.17523007,4.528332667949911e+64,-5.695982283551862e+64,-2.0787946876082624e+64
13.18000658,4.483229830071234e+64,-5.642468363313222e+64,-2.0583162987523487e+64
13.18478304,4.438593668414767e+64,-5.58947644451897e+64,-2.0380408668430807e+64
13.1895595,4.394419269011414e+64,-5.537001044333131e+64,-2.0179663511633156e+64
13.19433596,4.350701766154393e+64,-5.485036737116706e+64,-1.9980907298700957e+64
13.19911246,4.3074363420071957e+64,-5.433578153955908e+64,-1.978411999899939e+64
13.20388892,4.2646182262143254e+64,-5.382619982191847e+64,-1.958928176873471e+64
13.20866538,4.2222426955147045e+64,-5.33215696495163e+64,-1.9396372949993623e+64
13.21344189,4.1803050733576616e+64,-5.28218390068091e+64,-1.920537406977536e+64
13.21821835,4.1388007295214486e+64,-5.232695642677912e+64,-1.9016265839016338e+64
13.22299481,4.0977250797342474e+64,-5.183687098629002e+64,-1.8829029151607207e+64
13.22777132,4.057073585297621e+64,-5.1351532301458594e+64,-1.8643645083402286e+64
13.23254778,4.0168417527123496e+64,-5.08708905230432e+64,-1.8460094891221246e+64
13.23732424,3.977025133306627e+64,-5.039489633184913e+64,-1.827836001184299e+64
13.24210069,3.937619322866609e+64,-4.9923500934150885e+64,-1.8098422060991446e+64
13.2468772,3.8986199612693233e+64,-4.9456656057131404e+64,-1.7920262832312975e+64
13.25165366,3.860022732117906e+64,-4.899431394433872e+64,-1.7743864296345003e+64
13.25643012,3.8218233623791494e+64,-4.8536427351160347e+64,-1.7569208599475544e+64
13.26120663,3.784017622023341e+64,-4.8082949540315957e+64,-1.7396278062893517e+64
13.26598309,3.746601323666363e+64,-4.7633834277368777e+64,-1.7225055181529728e+64
13.27075955,3.7095703222140273e+64,-4.71890358262561e+64,-1.7055522622988526e+64
13.27553606,3.6729205145086304e+64,-4.6748508944839505e+64,-1.6887663226470174e+64
13.28031252,3.636647838977698e+64,-4.631220888047557e+64,-1.6721460001684002e+64
13.28508898,3.60074827528493e+64,-4.5880091365608013e+64,-1.6556896127752497e+64
13.28986543,3.565217843983324e+64,-4.545211261338176e+64,-1.639395495210645e+64
13.29464194,3.530052606170469e+64,-4.502822931327987e+64,-1.6232619989371365e+64
13.2994184,3.495248663145985e+64,-4.4608398626783697e+64,-1.6072874920245304e+64
13.30419486,3.460802156071121e+64,-4.41925781830568e+64,-1.5914703590368247e+64
13.30897137,3.426709265630474e+64,-4.378072607465314e+64,-1.5758090009183056e+64
13.31374783,3.392966211695813e+64,-4.337280085325032e+64,-1.5603018348788185e+64
13.31852429,3.3595692529919375e+64,-4.2968761525408635e+64,-1.5449472942782298e+64
13.32330075,3.326514686764542e+64,-4.256856754835646e+64,-1.5297438285101195e+64
13.32807726,3.293798848450015e+64,-4.217217882580264e+64,-1.514689902884758e+64
13.33285372,3.261418111347112e+64,-4.1779555703776524e+64,-1.4997839985114076e+64
13.33763017,3.2293688862904355e+64,-4.1390658966496096e+64,-1.4850246121799755e+64
13.34240668,3.197647621325636e+64,-4.100544983226455e+64,-1.470410256242041e+64
13.34718314,3.166250801386263e+64,-4.0623889949395426e+64,-1.4559394584912742e+64
13.3519596,3.135174947972235e+64,-4.024594139216659e+64,-1.441610762043272e+64
13.35673606,3.1044166188299404e+64,-3.987156665680296e+64,-1.4274227252148456e+64
13.36151257,3.0739724076340106e+64,-3.950072865748827e+64,-1.4133739214027885e+64
13.36628903,3.043838943670806e+64,-3.913339072240592e+64,-1.3994629389621456e+64
13.37106549,3.014012891523674e+64,-3.8769516589809216e+64,-1.385688381084009e+64
13.375842,2.984490950759988e+64,-3.8409070404121067e+64,-1.372048865672847e+64
13.38061846,2.955269855619993e+64,-3.805201671206349e+64,-1.358543025223383e+64
13.38539491,2.92634637470749e+64,-3.7698320458817203e+64,-1.345169506697035e+64
13.39017142,2.8977173106823694e+64,-3.734794698421108e+64,-1.331926971397934e+64
13.39494788,2.869379499955027e+64,-3.700086201894126e+64,-1.31881409484854e+64
13.39972434,2.8413298123827057e+64,-3.665703168081984e+64,-1.3058295666648623e+64
13.4045008,2.813565150967793e+64,-3.631642247105256e+64,-1.2929720904313054e+64
13.40927731,2.786082451558132e+64,-3.5979001270544506e+64,-1.2802403835751637e+64
13.41405377,2.758878682549396e+64,-3.564473533623264e+64,-1.2676331772408026e+64
13.41883022,2.731950844589576e+64,-3.531359229744394e+64,-1.2551492161635646e+64
13.42360674,2.705295970285646e+64,-3.49855401522777e+64,-1.2427872585434444e+64
13.42838319,2.678911123912425e+64,-3.4660547264010876e+64,-1.2305460759185707e+64
13.43315965,2.652793401123646e+64,-3.433858235752545e+64,-1.218424453038537e+64
13.43793616,2.626939928665235e+64,-3.4019614515756716e+64,-1.2064211877376362e+64
13.44271262,2.601347864090805e+64,-3.370361317616148e+64,-1.1945350908080472e+64
13.44748908,2.5760143954793383e+64,-3.339054812720511e+64,-1.1827649858730133e+64
13.45226554,2.5509367411550308e+64,-3.308038950486606e+64,-1.171109709260042e+64
13.45704205,2.5261121494092454e+64,-3.2773107789157004e+64,-1.1595681098741464e+64
13.46181851,2.5015378982245412e+64,-3.2468673800661555e+64,-1.1481390490711406e+64
13.46659496,2.47721129500076e+64,-3.216705869708588e+64,-1.1368214005310112e+64
13.47137148,2.4531296762831705e+64,-3.186823396982469e+64,-1.125614050131387e+64
13.47614793,2.4292904074926497e+64,-3.1572171440541406e+64,-1.114515895821137e+64
13.48092439,2.40569088265787e+64,-3.127884325776257e+64,-1.1035258474941268e+64
13.48570085,2.382328524149446e+64,-3.098822189348689e+64,-1.0926428268631706e+64
13.49047736,2.3592007824159976e+64,-3.0700280139809124e+64,-1.0818657673342124e+64
13.49525382,2.3363051357220887e+64,-3.04149911055591e+64,-1.0711936138807662e+64
13.50003028,2.3136390898880082e+64,-3.013232821295615e+64,-1.0606253229186614e+64
13.50480679,2.2912001780313553e+64,-2.9852265194279064e+64,-1.050159862181127e+64
13.50958325,2.2689859603104043e+64,-2.957477608855175e+64,-1.0397962105942601e+64
13.5143597,2.246994023669219e+64,-2.9299835238244394e+64,-1.0295333581529249e+64
13.51913622,2.2252219815844617e+64,-2.9027417285989766e+64,-1.0193703057971278e+64
13.52391267,2.2036674738138473e+64,-2.875749717131416e+64,-1.009306065288921e+64
13.52868913,2.182328166146179e+64,-2.8490050127382506e+64,-9.993396590898765e+63
13.53346559,2.1612017501529284e+64,-2.82250516777574e+64,-9.89470120239179e+63
13.5382421,2.1402859429413308e+64,-2.796247763317173e+64,-9.796964922323709e+63
13.54301856,2.1195784869089647e+64,-2.770230408831478e+64,-9.700178289007889e+63
13.54779502,2.0990771494997844e+64,-2.7444507418631693e+64,-9.604331942917215e+63
13.55257153,2.078779722961562e+64,-2.718906427713634e+64,-9.509416625493111e+63
13.55734799,2.058684024104697e+64,-2.6935951591237617e+64,-9.41542317796222e+63
13.56212444,2.038787894062351e+64,-2.668514655957936e+64,-9.32234254016092e+63
13.5669009,2.0190891980518714e+64,-2.6436626648893987e+64,-9.230165749367962e+63
13.57167741,1.999585825137479e+64,-2.619036959087031e+64,-9.138883939145474e+63
13.57645387,1.9802756879941916e+64,-2.5946353379035555e+64,-9.048488338188629e+63
13.58123033,1.9611567226729583e+64,-2.5704556265651827e+64,-8.958970269184216e+63
13.58600684,1.9422268883669773e+64,-2.546495675862698e+64,-8.8703211476783e+63
13.5907833,1.9234841671791957e+64,-2.522753361844006e+64,-8.782532480953089e+63
13.59555976,1.904926563891002e+64,-2.4992265855081435e+64,-8.695595866913072e+63
13.60033622,1.8865521057321388e+64,-2.4759132725007878e+64,-8.609502992980555e+63
13.60511273,1.868358842151881e+64,-2.452811372811308e+64,-8.52424563500076e+63
13.60988918,1.8503448445915204e+64,-2.4299188604714e+64,-8.439815656156612e+63
13.61466564,1.832508206258217e+64,-2.4072337332553423e+64,-8.356205005893306e+63
13.61944215,1.8148470419002708e+64,-2.3847540123819222e+64,-8.273405718852777e+63
13.62421861,1.7973594875838804e+64,-2.3624777422180953e+64,-8.191409913818183e+63
13.62899507,1.7800437004714353e+64,-2.3404029899844397e+64,-8.11020979266852e+63
13.63377158,1.7628978586013936e+64,-2.318527845462491e+64,-8.029797639343504e+63
13.63854804,1.7459201606697695e+64,-2.2968504207040438e+64,-7.950165818818921e+63
13.6433245,1.729108825813261e+64,-2.275368849742502e+64,-7.871306776092612e+63
13.64810096,1.7124620933940346e+64,-2.2540812883063656e+64,-7.793213035181216e+63
13.65287747,1.6959782227862103e+64,-2.2329859135349393e+64,-7.715877198127858e+63
13.65765392,1.6796554931640777e+64,-2.2120809236963425e+64,-7.639291944020873e+63
13.66243038,1.663492203292051e+64,-2.19136453790789e+64,-7.563450028023637e+63
13.66720689,1.6474866713163568e+64,-2.170834995858898e+64,-7.48834428041565e+63
13.67198335,1.6316372345584603e+64,-2.1504905575359794e+64,-7.413967605645011e+63
13.67675981,1.6159422493102254e+64,-2.1303295029508856e+64,-7.340312981392451e+63
13.68153627,1.6004000906308056e+64,-2.1103501318709176e+64,-7.267373457646997e+63
13.68631278,1.5850091521452426e+64,-2.0905507635519328e+64,-7.195142155793353e+63
13.69108924,1.569767845844743e+64,-2.0709297364739485e+64,-7.123612267711157e+63
13.69586569,1.55467460188862e+64,-2.0514854080793365e+64,-7.052777054886238e+63
13.70064221,1.539727868407885e+64,-2.0322161545136e+64,-6.982629847533972e+63
13.70541866,1.5249261113104662e+64,-2.01312037036871e+64,-6.913164043734832e+63
13.71019512,1.5102678140880445e+64,-1.994196468428989e+64,-6.844373108582261e+63
13.71497163,1.495751477624462e+64,-1.9754428794195343e+64,-6.77625057334298e+63
13.71974809,1.4813756200056883e+64,-1.9568580517571817e+64,-6.708790034629773e+63
13.72452455,1.4671387763313343e+64,-1.9384404513040274e+64,-6.641985153586819e+63
13.72930101,1.4530394985277127e+64,-1.9201885611235064e+64,-6.5758296550875426e+63
13.73407752,1.4390763551624292e+64,-1.9021008812390315e+64,-6.510317326944927e+63
13.73885398,1.4252479312604942e+64,-1.884175928395199e+64,-6.4454420191342545e+63
13.74363043,1.4115528281219495e+64,-1.8664122358215713e+64,-6.381197643028216e+63
13.74840694,1.3979896631410174e+64,-1.8488083529990577e+64,-6.317578170644263e+63
13.7531834,1.384557069626763e+64,-1.8313628454288982e+64,-6.254577633904102e+63
13.75795986,1.3712536966252732e+64,-1.8140742944042576e+64,-6.192190123905321e+63
13.76273632,1.358078208743353e+64,-1.7969412967844394e+64,-6.130409790205111e+63
13.76751283,1.345029285973741e+64,-1.779962464771715e+64,-6.069230840116016e+63
13.77228929,1.332105623521839e+64,-1.7631364256907608e+64,-6.008647538013619e+63
13.77706575,1.3193059316339464e+64,-1.7464618217707036e+64,-5.948654204656086e+63
13.7818422,1.3066289354269879e+64,-1.7299373099297716e+64,-5.889245216515467e+63
13.78661872,1.294073374719721e+64,-1.713561561562556e+64,-5.830415005120604e+63
13.79139517,1.281638003865419e+64,-1.6973332623298894e+64,-5.772158056411471e+63
13.79617163,1.26932159158603e+64,-1.6812511119513756e+64,-5.714468910104778e+63
13.80094814,1.2571229208078159e+64,-1.6653138240005923e+64,-5.657342159070635e+63
13.8057246,1.245040788498463e+64,-1.6495201257029828e+64,-5.6007724487200414e+63
13.81050106,1.2330740055056653e+64,-1.633868757736442e+64,-5.544754476402937e+63
13.81527757,1.2212213963971713e+64,-1.618358474034596e+64,-5.489282990816513e+63
13.82005403,1.2094817993022969e+64,-1.602988041592777e+64,-5.434352791423537e+63
13.82483049,1.1978540657548976e+64,-1.5877562402767057e+64,-5.379958727880435e+63
13.82960694,1.1863370605378024e+64,-1.572661862633889e+64,-5.32609569947492e+63
13.83438346,1.1749296615286956e+64,-1.557703713707736e+64,-5.272758654572901e+63
13.83915991,1.16363075954744e+64,-1.542880610854384e+64,-5.2199425900744295e+63
13.84393637,1.152439258204831e+64,-1.528191383562232e+64,-5.1676425508784615e+63
13.84871288,1.141354073752777e+64,-1.5136348732741796e+64,-5.1158536293562224e+63
13.85348934,1.1303741349359041e+64,-1.4992099332125687e+64,-5.0645709648329685e+63
13.8582658,1.1194983828445762e+64,-1.4849154282068042e+64,-5.013789743077918e+63
13.86304226,1.1087257707693194e+64,-1.4707502345236356e+64,-4.963505195802101e+63
13.86781877,1.0980552640566347e+64,-1.4567132397000646e+64,-4.9137126001639185e+63
13.87259523,1.0874858399661777e+64,-1.4428033423788377e+64,-4.86440727828222e+63
13.87737168,1.07701648752929e+64,-1.4290194521464936e+64,-4.8155845967567625e+63
13.88214819,1.0666462074088669e+64,-1.415360489373938e+64,-4.767239966195883e+63
13.88692465,1.0563740117605487e+64,-1.4018253850595196e+64,-4.719368840751203e+63
13.89170111,1.0461989240952248e+64,-1.388413080674573e+64,-4.671966717659201e+63
13.89647757,1.0361199791428479e+64,-1.3751225280113933e+64,-4.625029136789504e+63
13.90125408,1.0261362227175542e+64,-1.361952689033623e+64,-4.578551680199755e+63
13.90603054,1.016246711584091e+64,-1.3489025357290264e+64,-4.5325299716969364e+63
13.910807,1.0064505133255399e+64,-1.3359710499646303e+64,-4.486959676405007e+63
13.91558351,9.967467062123163e+63,-1.3231572233442027e+64,-4.441836500338743e+63
13.92035997,9.871343790724181e+63,-1.3104600570680542e+64,-4.397156189983625e+63
13.92513642,9.776126311629004e+63,-1.2978785617951292e+64,-4.35291453188168e+63
13.92991288,9.68180572042555e+63,-1.2854117575073567e+64,-4.309107352223163e+63
13.93468939,9.588373214457783e+63,-1.2730586733762267e+64,-4.2657305164439924e+63
13.93946585,9.495820091576178e+63,-1.2608183476315553e+64,-4.2227799288288e+63
13.94424231,9.404137748899906e+63,-1.2486898274324019e+64,-4.180251532119487e+63
13.94901882,9.313317681590745e+63,-1.2366721687400994e+64,-4.138141307129207e+63
13.95379528,9.223351481638613e+63,-1.224764436193372e+64,-4.096445272361727e+63
13.95857174,9.134230836658594e+63,-1.2129657029855103e+64,-4.055159483636114e+63
13.96334819,9.045947528699331e+63,-1.2012750507435815e+64,-4.014280033716658e+63
13.96812471,8.958493433062661e+63,-1.1896915694096582e+64,-3.973803051947913e+63
13.97290116,8.87186051713439e+63,-1.1782143571240398e+64,-3.9337247038947405e+63
13.97767762,8.78604083922616e+63,-1.1668425201104415e+64,-3.894041190987222e+63
13.98245413,8.70102654742846e+63,-1.155575172563127e+64,-3.854748750170299e+63
13.98723059,8.616809878474724e+63,-1.1444114365359553e+64,-3.8158436535579946e+63
13.99200705,8.53338315661665e+63,-1.13335044183331e+64,-3.7773222080920824e+63
13.99678351,8.450738792510671e+63,-1.1223913259028835e+64,-3.739180755205025e+63
14.00156002,8.368869282115578e+63,-1.1115332337302977e+64,-3.7014156704870446e+63
14.00633648,8.287767205601346e+63,-1.1007753177355376e+64,-3.6640233633572e+63
14.01111293,8.207425226269169e+63,-1.0901167376711734e+64,-3.6270002767383505e+63
14.01588944,8.127836089482622e+63,-1.0795566605223469e+64,-3.590342886735898e+63
14.0206659,8.048992621609935e+63,-1.0690942604085005e+64,-3.5540477023202015e+63
14.02544236,7.970887728977306e+63,-1.0587287184868255e+64,-3.51811126501261e+63
14.03021882,7.893514396833262e+63,-1.0484592228573998e+64,-3.48253014857507e+63
14.03499533,7.816865688324027e+63,-1.0382849684699845e+64,-3.447300958703282e+63
14.03977179,7.740934743479817e+63,-1.0282051570324526e+64,-3.4124203327233415e+63
14.04454825,7.665714778211974e+63,-1.0182189969208243e+64,-3.3778849392917844e+63
14.04932476,7.591199083320918e+63,-1.0083257030908816e+64,-3.343691478098952e+63
14.05410122,7.517381023514807e+63,-9.98524496991337e+63,-3.309836679575628e+63
14.05887767,7.444254036438868e+63,-9.88814606478526e+63,-3.2763173046029036e+63
14.06365413,7.371811631715344e+63,-9.791952657325979e+63,-3.2431301442252412e+63
14.06843064,7.300047389993997e+63,-9.696657151751834e+63,-3.210272019366674e+63
14.0732071,7.228954962013095e+63,-9.602252013885229e+63,-3.1777397805501016e+63
14.07798356,7.15852806767078e+63,-9.508729770360294e+63,-3.1455303076196417e+63
14.08276007,7.088760495106773e+63,-9.416083007842714e+63,-3.113640509466009e+63
14.08753653,7.019646099794431e+63,-9.324304372263642e+63,-3.0820673237548897e+63
14.09231299,6.951178803643202e+63,-9.233386568067578e+63,-3.0508077166582954e+63
14.09708944,6.883352594111486e+63,-9.143322357473982e+63,-3.0198586825889014e+63
14.10186596,6.816161523329977e+63,-9.054104559752405e+63,-2.9892172439373388e+63
14.10664241,6.749599707235464e+63,-8.965726050510982e+63,-2.9588804508123945e+63
14.11141887,6.683661324715095e+63,-8.878179760998117e+63,-2.9288453807840766e+63
14.11619538,6.618340616761131e+63,-8.79145867741727e+63,-2.8991091386294972e+63
14.12097184,6.5536318856361644e+63,-8.705555840254761e+63,-2.869668856081547e+63
14.1257483,6.489529494048782e+63,-8.620464343620388e+63,-2.840521691580337e+63
14.13052476,6.42602786433964e+63,-8.53617733460074e+63,-2.8116648300273953e+63
14.13530127,6.363121477677903e+63,-8.452688012625211e+63,-2.7830954825425837e+63
14.14007773,6.300804873267942e+63,-8.369989628844674e+63,-2.75481088622371e+63
14.14485418,6.2390726475662116e+63,-8.288075485522899e+63,-2.7268083039088005e+63
14.14963069,6.177919453508224e+63,-8.206938935440788e+63,-2.699085023940999e+63
14.15440715,6.117339999745505e+63,-8.126573381313528e+63,-2.6716383599360874e+63
14.15918361,6.05732904989245e+63,-8.046972275220722e+63,-2.644465650552595e+63
14.16396007,5.9978814217830456e+63,-7.968129118049522e+63,-2.617564259264491e+63
14.16873658,5.9389919867374594e+63,-7.890037458950726e+63,-2.590931574136426e+63
14.17351304,5.8806556688384634e+63,-7.812690894807706e+63,-2.564565007601493e+63
14.1782895,5.8228674442176735e+63,-7.736083069717975e+63,-2.538461996241465e+63
14.18306601,5.765622340351556e+63,-7.660207674487266e+63,-2.5126200005694766e+63
14.18784247,5.708915435367137e+63,-7.585058446135983e+63,-2.487036504815102e+63
14.19261892,5.652741857357314e+63,-7.510629167417816e+63,-2.461709016711752e+63
14.19739538,5.597096783705618e+63,-7.436913666350285e+63,-2.436635067286344e+63
14.20217189,5.5419754404203e+63,-7.363905815756956e+63,-2.4118122106512075e+63
14.20694835,5.4873731014776154e+63,-7.29159953282112e+63,-2.3872380237981885e+63
14.21172481,5.433285088174156e+63,-7.21998877865069e+63,-2.3629101063948913e+63
14.21650127,5.3797067684880846e+63,-7.149067557854043e+63,-2.3388260805830073e+63
14.22127778,5.326633556449126e+63,-7.078829918126433e+63,-2.314983590778679e+63
14.22605424,5.2740609115171684e+63,-7.009269949846659e+63,-2.29138030347484e+63
14.23083069,5.221984337969375e+63,-6.940381785683646e+63,-2.2680139070454727e+63
14.2356072,5.170399384295737e+63,-6.872159600212636e+63,-2.2448821115517195e+63
14.24038366,5.119301642603019e+63,-6.80459760954071e+63,-2.2219826485497877e+63
14.24516012,5.068686748027056e+63,-6.737690070941398e+63,-2.1993132709005714e+63
14.24993658,5.0185503781533704e+63,-6.671431282498062e+63,-2.176871752580901e+63
14.25471309,4.968888252446126e+63,-6.605815582755817e+63,-2.154655888496339e+63
14.25948955,4.919696131685454e+63,-6.5408373503817376e+63,-2.1326634942954565e+63
14.26426601,4.8709698174132146e+63,-6.476491003833193e+63,-2.1108924061855226e+63
14.26904246,4.822705151387246e+63,-6.412771001034095e+63,-2.0893404807495417e+63
14.27381898,4.774898015044134e+63,-6.3496718390588665e+63,-2.0680055947645774e+63
14.27859543,4.727544328970477e+63,-6.28718805382394e+63,-2.046885645021304e+63
14.28337189,4.6806400523826634e+63,-6.225314219786633e+63,-2.0259785481447555e+63
14.2881484,4.634181182615087e+63,-6.1640449496512635e+63,-2.0052822404162372e+63
14.29292486,4.588163754616753e+63,-6.103374894082316e+63,-1.9847946775963304e+63
14.29770132,4.5425838404561525e+63,-6.043298741424412e+63,-1.9645138347489434e+63
14.30247783,4.497437548834357e+63,-5.9838112174289e+63,-1.944437706066325e+63
14.30725429,4.4527210246062764e+63,-5.924907084986881e+63,-1.9245643046949774e+63
14.31203075,4.408430448310037e+63,-5.866581143868511e+63,-1.904891662562391e+63
14.31680721,4.364562035704424e+63,-5.8088282304684465e+63,-1.8854178302045557e+63
14.32158372,4.3211120373142876e+63,-5.751643217557265e+63,-1.8661408765942027e+63
14.32636017,4.278076737983853e+63,-5.695021014038706e+63,-1.8470588889697377e+63
14.33113663,4.235452456437845e+63,-5.6389565647125616e+63,-1.8281699726648307e+63
14.33591309,4.1932355448503436e+63,-5.583444850043051e+63,-1.8094722509386385e+63
14.3406896,4.151422388421272e+63,-5.5284808859325474e+63,-1.7909638648066393e+63
14.34546606,4.110009404960414e+63,-5.474059723500527e+63,-1.772642972872066e+63
14.35024252,4.068993044478849e+63,-5.4201764488675996e+63,-1.7545077511579526e+63
14.35501903,4.028369788787681e+63,-5.366826182944505e+63,-1.7365563929398258e+63
14.35979549,3.988136151103953e+63,-5.31400408122594e+63,-1.7187871085790867e+63
14.36457194,3.948288675663661e+63,-5.2617053335890816e+63,-1.7011981253571515e+63
14.3693484,3.9088239373417964e+63,-5.209925164096683e+63,-1.683787687310401e+63
14.37412491,3.869738541279366e+63,-5.15865883080464e+63,-1.666554055065982e+63
14.37890137,3.831029122517268e+63,-5.1079016255739076e+63,-1.6494955056785088e+63
14.38367783,3.792692345636945e+63,-5.057648873886677e+63,-1.63261033246771e+63
14.38845434,3.7547249044076686e+63,-5.007895934666706e+63,-1.6158968448570629e+63
14.3932308,3.717123521440341e+63,-4.958638200103693e+63,-1.5993533682134506e+63
14.39800726,3.679884947847661e+63,-4.9098710954815854e+63,-1.5829782436878938e+63
14.40278372,3.6430059629105184e+63,-4.861590079010722e+63,-1.566769828057407e+63
14.40756023,3.606483373750494e+63,-4.813790641663756e+63,-1.5507264935680336e+63
14.41233668,3.570314015008284e+63,-4.766468307015313e+63,-1.534846627779108e+63
14.41711314,3.53449474852786e+63,-4.7196186310853565e+63,-1.519128633408784e+63
14.4218896,3.49902246304618e+63,-4.673237202186172e+63,-1.5035709281808561e+63
14.42666611,3.463894073888278e+63,-4.627319640772886e+63,-1.4881719446728903e+63
14.43144257,3.429106522667552e+63,-4.581861599297421e+63,-1.4729301301656823e+63
14.43621903,3.394656776991077e+63,-4.5368587620657925e+63,-1.4578439464940632e+63
14.44099554,3.360541830169807e+63,-4.4923068450986566e+63,-1.442911869899077e+63
14.445772,3.3267587009335275e+63,-4.4482015959949885e+63,-1.4281323908815531e+63
14.45054846,3.293304433150449e+63,-4.404538793798802e+63,-1.4135040140570959e+63
14.45532491,3.260176095551348e+63,-4.3613142488688296e+63,-1.3990252580125185e+63
14.46010142,3.227370781458118e+63,-4.318523802751091e+63,-1.384694655163731e+63
14.46487788,3.1948856085165836e+63,-4.276163328054227e+63,-1.370510751615097e+63
14.46965434,3.1627177184333842e+63,-4.234228728327477e+63,-1.3564721070202824e+63
14.47443085,3.1308642767167892e+63,-4.192715937941196e+63,-1.3425772944446162e+63
14.47920731,3.099322472421353e+63,-4.151620921969814e+63,-1.3288249002289845e+63
14.48398377,3.068089517896326e+63,-4.110939676077119e+63,-1.3152135238552851e+63
14.48876022,3.0371626485377234e+63,-4.0706682264037676e+63,-1.3017417778134645e+63
14.49353674,3.006539122543961e+63,-4.030802629456913e+63,-1.2884082874701622e+63
14.49831319,2.9762162206749864e+63,-3.991338972001825e+63,-1.275211690938988e+63
14.50308965,2.9461912460148155e+63,-3.952273370955349e+63,-1.2621506389524505e+63
14.50786611,2.916461523737416e+63,-3.913601973281054e+63,-1.249223794735558e+63
14.51264262,2.8870244008758804e+63,-3.875320955885914e+63,-1.2364298338811127e+63
14.51741908,2.8578772460948664e+63,-3.837426525518351e+63,-1.2237674442267207e+63
14.52219554,2.8290174494663046e+63,-3.7999149186675094e+63,-1.2112353257335362e+63
14.52697205,2.800442422248383e+63,-3.7627824014635885e+63,-1.1988321903667525e+63
14.53174851,2.7721495966678227e+63,-3.7260252695790485e+63,-1.1865567619778432e+63
14.53652497,2.7441364257054476e+63,-3.6896398481305045e+63,-1.1744077761885468e+63
14.54130142,2.7164003828850544e+63,-3.653622491581121e+63,-1.1623839802765801e+63
14.54607793,2.6889389620655628e+63,-3.6179695836433406e+63,-1.1504841330630587e+63
14.55085439,2.6617496772364527e+63,-3.582677537181775e+63,-1.1387070048015982e+63
14.55563085,2.6348300623164944e+63,-3.547742794116128e+63,-1.1270513770690688e+63
14.56040736,2.6081776709557767e+63,-3.513161825324009e+63,-1.1155160426579683e+63
14.56518382,2.58179007634105e+63,-3.478931130543512e+63,-1.1040998054703847e+63
14.56996028,2.5556648710043967e+63,-3.44504723827538e+63,-1.0928014804135235e+63
14.57473674,2.5297996666352405e+63,-3.411506705684602e+63,-1.0816198932967773e+63
14.57951325,2.504192093895672e+63,-3.378306118501269e+63,-1.0705538807303073e+63
14.58428971,2.478839802239092e+63,-3.345442090920518e+63,-1.0596022900251007e+63
14.58906616,2.453740459732165e+63,-3.3129112655013814e+63,-1.0487639790944604e+63
14.59384262,2.4288917528800886e+63,-3.280710313064356e+63,-1.0380378163569033e+63
14.59861913,2.4042913864551905e+63,-3.2488359325875286e+63,-1.0274226806404362e+63
14.60339559,2.3799370833288713e+63,-3.2172848511011226e+63,-1.0169174610881822e+63
14.60817205,2.3558265843069046e+63,-3.18605382358033e+63,-1.0065210570653385e+63
14.61294851,2.33195764796809e+63,-3.1551396328362998e+63,-9.96232378067444e+62
14.61772502,2.308328050506222e+63,-3.124539089405138e+63,-9.860503436299386e+62
14.62250148,2.2849355855753233e+63,-3.0942490314348118e+63,-9.759738832389955e+62
14.62727793,2.26177806413809e+63,-3.0642663245698697e+63,-9.66001936243597e+62
14.63205444,2.2388533143174713e+63,-3.0345878618339035e+63,-9.56133451768846e+62
14.6368309,2.2161591812513353e+63,-3.0052105635096827e+63,-9.463673886304943e+62
14.64160736,2.193693526950157e+63,-2.9761313770168933e+63,-9.367027152506648e+62
14.64638382,2.1714542301576872e+63,-2.947347276787449e+63,-9.27138409574748e+62
14.65116033,2.1494391862145334e+63,-2.9188552641383486e+63,-9.176734589894363e+62
14.65593679,2.127646306924566e+63,-2.890652367142077e+63,-9.083068602418697e+62
14.66071325,2.1060735204240833e+63,-2.8627356404945485e+63,-8.990376193598607e+62
14.66548976,2.0847187710536535e+63,-2.8351021653806025e+63,-8.898647515731697e+62
14.67026622,2.0635800192325612e+63,-2.8077490493370756e+63,-8.807872812357932e+62
14.67504267,2.042655241335752e+63,-2.7806734261135055e+63,-8.718042417492432e+62
14.67981913,2.0219424295731725e+63,-2.7538724555305525e+63,-8.629146754867822e+62
14.68459564,2.001439591871417e+63,-2.7273433233362287e+63,-8.541176337185902e+62
14.6893721,1.981144751757589e+63,-2.7010832410600314e+63,-8.454121765378291e+62
14.69414856,1.9610559482453046e+63,-2.6750894458650802e+63,-8.367973727875773e+62
14.69892507,1.941171235722754e+63,-2.649359200398374e+63,-8.282722999886063e+62
14.70370153,1.9214886838427515e+63,-2.6238897926392807e+63,-8.198360442679709e+62
14.70847799,1.9020063774147046e+63,-2.5986785357463652e+63,-8.114877002883923e+62
14.71325444,1.8827224162984365e+63,-2.5737227679026815e+63,-8.0322637117841475e+62
14.71803096,1.8636349152997903e+63,-2.5490198521596397e+63,-7.95051168463311e+62
14.72280741,1.8447420040679617e+63,-2.524567176279574e+63,-7.869612119967209e+62
14.72758387,1.8260418269945035e+63,-2.500362152577116e+63,-7.789556298929995e+62
14.73236033,1.8075325431139523e+63,-2.476402217759462e+63,-7.710335584602548e+62
14.73713684,1.78921232600601e+63,-2.4526848327656143e+63,-7.631941421340582e+62
14.7419133,1.77107936369921e+63,-2.429207482604682e+63,-7.55436533411806e+62
14.74668976,1.75313185857602e+63,-2.4059676761933224e+63,-7.477598927877142e+62
14.75146627,1.7353680272793227e+63,-2.3829629461923973e+63,-7.401633886884281e+62
14.75624273,1.7177861006202097e+63,-2.36019084884289e+63,-7.326461974092273e+62
14.76101918,1.7003843234870384e+63,-2.337648963801145e+63,-7.2520750305080705e+62
14.76579564,1.6831609547557217e+63,-2.3153348939735013e+63,-7.178464974566174e+62
14.77057215,1.6661142672012256e+63,-2.2932462653503975e+63,-7.105623801507417e+62
14.77534861,1.6492425474102474e+63,-2.2713807268400184e+63,-7.033543582762928e+62
14.78012507,1.6325440956950381e+63,-2.24973595010154e+63,-6.962216465343127e+62
14.78490153,1.6160172260083461e+63,-2.2283096293780448e+63,-6.891634671231619e+62
14.78967804,1.5996602658594743e+63,-2.2070994813291627e+63,-6.821790496783897e+62
14.7944545,1.583471556231442e+63,-2.1861032448635155e+63,-6.752676312130711e+62
14.79923096,1.5674494514992275e+63,-2.165318680971027e+63,-6.684284560585992e+62
14.80400741,1.5515923193490504e+63,-2.1447435725551425e+63,-6.616607758059193e+62
14.80878392,1.5358985406986425e+63,-2.1243757242650022e+63,-6.5496384924718885e+62
14.81356038,1.5203665096184523e+63,-2.1042129623276166e+63,-6.48336942317855e+62
14.81833684,1.5049946332537427e+63,-2.0842531343801065e+63,-6.417793280391324e+62
14.82311335,1.4897813317475304e+63,-2.064494109302092e+63,-6.35290286460864e+62
14.82788981,1.4747250381643127e+63,-2.044933777048319e+63,-6.288691046047442e+62
14.83266627,1.4598241984145436e+63,-2.0255700484815946e+63,-6.225150764078865e+62
14.83744272,1.4450772711798116e+63,-2.006400855206082e+63,-6.162275026667185e+62
14.84221924,1.4304827278386807e+63,-1.987424149401e+63,-6.100056909811965e+62
14.84699569,1.4160390523931513e+63,-1.9686379036547563e+63,-6.0384895569932945e+62
14.85177215,1.4017447413957133e+63,-1.9500401107995384e+63,-5.977566178620085e+62
14.85654866,1.3875983038769584e+63,-1.931628783746365e+63,-5.917280051481376e+62
14.86132512,1.3735982612737347e+63,-1.9134019553205916e+63,-5.857624518200607e+62
14.86610158,1.3597431473578194e+63,-1.8953576780978565e+63,-5.798592986692802e+62
14.87087804,1.3460315081650916e+63,-1.8774940242404775e+63,-5.740178929624551e+62
14.87565455,1.3324619019251916e+63,-1.859809085334308e+63,-5.682375883876685e+62
14.88043101,1.3190328989916539e+63,-1.8423009722260673e+63,-5.6251774500095655e+62
14.88520746,1.3057430817725045e+63,-1.824967814861172e+63,-5.568577291730987e+62
14.88998392,1.2925910446613182e+63,-1.8078077621220794e+63,-5.512569135366568e+62
14.89476043,1.2795753939687219e+63,-1.790818981667177e+63,-5.457146769332553e+62
14.89953689,1.266694747854344e+63,-1.773999659770232e+63,-5.402304043611024e+62
14.90431335,1.2539477362592089e+63,-1.757348001160427e+63,-5.348034869227491e+62
14.90908981,1.241333000838567e+63,-1.7408622288630142e+63,-5.294333217730889e+62
14.91386632,1.2288491948951636e+63,-1.724540584040606e+63,-5.241193120675986e+62
14.91864278,1.2164949833129499e+63,-1.7083813258351316e+63,-5.188608669108247e+62
14.92341924,1.2042690424912387e+63,-1.692382731210487e+63,-5.136574013051122e+62
14.92819575,1.1921700602792917e+63,-1.676543094795917e+63,-5.085083360995783e+62
14.9329722,1.1801967359113326e+63,-1.6608607287301533e+63,-5.034130979393352e+62
14.93774866,1.168347779941969e+63,-1.6453339625063562e+63,-4.983711192149581e+62
14.94252512,1.1566219141820131e+63,-1.6299611428178935e+63,-4.933818380121975e+62
14.94730163,1.1450178716346984e+63,-1.6147406334050196e+63,-4.884446980619308e+62
14.95207809,1.1335343964322934e+63,-1.5996708149025034e+63,-4.835591486903452e+62
14.95685455,1.122170243773123e+63,-1.5847500846882478e+63,-4.78724644769345e+62
14.96163101,1.110924179858997e+63,-1.5699768567329358e+63,-4.739406466671783e+62
14.96640752,1.0997949818330397e+63,-1.5553495614507544e+63,-4.692066201992829e+62
14.97118398,1.0887814377179149e+63,-1.5408666455512262e+63,-4.645220365793524e+62
14.97596043,1.0778823463544367e+63,-1.5265265718921821e+63,-4.598863723706215e+62
14.98073694,1.0670965173405612e+63,-1.5123278193338935e+63,-4.552991094373709e+62
14.9855134,1.0564227709707453e+63,-1.4982688825943761e+63,-4.507597348966513e+62
14.99028986,1.0458599381756672e+63,-1.484348272105885e+63,-4.462677410702278e+62
14.99506632,1.0354068604622965e+63,-1.470564513872616e+63,-4.41822625436746e+62
14.99984283,1.0250623898542819e+63,-1.4569161493296278e+63,-4.374238905841248e+62
15.00461929,1.0148253888326349e+63,-1.4434017352029881e+63,-4.330710441621777e+62
15.00939575,1.0046947302766837e+63,-1.4300198433711463e+63,-4.2876359883546665e+62
15.01417221,9.946692974052713e+62,-1.416769060727528e+63,-4.245010722363906e+62
15.01894872,9.847479837181665e+62,-1.4036479890443506e+63,-4.202829869185152e+62
15.02372517,9.74929692937661e+62,-1.3906552448376538e+63,-4.161088703101525e+62
15.02850163,9.652133389503316e+62,-1.3777894592335409e+63,-4.119782546682028e+62
15.03327814,9.55597845748951e+62,-1.3650492778356218e+63,-4.0789067703227377e+62
15.0380546,9.460821473745399e+62,-1.3524333605936517e+63,-4.0384567917908474e+62
15.04283106,9.366651878585404e+62,-1.3399403816733656e+63,-3.9984280757716525e+62
15.04760752,9.273459211650989e+62,-1.3275690293275035e+63,-3.9588161334185276e+62
15.05238398,9.181233111334362e+62,-1.3153180057680268e+63,-3.9196165219059114e+62
15.05716049,9.08996331420289e+62,-1.303186027039525e+63,-3.8808248439853176e+62
15.06193694,8.99963965442407e+62,-1.2911718228938094e+63,-3.842436747544392e+62
15.0667134,8.910252063190856e+62,-1.279274136665701e+63,-3.8044479251690176e+62
15.07148991,8.821790568147167e+62,-1.2674917251500088e+63,-3.7668541137085036e+62
15.07626637,8.73424529281345e+62,-1.2558233584797004e+63,-3.729651093843879e+62
15.08104283,8.647606456012053e+62,-1.2442678200052539e+63,-3.692834689659319e+62
15.08581929,8.561864371292234e+62,-1.232823906175188e+63,-3.656400768216727e+62
15.0905958,8.47700944635456e+62,-1.2214904264177712e+63,-3.620345239133503e+62
15.09537226,8.393032182474534e+62,-1.2102662030238935e+63,-3.5846640541635646e+62
15.10014872,8.30992317392529e+62,-1.1991500710310952e+63,-3.5493532067817095e+62
15.10492517,8.22767310739925e+62,-1.1881408781087425e+63,-3.5144087317714146e+62
15.10970168,8.146272761428694e+62,-1.1772374844443345e+63,-3.479826704816145e+62
15.11447814,8.065713005805136e+62,-1.1664387626309233e+63,-3.44560324209424e+62
15.1192546,7.985984800997502e+62,-1.155743597555637e+63,-3.411734499877428e+62
15.12403106,7.907079197569162e+62,-1.1451508862892817e+63,-3.378216674133024e+62
15.12880757,7.828987335593878e+62,-1.1346595379770104e+63,-3.3450460001298727e+62
15.13358403,7.751700444070713e+62,-1.124268473730045e+63,-3.312218752048108e+62
15.13836049,7.675209840337909e+62,-1.1139766265184395e+63,-3.2797312425927948e+62
15.143137,7.599506929485777e+62,-1.1037829410648724e+63,-3.247579822611524e+62
15.14791346,7.524583203768581e+62,-1.0936863737394668e+63,-3.2157608807160223e+62
15.15268991,7.4504302420154235e+62,-1.0836858924556379e+63,-3.18427084290782e+62
15.15746637,7.3770397090401415e+62,-1.0737804765669592e+63,-3.153106172208003e+62
15.16224288,7.3044033550503235e+62,-1.063969116765033e+63,-3.122263368291077e+62
15.16701934,7.23251301505548e+62,-1.0542508149783499e+63,-3.0917389671229607e+62
15.1717958,7.161360608274436e+62,-1.044624584272113e+63,-3.061529540603112e+62
15.17657226,7.090938137541935e+62,-1.0350894487490065e+63,-3.0316316962107816e+62
15.18134877,7.021237688714457e+62,-1.025644443450885e+63,-3.002042076655386e+62
15.18612523,6.952251430075198e+62,-1.016288614261358e+63,-2.972757359530954e+62
15.19090168,6.8839716117382645e+62,-1.0070210178092382e+63,-2.9437742569746126e+62
15.19567819,6.816390565052059e+62,-9.97840721372818e+62,-2.91508951532908e+62
15.20045465,6.749500702001894e+62,-9.887468027849483e+62,-2.886699914809111e+62
15.20523111,6.68329451461188e+62,-9.797383503388846e+62,-2.8586022691718427e+62
15.21000757,6.617764574346118e+62,-9.708144626948627e+62,-2.8307934253910164e+62
15.21478408,6.552903531509294e+62,-9.619742487873741e+62,-2.803270263335063e+62
15.21956054,6.488704114646704e+62,-9.53216827733115e+62,-2.7760296954490145e+62
15.224337,6.425159129943867e+62,-9.445413287395834e+62,-2.7490686664402007e+62
15.22911346,6.362261460625818e+62,-9.359468910142956e+62,-2.7223841529676877e+62
15.23388997,6.300004066356228e+62,-9.274326636745935e+62,-2.695973163335439e+62
15.23866642,6.238379982636487e+62,-9.189978056580157e+62,-2.669832737189163e+62
15.24344288,6.177382320204786e+62,-9.106414856332006e+62,-2.643959945216802e+62
15.24821939,6.11700426443529e+62,-9.023628819112968e+62,-2.6183518888526016e+62
15.25299585,6.057239074737496e+62,-8.941611823578475e+62,-2.593005699984694e+62
15.25777231,5.998080083955833e+62,-8.86035584305119e+62,-2.567918540666124e+62
15.26254877,5.9395206977695785e+62,-8.779852944648452e+62,-2.5430876028292403e+62
15.26732528,5.88155439409313e+62,-8.70009528841354e+62,-2.5185101080033967e+62
15.27210174,5.8241747224766515e+62,-8.621075126450558e+62,-2.494183307035911e+62
15.27687819,5.767375303507148e+62,-8.54278480206274e+62,-2.4701044798162473e+62
15.28165465,5.711149828210013e+62,-8.46521674889406e+62,-2.446270935003404e+62
15.28643116,5.655492057451052e+62,-8.388363490073866e+62,-2.422680009756503e+62
15.29120762,5.600395821338956e+62,-8.312217637364334e+62,-2.3993290694685427e+62
15.29598408,5.5458550186282e+62,-8.236771890310565e+62,-2.3762155075032655e+62
15.30076054,5.4918636161223145e+62,-8.1620190353932e+62,-2.353336744935099e+62
15.30553705,5.438415648077517e+62,-8.08795194518331e+62,-2.330690230292118e+62
15.31031351,5.385505215606673e+62,-8.014563577499345e+62,-2.3082734393019657e+62
15.31508996,5.333126486083579e+62,-7.941846974565921e+62,-2.2860838746406723e+62
15.31986642,5.281273692547595e+62,-7.869795262174222e+62,-2.264119065684329e+62
15.32464293,5.229941133108596e+62,-7.798401648843731e+62,-2.2423765682635504e+62
15.32941939,5.1791231703523e+62,-7.727659424985085e+62,-2.2208539644206695e+62
15.33419585,5.128814230746023e+62,-7.657561962063829e+62,-2.199548862169619e+62
15.33897236,5.079008804044956e+62,-7.5881027117649295e+62,-2.1784588952584635e+62
15.34374882,5.02970144269907e+62,-7.5192752051579495e+62,-2.1575817229345326e+62
15.34852528,4.980886761260758e+62,-7.451073051862794e+62,-2.1369150297120966e+62
15.35330174,4.932559435793257e+62,-7.383489939215952e+62,-2.1164565251425054e+62
15.35807825,4.8847142032799455e+62,-7.316519631437157e+62,-2.0962039435867167e+62
15.3628547,4.837345861034572e+62,-7.25015596879641e+62,-2.076155043990146e+62
15.36763116,4.790449266112526e+62,-7.184392866781407e+62,-2.0563076096597955e+62
15.37240762,4.744019334723265e+62,-7.119224315265401e+62,-2.0366594480435885e+62
15.37718413,4.698051041644017e+62,-7.05464437767557e+62,-2.0172083905118386e+62
15.38196059,4.652539419634894e+62,-6.990647190162028e+62,-1.9979522921408037e+62
15.38673705,4.607479558855551e+62,-6.927226960767699e+62,-1.9788890314982664e+62
15.39151351,4.562866606283469e+62,-6.864377968599183e+62,-1.9600165104311e+62
15.39629002,4.518695765133969e+62,-6.8020945629987765e+62,-1.9413326538547715e+62
15.40106648,4.474962294282059e+62,-6.740371162717821e+62,-1.9228354095447145e+62
15.40584293,4.431661507686232e+62,-6.679202255091582e+62,-1.90452274792949e+62
15.41061939,4.388788773814259e+62,-6.618582395215883e+62,-1.8863926618856716e+62
15.4153959,4.346339515071051e+62,-6.558506205125717e+62,-1.8684431665343927e+62
15.42017236,4.304309207228713e+62,-6.498968372976073e+62,-1.8506722990394863e+62
15.42494882,4.262693378858894e+62,-6.439963652225178e+62,-1.833078118407156e+62
15.42972528,4.221487610767518e+62,-6.3814868608203565e+62,-1.8156587052871127e+62
15.43450179,4.180687535431947e+62,-6.323532880386718e+62,-1.7984121617751243e+62
15.43927825,4.14028883644066e+62,-6.26609665541887e+62,-1.7813366112169183e+62
15.44405471,4.100287247935501e+62,-6.2091731924758475e+62,-1.7644301980133838e+62
15.44883122,4.0606785540565886e+62,-6.152757559379436e+62,-1.7476910874270271e+62
15.45360767,4.0214585883899628e+62,-6.096844884416039e+62,-1.7311174653896338e+62
15.45838413,3.9826232334180536e+62,-6.041430355542189e+62,-1.7147075383110938e+62
15.46316059,3.9441684199730574e+62,-5.986509219593835e+62,-1.698459532889344e+62
15.4679371,3.9060901266933236e+62,-5.93207678149948e+62,-1.6823716959213885e+62
15.47271356,3.8683843794828297e+62,-5.878128403497279e+62,-1.6664422941153646e+62
15.47749002,3.8310472509738017e+62,-5.824659504356162e+62,-1.6506696139036109e+62
15.48226648,3.794074859992502e+62,-5.771665558601047e+62,-1.6350519612567112e+62
15.48704299,3.757463371028197e+62,-5.71914209574221e+62,-1.6195876614984946e+62
15.49181944,3.7212089937053166e+62,-5.667084699508892e+62,-1.6042750591219749e+62
15.4965959,3.685307982258846e+62,-5.615489007087247e+62,-1.5891125176062234e+62
15.50137236,3.6497566350129925e+62,-5.564350708362767e+62,-1.5740984192341668e+62
15.50614887,3.6145512938631993e+62,-5.513665545167339e+62,-1.5592311649112989e+62
15.51092533,3.579688343761567e+62,-5.463429310531071e+62,-1.5445091739852893e+62
15.51570179,3.545164212205711e+62,-5.413637847939044e+62,-1.5299308840664763e+62
15.52047825,3.5109753687311087e+62,-5.36428705059318e+62,-1.5154947508492258e+62
15.52525476,3.477118324406991e+62,-5.315372860679386e+62,-1.5011992479341468e+62
15.53003122,3.443589631335833e+62,-5.266891268640148e+62,-1.4870428666511565e+62
15.53480767,3.4103858821564914e+62,-5.2188383124527e+62,-1.4730241158833824e+62
15.53958418,3.377503709551031e+62,-5.171210076912947e+62,-1.459141521891886e+62
15.54436064,3.3449397857552934e+62,-5.124002692925361e+62,-1.4453936281412013e+62
15.5491371,3.3126908220732515e+62,-5.0772123367990275e+62,-1.4317789951256765e+62
15.55391356,3.2807535683951998e+62,-5.0308352295501e+62,-1.4182962001966062e+62
15.55869007,3.2491248127198354e+62,-4.984867636210842e+62,-1.4049438373901424e+62
15.56346653,3.217801380680279e+62,-4.939305865145519e+62,-1.3917205172559716e+62
15.56824299,3.186780135074064e+62,-4.894146267373346e+62,-1.378624866686739e+62
15.57301944,3.1560579753971127e+62,-4.8493852358986435e+62,-1.3656555287482042e+62
15.5777959,3.1256318373817173e+62,-4.8050192050482955e+62,-1.3528111625101118e+62
15.58257241,3.0954986925385267e+62,-4.761044649816564e+62,-1.34009044287776e+62
15.58734887,3.06565554770256e+62,-4.717458085217333e+62,-1.3274920604242408e+62
15.59212533,3.0360994445832575e+62,-4.674256065643892e+62,-1.315014721223344e+62
15.59690184,3.0068274593185775e+62,-4.631435184236331e+62,-1.3026571466831025e+62
15.6016783,2.9778367020331577e+62,-4.588992072256606e+62,-1.2904180733799687e+62
15.60645476,2.949124316400563e+62,-4.546923398471387e+62,-1.278296252893617e+62
15.61123122,2.9206874792096396e+62,-4.505225868542744e+62,-1.2662904516423832e+62
15.61600773,2.892523399934991e+62,-4.463896224426762e+62,-1.2543994507193467e+62
15.62078418,2.864629320311615e+62,-4.422931243780113e+62,-1.2426220457290691e+62
15.62556064,2.837002513913739e+62,-4.382327739374671e+62,-1.230957046624998e+62
15.6303371,2.809640285737893e+62,-4.342082558520188e+62,-1.2194032775475547e+62
15.63511361,2.7825399717902903e+62,-4.302192582495067e+62,-1.207959576662932e+62
15.63989007,2.7556989386786044e+62,-4.262654725985257e+62,-1.1966247960026254e+62
15.64466653,2.7291145832082466e+62,-4.223465936531285e+62,-1.1853978013037056e+62
15.64944299,2.702784331983236e+62,-4.184623193983418e+62,-1.174277471849847e+62
15.6542195,2.6767056410117695e+62,-4.146123509964933e+62,-1.1632627003131259e+62
15.65899596,2.6508759953165494e+62,-4.1079639273435044e+62,-1.1523523925966001e+62
15.66377241,2.6252929085499183e+62,-4.070141519710697e+62,-1.1415454676776856e+62
15.66854887,2.5999539226138327e+62,-4.0326533908696023e+62,-1.130840857452342e+62
15.67332538,2.5748566072846985e+62,-3.9954966743306455e+62,-1.1202375065800853e+62
15.67810184,2.549998559843093e+62,-3.958668532815599e+62,-1.1097343723298427e+62
15.6828783,2.525377404708378e+62,-3.9221661577697924e+62,-1.0993304244266653e+62
15.68765476,2.5009907930782243e+62,-3.8859867688825046e+62,-1.0890246448993239e+62
15.69243127,2.476836402573094e+62,-3.8501276136155034e+62,-1.078816027928805e+62
15.69720772,2.4529119368857066e+62,-3.814585966739683e+62,-1.068703579697731e+62
15.70198418,2.4292151254355075e+62,-3.779359129879765e+62,-1.0586863182407194e+62
15.70676064,2.4057437230281414e+62,-3.744444431067052e+62,-1.048763273295705e+62
15.71153715,2.3824955095199097e+62,-3.7098392243002222e+62,-1.0389334861562603e+62
15.71631361,2.359468289487194e+62,-3.6755408891141877e+62,-1.0291960095249394e+62
15.72109007,2.3366598919008145e+62,-3.6415468301570184e+62,-1.0195499073676719e+62
15.72586658,2.3140681698052824e+62,-3.607854476774905e+62,-1.0099942547692372e+62
15.73064304,2.2916910000028735e+62,-3.5744612826051456e+62,-1.0005281377898397e+62
15.7354195,2.2695262827424644e+62,-3.5413647251771334e+62,-9.911506533228135e+61
15.74019596,2.2475719414130767e+62,-3.5085623055213285e+62,-9.818609089534871e+61
15.74497247,2.2258259222420887e+62,-3.476051547786173e+62,-9.726580228192408e+61
15.74974892,2.2042861939980713e+62,-3.443829998862919e+62,-9.635411234707838e+61
15.75452538,2.1829507476981956e+62,-3.4118952280183475e+62,-9.545093497346715e+61
15.75930184,2.161817596320138e+62,-3.380244826535336e+62,-9.455618505770856e+61
15.76407835,2.1408847745184065e+62,-3.3488764073612293e+62,-9.366977849688982e+61
15.76885481,2.120150338345011e+62,-3.317787604763963e+62,-9.279163217520362e+61
15.77363127,2.0996123649744166e+62,-3.2869760739958736e+62,-9.192166395071675e+61
15.77840773,2.079268952432726e+62,-3.25643949096515e+62,-9.105979264227275e+61
15.78318424,2.059118219331043e+62,-3.2261755519148505e+62,-9.02059380165304e+61
15.78796069,2.039158304602951e+62,-3.1961819731093894e+62,-8.936002077514019e+61
15.79273715,2.0193873672460388e+62,-3.1664564905283887e+62,-8.852196254206084e+61
15.79751361,1.9998035860674e+62,-3.1369968595677825e+62,-8.7691685851017e+61
15.80229012,1.980405159433035e+62,-3.107800854748069e+62,-8.686911413309955e+61
15.80706658,1.9611903050210933e+62,-3.0788662694296014e+62,-8.605417170450904e+61
15.81184304,1.9421572595788977e+62,-3.0501909155348425e+62,-8.524678375444278e+61
15.8166195,1.9233042786837012e+62,-3.0217726232774845e+62,-8.444687633312617e+61
15.82139601,1.9046296365071406e+62,-2.99360924089836e+62,-8.365437633998838e+61
15.82617246,1.8861316255833532e+62,-2.965698634408043e+62,-8.286921151198262e+61
15.83094892,1.8678085565807189e+62,-2.938038687336039e+62,-8.209131041205046e+61
15.83572543,1.849658758077193e+62,-2.910627300486467e+62,-8.132060241773011e+61
15.84050189,1.8316805763391924e+62,-2.8834623917001166e+62,-8.055701770990885e+61
15.84527835,1.8138723751039807e+62,-2.8565418956227577e+62,-7.980048726172059e+61
15.85005481,1.796232535365502e+62,-2.829863763479589e+62,-7.905094282758884e+61
15.85483132,1.7787594551635984e+62,-2.803425962855672e+62,-7.830831693241559e+61
15.85960778,1.7614515493765284e+62,-2.777226477482216e+62,-7.75725428609157e+61
15.86438424,1.7443072495167175e+62,-2.7512633070285804e+62,-7.684355464709709e+61
15.86916069,1.7273250035296664e+62,-2.725534466899886e+62,-7.612128706388683e+61
15.87393715,1.7105032755959484e+62,-2.700037988040144e+62,-7.540567561290266e+61
15.87871366,1.6938405459362377e+62,-2.67477191674081e+62,-7.469665651436931e+61
15.88349012,1.677335310619316e+62,-2.6497343144546724e+62,-7.399416669717934e+61
15.88826658,1.6609860813729845e+62,-2.624923257615006e+62,-7.329814378909821e+61
15.89304309,1.6447913853978113e+62,-2.6003368374599073e+62,-7.260852610711306e+61
15.89781955,1.6287497651836367e+62,-2.575973159861723e+62,-7.192525264792524e+61
15.90259601,1.6128597783287608e+62,-2.5518303451614835e+62,-7.124826307858634e+61
15.90737247,1.5971199973617114e+62,-2.5279065280082644e+62,-7.057749772727774e+61
15.91214898,1.5815290095654943e+62,-2.5041998572033923e+62,-6.991289757423299e+61
15.91692543,1.5660854168042435e+62,-2.4807084955494157e+62,-6.925440424280171e+61
15.92170189,1.5507878353521973e+62,-2.4574306197037506e+62,-6.860195999065346e+61
15.92647835,1.535634895724932e+62,-2.434364420036915e+62,-6.795550770111998e+61
15.93125486,1.520625242512769e+62,-2.41150810049526e+62,-6.73149908746739e+61
15.93603132,1.5057575342162602e+62,-2.3888598784680996e+62,-6.668035362054268e+61
15.94080778,1.4910304430836772e+62,-2.3664179846590995e+62,-6.605154064845662e+61
15.94558424,1.47644265495043e+62,-2.3441806629617955e+62,-6.542849726052968e+61
15.95036075,1.4619928690803502e+62,-2.3221461703390813e+62,-6.481116934327109e+61
15.95513721,1.4476797980087706e+62,-2.300312776706533e+62,-6.419950335972684e+61
15.95991366,1.4335021673873443e+62,-2.278678764819424e+62,-6.359344634174911e+61
15.96469012,1.4194587158305454e+62,-2.257242430163299e+62,-6.299294588239182e+61
15.96946663,1.405548194763809e+62,-2.236002080847975e+62,-6.239795012843086e+61
15.97424309,1.391769368273263e+62,-2.214956037504837e+62,-6.18084077730076e+61
15.97901955,1.3781210129570162e+62,-2.1941026331873117e+62,-6.122426804839418e+61
15.98379601,1.3646019177779695e+62,-2.1734402132744024e+62,-6.064548071887831e+61
15.98857252,1.3512108839181125e+62,-2.152967135377184e+62,-6.007199607376476e+61
15.99334898,1.3379467246342958e+62,-2.132681769248141e+62,-5.950376492049066e+61
15.99812543,1.3248082651154455e+62,-2.1125824966932443e+62,-5.894073857785149e+61
16.00290189,1.311794342341196e+62,-2.0926677114866403e+62,-5.838286886933494e+61
16.0076784,1.2989038049419224e+62,-2.072935819287826e+62,-5.783010811656082e+61
16.01245486,1.2861355130601471e+62,-2.0533852375611896e+62,-5.72824091328251e+61
16.01723132,1.2734883382132894e+62,-2.03401439549778e+62,-5.673972521674682e+61
16.02200778,1.260961163157727e+62,-2.0148217339391843e+62,-5.620201014601583e+61
16.02678429,1.248552881754139e+62,-1.9958057053033977e+62,-5.566921817123935e+61
16.03156075,1.2362623988341034e+62,-1.9769647735125927e+62,-5.514130400988556e+61
16.03633721,1.224088630067952e+62,-1.9582974139227075e+62,-5.461822284032275e+61
16.04111366,1.2120305018338782e+62,-1.939802113254783e+62,-5.409993029595241e+61
16.04589017,1.2000869510883055e+62,-1.9214773695279836e+62,-5.358638245943536e+61
16.05066663,1.1882569252375331e+62,-1.9033216919942267e+62,-5.307753585700912e+61
16.05544309,1.1765393820106782e+62,-1.8853336010743274e+62,-5.257334745289491e+61
16.06021955,1.1649332893339447e+62,-1.8675116282955705e+62,-5.207377464379242e+61
16.06499606,1.1534376252062464e+62,-1.84985431623062e+62,-5.157877525346058e+61
