"Time (s)","Acceleration x (m/s^2)","Acceleration y (m/s^2)","Acceleration z (m/s^2)"
1.793767000E-3,-9.332008362E-1,4.890331268E0,8.437690735E0
6.665850000E-3,-1.003789067E0,4.923830986E0,8.596813202E0
1.153798600E-2,-1.032503009E0,4.928616524E0,8.621339798E0
1.640996500E-2,-1.013958573E0,4.952544689E0,8.548956871E0
2.128199600E-2,-1.004985452E0,5.015356064E0,8.457431793E0
2.615397500E-2,-1.019940615E0,5.054239750E0,8.365905762E0
3.102600700E-2,-1.025324464E0,5.097310543E0,8.260622025E0
3.589798600E-2,-1.045065284E0,5.140381336E0,8.160123825E0
4.077001700E-2,-1.021735311E0,5.184050083E0,8.174480438E0
4.564199600E-2,-9.834501147E-1,5.227719307E0,8.183453560E0
5.051402800E-2,-9.936196208E-1,5.242076397E0,8.126026154E0
5.538605900E-2,-1.022333503E0,5.266004562E0,8.087740898E0
6.025803800E-2,-1.027119160E0,5.285147190E0,8.059026718E0
6.513006900E-2,-1.036690354E0,5.313860893E0,8.073383331E0
7.000204800E-2,-1.022333503E0,5.309075356E0,8.111668587E0
7.487408000E-2,-9.984052777E-1,5.275575638E0,8.097311974E0
7.974605900E-2,-9.888339639E-1,5.266004562E0,8.106883049E0
8.461809000E-2,-1.003190875E0,5.285147190E0,8.145168304E0
8.949006900E-2,-9.792626500E-1,5.280361176E0,8.178668022E0
9.436210000E-2,-9.595218897E-1,5.294718266E0,8.216953278E0
9.923408000E-2,-1.006780148E0,5.289932728E0,8.270193100E0
1.041061110E-1,-1.130010486E0,5.299503803E0,8.423932076E0
1.089781420E-1,-1.280160069E0,5.332405090E0,8.713463783E0
1.138501210E-1,-1.123430252E0,5.347360611E0,8.697910309E0
1.187221000E-1,-1.061815023E0,5.313860893E0,8.625527382E0
1.235941320E-1,-1.109671474E0,5.294718266E0,8.573483467E0
1.284661630E-1,-1.138385415E0,5.323431969E0,8.549555779E0
1.333381420E-1,-1.186241865E0,5.337789059E0,8.573483467E0
1.382101730E-1,-1.195813060E0,5.371288776E0,8.578269005E0
1.430821530E-1,-1.182054400E0,5.410171986E0,8.481958389E0
1.479541840E-1,-1.225125194E0,5.429912567E0,8.419744492E0
1.528261630E-1,-1.368694544E0,5.492125988E0,8.353343964E0
1.576981940E-1,-1.478166223E0,5.525625706E0,8.325227737E0
1.625701730E-1,-1.407577872E0,5.544768333E0,8.248059273E0
1.674422050E-1,-1.317847013E0,5.559723377E0,8.170890808E0
1.723141840E-1,-1.375274777E0,5.443671703E0,8.022536278E0
1.771862150E-1,-1.498505235E0,5.370690346E0,8.018348694E0
1.820582460E-1,-1.022333503E0,4.924428940E0,7.944170952E0
1.869302250E-1,-9.720842242E-1,5.435296535E0,7.876574039E0
1.918022050E-1,-8.153542876E-1,5.690730572E0,7.884948730E0
1.966742360E-1,-1.028913736E0,5.651846886E0,7.962715626E0
2.015462670E-1,-1.351944804E0,5.776273727E0,8.132605553E0
2.064182460E-1,-1.493121386E0,5.563910961E0,8.224131584E0
2.112902780E-1,-1.520040631E0,5.327021599E0,8.382656097E0
2.161622570E-1,-7.076773047E-1,4.640281200E0,8.609973907E0
2.210206940E-1,5.240281820E-1,3.000599623E0,8.378468513E0
2.259062670E-1,-6.221339107E-1,3.769293785E0,7.352545738E0
2.307782980E-1,-2.931207716E-1,4.526622295E0,7.062416077E0
2.356502780E-1,-1.088734269E0,5.227719307E0,7.267600536E0
2.405223090E-1,-1.390229940E0,5.670391560E0,8.003393173E0
2.452990280E-1,-8.650053740E-1,5.729015827E0,9.065806389E0
2.500622050E-1,-6.765705943E-1,5.637490273E0,9.491728783E0
2.548519960E-1,-6.873382926E-1,5.483751297E0,9.203991890E0
2.596285070E-1,-9.637092948E-1,5.473581791E0,8.461619377E0
2.644050170E-1,-1.371087432E0,5.429314613E0,7.897511005E0
2.691814750E-1,-1.591227055E0,5.491528034E0,7.697112083E0
2.739579860E-1,-1.548754454E0,5.679364681E0,7.735397339E0
2.787344440E-1,-1.316052437E0,5.790630817E0,7.729415417E0
2.835109550E-1,-1.360319614E0,5.863013744E0,7.585247993E0
2.882874130E-1,-1.371685624E0,5.978467464E0,7.335197926E0
2.930639230E-1,-1.301695466E0,6.075376511E0,7.186244488E0
2.978403820E-1,-1.278365493E0,6.104090691E0,7.124031067E0
3.026168920E-1,-1.063609719E0,6.051448345E0,7.228118896E0
3.073933500E-1,-8.847461939E-1,5.888138294E0,7.496713161E0
3.121698610E-1,-5.623133183E-1,5.599802971E0,7.984251022E0
3.169463190E-1,-5.970092416E-1,5.411966801E0,8.382656097E0
3.217228300E-1,-6.562315822E-1,5.319244862E0,8.834898949E0
3.264993400E-1,-7.674978375E-1,5.270790100E0,9.238089561E0
3.312757980E-1,-6.658028960E-1,5.188836098E0,9.486943245E0
3.360389750E-1,-3.834498227E-1,4.968098164E0,9.659226418E0
3.408287670E-1,1.226321608E-1,4.618147850E0,9.819545746E0
3.456052780E-1,7.932206988E-1,4.094119549E0,1.020538902E1
3.503817360E-1,4.701896608E-1,4.155734539E0,9.510871887E0
3.551582460E-1,4.713860750E-1,4.223930359E0,9.002396584E0
3.599347050E-1,3.696911037E-1,4.349553585E0,8.729615211E0
3.647112150E-1,6.107679605E-1,4.456034184E0,8.617751122E0
3.694876730E-1,9.678967595E-1,4.423132420E0,8.635098457E0
3.742641840E-1,1.034297585E0,4.384847641E0,8.620143890E0
3.790406420E-1,1.034297585E0,4.360919476E0,8.538787842E0
3.838171530E-1,1.086341500E0,4.370490551E0,8.504091263E0
3.885936110E-1,1.079761267E0,4.490729809E0,8.331808090E0
3.933701210E-1,1.102493048E0,4.635495663E0,8.168498039E0
3.981465800E-1,1.115653515E0,4.755734921E0,8.057829857E0
4.029230900E-1,8.380861282E-1,4.856233597E0,7.843672752E0
4.076995480E-1,4.271188378E-1,4.975874901E0,7.634300709E0
4.124760590E-1,2.123630047E-1,5.086542606E0,7.625925541E0
4.172525690E-1,2.841476798E-1,5.187639713E0,7.658827305E0
4.220290280E-1,4.845465720E-1,5.212165833E0,7.734799385E0
4.268055380E-1,4.791627228E-1,5.221737385E0,7.672585964E0
4.315819960E-1,6.981059909E-1,5.097310543E0,7.618747234E0
4.363451730E-1,2.594418049E0,4.586442947E0,7.844270706E0
4.411349650E-1,2.488535643E0,4.065405846E0,8.146963120E0
4.459114750E-1,1.286142230E0,3.984049797E0,5.419743061E-1
4.506746530E-1,-3.385843933E-1,3.853042603E0,3.948157310E0
4.554644440E-1,6.813562512E-1,3.708276987E0,1.037886810E1
4.602409030E-1,1.780260086E0,4.360321045E0,1.305105305E1
4.650040800E-1,2.027318954E0,4.837689400E0,1.332263851E1
4.697938710E-1,1.130608678E0,4.783252239E0,1.213699436E1
4.745703820E-1,2.937189937E-1,4.675575256E0,1.051466084E1
4.793468400E-1,2.291127741E-1,4.454837322E0,9.281759262E0
4.841233500E-1,4.187439680E-1,4.277170658E0,8.978468895E0
4.888998610E-1,8.685946465E-1,4.234697819E0,8.688339233E0
4.936763190E-1,1.309472203E0,4.259822369E0,8.460422516E0
4.984527780E-1,1.475773335E0,4.323232174E0,8.305487633E0
5.032292880E-1,1.589432478E0,4.294518471E0,8.266604424E0
5.080057980E-1,1.718046665E0,4.188635826E0,8.242077827E0
5.127822570E-1,2.085943222E0,4.092923164E0,8.451449394E0
5.175587670E-1,2.376072884E0,4.151547432E0,8.488538742E0
5.223352250E-1,1.778465390E0,4.280759811E0,8.021339417E0
5.271117360E-1,9.056833982E-1,4.399204254E0,7.747361660E0
5.318881940E-1,3.152543902E-1,4.701298237E0,7.783852100E0
5.366513710E-1,-1.573280841E-1,4.984249592E0,7.767102242E0
5.414411630E-1,-6.819544435E-1,5.175675392E0,7.601399422E0
5.462176730E-1,-9.134600163E-1,5.122435093E0,7.170691490E0
5.509808500E-1,-3.349951655E-2,5.712863922E0,6.580262184E0
5.557706420E-1,7.130611539E-1,6.133402824E0,6.796812534E0
5.605471000E-1,8.410771489E-1,6.123831272E0,7.454240799E0
5.653236110E-1,5.593222976E-1,5.757131100E0,7.815557003E0
5.701000690E-1,4.169493318E-1,5.448457241E0,7.701299667E0
5.748765800E-1,1.478764415E0,5.069792747E0,7.657630444E0
5.796397570E-1,3.115455151E0,4.264009953E0,8.057231903E0
5.844295480E-1,2.189432621E0,4.103690624E0,7.486543655E0
5.892060590E-1,1.895713687E0,4.045066833E0,6.917052269E0
5.939825170E-1,2.062613010E0,3.886542082E0,6.906882763E0
5.987590280E-1,1.949552298E0,3.881756544E0,7.055835724E0
6.035354860E-1,1.868794441E0,4.208376884E0,7.257431030E0
6.083119960E-1,1.539183140E0,4.607978344E0,8.032107353E0
6.130884550E-1,1.328016520E0,4.867599487E0,7.869395256E0
6.178649650E-1,1.308874011E0,5.031507969E0,7.135396957E0
6.226414230E-1,9.888339639E-1,5.088337421E0,6.930810928E0
6.274179340E-1,4.707878530E-1,5.121238708E0,7.082156658E0
6.321943920E-1,-1.878365725E-1,5.510072231E0,6.917052269E0
6.369575690E-1,-1.094716311E0,5.941378593E0,6.748956203E0
6.417473610E-1,-1.823929071E0,6.488736629E0,6.694519520E0
6.465238710E-1,-2.255235434E0,7.157530785E0,6.643671989E0
6.512870480E-1,-2.274976015E0,7.644470215E0,6.734599113E0
6.560768400E-1,-1.954936147E0,7.875975609E0,7.049255371E0
6.608532980E-1,-5.617151260E-1,8.264809608E0,7.166503906E0
6.656164750E-1,9.026923180E-1,8.513663292E0,7.173084259E0
6.704063190E-1,1.409970760E0,8.529814720E0,6.762714863E0
6.751827780E-1,1.981855392E0,8.521439552E0,6.231508255E0
6.799459550E-1,2.206780672E0,8.310273170E0,5.597410202E0
6.847357460E-1,2.103889227E0,8.137392044E0,4.931009293E0
6.895122050E-1,1.829911113E0,7.987242222E0,4.375874519E0
6.942754340E-1,1.253839016E0,7.764709473E0,4.287938118E0
6.990652250E-1,5.844469070E-1,7.507481098E0,4.305884361E0
7.038416840E-1,8.374879137E-3,7.289135933E0,4.203591347E0
7.086048610E-1,-6.281159520E-1,7.061219692E0,4.211966038E0
7.133946530E-1,-1.260419369E0,6.814160824E0,4.196412563E0
7.181711630E-1,-1.776670814E0,6.533602238E0,4.342973232E0
7.229343400E-1,-2.327019930E0,6.262016773E0,4.504488468E0
7.277241320E-1,-2.848057270E0,6.063412666E0,4.756333351E0
7.325005900E-1,-3.349951744E0,5.893522263E0,5.118845940E0
7.372637670E-1,-3.270988464E0,5.666802406E0,5.469394207E0
7.420535590E-1,-2.683550596E0,5.349753380E0,5.562714577E0
7.468300690E-1,-1.863410592E0,4.918447018E0,5.606383324E0
7.515932460E-1,-9.918249846E-1,4.381258488E0,5.598008633E0
7.563830380E-1,-2.279163599E-1,3.853042603E0,5.680561066E0
7.611594960E-1,4.109672904E-1,3.421138287E0,5.663212776E0
7.659226730E-1,9.774680734E-1,3.050848961E0,5.598008633E0
7.707125170E-1,1.348953724E0,2.772683144E0,5.524429321E0
7.754889750E-1,1.606182218E0,2.537588358E0,5.374279499E0
7.802521530E-1,1.816750646E0,2.350350142E0,4.730011940E0
7.850419440E-1,2.046461582E0,2.269592285E0,4.172484398E0
7.898184550E-1,2.187638044E0,2.318047047E0,3.893122435E0
7.945816320E-1,2.228914261E0,2.429313183E0,3.739383698E0
7.993714230E-1,2.212164640E0,2.491526604E0,3.307479143E0
8.041478820E-1,2.151745796E0,2.492124796E0,2.827718258E0
8.089110590E-1,2.335993052E0,2.540579557E0,2.615953445E0
8.137008500E-1,2.785245657E0,2.632703066E0,2.930609465E0
8.184773610E-1,2.958725214E0,2.556132793E0,3.251247883E0
8.232405380E-1,2.998206854E0,2.358724833E0,3.366103172E0
8.280303300E-1,2.998805046E0,2.074577332E0,3.375674486E0
8.328067880E-1,2.557927370E0,1.615753531E0,3.364308596E0
8.375699650E-1,2.073979139E0,1.123430252E0,3.323630571E0
8.423597570E-1,1.793420553E0,6.885347366E-1,3.152543783E0
8.471362670E-1,1.709073544E0,3.080759048E-1,3.095714331E0
8.518994440E-1,1.668395638E0,4.307080805E-2,3.317050457E0
8.566892360E-1,1.741974831E0,-1.399801224E-1,3.633501291E0
8.614656940E-1,2.025524378E0,-1.010967568E-1,4.073780537E0
8.662422050E-1,2.422134638E0,7.776673883E-2,4.493721008E0
8.710187150E-1,2.946162939E0,2.045863420E-1,4.682754040E0
8.757951730E-1,3.482753277E0,2.685943544E-1,4.603192329E0
8.805583500E-1,4.037888050E0,3.278166950E-1,4.307679176E0
8.853481420E-1,4.520041943E0,3.966103494E-1,3.839283943E0
8.901246530E-1,4.963312149E0,4.169493318E-1,3.184248686E0
8.948877780E-1,5.353940487E0,3.846462369E-1,2.443071842E0
8.996776210E-1,5.720640659E0,2.608176768E-1,1.764706731E0
9.044540800E-1,6.113661766E0,4.486542568E-2,1.273579836E0
9.092172570E-1,6.380461693E0,-2.338984162E-1,1.133001566E0
9.140070480E-1,6.553941250E0,-4.695914388E-1,1.439282775E0
9.187835590E-1,6.521039963E0,-6.580262184E-1,2.140379906E0
9.235467360E-1,6.265605927E0,-7.651050687E-1,3.096910715E0
9.283365280E-1,6.005386829E0,-8.141579032E-1,4.115654945E0
9.331129860E-1,5.939583778E0,-8.243274093E-1,5.046463013E0
9.378761630E-1,5.997011662E0,-9.158528447E-1,5.781059742E0
9.426659550E-1,6.243472576E0,-1.021735311E0,6.403791428E0
9.474424650E-1,6.626922131E0,-1.040279627E0,6.853044033E0
9.522056420E-1,7.095317364E0,-1.097109199E0,7.114459991E0
9.569954340E-1,7.514659405E0,-1.206580877E0,7.226922512E0
9.617718920E-1,7.923832417E0,-1.326221943E0,7.177271366E0
9.665350690E-1,8.360522270E0,-1.484746456E0,6.944569588E0
9.713248610E-1,8.406583786E0,-1.705484390E0,6.580262184E0
9.761013710E-1,8.356932640E0,-1.912463546E0,6.124429703E0
9.808645480E-1,8.468797684E0,-2.090130568E0,5.615356445E0
9.856543400E-1,8.699705124E0,-2.176272154E0,5.211567879E0
9.904307980E-1,8.931210518E0,-2.228316069E0,4.945964336E0
9.951939750E-1,9.244669914E0,-2.208575249E0,4.819743156E0
9.999838190E-1,9.439684868E0,-2.251047850E0,4.761118889E0
1.004760278E0,9.582057953E0,-2.352144718E0,4.702494621E0
1.009523455E0,9.549157143E0,-2.497508526E0,4.626522541E0
1.014313246E0,9.387641907E0,-2.637488842E0,4.588835716E0
1.019089757E0,9.383454323E0,-2.647060156E0,4.694119930E0
1.023866215E0,9.636494637E0,-2.511865616E0,4.966303349E0
1.028642725E0,1.004148006E1,-2.245065928E0,5.242674351E0
1.033419184E0,1.071326542E1,-2.133201361E0,5.354538918E0
1.038182361E0,1.148794174E1,-2.164906263E0,5.172684193E0
1.042972153E0,1.204726410E1,-2.293520451E0,4.858027935E0
1.047748663E0,1.256351566E1,-2.383251429E0,4.505086899E0
1.052511840E0,1.282911873E1,-2.522633314E0,4.167698860E0
1.057301632E0,1.314736366E1,-2.748156786E0,3.983451605E0
1.062078090E0,1.344766331E1,-2.906681299E0,4.045066833E0
1.066841267E0,1.379282761E1,-3.122633457E0,4.297509670E0
1.071631059E0,1.396630764E1,-3.208775282E0,4.637290478E0
1.076407569E0,1.385922909E1,-3.257229805E0,4.987838745E0
1.081170746E0,1.394297791E1,-3.517449379E0,5.347958565E0
1.085960538E0,1.377966785E1,-3.658027649E0,5.766702652E0
1.090736996E0,1.359960747E1,-3.711866140E0,5.892325878E0
1.095513507E0,1.346800232E1,-3.741178274E0,6.195017815E0
1.100289965E0,1.361815166E1,-3.649054527E0,6.674180508E0
1.105066475E0,1.400997639E1,-3.508476257E0,6.917052269E0
1.109829653E0,1.440419388E1,-3.406183004E0,6.924230576E0
1.114619444E0,1.418405437E1,-3.358326674E0,6.728617191E0
1.119395903E0,1.320299721E1,-3.355933666E0,6.541976929E0
1.124172413E0,1.351167107E1,-3.431905985E0,5.700301647E0
1.128948923E0,1.398784256E1,-3.560520172E0,4.838885784E0
1.133725382E0,1.457767391E1,-3.592823267E0,4.030111313E0
1.138488559E0,1.512742519E1,-3.566502094E0,3.667000771E0
1.143278350E0,1.548754501E1,-3.619144201E0,3.487539053E0
1.148054861E0,1.541516209E1,-3.672384501E0,3.296113253E0
1.152818038E0,1.571187210E1,-4.196412563E0,3.247060299E0
1.157607830E0,1.565743542E1,-4.707280159E0,3.482753277E0
1.162384288E0,1.546600914E1,-4.795216560E0,3.948755503E0
1.167160798E0,1.505324745E1,-4.400999069E0,4.373481750E0
1.171937257E0,1.456750393E1,-3.891926050E0,4.639683247E0
1.176713767E0,1.427199078E1,-3.511467218E0,4.660022259E0
1.181490225E0,1.424686623E1,-3.448655605E0,4.467998028E0
1.186266736E0,1.447837162E1,-3.607778311E0,4.150351048E0
1.191043194E0,1.480977726E1,-3.857230186E0,3.788436413E0
1.195819705E0,1.505623817E1,-4.039084435E0,3.470789194E0
1.200596163E0,1.516391563E1,-4.101297855E0,3.182454109E0
1.205372673E0,1.520578957E1,-4.033700943E0,3.038286448E0
1.210149132E0,1.523869133E1,-3.961317778E0,3.043072224E0
1.214925642E0,1.527278900E1,-3.908675671E0,3.133999348E0
1.219702100E0,1.532124329E1,-3.869792461E0,3.325425386E0
1.224478611E0,1.539841175E1,-3.860221148E0,3.570091486E0
1.229255069E0,1.545763397E1,-3.879363775E0,3.852444410E0
1.234031580E0,1.549711609E1,-3.913461447E0,4.135993958E0
1.238808090E0,1.546541119E1,-3.927818298E0,4.366302967E0
1.243584548E0,1.541934872E1,-3.947559118E0,4.539184570E0
1.248361007E0,1.532004738E1,-3.991228104E0,4.645066738E0
1.253137517E0,1.517288876E1,-4.068396568E0,4.684548378E0
1.257914028E0,1.499761391E1,-4.131208420E0,4.675575256E0
1.262690486E0,1.488754463E1,-4.141377926E0,4.647459984E0
1.267466996E0,1.483968830E1,-4.107878208E0,4.566103935E0
1.272243455E0,1.479960823E1,-3.977469444E0,4.389034748E0
1.277019913E0,1.484985733E1,-3.818346739E0,4.057629108E0
1.281796423E0,1.492822266E1,-3.731606960E0,3.644268990E0
1.286572934E0,1.494437408E1,-3.692723513E0,3.198007345E0
1.291349392E0,1.486541080E1,-3.716651678E0,2.737389088E0
1.296112569E0,1.471526146E1,-3.722035646E0,2.402393818E0
1.300902361E0,1.456630802E1,-3.741178274E0,2.158325911E0
1.305678871E0,1.444128323E1,-3.688536167E0,1.947757602E0
1.310442048E0,1.440598869E1,-3.533600807E0,1.625923038E0
1.315231840E0,1.403749371E1,-3.144767046E0,1.465005636E0
1.320008298E0,1.415952778E1,-2.941975355E0,1.325025558E0
1.324771475E0,1.408116341E1,-2.720639229E0,1.056431174E0
1.329561267E0,1.420738411E1,-2.676970243E0,7.824530005E-1
1.334337778E0,1.447717476E1,-2.786442041E0,4.444667995E-1
1.339100955E0,1.451306725E1,-2.796013355E0,1.328016520E-1
1.343890746E0,1.418465233E1,-2.623729944E0,1.298106313E-1
1.348667205E0,1.395075417E1,-2.344367981E0,1.686939895E-1
1.353443715E0,1.390708542E1,-2.074577332E0,1.208375469E-1
1.358220173E0,1.385743427E1,-1.853241086E0,-2.273181453E-2
1.362996684E0,1.374257851E1,-1.752144337E0,-1.663011760E-1
1.367773142E0,1.358405399E1,-1.718644857E0,-3.044866920E-1
1.372549653E0,1.336929798E1,-1.748555183E0,-4.229314029E-1
1.377326111E0,1.312642670E1,-1.811366796E0,-5.138586760E-1
1.382089288E0,1.291047478E1,-1.878963947E0,-8.961120844E-1
1.386879080E0,1.265563869E1,-1.932204247E0,-2.190629244E0
1.391655590E0,1.238166046E1,-1.798206210E0,-2.462812662E0
1.396418767E0,1.212024498E1,-1.562513232E0,-2.322234392E0
1.401208559E0,1.188754272E1,-1.404586911E0,-2.148754835E0
1.405985017E0,1.167398357E1,-1.356730461E0,-2.128415823E0
1.410748194E0,1.148255730E1,-1.502094388E0,-1.575075507E0
1.415537986E0,1.131505966E1,-1.656431437E0,-9.936196208E-1
1.420314496E0,1.103450203E1,-1.777867198E0,-2.530409992E-1
1.425077673E0,1.073240757E1,-1.861017823E0,1.040877849E-1
1.429867465E0,1.057448101E1,-1.986042738E0,-1.495514214E-1
1.434643975E0,1.043509960E1,-2.059023857E0,-4.558327198E-1
1.439407153E0,1.021436119E1,-2.102692842E0,-7.334001660E-1
1.444196944E0,9.808777809E0,-2.199602127E0,-9.517452121E-1
1.448973403E0,9.271589279E0,-2.335993052E0,-1.054636598E0
1.453736580E0,8.752346992E0,-2.505883455E0,-1.185643673E0
1.458526371E0,8.281558990E0,-2.743371248E0,-1.303490162E0
1.463302882E0,7.721040249E0,-3.043072224E0,-1.218544960E0
1.468066059E0,7.326224804E0,-3.381058455E0,-1.460818172E0
1.472855850E0,7.073183537E0,-3.728615999E0,-1.829312921E0
1.477632309E0,6.543771744E0,-3.903291941E0,-2.056631088E0
1.482395486E0,5.858228207E0,-4.015754700E0,-1.443470240E0
1.487185278E0,5.628517151E0,-4.132404804E0,-9.290133715E-1
1.491961788E0,6.213562012E0,-4.212564468E0,-9.990034699E-1
1.496724965E0,5.974878311E0,-4.401597023E0,-4.642075896E-1
1.501514757E0,5.532206059E0,-4.725824833E0,1.280160099E-1
1.506291215E0,5.360520840E0,-5.010570526E0,7.004988194E-1
1.511054392E0,6.104090691E0,-4.989633560E0,9.266205430E-1
1.515844184E0,7.451848030E0,-4.398606300E0,1.437488198E0
1.520620694E0,8.262416840E0,-3.655634880E0,2.138585329E0
1.525383871E0,7.838288784E0,-3.386442184E0,3.004188776E0
1.530173663E0,6.994220734E0,-3.586242914E0,3.234498024E0
1.534950121E0,6.320641041E0,-3.582653761E0,2.877369165E0
1.539726632E0,6.314060688E0,-3.519842148E0,1.812563181E0
1.544503090E0,6.994818687E0,-3.850649834E0,8.781659007E-1
1.549279600E0,7.423732281E0,-4.157529354E0,6.999006122E-2
1.554056059E0,7.698308468E0,-4.301098824E0,-2.338984162E-1
1.558832569E0,7.938787460E0,-4.493721008E0,9.744769931E-1
1.563609028E0,7.435696602E0,-5.074578762E0,3.961916208E0
1.568372205E0,5.988038540E0,-4.862813950E0,6.949953556E0
1.573161996E0,5.517251015E0,-4.488935471E0,9.596415520E0
1.577938507E0,5.473581791E0,-5.145166874E0,1.062413216E1
1.582701684E0,6.044270039E0,-6.029912949E0,1.010847950E1
1.587491475E0,5.815755367E0,-6.732804775E0,8.962915421E0
1.592267934E0,4.987838745E0,-6.276373863E0,6.826723099E0
1.597031111E0,4.588835716E0,-5.597410202E0,4.989633560E0
1.601820903E0,4.662415028E0,-5.538187981E0,3.002992392E0
1.606597413E0,5.622535229E0,-5.159523964E0,1.500299811E0
1.611360590E0,6.451648235E0,-4.646263599E0,3.248256743E-1
1.616150382E0,7.088737011E0,-4.610371113E0,-5.090730190E-1
1.620926840E0,7.843074322E0,-4.874179840E0,-1.812563092E-1
1.625690017E0,8.563912392E0,-4.939982414E0,2.129612118E-1
1.630479809E0,9.106484413E0,-4.548157692E0,4.737788737E-1
1.635256319E0,9.193822861E0,-4.115056515E0,9.774680734E-1
1.640019496E0,9.191430092E0,-3.865006685E0,1.475773335E0
1.644809288E0,9.333803177E0,-3.541377544E0,1.527817249E0
1.649585746E0,9.713065147E0,-3.544966698E0,1.329213023E0
1.654348923E0,1.035194874E1,-3.871587038E0,1.340578914E0
1.659138767E0,1.000259686E1,-3.708276987E0,1.179063320E0
1.663915225E0,9.847661972E0,-3.476771355E0,8.536394835E-1
1.668691684E0,9.665208817E0,-3.887738705E0,1.070788145E0
1.673468194E0,9.951150894E0,-3.872185230E0,1.198804140E0
1.678244705E0,9.798010826E0,-3.723232031E0,1.165902853E0
1.683021163E0,9.372686386E0,-3.594617844E0,1.618744493E0
1.687797673E0,9.161520004E0,-3.401995659E0,1.552343726E0
1.692574132E0,9.361918449E0,-3.271586657E0,1.609173179E0
1.697350642E0,9.229117393E0,-3.233301640E0,1.648056626E0
1.702127100E0,9.136395454E0,-3.238087177E0,1.427916884E0
1.706903611E0,9.095118523E0,-3.300898790E0,1.596012712E0
1.711680069E0,9.000003815E0,-3.166302681E0,1.677966833E0
1.716456580E0,8.947361946E0,-3.113660574E0,1.687538147E0
1.721233038E0,8.672785759E0,-3.379263878E0,1.722832322E0
1.726009496E0,8.295317650E0,-3.924827337E0,1.889133453E0
1.730786007E0,8.558527946E0,-3.866801500E0,2.185245275E0
1.735562517E0,9.000003815E0,-3.740580082E0,2.143969059E0
1.740338975E0,9.512067795E0,-3.454039574E0,1.968694806E0
1.745115486E0,9.345169067E0,-3.512663603E0,1.806581140E0
1.749891944E0,9.287142754E0,-3.531806231E0,1.681556106E0
1.754668455E0,9.119645119E0,-3.783052683E0,1.490728498E0
1.759444913E0,9.181260109E0,-3.705883980E0,1.470987678E0
1.764221423E0,9.004191399E0,-3.522833109E0,1.380658627E0
1.768997882E0,8.644071579E0,-3.591626883E0,1.584048629E0
1.773774392E0,8.577073097E0,-3.451646566E0,1.570289850E0
1.778550850E0,8.598608017E0,-3.224926710E0,1.368096352E0
1.783327361E0,8.382656097E0,-2.960519791E0,1.095912814E0
1.788103819E0,8.299505234E0,-2.748754978E0,9.092726111E-1
1.792880330E0,8.151150703E0,-2.599801779E0,8.374879360E-1
1.797656788E0,7.959724426E0,-2.460419893E0,7.334001660E-1
1.802433298E0,7.873582840E0,-2.378465652E0,6.855437160E-1
1.807209757E0,7.721040249E0,-2.282752752E0,7.435696125E-1
1.811986267E0,7.498507977E0,-2.273779631E0,8.937192559E-1
1.816762725E0,7.485945702E0,-2.350948334E0,1.076171994E0
1.821539236E0,7.420741081E0,-2.539382935E0,1.191625714E0
1.826315694E0,7.535596848E0,-2.784647465E0,1.234696507E0
1.831092205E0,7.478767395E0,-3.054438114E0,1.110269666E0
1.835868663E0,7.183851719E0,-3.285943747E0,9.631111026E-1
1.840645173E0,6.759125710E0,-3.532404423E0,6.873382926E-1
1.845421632E0,6.932605267E0,-3.951148272E0,5.802594870E-2
1.850198142E0,7.109674454E0,-4.398606300E0,-8.500502706E-1
1.854961319E0,7.001399040E0,-4.870590687E0,-1.683948994E0
1.859751111E0,7.219145775E0,-5.101497650E0,-2.039881229E0
1.864527569E0,7.776075363E0,-5.215754986E0,-1.971087694E0
1.869290746E0,7.755138397E0,-5.596213818E0,-1.692323804E0
1.874080538E0,7.764111042E0,-5.861817360E0,-1.159322619E0
1.878857048E0,7.638488293E0,-6.223133564E0,-8.703892231E-1
1.883620225E0,7.174280643E0,-6.503692150E0,-7.142575383E-1
1.888410017E0,7.398607731E0,-6.450451851E0,-5.479564071E-1
1.893186475E0,7.599604607E0,-6.353542328E0,-3.373879790E-1
1.897949653E0,7.487740040E0,-6.483951092E0,-3.469592705E-2
1.902739444E0,7.143173695E0,-6.533003807E0,3.367897868E-1
1.907515955E0,7.405188084E0,-6.705885410E0,3.212364316E-1
1.912292413E0,7.671987534E0,-6.940980434E0,3.296113312E-1
1.917068923E0,7.236494064E0,-6.996015072E0,5.910272002E-1
1.921845382E0,7.079763889E0,-7.174280643E0,5.341976285E-1
1.926621892E0,7.135995388E0,-7.366902828E0,3.134597540E-1
1.931398350E0,7.188039303E0,-7.429116249E0,2.458625287E-1
1.936174861E0,7.164709091E0,-7.467999458E0,2.560320199E-1
1.940951319E0,7.533802032E0,-7.697710514E0,-1.298106313E-1
1.945727830E0,7.333403111E0,-7.881359577E0,-3.684946895E-1
1.950504288E0,7.366304398E0,-8.098507881E0,-5.222335458E-1
1.955280798E0,7.742575645E0,-8.266005516E0,-5.485545993E-1
1.960057257E0,7.599604607E0,-8.434700012E0,-6.000002623E-1
1.964833767E0,7.282555580E0,-8.536993027E0,-4.444667995E-1
1.969610225E0,7.320840836E0,-8.734400749E0,-4.785645306E-1
1.974386736E0,7.635497093E0,-9.017352104E0,-5.377869010E-1
1.979163194E0,7.651050568E0,-9.244669914E0,-4.504488707E-1
1.983926371E0,7.514659405E0,-9.336195946E0,-2.147558331E-1
1.988716163E0,7.320840836E0,-9.452247620E0,-1.034895778E-1
1.993492673E0,7.188039303E0,-9.640682220E0,-1.076770201E-1
1.998269132E0,7.046264648E0,-9.785448074E0,-1.160518974E-1
2.003045642E0,7.008577347E0,-9.818947792E0,-5.383851007E-2
2.007822100E0,7.060621262E0,-9.693922997E0,-5.982056726E-3
2.012598611E0,6.897311211E0,-9.448657990E0,-7.238288224E-2
2.017375069E0,6.900302410E0,-9.058030128E0,-1.064806059E-1
2.022151580E0,6.870391846E0,-8.562117577E0,-1.256231815E-1
2.026928038E0,6.611967087E0,-8.167900085E0,-2.015953064E-1
2.031704548E0,6.454041004E0,-7.960322857E0,-2.679961324E-1
2.036481007E0,6.092126369E0,-7.826324463E0,-2.614158690E-1
2.041257517E0,5.911468506E0,-7.716254711E0,-1.692921966E-1
2.046033975E0,5.935396671E0,-7.697112083E0,-1.740778536E-1
2.050810486E0,5.892325878E0,-7.643871784E0,-1.549352705E-1
2.055586944E0,5.886941910E0,-7.562515736E0,-1.692921966E-1
2.060363455E0,5.867799282E0,-7.447062492E0,-1.262213886E-1
2.065139913E0,5.858228207E0,-7.311867714E0,-8.315058798E-2
2.069916423E0,5.881557941E0,-7.215556622E0,-9.750752151E-2
2.074692882E0,6.053243160E0,-7.205387115E0,-4.067798331E-2
2.079469392E0,6.309873104E0,-7.320242882E0,-1.668993831E-1
2.084245850E0,6.419344902E0,-7.575078487E0,-2.775674164E-1
2.089022361E0,6.443871498E0,-7.859225750E0,-2.488535494E-1
2.093798819E0,6.479165554E0,-8.100900650E0,-1.190429255E-1
2.098575330E0,6.366104603E0,-8.192426682E0,5.383851007E-2
2.103351788E0,6.176473618E0,-8.279764175E0,1.226321608E-1
2.108128298E0,6.005984783E0,-8.448458672E0,8.494520187E-2
2.112904757E0,6.058028698E0,-8.337790489E0,9.930214286E-2
2.117681267E0,6.047859192E0,-8.231907845E0,6.041877344E-2
2.122457725E0,6.098706722E0,-8.072187424E0,-3.110669367E-2
2.127234236E0,6.155536175E0,-7.932207108E0,-7.896314561E-2
2.132010694E0,6.073582172E0,-7.860422611E0,-1.555334777E-1
2.136787205E0,5.988038540E0,-7.754539967E0,-1.603191197E-1
2.141563663E0,5.882754326E0,-7.654041290E0,-1.549352705E-1
2.146340173E0,5.801398277E0,-7.524230957E0,-9.212367237E-2
2.151116632E0,5.734399319E0,-7.287939548E0,-2.452643216E-2
2.155893142E0,5.624329567E0,-7.042675018E0,-5.982056609E-4
2.160669600E0,5.514259815E0,-6.772884369E0,1.435693540E-2
2.165446111E0,5.380261898E0,-6.561119556E0,-8.973085321E-3
2.170222569E0,5.222933769E0,-6.311667919E0,1.196411322E-3
2.174999080E0,5.117649555E0,-6.234499454E0,-3.649054468E-2
2.179775538E0,5.132006168E0,-6.321238995E0,-1.256231871E-2
2.184552048E0,5.261219025E0,-6.595217228E0,-2.751746029E-2
2.189328507E0,5.500501156E0,-6.903293133E0,2.392822690E-2
2.194105017E0,5.558526993E0,-7.091129780E0,9.092725813E-2
2.198881475E0,5.592624664E0,-7.259823799E0,8.614161611E-2
2.203657986E0,5.573482037E0,-7.360920429E0,1.914258115E-2
2.208434444E0,5.663811207E0,-7.490731239E0,-1.914258115E-2
2.213210955E0,5.649454117E0,-7.587042332E0,-4.785645381E-2
2.217987413E0,5.621338367E0,-7.538587570E0,-9.571290575E-3
2.222763871E0,5.550152302E0,-7.442874908E0,7.238288224E-2
2.227540382E0,5.502295494E0,-7.332206726E0,9.152546525E-2
2.232316892E0,5.573482037E0,-7.173084259E0,1.292124242E-1
2.237093350E0,5.600999832E0,-6.864409924E0,1.770688742E-1
2.241869861E0,5.695516109E0,-6.541378975E0,1.908276081E-1
2.246646319E0,5.621936798E0,-6.035895348E0,1.046859920E-1
2.251422830E0,5.367101192E0,-5.400002480E0,-2.871387079E-2
2.256186007E0,5.488536835E0,-5.106283665E0,-1.591227055E-1
2.260975798E0,5.392824173E0,-5.033900738E0,-2.500499785E-1
2.265752257E0,5.242076397E0,-5.169693470E0,-1.100698411E-1
2.270528767E0,5.089533806E0,-5.314459324E0,-2.243271172E-1
2.275305225E0,4.858626366E0,-5.483152866E0,-2.153540403E-2
2.280081736E0,4.636094093E0,-5.642873764E0,1.573280841E-1
2.284858194E0,4.662415028E0,-5.855237007E0,5.072783828E-1
2.289634705E0,4.481756687E0,-6.005386829E0,4.366901219E-1
2.294411163E0,4.400400639E0,-6.323033810E0,1.208375469E-1
2.299187673E0,4.847260475E0,-6.610770702E0,-8.793623000E-2
2.303964132E0,5.222933769E0,-6.696314335E0,-1.136590764E-1
2.308740590E0,5.196014404E0,-7.111468792E0,-1.465603858E-1
2.313503767E0,5.225924492E0,-7.674380302E0,-2.087737769E-1
2.318293611E0,5.174479008E0,-8.363512993E0,-4.001995921E-1
2.323070069E0,5.110470772E0,-9.023334503E0,-3.655036688E-1
2.327833246E0,4.965106964E0,-9.568898201E0,-3.068794906E-1
2.332623038E0,4.771288395E0,-9.944570541E0,-2.673979402E-1
2.337399548E0,4.556532383E0,-1.021974564E1,-4.432703853E-1
2.342162673E0,4.814957142E0,-1.055174923E1,-4.785645306E-1
2.346952517E0,3.985246181E0,-9.888937950E0,-4.217349887E-1
2.351728975E0,4.004388809E0,-9.527621269E0,-1.818545163E-1
2.356505434E0,4.045664787E0,-9.378069878E0,-3.355933726E-1
2.361281944E0,4.097708702E0,-9.229117393E0,-3.266202807E-1
2.366058403E0,3.950550079E0,-9.040681839E0,-2.063809484E-1
2.370834913E0,3.978067636E0,-9.069396019E0,-4.079762697E-1
2.375611371E0,4.164109707E0,-9.020941734E0,-2.458625287E-1
2.380387882E0,4.354339123E0,-8.972486496E0,-1.938186288E-1
2.385164340E0,4.183252335E0,-8.847461700E0,-1.645065546E-1
2.389940850E0,3.619144201E0,-8.382058144E0,-4.109672904E-1
2.394717309E0,3.060420275E0,-7.708477974E0,-2.937189937E-1
2.399493819E0,3.051447153E0,-7.405188084E0,-9.212367237E-2
2.404270278E0,3.294318676E0,-7.284350395E0,3.589234129E-2
2.409046788E0,3.113062143E0,-6.952346325E0,9.870393574E-2
2.413809965E0,3.192025423E0,-6.692126751E0,-4.546362907E-2
2.418599757E0,3.114856958E0,-6.446264267E0,-6.460621208E-2
2.423376215E0,2.766701221E0,-5.980261803E0,3.768695518E-2
2.428139392E0,2.381456852E0,-5.841478348E0,1.166501045E-1
2.432929184E0,1.906481385E0,-6.564708710E0,-1.543370634E-1
2.437705694E0,1.622931957E0,-7.100701332E0,-1.136590764E-1
2.442468871E0,1.590628862E0,-7.539186001E0,-1.998006850E-1
2.447258663E0,1.656431437E0,-7.942974567E0,-5.886343718E-1
2.452035121E0,1.706680775E0,-8.145766258E0,-9.918249846E-1
2.456811632E0,1.550549030E0,-8.367700577E0,-1.010369420E0
2.461588090E0,1.625324726E0,-8.646464348E0,-1.355534077E0
2.466364600E0,1.725823283E0,-8.906085968E0,-1.356132269E0
2.471127778E0,1.731207132E0,-9.412167549E0,-1.581057549E0
2.475917569E0,1.880758643E0,-9.585647583E0,-1.274776220E0
2.480694028E0,2.222932339E0,-9.984052658E0,-1.520638824E0
2.485457205E0,2.333002090E0,-1.043689442E1,-1.617548108E0
2.490246996E0,2.616551638E0,-1.082632637E1,-1.484148264E0
2.495023507E0,2.739781857E0,-1.094178009E1,-8.416753411E-1
2.499786684E0,2.865405083E0,-1.101416302E1,-5.449653864E-1
2.504576475E0,2.934797049E0,-1.115354443E1,-1.561316848E-1
2.509352934E0,3.192025423E0,-1.140838051E1,5.718846321E-1
2.514116111E0,3.068196774E0,-1.162672520E1,1.235294700E0
2.518905903E0,2.894119024E0,-1.172842026E1,1.456630826E0
2.523682413E0,2.644667149E0,-1.181994534E1,1.055234790E0
2.528458871E0,2.523829699E0,-1.177208900E1,7.585247755E-1
2.533235382E0,2.353939295E0,-1.187318611E1,2.596212626E-1
2.538011840E0,2.358126640E0,-1.204187965E1,3.948157281E-2
2.542788350E0,2.318645239E0,-1.201316643E1,-1.286142170E-1
2.547564809E0,2.283949137E0,-1.198385429E1,-4.163511395E-1
2.552341319E0,2.216950178E0,-1.189292717E1,-4.444667995E-1
2.557117778E0,2.191825628E0,-1.183490086E1,-5.455635786E-1
2.561894236E0,2.081755638E0,-1.179661560E1,-6.508477330E-1
2.566670746E0,2.167299032E0,-1.177687454E1,-6.514459848E-1
2.571447205E0,2.209771633E0,-1.166620636E1,-7.136593461E-1
2.576223715E0,2.252244234E0,-1.164227867E1,-6.759724021E-1
2.581000173E0,2.161317110E0,-1.146879864E1,-7.280163169E-1
2.585776684E0,2.157129526E0,-1.125643635E1,-4.887340367E-1
2.590553142E0,2.153540373E0,-1.109791183E1,-2.673979402E-1
2.595329653E0,2.077568293E0,-1.099202919E1,-1.184447184E-1
2.600106111E0,1.996810555E0,-1.091545868E1,-1.034895778E-1
2.604882621E0,1.929811478E0,-1.085743237E1,-1.465603858E-1
2.609659080E0,1.877767563E0,-1.078086281E1,-7.896314561E-2
2.614435590E0,1.900499344E0,-1.069412231E1,-1.561316848E-1
2.619212048E0,1.986641049E0,-1.067916775E1,-8.913264424E-2
2.623988559E0,2.091326952E0,-1.067438221E1,-7.537391037E-2
2.628765017E0,2.143969059E0,-1.067916775E1,-5.144568533E-2
2.633541528E0,2.181656122E0,-1.073659515E1,-1.429711580E-1
2.638317986E0,2.185245275E0,-1.067856884E1,-2.243271172E-1
2.643094496E0,2.094317913E0,-1.063549805E1,-3.104687333E-1
2.647870955E0,2.033301115E0,-1.068873882E1,-2.524427772E-1
2.652647465E0,1.932802439E0,-1.063131142E1,-3.050848842E-1
2.657423923E0,1.794616938E0,-1.064566803E1,-3.427718580E-1
2.662200434E0,1.704287887E0,-1.059781170E1,-3.852444589E-1
2.666976892E0,1.646860242E0,-1.062233829E1,-4.283152521E-1
2.671753403E0,1.575075507E0,-1.060319519E1,-4.372883439E-1
2.676529861E0,1.475773335E0,-1.063190937E1,-4.366901219E-1
2.681306371E0,1.423131227E0,-1.063250732E1,-4.271188378E-1
2.686082830E0,1.380060434E0,-1.059900761E1,-4.552344978E-1
2.690859340E0,1.289731383E0,-1.059422207E1,-4.115654826E-1
2.695635798E0,1.246660590E0,-1.052662468E1,-4.115654826E-1
2.700412309E0,1.303490162E0,-1.052662468E1,-4.408775866E-1
2.705188767E0,1.322632670E0,-1.052183914E1,-4.265206456E-1
2.709965278E0,1.331605792E0,-1.047338486E1,-4.456632137E-1
2.714741736E0,1.360917926E0,-1.047338486E1,-4.701896608E-1
2.719518194E0,1.331605792E0,-1.047338486E1,-4.648058116E-1
2.724294705E0,1.307677627E0,-1.049312592E1,-5.132604837E-1
2.729071163E0,1.245464206E0,-1.058943653E1,-6.616154313E-1
2.733847673E0,1.268794179E0,-1.069053364E1,-7.094719410E-1
2.738624132E0,1.222732425E0,-1.073838997E1,-5.605186820E-1
2.743400642E0,1.119242787E0,-1.078744221E1,-4.061816335E-1
2.748177100E0,1.024128079E0,-1.077308559E1,-3.529413342E-1
2.752953611E0,9.672985673E-1,-1.081137085E1,-3.906283081E-1
2.757730069E0,9.517452121E-1,-1.073480034E1,-4.827519655E-1
2.762506580E0,9.702895880E-1,-1.080179977E1,-5.880361795E-1
2.767283038E0,1.151545882E0,-1.113858986E1,-7.328019142E-1
2.772059548E0,1.083948612E0,-1.058943653E1,-6.323033571E-1
2.776836007E0,9.589236975E-1,-9.948758125E0,-5.312066078E-1
2.781612517E0,1.024726272E0,-9.664610863E0,-4.743770957E-1
2.786388975E0,1.034297585E0,-9.640682220E0,-4.205385745E-1
2.791165486E0,1.001396298E0,-9.693922997E0,-3.966103494E-1
2.795941944E0,1.034895778E0,-9.732208252E0,-3.583251834E-1
2.800718455E0,1.101894855E0,-9.760921478E0,-3.397808075E-1
2.805494913E0,1.101894855E0,-9.765707016E0,-3.684946895E-1
2.810271423E0,1.039681435E0,-9.765707016E0,-4.061816335E-1
2.815047882E0,1.039681435E0,-9.741779327E0,-4.205385745E-1
2.819824392E0,1.043868899E0,-9.736993790E0,-4.444667995E-1
2.824600850E0,1.039083242E0,-9.732208252E0,-4.594219327E-1
2.829377361E0,1.048654556E0,-9.756135941E0,-4.546363056E-1
2.834153819E0,1.043868899E0,-9.770493507E0,-4.695914388E-1
2.838930330E0,1.034297585E0,-9.770493507E0,-4.785645306E-1
2.843706788E0,1.039083242E0,-9.770493507E0,-4.791627228E-1
2.848483246E0,1.048654556E0,-9.760921478E0,-4.887340367E-1
2.853259757E0,1.053440213E0,-9.760921478E0,-5.078766346E-1
2.858036215E0,1.058225870E0,-9.756135941E0,-5.126622319E-1
2.862812725E0,1.077368379E0,-9.756135941E0,-5.030909777E-1
2.867589184E0,1.072582722E0,-9.751350403E0,-5.030909777E-1
2.872365694E0,1.086341500E0,-9.756135941E0,-4.983053207E-1
2.877142153E0,1.115055323E0,-9.736993790E0,-4.839483798E-1
2.881918663E0,1.134197950E0,-9.736993790E0,-4.839483798E-1
2.886695121E0,1.134197950E0,-9.722636223E0,-4.839483798E-1
2.891471632E0,1.138983607E0,-9.722636223E0,-4.695914388E-1
2.896248090E0,1.162911773E0,-9.722038269E0,-4.845465720E-1
2.901024600E0,1.177268744E0,-9.736993790E0,-4.845465720E-1
2.905801059E0,1.200598717E0,-9.731609344E0,-4.797609448E-1
2.910577569E0,1.219741344E0,-9.726823807E0,-4.797609448E-1
2.915354028E0,1.200598717E0,-9.736394882E0,-4.941178858E-1
2.920130538E0,1.219741344E0,-9.736394882E0,-4.797609448E-1
2.924906996E0,1.229312658E0,-9.731609344E0,-4.893322289E-1
2.929683507E0,1.224527001E0,-9.726823807E0,-4.989035130E-1
2.934459965E0,1.200598717E0,-9.726823807E0,-4.941178858E-1
2.939236475E0,1.205384374E0,-9.717252731E0,-5.036891699E-1
2.944012934E0,1.205384374E0,-9.745966911E0,-4.893322289E-1
2.948789444E0,1.205384374E0,-9.726823807E0,-4.749752879E-1
2.953565903E0,1.205384374E0,-9.756135941E0,-4.893322289E-1
2.958342413E0,1.224527001E0,-9.750752449E0,-4.893322289E-1
2.963118871E0,1.234098315E0,-9.770493507E0,-4.845465720E-1
2.967895330E0,1.234098315E0,-9.775279045E0,-4.845465720E-1
2.972671840E0,1.229312658E0,-9.775279045E0,-4.701896608E-1
2.977448350E0,1.243669510E0,-9.794421196E0,-4.893322289E-1
2.982224809E0,1.262812138E0,-9.799206734E0,-4.941178858E-1
2.987001267E0,1.277169108E0,-9.808777809E0,-4.947160780E-1
2.991777778E0,1.281954765E0,-9.789635658E0,-4.995017350E-1
2.996554236E0,1.281954765E0,-9.784850121E0,-4.947160780E-1
3.001330746E0,1.314856052E0,-9.779465675E0,-4.851447940E-1
3.006107205E0,1.333998680E0,-9.760323524E0,-4.803591371E-1
3.010883715E0,1.319641709E0,-9.745966911E0,-4.851447940E-1
3.015660173E0,1.281954765E0,-9.755537987E0,-4.851447940E-1
3.020436684E0,1.286740422E0,-9.760323524E0,-4.803591371E-1
3.025213142E0,1.262812138E0,-9.745966911E0,-4.648058116E-1
3.029989653E0,1.224527001E0,-9.760921478E0,-4.552344978E-1
3.034766111E0,1.167697430E0,-9.760921478E0,-4.408775866E-1
3.039542621E0,1.158126116E0,-9.765707016E0,-4.600201547E-1
3.044319080E0,1.130010486E0,-9.799206734E0,-4.642075896E-1
3.049095590E0,1.091725349E0,-9.799804688E0,-4.546363056E-1
3.053872048E0,1.082154036E0,-9.804591179E0,-4.402793646E-1
3.058648559E0,1.058824062E0,-9.809376717E0,-4.301098585E-1
3.063425017E0,9.924231768E-1,-9.804591179E0,-4.253242314E-1
3.068201528E0,9.780662656E-1,-9.814162254E0,-4.253242314E-1
3.072977986E0,9.493523836E-1,-9.766305923E0,-3.960121572E-1
3.077754496E0,4.683950245E-1,-9.382257462E0,-3.122633696E-1
3.082530955E0,5.730810165E-1,-9.497711182E0,-3.750749528E-1
3.087307413E0,1.129412293E0,-9.789635658E0,-4.839483798E-1
3.092083923E0,1.338784218E0,-9.976874352E0,-5.617151260E-1
3.096860382E0,1.415952802E0,-1.001515961E1,-5.288137794E-1
3.101636892E0,1.115653515E0,-9.823733330E0,-4.067798555E-1
3.106413350E0,1.011565804E0,-9.727422714E0,-3.152543902E-1
3.111189861E0,1.025922656E0,-9.722636223E0,-2.961117923E-1
3.115966319E0,1.025922656E0,-9.727422714E0,-3.296113312E-1
3.120742830E0,9.924231768E-1,-9.732208252E0,-3.631108403E-1
3.125519288E0,1.006181955E0,-9.741779327E0,-3.870390654E-1
3.130295798E0,9.918249846E-1,-9.747162819E0,-3.966103494E-1
3.135072257E0,9.966106415E-1,-9.761520386E0,-4.061816335E-1
3.139848767E0,9.732806087E-1,-9.761520386E0,-3.726821244E-1
3.144625225E0,9.684949517E-1,-9.771091461E0,-3.774677813E-1
3.149401736E0,9.637092948E-1,-9.761520386E0,-3.625126183E-1
3.154178194E0,9.637092948E-1,-9.756733894E0,-3.481557071E-1
3.158954705E0,9.541380405E-1,-9.761520386E0,-3.625126183E-1
3.163731163E0,9.260223508E-1,-9.751948357E0,-3.481557071E-1
3.168507673E0,9.164510965E-1,-9.742377281E0,-3.481557071E-1
3.173284132E0,9.302098155E-1,-9.747162819E0,-3.672982752E-1
3.178060642E0,9.349954724E-1,-9.747162819E0,-3.720839322E-1
3.182837100E0,9.397810698E-1,-9.737591743E0,-3.768695593E-1
3.187613559E0,9.493523836E-1,-9.761520386E0,-3.864408433E-1
3.192390069E0,9.493523836E-1,-9.771091461E0,-3.768695593E-1
3.197166528E0,9.541380405E-1,-9.780662537E0,-3.768695593E-1
3.201943038E0,9.828519225E-1,-9.780662537E0,-3.822534084E-1
3.206719496E0,9.828519225E-1,-9.780662537E0,-3.774677813E-1
3.211496007E0,1.001994491E0,-9.799804688E0,-3.822534084E-1
3.216272465E0,1.006780148E0,-9.799804688E0,-3.822534084E-1
3.221048975E0,1.020538807E0,-9.790233612E0,-3.966103494E-1
3.225825434E0,1.025324464E0,-9.790233612E0,-4.013960063E-1
3.230601944E0,1.039681435E0,-9.765707016E0,-4.061816335E-1
3.235378403E0,1.044467092E0,-9.746564865E0,-4.013960063E-1
3.240154913E0,1.058225870E0,-9.741779327E0,-4.211367965E-1
3.244931371E0,1.058225870E0,-9.727422714E0,-4.211367965E-1
3.249707882E0,1.072582722E0,-9.717850685E0,-4.307080805E-1
3.254484340E0,1.086939692E0,-9.713065147E0,-4.402793646E-1
3.259260850E0,1.096511006E0,-9.713065147E0,-4.498506486E-1
3.264037309E0,1.096511006E0,-9.722636223E0,-4.594219327E-1
3.268813819E0,1.110269666E0,-9.722636223E0,-4.695914388E-1
3.273590278E0,1.124626637E0,-9.736993790E0,-4.791627228E-1
3.278366736E0,1.124626637E0,-9.736993790E0,-4.935196638E-1
3.283143246E0,1.129412293E0,-9.756135941E0,-5.078766346E-1
3.287919705E0,1.129412293E0,-9.756135941E0,-5.126622319E-1
3.292696215E0,1.134197950E0,-9.770493507E0,-5.180460811E-1
3.297472673E0,1.119840980E0,-9.784850121E0,-5.270192027E-1
3.302249184E0,1.124626637E0,-9.789635658E0,-5.222335458E-1
3.307025642E0,1.129412293E0,-9.770493507E0,-5.174478889E-1
3.311802153E0,1.138983607E0,-9.784850121E0,-5.515456200E-1
3.316578611E0,1.134197950E0,-9.780064583E0,-5.324030519E-1
3.321355121E0,1.134197950E0,-9.775279045E0,-5.324030519E-1
3.326131580E0,1.134197950E0,-9.780064583E0,-5.515456200E-1
3.330908090E0,1.133599758E0,-9.760921478E0,-5.467599630E-1
3.335684548E0,1.138385415E0,-9.760921478E0,-5.467599630E-1
3.340461059E0,1.138385415E0,-9.756135941E0,-5.659025311E-1
3.345237517E0,1.157527924E0,-9.760921478E0,-5.754738450E-1
3.350014028E0,1.171884894E0,-9.765707016E0,-5.706881881E-1
3.354790486E0,1.191027522E0,-9.760921478E0,-5.563312769E-1
3.359566996E0,1.224527001E0,-9.765707016E0,-5.419743061E-1
3.364343455E0,1.266999602E0,-9.755537987E0,-5.425725579E-1
3.369119965E0,1.290927768E0,-9.755537987E0,-5.569294691E-1
3.373896423E0,1.333400369E0,-9.750752449E0,-5.712863803E-1
3.378672882E0,1.376471281E0,-9.750752449E0,-5.814558864E-1
3.383449392E0,1.405185103E0,-9.736394882E0,-5.910272002E-1
3.388225850E0,1.447657704E0,-9.726225853E0,-5.916253924E-1
3.393002361E0,1.485942841E0,-9.721440315E0,-5.724828243E-1
3.397778819E0,1.495514154E0,-9.735796928E0,-5.485545993E-1
3.402555330E0,1.515254974E0,-9.711869240E0,-5.006981492E-1
3.407331788E0,1.505683661E0,-9.687940598E0,-4.666004181E-1
3.412108298E0,1.500898004E0,-9.673583984E0,-4.325026870E-1
3.416884757E0,1.463211060E0,-9.678369522E0,-4.229314029E-1
3.421661267E0,1.463211060E0,-9.668798447E0,-4.037888348E-1
3.426437725E0,1.448854089E0,-9.659226418E0,-4.037888348E-1
3.431214236E0,1.439282775E0,-9.664012909E0,-4.181457460E-1
3.435990694E0,1.420140266E0,-9.664012909E0,-4.181457460E-1
3.440767205E0,1.400997639E0,-9.687940598E0,-4.325026870E-1
3.445543663E0,1.396211982E0,-9.712467194E0,-4.516452849E-1
3.450320173E0,1.392024517E0,-9.726823807E0,-4.564309120E-1
3.455096632E0,1.396211982E0,-9.736394882E0,-4.761717021E-1
3.459873090E0,1.405783296E0,-9.755537987E0,-5.144568682E-1
3.464649600E0,1.400997639E0,-9.755537987E0,-5.383850932E-1
3.469426059E0,1.400399446E0,-9.755537987E0,-5.670989752E-1
3.474202569E0,1.386042476E0,-9.769894600E0,-6.005984545E-1
3.478979028E0,1.395613790E0,-9.774680138E0,-6.197410822E-1
3.483755538E0,1.381256819E0,-9.755537987E0,-6.293123364E-1
3.488531996E0,1.386042476E0,-9.745966911E0,-6.675975323E-1
3.493308507E0,1.380658627E0,-9.726823807E0,-6.675975323E-1
3.498084965E0,1.371087432E0,-9.711869240E0,-6.675975323E-1
3.502861475E0,1.375872970E0,-9.707083702E0,-6.723831892E-1
3.507637934E0,1.371087432E0,-9.692726135E0,-6.723831892E-1
3.512414444E0,1.380658627E0,-9.678369522E0,-6.628118753E-1
3.517190903E0,1.395015597E0,-9.683155060E0,-6.484549642E-1
3.521967413E0,1.395015597E0,-9.673583984E0,-6.245267391E-1
3.526743871E0,1.390828133E0,-9.678369522E0,-6.245267391E-1
3.531520382E0,1.409372568E0,-9.678369522E0,-6.149554253E-1
3.536296840E0,1.395613790E0,-9.683155060E0,-5.862415433E-1
3.541073298E0,1.395613790E0,-9.702297211E0,-5.766702294E-1
3.545849809E0,1.386042476E0,-9.702297211E0,-5.623133183E-1
3.550626267E0,1.372283816E0,-9.712467194E0,-5.527420044E-1
3.555402778E0,1.357926846E0,-9.726823807E0,-5.431707501E-1
3.560179236E0,1.333400369E0,-9.736394882E0,-5.330012441E-1
3.564955746E0,1.300499082E0,-9.745966911E0,-5.186443329E-1
3.569732205E0,1.310070395E0,-9.755537987E0,-5.186443329E-1
3.574508715E0,1.286142230E0,-9.760323524E0,-5.186443329E-1
3.579285173E0,1.266999602E0,-9.760323524E0,-5.138586760E-1
3.584061684E0,1.262213945E0,-9.755537987E0,-5.234299302E-1
3.588838142E0,1.257428288E0,-9.745966911E0,-5.425725579E-1
3.593614653E0,1.228714466E0,-9.756135941E0,-5.569294691E-1
3.598391111E0,1.219143152E0,-9.736394882E0,-5.467599630E-1
3.603167621E0,1.209571838E0,-9.736394882E0,-5.563312769E-1
3.607952257E0,1.209571838E0,-9.722038269E0,-5.611169338E-1
3.612720538E0,1.219143152E0,-9.717252731E0,-5.712863803E-1
3.617497048E0,1.219143152E0,-9.702896118E0,-5.856433511E-1
3.622273507E0,1.223928809E0,-9.683753014E0,-5.952146053E-1
3.627050017E0,1.237687469E0,-9.683753014E0,-6.047859192E-1
3.631826475E0,1.266401410E0,-9.664012909E0,-6.000002623E-1
3.636602986E0,1.285543919E0,-9.654440880E0,-5.904290080E-1
3.641379444E0,1.295115232E0,-9.654440880E0,-5.904290080E-1
3.646155955E0,1.319043517E0,-9.640084267E0,-5.760720372E-1
3.650932413E0,1.347159147E0,-9.635298729E0,-5.814558864E-1
3.655708923E0,1.351944804E0,-9.630513191E0,-5.623133183E-1
3.660485382E0,1.376471281E0,-9.625727654E0,-5.431707501E-1
3.665261892E0,1.376471281E0,-9.630513191E0,-5.383850932E-1
3.670038350E0,1.390828133E0,-9.654440880E0,-5.335994363E-1
3.674814861E0,1.372283816E0,-9.673583984E0,-5.288137794E-1
3.679591319E0,1.357926846E0,-9.668798447E0,-5.192425251E-1
3.684367778E0,1.362712502E0,-9.673583984E0,-5.048855543E-1
3.689144288E0,1.342971683E0,-9.683155060E0,-4.899304509E-1
3.693920746E0,1.324427366E0,-9.687940598E0,-4.899304509E-1
3.698697257E0,1.286142230E0,-9.702896118E0,-4.899304509E-1
3.703473715E0,1.266999602E0,-9.722038269E0,-4.947160780E-1
3.708250225E0,1.229312658E0,-9.731609344E0,-4.845465720E-1
3.713026684E0,1.195813060E0,-9.746564865E0,-4.845465720E-1
3.717803194E0,1.186241865E0,-9.736993790E0,-4.989035130E-1
3.722579653E0,1.176670551E0,-9.751350403E0,-5.036891699E-1
3.727356163E0,1.167099237E0,-9.760921478E0,-5.324030519E-1
3.732132621E0,1.152742267E0,-9.751350403E0,-5.467599630E-1
3.736909080E0,1.152742267E0,-9.741779327E0,-5.802595019E-1
3.741685590E0,1.157527924E0,-9.741779327E0,-5.946164131E-1
3.746462048E0,1.180858016E0,-9.746564865E0,-6.233302951E-1
3.751238559E0,1.180858016E0,-9.746564865E0,-6.376872063E-1
3.756015017E0,1.195214868E0,-9.741181374E0,-6.574280262E-1
3.760791528E0,1.204187989E0,-9.722038269E0,-7.148557901E-1
3.765567986E0,1.217946768E0,-9.731609344E0,-7.387840152E-1
3.770344496E0,1.241874933E0,-9.731609344E0,-7.387840152E-1
3.775120955E0,1.261017561E0,-9.717252731E0,-7.537391186E-1
3.779897465E0,1.270588875E0,-9.707681656E0,-7.441678643E-1
3.784673923E0,1.294517040E0,-9.702896118E0,-7.393822074E-1
3.789450434E0,1.299302697E0,-9.702896118E0,-7.250252366E-1
3.794226892E0,1.313659668E0,-9.712467194E0,-7.154539824E-1
3.799003403E0,1.299302697E0,-9.717252731E0,-7.154539824E-1
3.803779861E0,1.289731383E0,-9.707681656E0,-7.010970116E-1
3.808556371E0,1.270588875E0,-9.712467194E0,-6.717849374E-1
3.813332830E0,1.252044439E0,-9.722038269E0,-6.334998012E-1
3.818109288E0,1.232901812E0,-9.712467194E0,-6.191428304E-1
3.822885798E0,1.228714466E0,-9.712467194E0,-5.952146053E-1
3.827662257E0,1.195214868E0,-9.722038269E0,-5.754738450E-1
3.832438767E0,1.191027522E0,-9.712467194E0,-5.371887088E-1
3.837215225E0,1.181456208E0,-9.702896118E0,-5.467599630E-1
3.841991736E0,1.162313581E0,-9.717252731E0,-5.754738450E-1
3.846768194E0,1.157527924E0,-9.712467194E0,-5.754738450E-1
3.851544705E0,1.133599758E0,-9.727422714E0,-5.850451589E-1
3.856321163E0,1.147956610E0,-9.741779327E0,-6.089733839E-1
3.861097673E0,1.162313581E0,-9.756135941E0,-5.946164131E-1
3.865874132E0,1.162313581E0,-9.760921478E0,-5.994020700E-1
3.870650642E0,1.180858016E0,-9.756135941E0,-5.994020700E-1
3.875427100E0,1.195214868E0,-9.741181374E0,-6.089733839E-1
3.880203559E0,1.204786181E0,-9.736394882E0,-6.095715761E-1
3.884980069E0,1.209571838E0,-9.726823807E0,-6.239284873E-1
3.889756528E0,1.209571838E0,-9.731609344E0,-6.239284873E-1
3.894533038E0,1.209571838E0,-9.726823807E0,-6.000002623E-1
3.899309496E0,1.204786181E0,-9.726823807E0,-5.946164131E-1
3.904086007E0,1.200000525E0,-9.731609344E0,-5.946164131E-1
3.908862465E0,1.185643673E0,-9.717252731E0,-5.946164131E-1
3.913638975E0,1.171286702E0,-9.707681656E0,-5.946164131E-1
3.918415434E0,1.171286702E0,-9.722038269E0,-5.946164131E-1
3.923191944E0,1.171286702E0,-9.731609344E0,-6.233302951E-1
3.927968403E0,1.171286702E0,-9.726823807E0,-6.520441771E-1
3.932744913E0,1.166501045E0,-9.731609344E0,-6.472585201E-1
3.937521371E0,1.142572761E0,-9.741779327E0,-6.520441771E-1
3.942297830E0,1.142572761E0,-9.736993790E0,-6.376872063E-1
3.947074340E0,1.152144074E0,-9.746564865E0,-6.376872063E-1
3.951850798E0,1.156929731E0,-9.751350403E0,-6.376872063E-1
3.956627309E0,1.138385415E0,-9.751350403E0,-6.329016089E-1
3.961403767E0,1.133599758E0,-9.746564865E0,-6.281159520E-1
3.966180278E0,1.119242787E0,-9.746564865E0,-6.089733839E-1
3.970956736E0,1.114457130E0,-9.746564865E0,-5.898307562E-1
3.975733246E0,1.109671474E0,-9.756135941E0,-6.137589812E-1
3.980509705E0,1.100100160E0,-9.765707016E0,-5.994020700E-1
3.985286215E0,1.095912814E0,-9.770493507E0,-5.796613097E-1
3.990062673E0,1.091127157E0,-9.784850121E0,-5.988038778E-1
3.994839132E0,1.081555843E0,-9.799804688E0,-5.796613097E-1
3.999615642E0,1.071984529E0,-9.799804688E0,-5.700899959E-1
4.004392153E0,1.086341500E0,-9.780064583E0,-5.653043389E-1
4.009168611E0,1.095912814E0,-9.770493507E0,-5.557330847E-1
4.013945069E0,1.086341500E0,-9.770493507E0,-5.700899959E-1
4.018721580E0,1.091127157E0,-9.760921478E0,-5.748756528E-1
4.023498038E0,1.081555843E0,-9.765707016E0,-5.700899959E-1
4.028274548E0,1.071984529E0,-9.756135941E0,-5.509474277E-1
4.033051007E0,1.071984529E0,-9.770493507E0,-5.509474277E-1
4.037827517E0,1.071984529E0,-9.770493507E0,-5.222335458E-1
4.042603975E0,1.067797065E0,-9.760921478E0,-5.174478889E-1
4.047380486E0,1.067797065E0,-9.765707016E0,-5.078766346E-1
4.052156944E0,1.048654556E0,-9.746564865E0,-5.078766346E-1
4.056933403E0,1.048654556E0,-9.736993790E0,-5.030909777E-1
4.061709913E0,1.053440213E0,-9.727422714E0,-5.174478889E-1
4.066486423E0,1.052842021E0,-9.708279610E0,-5.318048596E-1
4.071262882E0,1.076770186E0,-9.703494072E0,-5.557330847E-1
4.076039340E0,1.086341500E0,-9.693324089E0,-5.557330847E-1
4.080815850E0,1.104885817E0,-9.693324089E0,-5.557330847E-1
4.085592309E0,1.119242787E0,-9.698110580E0,-5.467599630E-1
4.090368819E0,1.143171072E0,-9.717252731E0,-5.371887088E-1
4.095145278E0,1.162313581E0,-9.707681656E0,-5.180460811E-1
4.099921788E0,1.167099237E0,-9.712467194E0,-5.084748268E-1
4.104698246E0,1.181456208E0,-9.717252731E0,-4.941178858E-1
4.109474757E0,1.191027522E0,-9.722038269E0,-4.749752879E-1
4.114251215E0,1.186840057E0,-9.741779327E0,-4.648058116E-1
4.119027725E0,1.191625714E0,-9.736993790E0,-4.600201547E-1
4.123804184E0,1.196411371E0,-9.756135941E0,-4.408775866E-1
4.128580642E0,1.201196909E0,-9.765707016E0,-4.217349887E-1
4.133357153E0,1.205982566E0,-9.765707016E0,-4.217349887E-1
4.138133611E0,1.172483087E0,-9.760921478E0,-4.504488707E-1
4.142910121E0,1.172483087E0,-9.765707016E0,-4.749752879E-1
4.147686580E0,1.172483087E0,-9.751350403E0,-4.989035130E-1
4.152463090E0,1.167697430E0,-9.765707016E0,-5.132604837E-1
4.157239548E0,1.134197950E0,-9.770493507E0,-5.371887088E-1
4.162016059E0,1.138385415E0,-9.756135941E0,-5.611169338E-1
4.166792517E0,1.124028444E0,-9.756135941E0,-5.563312769E-1
4.171569028E0,9.098708034E-1,-9.588040352E0,-5.168496966E-1
4.176345486E0,5.431707501E-1,-9.376873970E0,-5.341976285E-1
4.181121996E0,1.266401410E0,-9.760323524E0,-6.382854581E-1
4.185898455E0,1.472184181E0,-9.986445427E0,-6.825526357E-1
4.190674913E0,1.591227055E0,-1.005344391E1,-6.209374666E-1
4.195451423E0,1.363310695E0,-9.924231529E0,-5.473581553E-1
4.200227882E0,1.229910851E0,-9.813564301E0,-4.701896608E-1
4.205004392E0,1.191625714E0,-9.765707016E0,-4.504488707E-1
4.209780850E0,1.191625714E0,-9.775279045E0,-4.845465720E-1
4.214557361E0,1.148554921E0,-9.765707016E0,-5.084748268E-1
4.219333819E0,1.138983607E0,-9.756135941E0,-5.324030519E-1
4.224110330E0,1.119840980E0,-9.751350403E0,-5.467599630E-1
4.228886788E0,1.086341500E0,-9.746564865E0,-5.318048596E-1
4.233663298E0,1.062413216E0,-9.751350403E0,-5.222335458E-1
4.238439757E0,1.053440213E0,-9.756135941E0,-4.983053207E-1
4.243216215E0,1.034297585E0,-9.760921478E0,-5.126622319E-1
4.247992725E0,1.024726272E0,-9.765707016E0,-5.222335458E-1
4.252769184E0,1.010369420E0,-9.760921478E0,-5.168496966E-1
4.257545694E0,1.000798106E0,-9.746564865E0,-5.312066078E-1
4.262322153E0,9.960124493E-1,-9.736993790E0,-5.359922647E-1
4.267098663E0,9.960124493E-1,-9.741779327E0,-5.407779217E-1
4.271875121E0,9.912267923E-1,-9.727422714E0,-5.359922647E-1
4.276651632E0,1.005583763E0,-9.713065147E0,-5.509474277E-1
4.281428090E0,1.009771109E0,-9.703494072E0,-5.605186820E-1
4.286204548E0,1.000798106E0,-9.722636223E0,-5.557330847E-1
4.290981059E0,9.960124493E-1,-9.732208252E0,-5.605186820E-1
4.295757517E0,9.864411354E-1,-9.746564865E0,-5.551348329E-1
4.300534028E0,9.912267923E-1,-9.756135941E0,-5.455635786E-1
4.305310486E0,9.960124493E-1,-9.751350403E0,-5.503492355E-1
4.310086996E0,9.864411354E-1,-9.775876999E0,-5.599204898E-1
4.314863455E0,1.005583763E0,-9.765707016E0,-5.461617708E-1
4.319639965E0,1.015154958E0,-9.751350403E0,-5.461617708E-1
4.324416423E0,1.015154958E0,-9.760921478E0,-5.461617708E-1
4.329192934E0,1.028913736E0,-9.736993790E0,-5.605186820E-1
4.333969392E0,1.043270707E0,-9.751350403E0,-5.605186820E-1
4.338745903E0,1.052842021E0,-9.746564865E0,-5.557330847E-1
4.343522361E0,1.057627559E0,-9.746564865E0,-5.365904570E-1
4.348298819E0,1.067198873E0,-9.746564865E0,-5.509474277E-1
4.353075330E0,1.081555843E0,-9.746564865E0,-5.365904570E-1
4.357851788E0,1.095912814E0,-9.751350403E0,-5.509474277E-1
4.362628298E0,1.115055323E0,-9.756135941E0,-5.222335458E-1
4.367404757E0,1.124626637E0,-9.760921478E0,-5.174478889E-1
4.372181267E0,1.143769264E0,-9.765707016E0,-5.132604837E-1
4.376957725E0,1.162911773E0,-9.765707016E0,-4.941178858E-1
4.381734236E0,1.200598717E0,-9.751350403E0,-4.893322289E-1
4.386510694E0,1.210170031E0,-9.760921478E0,-4.893322289E-1
4.391287205E0,1.186840057E0,-9.760921478E0,-4.749752879E-1
4.396063663E0,1.219741344E0,-9.765707016E0,-4.845465720E-1
4.400840121E0,1.210170031E0,-9.760921478E0,-4.749752879E-1
4.405616632E0,1.224527001E0,-9.756135941E0,-4.749752879E-1
4.410393090E0,1.219741344E0,-9.756135941E0,-4.749752879E-1
4.415169600E0,1.219741344E0,-9.750752449E0,-4.797609448E-1
4.419946059E0,1.229312658E0,-9.765707016E0,-4.749752879E-1
4.424722569E0,1.238883972E0,-9.760921478E0,-4.648058116E-1
4.429499028E0,1.234098315E0,-9.770493507E0,-4.749752879E-1
4.434275538E0,1.234098315E0,-9.760921478E0,-4.845465720E-1
4.439051996E0,1.229312658E0,-9.789635658E0,-4.648058116E-1
4.443828507E0,1.229312658E0,-9.775279045E0,-4.845465720E-1
4.448604965E0,1.219741344E0,-9.770493507E0,-4.845465720E-1
4.453381475E0,1.219741344E0,-9.760921478E0,-4.797609448E-1
4.458157934E0,1.205384374E0,-9.751350403E0,-4.941178858E-1
4.462934392E0,1.200598717E0,-9.756135941E0,-4.941178858E-1
4.467710903E0,1.205384374E0,-9.756135941E0,-5.036891699E-1
4.472487361E0,1.200598717E0,-9.746564865E0,-4.989035130E-1
4.477263871E0,1.195813060E0,-9.746564865E0,-4.845465720E-1
4.482040330E0,1.191027522E0,-9.736394882E0,-4.797609448E-1
4.486816840E0,1.186840057E0,-9.731609344E0,-4.600201547E-1
4.491593298E0,1.191625714E0,-9.736394882E0,-4.456632137E-1
4.496369757E0,1.201196909E0,-9.736394882E0,-4.408775866E-1
4.501146267E0,1.191625714E0,-9.731609344E0,-4.456632137E-1
4.505922725E0,1.191625714E0,-9.726823807E0,-4.456632137E-1
4.510699236E0,1.177268744E0,-9.726823807E0,-4.456632137E-1
4.515475694E0,1.177268744E0,-9.722038269E0,-4.600201547E-1
4.520252205E0,1.172483087E0,-9.717252731E0,-4.456632137E-1
4.525028663E0,1.158126116E0,-9.722038269E0,-4.552344978E-1
4.529805173E0,1.129412293E0,-9.727422714E0,-4.546363056E-1
4.534581632E0,1.110269666E0,-9.732208252E0,-4.642075896E-1
4.539358142E0,1.086939692E0,-9.732208252E0,-4.642075896E-1
4.544134600E0,1.072582722E0,-9.732208252E0,-4.642075896E-1
4.548911059E0,1.072582722E0,-9.727422714E0,-4.791627228E-1
4.553687569E0,1.072582722E0,-9.741779327E0,-4.743770957E-1
4.558464028E0,1.077368379E0,-9.736993790E0,-4.791627228E-1
4.563240538E0,1.072582722E0,-9.736993790E0,-4.695914388E-1
4.568016996E0,1.091725349E0,-9.760921478E0,-4.594219327E-1
4.572793507E0,1.086939692E0,-9.760921478E0,-4.743770957E-1
4.577569965E0,1.082154036E0,-9.765707016E0,-4.695914388E-1
4.582346475E0,1.096511006E0,-9.756135941E0,-4.743770957E-1
4.587122934E0,1.100698471E0,-9.760921478E0,-4.839483798E-1
4.591899392E0,1.100698471E0,-9.760921478E0,-4.983053207E-1
4.596675903E0,1.110269666E0,-9.756135941E0,-5.030909777E-1
4.601452361E0,1.100698471E0,-9.751350403E0,-5.174478889E-1
4.606228871E0,1.100698471E0,-9.756135941E0,-5.030909777E-1
4.611005330E0,1.077368379E0,-9.765707016E0,-5.030909777E-1
4.615781840E0,1.082154036E0,-9.780064583E0,-5.078766346E-1
4.620558298E0,1.077368379E0,-9.780064583E0,-5.030909777E-1
4.625334809E0,1.081555843E0,-9.765707016E0,-5.078766346E-1
4.630111267E0,1.082154036E0,-9.775279045E0,-4.887340367E-1
4.634887778E0,1.082154036E0,-9.765707016E0,-4.695914388E-1
4.639664236E0,1.053440213E0,-9.765707016E0,-4.743770957E-1
4.644440694E0,1.053440213E0,-9.760921478E0,-4.594219327E-1
4.649217205E0,1.039083242E0,-9.770493507E0,-4.695914388E-1
4.653993663E0,1.043868899E0,-9.760921478E0,-4.695914388E-1
4.658770173E0,1.030110121E0,-9.765707016E0,-4.492524564E-1
4.663546632E0,1.015753269E0,-9.761520386E0,-4.444667995E-1
4.668323142E0,1.006181955E0,-9.775876999E0,-4.492524564E-1
4.673099600E0,9.918249846E-1,-9.780662537E0,-4.737788737E-1
4.677876111E0,9.822536707E-1,-9.790233612E0,-4.540380836E-1
4.682652569E0,9.774680734E-1,-9.795019150E0,-4.785645306E-1
4.687429028E0,9.678967595E-1,-9.790233612E0,-4.689932466E-1
4.692205538E0,9.631111026E-1,-9.785448074E0,-4.881358147E-1
4.696981996E0,9.583254457E-1,-9.785448074E0,-4.977070987E-1
4.701758507E0,9.535398483E-1,-9.785448074E0,-4.977070987E-1
4.706534965E0,9.487541914E-1,-9.780662537E0,-5.072783828E-1
4.711311475E0,9.774680734E-1,-9.790233612E0,-5.072783828E-1
4.716087934E0,9.726824164E-1,-9.795019150E0,-4.977070987E-1
4.720864444E0,9.918249846E-1,-9.775876999E0,-5.024927258E-1
4.725640903E0,1.006181955E0,-9.766305923E0,-4.881358147E-1
4.730417413E0,1.019940615E0,-9.760921478E0,-4.881358147E-1
4.735193871E0,1.029511929E0,-9.765707016E0,-4.833501875E-1
4.739970330E0,1.039083242E0,-9.765707016E0,-4.791627228E-1
4.744746840E0,1.058225870E0,-9.760921478E0,-4.743770957E-1
4.749523298E0,1.067797065E0,-9.751350403E0,-4.695914388E-1
4.754299809E0,1.072582722E0,-9.741779327E0,-4.498506486E-1
4.759076267E0,1.086939692E0,-9.736993790E0,-4.354937077E-1
4.763852778E0,1.086939692E0,-9.746564865E0,-4.402793646E-1
4.768629236E0,1.077368379E0,-9.751350403E0,-4.354937077E-1
4.773405746E0,1.082154036E0,-9.765707016E0,-4.402793646E-1
4.778182205E0,1.063011408E0,-9.756135941E0,-4.259224236E-1
4.782958715E0,1.058824062E0,-9.765707016E0,-4.205385745E-1
4.787735173E0,1.034895778E0,-9.766305923E0,-4.109672904E-1
4.792511632E0,1.044467092E0,-9.780662537E0,-4.348955154E-1
4.797288142E0,1.054038405E0,-9.765707016E0,-4.253242314E-1
4.802064600E0,1.044467092E0,-9.756135941E0,-4.396811724E-1
4.806841111E0,1.053440213E0,-9.751350403E0,-4.402793646E-1
4.811617569E0,1.072582722E0,-9.736993790E0,-4.354937077E-1
4.816394080E0,1.091725349E0,-9.732208252E0,-4.594219327E-1
4.821170538E0,1.119840980E0,-9.732208252E0,-4.546363056E-1
4.825947048E0,1.153340459E0,-9.741779327E0,-4.701896608E-1
4.830723507E0,1.186241865E0,-9.712467194E0,-4.701896608E-1
4.835499965E0,1.229312658E0,-9.707681656E0,-4.845465720E-1
4.840276475E0,1.262213945E0,-9.693324089E0,-4.899304509E-1
4.845052934E0,1.290927768E0,-9.693324089E0,-4.755735099E-1
4.849829444E0,1.333998680E0,-9.687940598E0,-4.803591371E-1
4.854605903E0,1.343569875E0,-9.683155060E0,-4.803591371E-1
4.859382413E0,1.357926846E0,-9.673583984E0,-4.654040039E-1
4.864158871E0,1.368096352E0,-9.673583984E0,-4.462614357E-1
4.868935382E0,1.362712502E0,-9.673583984E0,-4.707878530E-1
4.873711840E0,1.348355532E0,-9.678369522E0,-4.558327198E-1
4.878488298E0,1.324427366E0,-9.688538551E0,-4.462614357E-1
4.883264809E0,1.310070395E0,-9.693324089E0,-4.558327198E-1
4.888041267E0,1.267597795E0,-9.702896118E0,-4.558327198E-1
4.892817778E0,1.248455167E0,-9.736394882E0,-4.648058116E-1
4.897594236E0,1.224527001E0,-9.751350403E0,-4.648058116E-1
4.902370746E0,1.205384374E0,-9.770493507E0,-4.797609448E-1
4.907147205E0,1.182054400E0,-9.789635658E0,-4.893322289E-1
4.911923715E0,1.167697430E0,-9.799206734E0,-5.180460811E-1
4.916700173E0,1.148554921E0,-9.799206734E0,-5.132604837E-1
4.921476632E0,1.143769264E0,-9.808777809E0,-5.324030519E-1
4.926253142E0,1.148554921E0,-9.789635658E0,-5.419743061E-1
4.931029600E0,1.152742267E0,-9.760921478E0,-5.515456200E-1
4.935806111E0,1.167099237E0,-9.731609344E0,-5.706881881E-1
4.940582569E0,1.204786181E0,-9.707681656E0,-5.802595019E-1
4.945359080E0,1.238285661E0,-9.678967476E0,-5.808576941E-1
4.950135538E0,1.261615753E0,-9.654440880E0,-5.904290080E-1
4.954912048E0,1.304686546E0,-9.654440880E0,-5.808576941E-1
4.959688507E0,1.351944804E0,-9.644869804E0,-5.718846321E-1
4.964464965E0,1.400399446E0,-9.664012909E0,-5.910272002E-1
4.969241475E0,1.438086390E0,-9.692726135E0,-5.862415433E-1
4.974017934E0,1.476371527E0,-9.707083702E0,-5.772684813E-1
4.978794444E0,1.514656782E0,-9.740582466E0,-5.629115105E-1
4.983570903E0,1.519442320E0,-9.764511108E0,-5.676971674E-1
4.988347413E0,1.543370605E0,-9.774082184E0,-5.629115105E-1
4.993123871E0,1.538584948E0,-9.774082184E0,-5.629115105E-1
4.997900330E0,1.509871125E0,-9.745368004E0,-5.437689424E-1
5.002676840E0,1.472184181E0,-9.745368004E0,-5.144568682E-1
5.007453298E0,1.434497118E0,-9.731011391E0,-5.000999570E-1
5.012229809E0,1.348355532E0,-9.726823807E0,-4.755735099E-1
5.017006267E0,1.272383451E0,-9.726823807E0,-4.558327198E-1
5.021782778E0,1.186840057E0,-9.736993790E0,-4.456632137E-1
5.026559236E0,1.106082320E0,-9.741779327E0,-4.307080805E-1
5.031335746E0,1.015753269E0,-9.736993790E0,-4.348955154E-1
5.036112205E0,9.493523836E-1,-9.756733894E0,-4.444667995E-1
5.040888663E0,8.967102766E-1,-9.771091461E0,-4.683950245E-1
5.045665173E0,8.823533654E-1,-9.805189133E0,-5.018945336E-1
5.050441632E0,8.679963946E-1,-9.833903313E0,-5.401797295E-1
5.055218142E0,8.584251404E-1,-9.848259926E0,-5.784648657E-1
5.059994600E0,8.626125455E-1,-9.867402077E0,-6.167500615E-1
5.064771111E0,8.769695163E-1,-9.867402077E0,-6.317051649E-1
5.069547569E0,9.050851464E-1,-9.867402077E0,-6.556333899E-1
5.074324080E0,9.194421172E-1,-9.848259926E0,-6.604190469E-1
5.079100538E0,9.242277741E-1,-9.828518867E0,-6.747759581E-1
5.083876996E0,9.337990284E-1,-9.804591179E0,-6.747759581E-1
5.088653507E0,9.475577474E-1,-9.775876999E0,-6.556333899E-1
5.093429965E0,9.577272534E-1,-9.756733894E0,-6.269195080E-1
5.098206475E0,9.762716293E-1,-9.727422714E0,-6.083751321E-1
5.102982934E0,9.864411354E-1,-9.703494072E0,-5.599204898E-1
5.107759444E0,9.912267923E-1,-9.689137459E0,-5.264210105E-1
5.112535903E0,1.005583763E0,-9.679565430E0,-5.174478889E-1
5.117312413E0,1.010369420E0,-9.674779892E0,-4.929214716E-1
5.122088871E0,1.019940615E0,-9.684351921E0,-4.935196638E-1
5.126865330E0,1.019940615E0,-9.713065147E0,-4.833501875E-1
5.131641840E0,1.015154958E0,-9.727422714E0,-4.737788737E-1
5.136418298E0,1.010369420E0,-9.732208252E0,-4.833501875E-1
5.141194809E0,1.015753269E0,-9.761520386E0,-4.636093974E-1
5.145971267E0,1.010967612E0,-9.771091461E0,-4.833501875E-1
5.150747778E0,9.870393276E-1,-9.785448074E0,-4.881358147E-1
5.155524236E0,9.631111026E-1,-9.795019150E0,-5.072783828E-1
5.160300746E0,9.296116233E-1,-9.795019150E0,-5.168496966E-1
5.165077205E0,9.200403094E-1,-9.785448074E0,-5.216353536E-1
5.169853663E0,8.865407705E-1,-9.795019150E0,-5.353940725E-1
5.174630173E0,8.440681696E-1,-9.785448074E0,-5.497509837E-1
5.179406632E0,8.344969153E-1,-9.800403595E0,-5.449653864E-1
5.184183142E0,8.297112584E-1,-9.790832520E0,-5.449653864E-1
5.188959600E0,8.105686903E-1,-9.775876999E0,-5.401797295E-1
5.193736111E0,8.392825127E-1,-9.771091461E0,-5.401797295E-1
5.198512569E0,8.536394835E-1,-9.761520386E0,-5.353940725E-1
5.203289028E0,9.008977413E-1,-9.747162819E0,-5.312066078E-1
5.208065538E0,9.481559992E-1,-9.722636223E0,-5.407779217E-1
5.212841996E0,1.009771109E0,-9.717850685E0,-5.557330847E-1
5.217618507E0,1.057627559E0,-9.717850685E0,-5.557330847E-1
5.222394965E0,1.114457130E0,-9.707681656E0,-5.659025311E-1
5.227171475E0,1.171286702E0,-9.702896118E0,-5.802595019E-1
5.231947934E0,1.228714466E0,-9.698110580E0,-5.808576941E-1
5.236724444E0,1.271187067E0,-9.702896118E0,-5.760720372E-1
5.241500903E0,1.314257860E0,-9.687940598E0,-5.665007830E-1
5.246277361E0,1.333400369E0,-9.707083702E0,-5.569294691E-1
5.251053871E0,1.338186026E0,-9.707083702E0,-5.377869010E-1
5.255830330E0,1.352542996E0,-9.707083702E0,-5.288137794E-1
5.260606840E0,1.347757339E0,-9.697511673E0,-5.090730190E-1
5.265383298E0,1.343569875E0,-9.722038269E0,-4.947160780E-1
5.270159809E0,1.333998680E0,-9.736394882E0,-4.755735099E-1
5.274936267E0,1.314856052E0,-9.736394882E0,-4.707878530E-1
5.279712778E0,1.296311617E0,-9.750752449E0,-4.558327198E-1
5.284489236E0,1.281954765E0,-9.760323524E0,-4.606183469E-1
5.289265694E0,1.272383451E0,-9.769894600E0,-4.504488707E-1
5.294042205E0,1.239482164E0,-9.775279045E0,-4.360919297E-1
5.298818663E0,1.215553880E0,-9.760921478E0,-4.265206456E-1
5.303595173E0,1.191625714E0,-9.770493507E0,-4.073780477E-1
5.308371632E0,1.196411371E0,-9.756135941E0,-4.169493318E-1
5.313148142E0,1.196411371E0,-9.760921478E0,-4.025924206E-1
5.317924600E0,1.205982566E0,-9.751350403E0,-4.217349887E-1
5.322701059E0,1.225125194E0,-9.741181374E0,-4.217349887E-1
5.327477569E0,1.258026481E0,-9.736394882E0,-4.360919297E-1
5.332254028E0,1.310070395E0,-9.736394882E0,-4.558327198E-1
5.337030538E0,1.333998680E0,-9.726823807E0,-4.851447940E-1
5.341806996E0,1.348355532E0,-9.726823807E0,-4.707878530E-1
5.346583507E0,1.396211982E0,-9.731609344E0,-4.761717021E-1
5.351359965E0,1.420140266E0,-9.735796928E0,-4.660021961E-1
5.356136423E0,1.420140266E0,-9.721440315E0,-4.905286431E-1
5.360912934E0,1.429711580E0,-9.726225853E0,-5.048855543E-1
5.365689392E0,1.396211982E0,-9.716654778E0,-5.048855543E-1
5.370465903E0,1.386640668E0,-9.707083702E0,-5.144568682E-1
5.375242361E0,1.372283816E0,-9.697511673E0,-5.192425251E-1
5.380018871E0,1.338186026E0,-9.702297211E0,-5.282155871E-1
5.384795330E0,1.295713425E0,-9.712467194E0,-5.186443329E-1
5.389571840E0,1.276570916E0,-9.707681656E0,-5.138586760E-1
5.394348298E0,1.266999602E0,-9.722038269E0,-5.042873621E-1
5.399124757E0,1.262213945E0,-9.722038269E0,-4.947160780E-1
5.403901267E0,1.243669510E0,-9.736394882E0,-4.797609448E-1
5.408677725E0,1.234098315E0,-9.726823807E0,-4.845465720E-1
5.413454236E0,1.243669510E0,-9.741181374E0,-4.701896608E-1
5.418230694E0,1.229312658E0,-9.745966911E0,-4.648058116E-1
5.423007205E0,1.243669510E0,-9.745966911E0,-4.552344978E-1
5.427783663E0,1.267597795E0,-9.741181374E0,-4.552344978E-1
5.432560121E0,1.286740422E0,-9.741181374E0,-4.462614357E-1
5.437336632E0,1.291526079E0,-9.736394882E0,-4.319044948E-1
5.442113090E0,1.320239902E0,-9.745966911E0,-4.319044948E-1
5.446889600E0,1.329213023E0,-9.731609344E0,-4.366901219E-1
5.451666059E0,1.343569875E0,-9.726823807E0,-4.462614357E-1
5.456442569E0,1.368096352E0,-9.707083702E0,-4.462614357E-1
5.461219028E0,1.372882009E0,-9.702297211E0,-4.366901219E-1
5.465995538E0,1.381855130E0,-9.692726135E0,-4.510470629E-1
5.470771996E0,1.363310695E0,-9.683155060E0,-4.414757788E-1
5.475548455E0,1.353739381E0,-9.683155060E0,-4.462614357E-1
5.480324965E0,1.324427366E0,-9.692726135E0,-4.510470629E-1
5.485101423E0,1.305284739E0,-9.702297211E0,-4.414757788E-1
5.489877934E0,1.300499082E0,-9.726823807E0,-4.462614357E-1
5.494654392E0,1.272383451E0,-9.741181374E0,-4.456632137E-1
5.499430850E0,1.253240824E0,-9.741181374E0,-4.552344978E-1
5.504207361E0,1.224527001E0,-9.760323524E0,-4.552344978E-1
5.508983819E0,1.210768223E0,-9.760323524E0,-4.552344978E-1
5.513760330E0,1.196411371E0,-9.765707016E0,-4.552344978E-1
5.518536788E0,1.191625714E0,-9.760921478E0,-4.749752879E-1
5.523313298E0,1.167697430E0,-9.765707016E0,-4.701896608E-1
5.528089757E0,1.153340459E0,-9.751350403E0,-4.695914388E-1
5.532866267E0,1.129412293E0,-9.751350403E0,-4.594219327E-1
5.537642725E0,1.115055323E0,-9.732208252E0,-4.642075896E-1
5.542419184E0,1.115653515E0,-9.746564865E0,-4.450650215E-1
5.547195694E0,1.101296663E0,-9.765707016E0,-4.307080805E-1
5.551972153E0,1.091725349E0,-9.780064583E0,-4.307080805E-1
5.556748663E0,1.091725349E0,-9.780064583E0,-4.211367965E-1
5.561525121E0,1.082154036E0,-9.789635658E0,-4.307080805E-1
5.566301580E0,1.096511006E0,-9.794421196E0,-4.307080805E-1
5.571078090E0,1.096511006E0,-9.799206734E0,-4.259224236E-1
5.575854548E0,1.096511006E0,-9.784850121E0,-4.402793646E-1
5.580631059E0,1.091725349E0,-9.789635658E0,-4.498506486E-1
5.585407517E0,1.077368379E0,-9.770493507E0,-4.642075896E-1
5.590184028E0,1.063011408E0,-9.736993790E0,-4.695914388E-1
5.594960486E0,1.053440213E0,-9.736993790E0,-4.791627228E-1
5.599736996E0,1.048654556E0,-9.741779327E0,-4.935196638E-1
5.604513455E0,1.039083242E0,-9.741779327E0,-4.887340367E-1
5.609289913E0,1.029511929E0,-9.765707016E0,-4.881358147E-1
5.614066423E0,9.966106415E-1,-9.775876999E0,-4.785645306E-1
5.618842882E0,9.678967595E-1,-9.790233612E0,-4.785645306E-1
5.623619392E0,9.535398483E-1,-9.799804688E0,-4.833501875E-1
5.628395850E0,9.254241586E-1,-9.804591179E0,-4.731806815E-1
5.633172361E0,8.967102766E-1,-9.799804688E0,-4.683950245E-1
5.637948819E0,8.536394835E-1,-9.780662537E0,-4.731806815E-1
5.642725278E0,8.303094506E-1,-9.780662537E0,-4.630111754E-1
5.647501788E0,7.968099117E-1,-9.800403595E0,-4.773681164E-1
5.652278246E0,7.543373108E-1,-9.795618057E0,-4.624129832E-1
5.657054757E0,5.353940725E-1,-9.670592308E0,-4.085744619E-1
5.661831215E0,2.871387303E-1,-9.546165466E0,-4.600201547E-1
5.666607725E0,9.254241586E-1,-9.867402077E0,-5.024927258E-1
5.671384184E0,1.110867858E0,-1.001635551E1,-5.126622319E-1
5.676160642E0,9.397810698E-1,-9.954142570E0,-4.630111754E-1
5.680937153E0,7.686942816E-1,-9.868000984E0,-4.049852192E-1
5.685713611E0,7.926225066E-1,-9.805189133E0,-3.571287692E-1
5.690490121E0,8.021938205E-1,-9.780662537E0,-3.906283081E-1
5.695266580E0,8.063812256E-1,-9.775876999E0,-4.432703853E-1
5.700043090E0,8.392825127E-1,-9.756733894E0,-4.683950245E-1
5.704819548E0,8.584251404E-1,-9.723235130E0,-4.779663086E-1
5.709596059E0,8.913264275E-1,-9.703494072E0,-4.875376225E-1
5.714372517E0,8.865407705E-1,-9.713065147E0,-4.971089065E-1
5.719148975E0,8.865407705E-1,-9.693922997E0,-5.018945336E-1
5.723925486E0,9.152546525E-1,-9.684351921E0,-4.929214716E-1
5.728701944E0,9.433703423E-1,-9.684351921E0,-5.168496966E-1
5.733478455E0,9.583254457E-1,-9.713065147E0,-5.024927258E-1
5.738254913E0,9.774680734E-1,-9.756135941E0,-4.977070987E-1
5.743031423E0,9.726824164E-1,-9.775876999E0,-5.072783828E-1
5.747807882E0,9.870393276E-1,-9.809376717E0,-5.024927258E-1
5.752584340E0,1.010967612E0,-9.814162254E0,-4.977070987E-1
5.757360850E0,1.029511929E0,-9.823733330E0,-5.024927258E-1
5.762137309E0,1.034297585E0,-9.828518867E0,-5.126622319E-1
5.766913819E0,1.058225870E0,-9.828518867E0,-5.078766346E-1
5.771690278E0,1.072582722E0,-9.838089943E0,-5.126622319E-1
5.776466788E0,1.082154036E0,-9.828518867E0,-5.126622319E-1
5.781243246E0,1.110867858E0,-9.828518867E0,-5.030909777E-1
5.786019705E0,1.119840980E0,-9.828518867E0,-4.983053207E-1
5.790796215E0,1.124626637E0,-9.818349838E0,-4.983053207E-1
5.795572673E0,1.138983607E0,-9.818349838E0,-4.839483798E-1
5.800349184E0,1.158126116E0,-9.780064583E0,-4.797609448E-1
5.805125642E0,1.167697430E0,-9.765707016E0,-4.648058116E-1
5.809902153E0,1.177268744E0,-9.741779327E0,-4.648058116E-1
5.814678611E0,1.182054400E0,-9.722038269E0,-4.701896608E-1
5.819455069E0,1.167099237E0,-9.707681656E0,-4.845465720E-1
5.824231580E0,1.162313581E0,-9.702896118E0,-4.941178858E-1
5.829008038E0,1.162313581E0,-9.693324089E0,-4.893322289E-1
5.833784548E0,1.167099237E0,-9.702896118E0,-4.989035130E-1
5.838561007E0,1.171884894E0,-9.717252731E0,-4.893322289E-1
5.843337517E0,1.162911773E0,-9.722038269E0,-4.845465720E-1
5.848113975E0,1.181456208E0,-9.741181374E0,-4.845465720E-1
5.852890434E0,1.210170031E0,-9.745966911E0,-4.749752879E-1
5.857666944E0,1.214955688E0,-9.745966911E0,-4.845465720E-1
5.862443403E0,1.238883972E0,-9.750752449E0,-4.797609448E-1
5.867219913E0,1.219741344E0,-9.745966911E0,-4.845465720E-1
5.871996371E0,1.234098315E0,-9.755537987E0,-4.989035130E-1
5.876772882E0,1.224527001E0,-9.745966911E0,-5.036891699E-1
5.881549340E0,1.214955688E0,-9.736394882E0,-4.989035130E-1
5.886325798E0,1.200598717E0,-9.741181374E0,-4.893322289E-1
5.891102309E0,1.171884894E0,-9.731609344E0,-4.941178858E-1
5.895878767E0,1.176670551E0,-9.722038269E0,-4.941178858E-1
5.900655278E0,1.143769264E0,-9.702896118E0,-5.036891699E-1
5.905431736E0,1.110269666E0,-9.707681656E0,-4.887340367E-1
5.910208246E0,1.086341500E0,-9.713065147E0,-4.935196638E-1
5.914984705E0,1.062413216E0,-9.708279610E0,-5.030909777E-1
5.919761163E0,1.024726272E0,-9.708279610E0,-5.030909777E-1
5.924537673E0,9.960124493E-1,-9.713065147E0,-5.072783828E-1
5.929314132E0,9.672985673E-1,-9.703494072E0,-4.977070987E-1
5.934090642E0,9.535398483E-1,-9.713065147E0,-4.881358147E-1
5.938867100E0,9.391828775E-1,-9.727422714E0,-4.977070987E-1
5.943643559E0,9.152546525E-1,-9.737591743E0,-4.977070987E-1
5.948420069E0,9.200403094E-1,-9.747162819E0,-5.168496966E-1
5.953196528E0,9.200403094E-1,-9.747162819E0,-5.120640397E-1
5.957973038E0,9.248259664E-1,-9.756733894E0,-5.120640397E-1
5.962749496E0,9.296116233E-1,-9.761520386E0,-5.264210105E-1
5.967526007E0,9.487541914E-1,-9.766305923E0,-5.359922647E-1
5.972302465E0,9.487541914E-1,-9.766305923E0,-5.359922647E-1
5.977078975E0,9.625129104E-1,-9.766305923E0,-5.407779217E-1
5.981855434E0,9.720842242E-1,-9.780662537E0,-5.407779217E-1
5.986631892E0,9.816554785E-1,-9.766305923E0,-5.359922647E-1
5.991408403E0,9.768698215E-1,-9.771091461E0,-5.312066078E-1
5.996184861E0,9.960124493E-1,-9.771091461E0,-5.168496966E-1
6.000961371E0,1.015154958E0,-9.770493507E0,-5.318048596E-1
6.005737830E0,1.019940615E0,-9.775279045E0,-5.120640397E-1
6.010514288E0,1.024726272E0,-9.770493507E0,-5.174478889E-1
6.015290798E0,1.019940615E0,-9.775876999E0,-5.024927258E-1
6.020067257E0,1.019940615E0,-9.785448074E0,-5.120640397E-1
6.024843767E0,1.034297585E0,-9.780064583E0,-5.078766346E-1
6.029620225E0,1.039083242E0,-9.809376717E0,-4.839483798E-1
6.034396736E0,1.039083242E0,-9.790233612E0,-4.791627228E-1
6.039173194E0,1.048654556E0,-9.799804688E0,-4.743770957E-1
6.043949705E0,1.043868899E0,-9.799804688E0,-4.695914388E-1
6.048726163E0,1.034895778E0,-9.795019150E0,-4.636093974E-1
6.053502621E0,1.043868899E0,-9.814162254E0,-4.743770957E-1
6.058279132E0,1.039681435E0,-9.828518867E0,-4.833501875E-1
6.063055590E0,1.025324464E0,-9.833304405E0,-4.689932466E-1
6.067832100E0,1.020538807E0,-9.818947792E0,-4.636093974E-1
6.072608559E0,1.015753269E0,-9.814162254E0,-4.689932466E-1
6.077385017E0,1.020538807E0,-9.823733330E0,-4.636093974E-1
6.082161528E0,1.030110121E0,-9.804591179E0,-4.737788737E-1
6.086937986E0,1.030110121E0,-9.795019150E0,-4.636093974E-1
6.091714496E0,1.034895778E0,-9.804591179E0,-4.540380836E-1
6.096490955E0,1.058824062E0,-9.799804688E0,-4.450650215E-1
6.101267413E0,1.077368379E0,-9.784850121E0,-4.354937077E-1
6.106043923E0,1.106082320E0,-9.770493507E0,-4.307080805E-1
6.110820382E0,1.110867858E0,-9.765707016E0,-4.115654826E-1
6.115596892E0,1.115653515E0,-9.741779327E0,-4.307080805E-1
6.120373350E0,1.139581800E0,-9.736993790E0,-4.163511395E-1
6.125149861E0,1.138983607E0,-9.722636223E0,-4.259224236E-1
6.129926319E0,1.153340459E0,-9.712467194E0,-4.259224236E-1
6.134702830E0,1.162911773E0,-9.693324089E0,-4.313062727E-1
6.139479288E0,1.153340459E0,-9.664610863E0,-4.307080805E-1
6.144255746E0,1.153340459E0,-9.655039787E0,-4.354937077E-1
6.149032257E0,1.148554921E0,-9.645467758E0,-4.450650215E-1
6.153808715E0,1.143769264E0,-9.655039787E0,-4.354937077E-1
6.158585225E0,1.138983607E0,-9.678967476E0,-4.594219327E-1
6.163361684E0,1.148554921E0,-9.698110580E0,-4.701896608E-1
6.168138142E0,1.124626637E0,-9.722636223E0,-4.642075896E-1
6.172914653E0,1.134197950E0,-9.751350403E0,-4.642075896E-1
6.177691111E0,1.129412293E0,-9.780064583E0,-4.695914388E-1
6.182467621E0,1.138983607E0,-9.794421196E0,-4.743770957E-1
6.187244080E0,1.139581800E0,-9.833304405E0,-4.743770957E-1
6.192020590E0,1.144367456E0,-9.833304405E0,-4.695914388E-1
6.196797048E0,1.130010486E0,-9.857233047E0,-4.695914388E-1
6.201573507E0,1.125224829E0,-9.852447510E0,-4.743770957E-1
6.206350017E0,1.139581800E0,-9.838089943E0,-4.594219327E-1
6.211126475E0,1.110867858E0,-9.818947792E0,-4.743770957E-1
6.215902986E0,1.101296663E0,-9.809376717E0,-4.743770957E-1
6.220679444E0,1.106082320E0,-9.780064583E0,-4.791627228E-1
6.225455903E0,1.119840980E0,-9.760921478E0,-4.887340367E-1
6.230232413E0,1.134197950E0,-9.736993790E0,-4.935196638E-1
6.235008871E0,1.158126116E0,-9.717252731E0,-4.941178858E-1
6.239785382E0,1.162313581E0,-9.693324089E0,-5.132604837E-1
6.244561840E0,1.195813060E0,-9.688538551E0,-4.989035130E-1
6.249338350E0,1.223928809E0,-9.678967476E0,-5.324030519E-1
6.254114809E0,1.238285661E0,-9.698110580E0,-5.330012441E-1
6.258891267E0,1.266999602E0,-9.707681656E0,-5.377869010E-1
6.263667778E0,1.276570916E0,-9.726823807E0,-5.377869010E-1
6.268444236E0,1.271785259E0,-9.755537987E0,-5.234299302E-1
6.273220746E0,1.266999602E0,-9.769894600E0,-5.186443329E-1
6.277997205E0,1.253240824E0,-9.784850121E0,-5.036891699E-1
6.282773715E0,1.234098315E0,-9.799206734E0,-4.893322289E-1
6.287550173E0,1.219741344E0,-9.799206734E0,-4.893322289E-1
6.292326632E0,1.182054400E0,-9.803992271E0,-4.797609448E-1
6.297103142E0,1.138983607E0,-9.794421196E0,-4.743770957E-1
6.301879600E0,1.125224829E0,-9.784850121E0,-4.642075896E-1
6.306656111E0,1.106082320E0,-9.780064583E0,-4.594219327E-1
6.311432569E0,1.067797065E0,-9.765707016E0,-4.498506486E-1
6.316209028E0,1.067797065E0,-9.756135941E0,-4.498506486E-1
6.320985538E0,1.063011408E0,-9.741779327E0,-4.743770957E-1
6.325761996E0,1.058225870E0,-9.736993790E0,-4.935196638E-1
6.330538507E0,1.076770186E0,-9.708279610E0,-5.126622319E-1
6.335314965E0,1.110269666E0,-9.702896118E0,-5.318048596E-1
6.340091475E0,1.114457130E0,-9.683753014E0,-5.318048596E-1
6.344867934E0,1.119242787E0,-9.674181938E0,-5.659025311E-1
6.349644392E0,1.147358418E0,-9.659825325E0,-5.802595019E-1
6.354420903E0,1.171286702E0,-9.664610863E0,-5.754738450E-1
6.359197361E0,1.166501045E0,-9.674181938E0,-5.994020700E-1
6.363973871E0,1.166501045E0,-9.674181938E0,-5.946164131E-1
6.368750330E0,1.171286702E0,-9.669396400E0,-5.994020700E-1
6.373526840E0,1.176072359E0,-9.674181938E0,-5.946164131E-1
6.378303298E0,1.166501045E0,-9.683753014E0,-5.946164131E-1
6.383079757E0,1.171286702E0,-9.702896118E0,-5.946164131E-1
6.387856267E0,1.161715388E0,-9.726823807E0,-6.041877270E-1
6.392632725E0,1.152742267E0,-9.741779327E0,-5.850451589E-1
6.397409236E0,1.143171072E0,-9.765707016E0,-5.802595019E-1
6.402185694E0,1.138385415E0,-9.770493507E0,-5.515456200E-1
6.406962153E0,1.115055323E0,-9.799206734E0,-5.318048596E-1
6.411738663E0,1.100698471E0,-9.803992271E0,-5.078766346E-1
6.416515121E0,1.105484009E0,-9.803992271E0,-5.078766346E-1
6.421291632E0,1.101296663E0,-9.799206734E0,-5.030909777E-1
6.426068090E0,1.096511006E0,-9.789635658E0,-5.030909777E-1
6.430844600E0,1.124626637E0,-9.794421196E0,-4.983053207E-1
6.435621059E0,1.124626637E0,-9.794421196E0,-4.935196638E-1
6.440397517E0,1.148554921E0,-9.799206734E0,-5.084748268E-1
6.445174028E0,1.162911773E0,-9.784850121E0,-5.132604837E-1
6.449950486E0,1.186241865E0,-9.770493507E0,-5.084748268E-1
6.454726996E0,1.191027522E0,-9.760921478E0,-5.180460811E-1
6.459503455E0,1.219741344E0,-9.750752449E0,-5.132604837E-1
6.464279913E0,1.238285661E0,-9.755537987E0,-5.324030519E-1
6.469056423E0,1.252642632E0,-9.741181374E0,-5.330012441E-1
6.473832882E0,1.286142230E0,-9.722038269E0,-5.282155871E-1
6.478609392E0,1.304686546E0,-9.717252731E0,-5.425725579E-1
6.483385850E0,1.295713425E0,-9.722038269E0,-5.425725579E-1
6.488162361E0,1.290927768E0,-9.707681656E0,-5.425725579E-1
6.492938819E0,1.290927768E0,-9.707681656E0,-5.377869010E-1
6.497715278E0,1.276570916E0,-9.702896118E0,-5.425725579E-1
6.502491788E0,1.266999602E0,-9.707681656E0,-5.282155871E-1
6.507268246E0,1.262213945E0,-9.712467194E0,-5.186443329E-1
6.512044757E0,1.243071318E0,-9.707681656E0,-5.036891699E-1
6.516821215E0,1.219741344E0,-9.707681656E0,-4.941178858E-1
6.521597725E0,1.214955688E0,-9.707681656E0,-4.941178858E-1
6.526374184E0,1.214955688E0,-9.712467194E0,-4.749752879E-1
6.531150642E0,1.195813060E0,-9.736394882E0,-4.749752879E-1
6.535927153E0,1.195813060E0,-9.736394882E0,-4.797609448E-1
6.540703611E0,1.172483087E0,-9.756135941E0,-4.648058116E-1
6.545480069E0,1.162911773E0,-9.751350403E0,-4.701896608E-1
6.550256580E0,1.143769264E0,-9.751350403E0,-4.546363056E-1
6.555033038E0,1.138983607E0,-9.760921478E0,-4.642075896E-1
6.559809548E0,1.134197950E0,-9.765707016E0,-4.642075896E-1
6.564586007E0,1.115055323E0,-9.760921478E0,-4.695914388E-1
6.569362517E0,1.115055323E0,-9.770493507E0,-4.839483798E-1
6.574138975E0,1.110269666E0,-9.775279045E0,-5.030909777E-1
6.578915434E0,1.100698471E0,-9.765707016E0,-4.983053207E-1
6.583691944E0,1.110269666E0,-9.741779327E0,-5.126622319E-1
6.588468403E0,1.110269666E0,-9.746564865E0,-5.270192027E-1
6.593244913E0,1.119840980E0,-9.751350403E0,-5.318048596E-1
6.598021371E0,1.124626637E0,-9.732208252E0,-5.371887088E-1
6.602797830E0,1.138385415E0,-9.736993790E0,-5.419743061E-1
6.607574340E0,1.124028444E0,-9.732208252E0,-5.419743061E-1
6.612350798E0,1.133599758E0,-9.732208252E0,-5.419743061E-1
6.617127309E0,1.138983607E0,-9.746564865E0,-5.324030519E-1
6.621903767E0,1.143171072E0,-9.741779327E0,-5.324030519E-1
6.626680278E0,1.138983607E0,-9.751350403E0,-5.276173949E-1
6.631456736E0,1.134197950E0,-9.760921478E0,-5.180460811E-1
6.636233194E0,1.134197950E0,-9.775279045E0,-5.078766346E-1
6.641009705E0,1.115055323E0,-9.770493507E0,-5.030909777E-1
6.645786163E0,1.115055323E0,-9.794421196E0,-5.126622319E-1
6.650562673E0,1.101296663E0,-9.789635658E0,-4.983053207E-1
6.655339132E0,1.086939692E0,-9.794421196E0,-4.887340367E-1
6.660115590E0,1.072582722E0,-9.804591179E0,-4.935196638E-1
6.664892100E0,1.072582722E0,-9.784850121E0,-4.887340367E-1
6.669668559E0,1.067797065E0,-9.765707016E0,-4.695914388E-1
6.674445069E0,1.063011408E0,-9.760921478E0,-4.695914388E-1
6.679221528E0,1.067797065E0,-9.746564865E0,-4.642075896E-1
6.683997986E0,1.067797065E0,-9.717850685E0,-4.695914388E-1
6.688774496E0,1.063011408E0,-9.722636223E0,-4.642075896E-1
6.693550955E0,1.095912814E0,-9.713065147E0,-4.791627228E-1
6.698327465E0,1.110269666E0,-9.717850685E0,-4.791627228E-1
6.703103923E0,1.124626637E0,-9.702896118E0,-4.743770957E-1
6.707880434E0,1.134197950E0,-9.693324089E0,-4.989035130E-1
6.712656892E0,1.167099237E0,-9.702896118E0,-5.180460811E-1
6.717433350E0,1.191027522E0,-9.702896118E0,-5.276173949E-1
6.722209861E0,1.210170031E0,-9.702896118E0,-5.324030519E-1
6.726986319E0,1.223928809E0,-9.702896118E0,-5.419743061E-1
6.731762830E0,1.238285661E0,-9.707681656E0,-5.425725579E-1
6.736539288E0,1.243071318E0,-9.712467194E0,-5.425725579E-1
6.741315746E0,1.271785259E0,-9.722038269E0,-5.425725579E-1
6.746092257E0,1.281356573E0,-9.712467194E0,-5.473581553E-1
6.750868715E0,1.290927768E0,-9.717252731E0,-5.473581553E-1
6.755645225E0,1.309472203E0,-9.731609344E0,-5.521438122E-1
6.760421684E0,1.314257860E0,-9.717252731E0,-5.521438122E-1
6.765198194E0,1.314257860E0,-9.712467194E0,-5.521438122E-1
6.769974653E0,1.314257860E0,-9.702896118E0,-5.569294691E-1
6.774751111E0,1.309472203E0,-9.707681656E0,-5.425725579E-1
6.779527621E0,1.300499082E0,-9.712467194E0,-5.425725579E-1
6.784304080E0,1.290927768E0,-9.731609344E0,-5.234299302E-1
6.789080590E0,1.290927768E0,-9.726823807E0,-5.234299302E-1
6.793857048E0,1.286142230E0,-9.722038269E0,-5.282155871E-1
6.798633507E0,1.281356573E0,-9.731609344E0,-5.090730190E-1
6.803410017E0,1.262213945E0,-9.736394882E0,-5.090730190E-1
6.808186475E0,1.286142230E0,-9.741181374E0,-5.138586760E-1
6.812962986E0,1.286142230E0,-9.760323524E0,-5.282155871E-1
6.817739444E0,1.281356573E0,-9.765109062E0,-5.138586760E-1
6.822515903E0,1.276570916E0,-9.755537987E0,-5.186443329E-1
6.827292413E0,1.258026481E0,-9.760323524E0,-5.042873621E-1
6.832068871E0,1.248455167E0,-9.760323524E0,-4.845465720E-1
6.836845382E0,1.253240824E0,-9.745966911E0,-4.845465720E-1
6.841621840E0,1.224527001E0,-9.741181374E0,-4.749752879E-1
6.846398350E0,1.224527001E0,-9.731609344E0,-4.600201547E-1
6.851174809E0,1.195813060E0,-9.726823807E0,-4.701896608E-1
6.855951267E0,1.182054400E0,-9.722038269E0,-4.701896608E-1
6.860727778E0,1.177268744E0,-9.736394882E0,-4.701896608E-1
6.865504236E0,1.162911773E0,-9.712467194E0,-4.749752879E-1
6.870280694E0,1.134197950E0,-9.726823807E0,-4.791627228E-1
6.875057205E0,1.124626637E0,-9.712467194E0,-4.791627228E-1
6.879833663E0,1.110269666E0,-9.722038269E0,-4.839483798E-1
6.884610173E0,1.100698471E0,-9.732208252E0,-5.030909777E-1
6.889386632E0,1.091127157E0,-9.727422714E0,-5.030909777E-1
6.894163142E0,1.081555843E0,-9.732208252E0,-5.030909777E-1
6.898939600E0,1.063011408E0,-9.736993790E0,-4.839483798E-1
6.903716059E0,1.048654556E0,-9.727422714E0,-4.935196638E-1
6.908492569E0,1.029511929E0,-9.732208252E0,-4.785645306E-1
6.913269028E0,1.015154958E0,-9.722636223E0,-4.785645306E-1
6.918045538E0,1.010369420E0,-9.727422714E0,-4.785645306E-1
6.922821996E0,1.005583763E0,-9.732208252E0,-4.977070987E-1
6.927598455E0,1.010369420E0,-9.746564865E0,-4.881358147E-1
6.932374965E0,9.960124493E-1,-9.741779327E0,-4.881358147E-1
6.937151423E0,9.960124493E-1,-9.736993790E0,-4.881358147E-1
6.941927934E0,9.870393276E-1,-9.741779327E0,-4.881358147E-1
6.946704392E0,9.822536707E-1,-9.741779327E0,-4.929214716E-1
6.951480850E0,9.726824164E-1,-9.746564865E0,-4.833501875E-1
6.956257361E0,9.864411354E-1,-9.732208252E0,-5.024927258E-1
6.961033819E0,9.864411354E-1,-9.746564865E0,-4.977070987E-1
6.965810330E0,9.912267923E-1,-9.746564865E0,-5.120640397E-1
6.970586788E0,1.005583763E0,-9.751350403E0,-5.072783828E-1
6.975363298E0,1.019940615E0,-9.760921478E0,-5.120640397E-1
6.980139757E0,1.029511929E0,-9.765707016E0,-5.270192027E-1
6.984916215E0,1.048654556E0,-9.775279045E0,-5.270192027E-1
6.989692725E0,1.057627559E0,-9.789635658E0,-5.413761139E-1
6.994469184E0,1.063011408E0,-9.799206734E0,-5.365904570E-1
6.999245694E0,1.086341500E0,-9.823733330E0,-5.413761139E-1
7.004022153E0,1.105484009E0,-9.823135376E0,-5.413761139E-1
7.008798611E0,1.115055323E0,-9.827920914E0,-5.557330847E-1
7.013575121E0,1.115055323E0,-9.823135376E0,-5.365904570E-1
7.018351580E0,1.129412293E0,-9.813564301E0,-5.461617708E-1
7.023128090E0,1.115055323E0,-9.808777809E0,-5.461617708E-1
7.027904548E0,1.124626637E0,-9.799206734E0,-5.413761139E-1
7.032681007E0,1.119840980E0,-9.794421196E0,-5.365904570E-1
7.037457517E0,1.119840980E0,-9.794421196E0,-5.365904570E-1
7.042233975E0,1.134197950E0,-9.789635658E0,-5.222335458E-1
7.047010486E0,1.129412293E0,-9.784850121E0,-5.126622319E-1
7.051786944E0,1.134197950E0,-9.765707016E0,-4.887340367E-1
7.056563455E0,1.129412293E0,-9.760921478E0,-4.887340367E-1
7.061339913E0,1.148554921E0,-9.751350403E0,-4.839483798E-1
7.066116371E0,1.162313581E0,-9.726823807E0,-4.941178858E-1
7.070892882E0,1.186241865E0,-9.741181374E0,-4.797609448E-1
7.075669340E0,1.195813060E0,-9.726823807E0,-4.648058116E-1
7.080445798E0,1.214955688E0,-9.717252731E0,-4.701896608E-1
7.085222309E0,1.219741344E0,-9.707681656E0,-4.600201547E-1
7.089998767E0,1.248455167E0,-9.707681656E0,-4.797609448E-1
7.094775278E0,1.258026481E0,-9.707681656E0,-4.749752879E-1
7.099551736E0,1.266999602E0,-9.687940598E0,-4.707878530E-1
7.104328246E0,1.266999602E0,-9.668798447E0,-4.707878530E-1
7.109104705E0,1.271785259E0,-9.673583984E0,-4.558327198E-1
7.113881163E0,1.271785259E0,-9.668798447E0,-4.606183469E-1
7.118657673E0,1.271785259E0,-9.668798447E0,-4.558327198E-1
7.123434132E0,1.266999602E0,-9.683155060E0,-4.606183469E-1
7.128210642E0,1.258026481E0,-9.673583984E0,-4.504488707E-1
7.132987100E0,1.267597795E0,-9.687940598E0,-4.360919297E-1
7.137763559E0,1.262812138E0,-9.692726135E0,-4.456632137E-1
7.142540069E0,1.262812138E0,-9.698110580E0,-4.360919297E-1
7.147316528E0,1.258026481E0,-9.707681656E0,-4.456632137E-1
7.152093038E0,1.258026481E0,-9.712467194E0,-4.600201547E-1
7.156869496E0,1.258026481E0,-9.702896118E0,-4.648058116E-1
7.161645955E0,1.258026481E0,-9.693324089E0,-4.648058116E-1
7.166422465E0,1.252642632E0,-9.698110580E0,-4.797609448E-1
7.171198923E0,1.266999602E0,-9.702896118E0,-4.803591371E-1
7.175975434E0,1.257428288E0,-9.702896118E0,-4.845465720E-1
7.180751892E0,1.247856975E0,-9.712467194E0,-5.084748268E-1
7.185528350E0,1.276570916E0,-9.712467194E0,-4.995017350E-1
7.190304861E0,1.276570916E0,-9.722038269E0,-5.138586760E-1
7.195081319E0,1.266999602E0,-9.722038269E0,-5.234299302E-1
7.199857830E0,1.276570916E0,-9.736394882E0,-5.282155871E-1
7.204634288E0,1.281356573E0,-9.750752449E0,-5.425725579E-1
7.209410746E0,1.257428288E0,-9.736394882E0,-5.425725579E-1
7.214187257E0,1.243071318E0,-9.745966911E0,-5.473581553E-1
7.218963715E0,1.252642632E0,-9.750752449E0,-5.473581553E-1
7.223740225E0,1.243071318E0,-9.760323524E0,-5.521438122E-1
7.228516684E0,1.233500123E0,-9.765109062E0,-5.467599630E-1
7.233293142E0,1.228714466E0,-9.784850121E0,-5.563312769E-1
7.238069653E0,1.214955688E0,-9.794421196E0,-5.419743061E-1
7.242846111E0,1.210170031E0,-9.794421196E0,-5.419743061E-1
7.247622621E0,1.195813060E0,-9.799206734E0,-5.419743061E-1
7.252399080E0,1.191027522E0,-9.799206734E0,-5.419743061E-1
7.257175538E0,1.167697430E0,-9.799206734E0,-5.276173949E-1
7.261952048E0,1.153340459E0,-9.789635658E0,-5.324030519E-1
7.266728507E0,1.119840980E0,-9.794421196E0,-5.365904570E-1
7.271505017E0,1.110269666E0,-9.780064583E0,-5.270192027E-1
7.276281475E0,1.105484009E0,-9.770493507E0,-5.270192027E-1
7.281057934E0,1.076770186E0,-9.751350403E0,-5.365904570E-1
7.285834444E0,1.053440213E0,-9.765707016E0,-5.318048596E-1
7.290610903E0,1.048056364E0,-9.760921478E0,-5.365904570E-1
7.295387413E0,1.043868899E0,-9.760921478E0,-5.318048596E-1
7.300163871E0,1.052842021E0,-9.765707016E0,-5.557330847E-1
7.304940330E0,1.038485050E0,-9.756135941E0,-5.509474277E-1
7.309716840E0,1.052842021E0,-9.746564865E0,-5.509474277E-1
7.314493298E0,1.057627559E0,-9.746564865E0,-5.557330847E-1
7.319269809E0,1.052842021E0,-9.756135941E0,-5.557330847E-1
7.324046267E0,1.057627559E0,-9.746564865E0,-5.461617708E-1
7.328822725E0,1.076770186E0,-9.746564865E0,-5.413761139E-1
7.333599236E0,1.071984529E0,-9.751350403E0,-5.413761139E-1
7.338375694E0,1.086341500E0,-9.756135941E0,-5.318048596E-1
7.343152205E0,1.086341500E0,-9.765707016E0,-5.270192027E-1
7.347928663E0,1.076770186E0,-9.780064583E0,-5.318048596E-1
7.352705121E0,1.086341500E0,-9.780064583E0,-5.126622319E-1
7.357481632E0,1.095912814E0,-9.780064583E0,-5.030909777E-1
7.362258090E0,1.095912814E0,-9.775279045E0,-5.078766346E-1
7.367034600E0,1.077368379E0,-9.770493507E0,-5.030909777E-1
7.371811059E0,1.072582722E0,-9.765707016E0,-5.078766346E-1
7.376587517E0,1.072582722E0,-9.770493507E0,-4.935196638E-1
7.381364028E0,1.067797065E0,-9.765707016E0,-4.887340367E-1
7.386140486E0,1.058225870E0,-9.770493507E0,-4.935196638E-1
7.390916996E0,1.067797065E0,-9.770493507E0,-4.887340367E-1
7.395693455E0,1.072582722E0,-9.775279045E0,-4.791627228E-1
7.400469913E0,1.082154036E0,-9.760921478E0,-4.791627228E-1
7.405246423E0,1.086939692E0,-9.760921478E0,-4.887340367E-1
7.410022882E0,1.096511006E0,-9.760921478E0,-4.839483798E-1
7.414799392E0,1.110269666E0,-9.760921478E0,-4.887340367E-1
7.419575850E0,1.115055323E0,-9.780064583E0,-4.935196638E-1
7.424352361E0,1.129412293E0,-9.765707016E0,-4.935196638E-1
7.429128819E0,1.138983607E0,-9.775279045E0,-5.030909777E-1
7.433905278E0,1.143769264E0,-9.775279045E0,-5.036891699E-1
7.438681788E0,1.153340459E0,-9.765707016E0,-5.084748268E-1
7.443458246E0,1.148554921E0,-9.756135941E0,-5.036891699E-1
7.448234757E0,1.153340459E0,-9.765707016E0,-5.084748268E-1
7.453011215E0,1.143769264E0,-9.760921478E0,-5.180460811E-1
7.457787673E0,1.157527924E0,-9.760921478E0,-5.276173949E-1
7.462564184E0,1.134197950E0,-9.760921478E0,-5.228317380E-1
7.467340642E0,1.138983607E0,-9.751350403E0,-5.084748268E-1
7.472117100E0,1.124626637E0,-9.751350403E0,-5.078766346E-1
7.476893611E0,1.124626637E0,-9.746564865E0,-5.078766346E-1
7.481670069E0,1.119840980E0,-9.741779327E0,-5.222335458E-1
7.486446580E0,1.115055323E0,-9.751350403E0,-5.222335458E-1
7.491223038E0,1.105484009E0,-9.746564865E0,-5.030909777E-1
7.495999496E0,1.119840980E0,-9.722038269E0,-4.983053207E-1
7.500776007E0,1.124626637E0,-9.722038269E0,-5.078766346E-1
7.505552465E0,1.134197950E0,-9.726823807E0,-5.030909777E-1
7.510328975E0,1.134197950E0,-9.717252731E0,-4.935196638E-1
7.515105694E0,1.134197950E0,-9.712467194E0,-4.887340367E-1
7.519977934E0,1.152742267E0,-9.712467194E0,-5.036891699E-1
7.524850173E0,1.162313581E0,-9.717252731E0,-4.941178858E-1
7.529722309E0,1.171884894E0,-9.717252731E0,-4.941178858E-1
7.534594288E0,1.171884894E0,-9.726823807E0,-5.036891699E-1
7.539466267E0,1.171884894E0,-9.731609344E0,-4.941178858E-1
7.544338298E0,1.171884894E0,-9.731609344E0,-4.989035130E-1
7.549210278E0,1.181456208E0,-9.726823807E0,-5.036891699E-1
7.554082309E0,1.181456208E0,-9.736394882E0,-5.084748268E-1
7.558954288E0,1.186241865E0,-9.726823807E0,-5.036891699E-1
7.563826267E0,1.162911773E0,-9.741181374E0,-4.989035130E-1
7.568698298E0,1.171884894E0,-9.745966911E0,-5.132604837E-1
7.573570278E0,1.191027522E0,-9.750752449E0,-5.084748268E-1
7.578442309E0,1.181456208E0,-9.756135941E0,-4.989035130E-1
7.583314288E0,1.186241865E0,-9.756135941E0,-5.132604837E-1
7.588186267E0,1.176670551E0,-9.760921478E0,-5.180460811E-1
7.593058298E0,1.186241865E0,-9.765707016E0,-5.180460811E-1
7.597930278E0,1.186241865E0,-9.770493507E0,-5.036891699E-1
7.602802309E0,1.181456208E0,-9.760921478E0,-5.132604837E-1
7.607674288E0,1.172483087E0,-9.770493507E0,-4.989035130E-1
7.612546267E0,1.181456208E0,-9.756135941E0,-5.084748268E-1
7.617418298E0,1.191027522E0,-9.770493507E0,-4.989035130E-1
7.622290278E0,1.195813060E0,-9.760921478E0,-5.036891699E-1
7.627162309E0,1.214955688E0,-9.755537987E0,-5.132604837E-1
7.632034288E0,1.234098315E0,-9.731609344E0,-4.893322289E-1
7.636906267E0,1.219741344E0,-9.731609344E0,-5.036891699E-1
7.641778298E0,1.234098315E0,-9.726823807E0,-5.132604837E-1
7.646650278E0,1.247856975E0,-9.726823807E0,-5.138586760E-1
7.651522309E0,1.252642632E0,-9.731609344E0,-5.186443329E-1
7.656394288E0,1.243071318E0,-9.736394882E0,-5.180460811E-1
7.661266267E0,1.224527001E0,-9.745966911E0,-5.324030519E-1
7.666138298E0,1.228714466E0,-9.745966911E0,-5.371887088E-1
7.671010278E0,1.214357495E0,-9.750752449E0,-5.563312769E-1
7.675882309E0,1.204786181E0,-9.736394882E0,-5.563312769E-1
7.680754288E0,1.191027522E0,-9.745966911E0,-5.611169338E-1
7.685626267E0,1.171884894E0,-9.745966911E0,-5.467599630E-1
7.690498298E0,1.124028444E0,-9.746564865E0,-5.563312769E-1
7.695370278E0,1.119242787E0,-9.732208252E0,-5.611169338E-1
7.700242257E0,1.095912814E0,-9.732208252E0,-5.653043389E-1
7.705114288E0,1.076770186E0,-9.722636223E0,-5.509474277E-1
7.709986267E0,1.062413216E0,-9.736993790E0,-5.509474277E-1
7.714858298E0,1.028913736E0,-9.713065147E0,-5.461617708E-1
7.719730278E0,1.095912814E0,-9.717252731E0,-5.318048596E-1
7.724602257E0,1.071984529E0,-9.717850685E0,-5.557330847E-1
7.729474288E0,1.048056364E0,-9.717850685E0,-5.509474277E-1
7.734346267E0,1.076770186E0,-9.717850685E0,-5.653043389E-1
7.739218298E0,1.104885817E0,-9.707681656E0,-5.706881881E-1
7.744090278E0,1.124028444E0,-9.698110580E0,-5.659025311E-1
7.748962257E0,1.152742267E0,-9.707681656E0,-5.850451589E-1
7.753834288E0,1.171286702E0,-9.698110580E0,-5.706881881E-1
7.758705850E0,1.180858016E0,-9.698110580E0,-5.802595019E-1
7.763482361E0,1.214357495E0,-9.712467194E0,-5.706881881E-1
7.768258819E0,1.233500123E0,-9.717252731E0,-5.808576941E-1
7.773035278E0,1.228714466E0,-9.702896118E0,-5.712863803E-1
7.777811788E0,1.238285661E0,-9.722038269E0,-5.569294691E-1
7.782588246E0,1.262213945E0,-9.717252731E0,-5.617151260E-1
7.787364757E0,1.257428288E0,-9.722038269E0,-5.617151260E-1
7.792141215E0,1.243071318E0,-9.736394882E0,-5.617151260E-1
7.796917673E0,1.228714466E0,-9.745966911E0,-5.563312769E-1
7.801694184E0,1.223928809E0,-9.750752449E0,-5.515456200E-1
7.806470642E0,1.224527001E0,-9.755537987E0,-5.419743061E-1
7.811247100E0,1.214955688E0,-9.770493507E0,-5.324030519E-1
7.816023611E0,1.210170031E0,-9.775279045E0,-5.515456200E-1
7.820800069E0,1.214955688E0,-9.789635658E0,-5.611169338E-1
7.825576580E0,1.200598717E0,-9.799206734E0,-5.659025311E-1
7.830353038E0,1.191027522E0,-9.784850121E0,-5.659025311E-1
7.835129548E0,1.186241865E0,-9.803992271E0,-5.802595019E-1
7.839906007E0,1.176670551E0,-9.813564301E0,-5.802595019E-1
7.844682465E0,1.176670551E0,-9.799206734E0,-5.754738450E-1
7.849458975E0,1.157527924E0,-9.808777809E0,-5.754738450E-1
7.854235434E0,1.167099237E0,-9.818349838E0,-5.946164131E-1
7.859011892E0,1.171884894E0,-9.818349838E0,-6.041877270E-1
7.863788403E0,1.171884894E0,-9.818349838E0,-6.041877270E-1
7.868564861E0,1.190429211E0,-9.808777809E0,-6.185446382E-1
7.873341371E0,1.204786181E0,-9.808777809E0,-6.137589812E-1
7.878117830E0,1.204786181E0,-9.813564301E0,-6.281159520E-1
7.882894288E0,1.190429211E0,-9.803992271E0,-6.329016089E-1
7.887670798E0,1.190429211E0,-9.799206734E0,-6.281159520E-1
7.892447257E0,1.180858016E0,-9.789635658E0,-6.424728632E-1
7.897223767E0,1.156929731E0,-9.780064583E0,-6.520441771E-1
7.902000225E0,1.152144074E0,-9.765707016E0,-6.616154313E-1
7.906776684E0,1.152144074E0,-9.765707016E0,-6.376872063E-1
7.911553194E0,1.128215909E0,-9.746564865E0,-6.424728632E-1
7.916329653E0,1.124028444E0,-9.760921478E0,-6.137589812E-1
7.921106163E0,1.100100160E0,-9.751350403E0,-6.185446382E-1
7.925882621E0,1.080957651E0,-9.736993790E0,-6.179464459E-1
7.930659080E0,1.076171994E0,-9.741779327E0,-5.940182209E-1
7.935435590E0,1.062413216E0,-9.741779327E0,-5.700899959E-1
7.940212048E0,1.067198873E0,-9.736993790E0,-5.653043389E-1
7.944988507E0,1.057627559E0,-9.732208252E0,-5.557330847E-1
7.949765017E0,1.052842021E0,-9.717850685E0,-5.461617708E-1
7.954541475E0,1.052842021E0,-9.713065147E0,-5.222335458E-1
7.959317986E0,1.062413216E0,-9.707681656E0,-5.126622319E-1
7.964094444E0,1.071984529E0,-9.688538551E0,-5.174478889E-1
7.968870903E0,1.076770186E0,-9.678967476E0,-5.126622319E-1
7.973647413E0,1.091127157E0,-9.688538551E0,-5.126622319E-1
7.978423871E0,1.100698471E0,-9.678967476E0,-4.983053207E-1
7.983200382E0,1.115055323E0,-9.678967476E0,-4.935196638E-1
7.987976840E0,1.147956610E0,-9.688538551E0,-4.941178858E-1
7.992753298E0,1.157527924E0,-9.698110580E0,-4.941178858E-1
7.997529809E0,1.186241865E0,-9.693324089E0,-4.941178858E-1
8.002306267E0,1.210170031E0,-9.693324089E0,-4.845465720E-1
8.007082778E0,1.210170031E0,-9.712467194E0,-4.941178858E-1
8.011859236E0,1.238883972E0,-9.712467194E0,-4.893322289E-1
8.016635694E0,1.262213945E0,-9.698110580E0,-4.947160780E-1
8.021412205E0,1.305284739E0,-9.702297211E0,-4.851447940E-1
8.026188663E0,1.295713425E0,-9.702297211E0,-4.851447940E-1
8.030965121E0,1.300499082E0,-9.707083702E0,-4.995017350E-1
8.035741632E0,1.319641709E0,-9.707083702E0,-4.995017350E-1
8.040518090E0,1.323829174E0,-9.697511673E0,-5.090730190E-1
8.045294600E0,1.333400369E0,-9.702297211E0,-4.995017350E-1
8.050071059E0,1.347757339E0,-9.702297211E0,-4.899304509E-1
8.054847517E0,1.333998680E0,-9.711869240E0,-4.899304509E-1
8.059624028E0,1.333998680E0,-9.707083702E0,-4.707878530E-1
8.064400486E0,1.333998680E0,-9.722038269E0,-4.654040039E-1
8.069176996E0,1.338784218E0,-9.702297211E0,-4.654040039E-1
8.073953455E0,1.333998680E0,-9.707083702E0,-4.755735099E-1
8.078729913E0,1.324427366E0,-9.717252731E0,-4.755735099E-1
8.083506423E0,1.314856052E0,-9.726823807E0,-4.899304509E-1
8.088282882E0,1.310070395E0,-9.717252731E0,-4.995017350E-1
8.093059340E0,1.305284739E0,-9.717252731E0,-5.186443329E-1
8.097835850E0,1.305284739E0,-9.726823807E0,-5.138586760E-1
8.102612309E0,1.300499082E0,-9.717252731E0,-5.234299302E-1
8.107388819E0,1.290927768E0,-9.726823807E0,-5.377869010E-1
8.112165278E0,1.266999602E0,-9.741181374E0,-5.377869010E-1
8.116941736E0,1.257428288E0,-9.726823807E0,-5.425725579E-1
8.121718246E0,1.252642632E0,-9.736394882E0,-5.521438122E-1
8.126494705E0,1.243071318E0,-9.741181374E0,-5.617151260E-1
8.131271215E0,1.243071318E0,-9.736394882E0,-5.665007830E-1
8.136047673E0,1.228714466E0,-9.741181374E0,-5.760720372E-1
8.140824132E0,1.219143152E0,-9.760323524E0,-5.706881881E-1
8.145600642E0,1.200000525E0,-9.760323524E0,-5.802595019E-1
8.150377100E0,1.195214868E0,-9.769894600E0,-5.898307562E-1
8.155153611E0,1.176670551E0,-9.750752449E0,-5.754738450E-1
8.159930069E0,1.171884894E0,-9.760323524E0,-5.898307562E-1
8.164706528E0,1.180858016E0,-9.755537987E0,-5.898307562E-1
8.169483038E0,1.167099237E0,-9.775279045E0,-5.898307562E-1
8.174259496E0,1.109671474E0,-9.775279045E0,-5.898307562E-1
8.179035955E0,1.105484009E0,-9.780064583E0,-5.748756528E-1
8.183812465E0,1.100698471E0,-9.770493507E0,-5.653043389E-1
8.188588923E0,1.076770186E0,-9.760921478E0,-5.461617708E-1
8.193365434E0,1.071984529E0,-9.751350403E0,-5.461617708E-1
8.198141892E0,1.067198873E0,-9.756135941E0,-5.365904570E-1
8.202918350E0,1.062413216E0,-9.751350403E0,-5.174478889E-1
8.207694861E0,1.057627559E0,-9.717850685E0,-5.222335458E-1
8.212471319E0,1.043868899E0,-9.722636223E0,-5.030909777E-1
8.217247778E0,1.095912814E0,-9.732208252E0,-4.983053207E-1
8.222024288E0,1.039083242E0,-9.741779327E0,-4.983053207E-1
8.226800746E0,1.024726272E0,-9.741779327E0,-4.881358147E-1
8.231577257E0,1.043868899E0,-9.746564865E0,-4.887340367E-1
8.236353715E0,1.039083242E0,-9.746564865E0,-4.791627228E-1
8.241130173E0,1.039083242E0,-9.751350403E0,-4.791627228E-1
8.245906684E0,1.034297585E0,-9.765707016E0,-4.737788737E-1
8.250683142E0,1.039083242E0,-9.780064583E0,-4.636093974E-1
8.255459653E0,1.043868899E0,-9.770493507E0,-4.743770957E-1
8.260236111E0,1.048654556E0,-9.770493507E0,-4.791627228E-1
8.265012569E0,1.063011408E0,-9.765707016E0,-4.887340367E-1
8.269789080E0,1.067797065E0,-9.751350403E0,-4.839483798E-1
8.274565538E0,1.077368379E0,-9.756135941E0,-4.839483798E-1
8.279342048E0,1.091127157E0,-9.746564865E0,-4.935196638E-1
8.284118507E0,1.100698471E0,-9.746564865E0,-5.078766346E-1
8.288894965E0,1.110269666E0,-9.736993790E0,-5.078766346E-1
8.293671475E0,1.148554921E0,-9.736394882E0,-5.084748268E-1
8.298447934E0,1.129412293E0,-9.741779327E0,-5.030909777E-1
8.303224392E0,1.124626637E0,-9.746564865E0,-5.078766346E-1
8.308000903E0,1.153340459E0,-9.751350403E0,-4.989035130E-1
8.312777361E0,1.195813060E0,-9.741181374E0,-4.989035130E-1
8.317553871E0,1.214955688E0,-9.745966911E0,-4.941178858E-1
8.322330330E0,1.219741344E0,-9.741181374E0,-5.036891699E-1
8.327106788E0,1.234098315E0,-9.745966911E0,-5.084748268E-1
8.331883298E0,1.248455167E0,-9.745966911E0,-4.941178858E-1
8.336659757E0,1.253240824E0,-9.741181374E0,-4.941178858E-1
8.341436267E0,1.238883972E0,-9.726823807E0,-4.941178858E-1
8.346212725E0,1.258026481E0,-9.745966911E0,-4.941178858E-1
8.350989184E0,1.238883972E0,-9.745966911E0,-5.036891699E-1
8.355765694E0,1.243669510E0,-9.755537987E0,-5.132604837E-1
8.360542153E0,1.243669510E0,-9.741181374E0,-5.084748268E-1
8.365318611E0,1.224527001E0,-9.760323524E0,-5.180460811E-1
8.370095121E0,1.238883972E0,-9.755537987E0,-5.228317380E-1
8.374871580E0,1.229312658E0,-9.769894600E0,-5.228317380E-1
8.379648090E0,1.229312658E0,-9.765109062E0,-5.324030519E-1
8.384424548E0,1.219741344E0,-9.750752449E0,-5.276173949E-1
8.389201007E0,1.224527001E0,-9.760323524E0,-5.419743061E-1
8.393977517E0,1.223928809E0,-9.745966911E0,-5.419743061E-1
8.398753975E0,1.223928809E0,-9.731609344E0,-5.515456200E-1
8.403530434E0,1.228714466E0,-9.741181374E0,-5.563312769E-1
8.408306944E0,1.223928809E0,-9.741181374E0,-5.563312769E-1
8.413083403E0,1.219143152E0,-9.736394882E0,-5.611169338E-1
8.417859913E0,1.219143152E0,-9.731609344E0,-5.659025311E-1
8.422636371E0,1.223928809E0,-9.726823807E0,-5.712863803E-1
8.427412830E0,1.200000525E0,-9.707681656E0,-5.706881881E-1
8.432189340E0,1.299900889E0,-9.717252731E0,-5.617151260E-1
8.436965798E0,1.219143152E0,-9.726823807E0,-5.515456200E-1
8.441742309E0,1.209571838E0,-9.717252731E0,-5.563312769E-1
8.446518767E0,1.247856975E0,-9.726823807E0,-5.569294691E-1
8.451295225E0,1.238285661E0,-9.722038269E0,-5.425725579E-1
8.456071736E0,1.238285661E0,-9.722038269E0,-5.473581553E-1
8.460848194E0,1.233500123E0,-9.726823807E0,-5.425725579E-1
8.465624653E0,1.238285661E0,-9.731609344E0,-5.330012441E-1
8.470401163E0,1.228714466E0,-9.731609344E0,-5.276173949E-1
8.475177621E0,1.210170031E0,-9.726823807E0,-5.132604837E-1
8.479954132E0,1.214955688E0,-9.726823807E0,-5.084748268E-1
8.484730590E0,1.210170031E0,-9.731609344E0,-5.084748268E-1
8.489507048E0,1.205384374E0,-9.741181374E0,-5.084748268E-1
8.494283559E0,1.205384374E0,-9.736394882E0,-5.084748268E-1
8.499060017E0,1.214955688E0,-9.741181374E0,-5.036891699E-1
8.503836528E0,1.210170031E0,-9.741181374E0,-5.132604837E-1
8.508612986E0,1.224527001E0,-9.755537987E0,-5.132604837E-1
8.513389444E0,1.229312658E0,-9.745966911E0,-5.324030519E-1
8.518165955E0,1.238285661E0,-9.741181374E0,-5.324030519E-1
8.522942413E0,1.233500123E0,-9.741181374E0,-5.521438122E-1
8.527718923E0,1.243071318E0,-9.731609344E0,-5.473581553E-1
8.532495382E0,1.266999602E0,-9.722038269E0,-5.521438122E-1
8.537271840E0,1.262213945E0,-9.722038269E0,-5.521438122E-1
8.542048350E0,1.271785259E0,-9.712467194E0,-5.521438122E-1
8.546824809E0,1.238285661E0,-9.707681656E0,-5.569294691E-1
8.551601267E0,1.338186026E0,-9.736394882E0,-5.377869010E-1
8.556377778E0,1.276570916E0,-9.731609344E0,-5.521438122E-1
8.561154236E0,1.252642632E0,-9.736394882E0,-5.425725579E-1
8.565930746E0,1.271785259E0,-9.736394882E0,-5.521438122E-1
8.570707205E0,1.276570916E0,-9.731609344E0,-5.569294691E-1
8.575483663E0,1.257428288E0,-9.741181374E0,-5.569294691E-1
8.580260173E0,1.266999602E0,-9.736394882E0,-5.234299302E-1
8.585036632E0,1.271785259E0,-9.736394882E0,-5.090730190E-1
8.589813090E0,1.271785259E0,-9.741181374E0,-5.186443329E-1
8.594589600E0,1.276570916E0,-9.726823807E0,-5.186443329E-1
8.599366059E0,1.266999602E0,-9.722038269E0,-5.090730190E-1
8.604142517E0,1.266999602E0,-9.717252731E0,-5.330012441E-1
8.608919028E0,1.262213945E0,-9.717252731E0,-5.234299302E-1
8.613695486E0,1.271785259E0,-9.722038269E0,-5.234299302E-1
8.618471996E0,1.252642632E0,-9.712467194E0,-5.186443329E-1
8.623248455E0,1.233500123E0,-9.712467194E0,-5.180460811E-1
8.628024913E0,1.252642632E0,-9.712467194E0,-5.186443329E-1
8.632801423E0,1.266999602E0,-9.712467194E0,-5.282155871E-1
8.637577882E0,1.219741344E0,-9.717252731E0,-5.276173949E-1
8.642354392E0,1.219741344E0,-9.726823807E0,-5.324030519E-1
8.647130850E0,1.233500123E0,-9.722038269E0,-5.473581553E-1
8.651907309E0,1.233500123E0,-9.717252731E0,-5.425725579E-1
8.656683819E0,1.219741344E0,-9.726823807E0,-5.324030519E-1
8.661460278E0,1.219741344E0,-9.712467194E0,-5.276173949E-1
8.666236788E0,1.233500123E0,-9.712467194E0,-5.521438122E-1
8.671013246E0,1.209571838E0,-9.722038269E0,-5.563312769E-1
8.675789705E0,1.219143152E0,-9.717252731E0,-5.419743061E-1
8.680566215E0,1.209571838E0,-9.722038269E0,-5.515456200E-1
8.685342673E0,1.195813060E0,-9.726823807E0,-5.467599630E-1
8.690119132E0,1.219143152E0,-9.722038269E0,-5.371887088E-1
8.694895642E0,1.205384374E0,-9.712467194E0,-5.324030519E-1
8.699672100E0,1.228714466E0,-9.722038269E0,-5.276173949E-1
8.704448559E0,1.228714466E0,-9.702896118E0,-5.276173949E-1
8.709225069E0,1.214357495E0,-9.707681656E0,-5.371887088E-1
8.714001528E0,1.243071318E0,-9.717252731E0,-5.425725579E-1
8.718778038E0,1.233500123E0,-9.707681656E0,-5.425725579E-1
8.723554496E0,1.243071318E0,-9.722038269E0,-5.330012441E-1
8.728330955E0,1.247856975E0,-9.736394882E0,-5.330012441E-1
8.733107465E0,1.243071318E0,-9.726823807E0,-5.425725579E-1
8.737883923E0,1.247856975E0,-9.731609344E0,-5.425725579E-1
8.742660382E0,1.243071318E0,-9.741181374E0,-5.425725579E-1
8.747436892E0,1.247856975E0,-9.741181374E0,-5.425725579E-1
8.752213350E0,1.252642632E0,-9.741181374E0,-5.377869010E-1
8.756989861E0,1.271785259E0,-9.750752449E0,-5.234299302E-1
8.761766319E0,1.281356573E0,-9.745966911E0,-5.282155871E-1
8.766542778E0,1.281356573E0,-9.750752449E0,-5.377869010E-1
8.771319288E0,1.286142230E0,-9.750752449E0,-5.473581553E-1
8.776095746E0,1.286142230E0,-9.750752449E0,-5.377869010E-1
8.780872257E0,1.286142230E0,-9.750752449E0,-5.473581553E-1
8.785648715E0,1.286142230E0,-9.736394882E0,-5.377869010E-1
8.790425173E0,1.300499082E0,-9.745966911E0,-5.473581553E-1
8.795201684E0,1.286142230E0,-9.755537987E0,-5.186443329E-1
8.799978142E0,1.276570916E0,-9.750752449E0,-5.282155871E-1
8.804754600E0,1.276570916E0,-9.745966911E0,-5.138586760E-1
8.809531111E0,1.266999602E0,-9.755537987E0,-5.186443329E-1
8.814307569E0,1.266999602E0,-9.741181374E0,-5.042873621E-1
8.819084080E0,1.257428288E0,-9.741181374E0,-5.138586760E-1
8.823860538E0,1.229312658E0,-9.741181374E0,-5.132604837E-1
8.828636996E0,1.228714466E0,-9.731609344E0,-5.228317380E-1
8.833413507E0,1.219741344E0,-9.736394882E0,-5.228317380E-1
8.838189965E0,1.210170031E0,-9.731609344E0,-5.276173949E-1
8.842966423E0,1.195813060E0,-9.731609344E0,-5.324030519E-1
8.847742934E0,1.191027522E0,-9.731609344E0,-5.276173949E-1
8.852519392E0,1.186241865E0,-9.741181374E0,-5.276173949E-1
8.857295903E0,1.176670551E0,-9.736394882E0,-5.180460811E-1
8.862072361E0,1.171884894E0,-9.731609344E0,-5.276173949E-1
8.866848819E0,1.152742267E0,-9.726823807E0,-5.467599630E-1
8.871625330E0,1.176670551E0,-9.722038269E0,-5.563312769E-1
8.876401788E0,1.204786181E0,-9.741181374E0,-5.563312769E-1
8.881178246E0,1.133599758E0,-9.741181374E0,-5.659025311E-1
8.885954757E0,1.152742267E0,-9.736394882E0,-5.706881881E-1
8.890731215E0,1.176072359E0,-9.731609344E0,-5.802595019E-1
8.895507673E0,1.157527924E0,-9.731609344E0,-5.754738450E-1
8.900284184E0,1.143171072E0,-9.736394882E0,-5.563312769E-1
8.905060642E0,1.152742267E0,-9.745966911E0,-5.515456200E-1
8.909837153E0,1.147956610E0,-9.736394882E0,-5.515456200E-1
8.914613611E0,1.138385415E0,-9.741181374E0,-5.467599630E-1
8.919390069E0,1.157527924E0,-9.731609344E0,-5.371887088E-1
8.924166580E0,1.162313581E0,-9.736394882E0,-5.276173949E-1
8.928943038E0,1.157527924E0,-9.726823807E0,-5.132604837E-1
8.933719496E0,1.162313581E0,-9.726823807E0,-5.132604837E-1
8.938496007E0,1.157527924E0,-9.731609344E0,-5.180460811E-1
8.943272465E0,1.200598717E0,-9.731609344E0,-4.989035130E-1
8.948048975E0,1.176670551E0,-9.750752449E0,-5.036891699E-1
8.952825434E0,1.158126116E0,-9.745966911E0,-5.036891699E-1
8.957601892E0,1.171884894E0,-9.741181374E0,-5.084748268E-1
8.962378403E0,1.157527924E0,-9.741181374E0,-5.084748268E-1
8.967154861E0,1.186241865E0,-9.755537987E0,-5.084748268E-1
8.971931319E0,1.176670551E0,-9.755537987E0,-5.084748268E-1
8.976707830E0,1.171884894E0,-9.765707016E0,-5.036891699E-1
8.981484288E0,1.162313581E0,-9.770493507E0,-5.228317380E-1
8.986260798E0,1.171884894E0,-9.765707016E0,-5.371887088E-1
8.991037257E0,1.167099237E0,-9.760323524E0,-5.467599630E-1
8.995813715E0,1.176670551E0,-9.755537987E0,-5.563312769E-1
9.000590225E0,1.176670551E0,-9.760323524E0,-5.515456200E-1
9.005366684E0,1.176670551E0,-9.760323524E0,-5.611169338E-1
9.010143142E0,1.176670551E0,-9.750752449E0,-5.659025311E-1
9.014919653E0,1.171884894E0,-9.745966911E0,-5.706881881E-1
9.019696111E0,1.152742267E0,-9.726823807E0,-5.611169338E-1
9.024472621E0,1.167099237E0,-9.722038269E0,-5.563312769E-1
9.029249080E0,1.204786181E0,-9.731609344E0,-5.563312769E-1
9.034025538E0,1.143171072E0,-9.741181374E0,-5.515456200E-1
9.038802048E0,1.152742267E0,-9.745966911E0,-5.515456200E-1
9.043578507E0,1.157527924E0,-9.751350403E0,-5.324030519E-1
9.048354965E0,1.152742267E0,-9.726823807E0,-5.324030519E-1
9.053131475E0,1.152742267E0,-9.726823807E0,-5.276173949E-1
9.057907934E0,1.157527924E0,-9.726823807E0,-5.084748268E-1
9.062684444E0,1.147956610E0,-9.712467194E0,-5.084748268E-1
9.067460903E0,1.195813060E0,-9.726823807E0,-4.941178858E-1
9.072237361E0,1.167099237E0,-9.722038269E0,-5.036891699E-1
9.077013871E0,1.129412293E0,-9.722038269E0,-4.935196638E-1
9.081790330E0,1.129412293E0,-9.746564865E0,-5.078766346E-1
9.086566788E0,1.124626637E0,-9.731609344E0,-5.030909777E-1
9.091343298E0,1.115055323E0,-9.732208252E0,-4.983053207E-1
9.096119757E0,1.110269666E0,-9.746564865E0,-5.078766346E-1
9.100896267E0,1.124626637E0,-9.760921478E0,-5.030909777E-1
9.105672725E0,1.124626637E0,-9.760921478E0,-5.174478889E-1
9.110449184E0,1.124626637E0,-9.756135941E0,-5.270192027E-1
9.115225694E0,1.134197950E0,-9.770493507E0,-5.371887088E-1
9.120002153E0,1.143171072E0,-9.746564865E0,-5.419743061E-1
9.124778611E0,1.147956610E0,-9.741181374E0,-5.611169338E-1
9.129555121E0,1.152742267E0,-9.736394882E0,-5.659025311E-1
9.134331580E0,1.147956610E0,-9.741181374E0,-5.515456200E-1
9.139108038E0,1.157527924E0,-9.741181374E0,-5.515456200E-1
9.143884548E0,1.147956610E0,-9.726823807E0,-5.659025311E-1
9.148661007E0,1.143171072E0,-9.726823807E0,-5.659025311E-1
9.153437517E0,1.138385415E0,-9.736394882E0,-5.611169338E-1
9.158213975E0,1.133599758E0,-9.741181374E0,-5.467599630E-1
9.162990434E0,1.138385415E0,-9.746564865E0,-5.371887088E-1
9.167766944E0,1.134197950E0,-9.751350403E0,-5.324030519E-1
9.172543403E0,1.129412293E0,-9.760921478E0,-5.270192027E-1
9.177319861E0,1.119840980E0,-9.780064583E0,-5.318048596E-1
9.182096371E0,1.129412293E0,-9.765707016E0,-5.371887088E-1
9.186872830E0,1.119840980E0,-9.760921478E0,-5.365904570E-1
9.191649340E0,1.115055323E0,-9.756135941E0,-5.413761139E-1
9.196425798E0,1.119840980E0,-9.765707016E0,-5.413761139E-1
9.201202257E0,1.110269666E0,-9.751350403E0,-5.509474277E-1
9.205978767E0,1.100698471E0,-9.741779327E0,-5.557330847E-1
9.210755225E0,1.110269666E0,-9.741181374E0,-5.461617708E-1
9.215531684E0,1.105484009E0,-9.745966911E0,-5.557330847E-1
9.220308194E0,1.105484009E0,-9.756135941E0,-5.557330847E-1
9.225084653E0,1.128814101E0,-9.745966911E0,-5.611169338E-1
9.229861111E0,1.138385415E0,-9.755537987E0,-5.706881881E-1
9.234637621E0,1.152742267E0,-9.765109062E0,-5.754738450E-1
9.239414080E0,1.162313581E0,-9.765109062E0,-5.754738450E-1
9.244190590E0,1.181456208E0,-9.779465675E0,-5.850451589E-1
9.248967048E0,1.190429211E0,-9.769894600E0,-5.898307562E-1
9.253743507E0,1.186241865E0,-9.760323524E0,-5.706881881E-1
9.258520017E0,1.185643673E0,-9.755537987E0,-5.754738450E-1
9.263296475E0,1.190429211E0,-9.745966911E0,-5.706881881E-1
9.268072934E0,1.195813060E0,-9.750752449E0,-5.611169338E-1
9.272849444E0,1.195214868E0,-9.745966911E0,-5.659025311E-1
9.277625903E0,1.195214868E0,-9.736394882E0,-5.563312769E-1
9.282402361E0,1.195813060E0,-9.736394882E0,-5.467599630E-1
9.287178871E0,1.186241865E0,-9.741181374E0,-5.419743061E-1
9.291955330E0,1.181456208E0,-9.750752449E0,-5.276173949E-1
9.296731840E0,1.176670551E0,-9.750752449E0,-5.180460811E-1
9.301508298E0,1.186241865E0,-9.745966911E0,-5.276173949E-1
9.306284757E0,1.186241865E0,-9.741181374E0,-5.132604837E-1
9.311061267E0,1.186241865E0,-9.726823807E0,-5.228317380E-1
9.315837725E0,1.195813060E0,-9.726823807E0,-5.228317380E-1
9.320614184E0,1.181456208E0,-9.736394882E0,-5.228317380E-1
9.325390694E0,1.186241865E0,-9.731609344E0,-5.132604837E-1
9.330167153E0,1.186241865E0,-9.736394882E0,-5.132604837E-1
9.334943663E0,1.186241865E0,-9.736394882E0,-5.084748268E-1
9.339720121E0,1.181456208E0,-9.741181374E0,-5.036891699E-1
9.344496580E0,1.186241865E0,-9.745966911E0,-5.180460811E-1
9.349273090E0,1.195813060E0,-9.736394882E0,-5.084748268E-1
9.354049548E0,1.191027522E0,-9.736394882E0,-5.371887088E-1
9.358826007E0,1.181456208E0,-9.736394882E0,-5.324030519E-1
9.363602517E0,1.186241865E0,-9.731609344E0,-5.276173949E-1
9.368378975E0,1.181456208E0,-9.726823807E0,-5.324030519E-1
9.373155434E0,1.191027522E0,-9.717252731E0,-5.371887088E-1
9.377931944E0,1.176670551E0,-9.736394882E0,-5.180460811E-1
9.382708403E0,1.171884894E0,-9.736394882E0,-5.132604837E-1
9.387484913E0,1.181456208E0,-9.717252731E0,-5.180460811E-1
9.392261371E0,1.195813060E0,-9.717252731E0,-4.989035130E-1
9.397037830E0,1.186241865E0,-9.726823807E0,-5.132604837E-1
9.401814340E0,1.181456208E0,-9.726823807E0,-5.084748268E-1
9.406590798E0,1.176670551E0,-9.731609344E0,-4.941178858E-1
9.411367257E0,1.176670551E0,-9.736394882E0,-4.797609448E-1
9.416143767E0,1.171884894E0,-9.736394882E0,-4.941178858E-1
9.420920225E0,1.158126116E0,-9.755537987E0,-4.941178858E-1
9.425696736E0,1.143769264E0,-9.750752449E0,-4.839483798E-1
9.430473194E0,1.138983607E0,-9.745966911E0,-4.839483798E-1
9.435249653E0,1.119840980E0,-9.746564865E0,-4.791627228E-1
9.440026163E0,1.110269666E0,-9.741779327E0,-5.030909777E-1
9.444802621E0,1.110269666E0,-9.731609344E0,-5.078766346E-1
9.449579080E0,1.091127157E0,-9.732208252E0,-4.983053207E-1
9.454355590E0,1.081555843E0,-9.732208252E0,-5.078766346E-1
9.459132048E0,1.076770186E0,-9.741779327E0,-5.270192027E-1
9.463908507E0,1.081555843E0,-9.726823807E0,-5.270192027E-1
9.468685017E0,1.076770186E0,-9.741779327E0,-5.222335458E-1
9.473461475E0,1.081555843E0,-9.732208252E0,-5.174478889E-1
9.478237986E0,1.086341500E0,-9.732208252E0,-5.126622319E-1
9.483014444E0,1.081555843E0,-9.732208252E0,-5.078766346E-1
9.487790903E0,1.086341500E0,-9.726823807E0,-5.126622319E-1
9.492567413E0,1.095912814E0,-9.722038269E0,-5.318048596E-1
9.497343871E0,1.110269666E0,-9.722038269E0,-5.270192027E-1
9.502120330E0,1.095912814E0,-9.736394882E0,-5.413761139E-1
9.506896840E0,1.110269666E0,-9.731609344E0,-5.461617708E-1
9.511673298E0,1.129412293E0,-9.736394882E0,-5.270192027E-1
9.516449757E0,1.129412293E0,-9.745966911E0,-5.324030519E-1
9.521226267E0,1.134197950E0,-9.741181374E0,-5.228317380E-1
9.526002725E0,1.138385415E0,-9.741181374E0,-5.276173949E-1
9.530779236E0,1.148554921E0,-9.736394882E0,-5.084748268E-1
9.535555694E0,1.162313581E0,-9.741181374E0,-5.036891699E-1
9.540332153E0,1.148554921E0,-9.745966911E0,-5.084748268E-1
9.545108663E0,1.134197950E0,-9.751350403E0,-5.030909777E-1
9.549885121E0,1.134197950E0,-9.751350403E0,-5.078766346E-1
9.554661580E0,1.134197950E0,-9.756135941E0,-5.078766346E-1
9.559438090E0,1.115055323E0,-9.760921478E0,-5.126622319E-1
9.564214548E0,1.110269666E0,-9.760921478E0,-4.935196638E-1
9.568991007E0,1.119840980E0,-9.770493507E0,-5.078766346E-1
9.573767517E0,1.105484009E0,-9.760921478E0,-5.126622319E-1
9.578543975E0,1.110269666E0,-9.770493507E0,-5.222335458E-1
9.583320486E0,1.115055323E0,-9.756135941E0,-5.174478889E-1
9.588096944E0,1.105484009E0,-9.756135941E0,-5.270192027E-1
9.592873403E0,1.095912814E0,-9.746564865E0,-5.509474277E-1
9.597649913E0,1.095912814E0,-9.756135941E0,-5.509474277E-1
9.602426371E0,1.095912814E0,-9.746564865E0,-5.461617708E-1
9.607202830E0,1.105484009E0,-9.746564865E0,-5.557330847E-1
9.611979340E0,1.095912814E0,-9.741779327E0,-5.557330847E-1
9.616755798E0,1.095912814E0,-9.741779327E0,-5.653043389E-1
9.621532257E0,1.109671474E0,-9.741779327E0,-5.605186820E-1
9.626308767E0,1.100698471E0,-9.741779327E0,-5.557330847E-1
9.631085225E0,1.114457130E0,-9.741181374E0,-5.659025311E-1
9.635861736E0,1.110269666E0,-9.751350403E0,-5.557330847E-1
9.640638194E0,1.114457130E0,-9.756135941E0,-5.605186820E-1
9.645414653E0,1.105484009E0,-9.765707016E0,-5.557330847E-1
9.650191163E0,1.095912814E0,-9.770493507E0,-5.461617708E-1
9.654967621E0,1.100698471E0,-9.765707016E0,-5.557330847E-1
9.659744080E0,1.124028444E0,-9.765707016E0,-5.563312769E-1
9.664520590E0,1.119840980E0,-9.770493507E0,-5.461617708E-1
9.669297048E0,1.086341500E0,-9.770493507E0,-5.365904570E-1
9.674073507E0,1.091127157E0,-9.775279045E0,-5.270192027E-1
9.678850017E0,1.071984529E0,-9.780064583E0,-5.318048596E-1
9.683626475E0,1.086341500E0,-9.775279045E0,-5.222335458E-1
9.688402934E0,1.071984529E0,-9.765707016E0,-5.222335458E-1
9.693179444E0,1.081555843E0,-9.765707016E0,-5.078766346E-1
9.697955903E0,1.091127157E0,-9.775279045E0,-4.983053207E-1
9.702732413E0,1.082154036E0,-9.765707016E0,-4.839483798E-1
9.707508871E0,1.082154036E0,-9.756135941E0,-4.839483798E-1
9.712285330E0,1.086939692E0,-9.756135941E0,-4.839483798E-1
9.717061840E0,1.072582722E0,-9.765707016E0,-4.839483798E-1
9.721838298E0,1.082154036E0,-9.756135941E0,-4.743770957E-1
9.726614757E0,1.072582722E0,-9.746564865E0,-4.695914388E-1
9.731391267E0,1.082154036E0,-9.756135941E0,-4.743770957E-1
9.736167725E0,1.091127157E0,-9.751350403E0,-4.839483798E-1
9.740944184E0,1.081555843E0,-9.741779327E0,-4.935196638E-1
9.745720694E0,1.091127157E0,-9.741779327E0,-4.839483798E-1
