Time (s),Acceleration x (m/s^2),Acceleration y (m/s^2),Acceleration z (m/s^2)
6.001922079,0.42128063326694104,2.9055752152186893,-0.47003637498061496
6.006684839,-0.10706910699713046,4.668216499265788,-1.4782071590983223
6.011474214,-0.6019617715350825,6.4406781220191105,-2.4684227973554727
6.016250308,-1.0479463265288798,8.189941810080628,-3.414499550374488
6.021013068,-1.4315687537166195,9.881340187590897,-4.29158699404181
6.025802443,-1.7419181924011538,11.479085577197448,-5.076986203148653
6.030578485,-1.971076367222301,12.946898162182036,-5.750874776839212
6.035341298,-2.1144499701208423,14.248731964670304,-6.296910637513041
6.040130673,-2.1709696991476646,15.349591253799593,-6.702692674010807
6.044906714,-2.143144602064421,16.216423629845156,-6.960063529369697
6.049669475,-2.0369661126567316,16.819069473862182,-7.065247702122237
6.054458902,-1.8616624995615083,17.131241092782385,-7.018826143585936
6.059234943,-1.6293110934071726,17.131499138915906,-6.825556199311595
6.063997704,-1.3543222954245804,16.804189150465174,-6.494052592097352
6.068787131,-1.0528156645108768,16.140297727275684,-6.036350757020255
6.073563173,-0.7419140023993306,15.138186255474414,-5.467377889615112
6.078325933,-0.43898599347446604,13.804160488265802,-4.804359369197343
6.083115308,-0.1608713138601534,12.152836847615989,-4.066188742652003
6.087891402,0.07687604505070585,10.207271090547211,-3.2727883287895247
6.092654162,0.2606903634924224,7.99882192520608,-2.4444849924561467
6.097443537,0.37960846373293045,5.566731098886734,-1.6014220810007642
6.102219631,0.4257648615281671,2.957412151499233,-0.7630242560809833
6.106982391,0.3947421549143323,0.22345208786170231,0.05247268317090172
6.111771766,0.285757826915997,-2.5776567597311186,0.8284195350257783
6.11654786,0.10167696518992714,-5.385023958730109,1.5500757399309648
6.121310621,-0.15115009046630812,-8.136063330163363,2.2048558056277185
6.126099996,-0.4632160461896965,-10.76833416044954,2.7825024015918665
6.130876089,-0.8223318858733114,-13.221454430731976,3.275189710251564
6.13563885,-1.2142213364277898,-15.439011190765244,3.6775614616664787
6.140428225,-1.6232001990056755,-17.37038845635294,3.986708797237219
6.145204318,-2.0329020344685964,-18.97243217509129,4.202093682339039
6.149967079,-2.427010321661251,-20.210875381625943,4.325423853716882
6.154756454,-2.7899587420344623,-21.06145497279439,4.360485246457036
6.159532548,-3.1075656139294483,-21.510664581804747,4.3129376391118175
6.164295308,-3.3675752460376778,-21.556105340990452,4.190079020468529
6.169084683,-3.5600872034238185,-21.206416871312967,4.0005840560073676
6.173860777,-3.677862991144143,-20.4807931333989,3.754222176394477
6.178623537,-3.7165073058927773,-19.408110011795277,3.4615612972004226
6.183412912,-3.674527085180186,-18.025711766974503,3.133663886688372
6.188189006,-3.5532760837148345,-16.37792006968141,2.781782741429577
6.192951766,-3.356796108851524,-14.514341052847644,2.417064108104762
6.197741141,-3.0915688289060266,-12.488052187562994,2.050265564733257
6.202517235,-2.7661943081322784,-10.353751939513467,1.6914954501028379
6.207279996,-2.3910138177388927,-8.165951647824643,1.3499798546466477
6.212069371,-1.977694722932237,-5.9772816635028,1.0338624207139404
6.216845412,-1.5387943972637792,-3.83697331339819,0.7500413789312144
6.221608225,-1.0873185346404364,-1.7895655265829222,0.5040471743849453
6.2263976,-0.6362873349490322,0.1261292069336312,0.2999625985055323
6.231173641,-0.1983211164737589,1.8777796212796911,0.14038561436908653
6.235936402,0.21474489565733812,3.4400057433242948,0.02643325243687229
6.240725829,0.5922084726665348,4.794572184086645,-0.04221670878952686
6.245501871,0.9248042629704816,5.930324295105891,-0.06725089777459053
6.250264631,1.204958213824566,6.8428963792600666,-0.05161786505712868
6.255054058,1.4269883408642898,7.534228245245789,0.000596079984795447
6.2598301,1.5872489520112332,8.011930907392646,0.08430676929081458
6.26459286,1.684216797996538,8.288544158257258,0.19358231532423817
6.269382287,1.7185189919354735,8.380728212338637,0.32179880507331515
6.274158329,1.6929038242767482,8.308428892389738,0.4617979686218882
6.278921089,1.612156717789175,8.094051274704368,0.6060445267399638
6.283710464,1.4829644744528705,7.761670776314213,0.7467822532050147
6.288486558,1.3137316579756477,7.336303841683211,0.8761890167553268
6.293249318,1.1143534600809777,6.84325315729511,0.9865320428869296
6.298038693,0.8959497577382197,6.307535159934333,1.0703252207903775
6.302814787,0.6705653320671643,5.753390948037865,1.1204903766351046
6.307577548,0.4508414479468772,5.203875947719105,1.1305239933551643
6.312366923,0.2496642445870788,4.6805191495528025,1.09466988903735
6.317143016,0.07979569443027446,4.20303964665835,1.0080969450067971
6.321905777,-0.04650674578493407,3.7891066775600555,0.867079235853675
6.326695152,-0.1178752452786901,3.454129395117342,0.6691740296198296
6.331471246,-0.12421443250787269,3.211064029795336,0.41339127684786764
6.336234006,-0.057074325741146535,3.070228801447703,0.10034656053408227
6.341023381,0.08999496578004461,3.0391206142020892,-0.26761181625777986
6.345799475,0.3211158983120272,3.1222319563762713,-0.6863117483988163
6.350562235,0.6377934859731573,3.3208711977342174,-1.1497126375840347
6.35535161,1.0386734189924922,3.632994277309026,-1.6499170526678484
6.360127704,1.5193597542875534,4.053060236154167,-2.1772475401449234
6.364890464,2.0723039818067504,4.571926800207113,-2.720395445732006
6.369679839,2.686777165369935,5.17680491661458,-3.2666458989027807
6.374455933,3.3489361286502195,5.851292511165743,-3.8021796881777403
6.379231975,4.0419931661801805,6.575507564994994,-4.312448730227431
6.384008068,4.7464964096171975,7.3263387884665825,-4.78261738147993
6.388784162,5.440724737157208,8.077828664627292,-5.19805718031364
6.393546923,6.101197023668388,8.80169850251355,-5.544878013654013
6.398336298,6.703290721402333,9.468018547454705,-5.810474487348182
6.403112391,7.221959445406217,10.046018415717546,-5.984062779353181
6.407875152,7.63253367985263,10.505024525688707,-6.05718079957259
6.412664527,7.911583216947655,10.815502236338798,-6.024123388951728
6.417440568,8.03781480309757,10.95017158066504,-5.882284894246188
6.422203381,7.9929740321566545,10.885157329508472,-5.632384122802664
6.426992756,7.762717115061523,10.601127164660634,-5.278551719878107
6.431768798,7.3374159943417725,10.084366468683648,-4.828267371010684
6.436531558,6.712859438743585,9.327735094120088,-4.292143280761701
6.441320985,5.890813247414876,8.331450840739999,-3.6835600563749695
6.446097027,4.879404569388667,7.103646548699015,-3.0181703438554908
6.450859787,3.693298780888589,5.660652911010702,-2.3132934452164893
6.455649214,2.3536426240194914,4.02696741927001,-1.587230055818289
6.460425256,0.8877546339605702,2.2348812541145446,-0.8585298843529942
6.465188016,-0.6714466510578453,0.323750212757723,-0.1452463275102599
6.469977391,-2.286274765147196,-1.6610874912278404,0.5357880715204498
6.474753485,-3.915352783066604,-3.669725165809747,1.1696335144721617
6.479516246,-5.514907471301695,-5.649392420509273,1.7438332672509407
6.484305621,-7.040237540369203,-7.546390470461748,2.2488973055739505
6.489081714,-8.447300389492408,-9.308179475238479,2.6786587974124765
6.493844475,-9.694350570454677,-10.885523824027775,3.0304883419439492
6.49863385,-10.743555072571958,-12.234589790088064,3.3053570635681044
6.503409943,-11.562506676765768,-13.318884293627729,3.5077463201660444
6.508172704,-12.125558035372173,-14.110925127709207,3.645408291232877
6.512962079,-12.414906245996121,-14.5935427024399,3.7289873103881006
6.517738173,-12.421370227090806,-14.760730920505218,3.771516031382807
6.522500933,-12.144820137478112,-14.61798902115829,3.7878034590126415
6.527290308,-11.594237719494174,-14.182125235374341,3.7937341201414174
6.532066402,-10.787406785092,-13.480524595700587,3.8054998950385266
6.536829162,-9.750252307477428,-12.549914797909672,3.838788673930937
6.541618537,-8.515863472740588,-11.434693241877095,3.907956987008905
6.546394631,-7.12324986419813,-10.184903185866414,4.025216714820321
6.551157391,-5.615890299889157,-8.853965686036585,4.199868492284567
6.555946766,-4.0401405097235585,-7.496285612466151,4.437616068368892
6.56072286,-2.4435688036941703,-6.1648541570343145,4.739996279924196
6.565485621,-0.8732883555774792,-4.9089671298135205,5.103958096732338
6.570274996,0.6256488860646093,-3.7721687123198784,5.521621169650898
6.575051089,2.0117378225096076,-2.7905152338076316,5.980239378606902
6.57981385,3.2483346940210263,-1.9912341637023727,6.462388068672647
6.584603225,4.304759344534747,-1.3918311558182959,6.946385126669774
6.589379318,5.157154616778666,-0.9996739499514502,7.406946041750636
6.594142079,5.789083017784763,-0.812057518931016,7.816061984454226
6.598931454,6.191851441149259,-0.8167312594115177,8.144078232586246
6.603707496,6.364564806769973,-0.9928473737985127,8.360938580958019
6.608470308,6.313918607204854,-1.3122708515658932,8.437550362654955
6.613259683,6.05374824559759,-1.7411764252275557,8.34721504890629
6.618035725,5.604359545405965,-2.241847127770273,8.067061717288743
6.622798537,4.991669866064126,-2.7745829519174796,7.579415566622641
6.627587912,4.246192938752417,-3.2996266913120844,6.873031615451573
6.632363954,3.4019029995821737,-3.7790171571163578,5.944125137354724
6.637126714,2.4950152776198427,-4.178287195603021,4.797135487253121
6.641916089,1.5627206625125483,-4.467934670585164,3.4451687738262424
6.646692183,0.6419126495180512,-4.624608078105343,1.9100771098857574
6.651454943,-0.23205548138274648,-4.6319639240752375,0.22214748536510281
6.656244318,-1.0265459234605725,-4.481169591371379,-1.5806089415306168
6.661020412,-1.7127079881551783,-4.171042338499293,-3.453556872821878
6.665783173,-2.2664121993228017,-3.707831550123961,-5.346895622116103
6.6705726,-2.669016010124972,-3.1046667352864987,-7.207425759049916
6.675348641,-2.9079345575634368,-2.3807074864368216,-8.98055374415537
6.680111402,-2.9769953217037606,-1.5600432257502614,-10.61244784115511
6.684900777,-2.8765622108117754,-0.6703997304263142,-12.052245154219992
6.689676871,-2.613422323281142,0.258284106038881,-13.254200666116574
6.694439631,-2.200437202252984,1.1953422224074914,-14.179665784888236
6.699229006,-1.6559694996769028,2.110862356476389,-14.79878744904981
6.7040051,-1.003105288388961,2.9770966610245915,-15.09183069893467
6.70876786,-0.2687014038306665,3.7697417253305057,-15.050048502795237
6.713557235,0.5177044694126549,4.469035301554908,-14.676051282829066
6.718333329,1.3250765667596103,5.060626414021169,-13.983661448109556
6.723096089,2.1221079765807844,5.536186110896806,-12.997270706996687
6.727885464,2.878441468875374,5.893737346334325,-11.7507462458562
6.732661558,3.5658349652009913,6.137693909511763,-10.285954052461669
6.737424318,4.159225623460453,6.278609585030772,-8.650983283925962
6.742213693,4.6376515307553134,6.332649545052945,-6.898165013218427
6.746989787,4.984996437410269,6.320806094543209,-5.081982639160262
6.751752548,5.190530525772544,6.267890092286949,-3.2569704602758502
6.756541923,5.249228635023025,6.201337421385765,-1.475692019256393
6.761317964,5.161856404020873,6.149876553826411,0.21311869372176656
6.766080777,4.9348241473552,6.142108349147811,1.7661817548580867
6.770870152,4.579817578453621,6.205052618942244,3.147004311715401
6.775646246,4.113223329146601,6.362717626966059,4.3268808237561
6.780409006,3.555375189484285,6.634748598017271,5.285536182732451
6.785198381,2.929653767101714,7.035209538092067,6.011404334229618
6.789974475,2.261477592676625,7.571549291471891,6.501551271689654
6.794737235,1.5772274213109643,8.243797834079881,6.761266085296005
6.79952661,0.9031475253204508,9.044032378898489,6.803356532752968
6.804302652,0.2642681299485614,9.956145014573607,6.6471959171249795
6.809065412,-0.316608155496573,10.955934409202479,6.317575623475078
6.813854839,-0.81981593331671,12.011533725785185,5.843422342346206
6.818630881,-1.229596987914901,13.084175501943127,5.256440787034652
6.823393641,-1.5347005932065871,14.129282091284551,4.5897417073100835
6.828183068,-1.7287908284013167,15.097857659955036,3.876511444600819
6.83295911,-1.8106451546283557,15.938145059630552,3.148773500928791
6.837721871,-1.7841367014119613,16.59749860206194,2.436285035620441
6.842511298,-1.6580012400890225,17.024412339304895,1.7656023508618803
6.847287339,-1.445398380397709,17.1706334419381,1.1593397962185443
6.8520501,-1.1632848120600847,16.993282207767493,0.6356366243357484
6.856839527,-0.8316251271647774,16.456894650924706,0.20783664338164562
6.861615568,-0.4724726172487453,15.535300997467985,-0.11562354213492378
6.866391662,-0.10895817564396602,14.213254159602418,-0.33112998544746536
6.871167704,0.23577018922161713,12.487726688496416,-0.43962966580201945
6.875943798,0.5396119150168822,10.36880299918893,-0.44621611709998527
6.880719891,0.7825361230947406,7.880105847303075,-0.3595908957251098
6.885495933,0.9475158818392375,5.058711962026154,-0.19143179449077424
6.890272027,1.0213314709264345,1.9545310507707505,0.04430031467825196
6.895048121,0.9952041124013951,-1.3708554702369267,0.33208450101580894
6.899824162,0.8652279188965143,-4.845875462225945,0.6555627287546375
6.904600256,0.6325757680884836,-8.391120903671421,0.9982354142418013
6.909363016,0.30346429356419347,-11.921905458129059,1.3441056611204227
6.914152391,-0.11112598171180194,-15.35112976131752,1.6782522510188864
6.918928485,-0.5959673228065413,-18.592338458363738,1.9873159246369583
6.923691246,-1.1323172325589244,-21.562836722265303,2.2598883194259383
6.928480621,-1.698832112421177,-24.18672411426503,2.486797961946289
6.933256714,-2.2726145141230525,-26.397701697049357,2.6612925376167036
6.938019475,-2.8303354583090674,-28.14151519824314,2.7791207784647054
6.94280885,-3.349366536033235,-29.37791292353174,2.8385204458640074
6.947584943,-3.8088553903615767,-30.08202141301409,2.840121100010221
6.952347704,-4.190683128067099,-30.24507308165993,2.7867718794224476
6.957137079,-4.480252534176362,-29.874456100566107,2.6833055831660038
6.961913173,-4.667070117910475,-28.993094807779567,2.5362510626575565
6.966675933,-4.745101038295,-27.6382059390318,2.353506305836365
6.971465308,-4.71289182898688,-25.85950897121968,2.1439846363456403
6.97624135,-4.573469882289958,-23.716995411262644,1.917246142172791
6.981004162,-4.3340398682711365,-21.278380327008655,1.6831257252919574
6.985793537,-4.005505516429976,-18.61636916111897,1.4513679735073046
6.990569579,-3.601850935645074,-15.805874090912544,1.2312775090977621
6.995332339,-3.139419397055636,-12.92130770009169,1.0313918767090036
7.000121766,-2.636129392849363,-10.034068716683912,0.859182746855782
7.004897808,-2.1106676533814386,-7.210316499953211,0.7207904130034042
7.009660568,-1.5816965769985176,-4.509109395173527,0.6207961934976916
7.014449996,-1.0671094505981873,-1.9809585758709007,0.5620372307247097
7.019226037,-0.5833614237955123,0.33317498540814905,0.5454681362687679
7.023988798,-0.14489800299151584,2.4024359364755856,0.5700738404863767
7.028778173,0.23630368439619062,4.206199114299386,0.6328377644177929
7.033554266,0.551072089338278,5.733798460988064,0.7287689454545527
7.038317027,0.7932542931752922,6.98391045416394,0.8509909539279613
7.043106402,0.959807845534594,7.963653267739417,0.9908943242072104
7.047882496,1.0507790000650243,8.687469783710124,1.1383528111363157
7.052645256,1.0691785841965542,9.17586534883522,1.282002097934561
7.057434631,1.0207692325730129,9.45407004856741,1.4095776537498723
7.062210725,0.9137791214283658,9.55069068103894,1.5083062993573548
7.066973485,0.7585577798314745,9.496410126758738,1.5653437248893523
7.07176286,0.5671891614090903,9.322782092831337,1.568247774959621
7.076538954,0.35307609896497444,9.061157994650387,1.5054748786621992
7.081301714,0.13050873037826255,8.741770790137194,1.3668846896425741
7.086091089,-0.08577232210949699,8.392988671672688,1.1442359477954924
7.090867183,-0.28100914744823746,8.04074037029251,0.8316548999111402
7.095629943,-0.44084912794318326,7.70810404626638,0.42605644789750885
7.100419318,-0.5517516571288362,7.4150437859134355,-0.07250231971105445
7.105195412,-0.6013751974443948,7.1782718902592695,-0.6605562466899382
7.109958173,-0.5789419029909367,7.011211572706983,-1.331072628806018
7.114747548,-0.47557748797721755,6.924033387607052,-2.0734145337548697
7.119523641,-0.284623838666809,6.923739561578108,-2.873439874606982
7.124286402,-0.0019210587971307887,7.0142731433519225,-3.713744683738213
7.129075777,0.3739456872126678,7.196633173954682,-4.574053568479973
7.133851871,0.841440821780265,7.468982481893245,-5.431754071993718
7.138614631,1.3959225175489378,7.826740760178478,-6.262564839648104
7.143404006,2.0295459633000954,8.26266180722814,-7.041320373285831
7.1481801,2.7312364589725915,8.766899753683967,-7.74284804744543
7.152956141,3.486743564331286,9.327074330873279,-8.342906300031979
7.157732235,4.278787193245817,9.928349399222192,-8.819146871506721
7.162508277,5.087305234496778,10.553541757431836,-9.15205906817819
7.167271089,5.8898099005835824,11.183278497336708,-9.32585071436289
7.172060464,6.661856546861684,11.796220759018206,-9.32921922211762
7.176836506,7.377624249301404,12.369369696519781,-9.155967631218322
7.181599266,8.010602174765538,12.87846692501605,-8.805425231890824
7.186388693,8.534370020621912,13.29849689759073,-8.282640927510547
7.191164735,8.923454888996007,13.604292765980029,-7.598329519495159
7.195927496,9.154241221890306,13.77124050584087,-6.768565392824423
7.200716923,9.20590513813498,13.776068663445512,-5.814233024835356
7.205492964,9.06133994911438,13.597703339376674,-4.760257905850679
7.210255725,8.70803606922343,13.218160399968086,-3.634653827415495
7.2150451,8.138876263809832,12.623439894737439,-2.467432349126219
7.219821193,7.352806443646435,11.804381775949913,-1.2894270837386645
7.224583954,6.355343210527639,10.757437771794372,-0.13108890093588868
7.229373329,5.158882209736011,9.485312125510262,0.9786918767475037
7.234149423,3.7827761352136204,7.9974242941278,2.0136835132349895
7.238912183,2.253158015651825,6.31014995306317,2.9512843237766555
7.243701558,0.6024941845831842,4.446803024431197,3.773328496487438
7.248477652,-1.1311380045427062,2.4373310125215233,4.466695836301627
7.253240412,-2.905040389947948,0.3177085239770579,5.023703860759034
7.258029787,-4.673131393234412,-1.8709709677153807,5.442269408333521
7.262805881,-6.3873959047032445,-4.08368798893473,5.725835459216578
7.267568641,-7.999499276631682,-6.272939412370976,5.883067379629082
7.272358016,-9.462504436754939,-8.390377223431743,5.927331486519049
7.27713411,-10.732620579733336,-10.388574082886064,5.875977668829744
7.281896871,-11.770904484722724,-12.222832252581018,5.749456386868333
7.286686246,-12.544832438264855,-13.85294298323465,5.570308034757717
7.291462339,-13.029663009076446,-15.244799884619447,5.362068741316486
7.2962251,-13.209518956478027,-16.371773225190243,5.148140673886906
7.301014475,-13.078130070025209,-17.21576289670428,4.950676377806139
7.305790568,-12.639196707563245,-17.76786539227383,4.7895254656157995
7.310553329,-11.906354493452813,-18.028613189925693,4.681288342370342
7.315342704,-10.902741934952333,-18.007771359576875,4.638516215265363
7.320118746,-9.660192663502254,-17.723703652749744,4.66908993633381
7.324881558,-8.218091272051844,-17.20234646685222,4.775802560260518
7.329670933,-6.621945647283423,-16.475851900255734,4.956162037132022
7.334446975,-4.921739136269673,-15.580979120133977,5.2024214975903265
7.339209735,-3.170132943298654,-14.557325475478876,5.501835624844059
7.343999162,-1.4205929758027331,-13.44549474070711,5.837133203263468
7.348775204,0.2744839487577891,-12.285299594223632,6.1871884732038245
7.353537964,1.8655719843578946,-11.11408938745201,6.527867490914138
7.358327339,3.3076789565514004,-9.965283265484388,6.8330201502262575
7.363103433,4.561810547968182,-8.867173818906457,7.075583694434231
7.367866193,5.5961867941773376,-7.8420488563039585,7.228759348425352
7.372655568,6.387173489691221,-6.905659795072919,7.267220153080361
7.377431662,6.91990376212701,-6.0670457336126224,7.168305300301747
7.382194423,7.188577845199751,-5.328703539710021,6.91315446568456
7.386983798,7.196441273199074,-4.687077159903148,6.487735136938917
7.391759891,6.955452803243494,-4.1333245342742835,5.883717115055514
7.396522652,6.485663035124534,-3.6543085247761997,5.099151560670278
7.401312027,5.8143328431231165,-3.2337495114681416,4.138917369792839
7.406088121,4.974827429813963,-2.8534720195404732,3.014905286475706
7.410850881,4.00532722004928,-2.494676009846153,1.7459197801159674
7.415640256,2.9474010883600057,-2.139165248158873,0.35728993883710936
7.42041635,1.8444906173682434,-1.7704702669830452,-1.1198070665076925
7.42517911,0.740356164417096,-1.3748115042647227,-2.6492936057632663
7.429968485,-0.32246365216914574,-0.9418587527264703,-4.191381281017587
7.434744579,-1.3041279497790925,-0.46525545528868056,-5.7039616400012
7.439507339,-2.168855859147335,0.05711008237087935,-7.144145967264456
7.444296714,-2.8861291411468106,0.6230905800189582,-8.469892887012236
7.449072808,-3.4316938204493765,1.2265132550046052,-9.641655216572175
7.453835568,-3.7883255300300194,1.8576389119999626,-10.623972732622939
7.458624943,-3.946330726952412,2.503813958037411,-11.386935835730986
7.463401037,-3.903764865410482,3.1502741869738187,-11.907447255114702
7.468163798,-3.6663589015289935,3.7810533715985493,-12.170215757180438
7.472953173,-3.247156895939493,4.379946745413887,-12.168427895674178
7.477729266,-2.6658794777298223,4.931479285749081,-11.904060912691692
7.482492027,-1.9480397617518534,5.421830999412917,-11.387820485049591
7.487281402,-1.1238490242845423,5.839675651645855,-10.63870869674153
7.492057443,-0.22695819145477825,6.176895018341788,-9.68324789947053
7.496820256,0.7069125285458752,6.429137313769704,-8.554403162053926
7.501609631,1.641399870437316,6.596195608247075,-7.290258904865677
7.506385673,2.540922436008438,6.682189558858379,-5.932513934028522
7.511148433,3.3720483256685263,6.695541456476246,-4.524863758509737
7.51593786,4.104752781838781,6.648745317774968,-3.111340348017937
7.520713902,4.713518374331946,6.557935416027508,-1.7346780048402997
7.525476662,5.1782371898333635,6.442268119136201,-0.4347703276761212
7.530266089,5.484882860493185,6.323137994303162,0.7527223444239997
7.535042131,5.625929758731278,6.223255595268109,1.797563018584313
7.539804891,5.600506919426797,6.1656199179773,2.675882846119485
7.544594266,5.414284817035333,6.172423004267088,3.370848586115518
7.54937036,5.079103613783711,6.263927489000444,3.8730327180297177
7.554133121,4.612361510389831,6.457359989748393,4.180478993531967
7.558922496,4.036190990671515,6.7658641193118925,4.298469237775639
7.563698589,3.3764587031156275,7.1975565388057445,4.239009836572215
7.56846135,2.661631178697732,7.754727822100757,4.02006797851845
7.573250725,1.9215533402900316,8.433226925673786,3.664597811401048
7.578026818,1.1861896739093263,9.222063720457431,3.1994047541919666
7.582789579,0.48437890673840306,10.103258342483452,2.65390191575153
7.587578954,-0.1573479772323794,11.051959093993379,2.0588156577523735
7.592355048,-0.7158395197119952,12.036842358092578,1.4448976691791109
7.597117808,-1.1722432784109318,13.020798612097968,0.8416984780694066
7.601907183,-1.512737275606115,13.96189833424982,0.27645221734979303
7.606683277,-1.7290452710046977,14.81462066030994,-0.22688505910090156
7.611446037,-1.8187163107383526,15.531316388407355,-0.6484106722238814
7.616235412,-1.7851582576738483,16.063865734181366,-0.9728420592803431
7.621011506,-1.6374246209498653,16.365480538093465,-1.1898638089458273
7.625774266,-1.389763652582187,16.3925909102975,-1.2942543808676432
7.630563641,-1.0609480351670937,16.106748095869474,-1.2858013820652718
7.635339683,-0.6734122209583581,15.476469197039204,-1.1690223507436368
7.640102496,-0.25223228982808554,14.478945810827668,-0.9527145112212395
7.644891871,0.1760102070117173,13.101538070517108,-0.6493618575128627
7.649667912,0.5844337933913045,11.342978359116069,-0.2744312125292607
7.654444006,0.9470818489892515,9.214215313384116,0.1544093298752964
7.6592201,1.2401147052666095,6.738838738348393,0.6181158014535075
7.663996141,1.442917259269665,3.953039631153822,1.0971046361169574
7.668772235,1.5390724156204514,0.9050764347144364,1.572068652467149
7.673548329,1.5171548270341109,-2.3457615054575687,2.0247440864422064
7.678324371,1.3713056201852962,-5.730680137497588,2.4386030426304703
7.683087131,1.1015569824315419,-9.173359760335673,2.7994490607001015
7.687876506,0.7138854709280211,-12.592326099037507,3.0958970133214314
7.6926526,0.21998446150049608,-15.90362942288725,3.3197223482134164
7.69741536,-0.36324091644229817,-19.023727082065918,3.4660690805054752
7.702204735,-1.014438839244279,-21.872448415382937,3.5335113055858156
7.706980829,-1.7088031890914073,-24.375910461384827,3.5239693963197674
7.711743589,-2.419245463425403,-26.46924956839813,3.4424890208906227
7.716532964,-3.1176848869799505,-28.09903853615565,3.2968978844030308
7.721309058,-3.776385704491399,-29.22527144825529,3.0973608499072514
7.726071818,-4.369266224862873,-29.822818421611093,2.855858167253611
7.730861193,-4.873105750828844,-29.882279016742633,2.5856135083002973
7.735637287,-5.268582969091125,-29.410194316615417,2.300498354686811
7.740400048,-5.541092010028874,-28.428611582266914,2.0144374771724016
7.745189423,-5.681298902452622,-26.974029659577475,1.7408375434180947
7.749965516,-5.685419600509138,-25.09578564892462,1.4920579521410988
7.754728277,-5.555218927393131,-22.85397150336268,1.2789400819475685
7.759517652,-5.297745878336765,-20.316991123602506,1.1104081680151765
7.764293746,-4.924833888163581,-17.55888263169653,0.9931518149018755
7.769056506,-4.452404767406926,-14.656536197570071,0.9313967536796448
7.773845881,-3.8996221047336257,-11.686935419795109,0.9267671036480147
7.778621975,-3.2879439966569914,-8.724540892711282,0.9782393743452871
7.783384735,-2.6401260167732272,-5.838919626263278,1.082185871113326
7.78817411,-1.979223605188577,-3.0927049039493126,1.2325030223471887
7.792950204,-1.3276389590884745,-0.5399494259421438,1.4208183486201367
7.797712964,-0.7062515234940973,1.7750884209405091,1.6367682884923123
7.802502339,-0.13366381715671838,3.8187083114074656,1.868337855366697
7.807278381,0.37441390229670746,5.568086711257229,2.1022520910681877
7.812041193,0.8056252003788197,7.0111752078982885,2.3244084643216305
7.816830568,1.1512687271303388,8.146219737050147,2.5203387152541525
7.82160661,1.4064404511039685,8.9809550805643,2.6756881783245205
7.826369371,1.5700249809865485,9.531538117516632,2.7767003333094338
7.831158798,1.6445497093060095,9.821288329641542,2.8106942176846945
7.835934839,1.6359197447115348,9.879305124744736,2.766522350115743
7.8406976,1.553054379924321,9.73902898429333,2.6349969440433982
7.845486975,1.4074472019314672,9.436807761196437,2.40927243623215
7.850263068,1.2126720101020423,9.010521280951998,2.0851727426496702
7.855025829,0.9838556625563514,8.498307466369003,1.6614522250891974
7.859815204,0.7371370478354022,7.9374222922301065,1.1399801536929037
7.864591298,0.4891287982340154,7.363254734970819,0.5258395284191277
7.869354058,0.25639534811016534,6.808507187055376,-0.17266747207775868
7.874143433,0.05495775112595265,6.302542129111065,-0.9441133516062723
7.878919527,-0.10016741484038018,5.870887659719812,-1.774142166597159
7.883682287,-0.19539044104537867,5.534888113950843,-2.6457703947136606
7.888471662,-0.2189296974958735,5.311481656379346,-3.539789629812093
7.893247756,-0.16115059287806907,5.213084464117062,-4.435265380951604
7.898010516,-0.014861868593656588,5.247560835577541,-5.310122403424809
7.902799891,0.22443128367527232,5.418260070666,-6.14180293513532
7.907575985,0.5583185475283571,5.724103972119143,-6.907980050763908
7.912338746,0.9853227950239332,6.159712945230244,-7.587304205008017
7.917128121,1.5007895337833896,6.715563500964402,-8.160157101308336
7.921904214,2.096833317162035,7.378175045366926,-8.609383560294487
7.926666975,2.7623484479185083,8.130328716103483,-8.920969414714234
7.93145635,3.4830923689573687,8.951325282103044,-9.084632050108908
7.936232443,4.241850533164862,9.817292393330106,-9.09429061767056
7.940995204,5.018691110830819,10.701553493062656,-8.948385903194946
7.945784579,5.791316536337555,11.575071327717446,-8.650025911794637
7.950560621,6.535516579985956,12.406978101147198,-8.206942218066485
7.955336714,7.225724341679617,13.165201799678748,-7.631252855207735
7.960112808,7.835672313754559,13.817193949582562,-6.939038406104145
7.96488885,8.339140543383035,14.330758071861442,-6.149747863311598
7.96965161,8.710783160133948,14.674970602765711,-5.28545929950214
7.974441037,8.927013465029496,14.821177504715664,-4.370027449935799
7.979217079,8.966921822366873,14.744040795389095,-3.4281559991798805
7.983979839,8.813195184142204,14.42260043303056,-2.484436458010798
7.988769266,8.453002603319328,13.841309105534162,-1.5623975274717723
7.993545308,7.878807897637041,12.990991176208608,-0.6836083386114108
7.998308068,7.089068994611381,11.869672991848685,0.1331241565499495
8.003097496,6.088783646194373,10.48323050848008,0.8724287690058041
8.007873537,4.8898433175221845,8.8458021452088,1.5228868814574505
8.012636298,3.5111612489587363,6.979920178992219,2.0773729169372825
8.017425673,1.9785470289254012,4.916322897701303,2.533207495499057
8.022201766,0.32430847581696487,2.693421987933118,2.892120740937772
8.026964527,-1.4134279282225868,0.3564148937032999,3.1600310700667453
8.031753902,-3.1916746518774644,-2.043950413712523,3.3466518765580524
8.036529996,-4.963801912130402,-4.452931418842825,3.4649446985060024
8.041292756,-6.6809865513705535,-6.813620812896615,3.530442679133659
8.046082131,-8.293845552238404,-9.068983221269743,3.5604724137380988
8.050858225,-9.754195118219364,-11.164013881347529,3.573305784665338
8.055620985,-11.016864297088194,-13.047918961262356,3.5872763573777076
8.06041036,-12.041483014951277,-14.67620651181601,3.6198973232681597
8.065186454,-12.794159381488639,-16.012572814541546,3.6870192183133907
8.069949214,-13.248961274698354,-17.030472826656286,3.8020647178439093
8.074738589,-13.389123035006087,-17.71427624511325,3.9753740046221653
8.079514683,-13.20790947566568,-18.059931757166378,4.213687644758127
8.084277443,-12.709085677385657,-18.0750896636567,4.519785467132611
8.089066818,-11.906961080040862,-17.778665144530585,4.89229090811768
8.09384286,-10.825998774978693,-17.199858543712196,5.325641911500091
8.098605673,-9.500003916396471,-16.376682454250123,5.810222613567614
8.103395048,-7.970926952786663,-15.35407538234398,6.332644937449365
8.108171089,-6.287336273684617,-14.181706088392003,6.876165607757644
8.11293385,-4.502629755892158,-12.911589751412043,7.421221528905945
8.117723277,-2.6730650745497404,-11.595646043434146,7.946064612801269
8.122499318,-0.8556944524167073,-10.28332990656644,8.427475885876174
8.127262131,0.8937090796128112,-9.01945874185206,8.841538089488727
8.132051506,2.5226495270957243,-7.842345695827909,9.164446002653355
8.136827548,3.98375177812328,-6.782328908721323,9.37333415231465
8.141590308,5.236382546591995,-5.860762336749075,9.447102053100583
8.146379735,6.2479908848385985,-5.08950662017505,9.367217271081207
8.151155777,6.995123611190387,-4.470930075071791,9.118476251022603
8.155918537,7.464084806431016,-3.9984018853882937,8.689702020279851
8.160707912,7.651222795597252,-3.6572335195923706,8.074356805680438
8.165484006,7.562842287617535,-3.4260016658491064,7.271046631674571
8.170246766,7.214753137742158,-3.27816769068546,6.283894547546623
8.175036141,6.631480091821979,-3.183895605116099,5.1227596994258064
8.179812235,5.845169483180487,-3.1119632836431177,3.8032813865423636
8.184574996,4.894238878355607,-3.0316604151821034,2.3467307669837987
8.189364371,3.821823906282333,-2.914571231161846,0.7796581171798393
8.194140464,2.674082836045576,-2.7361499936072025,-0.8666695212436355
8.198903225,1.4984237737379207,-2.4770117785725927,-2.5570370118188617
8.2036926,0.3417214531647285,-2.123879258561967,-4.253243122832269
8.208468693,-0.7514096919256826,-1.670146813514855,-5.915232397727925
8.213231454,-1.7402222406261687,-1.1160451707527204,-7.50236278414056
8.218020829,-2.589263456984845,-0.46841170857253756,-8.974764764338383
8.222796923,-3.2695723113313955,0.25990755341157895,-10.294738813729833
8.227559683,-3.759603295943075,1.0509794321562624,-11.428131029795212
8.232349058,-4.045845128048395,1.88296782997658,-12.34562243381626
8.237125152,-4.123114419907577,2.731507926110799,-13.023866576513853
8.241887912,-3.9945174297547053,3.5711896516452177,-13.446413679503545
8.246677287,-3.6710867227696493,4.377066615975355,-13.604368563086526
8.251453329,-3.1711134250756525,5.126108183082964,-13.496744241656602
8.256216141,-2.5192089104844584,5.7985182685300165,-13.130492028126426
8.261005516,-1.7451411596918072,6.3788539177920125,-12.520209562168212
8.265781558,-0.8824997268903954,6.85688893040549,-11.68754724637398
8.270544318,0.032751231102369445,7.2281818428427735,-10.660348881959997
8.275333746,0.96376998471705,7.494322737055947,-9.471573014643422
8.280109787,1.8743227282730779,7.66284897765004,-8.158047958905847
8.284872548,2.7301985335532253,7.74683554961254,-6.759116535449957
8.289661923,3.5004993179104655,7.7641806669661655,-5.3152271735936765
8.294438016,4.158756721149527,7.736621262530779,-3.866526952462722
8.299200777,4.6838357105997614,7.688525352243988,-2.451509808531421
8.303990152,5.060594035361997,7.645518590465544,-1.1057695760071897
8.308766246,5.280277038603041,7.633010126626538,0.13909745907040086
8.313529006,5.340638433927657,7.674687767624401,1.2564024487126848
8.318318381,5.2457890215372185,7.791054225890221,2.225056587293094
8.323094475,5.0057865104992265,7.998074843300232,3.0300264441907925
8.327857235,4.63599019077564,8.30600274235437,3.662542778714717
8.33264661,4.156213741781939,8.71844013031929,4.120064764629551
8.337422704,3.5897175419474983,9.23168484934554,4.406012481603132
8.342185464,2.9620880296905905,9.83439967858785,4.529290482593464
8.346974839,2.300055617537465,10.50762883057534,4.503633550921615
8.351750933,1.6303041975868433,11.225172017752246,4.3468119328091905
8.356513693,0.9783243913621389,11.954311863944252,4.079737110350336
8.361303068,0.36735951485541235,12.656875769877125,3.7255105158650386
8.366079162,-0.182512033574235,13.290599090920065,3.3084566127884463
8.370841923,-0.6551213112139659,13.81074313250742,2.8531787725892976
8.375631298,-1.038752148152713,14.171909491054539,2.3836717882983187
8.380407391,-1.3264646596686605,14.329982124707648,1.9225191951657035
8.385170152,-1.5161905666342064,14.244120661445484,1.4901973391352539
8.389959527,-1.6106023167228536,13.878723237525978,1.1045017990271853
8.394735568,-1.6167681026345906,13.205274949577918,0.7801056790927774
8.399498381,-1.5456142549761986,12.203999064767814,0.5282536985897824
8.404287756,-1.4112247401131182,10.865232626818871,0.35659109468365763
8.409063798,-1.2300142747793132,9.190456053174634,0.2691222429847533
8.41382661,-1.0198166270938596,7.1929176325772595,0.26629063878067133
8.418615985,-0.7989328540388834,4.897808260552133,0.3451694515972404
8.423392027,-0.5851854528758185,2.3419589216780206,0.4997501770977389
8.428154787,-0.3950236540710048,-0.4269471625600156,0.7213158094275162
8.432944214,-0.2427223736680382,-3.351634800787495,0.9988842176236981
8.437720256,-0.13971273272269952,-6.366934796658233,1.3197067408271572
8.442483016,-0.09407563233046488,-9.401863232963345,1.6698061495376968
8.447272391,-0.11022176658278698,-12.382005226084429,2.034536981323158
8.452048485,-0.1887718462867689,-15.23210820085913,2.399150127087797
8.456811246,-0.32664001698096506,-17.878775317546204,2.7493430111897528
8.461600621,-0.5173120401070314,-20.253140352883694,3.0717773303412352
8.466376714,-0.7512985942943263,-22.293402359316854,3.354548063798263
8.471139475,-1.0167340785319954,-23.947102529656892,3.5875895813228578
8.47592885,-1.3000835907371753,-25.173036850791497,3.763006363135552
8.480704943,-1.5869160376927507,-25.94271570825886,3.8753171617497357
8.485467704,-1.8626997825821587,-26.241304616504262,3.921603229272635
8.490257079,-2.1135784813479663,-26.068007354884237,3.901554245106232
8.495033173,-2.3270881385917117,-25.435882195314516,3.8174097766992654
8.499795933,-2.4927813253777504,-24.371111488299587,3.6737988381106907
8.504585308,-2.6027305821858904,-22.9117724415476,3.477484652807639
8.509361402,-2.6518900900529463,-21.10618049548239,3.2370256480107718
8.514124162,-2.638302504879472,-19.010894765719918,2.9623669014271092
8.518913537,-2.5631459903863125,-16.68848677978105,2.6643787894961135
8.523689631,-2.4306243906978415,-14.205179090271614,2.3543615104824456
8.528452391,-2.2477106906050626,-11.628459707843513,2.0435354452593812
8.533241766,-2.0237602117370317,-9.024772350958685,1.742537873016047
8.538017808,-1.770015333328183,-6.457372106070554,1.460946294940591
8.542780621,-1.4990278086472655,-3.9844222025936062,1.2068475357099488
8.547569996,-1.2240277484215836,-1.6573912876851749,0.9864699884798427
8.552346037,-0.9582697989243559,0.48020707878951024,0.8038940064664537
8.557108798,-0.7143868288467136,2.393708963590015,0.6608526660351963
8.561898225,-0.5037796881962839,4.0578222651589115,0.5566319923007919
8.566674266,-0.3360686582903224,5.456786246694889,0.48807626569421003
8.571437027,-0.218628456848559,6.584192143143227,0.44970028005420254
8.576226454,-0.15622438463911903,7.442500255694211,0.43390652592600865
8.581002496,-0.15076258263645537,8.042297871783289,0.43130135887196114
8.585765256,-0.20116254705033423,8.40134835736312,0.43110037668698714
8.590554631,-0.30335516968502646,8.543484843738788,0.42160954327648376
8.595330725,-0.4504047978110542,8.497402202532992,0.39076515021644176
8.600093485,-0.632749294972172,8.295398735570041,0.3267126341875415
8.60488286,-0.838547957298404,7.972114586893307,0.21840174267173917
8.609658954,-1.0541235105827935,7.563307787494493,0.056173739175690164
8.614421714,-1.2644813967157282,7.104701604751492,-0.16768459342488107
8.619211089,-1.4538872718580669,6.630929050504238,-0.4584453655563992
8.623987183,-1.606482180581457,6.1745925562213815,-0.8185265864313923
8.628749943,-1.7069142700112832,5.765449452656557,-1.2471838606166552
8.633539318,-1.740966087163251,5.429727415184571,-1.7403257401293069
8.638315412,-1.6961572924939436,5.189568772740831,-2.2904675287950154
8.643078173,-1.5623038354205592,5.062598726845802,-2.8868332016363336
8.647867548,-1.3320161232658576,5.061610158076784,-3.515609116050269
8.652643641,-1.0011203714132344,5.194356758880244,-4.160346525964136
8.657406402,-0.5689890863928798,5.4634465667300285,-4.802502816879559
8.662195777,-0.03876848424389416,5.866329335784637,-5.422104193351676
8.666971818,0.5825073877300389,6.395373264428713,-5.99850566030997
8.671734631,1.283923904661469,7.038029028865875,-6.511217947921377
8.676524006,2.0508201365104433,7.777081476547638,-6.9407659173383385
8.681300048,2.865052970121694,8.590991333119867,-7.269539285673424
8.68606286,3.705390651388528,9.454330537569215,-7.482594503501713
8.690852235,4.5480315790858565,10.338315078949755,-7.568366589193966
8.695628277,5.367240000807624,11.21143830447615,-7.519252068208145
8.700391037,6.136085769244063,12.040205565598525,-7.332029383932522
8.705180464,6.827270741173594,12.789967832304466,-7.008091484438497
8.709956506,7.414020009154283,13.425847647178783,-6.5534762200115475
8.714719266,7.871012179256865,13.913745622566724,-5.978692362423767
8.719508693,8.175319521848788,14.22140974828871,-5.298350893899049
8.724284735,8.307326170603183,14.319543309563194,-4.530621513885586
8.729047496,8.25159076901889,14.182920579656477,-3.6965424367286586
8.733836871,7.9976192166143845,13.791473130244198,-2.8192172746665505
8.738612964,7.540513617048604,13.131304157957599,-1.9229361398810711
8.743375725,6.8814653372365004,12.19558425819809,-1.0322592492958662
8.7481651,6.028063349796643,10.985280163335322,-0.1711005912092403
8.752941193,4.994393760423378,9.509668591482477,0.6381530046178185
8.757703954,3.8009125514040494,7.786590878546532,1.375455371671508
8.762493329,2.4740809904321432,5.842410678202263,2.0238191352817227
8.767269423,1.0457617066115814,3.7116467156151307,2.5699150492414686
8.772032183,-0.4476170892614688,1.4362651825821462,3.0045339015880748
8.776821558,-1.9661116512263075,-0.9353685176854887,3.322897201398138
8.781597652,-3.4674990287818943,-3.3498619000258887,3.5248076685046046
8.786360412,-4.908661433139991,-5.750456364150325,3.61463526422228
8.791149787,-6.247070718954467,-8.078923444200363,3.6011391265207435
8.795925881,-7.442316527334989,-10.277625135376423,3.4971303422515096
8.800688641,-8.457614891231783,-12.291651614528721,3.318985035342002
8.805478016,-9.261229934310462,-14.070937817744177,3.086021786264121
8.810254058,-9.827740605338901,-15.572253622371868,2.819761918333404
8.815016871,-10.139088068861797,-16.76096222706672,2.54309563890833
8.819806246,-10.185347955242019,-17.61244872333272,2.2793812143947005
8.824582287,-9.965184961831062,-18.113135887980533,2.0515078896038275
8.8293451,-9.485964246604398,-18.261025819402334,1.880955670540097
8.834134475,-8.763513029540405,-18.065732228781247,1.7868860828066078
8.838910516,-7.821544974453436,-17.547996716650534,1.7852975488562284
8.843673277,-6.690777525759979,-16.738711082498035,1.8882771973333452
8.848462704,-5.407787033314842,-15.677494769813674,2.1033778937680814
8.853238746,-4.013657371432713,-14.410900362897516,2.4331452652257206
8.858001506,-2.5524845790791466,-12.990339318903874,2.8748146837035713
8.862790881,-1.0698029953005024,-11.469833800730232,3.4201927743527683
8.867566975,0.38900211662891687,-9.903707844306961,4.055732258431453
8.872329735,1.7802338037382726,-8.344331824883167,4.762803074754348
8.87711911,3.063318483647958,-6.840028447976997,5.518156916258484
8.881895204,4.202088165136677,-5.433236930773273,6.294576605119833
8.886657964,5.1658698168515675,-4.1590156830710745,7.061696066861317
8.891447339,5.930351401211658,-3.0439438863184045,7.786971021196246
8.896223433,6.478204095068215,-2.105460219462343,8.436774910217219
8.900986193,6.799450262510712,-1.3516538724500085,8.977589125207945
8.905775568,6.891576353573614,-0.7815001113549271,9.377251452255969
8.910551662,6.7593986251938825,-0.38551109028453945,9.60622210125842
8.915314423,6.414697082608571,-0.14675330721497395,9.638823025018564
8.920103798,5.875639153241848,-0.04216690960144015,9.454403792704909
8.924879891,5.166019325114474,-0.044109646588866964,9.038386363664905
8.929642652,4.314344430767812,-0.12204011599318972,8.38314199329187
8.934432027,3.352796655134949,-0.24425132362948157,7.488656406376306
8.939208068,2.316107963433246,-0.3795664882704512,6.362944419308459
8.943970881,1.240380733378947,-0.49891428716170955,5.0221824149349406
8.948760256,0.16189008104516617,-0.5767099310002389,3.4905364087476545
8.953536298,-0.8840963151222607,-0.5919809886437637,1.7996747003541846
8.958299058,-1.8644453056529113,-0.5291920131313963,-0.01203306002018175
8.963088485,-2.749197645929635,-0.37873891075473926,-1.9006146267409125
8.967864527,-3.5124868960975797,-0.13710174447673737,-3.8178615509142326
8.972627287,-4.133307978282173,0.19333763019770647,-5.712918822455911
8.977416714,-4.596109497606374,0.6047898870177418,-7.5340401484767305
8.982192756,-4.891189010066231,1.0848261486031374,-9.23043976415888
8.986955516,-5.014876578175721,1.6173683206384775,-10.754162664895642
8.991744891,-4.969499099122067,2.1838407236735757,-12.061889371996084
8.996520985,-4.7631258536996315,2.7644153268839884,-13.116589632528967
9.001283746,-4.409104306872029,3.3392800093440322,-13.888942852319708
9.006073121,-3.925404165593607,3.8898602487360203,-14.358452682925343
9.010849214,-3.3337967070624166,4.399929329584695,-14.514199452990676
9.015611975,-2.65890477299208,4.856550103535294,-14.35519586273365
9.02040135,-1.9271656404106652,5.250801803884494,-13.890335736986307
9.025177443,-1.1657533100818895,5.57825762975574,-13.137949354790067
9.029940204,-0.4015080808035338,5.839192063943572,-12.124999365163886
9.034729579,0.3400803870231512,6.038510569302107,-10.885967157536916
9.039505673,1.035794556707309,6.185407883860182,-9.461490385540838
9.044268433,1.6654792906520313,6.292774103187778,-7.8968184258689895
9.049057808,2.212672664302345,6.376379629765483,-6.240154557202298
9.05383385,2.6650572852980075,6.453880443997327,-4.540952395889285
9.058596662,3.014720550255784,6.543693604478364,-2.8482304549158255
9.063386037,3.25822066178297,6.663799061931403,-1.2089633252405765
9.068162079,3.39646331266282,6.830527500272382,0.33339853236556144
9.072924891,3.434401525401491,7.057394840039162,1.7402356869156945
9.077714266,3.3805780134199983,7.354042222747139,2.9788564962478836
9.082490308,3.2465353923581852,7.72533584105603,4.023355235122551
9.087253068,3.046124401071852,8.17067411915053,4.855211849079234
9.092042496,2.7947438015412653,8.683540824592692,5.463622629819215
9.096818537,2.508547677908104,9.251332135039146,5.845560235189116
9.101581298,2.203656377187633,9.85547396157358,6.005570410331571
9.106370725,1.8954063249357427,10.471833422901506,5.955321203058607
9.111146766,1.5976714664088776,11.07141574047699,5.712928129920019
9.115909527,1.3222852376616898,11.621325446755835,5.302085397911791
9.120698902,1.0785869141834137,12.085959124412541,4.751038701220223
9.125474996,0.8731101094856623,12.42838636093141,4.091439109341089
9.130237756,0.7094243410333818,12.611866609210052,3.3571200401520844
9.135027131,0.5881332347065781,12.601442539437645,2.5828402894497926
9.139803225,0.5070254320797823,12.365545544641547,1.803035707459127
9.144565985,0.46136695186521404,11.877546556804225,1.0506205847583694
9.14935536,0.44431699612153885,11.11718540984302,0.35587735059234055
9.154131454,0.44744332329071124,10.071814738205283,-0.25453004422295145
9.158894214,0.46130862853309645,8.737399821478798,-0.758387623064924
9.163683589,0.4760960916179948,7.119223771472459,-1.138581010574196
9.168459683,0.4822404864890229,5.232257799573793,-1.3835420601036608
9.173222443,0.4710310347386458,3.1011686850843683,-1.4874781423404777
9.178011818,0.43515355990503163,0.7599495745887715,-1.450377881514108
9.182787912,0.36914250782975533,-1.748824623454104,-1.2777964167267533
9.187550673,0.26971804780222963,-4.375100282572979,-0.9804330973198407
9.192340048,0.13598965682065964,-7.062773883110173,-0.5735239361807437
9.197116089,-0.030484922653371885,-9.751398875827833,-0.07607917630549954
9.201878902,-0.22578804008289255,-12.378109003468776,0.4899976986308455
9.206668277,-0.4438716560496835,-14.879684630660847,1.1008695283283172
9.211444318,-0.6769132636108163,-17.194679569711525,1.731762283827186
9.216207079,-0.9157757829211423,-19.265520538521084,2.357958563472937
9.220996506,-1.1505428554959523,-21.040490526065717,2.9557497601723117
9.225772548,-1.3710967569027768,-22.47551133914447,3.5033126216400254
9.230535308,-1.5677041651300396,-23.53564929162657,3.9814803549258957
9.235324683,-1.73157543931352,-24.196280796380346,4.374383408855199
9.240100777,-1.8553658411349694,-24.443870733966694,4.669940755852741
9.244863537,-1.933591935593948,-24.276334950212345,4.860188938621636
9.249652912,-1.9629426554846627,-23.7029779635272,4.941443016457553
9.254429006,-1.9424715274377613,-22.744016709955243,4.914290208248949
9.259191766,-1.873663721039054,-21.429719686313994,4.783422912076972
9.263981141,-1.7603784130830198,-19.799207083194748,4.557322694895281
9.268757235,-1.6086731044652391,-17.898970620845827,4.247810972832899
9.273519996,-1.4265217539314778,-15.781181343309056,3.8694857058352996
9.278309371,-1.2234428058105928,-13.501859423593789,3.4390665774531004
9.283085464,-1.0100564433535593,-11.118982114762295,2.974673645199231
9.287848225,-0.7975927896948923,-8.690604495607214,2.495066079728816
9.2926376,-0.5973742356567405,-6.273062881805613,2.0188682762826438
9.297413693,-0.4202953338730884,-3.9193231535683606,1.5638104625212836
9.302176454,-0.2763225724595557,-1.6775263876934288,1.1460101278841588
9.306965829,-0.1740340008199465,0.4102272583023883,0.7793191887990618
9.311741871,-0.12021561883238835,2.308827802387539,0.47475969508698324
9.316504683,-0.11952817608076216,3.990821794042963,0.24006805601315576
9.321294058,-0.17425488304654596,5.436791886790849,0.07936432770967913
9.3260701,-0.2841376216799705,6.635456947936471,-0.007040793858657672
9.330832912,-0.44630651771633834,7.583509860796037,-0.02269287863285404
9.335622287,-0.6553050810204694,8.28521833724764,0.02510930465703641
9.340398329,-0.903210425447897,8.7518203342882,0.1255659788532396
9.345161089,-1.179845324051415,9.000749930231532,0.2647720005882015
9.349950516,-1.4730760991121545,9.054731749677904,0.4262454628864607
9.354726558,-1.7691876817342522,8.94078234719682,0.5915740475960727
9.359489318,-2.05332470180984,8.689155600389949,0.7411593990712033
9.364278693,-2.309985299639946,8.332266439642222,0.8550355813815672
9.369054787,-2.5235526108184883,7.903623522308499,0.9137339031960345
9.373817548,-2.6788476807793207,7.436797131624456,0.8991631960955759
9.378606923,-2.761686992770337,6.964444014482579,0.7954722059137941
9.383383016,-2.7594278567501784,6.517406384499826,0.5898593410351627
9.388145777,-2.6614855318626063,6.123898163327239,0.27329486348064536
9.392935152,-2.4598069835696474,5.808787913798981,-0.15887809906077027
9.397711246,-2.149287413889294,5.5929849757329535,-0.7064945014463663
9.402474006,-1.7281169815257527,5.492933122176125,-1.364296676546705
9.407263381,-1.1980463498453626,5.520214607123647,-2.1218624911361443
9.412039475,-0.564560850886346,5.681266698429326,-2.9637456768572825
9.416802235,0.1630458030066496,5.977212540109142,-3.869833367420315
9.42159161,0.9717060723281497,6.403808273485734,-4.815916815948042
9.426367704,1.844727708828189,6.951508543372537,-5.774461793208823
9.431130464,2.7620618310448397,7.605652592169658,-6.715555658914922
9.435919839,3.7006919198490413,8.346772878068277,-7.607998939985706
9.440695881,4.635142654247443,9.15102734314982,-8.42050082495407
9.445458693,5.538103810568714,9.990754941867843,-9.1229306774103
9.450248068,6.3811601344752455,10.835151715694806,-9.68757187914348
9.45502411,7.135613292939193,11.651061532749962,-10.090320443289299
9.459786871,7.773376931140189,12.403871652170878,-10.311769306798627
9.464576298,8.26792077445972,13.058498669154659,-10.338120486514601
9.469352339,8.595234978238695,13.580445410275578,-10.161871973805571
9.4741151,8.734781960002822,13.936904345996242,-9.782235054943111
9.478904475,8.670400183302437,14.09787845636291,-9.2052510397358
9.483680568,8.391123118334683,14.037286520711044,-8.443593577334587
9.488443329,7.891876998988217,13.73401665968953,-7.516062196168341
9.493232704,7.174022960156705,13.172889725795967,-6.446792239664019
9.498008798,6.245712497154636,12.34549293550507,-5.264223869529943
9.502771558,5.122029743583962,11.250844165307944,-3.9998866300567344
9.507560933,3.8248996862905544,9.895848879553272,-2.6870652543148212
9.512337027,2.3827481306912217,8.295515034345764,-1.3594167099880545
9.517099787,0.8299071123054876,6.472896775604377,-0.04960822559450503
9.521889162,-0.794231371661905,4.458745471896168,1.2119581972579072
9.526665256,-2.446300010830274,2.2908566067756606,2.3982767396026836
9.531428016,-4.080254523394278,0.013113184995301619,3.486675994615197
9.536217391,-5.648849164095842,-2.3257596716655007,4.459527672060466
9.540993485,-7.105241225340424,-4.6736987904118275,5.304701117663567
9.545756246,-8.40466562164367,-6.97701928329425,6.015751213278862
9.550545621,-9.50611157622122,-9.182280681006203,6.591839134840982
9.555321662,-10.37392684782882,-11.238225647358199,7.037396926304403
9.560084475,-10.979271826776694,-13.097702069126026,7.361557928391263
9.56487385,-11.301347371861972,-14.719471782360923,7.577385648458314
9.569649891,-11.32832761257907,-16.069807909510647,7.7009431152056
9.574412652,-11.057942666210403,-17.12378907448897,7.750252208435989
9.579202079,-10.497675669944408,-17.866212847300496,7.744197015351458
9.583978121,-9.664561673562114,-18.29207156821207,7.7014265332875445
9.588740881,-8.584599834739192,-18.406559319177166,7.639310148026415
9.593530308,-7.291812020972148,-18.224607095548652,7.5729947159573285
9.59830635,-5.8269981432990505,-17.769971970738307,7.514605319972068
9.60306911,-4.23625032510537,-17.073932994957328,7.4726234394518976
9.607858485,-2.5692944923705947,-16.173669625851915,7.451466963372431
9.612634579,-0.8777300649653482,-15.110415970496584,7.451286724356685
9.617397339,0.7867627128220887,-13.927494948054363,7.46798448909043
9.622186714,2.3741816479286038,-12.668340244991972,7.493447935732748
9.626962808,3.837866510308578,-11.374610821406778,7.515989305288803
9.631725568,5.136013069002562,-10.084493410347957,7.520966310714268
9.636514943,6.232989698581502,-8.831273937919859,7.4915567147067375
9.641291037,7.100417287678042,-7.642240290519284,7.409651951622007
9.646053798,7.717982161469887,-6.53795768849675,7.256830472426582
9.650843173,8.073961139252724,-5.531935462849188,7.015368305938143
9.655619266,8.16544744339173,-4.630681633188861,6.669242774131365
9.660382027,7.99827575325048,-3.8341206314933616,6.2050854238062065
9.665171402,7.586654076992914,-3.1363309325328363,5.613042018618763
9.669947496,6.952519129627213,-2.526544144722468,4.8875007931886865
9.674710256,6.1246404064378455,-1.9903359293748915,4.0276549902123255
9.679499631,5.13750597518842,-1.5109323194989837,3.0378718524340176
9.684275673,4.03002999174231,-1.0705527025574493,1.927847576219899
9.689038485,2.8441278267599883,-0.6517127783937676,0.7125360706193243
9.69382786,1.6232091844351217,-0.23841685791170425,-0.5881515220988008
9.698603902,0.4106424182983521,0.182821601578139,-1.949869976571341
9.703366662,-0.7517557890656691,0.6221800062884564,-3.3445694480658594
9.708156089,-1.8251521854738668,1.0859816408434497,-4.741405291858064
9.712932131,-2.7749998203081883,1.5764246790049974,-6.1077932631965774
9.717694891,-3.57216637534883,2.0915884337259616,-7.4105670971423105
9.722484266,-4.1938486414345615,2.6257048921866724,-8.617188848723266
9.72726036,-4.624241624585779,3.1696696771103254,-9.696957608462867
9.732023121,-4.85493976735802,3.71175461129008,-10.622159834937875
9.736812496,-4.885057716182879,4.238474595100261,-11.369105270433414
9.741588589,-4.721068721510803,4.735554988131477,-11.91899706506715
9.74635135,-4.3763698828941955,5.188942386942374,-12.258593943133427
9.751140725,-3.8705946599851093,5.585801606537139,-12.380635741927561
9.755916818,-3.2287037160452563,5.915444495854943,-12.284019859787602
9.760679579,-2.4798944037474966,6.170141426359045,-11.973732526069753
9.765468954,-1.65637628003777,6.3457733149901845,-11.460552884635428
9.770245048,-0.7920645148346223,6.442290387648949,-10.760558183262706
9.775007808,0.07875511916659644,6.463953189253773,-9.894464588199305
9.779797183,0.9227366264036264,6.419341317688406,-8.886840821312953
9.784573277,1.7087092765851413,6.321125740669704,-7.765231838591646
9.789336037,2.408792534160926,6.185611064416813,-6.55922809291247
9.794125412,2.9993508473788877,6.032064436260625,-5.299513416017132
9.798901454,3.4617560331409254,5.881857506618708,-4.016921866081766
9.803664214,3.782933325363256,5.757456636005216,-2.7415313553954475
9.808453641,3.955676252706723,5.681303890215832,-1.5018194910010776
9.813229683,3.978725042124068,5.674636951584157,-0.3239045766182987
9.817992443,3.8566127859791917,5.756299624966088,0.7691081801171502
9.822781871,3.599292713402254,5.941596013088611,1.7576587570969087
9.827557912,3.2215681635669062,6.241240689231453,2.6261304511401935
9.832320673,2.742353939767814,6.660454417877116,3.3631066443817863
9.837110048,2.1838033830876147,7.198250340101783,3.9614840068319217
9.841886141,1.5703395796198725,7.846949254124193,4.418445227069736
9.846648902,0.9276315154684487,8.591954894110119,4.735299398014473
9.851438277,0.28155669261057026,9.411811153303272,4.917202647172113
9.856214371,-0.3428092425686075,10.278553228349711,4.972775227867286
9.860977131,-0.9221378085447297,11.158353918102575,4.913633914479975
9.865766506,-1.4356937413173287,12.012455064053913,4.753860116195795
9.8705426,-1.8660525756937905,12.798362683813503,4.509424679717433
9.87530536,-2.1996664004059236,13.471273075812043,4.197589999446522
9.880094735,-2.4272609222864765,13.985686447189932,3.8363089482119195
9.884870829,-2.5440538443118705,14.29715484880493,3.443638462644786
9.889633589,-2.549791567847292,14.364102821313576,3.0371835489632306
9.894422964,-2.4486081363291534,14.149652596427787,2.633585190445094
9.899199058,-2.2487169173240678,13.623381366466893,2.2480632902271727
9.903961818,-1.961951550141424,12.7629363907624,1.894023497543192
9.908751193,-1.6031779636740942,11.555434833946215,1.5827346357251897
9.913527235,-1.189603636375705,9.998579427386709,1.3230815383744987
9.918290048,-0.7400136387861544,8.101428412315014,1.1213964369385796
9.923079423,-0.2739653351348015,5.88476874560988,0.9813706329118026
9.927855464,0.1890251109451805,3.381055068021364,0.9040470197720141
9.932618225,0.6302711590235152,0.6338931311888926,0.8878930543551932
9.937407652,1.032647094979078,-2.3029352250427313,0.9289528791053386
9.942183693,1.3812322831716515,-5.366888495537947,1.0210761443937613
9.946946454,1.6638424363718858,-8.488485556052611,1.1562191885870965
9.951735829,1.8714267961655002,-11.593471001862135,1.324811217782891
9.956511923,1.9983161769867328,-14.605248136471248,1.5161741214144677
9.961274683,2.042313888228806,-17.44748508094691,1.7189804132838338
9.966064058,2.0046293703105658,-20.046786314600112,1.9217307171847553
9.970840152,1.8896625494552086,-22.335313880973498,2.1132310662770797
9.975602912,1.7046548029742175,-24.253240658116255,2.2830509699002572
9.980392287,1.4592292396137325,-25.75092312178523,2.42194486116494
9.985168381,1.1648480061028703,-26.79069284877167,2.522221307378292
9.989931141,0.8342171254796152,-27.34818394112513,2.57804600945328
9.994720516,0.48066994570811666,-27.41313648967022,2.585666496242503
9.99949661,0.11755891444463885,-26.989642671515202,2.5435489908643127
10.00425937,-0.24231741942216486,-26.09583036111269,2.452421328968805
10.00904875,-0.5872289856463521,-24.763007372833822,2.3152198081842776
10.01382484,-0.9069513152518826,-23.03431578340332,2.1369420355013915
10.0185876,-1.1931105190553817,-20.96296845944055,1.9244118638310521
10.02337698,-1.4394258815756398,-18.610157519474505,1.6859661450510888
10.02815302,-1.6418443319643985,-16.04273612227175,1.431076111299964
10.03291578,-1.7985656174187374,-13.330780450866829,1.1699185976465183
10.0377052,-1.9099616418398386,-10.545138327007328,0.9129139878104684
10.04248125,-1.9783980637593601,-7.7550651465583,0.6702487586956746
10.04724401,-2.007970607345575,-5.0260375648522535,0.451400936518275
10.05203343,-2.0041721876884786,-2.417821507024432,0.26468676607789937
10.05680948,-1.9735094413415848,0.017145335308492514,0.11684648795796526
10.06157224,-1.9230883815625193,2.235014254592471,0.012686280764668973
10.06636161,-1.8601888083136986,4.201405602372606,-0.04520795197899036
10.0711377,-1.7918461446733458,5.891902134006864,-0.05667128758734979
10.07590046,-1.724457870815574,7.292166156763148,-0.02406398630697267
10.08068984,-1.663429889631251,8.397705643145462,0.04772856957660177
10.08546593,-1.6128761008970305,9.213326596541409,0.15140426348650846
10.09022869,-1.5753822533370645,9.752318196355754,0.2774609816771153
10.09501807,-1.551842807757979,10.035423399632103,0.41451746066398953
10.09979416,-1.541377053125209,10.089650714651476,0.5497296819300528
10.10455692,-1.5413280393524473,9.94698294304842,0.6692900473137042
10.1093463,-1.5473450479043556,9.643036119343044,0.75899266797001
10.11412239,-1.5535474085099041,9.215717100353535,0.8048446697907647
10.11888515,-1.552764626546567,8.70392181271884,0.7937006116387263
10.12367453,-1.5368451515439028,8.146308655529124,0.713895067129371
10.12845062,-1.4970237901908925,7.58017358825724,0.5558472464523952
10.13321338,-1.424335774633858,7.040445583705357,0.31261130524533043
10.13800276,-1.310063815960611,6.558813881815913,-0.01965325283099805
10.1427788,-1.1462030785911226,6.162992224911237,-0.4413148845422171
10.14754156,-0.9259278984117305,5.8761202499494285,-0.9490279691308329
10.15233098,-0.644043242593947,5.716298599256362,-1.535632412974079
10.15710703,-0.2974033946695315,5.696252112488926,-2.1902068973929967
10.16186979,0.11471979849031799,5.823114593648404,-2.8982818984180727
10.16665921,0.5903364680318742,6.098328920787901,-3.642212081249176
10.17143526,1.124522526790264,6.517657413254251,-4.401700758561511
10.17619802,1.709302684710861,7.071299066164334,-5.1544620676030455
10.18098739,2.3336453979843044,7.74411214820734,-5.8769996204583235
10.18576348,2.9835795192418577,8.515942374951928,-6.545473873025558
10.19052625,3.6424387403184912,9.362058072593625,-7.136624623250131
10.19531562,4.29123556330538,10.253694136864224,-7.628710193544808
10.20009171,4.909161585922401,11.158705937558743,-8.002421288997313
10.20485448,5.474205482455692,12.04233248070617,-8.24172555655834
10.20964385,5.963874393854443,12.8680650832312,-8.334598793701154
10.21441994,6.355998750908531,13.598613619679924,-8.27360089218872
10.2191827,6.629595132161612,14.19695727294058,-8.056259420632903
10.22397208,6.765756942502332,14.62746098459706,-7.685231864212555
10.22874817,6.748538847209356,14.857032844914054,-7.168229312447035
10.23352421,6.565798309710544,14.856291864071501,-6.517699261203795
10.23830031,6.209956437070942,14.600710254277425,-5.7502815000692395
10.2430764,5.678640701069196,14.071689842236125,-4.886066584964522
10.24783916,4.9751739915395685,13.257528871893593,-3.9476992301927414
10.25262854,4.108877889038505,12.15423364006469,-2.959377915813656
10.25740458,3.0951630430549035,10.766129543037561,-1.9458066913556165
10.26216739,1.9553861331761389,9.106228586686546,-0.9311557518249294
10.26695677,0.7164610567128094,7.196315525924532,0.06191559916146682
10.27173281,-0.5897783864211636,5.066722703611389,1.013125821522894
10.27649557,-1.9274562091839957,2.755774329787473,1.9052880797957792
10.281285,-3.257752618259623,0.30889418067194224,2.724847000793032
10.28606104,-4.540191407106112,-2.2226138713668195,3.4622153809601404
10.2908238,-5.73407309249127,-4.78308603230073,4.111901661818475
10.29561317,-6.799999848984074,-7.314275108532067,4.6724295270697915
10.30038927,-7.701429228495509,-9.757321262253887,5.146061080743139
10.30515203,-8.406186897175557,-12.054838395456224,5.538344571281707
10.3099414,-8.887864948568831,-14.153023659971739,5.857516278878109
10.3147175,-9.127032651671204,-16.00368791049815,6.113793456122084
10.31948026,-9.112191695159648,-17.566101304787075,6.318600321554273
10.32426963,-8.840418688588018,-18.808552244365178,6.483771316196301
10.32904572,-8.317653669834506,-19.709529929613122,6.620774838151455
10.33380848,-7.558613434352012,-20.258460195773974,6.739996755472998
10.33859786,-6.586330603281853,-20.455949386380986,6.85011691205477
10.34337395,-5.43134105690763,-20.31351985676043,6.957604513545729
10.34813671,-4.130561441068779,-19.85285114724418,7.066350538409992
10.35292609,-2.725913346461986,-19.104570608824773,7.177447731495055
10.35770218,-1.262760778073279,-18.10666396179253,7.289121605999721
10.36246494,0.2117672375688518,-16.902597836502384,7.3968093503798995
10.36725432,1.6504960348663498,-15.53926123308635,7.493377729649646
10.37203036,3.0078962274049927,-14.064840203587032,7.569466122436183
10.37679317,4.241680840515997,-12.526739809010447,7.613936842300691
10.38158255,5.314250564729509,-10.96966006612863,7.614411854512699
10.38635859,6.193937840162937,-9.433919151259405,7.557872840247827
10.39112135,6.856010392801614,-7.954098833093594,7.4313001872567845
10.39591072,7.2834054105242565,-6.558065398039656,7.222325833973417
10.40068682,7.467176339949745,-5.266395727951237,6.919874917254393
10.40544958,7.406644937088701,-4.092214208744979,6.514771827238699
10.41023895,7.109261445571034,-3.0414232125011615,6.000287515253499
10.41501505,6.590185432959309,-2.113289247894327,5.372606715685762
10.41977781,5.871608769905098,-1.3013295189743108,4.631196145680663
10.42456718,4.98185036263498,-0.5944303125436239,3.779057771190601
10.42934328,3.954259366403337,0.021880176982962837,2.8228548995484632
10.43410604,2.825969475069327,0.5640860725827715,1.772903160358748
10.43889541,1.6365512284527692,1.0493460085056934,0.6430232783682912
10.44367151,0.426611859241062,1.4942392695567588,-0.5497422429778638
10.44843427,-0.7636071334138174,1.9136630376747552,-1.785541032142965
10.45322364,-1.895585740633302,2.319935892956856,-3.042238531961084
10.45799974,-2.933788579578507,2.7221482931836802,-4.296043540074968
10.4627625,-3.8467939302604455,3.1257847879275307,-5.522209006385809
10.46755187,-4.608252851864586,3.532626106702717,-6.695781379186575
10.47232796,-5.197649120632915,3.9409228880011384,-7.792368476119966
10.47709072,-5.600837980459843,4.345817537460287,-8.788893622853337
10.4818801,-5.810349481319436,4.739977297585264,-9.664303084769834
10.48665614,-5.825450420292484,5.114390771681495,-10.400195238674593
10.4914189,-5.651967545126218,5.459272436795968,-10.981344171930045
10.49620833,-5.301883594600713,5.765015440439609,-11.39609774296941
10.50098437,-4.792726566996083,6.0231322153481,-11.636639957547844
10.50574713,-4.146780691554033,6.227124875134311,-11.699118170923157
10.51053651,-3.390154183040901,6.373232511947156,-11.583645043142845
10.5153126,-2.551743413799184,6.461009913834148,-11.294191688568054
10.52007536,-1.662135439739064,6.49370140143589,-10.838391367261766
10.52486474,-0.7524910233129759,6.478384042097607,-10.227272629238842
10.52964083,0.14655124346676532,6.425866044520666,-9.47493792532903
10.53440359,1.0059120153183918,6.350338277270407,-8.598199462437112
10.53919296,1.7990156805526307,6.268789190828513,-7.616179629094006
10.54396906,2.502613094165633,6.200205535645684,-6.549879635207677
10.54873182,3.0974585241104733,6.164592691419154,-5.4217178326232105
10.55352119,3.5688223198673574,6.181858635378312,-4.255038893826749
10.55829729,3.906826740097149,6.270614038470583,-3.073596597538764
10.56306005,4.106598658287118,6.446947181549184,-1.9010159765908892
10.56784942,4.168239399076841,6.723235914787306,-0.7602443118628667
10.57262552,4.096618538906075,7.107059474903431,0.32699589914374133
10.57738828,3.901004841602991,7.600270544287946,1.3407359999925028
10.58217765,3.594553272660053,8.198282589978417,2.263254616800352
10.58695369,3.1936719652349774,8.88961951846787,3.0795176238726705
10.59171645,2.717296886739359,9.655764388605304,3.777547965648173
10.59650588,2.1861046230784638,10.471331765915306,4.348711077059119
10.60128192,1.6216950438245685,11.304574742865569,4.787904953292692
10.60604468,1.0457755794448194,12.118223189613559,5.093647740830948
10.61083411,0.47937746684502636,12.870634972303673,5.268059672152589
10.61561015,-0.057868261368572115,13.517227242888007,5.316739935593606
10.62037291,-0.5483708468488908,14.012141037819553,5.248542458764994
10.62516229,-0.9771160765268951,14.310079889327097,5.075257499053805
10.62993838,-1.332083761062261,14.368252503753054,4.811208376749647
10.63470114,-1.604536594127873,14.148341319711117,4.472774713210972
10.63949052,-1.7891758201525774,13.618413395777052,4.077855237871533
10.64426661,-1.884164268170436,12.754687984035879,3.6452847000921467
10.64902937,-1.8910221164377907,11.543076608938517,3.194220746120413
10.65381875,-1.81440507026045,9.980416657920085,2.743517845464872
10.65859484,-1.661778347237698,8.075328438684295,2.3111064761664903
10.6633576,-1.44300290488007,5.84863826295293,1.9133967587663654
10.66814698,-1.1698526925959194,3.3333261113294945,1.564726482196688
10.67292307,-0.8554833704589405,0.5739753739890879,1.2768738816706549
10.67768583,-0.5138739345834973,-2.374276576682089,1.058655461481283
10.6824752,-0.15926305050747547,-5.4472654279303,0.9156283890838356
10.68725125,0.19439835529811023,-8.573759622201726,0.8499151903857146
10.69201406,0.5339575516189234,-11.677784792438251,0.8601651813394839
10.69680343,0.8475143019911896,-14.68122373944406,0.9416618101387901
10.70157948,1.1248019946552354,-17.506584520108408,1.0865777806287702
10.70634224,1.3574815453784297,-20.079815561221704,1.2843711649556575
10.71113166,1.5393377659648677,-22.333039210551892,1.5223069652311934
10.7159077,1.6663724628512937,-24.20707511223241,1.7860808810830422
10.72067046,1.736793879842771,-25.65363292137633,2.0605158691138623
10.72545984,1.7509079272104886,-26.63706991003487,2.3302975689542955
10.73023593,1.710922330144518,-27.13563184988549,2.580712096205864
10.73499869,1.6206796588452088,-27.14212341925447,2.79834944511469
10.73978807,1.4853386235178976,-26.66398509237029,2.971737853542513
10.74456416,1.3110248202939598,-25.72278470993449,3.091878515179388
10.74932692,1.1044723858397887,-24.353161507731205,3.152655308149057
10.7541163,0.8726769255913929,-22.601286377191013,3.1511002269205073
10.75889239,0.6225777028218188,-20.522923049525964,3.0875017392679465
10.76365515,0.3607835272016229,-18.181189831836083,2.9653502954109574
10.76844453,0.09335244571432856,-15.644130229058367,2.791122613380945
10.77322062,-0.17436916456757287,-12.982203487977502,2.5739139295540503
10.77798338,-0.43784662535624597,-10.265803267420418,2.3249347466737236
10.78277276,-0.6933981223308849,-7.562904864959735,2.0568952443021726
10.78754885,-0.9381818748428046,-4.936929437615883,1.7833059954566377
10.79231161,-1.1701364489007435,-2.444898314860895,1.5177276914542552
10.79710098,-1.3878830247034806,-0.13593281344034464,1.273005144139844
10.80187703,-1.5905994160940062,1.9498640152399036,1.060521954265054
10.80663979,-1.7778758699394337,3.782126493233926,0.8895119583632778
10.81142921,-1.9495621959081888,5.340547554337487,0.7664618910009404
10.81620526,-2.1056147806749186,6.61482029582938,0.694636577110667
10.82096802,-2.2459507988163963,7.604232664159896,0.6737533814959765
10.82575744,-2.370315694104597,8.316959932332644,0.6998266776486243
10.83053348,-2.4781689031014684,8.769108312044258,0.7651959651538061
10.83529625,-2.568591843822465,8.98356841069839,0.8587432530433763
10.84008562,-2.640221357932345,8.988739309971223,0.9662967651789823
10.84486171,-2.691211037023731,8.817182995863755,1.0712092738655132
10.84962448,-2.719222155949521,8.504265046892613,1.155090821655167
10.85441385,-2.7214452647068432,8.086831354108002,1.1986676555781788
10.85918994,-2.69465285919297,7.601962774319145,1.182732253157004
10.8639527,-2.6352829872087393,7.085840638381042,1.089143682818737
10.86874208,-2.5395531824618267,6.572746595559837,0.9018334645024831
10.87351817,-2.4036037543560322,6.094210990259302,0.6077697855379881
10.87828093,-2.223669113884291,5.678315388288175,0.19783256061546628
10.88307031,-1.996275315934862,5.349147440145168,-0.33244643955391484
10.8878464,-1.7184611439489184,5.126400303871401,-0.9823202105327034
10.89260916,-1.3880187206633443,5.025104535618382,-1.7454755101067128
10.89739854,-1.003747801169585,5.05547775662892,-2.6099215514555327
10.90217463,-0.5657157212338064,5.2228764738678946,-3.5581356316926294
10.90693739,-0.075512640417306,5.527835021843788,-4.5674715123259375
10.91172677,0.4635105221804857,5.966178469652547,-5.610824126400122
10.91650281,1.0460359543100035,6.529199181547475,-6.657531655436141
10.92126557,1.6646204030490381,7.203890145167767,-7.674483727449096
10.926055,2.309600456160583,7.973231766552623,-8.627392970996707
10.93083104,2.969077346476649,8.81653215630385,-9.482176962006191
10.9355938,3.628995306522953,9.709823616218175,-10.206389256377465
10.94038317,4.273324680084138,10.626319765172228,-10.770632224434646
10.94515927,4.884357064996445,11.536938289494355,-11.149881278155425
10.94992203,5.443114833327455,12.410893551664811,-11.324650330022253
10.9547114,5.929871646370794,13.216361270391891,-11.281932658516256
10.9594875,6.324774339252473,13.921214370464543,-11.01586067186608
10.96425026,6.608550159990473,14.493825135665173,-10.52804279420179
10.96903963,6.763277191670429,14.903924167852422,-9.82755491498091
10.97381573,6.773190190658294,15.123501464905567,-8.930585237461738
10.97857848,6.625489317489843,15.12772932982716,-7.859752380046363
10.98336786,6.3111156115534,14.895881126009652,-6.643135389624518
10.98814395,5.8254548865708955,14.412214553878853,-5.313069794439044
10.99290671,5.168931297421861,13.666783634701673,-3.9047751640116912
10.99769609,4.347453353803259,12.656140409526875,-2.4548863344522265
11.00247218,3.3726787117622807,11.383885911915396,-0.9999624163256944
11.00723494,2.262069618012798,9.8610306243156,0.42495465870398885
11.01202432,1.0387182637120795,8.10612768943008,1.7876662117043634
11.01680036,-0.26906971989014233,6.145147842108057,3.0599702453145667
11.02156312,-1.6284351344251506,4.011073455143965,4.218595362148334
11.02635255,-3.0028587834905385,1.7432001773613348,5.245879866456371
11.03112859,-4.353267353461997,-0.6138519184130234,6.130172978909958
11.03589135,-5.63931844132607,-3.0114004936820606,6.865947641622997
11.04068078,-6.820820256617223,-5.398202848931156,7.453626946474442
11.04545682,-7.859231304984125,-7.722147413092209,7.899138575837312
11.05021958,-8.719176892485459,-9.932068863516879,8.213223696303576
11.05500895,-9.369913237674348,-11.979607095412048,8.41053833467957
11.05978505,-9.78666702660524,-13.821019723435148,8.50859590520131
11.06454781,-9.95177919843853,-15.418852164476833,8.526608306061952
11.06933718,-9.85558751998299,-16.74337037888399,8.484288702071138
11.07411328,-9.496993752593909,-17.773670243328155,8.400680862342838
11.07887604,-8.88367774222306,-18.49839417351522,8.293077438988908
11.08366541,-8.031941177860316,-18.916008531758344,8.176083173275357
11.08844151,-6.966185696319954,-19.03462232610339,8.060869423316989
11.09320427,-5.718050868490693,-18.87135632299101,7.954654536565498
11.09799364,-4.325255373129901,-18.45129957770114,7.860431366758948
11.10276974,-2.8301983087353983,-17.80611534440788,7.77694949711939
11.1075325,-1.2783869170726088,-16.97237853775731,7.698946233766671
11.11232187,0.2832377372057286,-15.989741082221924,7.617607847796661
11.11709791,1.8080039790398394,-14.899028909002462,7.521231402252807
11.12186073,3.251170180705274,-13.740374936181826,7.3960481591452725
11.1266501,4.571476111601059,-12.551486486964903,7.2271622543287455
11.13142614,5.732525544837986,-11.366134035670575,6.999553224947111
11.1361889,6.703950180397575,-10.212931973042124,6.699088215866829
11.14097833,7.462316094299578,-9.114462492549189,6.313489402829293
11.14575437,7.991746159410761,-8.08677206083826,5.833204462608498
11.15051713,8.284244600596624,-7.139247609413891,5.252132874384906
11.15530656,8.33972241052361,-6.2748578851670755,4.568168443066092
11.1600826,8.165734170331412,-5.490725548519659,3.7835284859898066
11.16484536,7.776947450810453,-4.778978698842691,2.904852102815088
11.16963474,7.194375167178182,-4.127817428181176,1.9430630462145904
11.17441083,6.444408902683944,-3.5227223818762248,0.9130060010140563
11.17917359,5.557697207182557,-2.947728454606878,-0.1671222923318459
11.18396296,4.5679170979189925,-2.3866876606074805,-1.2765143716869611
11.18873906,3.510489306450863,-1.8244505454843662,-2.392623818338005
11.19350182,2.4212880950976237,-1.2479046051416993,-3.492118477803146
11.19829119,1.3353946152002392,-0.6468201562738787,-4.551861906779786
11.20306729,0.2859388426406927,-0.01446795202862113,-5.549868462377074
11.20783005,-0.6969306185800185,0.6520124419302465,-6.466179112587243
11.21261942,-1.5869166574619018,1.3514997911731474,-7.283609744187976
11.21739546,-2.362259416496343,2.0790262094079948,-7.988331363804677
11.22215828,-3.0062217591569187,2.8261399069981876,-8.570251901260185
11.22694765,-3.5073670083923396,3.5814650150318106,-9.023182007885655
11.23172369,-3.859629945579975,4.331419690991278,-9.344781789370554
11.23648645,-4.0621901802593054,5.061048141779111,-9.536300960746065
11.24127588,-4.119164497820914,5.754919180696434,-9.60214018099942
11.24605192,-4.039141291002699,6.398043302747779,-9.549274762615106
11.25081468,-3.834585335517419,6.976761769482892,-9.386591987790762
11.25560406,-3.5211447209586417,7.479564529673266,-9.124198619145432
11.26038015,-3.1168935587349513,7.89779859789396,-8.772755183792091
11.26514291,-2.6415441693306807,8.22623438370995,-8.342888312537678
11.26993229,-2.1156609475457873,8.463464065889324,-7.844722591180188
11.27470838,-1.559905263634596,8.612113176146272,-7.2875602291386254
11.27947114,-0.9943368983793779,8.678853912882333,-6.67972177150244
11.28426052,-0.437792983299346,8.674216221446049,-6.028545510920456
11.28903661,0.09263943835100359,8.612200264503626,-5.340528578478164
11.29379937,0.5820460099317742,8.50970150143339,-4.621580194475431
11.29858875,1.0179963149629054,8.385767141198377,-3.877348397325823
11.30336484,1.3907416829481465,8.260710126000772,-3.1135766620587315
11.3081276,1.6933014936134974,8.15511383477879,-2.3364466377291095
11.31291698,1.9214436552061336,8.088767024388341,-1.552867571502508
11.31769307,2.073568375359576,8.079573710264444,-0.7706809279221812
11.32245583,2.1505074622874214,8.142486266044545,0.0012411630577883936
11.3272452,2.1552540668361613,8.288511601799918,0.7530142262702926
11.33202125,2.092639832611831,8.523839613058302,1.473877000054994
11.33678406,1.9689776991284753,8.84914010153487,2.1524360290069655
11.34157343,1.7916889890637702,9.259069137411911,2.777004200248354
11.34634948,1.5689328716876478,9.742018565476805,3.336013071806697
11.35111224,1.3092548768023684,10.280133339509305,3.8184755031468014
11.35590161,1.0212689373990436,10.849610948104402,4.2144732924825625
11.3606777,0.713384595606069,11.421285764406063,4.5156439846347105
11.36544046,0.39358767231170894,11.961489138842575,4.715641440292006
11.37022984,0.06927905783679066,12.433163905130959,4.810545917085447
11.37500593,-0.25282747287176077,12.797200143920731,4.799201192979618
11.37976869,-0.5667511776897759,13.01394800948964,4.68345867200987
11.38455807,-0.8672401183642231,13.044853637890508,4.468311525979911
11.38933416,-1.1497257778226577,12.854156075977109,4.161905813928561
11.39409692,-1.4102477208836368,12.410577227726234,3.7754201971121
11.3988863,-1.6453608912223379,11.688933382742048,3.3228112631761446
11.40366239,-1.8520386284604013,10.671596274496844,2.8204274433129104
11.40842515,-2.02758403676108,9.34973402828392,2.2865008432337444
11.41321453,-2.1695609687471524,7.724267915926098,1.7405327617128392
11.41799062,-2.2757537022875693,5.806489533856816,1.2025949529803357
11.42275338,-2.3441615345345705,3.6182947262678966,0.6925744708214001
11.42754276,-2.3730311876640795,1.1920049961666739,0.22939481006656826
11.4323188,-2.3609263298122385,-1.4302361715024088,-0.16975046916009615
11.43708161,-2.3068298920599895,-4.197486329521156,-0.4901139625267536
11.44187099,-2.2102714308347298,-7.051421480337326,-0.7200237946935484
11.44664703,-2.0714687422632485,-9.928103684764405,-0.8513930338188025
11.45140979,-1.8914704681116978,-12.760036297605614,-0.8800818707378227
11.45619921,-1.6722847771606875,-15.478427758827033,-0.8060926314218443
11.46097526,-1.4169786748479798,-18.015571375860787,-0.6335857417910226
11.46573802,-1.1297333941192893,-20.307239268833385,-0.3707130488429543
11.47052739,-0.8158437965441258,-22.294984711492617,-0.029273456500875834
11.47530349,-0.4816536868474155,-23.92824916721614,0.3757951727887969
11.48006625,-0.13442416784324274,-25.166178470211207,0.8270648323748531
11.48485562,0.21786177910600166,-25.979066332432122,1.3053758402052582
11.48963171,0.5667490761484678,-26.349361735602045,1.7906681640724542
11.49439448,0.9035997699462034,-26.272198573128005,2.262846066376488
11.49918385,1.2199028317222806,-25.755429715251765,2.702636570284473
11.50395994,1.50758389050665,-24.819171987951066,3.0924042559925353
11.5087227,1.7592948083514162,-23.494891953497934,3.4168880785812745
11.51351208,1.9686657139075758,-21.824083539758302,3.663829859099809
11.51828817,2.130506433999941,-19.85660629372743,3.824468783729254
11.52305093,2.2409494265940175,-17.648766367487752,3.893881684272572
11.52784031,2.2975315315085707,-15.261230680455073,3.8711550045003915
11.53261635,2.2992164822569507,-12.7568678562471,3.759380998011686
11.53737916,2.2463637168114565,-10.198607696343947,3.5654776066787823
11.54216854,2.140651359579275,-7.647404617323692,3.2998383997727445
11.54694458,1.9849624125456986,-5.160380367906695,2.975825743722582
11.55170734,1.7832435815382022,-2.7892083409355286,2.609126894866298
11.55649677,1.5403462109893995,-0.5787868650966494,2.216998794002851
11.56127281,1.261858703804828,1.4337670419326252,1.8174327228231426
11.56603557,0.95393947068029,3.21978796810755,1.428274311592365
11.57082494,0.6231586931866218,4.75939626829552,1.066337322376479
11.57560104,0.27635589148263334,6.041509901376477,0.7465509175582808
11.5803638,-0.0794815143751731,7.063559902727069,0.48117963332806046
11.58515317,-0.43731565523776,7.830945343984868,0.2791530137672692
11.58992927,-0.790131096976535,8.356270956182886,0.1455379291093655
11.59469203,-1.1309850173914022,8.658415169654058,0.08118118203555683
11.5994814,-1.4530388115140664,8.76147812786044,0.08254332362073412
11.6042575,-1.7495772179587603,8.693658394081226,0.14173691004710967
11.60902026,-2.014022549622196,8.486103870955116,0.24677401483568165
11.61380963,-2.239952485684742,8.171777305960042,0.38201897910981497
11.61858572,-2.4211300084704472,7.784370179973181,0.5288334622644333
11.62334849,-2.5515533884657398,7.3572913594741,0.6663921741655343
11.62813786,-2.625532682716806,6.922749242705428,0.7726395312859143
11.63291395,-2.6377971722217217,6.510938816306692,0.825350158245962
11.63767671,-2.58363574629793,6.149338548841394,0.8032499238238698
11.64246609,-2.459069671667547,5.86211675447677,0.6871493575804826
11.64724213,-2.261054613961012,5.669643205247675,0.46103818542072766
11.65200489,-1.9877062537024124,5.588099458808755,0.11308871105216517
11.65679432,-1.63854134152627,5.629180577363087,-0.3634828448134949
11.66157036,-1.2147235876295233,5.79988150493949,-0.9697440052202553
11.66633312,-0.7193014876837748,6.102363101510974,-1.700603222579133
11.6711225,-0.15742323475732106,6.533895368941112,-2.544628399795415
11.67589859,0.46348753608247806,7.086878349644727,-3.484147923891447
11.68066135,1.1336120801843537,7.748944118022665,-4.495643295993066
11.68545072,1.8406896143719316,8.503145814575658,-5.5504293988994275
11.69022682,2.570058530786807,9.328241428181924,-6.61560497616872
11.69498958,3.30479884190018,10.199080707058199,-7.655242536246669
11.69977895,4.025985576980433,11.08710294545685,-8.631774183089776
11.70455505,4.713058490880846,11.960951317151268,-9.507518358466506
11.70931781,5.344308213079751,12.787205879038261,-10.246282701910435
11.71410718,5.8974730356807,13.53123243191698,-10.814970715196601
11.71888328,6.350434152800481,14.158138299036976,-11.185115153876543
11.72364604,6.681990619671121,14.633819074658996,-11.334259510631089
11.72843541,6.872688949025817,14.926072914393655,-11.247111041963384
11.73321145,6.905676504671107,15.005751503682877,-10.916395171214434
11.73797427,6.767543140438298,14.847910084435494,-10.343352938604589
11.74276364,6.4491123386802816,14.432913517863131,-9.537841653900621
11.74753968,5.946141793250954,13.747451827494876,-8.51802360186249
11.7523025,5.259894090008257,12.785417198176287,-7.30965539733205
11.75709187,4.39754078569106,11.548594990608418,-5.94501688294462
11.76186791,3.3723676462486623,10.04712398770544,-4.461539997569213
11.76663067,2.2037550046470544,8.299685975001143,-2.900213630534119
11.77142005,0.9169150816263654,6.333392061725706,-1.303850144068775
11.77619614,-0.45762243171478145,4.183342954222986,0.284696744831609
11.7809589,-1.8847744204993038,1.891852610292714,1.8242743591250998
11.78574828,-3.325904087768026,-0.4926609166091984,3.2770513996968225
11.79052437,-4.740030077371872,-2.91709747019791,4.609943593123266
11.79528713,-6.085206290148767,-5.325372237170035,5.795784205085842
11.80007651,-7.3200219764881815,-7.660333371256274,6.814192707346969
11.8048526,-8.40516130428421,-9.865827169534066,7.652109627965187
11.80961536,-9.304953319054405,-11.88882258393617,8.303981188888399
11.81440474,-9.988837888898548,-13.681494440097126,8.771593720393039
11.81918083,-10.432671881752908,-15.20315723920788,9.063574786589395
11.82394359,-10.619803561809784,-16.42194084880494,9.194594553758378
11.82873296,-10.541852817378503,-17.316107440395328,9.18431567691386
11.83350906,-10.199150273033764,-17.874926130913398,9.056151441163117
11.83827182,-9.600808315709271,-18.09904665580828,8.835899350007256
11.84306119,-8.764419300751523,-18.00034354376588,8.550320792463202
11.84783724,-7.715398107363898,-17.601234733780792,8.225737167022057
11.85260005,-6.486005628333152,-16.9335104914978,7.886709242533283
11.85738942,-5.1141054096725,-16.036737298082492,7.554859910206815
11.86216546,-3.641717019107155,-14.956325126648768,7.247891240027903
11.86692822,-2.113436807754346,-13.741363903462512,6.978835524489009
11.87171765,-0.5747996692669898,-12.442345317699111,6.755567529396899
11.87649369,0.929345638955404,-11.108889339326744,6.580592177433988
11.88125645,2.35637979946286,-9.787591094804265,6.4511089232393095
11.88604583,3.667315056900908,-8.520093765062992,6.359341588812148
11.89082192,4.828006924227353,-7.341477819048766,6.29311082258176
11.89558468,5.810138460640463,-6.27903727243146,6.236616025321244
11.90037406,6.591952943602427,-5.351490990991504,6.171384940258468
11.90515015,7.158723242171288,-4.568652670989073,6.077342488555639
11.90991291,7.502957611120688,-3.9315583930116094,5.9339461503246484
11.91470229,7.624351528607605,-3.433026886740895,5.7213334681824275
11.91947838,7.529503404844791,-3.058606096590273,5.421428149067608
11.92424114,7.231418486453599,-2.787841413025513,5.018954604228987
11.92903052,6.748830170659268,-2.595786943485862,4.502316258931971
11.93380661,6.105371369084727,-2.454672052172209,3.8643001814585207
11.93856937,5.3286306715871055,-2.3356313521681646,3.102579145806705
11.94335875,4.449128997965887,-2.2104072936654897,2.219991793949284
11.94813479,3.4992523161203617,-2.0529400803583933,1.22459172668898
11.9528976,2.5121749436681253,-1.8407692633489323,0.12946672684904093
11.95768698,1.5208059961349247,-1.5561842455073167,-1.0476605124228284
11.96246302,0.5567887724204226,-1.18707621164108,-2.2850292418514155
11.96722578,-0.35042057076714134,-0.7274607711606907,-3.5576056788951047
11.97201515,-1.174372578704231,-0.1776579665138824,-4.837979674622206
11.97679125,-1.8923238818906771,0.45586657153307614,-6.097351040055157
11.98155401,-2.4858020472012754,1.1609794049804283,-7.306559917249291
11.98634338,-2.9410254495977806,1.920641613198231,-8.437113941261924
11.99111948,-3.2491714269334997,2.713909031827656,-9.462165514696338
11.99588224,-3.4064895454207558,3.5171142606707213,-10.357395637035125
12.00067161,-3.4142603666913076,4.305167842751572,-11.101766755950148
12.0054477,-3.278603825428298,5.052912776153935,-11.678116140383025
12.01021046,-3.0101452542693536,5.736466410688652,-12.073572805135115
12.01499984,-2.623551111975199,6.334486522134247,-12.27979382982902
12.01977593,-2.136950323003935,6.829303550293766,-12.293028379625774
12.02453869,-1.5712605303762361,7.207868208839885,-12.114028224423201
12.02932807,-0.9494412820642231,7.462472533759279,-11.747830803145066
12.03410416,-0.2956981191880457,7.591212598491438,-11.203444245485281
12.03886692,0.3653372831594449,7.598172291527687,-10.493463321864388
12.0436563,1.0094253034443488,7.493319418383273,-9.633641737634818
12.04843234,1.6135094575062796,7.29211758483475,-8.642440590728805
12.05319515,2.1564557423883493,7.0148693966973985,-7.540566360874834
12.05798453,2.6197169940453455,6.685817983135985,-6.350505600262851
12.06276057,2.9879010256513516,6.3320442373921555,-5.0960584655079435
12.06752333,3.249224011820781,5.982206051661601,-3.801870022886676
12.0723127,3.3958340352727467,5.665172855790668,-2.4929571789913076
12.0770888,3.42399393717499,5.408613670326187,-1.1942300199821856
12.08185156,3.334117534913165,5.237599430975364,0.06999122729075977
12.08664093,3.130658701264525,5.1732803928969275,1.2764592088581976
12.09141703,2.821858462628651,5.23169695584935,2.403474816200461
12.09617979,2.419360869318471,5.422777379542172,3.4313446392804665
12.10096916,1.9377136366905925,5.749568825450232,4.342808461235691
12.10574526,1.3937742099101975,6.207739305849981,5.123424048343284
12.11050802,0.8060457550310414,6.785377838647879,5.76189680739828
12.11529739,0.19397042588741886,7.463108813889471,6.250343056033281
12.12007348,-0.4227910830259282,8.214524684008643,6.584477417233524
12.12483625,-1.0250643524398302,9.006928983778133,6.763716927757528
12.12962562,-1.5948221320270646,9.802369736226604,6.791196616590575
12.13440166,-2.1157754394023507,10.558931861999616,6.6736934306540325
12.13916448,-2.5738726644478502,11.232246625008228,6.421457412186879
12.14395385,-2.957689217110969,11.77716674817972,6.047950979592119
12.14872989,-3.258695795812258,12.149547939300236,5.569499093499909
12.1534927,-3.4713993672279786,12.308071484840603,5.004855099326961
12.15828208,-3.5933570829504338,12.216038584817827,4.374689235834471
12.16305812,-3.6250692729838234,11.843065462939293,3.7010092836199826
12.16782088,-3.5697630443104607,11.166609186331016,3.0065256647294603
12.17261031,-3.433082611064934,10.173257689097438,2.313976503375546
12.17738635,-3.222706074868704,8.859723755568174,1.645431622724665
12.18216244,-2.9479108045085924,7.233491643782806,1.0215979410027087
12.18693848,-2.6191107587963107,5.313076494764319,0.46115185755490845
12.19171458,-2.2473890770503435,3.1278704548251737,-0.01987347890238773
12.19647734,-1.8440481425725908,0.717565179252324,-0.40861716247849744
12.20126671,-1.4201972647709717,-1.8688424425218622,-0.6958079029711536
12.20604281,-0.986395245259327,-4.574436609081998,-0.8760454886848638
12.21080557,-0.5523614284785353,-7.336118474971244,-0.947928603739035
12.21559494,-0.12676440307779774,-10.086632270088236,-0.9140202910154694
12.22037104,0.2829075707433436,-12.756807361902334,-0.7806524270524263
12.2251338,0.670395821296459,-15.277929520386362,-0.5575799382027798
12.22992317,1.030647151297573,-17.584145702189716,-0.257502857357567
12.23469927,1.3597284056258347,-19.614802121472195,0.10452055384771307
12.23946203,1.6546959038311728,-21.31661581935239,0.5117427955885651
12.2442514,1.9134383624372588,-22.64558549213336,0.9464484356166691
12.24902744,2.134512135321007,-23.568557757431957,1.3906953710866596
12.2537902,2.316985474770772,-24.06437995540241,1.8270421877679646
12.25857963,2.4603045603030638,-24.12458942926812,2.2392281875008235
12.26335567,2.564189162694558,-23.753611038900797,2.6127753829839238
12.26811843,2.6285609536154366,-22.96845807008103,2.9354864511840733
12.27290786,2.653503332858439,-21.797955185761797,3.197818593637055
12.2776839,2.6392486296749635,-20.281524174883312,3.39311988663634
12.28244666,2.5861868596573454,-18.467592719839256,3.5177217159117506
12.28723604,2.494889917388651,-16.411702168968507,3.570888087004886
12.29201213,2.3661458728554745,-14.174401560877714,3.5546296749206525
12.29677489,2.200999312312186,-11.819021415622329,3.473396987692589
12.30156427,2.000794816864832,-9.40942198678187,3.3336725824178086
12.30634036,1.7672214634718522,-7.007807076790577,3.1434866851205787
12.31110312,1.502356770745506,-4.672686809740105,2.911883736942744
12.3158925,1.2087089081027333,-2.4570617631711134,2.6483691968137437
12.32066859,0.8892561575600099,-0.40688745487154176,2.362366210466235
12.32543135,0.5474824232368014,1.4401367884751937,2.06271042149437
12.33022072,0.18740703304897818,3.055426275432708,1.7572083304191637
12.33499682,-0.18639365889124407,4.420004110400112,1.452280423538108
12.33975958,-0.568776059502422,5.524631467315194,1.152705095982631
12.34454895,-0.9540341834492128,6.369591031363047,0.86147351759565
12.349325,-1.3359233881819983,6.964151484415176,0.5797593780851199
12.35408776,-1.707706643992926,7.325750534377094,0.30700123756247993
12.35887718,-2.0622264869620737,7.478941214248364,0.04108932663127472
12.36365322,-2.3920050146037988,7.454150955612358,-0.2213566129938109
12.36841598,-2.6893732229556515,7.286305364497272,-0.4846362251728187
12.37320536,-2.9466296698971157,7.01336889739906,-0.7535652420155514
12.37798145,-3.156226925384583,6.674853035086447,-1.0330431606898176
12.38274421,-3.3109826046922195,6.310339422714528,-1.3276159485059167
12.38753359,-3.4043100675315365,5.958061164741433,-1.641057561006396
12.39230968,-3.4304622172622135,5.653580418001756,-1.9759927411529052
12.39707244,-3.384780384608343,5.428594972197866,-2.3335813293309737
12.40186182,-3.263939167030343,5.309900934933456,-2.7132812651241394
12.40663791,-3.0661774155640575,5.318533156010771,-3.1127036765452862
12.41140067,-2.791505326087393,5.469099767657364,-3.527568974605128
12.41619005,-2.441877720031044,5.769322269678603,-3.95176776311753
12.42096614,-2.021323975303446,6.21978799966377,-4.377524781709191
12.4257289,-1.5360256261450913,6.8139175977954265,-4.795658293330347
12.43051828,-0.9943334132727608,7.53814614197078,-5.195921680028757
12.43529437,-0.40671661845294377,8.372312880462927,-5.567408936393946
12.44005713,0.2143610390743425,9.290250799003426,-5.899001636342721
12.44484651,0.854642755489825,10.260563518029107,-6.179832117947466
12.44962255,1.4983586422171844,11.247573153592873,-6.399736347380858
12.45438531,2.1285828685914585,12.212418778867827,-6.54967048443216
12.45917474,2.727663117109126,13.11428105925042,-6.622068021988587
12.46395078,3.2777139004000735,13.911704643072884,-6.611119926628593
12.46871354,3.761161581590039,14.563986114767756,-6.512968224036497
12.47350296,4.16132539305895,15.032591820409415,-6.32581255596565
12.47827901,4.463015584754418,15.282566648977719,-6.049937297841481
12.48304177,4.653127225126434,15.283891933589526,-5.687672204140517
12.48783114,4.72120628013873,15.012748216592032,-5.243301661890574
12.49260724,4.659963570564045,14.452637057404534,-4.722936830083823
12.49737,4.465712205843839,13.595315801344038,-4.13436207535994
12.50215937,4.1387052149691534,12.441500717144393,-3.4868632129595536
12.50693546,3.683352373100511,11.001297516525362,-2.7910410919136863
12.51169822,3.1082986363364626,9.29432423011509,-2.058610737720442
12.5164876,2.4263510972687725,7.349499816690623,-1.3021839864603677
12.52126369,1.6542468812292364,5.20448264725252,-0.5350324633771186
12.52602645,0.8122607757673699,2.904755883078487,0.22917213262179406
12.53081583,-0.0763416083595899,0.5023713530368735,0.9766423087266184
12.53559187,-0.9859920218116841,-1.9456206998409349,1.693783507608373
12.54035468,-1.8896286919115997,-4.37901231261647,2.3675246799916607
12.54514406,-2.759599037639703,-6.736489082081286,2.985665378772478
12.5499201,-3.568622438866511,-8.957816986436125,3.5372313257694894
12.55468291,-4.2907743294552665,-10.986076478533292,4.012827828589468
12.55947229,-4.902449101193998,-12.769845498295002,4.404978157217322
12.56424833,-5.383257388570409,-14.265227500102384,4.708432183977669
12.56901109,-5.716813830847246,-15.437621019292626,4.920429434516465
12.57380046,-5.891374979351892,-16.263134867316705,5.040900395864417
12.57857656,-5.900293979673323,-16.729568112152577,5.072590606348777
12.58333932,-5.742268743326657,-16.83689579880648,5.021093702775951
12.58812869,-5.4213725265813455,-16.597228073198135,4.894782157275105
12.59290479,-4.946868691413164,-16.03423958427635,4.704627878362278
12.59766755,-4.33282350006927,-15.18209528863131,4.463909197323079
12.60245692,-3.597541046385932,-14.083925891202439,4.187805981799615
12.60723302,-2.7628522828141238,-12.789929387526978,3.892890538277194
12.61199578,-1.8532953543698711,-11.355193279078579,3.59652820128552
12.61678515,-0.8952271231286931,-9.837344246877505,3.316207485880342
12.62156125,0.08409395056607696,-8.294138064203324,3.068824776286758
12.62632401,1.0574151902816677,-6.781102373303995,2.8699522589819986
12.63111338,1.9983524347974326,-5.349339048663987,2.7331199627838356
12.63588942,2.882177963207882,-4.04358189778372,2.6691433495329244
12.64065224,3.686509156487113,-2.9005902816084683,2.6855270385979892
12.64544161,4.391879736732223,-1.9479408683591013,2.785973110207787
12.65021765,4.982181984715852,-1.2032592336660615,2.970019169038553
12.65498046,5.444974814446368,-0.6739114681003779,3.2328271010509058
12.65976984,5.771658639034604,-0.3571543851836962,3.565138365068616
12.66454588,5.957523274711406,-0.24072227836368243,3.9534058787029487
12.66930864,6.001679448437351,-0.30380928837359317,4.380106248175185
12.67409802,5.906887666590481,-0.5183900564253814,4.824229416427688
12.67887411,5.679300260160732,-0.8508081039950178,5.26193592648338
12.68363687,5.3281334279513315,-1.2635518169604376,5.667365093652675
12.68842625,4.8652861786930135,-1.7171323651779993,6.013570658663018
12.69320234,4.304922364811957,-2.171976494562774,6.273554200382884
12.6979651,3.663030656532032,-2.5902498003816907,6.421360995149134
12.70275448,2.9569754985012238,-2.9375325176511784,6.433198398590023
12.70753057,2.2050500095706718,-3.1842795348420685,6.288533461874288
12.71229333,1.4260396003281701,-3.3070085859353058,5.971124623604272
12.7170827,0.6388029178804902,-3.2891746574631013,5.469942156342719
12.7218588,-0.13812533103310737,-3.121703803898161,4.779933755303427
12.72662156,-0.8869069923430668,-2.8031750788651904,3.9025953172123327
12.73141093,-1.5907473751029124,-2.3396545110053806,2.8463125553123154
12.73618698,-2.234216406813845,-1.7441994069979987,1.626446531930091
12.74094979,-2.803544461399651,-1.0360642531913389,0.2651452935669194
12.74573916,-3.286893076121332,-0.23965069989038645,-1.209125673593093
12.7505152,-3.674599856258166,0.6167467703816929,-2.7623298031302634
12.75527796,-3.959395324689641,1.5023410929585803,-4.355865885425323
12.76006739,-4.1365874873938875,2.3853360514030797,-5.9478051940621866
12.76484343,-4.204207715036175,3.2344283121773056,-7.494317491405778
12.76960619,-4.163109489784794,4.020264115266744,-8.951232485482283
12.77439557,-4.017009950470596,4.716789665126102,-10.275673142675785
12.77917166,-3.7724633025886107,5.302439482110783,-11.427689265429914
12.78393442,-3.438755363569601,5.761114228032375,-12.371814792971072
12.7887238,-3.027710113980551,6.0829085549302695,-13.078471539445156
12.79349989,-2.553402401926135,6.26455999984819,-13.525146933249006
12.79826265,-2.031775989396929,6.309601439796591,-13.69728468255156
12.80305203,-1.4801726172876233,6.228211661776116,-13.588844569885804
12.80782812,-0.9167848877074356,6.0367707121468825,-13.202508384309898
12.81259088,-0.3600524369957675,5.757138410346662,-12.549530214873506
12.81738026,0.17197383571257843,5.4156853291329385,-11.649248534740277
12.82215635,0.6622713324064174,5.042115283289114,-10.528293518308372
12.82691911,1.0954595994780891,4.668126591366836,-9.219535532779311
12.83170848,1.4583594925234231,4.32596577669523,-7.760829745694472
12.83648458,1.7404709784020873,4.046931701116637,-6.193617392571081
12.84124734,1.9343466543563652,3.859890201002643,-4.561446602922605
12.84603671,2.0358430674087025,3.7898590468150175,-2.9084749976627915
12.85081276,2.0442378785981234,3.8567205154264035,-1.2780128275798133
12.85557557,1.9622075167023818,4.0741141952643485,0.2888404067781938
12.86036494,1.795666842537335,4.4485560766244046,1.7544206509016576
12.86514098,1.553479099731746,4.9788218276575815,3.085549179652259
12.86990375,1.2470506592034019,5.655622784272927,4.254381338887778
12.87469312,0.889830413872579,6.461592961565483,5.239037749701621
12.87946921,0.4967378706441822,7.371594666659419,6.024011130643861
12.88423198,0.08354683774979424,8.3533393524437,6.600350635944438
12.88902135,-0.33374697262927916,9.368309455967484,6.965633213778037
12.89379744,-0.7395461248318975,10.372956355681847,7.1237377378944995
12.8985602,-1.1192325209098544,11.320139501582593,7.084442453477925
12.90334958,-1.4596850969427917,12.160762476076608,6.862869604275017
12.90812567,-1.7497136450825088,12.84555349790572,6.47880305954363
12.91288843,-1.9803928509940303,13.326930962124482,5.955905494646439
12.91767781,-2.1452858601134164,13.560889293077025,5.320861416730562
12.9224539,-2.240552285966164,13.508836944031701,4.602471328171251
12.92721666,-2.26494129227962,13.139317056244638,3.8307208672620034
12.93200604,-2.2196759469044345,12.429542305999862,3.035847144795338
12.93678213,-2.1082401783636078,11.36667898135583,2.2474229928869
12.94154489,-1.9360840965133495,9.94882143079311,1.4934787306068782
12.94633427,-1.7102669432501993,8.185606719198354,0.7996805355619628
12.95111031,-1.4390593532742733,6.098430522706314,0.1885846433369439
12.9558864,-1.1315278179811772,3.7202387958989425,-0.3210127975309063
12.9606625,-0.7971241948421456,1.0948852352347225,-0.7146097305115358
12.96543854,-0.44530178384166363,-1.7239384159073536,-0.9823955284139105
12.9702013,-0.08517695869355603,-4.6741742464309555,-1.1194925822392123
12.97499067,0.2747483000459546,-7.687229230836002,-1.1260268593451694
12.97976677,0.6267922409238778,-10.690105227638634,-1.0070186369649001
12.98452953,0.9642222627488973,-13.607752244661977,-0.7720931609268965
12.9893189,1.28130768441163,-16.365556543881798,-0.4350201467582422
12.994095,1.573303379496214,-18.891866021494522,-0.013099420427856091
12.99885776,1.8363771064504677,-21.12045059175741,0.473583063559523
13.00364713,2.0674978906642707,-22.992795571179617,1.0029990290816615
13.00842323,2.264305187402136,-24.460131483498348,1.5520873814859142
13.01318599,2.424978193391118,-25.485114172172953,2.0976923158591907
13.01797536,2.548121576917896,-26.043084246473693,2.617491637192704
13.02275145,2.632678761884455,-26.12285396659635,3.0908773953725164
13.02751421,2.677877910133661,-25.726991525060125,3.499753091679243
13.03230359,2.6832100952488998,-24.871595852627408,3.8292152266392434
13.03707968,2.648434751388837,-23.58557810831925,4.068091632075917
13.04184244,2.5736048698791714,-21.909487635105986,4.209314861158782
13.04663182,2.4591037631227555,-19.893939317569664,4.250115884721883
13.05140786,2.3056861512096125,-17.59771506236881,4.19203116793186
13.05617062,2.114518072491647,-15.08562379581092,4.040724340301839
13.06096005,1.8872119643338632,-12.426211461981268,3.8056316234678285
13.06573609,1.6258549298863758,-9.689414894623555,3.499447633760861
13.07049885,1.3330297009575895,-6.944251344233818,3.137474881221514
13.07528823,1.0118290278349757,-4.256629327833148,2.736865934292618
13.08006432,0.6658649356912945,-1.6873569624594125,2.3157915232964714
13.08482708,0.2992743238833545,0.7095882079454507,1.892570666989445
13.08961645,-0.08327822805066701,2.8884778757188467,1.4848001991350963
13.09439255,-0.4766006971737885,4.812905138019164,1.1085208718368482
13.09915531,-0.8749785502915135,6.456490490077855,0.7774555663754025
13.10394468,-1.2721874751307571,7.803216836667928,0.502352127195695
13.10872078,-1.6615182413687177,8.84740254773527,0.29045907030210916
13.11348354,-2.035818800544416,9.593333876074288,0.1451570694721903
13.11827291,-2.3875589043666143,10.054588437067972,0.06576289776396259
13.12304901,-2.7089220377536427,10.253089693138701,0.04751563415681615
13.12781177,-2.9919283610001934,10.217938399114583,0.08174769425135298
13.13260114,-3.2285907097373845,9.984070783598668,0.15623587964172678
13.13737718,-3.411103613047163,9.59079499422577,0.2557204330863122
13.14214,-3.532062899510542,9.080257218605716,0.3625732941664949
13.14692937,-3.5847109554973406,8.495887161588914,0.4575906030768617
13.15170541,-3.563200297782144,7.880869513495301,0.5208791877770731
13.15646817,-3.462866036236767,7.2766840068424825,0.5328024438502161
13.1612576,-3.280496202131697,6.721751946520839,0.4749478111626689
13.16603364,-3.0145879101832094,6.250221992970258,0.33107609488846723
13.1707964,-2.665576943169878,5.890922713324105,0.08801228514104073
13.17558578,-2.236028559221497,5.666504161492708,-0.26356160817650487
13.18036187,-1.7307780319964576,5.592785604353094,-0.7284487997526178
13.18512463,-1.1570105429662922,5.678321520848186,-1.3064481928372609
13.18991401,-0.5242714884784669,5.924193174440364,-1.992060707508518
13.1946901,0.15559997867434405,6.324028385935983,-2.7744121906981816
13.19945286,0.8686192796186368,6.864247576422032,-3.6374054614995655
13.20424224,1.5988893208648265,7.52452964696363,-4.560104906187686
13.20901833,2.3289179778232074,8.278486744445617,-5.517347235057015
13.21378109,3.040017122020104,9.094532382775009,-6.480561902552396
13.21857046,3.7127768845463387,9.936922731557033,-7.418774663467937
13.22334656,4.327605373869854,10.766946175882769,-8.299758202674262
13.2281226,4.865320490509778,11.544231561798304,-9.09128515716273
13.23289869,5.307776938297816,12.228140993650713,-9.76243158385992
13.23767474,5.6385082002532405,12.779208812117085,-10.284873467014808
13.24243755,5.843360342094347,13.160584670970504,-10.634115690343465
13.24722692,5.911092279327111,13.339435712434808,-10.790592619384922
13.25200296,5.833915892955334,13.288261036472795,-10.740582815344908
13.25676573,5.607949428796604,12.986071310643483,-10.476888098034173
13.26155515,5.233559210521354,12.419387744358017,-9.999239120524972
13.26633119,4.71556786866968,11.58301786345228,-9.314404651884647
13.27109395,4.0633118369264185,10.480570516549584,-8.43599811742117
13.27588333,3.290536471591198,9.124679193589264,-7.383991072929059
13.28065942,2.4151234836366746,7.536910906540956,-6.183958216859696
13.28542218,1.4586521437527742,5.747347457082441,-4.866091625755652
13.29021156,0.4458026790819622,3.7938367743675965,-3.46403248262296
13.29498765,-0.5963827669111786,1.7209239848842572,-2.0135759859754665
13.29975041,-1.6393594246537697,-0.4215152615778905,-0.5513089773831855
13.30453979,-2.654030698778184,-2.5799032736783563,0.8867597782233319
13.30931588,-3.6117556571332554,-4.698801142856011,2.266519211240441
13.31407864,-4.485373123747141,-6.722899330821461,3.5569726528252166
13.31886802,-5.2501982976172625,-8.599083386514307,4.731304976541524
13.32364406,-5.8849455857411215,-10.278489967837215,5.767760791110014
13.32840687,-6.37253137199388,-11.718461031572557,6.650302425582868
13.33319625,-6.700713305711503,-12.884300870521185,7.369025336768747
13.33797234,-6.862528983789647,-13.750742991261756,7.920318197016046
13.3427351,-6.856507009587293,-14.303042773349091,8.306765173398581
13.34752448,-6.686637079586692,-14.537627774822786,8.536798384713304
13.35230052,-6.362101739052871,-14.46225962310178,8.624118510624735
13.35706328,-5.896788718986901,-14.095687819274747,8.586910251704289
13.3618527,-5.3086170916173385,-13.466804214687455,8.446886327655351
13.36662875,-4.6187211135390704,-12.613335165304449,8.22819901005699
13.37139151,-3.8505416689821335,-11.580134419940665,7.956262251886034
13.37618088,-3.028876656223853,-10.417161904852353,7.656530660656027
13.38095698,-2.1789390874945447,-9.17725034533898,7.3532838028533964
13.38571974,-1.325466015935795,-7.91377218731863,7.068465220661651
13.39050911,-0.49191364670958326,-6.678323090823424,6.820624693365415
13.3952852,0.30023493242759514,-5.5185353501138845,6.624009520287121
13.40004796,1.0320322115853369,-4.4761253552643385,6.4878459711533605
13.40483734,1.6874905720331836,-3.585264424086623,6.415845655035148
13.40961343,2.2538680125148325,-2.8713430832391453,6.4059635374418455
13.41437619,2.721821423438594,-2.3501764719782177,6.4504248608772565
13.41916557,3.085438603775488,-2.027674430730971,6.5360275337743605
13.42394166,3.3421637132336692,-1.899975513414571,6.64471495369523
13.42870442,3.49263284467528,-1.9540210568385874,6.754402106822072
13.4334938,3.5404370221340256,-2.168524806549792,6.840025618068829
13.43826984,3.49182936953554,-2.5152764252547812,6.874776803680335
13.44303265,3.355391691194744,-2.9607041802852576,6.831466359396266
13.44782203,3.1416735330499526,-3.467613600338493,6.683960752788699
13.45259807,2.8628142632290787,-3.9970150077462456,6.408624255312708
13.45736088,2.532156151953248,-4.509953414568445,5.9856973199151335
13.4621502,2.163854165423205,-4.9692589439479224,5.400542035844196
13.4669263,1.7724864938173988,-5.341144155465712,4.644688884370891
13.47168906,1.3726689113331587,-5.596585740885926,3.7166260105271283
13.47647849,0.9786760101532491,-5.712441253559185,2.622282535696272
13.48125453,0.6040731107317328,-5.672266035430227,1.3751706666435248
13.48601729,0.2613640097217188,-5.466810507514894,-0.003833045416480901
13.49080666,-0.03833868571099127,-5.094192725689504,-1.4870695775291436
13.49558276,-0.28561251599078213,-4.559754859676885,-3.041026173541421
13.50034552,-0.4729845233644327,-3.8756244245522606,-4.627576625019196
13.50513489,-0.5951421099862306,-3.0600113020163024,-6.205479183123144
13.50991099,-0.6490872286273823,-2.136279747746043,-7.732061392542334
13.51467375,-0.6342269649461997,-1.1318408044162436,-9.165007523049857
13.51946312,-0.5523951018932692,-0.07691495810813302,-10.464154973214114
13.52423921,-0.407800967438138,0.9967824660544785,-11.593201819564555
13.52900198,-0.20690374517190732,2.057379821028299,-12.521229262888172
13.53379135,0.04178741673583773,3.074159284652252,-13.22395103708427
13.53856744,0.3279845458086145,4.018789431017374,-13.684617998350387
13.5433302,0.6399571209537636,4.866436026654416,-13.894530173726421
13.54811958,0.964923886861206,5.596713391327397,-13.853138214248794
13.55289562,1.289487334062962,6.194446117795525,-13.567747052242058
13.55765838,1.6000954669369252,6.650218712980364,-13.052862016505795
13.56244781,1.8835140632857186,6.960698412876963,-12.32923870502677
13.56722385,2.127292282937912,7.128723880926574,-11.42271146328678
13.57198661,2.320204977551597,7.163159720930797,-10.362881615340822
13.57677604,2.452656097771479,7.078523752367842,-9.181746572867123
13.58155208,2.517028957029278,6.894400780143773,-7.912345780184178
13.58631484,2.507970688139862,6.634663010567032,-6.587490341968146
13.59110421,2.4226000430466126,6.326523104745169,-5.238631278892523
13.59588031,2.2606298457942176,5.999450890703577,-3.894907768308434
13.60064307,2.0243980332190525,5.683988808911686,-2.5824024936296213
13.60543244,1.718804363378069,5.410504168458125,-1.3236172712803183
13.61020854,1.3511534873131006,5.207918248581002,-0.13716918519666738
13.6149713,0.9309090044233237,5.102453244513662,0.9623039485678903
13.61976067,0.4693671131588806,5.116438091723515,1.9640495305734713
13.62453677,-0.020737758574852688,5.267213361843163,2.860945855130762
13.62929953,-0.5256796945500071,5.566173738706218,3.6491213529655138
13.6340889,-1.0312222522717684,6.017984058859733,4.327484696029518
13.638865,-1.523113941097142,6.620001513364504,4.897204457944982
13.64362776,-1.987578000333203,7.361932309175839,5.361176377597701
13.64841713,-2.4117767942308044,8.225745824736839,5.723513649327647
13.65319317,-2.784232638548994,9.185863024628079,5.989091194728247
13.65795593,-3.0951892041543925,10.20962861330444,6.163168783162521
13.66274536,-3.336900648241517,11.258068148360655,6.251110493815056
13.6675214,-3.5038391244140206,12.28692220276425,6.258209787120169
13.67228416,-3.5928151221084654,13.247939839124172,6.1896208814698115
13.67707354,-3.603008983319898,14.090403390465326,6.050388738645758
13.68184963,-3.5359157527947245,14.762846159166363,5.845562260940054
13.68661239,-3.395209066480317,15.214914543210742,5.58036876782679
13.69140177,-3.1865329217571943,15.399316727225253,5.260422867842237
13.69617786,-2.917232782201992,15.273791930309885,4.891939823842159
13.70094062,-2.5960394698466516,14.803027805591997,4.481922708594406
13.70573,-2.23272064551544,13.960449454804726,4.038294272508335
13.71050609,-1.8377153463717275,12.729802126208371,3.569948616403691
13.71526885,-1.4217670118265964,11.106451399040921,3.086704434934182
13.72005822,-0.9955696639872611,9.09832982306146,2.5991504324060375
13.72483432,-0.569440448722465,6.726467775312121,2.1183838003350295
13.72961036,-0.15302972041233998,4.025058782963595,1.6556533753874623
13.73438645,0.24492251348914837,1.0410256194510812,1.2219291727965909
13.73916255,0.6167774635501425,-2.166927252173566,0.8274284476295857
13.74392531,0.956131902809528,-5.529767476602282,0.4811344906446497
13.74871468,1.2578945927512892,-8.970063946191562,0.19034725566227212
13.75349072,1.5183058923462527,-12.404336450423925,-0.039696198451058755
13.75825349,1.7349042964216366,-15.74574799494665,-0.20609906227178537
13.76304291,1.9064464316103404,-18.907041218986592,-0.3084569323114724
13.76781895,2.0327896735848396,-21.80360305239843,-0.34887304829185783
13.77258171,2.1147485574563585,-24.356528981400572,-0.33183585652711545
13.77737109,2.1539371216191383,-26.495551208816412,-0.2639673440549966
13.78214718,2.152609082997738,-28.161694873375314,-0.15365749674317958
13.78690994,2.113506326723533,-29.30953437779549,-0.010605085043854743
13.79169932,2.0397237869239033,-29.908938116522936,0.15471141251702303
13.79647541,1.9345957111599863,-29.946213854839126,0.3316055734148097
13.80123817,1.8016049279479958,-29.42459713289088,0.5097667262614608
13.80602755,1.6443134759408409,-28.364059178693587,0.6798216757586673
13.81080364,1.466310300857242,-26.80044643605529,0.8338393724013334
13.8155664,1.2711703162171086,-24.783998367491485,0.9657455716254707
13.82035578,1.0624194069335984,-22.377321180473285,1.0716201707300936
13.82513187,0.8435017395020109,-19.652920412347786,1.149858050016132
13.82989463,0.6177481867024484,-16.690413448950228,1.2011834078796402
13.83468401,0.388346794937355,-13.573553433498223,1.228516634511694
13.8394601,0.15831741022689655,-10.387198736944935,1.2367011504365566
13.84422286,-0.06950724660067885,-7.214357761622854,1.2321051496709372
13.84901224,-0.292492299722043,-4.133428195053687,1.2221197546530402
13.85378828,-0.5082022759084985,-1.21573401993362,1.214580616293352
13.85855104,-0.7143932695963278,1.4765560909708002,1.2171443247095615
13.86334046,-0.9089960721942507,3.89206751577275,1.2366539274645842
13.86811651,-1.090091210483917,5.991377315757454,1.2785291666156504
13.87287927,-1.2558775554713208,7.747675558289217,1.3462165906111039
13.87766864,-1.4046369607154627,9.146936880462984,1.4407324348603912
13.88244474,-1.5346980800076448,10.187628395871018,1.5603271836491563
13.8872075,-1.6444029109281786,10.879996692688973,1.7002952250863361
13.89199687,-1.7320796267740577,11.244989900822699,1.8529462876330003
13.89677296,-1.7960249190923108,11.312880315026188,2.0077477693533834
13.90153572,-1.834498469889944,11.121658766360126,2.15163901043976
13.9063251,-1.8457314191121517,10.715273976605726,2.2695103276575614
13.91110119,-1.8279498879713767,10.141788843590632,2.34483148722187
13.91586395,-1.7794138403019713,9.451521463339445,2.3604065138587353
13.92065333,-1.6984708769640962,8.695232263086565,2.2992246387575217
13.92542942,-1.5836240097421437,7.922410526416461,2.1453711145243144
13.93019218,-1.4336120644734638,7.1797044992925745,1.8849568819564426
13.93498156,-1.2475010907917778,6.50952981584668,1.5070229419770924
13.93975765,-1.0247849481987317,5.948881739365589,1.0043740244153259
13.94452041,-0.7654930099342093,5.528368121005974,0.3742969632073336
13.94930979,-0.47030257424820315,5.271472348976205,-0.38087780648314895
13.95408583,-0.14065300848502005,5.194049078258369,-1.2534080516933372
13.95884864,0.2211421537860298,5.3040502552984305,-2.2299941229240146
13.96363802,0.6117899378644928,5.601474830680173,-3.291876344282895
13.96841406,1.026925323823513,6.078532442581056,-4.415185645180957
13.97317682,1.4610381695938595,6.720009048419811,-5.571546498213861
13.97796625,1.9074273121086376,7.503820738645382,-6.728919493895896
13.98274229,2.3581899439911016,8.401740530343025,-7.852659016267475
13.98750505,2.804254347773478,9.38028156330665,-8.906749955457679
13.99229442,3.235463497332609,10.40171858995671,-9.855176704435374
13.99707052,3.6407158304228737,11.425227795915463,-10.663368347716496
14.00183328,4.008167605840131,12.408122713650176,-11.299656467394842
14.00662265,4.325498677830728,13.307161283721944,-11.736676867623139
14.01139875,4.580240310259842,14.079896054321354,-11.952644277296244
14.01616151,4.760159954732396,14.686036275277907,-11.932430420528064
14.02095088,4.853693947359254,15.088787547416436,-11.668381724988432
14.02572698,4.85041511333174,15.25613212437547,-11.160824252798914
14.03048974,4.741518603512901,15.162011278350713,-10.418219997307336
14.03527911,4.5203061908030335,14.787370529683269,-9.456958731592833
14.0400552,4.182646934428017,14.121029093305088,-8.300790613931209
14.04481796,3.7273907353148696,13.160336725225164,-6.979924760634592
14.04960734,3.1567109818216927,11.911584429001016,-5.529836915484305
14.05438338,2.4763533158418145,10.390140342508069,-3.9898445618731158
14.05914619,1.6957695915743225,8.62028859995263,-2.4015196449023892
14.06393557,0.8281193891716674,6.63475703153547,-0.8070166480083227
14.06871161,-0.10987399220503213,4.473929242711574,0.7526035060970458
14.07347437,-1.0982203239013053,2.184747925422925,2.2389753423826124
14.0782638,-2.114112352653068,-0.1806709377549844,3.6178843202826925
14.08303984,-3.132521404528072,-2.566679376721558,4.860513054246126
14.0878026,-4.126923139338534,-4.915946149779157,5.9444268765113
14.09259198,-5.0701299061417915,-7.1714504676037825,6.8542602538291915
14.09736807,-5.935198825735102,-9.278545083228229,7.582079501850949
14.10213083,-6.696378638661176,-11.187001968845165,8.127411955507062
14.1069202,-7.330054066951819,-12.85294596945367,8.496946828936355
14.1116963,-7.81564444636854,-14.240578758377351,8.703927662998526
14.11645906,-8.136414070726143,-15.323598662520178,8.767269547451289
14.12124843,-8.280155252294534,-16.08623250959314,8.710445368509736
14.12602453,-8.239711458289024,-16.52381350859384,8.560193629252197
14.13078729,-8.013316486026644,-16.642863097925876,8.345105757040782
14.13557666,-7.604735454840394,-16.460662736312003,8.094153527284755
14.14035276,-7.02320322518805,-16.00433148216364,7.835217955699331
14.14511552,-6.28316482524665,-15.309454510481515,7.593680401609829
14.14990489,-5.403830238277751,-14.418334152691845,7.3911348618012
14.15468093,-4.408562515347605,-13.377956650970473,7.244277130093819
14.15944375,-3.3241237013977534,-12.237783158555816,7.164021098476796
14.16423312,-2.1798074542761334,-11.047481750188954,7.154884698250389
14.16900916,-1.0064904031276702,-9.854718073455697,7.214677918695018
14.17377192,0.16436379671825396,-8.703116061432581,7.33451333937934
14.17856135,1.301713042418887,-7.630487603679788,7.499146143042568
14.18333739,2.3759237014370456,-6.667412352951951,7.6876361995256515
14.18810015,3.359702923764786,-5.836227267626597,7.874310154945268
14.19288953,4.228945633913023,-5.15046150992151,8.029987187184673
14.19766562,4.963468526568288,-4.61472742493508,8.123418865621263
14.20242838,5.547607177644089,-4.225053960568533,8.122882030189164
14.20721776,5.970656864293383,-3.9696263893412533,7.997854400339805
14.21199385,6.22714279894732,-3.8298767252970256,7.72069629721811
14.21675661,6.316911125669981,-3.7818537255135576,7.268258872787276
14.22154598,6.245038049543345,-3.797790468337618,6.623339905554773
14.22632208,6.021560681142319,-3.847781530561317,5.775912682899776
14.23108484,5.6610393954468226,-3.9014807548726087,4.724061688596885
14.23587421,5.181967562069765,-3.9297342410192786,3.47457050448343
14.24065031,4.606050209971413,-3.9060710012208064,2.0431220898119498
14.24541307,3.957378289009363,-3.8079849868316176,0.45408882845556886
14.25020244,3.2615293655215813,-3.6179560599412164,-1.2600912658409575
14.25497848,2.5446284994747375,-3.3241729777025357,-3.0599357511165026
14.25974125,1.8324044255264025,-2.92093758178203,-4.90029962604178
14.26453067,1.1492759339553276,-2.4087452837450014,-6.732061539673052
14.26930671,0.5175017125861734,-1.7940520115948635,-8.504040339021113
14.27406948,-0.043575801642425,-1.0887516396256598,-10.165053377598696
14.2788589,-0.5181655122336563,-0.3094002232018234,-11.666017502456802
14.28363494,-0.8945187643839856,0.523766269274783,-12.961987905889217
14.2883977,-1.1652582362662423,1.387965994552258,-14.014029694576912
14.29318708,-1.3275318148024555,2.2590970111620043,-14.790822955668864
14.29796317,-1.382985033437252,3.112992571572807,-15.269915506097355
14.30272593,-1.337553203450534,3.9266447965338447,-15.438559181404974
14.30751531,-1.2010828793492676,4.679339766382686,-15.294094226181654
14.3122914,-0.9868009239600809,5.353653712461606,-14.843878202985358
14.31705416,-0.7106570071754412,5.936268349207405,-14.104785764895281
14.32184354,-0.3905709700054453,6.418572798283569,-13.102329704949435
14.32661963,-0.04561982214200494,6.797029602703702,-11.869470253620099
