"Time (s)","Acceleration x (m/s^2)","Acceleration y (m/s^2)","Acceleration z (m/s^2)"
5.841071000E-3,-3.315854073E0,4.800600529E0,6.192625046E0
1.061654000E-2,-3.500699520E0,4.703691006E0,6.313462734E0
1.539195600E-2,-3.527618885E0,4.631308079E0,6.476772785E0
2.016742500E-2,-3.373879910E0,4.539782524E0,6.726224422E0
2.494284200E-2,-3.024527788E0,4.502095699E0,7.083951473E0
2.971831100E-2,-2.541177750E0,4.560719967E0,7.536793232E0
3.449372700E-2,-2.086541414E0,4.648656368E0,8.014759064E0
3.926919600E-2,-1.685145378E0,4.779663086E0,8.334200859E0
4.404461300E-2,-1.304088354E0,4.867001057E0,8.452047348E0
4.880674800E-2,-9.667003751E-1,4.939982414E0,8.522037506E0
5.359549800E-2,-7.615157962E-1,4.998606682E0,8.607581139E0
5.837096700E-2,-6.562315822E-1,5.022534847E0,8.750552177E0
6.314638400E-2,-6.843472719E-1,5.017749310E0,8.794819832E0
6.792185200E-2,-7.800601721E-1,5.012963295E0,8.741579056E0
7.269726900E-2,-9.134600163E-1,4.974080086E0,8.670392990E0
7.747273800E-2,-1.003789067E0,4.911268711E0,8.661419868E0
8.224815400E-2,-1.060020447E0,4.790431023E0,8.695517540E0
8.702362300E-2,-1.106680512E0,4.655834675E0,8.767900467E0
9.179904000E-2,-1.196411371E0,4.510470867E0,8.816953659E0
9.657450900E-2,-1.309472203E0,4.399204254E0,8.874979019E0
1.013499250E-1,-1.437488198E0,4.298107624E0,8.933005333E0
1.061253940E-1,-1.588834286E0,4.220340729E0,9.001200676E0
1.109008110E-1,-1.688136339E0,4.157529354E0,9.092725754E0
1.156762790E-1,-1.777867198E0,4.137788773E0,9.218349457E0
1.204516960E-1,-1.811366796E0,4.186243057E0,9.299705505E0
1.252271650E-1,-1.825723648E0,4.219742775E0,9.290133476E0
1.300025810E-1,-1.792822361E0,4.272983074E0,9.194420815E0
1.347780500E-1,-1.745564103E0,4.292125702E0,9.045467377E0
1.395534670E-1,-1.694716692E0,4.331008911E0,8.886942863E0
1.443289360E-1,-1.619342685E0,4.360321045E0,8.741579056E0
1.491043520E-1,-1.534995675E0,4.393820763E0,8.616554260E0
1.538798210E-1,-1.445264935E0,4.427918434E0,8.534600258E0
1.586552380E-1,-1.369292736E0,4.447659016E0,8.438288689E0
1.634307060E-1,-1.284347534E0,4.466801643E0,8.361120224E0
1.682061230E-1,-1.256231904E0,4.457230568E0,8.331808090E0
1.729815920E-1,-1.222732425E0,4.457828522E0,8.379665375E0
1.777570090E-1,-1.193420291E0,4.447659016E0,8.451449394E0
1.825324770E-1,-1.102493048E0,4.423730850E0,8.595019341E0
1.873078940E-1,-9.774680734E-1,4.380660057E0,8.767302513E0
1.920833630E-1,-8.476574421E-1,4.352544308E0,8.939585686E0
1.968587790E-1,-7.381857634E-1,4.333401680E0,9.016156197E0
2.016342480E-1,-6.526423693E-1,4.347758770E0,8.977272034E0
2.064096650E-1,-5.575276613E-1,4.343571186E0,8.876175880E0
2.111851340E-1,-4.677968323E-1,4.353142738E0,8.788837433E0
2.159605500E-1,-4.013960063E-1,4.338785648E0,8.745168686E0
2.207360190E-1,-3.535395563E-1,4.295714855E0,8.812766075E0
2.255114360E-1,-4.001995921E-1,4.261617184E0,8.918049812E0
2.302869040E-1,-4.755735099E-1,4.242474556E0,8.980861664E0
2.350623210E-1,-5.611169338E-1,4.222733974E0,9.005388260E0
2.398377900E-1,-6.568298340E-1,4.217947960E0,8.991629601E0
2.446132060E-1,-7.519445419E-1,4.227519512E0,8.987442017E0
2.493886750E-1,-8.805587292E-1,4.241278172E0,9.011968613E0
2.541640920E-1,-9.948160052E-1,4.269991875E0,9.026923180E0
2.589395610E-1,-1.104287624E0,4.289134502E0,8.998807907E0
2.637149770E-1,-1.123430252E0,4.235894203E0,8.893523216E0
2.684904460E-1,-1.095912814E0,4.216751575E0,8.715258598E0
2.732658630E-1,-1.045065284E0,4.226921082E0,8.489734650E0
2.780413310E-1,-9.990034699E-1,4.231706619E0,8.230113029E0
2.828167480E-1,-9.487541914E-1,4.251447678E0,7.956733704E0
2.875922170E-1,-8.931210637E-1,4.256233215E0,7.721040249E0
2.923676340E-1,-8.560323119E-1,4.251447678E0,7.576274872E0
2.971431020E-1,-7.657032609E-1,4.232903481E0,7.547560692E0
3.019185190E-1,-6.699903607E-1,4.189832687E0,7.618747234E0
3.066939880E-1,-5.551348329E-1,4.199403763E0,7.680960655E0
3.114694040E-1,-5.353940725E-1,4.122235298E0,7.695317745E0
3.162448730E-1,-5.210371017E-1,3.963710785E0,7.690532207E0
3.210202900E-1,-4.486542344E-1,3.799802303E0,7.724031448E0
3.257957590E-1,-3.906283081E-1,3.655634880E0,7.805387497E0
3.305711750E-1,-5.180460811E-1,3.578466177E0,7.959724426E0
3.353466440E-1,-5.503492355E-1,3.486342669E0,8.012366295E0
3.401220610E-1,-5.790630579E-1,3.461816072E0,8.003393173E0
3.448975290E-1,-6.173482537E-1,3.433102369E0,7.979465485E0
3.496729460E-1,-6.173482537E-1,3.428316593E0,7.950751305E0
3.544484150E-1,-6.269195080E-1,3.408575773E0,7.965108395E0
3.592238310E-1,-5.934200287E-1,3.442673683E0,7.969893932E0
3.639993000E-1,-4.606183469E-1,3.462414265E0,7.901698589E0
3.687747170E-1,9.870393574E-2,3.454039574E0,7.658827305E0
3.735501860E-1,4.348955154E-1,3.382853031E0,7.393223763E0
3.783256020E-1,3.260220885E-1,3.300898790E0,7.354938507E0
3.831010710E-1,2.494517565E-1,3.257229805E0,7.312466145E0
3.878764880E-1,3.529413342E-1,3.242872953E0,7.100701332E0
3.926519560E-1,8.075776696E-1,3.302095175E0,6.753143787E0
3.974273730E-1,1.590628862E0,3.232105255E0,6.479763508E0
4.022028420E-1,2.318047047E0,3.041277647E0,6.265007973E0
4.069649770E-1,2.775076151E0,2.821137905E0,6.099903107E0
4.117537270E-1,3.084348440E0,2.638685226E0,6.074180126E0
4.165291440E-1,3.217748165E0,2.532802820E0,6.049654007E0
4.212912790E-1,3.322434187E0,2.552543640E0,6.029912949E0
4.260800290E-1,3.421736479E0,2.653640270E0,6.029314995E0
4.308554980E-1,3.521636724E0,2.803191662E0,6.101099491E0
4.356176340E-1,3.498904943E0,2.928216696E0,6.302096844E0
4.404063840E-1,3.479762316E0,2.985644341E0,7.133004189E0
4.451818000E-1,3.569493294E0,2.937189817E0,8.509475708E0
4.499439360E-1,3.634099483E0,2.797807932E0,8.960522652E0
4.547326860E-1,3.728615999E0,2.749951363E0,8.043473244E0
4.595081540E-1,4.193421841E0,2.982653379E0,7.109674454E0
4.642702900E-1,4.530211449E0,3.479762316E0,6.449853420E0
4.690590400E-1,4.621737003E0,3.625126362E0,5.935994625E0
4.738344560E-1,4.405186653E0,3.479762316E0,5.394618511E0
4.785965920E-1,4.150949001E0,3.200400352E0,4.921437740E0
4.833853420E-1,3.988237143E0,2.824727058E0,4.577469826E0
4.881608110E-1,4.010969162E0,2.434697151E0,4.164109707E0
4.929229460E-1,4.014558315E0,2.068595171E0,3.790230989E0
4.977116960E-1,3.350549936E0,1.720439434E0,3.218346357E0
5.024871130E-1,-9.074779749E-1,1.359721422E0,7.112665176E-1
5.072492480E-1,-7.188039303E0,1.807179332E0,-7.920243144E-1
5.120379980E-1,-6.517450809E0,1.533201098E0,1.460219979E0
5.168134670E-1,-4.124628067E0,7.339983582E-1,2.562114954E0
5.215756020E-1,-2.037488461E0,1.226321608E-1,2.714657307E0
5.263643520E-1,-6.759724021E-1,1.830509305E-1,3.758526087E0
5.311397690E-1,6.119644046E-1,4.360919297E-1,5.133800983E0
5.359019040E-1,2.008176327E0,6.364908218E-1,6.335596085E0
5.406906540E-1,2.988037348E0,6.478567123E-1,7.170691490E0
5.454661230E-1,3.634099483E0,6.634100676E-1,8.621339798E0
5.502282590E-1,3.431307554E0,8.303094506E-1,1.050329494E1
5.550170090E-1,3.553341627E0,7.351947427E-1,8.630910873E0
5.597924250E-1,3.645465374E0,2.500499785E-1,7.133602619E0
5.645545610E-1,3.498306751E0,-2.225325108E-1,6.880561352E0
5.693433110E-1,4.082753658E0,-4.857429862E-1,5.764309883E0
5.741187790E-1,5.163711071E0,-5.688936114E-1,4.314857483E0
5.788809150E-1,6.192026615E0,-5.174478889E-1,2.902493954E0
5.836696650E-1,6.882356167E0,-4.145565331E-1,1.560120344E0
5.884450810E-1,7.089335442E0,-3.409772217E-1,3.882354796E-1
5.932072170E-1,6.908079147E0,-3.942175210E-1,-5.132604837E-1
5.979959670E-1,6.491129398E0,-6.646065116E-1,-1.162911773E0
6.027714360E-1,6.069993019E0,-1.224527001E0,-1.842473388E0
6.075335710E-1,5.576473236E0,-1.798804402E0,-1.205384374E0
6.123223210E-1,4.689334393E0,-2.225923300E0,5.748756528E-1
6.170977380E-1,4.159922123E0,-2.589632273E0,2.483151674E0
6.218598730E-1,3.952943087E0,-3.004786968E0,4.269393921E0
6.266486230E-1,3.801596880E0,-3.262015581E0,5.887540340E0
6.314240920E-1,4.133601189E0,-3.275774240E0,7.215556622E0
6.361862270E-1,4.707878590E0,-3.501297712E0,7.697710514E0
6.409749770E-1,5.342574596E0,-3.798007727E0,7.843074322E0
6.457503940E-1,6.038288116E0,-4.205984116E0,7.791628838E0
6.505125290E-1,6.899703979E0,-4.536193371E0,7.638488293E0
6.553012790E-1,8.066205025E0,-4.596014023E0,7.767102242E0
6.600767480E-1,9.385248184E0,-4.593023300E0,7.976474285E0
6.648388840E-1,1.061755180E1,-4.542175770E0,7.960322857E0
6.696276340E-1,1.156211948E1,-4.472185612E0,7.671987534E0
6.744030500E-1,1.207837009E1,-3.921238184E0,7.620542049E0
6.791651860E-1,1.192881870E1,-2.938984394E0,7.760521889E0
6.839539360E-1,1.161655617E1,-2.251047850E0,7.684549809E0
6.887294040E-1,1.120020485E1,-2.194218397E0,7.317251682E0
6.934915400E-1,1.109850979E1,-2.565105915E0,6.814160824E0
6.982802900E-1,1.130130100E1,-2.983251572E0,6.266204357E0
7.030557590E-1,1.174098206E1,-3.266202927E0,5.616552830E0
7.078178940E-1,1.233141136E1,-3.192025423E0,4.960321426E0
7.126066440E-1,1.257428265E1,-2.825325251E0,4.493721008E0
7.173820610E-1,1.210349560E1,-2.653042078E0,4.553541660E0
7.221441960E-1,1.205743313E1,-2.643470764E0,4.841278553E0
7.269329460E-1,1.233978653E1,-2.830709219E0,5.757131100E0
7.317084150E-1,1.345543957E1,-2.977867842E0,6.907480717E0
7.364705500E-1,1.426959801E1,-3.082553864E0,8.453244209E0
7.412593000E-1,1.445025635E1,-3.116651535E0,1.002712345E1
7.460347170E-1,1.460160160E1,-3.126821041E0,1.142752266E1
7.507968520E-1,1.501316738E1,-3.150151014E0,1.265863037E1
7.555856020E-1,1.548096466E1,-3.106482029E0,1.363011551E1
7.603610710E-1,1.574955845E1,-2.927618504E0,1.408953762E1
7.651232060E-1,1.587637806E1,-2.657827854E0,1.403569984E1
7.699119560E-1,1.596311760E1,-2.286342144E0,1.356969738E1
7.746873730E-1,1.634477234E1,-1.745564103E0,1.324068451E1
7.794495090E-1,1.663609886E1,-1.455434322E0,1.279262829E1
7.842382590E-1,1.680240059E1,-1.488335729E0,1.198564816E1
7.890137270E-1,1.724507332E1,-1.424327731E0,1.127797127E1
7.937758630E-1,1.769252968E1,-1.254437327E0,1.060379314E1
7.985646130E-1,1.788275909E1,-1.032503009E0,9.945169449E0
8.033400290E-1,1.769133377E1,-7.142575383E-1,9.149555206E0
8.081021650E-1,1.749033737E1,-3.918247223E-1,8.252845764E0
8.128909150E-1,1.732583046E1,-1.124626622E-1,7.307680130E0
8.176663840E-1,1.713021660E1,8.494520187E-2,6.501897335E0
8.224285190E-1,1.698305893E1,2.201396823E-1,5.836094379E0
8.272172690E-1,1.689871216E1,3.505485058E-1,5.332405090E0
8.319926860E-1,1.679582024E1,4.803591371E-1,4.872385025E0
8.367548210E-1,1.636929893E1,6.867401004E-1,4.481158733E0
8.415435710E-1,1.593739510E1,1.013360381E0,4.108476639E0
8.463190400E-1,1.669352722E1,1.299900889E0,3.399004459E0
8.510811750E-1,1.688794327E1,1.714457393E0,3.440878868E0
8.558699250E-1,1.697109413E1,1.686341763E0,3.051447153E0
8.606453940E-1,1.620419502E1,1.684547186E0,2.978466034E0
8.654075290E-1,1.546002674E1,1.730608940E0,3.400201082E0
8.701962790E-1,1.572682667E1,2.073380709E0,2.803191662E0
8.749716960E-1,1.670369720E1,2.794816732E0,3.601198196E-1
8.797338310E-1,1.505863094E1,2.535793781E0,-3.655036688E-1
8.845225810E-1,1.449871063E1,2.260020971E0,-1.067797065E0
8.892980500E-1,1.508076477E1,2.608774900E0,-2.121835470E0
8.940601860E-1,1.540678692E1,2.927618504E0,-1.630110383E0
8.988489360E-1,1.468774319E1,2.881556749E0,-1.908276081E-1
9.036243520E-1,1.378026581E1,2.319841623E0,1.344766378E0
9.083864880E-1,1.221894836E1,1.299302697E0,2.222334146E0
9.131752380E-1,1.188514996E1,-8.075776696E-1,3.229114056E0
9.179507060E-1,1.189292717E1,-2.050050735E0,2.322832584E0
9.227128420E-1,1.283270741E1,-2.697907448E0,1.641476393E0
9.275015920E-1,1.293320656E1,-3.179463148E0,2.159522533E0
9.322770090E-1,1.344885921E1,-3.173480988E0,2.593221426E0
9.370391440E-1,1.377906895E1,-2.585444927E0,3.215355396E0
9.418278940E-1,1.317847061E1,-1.691127419E0,4.210769653E0
9.466033630E-1,1.178943729E1,-9.433703423E-1,5.441876888E0
9.513654980E-1,1.005703354E1,-5.389832854E-1,6.352345943E0
9.561542480E-1,8.709874153E0,-6.484549642E-1,6.954739094E0
9.609296650E-1,8.175676346E0,-1.295713425E0,8.047062874E0
9.656918000E-1,8.033304214E0,-2.183450699E0,9.162117958E0
9.704805500E-1,7.797610760E0,-2.612364054E0,8.462815285E0
9.752560190E-1,8.143373489E0,-2.842075109E0,7.309474945E0
9.800181540E-1,7.929215908E0,-2.731407166E0,6.619743824E0
9.848069040E-1,7.582256794E0,-2.433500528E0,5.944369793E0
9.895823210E-1,7.652844906E0,-2.380858421E0,6.678368092E0
9.943444560E-1,7.119843960E0,-2.165504456E0,6.834499836E0
9.991332060E-1,6.559923172E0,-2.103291035E0,6.318846226E0
1.003908675E0,6.564708710E0,-2.204986095E0,6.261418819E0
1.008670811E0,6.139982700E0,-2.196012974E0,5.932405472E0
1.013459561E0,6.105287075E0,-2.335993052E0,5.664409637E0
1.018234977E0,5.552545071E0,-2.298306227E0,4.822135925E0
1.022997165E0,5.050052166E0,-2.371287346E0,4.219742775E0
1.027785915E0,3.722633839E0,-2.118246317E0,3.631706476E0
1.032561331E0,4.179064751E0,-2.503490686E0,4.176671982E0
1.037323467E0,9.003593445E0,-4.036691666E0,1.206162071E1
1.042112217E0,7.344171047E0,-3.504886866E0,8.461020470E0
1.046887686E0,5.871986866E0,-2.832503796E0,6.188437462E0
1.051663102E0,6.375077724E0,-2.426920414E0,6.195017815E0
1.056438571E0,7.177869797E0,-2.401197433E0,7.597211838E0
1.061213988E0,6.871588230E0,-2.411965132E0,8.131409645E0
1.065976123E0,6.908677101E0,-2.619542599E0,9.446265221E0
1.070764873E0,6.966702938E0,-2.595614433E0,1.039143085E1
1.075540342E0,5.799603939E0,-2.106880426E0,9.624530792E0
1.080302477E0,5.916851997E0,-1.805982947E0,6.336194515E0
1.085091227E0,5.492125988E0,-1.545763373E0,3.132204771E0
1.089866644E0,5.878567219E0,-1.288534999E0,1.105484009E0
1.094628779E0,6.135197163E0,-8.440681696E-1,4.127618968E-1
1.099417529E0,6.051448345E0,-4.737788737E-1,2.446661144E-1
1.104192998E0,6.352943897E0,-2.566302419E-1,1.308874011E0
1.108955134E0,7.085147858E0,-2.554338276E-1,2.902493954E0
1.113743884E0,6.681358814E0,-3.631108403E-1,3.730410576E0
1.118519300E0,5.093721390E0,-4.199403822E-1,3.882354736E0
1.123281436E0,3.971487284E0,-5.144568682E-1,4.646861553E0
1.128070186E0,3.678366661E0,-7.459624410E-1,4.941178799E0
1.132845654E0,4.208376884E0,-1.304088354E0,4.890929699E0
1.137621071E0,4.602594376E0,-2.049452543E0,5.249254704E0
1.142396540E0,4.811367989E0,-2.733799934E0,5.618347645E0
1.147172009E0,5.094319344E0,-3.238685369E0,6.394220352E0
1.151934092E0,5.246263504E0,-3.562314749E0,6.950551510E0
1.156722842E0,5.006981373E0,-3.620938778E0,7.460222721E0
1.161498311E0,4.514657974E0,-3.376272678E0,7.280761242E0
1.166273779E0,4.316053867E0,-3.106482029E0,6.787241459E0
1.171049196E0,4.524827480E0,-2.845664263E0,6.881757736E0
1.175824665E0,4.748556614E0,-2.498106956E0,6.314060688E0
1.180600081E0,4.587040901E0,-2.228914261E0,5.657829285E0
1.185375550E0,4.202394962E0,-1.997408748E0,5.164907455E0
1.190150967E0,3.795016766E0,-1.872981906E0,4.730610371E0
1.194926436E0,3.554538012E0,-2.032702923E0,5.019543648E0
1.199701852E0,4.271786690E0,-2.417349100E0,6.114858150E0
1.204477321E0,4.864608288E0,-2.690729141E0,6.549155712E0
1.209252738E0,5.118845940E0,-2.776870728E0,6.711269379E0
1.214028206E0,5.198407173E0,-2.791227579E0,6.561717987E0
1.218803623E0,5.154139996E0,-2.670390129E0,6.340980053E0
1.223579092E0,5.173880577E0,-2.429313183E0,5.827121258E0
1.228354509E0,5.221138954E0,-1.840678811E0,4.554738045E0
1.233129977E0,5.129613400E0,-1.503889084E0,3.739383698E0
1.237892113E0,5.005784988E0,-1.286740422E0,2.976671457E0
1.242680863E0,4.524827480E0,-1.080957651E0,2.335993052E0
1.247456279E0,4.292125702E0,-9.846464992E-1,2.433500528E0
1.252218415E0,4.034897327E0,-8.650053740E-1,3.197409153E0
1.257007217E0,3.887140274E0,-9.762716293E-1,3.884149313E0
1.261782634E0,3.940979004E0,-1.314257860E0,4.680959225E0
1.266558102E0,4.484149456E0,-1.852642894E0,5.374279499E0
1.271333519E0,5.051846981E0,-2.424527645E0,5.309075356E0
1.276108988E0,5.305486202E0,-2.871985435E0,5.365904808E0
1.280871123E0,5.671587944E0,-3.198605776E0,5.887540340E0
1.285659873E0,5.805585861E0,-3.358326674E0,6.789634228E0
1.290435290E0,5.647659779E0,-3.556332588E0,7.279564857E0
1.295197425E0,5.755934715E0,-3.796811342E0,7.015157700E0
1.299986175E0,6.733402729E0,-4.290330887E0,7.068397999E0
1.304761644E0,7.879564762E0,-4.875376225E0,6.683752060E0
1.309523779E0,8.420342445E0,-5.225326538E0,6.129215240E0
1.314312529E0,8.815756798E0,-5.653043270E0,5.297111034E0
1.319087946E0,8.918049812E0,-5.816353798E0,4.788038254E0
1.323850081E0,8.757132530E0,-5.614160061E0,4.260420799E0
1.328638831E0,8.563314438E0,-5.156532764E0,3.877569199E0
1.333414300E0,8.003992081E0,-4.691128731E0,3.774677753E0
1.338176436E0,7.817351341E0,-4.368097782E0,3.698705673E0
1.342965186E0,7.789236069E0,-4.122235298E0,3.160918713E0
1.347740654E0,7.735995770E0,-4.030709743E0,2.288136721E0
1.352502738E0,7.650452137E0,-3.881158352E0,1.616351724E0
1.357291488E0,7.711469173E0,-4.058825493E0,1.371087432E0
1.362066956E0,7.844270706E0,-4.328018188E0,1.107278705E0
1.366829092E0,7.659425259E0,-4.464408875E0,1.151545882E0
1.371617842E0,7.578667641E0,-4.714458942E0,1.079761267E0
1.376393311E0,7.764111042E0,-5.094319344E0,8.338986635E-1
1.381155446E0,7.715656757E0,-5.417350292E0,5.563312769E-1
1.385944144E0,7.898707390E0,-5.937191010E0,6.083751321E-1
1.390719613E0,7.558926582E0,-6.001199245E0,1.037886858E0
1.395481748E0,6.875177860E0,-6.248856544E0,1.972284079E0
1.400270498E0,6.827919483E0,-6.282355785E0,1.929213285E0
1.405045967E0,6.521637917E0,-6.230311871E0,1.661815286E0
1.409808102E0,6.026323795E0,-6.144768715E0,1.717448473E0
1.414596852E0,5.563312531E0,-5.934200287E0,2.300698996E0
1.419372269E0,5.644668579E0,-6.521637917E0,2.056032896E0
1.424134404E0,6.078367710E0,-7.185048103E0,1.875972986E0
1.428923154E0,6.221937180E0,-7.695317745E0,1.683948994E0
1.433698623E0,6.262016773E0,-8.278568268E0,1.727019787E0
1.438460759E0,6.291927338E0,-8.648857117E0,9.014959335E-1
1.443249509E0,6.336194515E0,-8.754141808E0,3.068794906E-1
1.448024925E0,6.249454498E0,-8.219944000E0,4.265206456E-1
1.452800394E0,7.060023308E0,-7.750950813E0,2.494517565E-1
1.457575863E0,8.106285095E0,-7.526623726E0,2.727817893E-1
1.462351279E0,8.099704742E0,-7.035496712E0,2.243271172E-1
1.467126748E0,6.933801651E0,-6.652645111E0,4.319044948E-1
1.471902165E0,7.991429329E0,-7.214360237E0,1.161117196E0
1.476677634E0,9.040083885E0,-7.756334782E0,1.127019525E0
1.481439769E0,4.606183529E0,-7.198208809E0,1.533799291E0
1.486228519E0,-9.122636318E-1,-7.772486210E0,5.157131195E0
1.491003936E0,7.709076405E0,-9.983454704E0,-1.412961721E0
1.495766071E0,1.127498055E1,-1.019222832E1,-1.100100160E0
1.500554821E0,1.192403316E1,-9.256634712E0,4.941178858E-1
1.505330290E0,1.191027451E1,-7.971090317E0,1.189232826E0
1.510092425E0,1.107099247E1,-6.618547440E0,6.939185411E-2
1.514881175E0,9.096913338E0,-5.577071190E0,-2.411366940E0
1.519656592E0,7.845467091E0,-5.179264545E0,-3.058027267E0
1.524418727E0,6.323033810E0,-5.197809219E0,-3.088535786E0
1.529207477E0,5.578866005E0,-5.907878876E0,-3.011965513E0
1.533982946E0,6.125027657E0,-6.614958286E0,-1.176072359E0
1.538745081E0,5.278566837E0,-6.829115868E0,-1.963909149E0
1.543533831E0,4.039682865E0,-6.557530403E0,-1.396211982E0
1.548309300E0,2.932404041E0,-6.623332977E0,-1.207777262E0
1.553071436E0,3.171088219E0,-6.492326260E0,-1.794616938E0
1.557860186E0,1.482353687E0,-7.246663570E0,-4.424927235E0
1.562635602E0,9.601201057E0,-9.448060036E0,-4.499104977E0
1.567397738E0,1.754297829E1,-1.011565781E1,1.564307809E0
1.572186488E0,1.582373619E1,-1.054516983E1,4.202992916E0
1.576961956E0,1.125404263E1,-1.037288570E1,3.924827337E0
1.581724092E0,6.995417118E0,-1.039741230E1,3.836292982E0
1.586512842E0,4.410570145E0,-1.058704376E1,3.509672642E0
1.591288259E0,3.498306751E0,-1.094955635E1,2.751147747E0
1.596050394E0,3.598206997E0,-1.105484104E1,1.905883193E0
1.600839144E0,3.795614958E0,-1.101595688E1,1.530808330E0
1.605614613E0,4.421338081E0,-1.076411247E1,1.301695466E0
1.610376748E0,4.872983456E0,-1.046441174E1,1.433898926E0
1.615165498E0,5.319842815E0,-1.008275604E1,1.532004714E0
1.619940967E0,6.250052929E0,-9.602995872E0,5.766702294E-1
1.624703102E0,6.893722057E0,-9.297312737E0,-5.066801906E-1
1.629491852E0,7.341179848E0,-9.218947411E0,-1.262213945E0
1.634267269E0,7.691130161E0,-9.136395454E0,-1.557727575E0
1.639029404E0,6.975676060E0,-8.410173416E0,-1.467996716E0
1.643818154E0,5.822933674E0,-7.661220074E0,-1.303490162E0
1.648593623E0,5.196612358E0,-7.542177200E0,-1.785643935E0
1.653355759E0,4.826323509E0,-7.846663475E0,-2.536990166E0
1.658144509E0,4.743172646E0,-8.102097511E0,-3.011367321E0
1.662919925E0,5.181657314E0,-8.023732185E0,-2.984447956E0
1.667682061E0,5.557928562E0,-7.868797302E0,-2.742174864E0
1.672470811E0,5.560919762E0,-7.782655716E0,-2.194816589E0
1.677246279E0,5.412564754E0,-7.176074982E0,-1.296909928E0
1.682021696E0,5.979663849E0,-7.521838188E0,-4.504488707E-1
1.686797165E0,5.997610092E0,-8.120043755E0,5.958128572E-1
1.691572634E0,5.575276852E0,-8.492127419E0,1.289731383E0
1.696334769E0,5.362913609E0,-8.868398666E0,1.372283816E0
1.701123467E0,4.814957142E0,-9.086744308E0,1.198205948E0
1.705898936E0,4.219742775E0,-8.953344345E0,1.153340459E0
1.710661071E0,3.827319860E0,-8.289336205E0,1.164108157E0
1.715449821E0,4.004388809E0,-7.589435101E0,8.793623447E-1
1.720225290E0,3.748954773E0,-6.925426960E0,7.746763229E-1
1.724987425E0,3.522234917E0,-6.497111797E0,4.013960063E-1
1.729776175E0,3.160320520E0,-6.189035892E0,-2.356930375E-1
1.734551592E0,2.518445730E0,-5.983851433E0,-8.368897438E-1
1.739313727E0,1.983051777E0,-5.868995667E0,-1.256231904E0
1.744102477E0,1.672582984E0,-5.754140377E0,-1.423131227E0
1.748877946E0,1.244866014E0,-5.740979671E0,-1.262213945E0
1.753640081E0,8.931210637E-1,-5.746363640E0,-1.259821177E0
1.758428831E0,8.159525394E-1,-5.408975601E0,-1.192822099E0
1.763204248E0,1.010967612E0,-4.773082733E0,-8.967102766E-1
1.767966384E0,1.499701619E0,-3.784249067E0,-5.353940725E-1
1.772755186E0,1.490130305E0,-3.196810961E0,-1.806581169E-1
1.777530602E0,1.362114310E0,-2.754138947E0,1.172483116E-1
1.782292738E0,1.220339537E0,-2.219941139E0,5.204389095E-1
1.787081488E0,1.110867858E0,-1.675574064E0,7.411768436E-1
1.791856956E0,9.990034699E-1,-1.439880967E0,5.258227587E-1
1.796619092E0,8.614161611E-1,-1.170090318E0,-1.016949639E-1
1.801407842E0,8.584251404E-1,-1.088136077E0,-5.581258535E-1
1.806183259E0,8.739784956E-1,-1.121635556E0,-1.114457130E0
1.810945394E0,7.698906660E-1,-1.194018483E0,-1.085145116E0
1.815734144E0,8.051848412E-1,-1.285543919E0,-8.213363886E-1
1.820509613E0,7.776673436E-1,-1.107876897E0,2.488535494E-1
1.825271748E0,4.600201547E-1,-1.036690354E0,5.240281820E-1
1.830060498E0,3.188436031E-1,-9.978070259E-1,7.501499057E-1
1.834835915E0,1.046859920E-1,-1.124626637E0,7.124629617E-1
1.839611384E0,-1.310070455E-1,-1.177866936E0,2.057827413E-1
1.844386852E0,-1.740778536E-1,-1.067198873E0,1.914258152E-1
1.849162269E0,-1.543370634E-1,-1.013958573E0,4.115654826E-1
1.853937738E0,-2.530409992E-1,-1.019342422E0,6.185446382E-1
1.858713154E0,-3.577269912E-1,-1.139581800E0,5.138586760E-1
1.863488623E0,-3.978067636E-1,-1.587039590E0,-8.344969153E-1
1.868264040E0,-5.982056633E-2,-1.619940877E0,-8.213363886E-1
1.873039509E0,-2.069791555E-1,-2.227717876E0,-3.260220885E-1
1.877814925E0,-9.320043921E-1,-3.768695593E0,-5.297709465E0
1.882577061E0,3.589233849E-3,-2.719442844E0,1.242473125E0
1.887365811E0,-6.819544733E-2,-2.952743053E0,5.691926956E0
1.892141279E0,-4.259224236E-1,-2.529213428E0,4.978267670E0
1.896903415E0,-4.235295951E-1,-2.384447813E0,3.922434568E0
1.901692165E0,1.021735311E0,-4.205984116E0,2.769093990E0
1.906467581E0,2.275574446E0,-1.011565781E1,4.777270317E0
1.911229717E0,-1.619940877E0,-1.987179375E1,5.894120216E0
1.916018467E0,-1.250967693E1,-3.876193237E1,7.375875711E-1
1.920793936E0,-1.751605988E1,-6.393682098E1,-1.157527924E0
1.925556071E0,-1.307199001E1,-7.213523102E1,-1.491924882E0
1.930344821E0,-4.056432724E0,-6.456373596E1,-2.230110645E0
1.935120290E0,3.318845034E0,-5.581617737E1,-1.343569875E0
1.939882425E0,8.804988861E0,-4.604269409E1,-7.405785918E-1
1.944671175E0,1.217109203E1,-3.512244797E1,-8.709874153E-1
1.949446592E0,1.296491146E1,-2.381157684E1,-3.541975737E0
1.954208727E0,1.295294762E1,-1.405843163E1,-8.208578110E0
1.958997477E0,9.403194427E0,-9.129815102E0,-6.321837425E0
1.963772946E0,6.398407936E0,-6.324230194E0,-3.741178274E0
1.968535081E0,3.920041800E0,-4.712664127E0,-2.116451740E0
1.973323831E0,2.368894339E0,-3.690330744E0,-1.524227977E0
1.978099248E0,1.199402332E0,-3.148954630E0,-1.124626637E0
1.982861436E0,1.274178028E-1,-3.007179976E0,-4.666004181E-1
1.987650186E0,-8.159525394E-1,-3.265604734E0,-3.409772366E-2
1.992425602E0,-1.710868239E0,-3.922434568E0,2.398804724E-1
1.997187738E0,-2.558525562E0,-4.893322468E0,4.366901219E-1
2.001976488E0,-3.457628727E0,-6.041877270E0,5.814558864E-1
2.006751956E0,-4.475774765E0,-7.167101860E0,7.788637877E-1
2.011514092E0,-5.623133183E0,-8.186444283E0,8.961120844E-1
2.016302842E0,-6.624529362E0,-8.983852386E0,8.829515576E-1
2.021078259E0,-7.375277519E0,-9.568299294E0,8.291130662E-1
2.025840394E0,-7.893323898E0,-9.829715729E0,6.502495408E-1
2.030629144E0,-8.090133667E0,-9.753145218E0,4.205385745E-1
2.035404613E0,-7.793423176E0,-9.473184586E0,1.357926875E-1
2.040166748E0,-7.357331276E0,-9.125029564E0,-3.409772366E-2
2.044955498E0,-6.773482800E0,-8.829515457E0,-3.290131316E-2
2.049730967E0,-5.793622017E0,-8.557332039E0,8.195417374E-2
2.054506384E0,-4.798207760E0,-8.328817368E0,3.068794906E-1
2.059281852E0,-3.884149313E0,-8.201399803E0,4.887340367E-1
2.064057269E0,-3.203391314E0,-8.190033913E0,6.197410822E-1
2.068819404E0,-2.697907448E0,-8.246863365E0,7.178468108E-1
2.073608154E0,-2.321636200E0,-8.371290207E0,7.686942816E-1
2.078383623E0,-2.097309113E0,-8.577671051E0,7.531409264E-1
2.083145759E0,-1.987239242E0,-8.813364029E0,7.244270444E-1
2.087934509E0,-2.020140409E0,-9.069396019E0,6.622136831E-1
2.092709925E0,-2.153540373E0,-9.334401131E0,5.479564071E-1
2.097485394E0,-2.458027124E0,-9.594620705E0,3.385843933E-1
2.102260811E0,-2.815753937E0,-9.850652695E0,3.828516230E-2
2.107036279E0,-3.089133978E0,-1.002054310E1,-3.684946895E-1
2.111811748E0,-3.334398270E0,-1.004506969E1,-8.081758618E-1
2.116587165E0,-3.479164124E0,-9.987641335E0,-1.128814101E0
2.121362634E0,-3.437887907E0,-9.808777809E0,-1.326221943E0
2.126138050E0,-3.291925669E0,-9.567103386E0,-1.389631748E0
2.130913519E0,-3.211168051E0,-9.326624870E0,-1.265205026E0
2.135688936E0,-3.048455954E0,-9.066405296E0,-9.876375198E-1
2.140464404E0,-2.951546669E0,-8.940781593E0,-6.382854581E-1
2.145239821E0,-2.911466837E0,-8.888139725E0,-2.117647976E-1
2.150015290E0,-2.860619545E0,-8.907281876E0,2.009970993E-1
2.154790759E0,-2.815753937E0,-8.965308189E0,5.318048596E-1
2.159566175E0,-2.775674343E0,-9.056833267E0,8.195417523E-1
2.164341592E0,-2.721835852E0,-9.167501450E0,1.030708313E0
2.169117061E0,-2.687139750E0,-9.297312737E0,1.146162033E0
2.173892529E0,-2.663211584E0,-9.422337532E0,1.117448211E0
2.178667946E0,-2.673381090E0,-9.528220177E0,9.828519225E-1
2.183443415E0,-2.679363251E0,-9.591031075E0,7.088736892E-1
2.188218831E0,-2.690729141E0,-9.610174179E0,4.067798555E-1
2.192994300E0,-2.734996319E0,-9.576076508E0,1.339980662E-1
2.197769717E0,-2.789433002E0,-9.528220177E0,-1.202393398E-1
2.202545186E0,-2.833700180E0,-9.441479683E0,-3.218346536E-1
2.207320602E0,-2.858226538E0,-9.388239861E0,-5.042873621E-1
2.212096071E0,-2.907279491E0,-9.335597992E0,-6.239284873E-1
2.216871488E0,-2.988635540E0,-9.321240425E0,-6.759724021E-1
2.221646956E0,-3.065205812E0,-9.278169632E0,-6.855437160E-1
2.226422373E0,-3.088535786E0,-9.292527199E0,-6.131607890E-1
2.231197842E0,-3.072982550E0,-9.292527199E0,-4.648058116E-1
2.235973311E0,-3.034099102E0,-9.317052841E0,-3.068794906E-1
2.240748727E0,-3.013760090E0,-9.336195946E0,-1.286142170E-1
2.245524196E0,-2.970091105E0,-9.374481201E0,5.802594870E-2
2.250299613E0,-2.935395241E0,-9.379266739E0,2.063809484E-1
2.255075081E0,-2.930011272E0,-9.388837814E0,3.361915946E-1
2.259850498E0,-2.905484915E0,-9.393623352E0,4.271188378E-1
2.264625967E0,-2.905484915E0,-9.388837814E0,4.797609448E-1
2.269401384E0,-2.871387243E0,-9.393623352E0,4.797609448E-1
2.274176852E0,-2.848057270E0,-9.398408890E0,4.366901219E-1
2.278952321E0,-2.834298372E0,-9.403194427E0,3.355933726E-1
2.283727738E0,-2.815753937E0,-9.398408890E0,2.638086975E-1
2.288503206E0,-2.806781054E0,-9.393623352E0,1.531406492E-1
2.293278623E0,-2.816950560E0,-9.403194427E0,6.221338734E-2
2.298054092E0,-2.798406124E0,-9.412766457E0,-2.452643216E-2
2.302829509E0,-2.799004316E0,-9.417551994E0,-1.058823988E-1
2.307604977E0,-2.794218540E0,-9.422337532E0,-1.489532143E-1
2.312380394E0,-2.790031195E0,-9.417551994E0,-1.776670814E-1
2.317155863E0,-2.790031195E0,-9.417551994E0,-1.872383654E-1
2.321931279E0,-2.794816732E0,-9.455837250E0,-1.824527234E-1
2.326706748E0,-2.794218540E0,-9.484550476E0,-1.680957973E-1
2.331482165E0,-2.808575630E0,-9.504291534E0,-1.585244983E-1
2.336257634E0,-2.817548752E0,-9.533005714E0,-1.393819153E-1
2.341033102E0,-2.836691141E0,-9.547362328E0,-1.292124242E-1
2.345808519E0,-2.846262455E0,-9.533005714E0,-1.052841991E-1
2.350583988E0,-2.865405083E0,-9.518648148E0,-9.571290761E-2
2.355359404E0,-2.860619545E0,-9.485149384E0,-1.052841991E-1
2.360134873E0,-2.860619545E0,-9.441479683E0,-1.004985496E-1
2.364910290E0,-2.851646423E0,-9.384052277E0,-1.052841991E-1
2.369685759E0,-2.861217737E0,-9.330811501E0,-9.571290761E-2
2.374461175E0,-2.842075109E0,-9.287740707E0,-8.673982322E-2
2.379236644E0,-2.837289333E0,-9.263215065E0,-5.802594870E-2
2.384012061E0,-2.799004316E0,-9.244071960E0,-2.452643216E-2
2.388787529E0,-2.770290375E0,-9.248857498E0,-5.982056609E-4
2.393562998E0,-2.746362209E0,-9.244071960E0,1.375873014E-2
2.398338415E0,-2.746362209E0,-9.253643036E0,3.290131316E-2
2.403113884E0,-2.741576433E0,-9.268000603E0,5.204389244E-2
2.407889300E0,-2.750549555E0,-9.306883812E0,8.075776696E-2
2.412664769E0,-2.769692183E0,-9.340383530E0,9.092725813E-2
2.417440186E0,-2.788236618E0,-9.369096756E0,1.004985496E-1
2.422215654E0,-2.812164783E0,-9.398408890E0,1.148554832E-1
2.426991071E0,-2.835494757E0,-9.441479683E0,1.100698411E-1
2.431766540E0,-2.849851847E0,-9.470791817E0,1.004985496E-1
2.436541956E0,-2.849851847E0,-9.485149384E0,8.135596663E-2
2.441317425E0,-2.840280533E0,-9.485149384E0,8.135596663E-2
2.446092894E0,-2.807379246E0,-9.494720459E0,7.657032460E-2
2.450868311E0,-2.764308453E0,-9.474979401E0,7.178468257E-2
2.455643779E0,-2.736192703E0,-9.446265221E0,3.290131316E-2
2.460419196E0,-2.698505640E0,-9.407382011E0,-5.982056609E-4
2.465194665E0,-2.689532757E0,-9.373882294E0,-2.991028316E-2
2.469970081E0,-2.660818815E0,-9.354740143E0,-4.905286431E-2
2.474745550E0,-2.637488842E0,-9.339784622E0,-6.340979785E-2
2.479520967E0,-2.623131752E0,-9.330213547E0,-8.255238086E-2
2.484296436E0,-2.623131752E0,-9.334999084E0,-6.819544733E-2
2.489071852E0,-2.623131752E0,-9.349356651E0,-5.383851007E-2
2.493847321E0,-2.594418049E0,-9.363713264E0,-4.426721856E-2
2.498622790E0,-2.589632273E0,-9.383454323E0,-4.905286431E-2
2.503398206E0,-2.580060959E0,-9.397810936E0,-3.529413417E-2
2.508173675E0,-2.584248543E0,-9.426525116E0,-2.033899166E-2
2.512949092E0,-2.593819857E0,-9.450452805E0,-1.076770201E-2
2.517724561E0,-2.593819857E0,-9.464810371E0,1.316052489E-2
2.522499977E0,-2.583650351E0,-9.489336014E0,3.708875179E-2
2.527275446E0,-2.593221426E0,-9.494122505E0,6.101697683E-2
2.532050915E0,-2.602792740E0,-9.503693581E0,8.015955985E-2
2.536826331E0,-2.602194548E0,-9.489336014E0,1.088734269E-1
2.541601800E0,-2.621337175E0,-9.489336014E0,1.333998591E-1
2.546377217E0,-2.635694027E0,-9.479764938E0,1.381855011E-1
2.551152686E0,-2.640479803E0,-9.484550476E0,1.429711580E-1
2.555928102E0,-2.640479803E0,-9.465408325E0,1.525424421E-1
2.560703571E0,-2.645265341E0,-9.474979401E0,1.525424421E-1
2.565478988E0,-2.659622431E0,-9.436694145E0,1.525424421E-1
2.570254456E0,-2.664407969E0,-9.421739578E0,1.525424421E-1
2.575029873E0,-2.654836655E0,-9.402596474E0,1.381855011E-1
2.579805342E0,-2.659622431E0,-9.373882294E0,1.333998591E-1
2.584580811E0,-2.678765059E0,-9.359525681E0,1.286142170E-1
2.589356227E0,-2.693121910E0,-9.349954605E0,1.333998591E-1
2.594131696E0,-2.702693224E0,-9.330811501E0,1.238285750E-1
2.598907113E0,-2.693121910E0,-9.320642471E0,1.046859920E-1
2.603682581E0,-2.707478762E0,-9.321240425E0,9.032905847E-2
2.608457998E0,-2.731407166E0,-9.306285858E0,9.511470050E-2
2.613233467E0,-2.750549555E0,-9.302098274E0,8.075776696E-2
2.618008884E0,-2.774477959E0,-9.277571678E0,6.161518395E-2
2.622784352E0,-2.793620348E0,-9.277571678E0,6.699903309E-2
2.627559769E0,-2.822334290E0,-9.287740707E0,6.221338734E-2
2.632335238E0,-2.864806890E0,-9.302098274E0,5.742774159E-2
2.637110654E0,-2.913261652E0,-9.330811501E0,4.845465720E-2
2.641886123E0,-2.974876642E0,-9.311669350E0,4.366901144E-2
2.646661592E0,-3.003590584E0,-9.331410408E0,5.324030295E-2
2.651437009E0,-3.036491871E0,-9.326624870E0,4.426721856E-2
2.656212477E0,-3.065205812E0,-9.331410408E0,5.383851007E-2
2.660987894E0,-3.069991350E0,-9.336195946E0,6.340979785E-2
2.665763363E0,-3.112463951E0,-9.336195946E0,7.776673883E-2
2.670538779E0,-3.117249727E0,-9.350552559E0,7.836493850E-2
2.675314248E0,-3.117249727E0,-9.345767021E0,8.793623000E-2
2.680089665E0,-3.126821041E0,-9.331410408E0,9.272187948E-2
2.684865134E0,-3.102892876E0,-9.321838379E0,9.690931439E-2
2.689640602E0,-3.074178934E0,-9.326624870E0,1.016949639E-1
2.694416019E0,-3.065205812E0,-9.297910690E0,1.112662554E-1
2.699191488E0,-3.046063185E0,-9.297910690E0,1.208375469E-1
2.703966904E0,-3.050848961E0,-9.288339615E0,1.208375469E-1
2.708742373E0,-3.031706333E0,-9.282955170E0,1.256231815E-1
2.713517790E0,-3.002992392E0,-9.278169632E0,1.208375469E-1
2.718293259E0,-2.983849764E0,-9.278169632E0,1.202393398E-1
2.723068675E0,-2.983849764E0,-9.273384094E0,1.250249892E-1
2.727844144E0,-2.970091105E0,-9.278169632E0,1.250249892E-1
2.732619613E0,-2.946162939E0,-9.282955170E0,1.154536903E-1
2.737395029E0,-2.936591625E0,-9.287740707E0,1.202393398E-1
2.742170498E0,-2.922234535E0,-9.292527199E0,1.106680483E-1
2.746945915E0,-2.917448997E0,-9.306883812E0,1.106680483E-1
2.751721384E0,-2.912663460E0,-9.306883812E0,1.058823988E-1
2.756496800E0,-2.907877684E0,-9.316454887E0,1.202393398E-1
2.761272269E0,-2.931805849E0,-9.331410408E0,1.250249892E-1
2.766047738E0,-2.946162939E0,-9.336195946E0,1.106680483E-1
2.770823154E0,-2.950948477E0,-9.340981483E0,1.010967568E-1
2.775598623E0,-2.936591625E0,-9.369695663E0,1.010967568E-1
2.780374040E0,-2.922234535E0,-9.369695663E0,9.152546525E-2
2.785149509E0,-2.931805849E0,-9.384052277E0,8.673982322E-2
2.789924925E0,-2.927020311E0,-9.403194427E0,7.238288224E-2
2.794700394E0,-2.912663460E0,-9.417551994E0,6.281159073E-2
2.799475811E0,-2.893520832E0,-9.417551994E0,6.281159073E-2
2.804251279E0,-2.860021353E0,-9.431908607E0,4.307080805E-2
2.809026748E0,-2.836092949E0,-9.441479683E0,3.828516230E-2
2.813802165E0,-2.831307411E0,-9.441479683E0,2.392822690E-2
2.818577634E0,-2.807379246E0,-9.455837250E0,1.435693540E-2
2.823353050E0,-2.779263496E0,-9.451051712E0,4.187439568E-3
2.828128519E0,-2.745764017E0,-9.451051712E0,-1.016949583E-2
2.832903936E0,-2.727219582E0,-9.470193863E0,-2.452643216E-2
2.837679404E0,-2.722434044E0,-9.465408325E0,-2.452643216E-2
2.842454821E0,-2.703291416E0,-9.470193863E0,-2.931207791E-2
2.847230290E0,-2.698505640E0,-9.484550476E0,-4.366901144E-2
2.852005706E0,-2.688934565E0,-9.489336014E0,-3.409772366E-2
2.856781175E0,-2.674577475E0,-9.503693581E0,-3.469592705E-2
2.861556644E0,-2.669791937E0,-9.489336014E0,-3.948157281E-2
2.866332061E0,-2.674577475E0,-9.498908043E0,-4.426721856E-2
2.871107529E0,-2.674577475E0,-9.494122505E0,-4.426721856E-2
2.875882946E0,-2.674577475E0,-9.479764938E0,-3.948157281E-2
2.880658415E0,-2.660818815E0,-9.465408325E0,-4.905286431E-2
2.885433831E0,-2.670390129E0,-9.455837250E0,-6.340979785E-2
2.890209300E0,-2.675175667E0,-9.446265221E0,-8.255238086E-2
2.894984717E0,-2.694318295E0,-9.446265221E0,-1.064806059E-1
2.899760186E0,-2.684746981E0,-9.455837250E0,-1.304088384E-1
2.904535602E0,-2.699702263E0,-9.446265221E0,-1.782652885E-1
2.909311071E0,-2.690130949E0,-9.440881729E0,-2.171486616E-1
2.914086540E0,-2.685345173E0,-9.455837250E0,-2.458625287E-1
2.918861956E0,-2.685943365E0,-9.484550476E0,-2.841476798E-1
2.923637425E0,-2.681157827E0,-9.503693581E0,-3.182454109E-1
2.928412842E0,-2.685943365E0,-9.522835732E0,-3.230310678E-1
2.933188311E0,-2.695514679E0,-9.556933403E0,-3.463610709E-1
2.937963727E0,-2.705085993E0,-9.595218658E0,-3.798605800E-1
2.942739196E0,-2.685943365E0,-9.628718376E0,-4.139583111E-1
2.947514665E0,-2.690729141E0,-9.672387123E0,-4.570291340E-1
2.952290081E0,-2.676970243E0,-9.705886841E0,-5.192425251E-1
2.957065550E0,-2.686541557E0,-9.753743172E0,-5.623133183E-1
2.961840967E0,-2.653042078E0,-9.783055305E0,-5.766702294E-1
2.966616436E0,-2.600998163E0,-9.826126099E0,-5.868397355E-1
2.971391852E0,-2.557927370E0,-9.878767967E0,-5.820540786E-1
2.976167321E0,-2.533401012E0,-9.912865639E0,-5.054838061E-1
2.980942790E0,-2.484946251E0,-9.965508461E0,-4.145565331E-1
2.985718206E0,-2.456232548E0,-1.001396275E1,-3.188436031E-1
2.990493675E0,-2.426322222E0,-1.004806042E1,-1.986042857E-1
2.995269092E0,-2.401795626E0,-1.008156013E1,-7.357929647E-2
3.000044561E0,-2.429911375E0,-1.008156013E1,4.127619043E-2
3.004819977E0,-2.495713949E0,-1.006720352E1,1.519442350E-1
3.009595446E0,-2.528615236E0,-1.003370380E1,2.099701911E-1
3.014370863E0,-2.599801779E0,-1.000020409E1,2.386840582E-1
3.019146331E0,-2.652443886E0,-9.970891953E0,2.201396823E-1
3.023921800E0,-2.700898647E0,-9.932606697E0,1.339980662E-1
3.028697217E0,-2.743969440E0,-9.894321442E0,4.785645381E-2
3.033472686E0,-2.773879766E0,-9.836296082E0,-7.178468257E-2
3.038248102E0,-2.827120066E0,-9.802796364E0,-2.356930375E-1
3.043023571E0,-2.880958557E0,-9.754341125E0,-3.888336718E-1
3.047798988E0,-2.929413080E0,-9.696913719E0,-5.324030519E-1
3.052574456E0,-2.949752092E0,-9.658030510E0,-6.472585201E-1
3.057349873E0,-2.968894720E0,-9.629316330E0,-7.339983582E-1
3.062125342E0,-2.912663460E0,-9.610174179E0,-8.009973764E-1
3.066900811E0,-2.831307411E0,-9.585647583E0,-8.015955687E-1
3.071676227E0,-2.816950560E0,-9.552147865E0,-8.159525394E-1
3.076451696E0,-2.774477959E0,-9.527621269E0,-8.021938205E-1
3.081227113E0,-2.688934565E0,-9.527621269E0,-8.500502706E-1
3.086002581E0,-2.665604353E0,-9.508479118E0,-8.554341197E-1
3.090777998E0,-2.599203587E0,-9.507881165E0,-9.086744189E-1
3.095553467E0,-2.504687071E0,-9.512666702E0,-9.810572863E-1
3.100328936E0,-2.509472847E0,-9.483952522E0,-1.048056364E0
3.105104352E0,-2.472383976E0,-9.459425926E0,-1.134796143E0
3.109879821E0,-2.420340061E0,-9.420542717E0,-1.211366415E0
3.114655238E0,-2.392822742E0,-9.377471924E0,-1.317248821E0
3.119430706E0,-2.374278307E0,-9.338588715E0,-1.428515077E0
3.124206123E0,-2.332403898E0,-9.333803177E0,-1.524227977E0
3.128981592E0,-2.318645239E0,-9.309276581E0,-1.577468276E0
3.133757061E0,-2.333002090E0,-9.251849174E0,-1.606182218E0
3.138532477E0,-2.314457655E0,-9.208179474E0,-1.658824325E0
3.143307946E0,-2.329412937E0,-9.193822861E0,-1.706680775E0
3.148083363E0,-2.295913219E0,-9.174679756E0,-1.740778446E0
3.152858831E0,-2.305484533E0,-9.145966530E0,-1.721635938E0
3.157634248E0,-2.272583246E0,-9.121439934E0,-1.721635938E0
3.162409717E0,-2.177468538E0,-9.135796547E0,-1.760519266E0
3.167185134E0,-2.125424623E0,-9.154939651E0,-1.822732687E0
3.171960602E0,-2.049452543E0,-9.183652878E0,-1.880758643E0
3.176736071E0,-2.007578135E0,-9.217152596E0,-2.000998020E0
3.181511488E0,-1.936391711E0,-9.212367058E0,-2.068595171E0
3.186286956E0,-1.847259045E0,-9.230911255E0,-2.265404940E0
3.191062373E0,-1.820339799E0,-9.192625999E0,-2.453241348E0
3.195837842E0,-1.774278045E0,-9.221340179E0,-2.698505640E0
3.200613259E0,-1.698904037E0,-9.288339615E0,-2.995813847E0
3.205388727E0,-1.648056626E0,-9.312267303E0,-3.288934708E0
3.210164144E0,-1.707877159E0,-9.306883812E0,-3.668197155E0
3.214926331E0,-1.786242127E0,-9.355338097E0,-3.979264021E0
3.219715081E0,-1.920838356E0,-9.437292099E0,-4.256831646E0
3.224490498E0,-2.107478619E0,-9.515059471E0,-4.495515347E0
3.229252634E0,-2.450250387E0,-9.476774216E0,-4.599603176E0
3.234041384E0,-2.988635540E0,-9.401400566E0,-4.625326157E0
3.238816852E0,-3.473780155E0,-9.334999084E0,-4.555934429E0
3.243578988E0,-3.981656790E0,-9.254839897E0,-4.361517429E0
3.248367738E0,-4.578666210E0,-9.193822861E0,-3.912265062E0
3.253143206E0,-4.846662045E0,-9.281160355E0,-3.449851990E0
3.257905342E0,-4.762913704E0,-9.468997002E0,-3.114258766E0
3.262694092E0,-4.380061626E0,-9.756733894E0,-2.813959360E0
3.267469509E0,-3.707678795E0,-1.012702370E1,-2.840878725E0
3.272244977E0,-3.067000389E0,-1.056311512E1,-3.256631613E0
3.277020394E0,-2.294118643E0,-1.097049332E1,-3.884747505E0
3.281795863E0,-1.515853167E0,-1.144068336E1,-4.530809879E0
3.286557998E0,-8.512466550E-1,-1.184806156E1,-4.956732273E0
3.291346748E0,-4.989035130E-1,-1.220339584E1,-5.135595798E0
3.296122217E0,2.003988922E-1,-1.241396427E1,-5.225924492E0
3.300884352E0,1.001994491E0,-1.247498131E1,-4.860421181E0
3.305673102E0,1.567897081E0,-1.262812138E1,-4.152743816E0
3.310448519E0,2.045265198E0,-1.286800194E1,-3.372683525E0
3.315210654E0,2.343769789E0,-1.281476212E1,-2.659622431E0
3.319999456E0,1.788634896E0,-1.235414314E1,-2.196012974E0
3.324774873E0,9.152546525E-1,-1.163809109E1,-1.544566989E0
3.329537009E0,1.316052526E-1,-1.087896824E1,-8.829515576E-1
3.334325759E0,-4.331009090E-1,-1.018265629E1,-2.572284341E-1
3.339101227E0,-6.323033571E-1,-9.648459435E0,1.519442350E-1
3.343863363E0,-7.136593461E-1,-9.253643036E0,3.050848842E-1
3.348652113E0,-6.628118753E-1,-9.012566566E0,1.704886109E-1
3.353427529E0,-4.660021961E-1,-8.775676727E0,-2.338984162E-1
3.358189717E0,3.888336942E-2,-8.610571861E0,-7.740781307E-1
3.362978467E0,3.649054468E-2,-8.687142372E0,-1.219741344E0
3.367753884E0,2.189432681E-1,-8.758927345E0,-1.734796405E0
3.372529352E0,4.211367965E-1,-8.858827591E0,-2.258824587E0
3.377304769E0,4.947160780E-1,-9.008378983E0,-2.758326292E0
3.382080238E0,5.018945336E-1,-9.167501450E0,-3.223132133E0
3.386842373E0,4.384847581E-1,-9.302098274E0,-3.530011654E0
3.391631123E0,3.517449200E-1,-9.302098274E0,-3.650250912E0
3.396406592E0,1.232303679E-1,-9.134002686E0,-3.639483213E0
3.401182009E0,3.589233849E-3,-8.821140289E0,-3.629313707E0
3.405957477E0,-1.974078715E-1,-8.460422516E0,-3.647858143E0
3.410732894E0,-4.325026870E-1,-8.056035995E0,-3.781257868E0
3.415495029E0,-6.251249313E-1,-7.704290867E0,-3.962514400E0
3.420283779E0,-6.855437160E-1,-7.324429989E0,-4.173680782E0
3.425059248E0,-6.963114142E-1,-6.996613503E0,-4.269991875E0
3.429821384E0,-1.006181955E0,-6.819544315E0,-4.239483356E0
3.434610134E0,-1.210170031E0,-6.622735023E0,-4.137788773E0
3.439385602E0,-1.110269666E0,-6.390631199E0,-3.999603033E0
3.444147738E0,-9.816554785E-1,-6.183053493E0,-3.789034605E0
3.448936488E0,-9.098708034E-1,-6.000002861E0,-3.607180119E0
3.453711904E0,-7.992027402E-1,-5.851049423E0,-3.401397467E0
3.458474092E0,-8.129615188E-1,-5.749952793E0,-3.214159012E0
3.463262842E0,-8.075776696E-1,-5.721239090E0,-3.099303484E0
3.468038259E0,-6.454638839E-1,-5.778068542E0,-3.052045345E0
3.472813727E0,-5.964110494E-1,-5.840879917E0,-2.970689297E0
3.477589144E0,-6.245267391E-1,-5.903691769E0,-2.956332445E0
3.482364613E0,-6.939185411E-2,-5.776872158E0,-3.083750248E0
3.487140081E0,-5.772684813E-1,-6.004788399E0,-3.052045345E0
3.491915498E0,-1.189831018E0,-6.193821430E0,-2.871387243E0
3.496690967E0,-1.389033556E0,-6.358327866E0,-2.894119024E0
3.501466384E0,-1.265803218E0,-6.487540245E0,-3.004786968E0
3.506241852E0,-9.762716293E-1,-6.637091637E0,-3.178864956E0
3.511017269E0,-1.047458172E0,-6.844070911E0,-3.284149170E0
3.515792738E0,-9.104689956E-1,-6.978068829E0,-3.438486099E0
3.520568154E0,-7.345965505E-1,-7.069594383E0,-3.574278831E0
3.525343623E0,-5.964110494E-1,-7.136593342E0,-3.622733593E0
3.530119092E0,-5.629115105E-1,-7.170093060E0,-3.637090445E0
3.534894509E0,-4.677968323E-1,-7.169494629E0,-3.642474174E0
3.539669977E0,-3.684946895E-1,-7.140780926E0,-3.690928936E0
3.544445394E0,-2.500499785E-1,-7.130611420E0,-3.792025566E0
3.549220863E0,-3.415754437E-1,-7.159923553E0,-3.949951887E0
3.553996331E0,-4.803591371E-1,-7.256234646E0,-4.170091629E0
3.558771748E0,-5.718846321E-1,-7.405786037E0,-4.404588223E0
3.563547217E0,-6.921239495E-1,-7.622336388E0,-4.628915310E0
3.568322634E0,-7.633104324E-1,-7.887939930E0,-4.777868748E0
3.573098102E0,-7.818548083E-1,-8.162516594E0,-4.892724037E0
3.577873519E0,-7.010970116E-1,-8.480163574E0,-5.008177757E0
3.582648988E0,-5.712863803E-1,-8.792427063E0,-5.118845940E0
3.587411123E0,-5.228317380E-1,-9.101100922E0,-5.128417015E0
3.592199873E0,-4.743770957E-1,-9.404391289E0,-5.061418056E0
3.596975342E0,-3.487538993E-1,-9.644869804E0,-4.936991215E0
3.601737477E0,-8.614161611E-2,-9.793823242E0,-4.818546772E0
3.606526227E0,1.710868180E-1,-9.856036186E0,-4.733003139E0
3.611301644E0,4.145565331E-1,-9.884152412E0,-4.661816597E0
3.616077113E0,6.293123364E-1,-9.893125534E0,-4.615156651E0
3.620852529E0,8.003991842E-1,-9.897911072E0,-4.567898273E0
3.625627998E0,9.726824164E-1,-9.902098656E0,-4.448855400E0
3.630403467E0,1.092323542E0,-9.935597420E0,-4.305884361E0
3.635178884E0,1.222134113E0,-9.959526062E0,-4.085744858E0
3.639954352E0,1.347159147E0,-1.000319481E1,-3.879961967E0
3.644729769E0,1.466800332E0,-1.000798035E1,-3.736990690E0
3.649505238E0,1.615753531E0,-1.004148006E1,-3.632304668E0
3.654280706E0,1.701895118E0,-1.008455086E1,-3.550350666E0
3.659056123E0,1.740180254E0,-1.014676476E1,-3.526422262E0
3.663831592E0,1.702493310E0,-1.020957565E1,-3.555136204E0
3.668607009E0,1.621137381E0,-1.023410225E1,-3.602992773E0
3.673382477E0,1.511067510E0,-1.023888779E1,-3.660420418E0
3.678157894E0,1.362712502E0,-1.018146038E1,-3.736392498E0
3.682933363E0,1.234098315E0,-1.012403297E1,-3.821935892E0
3.687708831E0,1.119242787E0,-1.004686451E1,-3.917050600E0
3.692484248E0,9.990034699E-1,-9.955338478E0,-4.036691666E0
3.697259717E0,8.931210637E-1,-9.839884758E0,-4.185046673E0
3.702035134E0,8.255237937E-1,-9.719645500E0,-4.323830605E0
3.706810602E0,7.483552694E-1,-9.580264091E0,-4.448257446E0
3.711586019E0,6.568298340E-1,-9.450452805E0,-4.552943230E0
3.716361488E0,5.174478889E-1,-9.306285858E0,-4.663012981E0
3.721136956E0,3.212364316E-1,-9.181859016E0,-4.744369030E0
3.725912373E0,8.793623000E-2,-9.075976372E0,-4.791028976E0
3.730687842E0,-1.124626622E-1,-8.970691681E0,-4.818546772E0
3.735463259E0,-3.320041299E-1,-8.855237961E0,-4.861019135E0
3.740238727E0,-5.700899959E-1,-8.749954224E0,-4.902893543E0
3.745014144E0,-8.279166222E-1,-8.624929428E0,-4.887340069E0
3.749789613E0,-1.208375454E0,-8.525029182E0,-4.808377266E0
3.754565081E0,-1.630708575E0,-8.449056625E0,-4.685744762E0
3.759327217E0,-2.149353027E0,-8.382656097E0,-4.539184570E0
3.764115967E0,-2.632703066E0,-8.427521706E0,-4.364508629E0
3.768891384E0,-3.098107100E0,-8.616554260E0,-4.237090588E0
3.773653519E0,-3.448655605E0,-8.969495773E0,-4.196412563E0
3.778442321E0,-3.618546009E0,-9.374481201E0,-4.238286972E0
3.783217738E0,-3.717848301E0,-9.817750931E0,-4.357928276E0
3.787979873E0,-3.712464333E0,-1.024666500E1,-4.491926193E0
3.792768623E0,-3.693321705E0,-1.063190937E1,-4.606781960E0
3.797544092E0,-3.659822226E0,-1.096391296E1,-4.760520458E0
3.802306227E0,-3.530609846E0,-1.129172993E1,-4.847260475E0
3.807094977E0,-3.410968781E0,-1.158963680E1,-4.890929699E0
3.811870446E0,-3.177070379E0,-1.189232826E1,-4.853840828E0
3.816632581E0,-2.904886723E0,-1.216152096E1,-4.782654285E0
3.821421331E0,-2.555534601E0,-1.248395348E1,-4.741377831E0
3.826196748E0,-2.159522533E0,-1.278186035E1,-4.661218643E0
3.830958884E0,-1.743769526E0,-1.308395386E1,-4.548157692E0
3.835747686E0,-1.256830096E0,-1.337228966E1,-4.415954113E0
3.840523102E0,-7.698906660E-1,-1.366959763E1,-4.298107624E0
3.845285238E0,-3.098705411E-1,-1.393340588E1,-3.882952929E0
3.850073988E0,1.381855011E-1,-1.394716454E1,-2.997608662E0
3.854849456E0,3.571287692E-1,-1.354756355E1,-1.962114573E0
3.859611592E0,2.213360965E-1,-1.269571877E1,-1.117448211E0
3.864400342E0,-1.196411345E-2,-1.151127148E1,-5.844469070E-1
3.869175811E0,-4.175475538E-1,-1.025503922E1,-1.417747438E-1
3.873937946E0,-9.092726111E-1,-9.085547447E0,3.110669553E-1
3.878726696E0,-1.427916884E0,-8.094919205E0,7.208378315E-1
3.883502113E0,-2.014158487E0,-7.310671329E0,1.045065284E0
3.888264300E0,-2.600399971E0,-6.652645111E0,1.201196909E0
3.893053050E0,-3.083152056E0,-6.171687603E0,1.097707391E0
3.897828467E0,-3.452843189E0,-5.796612740E0,7.010970116E-1
3.902590602E0,-4.138985157E0,-5.431707382E0,4.247260094E-2
3.907379352E0,-4.585246563E0,-5.263611794E0,-5.988038778E-1
3.912154821E0,-4.893920422E0,-5.196612358E0,-1.268794179E0
3.916916956E0,-5.091926575E0,-5.172684193E0,-1.757528186E0
3.921705706E0,-5.307878971E0,-5.201996326E0,-1.948355794E0
3.926481175E0,-5.525625706E0,-5.352146149E0,-1.846660852E0
3.931243311E0,-5.642275810E0,-5.661418438E0,-1.648654819E0
3.936032061E0,-5.729613781E0,-6.114260197E0,-1.398604870E0
3.940807477E0,-5.711069584E0,-6.644270420E0,-1.057029366E0
3.945582946E0,-5.483152866E0,-7.212565422E0,-5.880361795E-1
3.950358363E0,-5.164907455E0,-7.727022648E0,-1.040877849E-1
3.955133831E0,-4.798805714E0,-8.131409645E0,3.212364316E-1
3.959895967E0,-4.638486862E0,-8.487341881E0,7.423732281E-1
3.964684717E0,-4.582853794E0,-8.742775917E0,1.064207911E0
3.969460186E0,-4.485944271E0,-8.921639442E0,1.361516118E0
3.974222321E0,-4.350151539E0,-9.084949493E0,1.682154298E0
3.979011071E0,-4.129413605E0,-9.267401695E0,1.944766641E0
3.983786540E0,-3.865006685E0,-9.435498238E0,2.136192322E0
3.988548675E0,-3.569493294E0,-9.742975235E0,2.139781713E0
3.993337425E0,-3.331407309E0,-1.021974564E1,1.917249203E0
3.998112842E0,-2.961716175E0,-1.071924686E1,1.508076429E0
4.002874977E0,-2.459223509E0,-1.122413254E1,8.865407705E-1
4.007663727E0,-2.136790514E0,-1.153101254E1,5.395814776E-1
4.012439196E0,-1.790429592E0,-1.175653553E1,2.602194548E-1
4.017201331E0,-1.367498159E0,-1.186122227E1,6.580262631E-2
4.021990081E0,-9.966106415E-1,-1.180259800E1,6.879365444E-2
4.026765550E0,-7.256234884E-1,-1.162373447E1,2.494517565E-1
4.031527686E0,-5.958128572E-1,-1.136889839E1,5.078766346E-1
4.036316436E0,-5.611169338E-1,-1.106979561E1,8.476574421E-1
4.041091852E0,-4.983053207E-1,-1.080000496E1,1.202991605E0
4.045854040E0,-4.683950245E-1,-1.054935646E1,1.533201098E0
4.050642790E0,-3.529413342E-1,-1.032802105E1,1.834696770E0
4.055418206E0,-2.045863420E-1,-1.016411209E1,2.084148407E0
4.060180342E0,9.571290575E-3,-1.004327488E1,2.255235434E0
4.064969144E0,2.715853751E-1,-9.974481583E0,2.297109842E0
4.069744561E0,5.359922647E-1,-9.901499748E0,1.945364833E0
4.074506696E0,6.807580590E-1,-9.910472870E0,1.536790371E0
4.079295446E0,6.400800347E-1,-1.000259686E1,1.052243710E0
4.084070915E0,3.990031779E-1,-1.017129040E1,4.582255483E-1
4.088833050E0,-6.580262631E-2,-1.040818024E1,-1.914258152E-1
4.093621800E0,-5.587241054E-1,-1.057747269E1,-8.512466550E-1
4.098397269E0,-9.559326172E-1,-1.074197865E1,-1.256830096E0
4.103159404E0,-1.189232826E0,-1.084367371E1,-1.337587833E0
4.107948154E0,-1.259222865E0,-1.088255692E1,-1.178465128E0
4.112723571E0,-1.138983607E0,-1.085803127E1,-9.343972206E-1
4.117499040E0,-8.901300430E-1,-1.084307575E1,-6.191428304E-1
4.122274456E0,-5.934200287E-1,-1.082812023E1,-3.708875179E-1
4.127049925E0,-3.068794906E-1,-1.081795120E1,-1.848455518E-1
4.131825394E0,-1.112662554E-1,-1.079821014E1,-1.286142170E-1
4.136600811E0,-2.392822644E-3,-1.078385353E1,-1.674975902E-1
4.141376279E0,2.093719877E-2,-1.077368355E1,-2.398804724E-1
4.146151696E0,-2.273181453E-2,-1.070668507E1,-3.212364316E-1
4.150927165E0,-1.046859920E-1,-1.061037350E1,-4.360919297E-1
4.155702634E0,-2.679961324E-1,-1.045663452E1,-6.227321029E-1
4.160478050E0,-5.880361795E-1,-1.024546814E1,-8.225327730E-1
4.165253519E0,-8.805587292E-1,-1.004865837E1,-9.601200819E-1
4.170028936E0,-1.095314622E0,-9.846465111E0,-9.732806087E-1
4.174804404E0,-1.208973646E0,-9.644271851E0,-8.291130662E-1
4.179579873E0,-1.231705427E0,-9.437292099E0,-5.365904570E-1
4.184355290E0,-1.006181955E0,-9.235098839E0,-1.106680483E-1
4.189130759E0,-8.141579032E-1,-9.046664238E0,2.626122832E-1
4.193906175E0,-6.945167780E-1,-8.873184204E0,5.641079545E-1
4.198681644E0,-8.841479421E-1,-8.603393555E0,7.806583643E-1
4.203443779E0,-1.173679471E0,-8.349156380E0,9.601200819E-1
4.208232529E0,-1.454237938E0,-8.051250458E0,1.134197950E0
4.213007998E0,-1.658824325E0,-7.830512047E0,1.255035520E0
4.217770134E0,-1.606182218E0,-7.762914658E0,1.369292736E0
4.222558884E0,-1.468594909E0,-7.737790108E0,1.344766378E0
4.227334300E0,-1.226919770E0,-7.694121361E0,1.223928809E0
4.232109769E0,-1.004387259E0,-7.659425259E0,1.030708313E0
4.236885238E0,-7.680960894E-1,-7.601399422E0,8.273184299E-1
4.241660654E0,-5.024927258E-1,-7.388438225E0,6.867401004E-1
4.246436123E0,-5.048855543E-1,-7.167101860E0,4.899304509E-1
4.251218758E0,-7.214360237E-1,-7.080960274E0,2.177468538E-1
4.255994227E0,-8.608179688E-1,-7.153343201E0,-5.982056633E-2
4.260769695E0,-9.236295223E-1,-7.326822758E0,-3.768695593E-1
4.265545112E0,-9.966106415E-1,-7.567301750E0,-7.980063558E-1
4.270320581E0,-1.064806104E0,-7.871190071E0,-1.238883972E0
4.275082716E0,-1.142572761E0,-8.208578110E0,-1.670788407E0
4.279871466E0,-1.191625714E0,-8.516654015E0,-2.053640127E0
4.284646935E0,-1.226321578E0,-8.733204842E0,-2.370090723E0
4.289409070E0,-1.322034478E0,-8.921639442E0,-2.605185747E0
4.294197820E0,-1.398604870E0,-9.123832703E0,-2.844467878E0
4.298973237E0,-1.484746456E0,-9.360123634E0,-2.997010469E0
4.303735372E0,-1.522433400E0,-9.591031075E0,-3.044866800E0
4.308524174E0,-1.597209096E0,-9.846465111E0,-3.020340443E0
4.313299591E0,-1.671984792E0,-1.010728264E1,-2.923431158E0
4.318061727E0,-1.746162295E0,-1.035793114E1,-2.731407166E0
4.322852567E0,-1.734198213E0,-1.056012440E1,-2.472383976E0
4.327628035E0,-1.599003673E0,-1.069531918E1,-2.165504456E0
4.332403452E0,-1.420738459E0,-1.075274658E1,-1.806581140E0
4.337178921E0,-1.252044439E0,-1.070907784E1,-1.442872047E0
4.341954389E0,-1.088136077E0,-1.063190937E1,-1.040279627E0
4.346729806E0,-9.008977413E-1,-1.052064323E1,-6.909275651E-1
4.351505275E0,-6.951149702E-1,-1.039980507E1,-3.900300860E-1
4.356280692E0,-5.078766346E-1,-1.032263660E1,-1.651047617E-1
4.361042879E0,-3.409772217E-1,-1.028375340E1,-2.691925503E-2
4.365831577E0,-1.405783296E-1,-1.027358437E1,5.383851007E-2
4.370607046E0,-5.503492057E-2,-1.029272652E1,8.673982322E-2
4.375382514E0,1.256231871E-2,-1.031665516E1,1.872383654E-1
4.380157931E0,8.494520187E-2,-1.035494041E1,3.164508045E-1
4.384933400E0,1.094716340E-1,-1.040339470E1,4.504488707E-1
4.389708869E0,1.100698411E-1,-1.049013424E1,5.084748268E-1
4.394484285E0,5.802594870E-2,-1.056730270E1,4.845465720E-1
4.399259754E0,-5.682953820E-2,-1.056251717E1,4.325026870E-1
4.404035171E0,-2.422732860E-1,-1.047159004E1,4.331009090E-1
4.408810639E0,-3.852444589E-1,-1.036570740E1,4.821537733E-1
4.413586108E0,-5.084748268E-1,-1.032742214E1,5.258227587E-1
4.418361525E0,-5.694918036E-1,-1.032802105E1,6.221339107E-1
4.423136994E0,-6.831508875E-1,-1.031366348E1,8.285148144E-1
4.427912410E0,-8.913264275E-1,-1.029990482E1,1.027119160E0
4.432687879E0,-1.128215909E0,-1.035374355E1,1.114457130E0
4.437463348E0,-1.342373490E0,-1.045005512E1,1.110867858E0
4.442238764E0,-1.627717614E0,-1.059063339E1,9.828519225E-1
4.447014233E0,-1.899901152E0,-1.075513935E1,8.207381964E-1
4.451789650E0,-2.161915302E0,-1.089511967E1,6.735795736E-1
4.456565119E0,-2.452643156E0,-1.100638580E1,5.216353536E-1
4.461327254E0,-2.714657307E0,-1.096391296E1,4.606183469E-1
4.466116004E0,-2.991626501E0,-1.106082249E1,2.895315289E-1
4.470891473E0,-3.120838881E0,-1.109970570E1,1.609173268E-1
4.475653608E0,-3.130410194E0,-1.117687416E1,3.649054468E-2
4.480442358E0,-3.117249727E0,-1.122054386E1,-1.220339537E-1
4.485217827E0,-2.937788010E0,-1.130189991E1,-3.343969584E-1
4.489993244E0,-2.605185747E0,-1.136351490E1,-5.234299302E-1
4.494768712E0,-2.063809633E0,-1.143410301E1,-6.699903607E-1
4.499544129E0,-1.402194023E0,-1.157228851E1,-7.357929349E-1
4.504306264E0,-7.878368497E-1,-1.176311588E1,-7.387840152E-1
4.509095067E0,-2.261217386E-1,-1.198804188E1,-8.853443861E-1
4.513870483E0,2.632104978E-2,-1.225304699E1,-9.439685345E-1
4.518632619E0,2.356930375E-1,-1.269033527E1,-1.136590719E0
4.523421369E0,4.983053207E-1,-1.302712440E1,-1.200000525E0
4.528196837E0,6.610172391E-1,-1.327238941E1,-1.205384374E0
4.532958973E0,6.801598072E-1,-1.350389481E1,-1.277767301E0
4.537747723E0,6.418746710E-1,-1.356192017E1,-1.325623751E0
4.542523192E0,7.130611539E-1,-1.367199039E1,-1.407577872E0
4.547298608E0,7.746763229E-1,-1.373001671E1,-1.470389485E0
4.552074077E0,7.800601721E-1,-1.370070457E1,-1.360319614E0
4.556849494E0,9.427721500E-1,-1.374377537E1,-1.201795220E0
4.561624962E0,1.163509965E0,-1.376291752E1,-9.535398483E-1
4.566400431E0,1.331605792E0,-1.371446323E1,-6.047859192E-1
4.571175848E0,1.428515077E0,-1.367079353E1,-2.931207716E-1
4.575951317E0,1.496710539E0,-1.363729477E1,-3.409772366E-2
4.580726785E0,1.459023595E0,-1.350269794E1,1.052841991E-1
4.585502202E0,1.153938770E0,-1.331486130E1,1.064806059E-1
4.590277671E0,7.052844763E-1,-1.307019520E1,-7.357929647E-2
4.595053087E0,1.884347796E-1,-1.277288723E1,-3.260220885E-1
4.599828556E0,-4.510470629E-1,-1.234098244E1,-5.048855543E-1
4.604590692E0,-1.243669510E0,-1.175952721E1,-6.358926296E-1
4.609379442E0,-1.750349760E0,-1.113978577E1,-7.339983582E-1
4.614154910E0,-1.942971945E0,-1.065822983E1,-7.190431952E-1
4.618917046E0,-2.228914261E0,-1.026879883E1,-6.125625968E-1
4.623705796E0,-2.536391973E0,-9.985847473E0,-2.081755698E-1
4.628481212E0,-2.866003275E0,-9.774082184E0,4.510470629E-1
4.633243400E0,-3.181855917E0,-9.606584549E0,1.067198873E0
4.638032150E0,-3.549154282E0,-9.516255379E0,1.654038668E0
4.642807567E0,-4.003790379E0,-9.483952522E0,2.151147604E0
4.647569702E0,-4.481756687E0,-9.524032593E0,2.504088879E0
4.652358504E0,-4.988437176E0,-9.736993790E0,2.712862730E0
4.657133921E0,-5.487938881E0,-1.004686451E1,2.633899450E0
4.661896056E0,-5.954539299E0,-1.039442158E1,2.301297188E0
4.666684806E0,-6.361917019E0,-1.072283649E1,1.746162295E0
4.671460275E0,-6.750152588E0,-1.099801064E1,1.072582722E0
4.676222410E0,-7.010970116E0,-1.127797127E1,2.578266263E-1
4.681011160E0,-7.167700291E0,-1.154776192E1,-6.819544435E-1
4.685786629E0,-7.192226887E0,-1.178345490E1,-1.713261008E0
4.690548764E0,-7.049255371E0,-1.192702484E1,-2.505883455E0
4.695337514E0,-6.956533432E0,-1.202752304E1,-2.976671457E0
4.700112931E0,-6.981060028E0,-1.203230858E1,-3.067598581E0
4.704875119E0,-7.076773167E0,-1.187378407E1,-3.057429075E0
4.709663869E0,-6.943373203E0,-1.160399342E1,-2.866601467E0
4.714439285E0,-6.781857491E0,-1.128574753E1,-2.704487801E0
4.719214754E0,-6.443871498E0,-1.086102200E1,-2.456830740E0
4.723990223E0,-5.781059742E0,-1.040219784E1,-1.999801517E0
4.728765639E0,-4.966303349E0,-9.956535339E0,-1.572682738E0
4.733527775E0,-4.275974274E0,-9.613164902E0,-1.311864972E0
4.738316525E0,-3.981058598E0,-9.198608398E0,-1.122233868E0
4.743091994E0,-3.696312666E0,-8.696115494E0,-1.008574724E0
4.747854129E0,-3.434896946E0,-8.300702095E0,-7.704889178E-1
4.752642879E0,-3.414557934E0,-7.992625713E0,-4.396811724E-1
4.757418348E0,-3.536591768E0,-7.747959614E0,-4.067798331E-2
4.762180483E0,-3.675973892E0,-7.699504852E0,5.928218365E-1
4.766969233E0,-3.759722471E0,-7.758727551E0,1.630110383E0
4.771744650E0,-3.513859987E0,-7.927421570E0,2.838485956E0
4.776506837E0,-3.218346357E0,-8.027919769E0,3.676572084E0
4.781295587E0,-2.548356056E0,-8.132605553E0,4.229912281E0
4.786071004E0,-1.559522152E0,-8.120641708E0,4.114458561E0
4.790833139E0,-1.435693651E-1,-8.212765694E0,3.017947674E0
4.795621942E0,1.363908887E0,-8.328817368E0,1.287338614E0
4.800397358E0,2.654836655E0,-8.893523216E0,-2.452643216E-1
4.805159494E0,4.537988186E0,-1.002592659E1,-1.031306505E0
4.809948244E0,4.415954113E0,-1.095493984E1,-2.057229280E0
4.814723712E0,3.271586657E0,-1.149272728E1,-2.026720762E0
4.819485848E0,2.290529490E0,-1.187557888E1,-1.566102386E0
4.824274598E0,1.639083505E0,-1.208495045E1,-9.236295223E-1
4.829050067E0,1.064806104E0,-1.188873959E1,-4.845465720E-1
4.833825483E0,-2.392822644E-3,-1.118883896E1,-3.355933726E-1
4.838600952E0,-1.342971683E0,-1.003549862E1,-3.966103494E-1
4.843376421E0,-2.065604210E0,-8.687741280E0,-3.409772217E-1
4.848138556E0,-2.073979139E0,-7.473981380E0,-2.937189937E-1
4.852927306E0,-1.878365755E0,-6.312266350E0,-3.050848842E-1
4.857702723E0,-2.011167526E0,-5.146961689E0,-3.966103494E-1
4.862464910E0,-2.227717876E0,-4.135395527E0,-3.672982752E-1
4.867253660E0,-2.377269268E0,-3.322434187E0,-2.183450609E-1
4.872029077E0,-2.410768747E0,-2.700898647E0,4.127619043E-2
4.876791212E0,-2.464009047E0,-2.161317110E0,1.896311939E-1
4.881579962E0,-2.588435888E0,-1.718046665E0,3.385843933E-1
4.886355431E0,-2.697907448E0,-1.357328653E0,4.444667995E-1
4.891117567E0,-2.717648268E0,-9.762716293E-1,5.066801906E-1
4.895906317E0,-2.799602509E0,-6.299105883E-1,5.934200287E-1
4.900681785E0,-2.718246460E0,-4.277170599E-1,6.981059909E-1
4.905443921E0,-2.527418852E0,-4.707878530E-1,8.219345808E-1
4.910232671E0,-2.416750908E0,-6.873382926E-1,9.326026440E-1
4.915008139E0,-2.338984251E0,-9.900303483E-1,1.061815023E0
4.919770275E0,-2.209173441E0,-1.404586911E0,1.094716311E0
4.924559025E0,-2.051247120E0,-1.760519266E0,9.888339639E-1
4.929334494E0,-1.999801517E0,-1.991426587E0,8.009973764E-1
4.934109910E0,-2.100300074E0,-2.116451740E0,5.617151260E-1
4.938885379E0,-2.201396942E0,-2.204387903E0,2.985046208E-1
4.943660796E0,-2.312064886E0,-2.295913219E0,5.922235921E-2
4.948436264E0,-2.355135679E0,-2.435295343E0,-8.434699476E-2
4.953211681E0,-2.441277266E0,-2.603989124E0,-1.938186288E-1
4.957987150E0,-2.513062000E0,-2.849851847E0,-3.858426511E-1
4.962762619E0,-2.684148788E0,-3.172882795E0,-6.005984545E-1
4.967538035E0,-2.965305567E0,-3.674777269E0,-8.913264275E-1
4.972313504E0,-3.251247883E0,-4.334598064E0,-1.263410330E0
4.977075639E0,-3.326621771E0,-5.120640278E0,-1.642074585E0
4.981864389E0,-3.139981508E0,-5.987440586E0,-1.848455548E0
4.986639858E0,-2.756531715E0,-6.945167542E0,-1.984248161E0
4.991401994E0,-2.312064886E0,-8.027919769E0,-2.182852507E0
4.996190744E0,-2.084148407E0,-9.106484413E0,-2.850450039E0
5.000966212E0,-2.112264156E0,-1.026221848E1,-4.159324169E0
5.005728348E0,-1.947757602E0,-1.155194950E1,-5.973681927E0
5.010517098E0,-1.443470240E0,-1.333161163E1,-8.475378036E0
5.015292567E0,-8.841479421E-1,-1.566102409E1,-1.162014484E1
5.020054702E0,4.055834413E-1,-1.879681778E1,-1.556411457E1
5.024843452E0,1.160519004E0,-2.321516609E1,-2.129014015E1
5.029618869E0,3.143570662E0,-2.910091019E1,-2.619662285E1
5.034381056E0,7.224529743E0,-3.450629807E1,-2.533580399E1
5.039169806E0,9.927821159E0,-3.665026474E1,-2.079841423E1
5.043945223E0,1.042433167E1,-3.600600052E1,-1.627598000E1
5.048707358E0,8.492725372E0,-3.305923843E1,-1.158903790E1
5.053496108E0,4.278964996E0,-2.753540611E1,-8.452047348E0
5.058271577E0,1.342971683E0,-2.191586304E1,-7.019943237E0
5.063033712E0,8.303094506E-1,-1.736949921E1,-6.002993584E0
5.067822462E0,6.963114142E-1,-1.337228966E1,-4.824528694E0
5.072597931E0,4.073780477E-1,-9.701699257E0,-3.342175007E0
5.077360067E0,2.835494876E-1,-6.421737671E0,-1.674377680E0
5.082148817E0,1.082752272E-1,-3.441477060E0,1.854437590E-2
5.086924285E0,-1.298106313E-1,-7.489534616E-1,1.438684583E0
5.091686421E0,-5.036891699E-1,1.831705689E0,2.278565407E0
5.096475171E0,-7.938188910E-1,3.869194269E0,2.691327333E0
5.101250639E0,-1.049850941E0,5.361717224E0,2.797209740E0
5.106012775E0,-1.989632010E0,5.951548100E0,3.569493294E0
5.110801525E0,-4.219144344E0,5.165505886E0,4.234099865E0
5.115576942E0,-6.235097408E0,3.657429457E0,4.332205296E0
5.120339129E0,-7.098308563E0,1.786242127E0,3.752544165E0
5.125127879E0,-7.025327206E0,-2.997010350E-1,2.928216696E0
5.129903296E0,-6.169294834E0,-2.344966173E0,2.560320139E0
5.134665431E0,-5.160121918E0,-4.240081787E0,2.493919373E0
5.139454233E0,-4.440480709E0,-5.871986866E0,2.640479803E0
5.144229650E0,-4.405784607E0,-7.375277519E0,2.818745136E0
5.148991785E0,-4.799404144E0,-8.951549530E0,2.922234535E0
5.153780535E0,-5.532804012E0,-1.066361427E1,2.749951363E0
5.158556004E0,-6.586842537E0,-1.261735344E1,2.848057270E0
5.163318139E0,-8.026723862E0,-1.486600876E1,2.679363251E0
5.168106889E0,-9.340383530E0,-1.686281967E1,7.058826685E-1
5.172882358E0,-9.131011009E0,-2.087318993E1,-1.397288799E1
5.177644494E0,-7.012166977E0,-2.628994179E1,-3.147219849E1
5.182433244E0,-7.089933395E0,-2.809413147E1,-2.726202583E1
5.187208712E0,-8.251050949E0,-2.735175705E1,-1.275374508E1
5.191970848E0,-1.024128056E1,-2.585026169E1,3.858426511E-1
5.196759598E0,-1.138923740E1,-2.326900291E1,7.761120319E0
5.201535067E0,-1.040459061E1,-1.962054825E1,9.677771568E0
5.206297202E0,-7.793423176E0,-1.595713615E1,8.356334686E0
5.211085952E0,-5.853442192E0,-1.270887947E1,5.997011662E0
5.215861369E0,-4.848456860E0,-1.015214825E1,3.591028690E0
5.220623556E0,-4.119244099E0,-8.221738815E0,1.776072621E0
5.225412306E0,-3.466003656E0,-6.702296257E0,4.139583111E-1
5.230187723E0,-3.237488985E0,-5.448457241E0,-4.522434771E-1
5.234949858E0,-3.610171080E0,-4.350749969E0,-8.781659007E-1
5.239738608E0,-4.342973232E0,-3.466003656E0,-1.196411371E0
5.244514077E0,-4.944169998E0,-3.105883837E0,-1.375872970E0
5.249276212E0,-5.230112076E0,-3.241078377E0,-1.403390527E0
5.254064962E0,-4.932804108E0,-3.703491211E0,-1.323230863E0
5.258840431E0,-4.040280819E0,-4.351946354E0,-4.247260094E-1
5.263602567E0,-3.122035265E0,-5.072783947E0,8.231309652E-1
5.268391317E0,-2.450848579E0,-5.794818401E0,1.986641049E0
5.273166785E0,-1.973480463E0,-6.521039963E0,2.680559635E0
5.277928921E0,-1.588834286E0,-7.339385033E0,2.875574589E0
5.282717671E0,-1.381256819E0,-8.244470596E0,2.909074068E0
5.287493139E0,-1.393819213E0,-9.010771751E0,2.775076151E0
5.292255275E0,-1.440479279E0,-9.684949875E0,2.492722988E0
5.297044025E0,-1.378265858E0,-1.021496010E1,2.334796667E0
5.301819494E0,-1.258624673E0,-1.051346493E1,2.315055847E0
5.306581629E0,-1.118644595E0,-1.073001480E1,2.496910334E0
5.311370379E0,-1.040279627E0,-1.080658531E1,2.827718258E0
5.316145796E0,-8.374879360E-1,-1.088853931E1,3.273381472E0
5.320907931E0,-7.016952634E-1,-1.093161011E1,3.699303865E0
5.325696733E0,-7.274180651E-1,-1.097527885E1,4.179064751E0
5.330472150E0,-9.332008362E-1,-1.101894855E1,4.746761799E0
5.335234285E0,-1.311864972E0,-1.105902767E1,4.998008251E0
5.340023087E0,-1.616351724E0,-1.110269737E1,4.918447018E0
5.344798504E0,-1.770688772E0,-1.105962658E1,4.650450706E0
5.349573973E0,-1.764108539E0,-1.088136101E1,4.299902439E0
5.354349389E0,-1.615155339E0,-1.058225822E1,3.876372576E0
5.359124858E0,-1.272383451E0,-1.020060253E1,3.370888948E0
5.363900327E0,-8.309076428E-1,-9.756135941E0,2.676970243E0
5.368675744E0,-4.181457460E-1,-9.340383530E0,1.815554142E0
5.373451212E0,-5.443671346E-2,-9.016156197E0,8.243274093E-1
5.378213348E0,2.620140910E-1,-8.754739761E0,-2.189432681E-1
5.383002098E0,3.840480447E-1,-8.609375954E0,-1.188036442E0
5.387777567E0,2.829512656E-1,-8.407182693E0,-2.032702923E0
5.392539702E0,-1.214357466E-1,-8.200801849E0,-2.726621389E0
5.397328452E0,-6.580262184E-1,-8.009375572E0,-3.151347399E0
5.402103869E0,-1.110269666E0,-7.826922894E0,-3.201596737E0
5.406866056E0,-1.481157184E0,-7.572087288E0,-3.026920557E0
5.411654806E0,-1.942373753E0,-7.381259441E0,-2.823530674E0
5.416430275E0,-2.350948334E0,-7.295117855E0,-2.682354212E0
5.421192410E0,-2.744567633E0,-7.286743164E0,-2.565105915E0
5.425981160E0,-2.727817774E0,-7.378268719E0,-2.166700840E0
5.430756577E0,-2.437688112E0,-7.546364307E0,-1.525424480E0
5.435532046E0,-2.158325911E0,-7.632505894E0,-9.601200819E-1
5.440307514E0,-2.089532375E0,-7.709674358E0,-6.628118753E-1
5.445082931E0,-2.144567251E0,-7.835896015E0,-3.457628787E-1
5.449858400E0,-2.247458696E0,-7.850851059E0,-4.247260094E-2
5.454633817E0,-2.216950178E0,-7.754539967E0,2.596212626E-1
5.459409285E0,-2.005783558E0,-7.744370461E0,6.753742099E-1
5.464171421E0,-1.756929994E0,-7.728816986E0,8.997012973E-1
5.468960171E0,-1.518245935E0,-7.772486210E0,9.708877802E-1
5.473735639E0,-1.418345571E0,-7.728219032E0,9.511470199E-1
5.478511108E0,-1.390828133E0,-7.559525013E0,9.026923180E-1
5.483286525E0,-1.329811215E0,-7.438687325E0,8.111668825E-1
5.488061994E0,-1.336391449E0,-7.366304398E0,5.180460811E-1
5.492837410E0,-1.319641709E0,-7.385447025E0,1.489532143E-1
5.497612879E0,-1.508076429E0,-7.515855789E0,-3.637090325E-1
5.502388348E0,-1.787438512E0,-7.844270706E0,-1.009771109E0
5.507150483E0,-1.942373753E0,-8.287541389E0,-1.728814363E0
5.511939233E0,-1.884347796E0,-8.773283958E0,-2.602194548E0
5.516714702E0,-1.698305845E0,-9.268598557E0,-3.711267948E0
5.521476837E0,-1.534397483E0,-9.787840843E0,-5.112864017E0
5.526265587E0,-1.476371527E0,-1.031725311E1,-6.845267296E0
5.531041004E0,-1.485942841E0,-1.071625614E1,-7.876574039E0
5.535803139E0,-1.498505235E0,-1.092861938E1,-7.679764271E0
5.540591942E0,-1.539781332E0,-1.097228813E1,-6.657430649E0
5.545367358E0,-1.569691658E0,-1.094895840E1,-5.322834015E0
5.550129494E0,-1.480558991E0,-1.088674450E1,-3.955934048E0
5.554918244E0,-1.183250785E0,-1.079521942E1,-2.685943365E0
5.559693712E0,-6.544370055E-1,-1.067856884E1,-1.676172256E0
5.564455848E0,-2.267199457E-1,-1.059601688E1,-9.631111026E-1
5.569244598E0,1.328016520E-1,-1.054217815E1,-4.995017350E-1
5.574020067E0,3.529413342E-1,-1.052303600E1,-2.081755698E-1
5.578782202E0,4.025924206E-1,-1.056610680E1,4.127619043E-2
5.583570952E0,5.042873621E-1,-1.063310528E1,2.757728100E-1
5.588346421E0,5.629115105E-1,-1.071984577E1,4.917250574E-1
5.593108556E0,6.263213158E-1,-1.085503960E1,6.305087805E-1
5.597897306E0,6.795616150E-1,-1.100399303E1,7.310073376E-1
5.602672775E0,7.280163169E-1,-1.112483025E1,7.788637877E-1
5.607434910E0,7.704889178E-1,-1.115832996E1,7.304090858E-1
5.612223660E0,7.746763229E-1,-1.111047363E1,6.586244106E-1
5.616999129E0,6.550351977E-1,-1.092203903E1,6.209374666E-1
5.621774546E0,4.061816335E-1,-1.067737293E1,6.317051649E-1
5.626550014E0,4.426721856E-2,-1.042792130E1,7.004988194E-1
5.631325483E0,-2.835494876E-1,-1.025025368E1,8.027920127E-1
5.636100900E0,-5.204389095E-1,-1.012104130E1,1.054038405E0
5.640876369E0,-6.855437160E-1,-1.006839943E1,1.404586911E0
5.645651785E0,-7.591229677E-1,-1.008814049E1,1.783849239E0
5.650413973E0,-8.183453679E-1,-1.022333431E1,2.154138565E0
5.655202723E0,-1.015753269E0,-1.045962620E1,2.328216314E0
5.659978139E0,-1.186241865E0,-1.073958588E1,2.362912416E0
5.664753608E0,-1.462014675E0,-1.105304623E1,2.177468538E0
5.669529077E0,-1.663011789E0,-1.140538883E1,1.770688772E0
5.674304494E0,-1.884945989E0,-1.166082287E1,1.253839016E0
5.679066629E0,-2.163111687E0,-1.199821091E1,6.071787477E-1
5.683855431E0,-2.470589399E0,-1.234636688E1,-5.742774159E-2
5.688630848E0,-2.706282377E0,-1.258265781E1,-6.131607890E-1
5.693392983E0,-2.822334290E0,-1.268375492E1,-9.625129104E-1
5.698181733E0,-2.666202545E0,-1.267358494E1,-1.102493048E0
5.702957202E0,-2.599203587E0,-1.265444279E1,-1.059422255E0
5.707732671E0,-2.669791937E0,-1.275075340E1,-1.001994491E0
5.712508087E0,-2.521436930E0,-1.299123192E1,-9.780662656E-1
5.717283556E0,-1.968694806E0,-1.331725407E1,-9.236295223E-1
5.722045692E0,-1.134197950E0,-1.365763378E1,-8.458628058E-1
5.726834442E0,-2.769692242E-1,-1.394955826E1,-9.026923180E-1
5.731609910E0,4.588237405E-1,-1.413500118E1,-1.165902853E0
5.736372046E0,1.113260746E0,-1.423430347E1,-1.615753531E0
5.741160796E0,1.514656782E0,-1.426720524E1,-2.039881229E0
5.745936264E0,1.695314884E0,-1.430489159E1,-2.222932339E0
5.750698400E0,1.682154298E0,-1.426660633E1,-2.035693884E0
5.755487150E0,1.478764415E0,-1.402194023E1,-1.588834286E0
5.760262619E0,1.204786181E0,-1.374796295E1,-1.198804140E0
5.765038035E0,9.433703423E-1,-1.351765347E1,-9.672985673E-1
5.769813504E0,7.585247755E-1,-1.324307728E1,-7.842476368E-1
5.774588921E0,5.389832854E-1,-1.299362469E1,-7.304090858E-1
5.779364389E0,3.086741269E-1,-1.263769245E1,-7.920243144E-1
5.784139858E0,-1.872383654E-1,-1.214716434E1,-7.992027402E-1
5.788915275E0,-7.740781307E-1,-1.155135155E1,-6.526423693E-1
5.793677410E0,-1.293320656E0,-1.113380337E1,-6.263213158E-1
5.798466212E0,-1.856232166E0,-1.081196880E1,-6.813562512E-1
5.803241629E0,-2.560320139E0,-1.049611664E1,-5.383850932E-1
5.808003764E0,-3.214757204E0,-1.020897770E1,-3.110669367E-2
5.812792567E0,-3.886542082E0,-1.008096218E1,6.436693072E-1
5.817567983E0,-4.415954113E0,-1.001994514E1,1.308874011E0
5.822330119E0,-4.706682205E0,-1.004985523E1,2.000998020E0
5.827118869E0,-5.116453171E0,-1.017607689E1,2.517249346E0
5.831894337E0,-5.656034470E0,-1.042313576E1,2.870190859E0
5.836656473E0,-6.287141323E0,-1.071864891E1,3.113660574E0
5.841445223E0,-7.060023308E0,-1.104287624E1,3.262613773E0
5.846220692E0,-7.963313580E0,-1.133001518E1,3.214757204E0
5.850982827E0,-9.040083885E0,-1.157288647E1,2.812164783E0
5.855771577E0,-1.011446095E1,-1.178704453E1,2.122433662E0
5.860547046E0,-1.099561787E1,-1.201017475E1,1.013360381E0
5.865309181E0,-1.134556866E1,-1.225185013E1,-3.577269912E-1
5.870097931E0,-1.123430252E1,-1.243430328E1,-1.667797327E0
5.874873400E0,-1.082094193E1,-1.249532032E1,-2.557927370E0
5.879635535E0,-1.032024384E1,-1.242652607E1,-3.112463951E0
5.884424285E0,-9.822537422E0,-1.219322586E1,-3.278167009E0
5.889199754E0,-9.328418732E0,-1.186481094E1,-3.261417150E0
5.893961889E0,-8.740383148E0,-1.149272728E1,-3.341576815E0
5.898750639E0,-8.248059273E0,-1.111585712E1,-3.585046530E0
5.903526108E0,-7.759923935E0,-1.085384369E1,-3.698107481E0
5.908288244E0,-7.191628456E0,-1.049611664E1,-3.225524902E0
5.913076994E0,-6.375676155E0,-1.021077251E1,-2.625524759E0
5.917852410E0,-5.756533146E0,-9.963115692E0,-2.485544443E0
5.922614598E0,-5.286941528E0,-9.644271851E0,-2.444866419E0
5.927403348E0,-4.287938118E0,-9.261420250E0,-2.271985054E0
5.932178817E0,-3.177668571E0,-8.878568649E0,-1.841875196E0
5.936940952E0,-2.422732830E0,-8.577671051E0,-1.144965649E0
5.941729702E0,-1.901695848E0,-8.456833839E0,1.668993831E-1
5.946505119E0,-1.972882271E0,-8.395217896E0,1.774876237E0
5.951267306E0,-2.580659151E0,-8.310273170E0,2.776272535E0
5.956056056E0,-3.190829039E0,-8.273183823E0,3.388834953E0
5.960831473E0,-3.375076294E0,-8.486145973E0,4.307080746E0
5.965593608E0,-2.953939438E0,-8.730812073E0,4.597210407E0
5.970382410E0,-1.708475351E0,-8.901300430E0,3.454039574E0
5.975157827E0,2.285145670E-1,-9.208778381E0,1.874178290E0
5.979919962E0,2.213959217E0,-9.521040916E0,3.720839322E-1
5.984708712E0,2.788236618E0,-9.547960281E0,-7.010970116E-1
5.989484181E0,2.532204628E0,-9.611370087E0,-1.304088354E0
5.994246317E0,1.919641972E0,-9.641280174E0,-1.925025821E0
5.999035067E0,1.960918188E0,-9.853045464E0,-1.512862086E0
6.003810535E0,1.947159410E0,-1.008993530E1,-7.926225066E-1
6.008572671E0,1.669592023E0,-1.016829967E1,-3.595215976E-1
6.013361421E0,7.740781307E-1,-9.914660454E0,-3.116651475E-1
6.018136889E0,-6.173482537E-1,-9.325428009E0,-4.151547253E-1
6.022899025E0,-2.034497499E0,-8.321639061E0,-4.660021961E-1
6.027687775E0,-2.989831924E0,-7.201797962E0,-4.666004181E-1
6.032463244E0,-3.382254839E0,-6.123233318E0,-3.020938635E-1
6.037225379E0,-3.302693367E0,-5.044070244E0,-2.931207791E-2
6.042014129E0,-3.077169895E0,-3.984049797E0,1.172483116E-1
6.046789598E0,-2.913261652E0,-3.005385160E0,2.787638307E-1
6.051551733E0,-2.886342287E0,-2.148156643E0,3.930211067E-1
6.056340483E0,-2.940778971E0,-1.430309772E0,4.456632137E-1
6.061115952E0,-3.052045345E0,-7.896314859E-1,4.552344978E-1
6.065878087E0,-3.087339401E0,-2.602194548E-1,4.887340367E-1
6.070666837E0,-3.059821844E0,1.932204217E-1,5.318048596E-1
6.075442306E0,-3.079562664E0,6.119644046E-1,6.370890141E-1
6.080204442E0,-3.108276606E0,1.016351461E0,8.045865893E-1
6.084993192E0,-2.931805849E0,1.272383451E0,1.005583763E0
6.089768660E0,-2.615953445E0,1.292722464E0,1.267597795E0
6.094530796E0,-2.309672117E0,1.133599758E0,1.515853167E0
6.099319546E0,-1.945963025E0,8.021938205E-1,1.730010748E0
6.104094962E0,-1.639083505E0,3.601198196E-1,1.795813441E0
6.108870431E0,-1.524227977E0,-4.965107143E-2,1.728216171E0
6.113645900E0,-1.581057549E0,-4.109672904E-1,1.546361685E0
6.118421317E0,-1.591227055E0,-6.999006271E-1,1.302293777E0
6.123196785E0,-1.630110383E0,-9.499505758E-1,9.906286001E-1
6.127972254E0,-1.698305845E0,-1.167099237E0,6.215356588E-1
6.132747671E0,-1.771885157E0,-1.379462242E0,2.715853751E-1
6.137523139E0,-1.939382792E0,-1.605584025E0,-1.974078640E-2
6.142298608E0,-2.101496458E0,-1.890329838E0,-2.350948304E-1
6.147074025E0,-2.310270309E0,-2.218744755E0,-3.972085714E-1
6.151836160E0,-2.751745939E0,-2.706282377E0,-5.240281820E-1
6.156624962E0,-3.306880951E0,-3.415754318E0,-6.161518097E-1
6.161400379E0,-3.637090445E0,-4.322035789E0,-6.574280262E-1
6.166162514E0,-3.610171080E0,-5.343173027E0,-6.999006271E-1
6.170951264E0,-3.754936934E0,-6.466004848E0,-8.087740541E-1
6.175726733E0,-3.756731510E0,-7.757531166E0,-1.071386337E0
6.180488869E0,-3.529413462E0,-9.081359863E0,-1.911865234E0
6.185277619E0,-2.873181820E0,-1.077488041E1,-2.892922640E0
6.190053087E0,-2.461018085E0,-1.298943806E1,-4.347758770E0
6.194815223E0,-2.008176327E0,-1.597448444E1,-6.521637917E0
6.199603973E0,-1.282552958E0,-1.963251114E1,-9.666405678E0
6.204379442E0,-4.007977843E-1,-2.388754845E1,-1.401117325E1
6.209141577E0,-3.062812984E-1,-2.916970444E1,-2.088036919E1
6.213930327E0,-1.818545163E-1,-3.578406525E1,-2.977867699E1
6.218705796E0,2.614158630E0,-4.107160568E1,-3.199682426E1
6.223467931E0,3.647858143E0,-4.118107605E1,-2.867140007E1
6.228256681E0,2.166102648E0,-3.818107605E1,-2.356451797E1
6.233032150E0,6.807580590E-1,-3.275355530E1,-1.695673752E1
6.237794285E0,-1.125224829E0,-2.632344246E1,-1.158245754E1
6.242583035E0,-2.149951220E0,-2.109991074E1,-8.283951759E0
6.247358504E0,-2.031506538E0,-1.665404510E1,-6.051448345E0
6.252120639E0,-1.488933921E0,-1.273699474E1,-3.988237143E0
6.256909389E0,-5.449653864E-1,-9.170493126E0,-1.687538147E0
6.261684858E0,4.289134443E-1,-5.705685616E0,7.429714203E-1
6.266446994E0,1.049252748E0,-2.134995937E0,2.925823927E0
6.271235744E0,1.441077471E0,1.585245013E0,4.462016106E0
6.276011212E0,1.568495274E0,4.393820763E0,4.151547432E0
6.280773348E0,1.189831018E0,6.185446739E0,3.816552162E0
6.285562098E0,-1.088734269E-1,6.958328247E0,4.273581028E0
6.290337567E0,-2.877967358E0,6.203990936E0,4.668396950E0
6.295099702E0,-5.550152302E0,4.506881237E0,4.068396568E0
6.299888452E0,-6.855436802E0,2.533999205E0,3.443870068E0
6.304663921E0,-6.251249313E0,1.842473447E-1,3.086741209E0
6.309426056E0,-5.192425251E0,-2.145165443E0,2.972483873E0
6.314214806E0,-4.385445595E0,-4.349553585E0,3.084946632E0
6.318990275E0,-4.226323128E0,-6.464210510E0,3.114258766E0
6.323752410E0,-4.609772682E0,-8.483752251E0,3.103491068E0
6.328541160E0,-5.080560684E0,-1.066301632E1,3.486940861E0
6.333316577E0,-5.869594097E0,-1.311207008E1,3.866801500E0
6.338078764E0,-7.013363361E0,-1.517228985E1,3.236292601E0
6.342867514E0,-8.746963501E0,-1.732762527E1,-1.255035520E0
6.347642931E0,-7.959126472E0,-2.162154579E1,-1.570110416E1
6.352405119E0,-6.825526714E0,-2.608535576E1,-2.492304230E1
6.357193869E0,-1.052303600E1,-2.825504875E1,-1.989213371E1
6.361969285E0,-1.460997677E1,-2.856372261E1,-9.120243073E0
6.366731473E0,-1.701237106E1,-2.665185738E1,5.748756528E-1
6.371520223E0,-1.462911987E1,-2.211865425E1,4.499702930E0
6.376295639E0,-9.795618057E0,-1.700519180E1,4.033700943E0
6.381057775E0,-5.873183250E0,-1.284706497E1,2.676372051E0
6.385846577E0,-3.372085333E0,-9.405587196E0,1.960319996E0
6.390621994E0,-1.915454507E0,-6.738188744E0,1.960319996E0
6.395384129E0,-1.206580877E0,-4.660022259E0,2.185843468E0
6.400172931E0,-1.084546804E0,-2.958725214E0,2.136192322E0
6.404948348E0,-1.495514154E0,-1.634297848E0,1.661815286E0
6.409710483E0,-2.532204628E0,-8.901300430E-1,1.383649707E0
6.414499285E0,-3.718446493E0,-6.281159520E-1,1.202991605E0
6.419274702E0,-4.618147850E0,-9.044869542E-1,1.068395257E0
6.424036837E0,-5.245665550E0,-1.527817249E0,8.321040869E-1
6.428825639E0,-5.424529076E0,-2.539981127E0,5.599204898E-1
6.433601056E0,-4.977071285E0,-3.872783422E0,6.305087805E-1
6.438376525E0,-4.533202648E0,-5.273781300E0,9.894321561E-1
6.443151942E0,-4.317848682E0,-6.598208427E0,1.296311617E0
6.447927410E0,-4.150949001E0,-7.913662910E0,1.454836130E0
6.452689546E0,-4.132404804E0,-9.069993973E0,1.527219057E0
6.457478296E0,-3.957728624E0,-1.001396275E1,1.488933921E0
6.462253764E0,-3.760320902E0,-1.070668507E1,1.469193101E0
6.467015900E0,-3.464209080E0,-1.116909790E1,1.501496196E0
6.471804650E0,-3.135195971E0,-1.144726372E1,1.524227977E0
6.476580119E0,-2.771486759E0,-1.161535931E1,1.661217093E0
6.481342254E0,-2.365903378E0,-1.168654537E1,1.889731646E0
6.486131004E0,-1.963909149E0,-1.166680527E1,2.300698996E0
6.490906473E0,-1.465603828E0,-1.165125179E1,2.825325251E0
6.495668608E0,-1.005583763E0,-1.166441250E1,3.408575773E0
6.500457358E0,-7.740781307E-1,-1.172722340E1,3.959523201E0
6.505232827E0,-8.422735929E-1,-1.180439186E1,4.372883320E0
6.509994962E0,-1.192822099E0,-1.188694477E1,4.537988186E0
6.514783712E0,-1.592423439E0,-1.197009563E1,4.463212490E0
6.519559181E0,-1.828116536E0,-1.199940777E1,4.161716938E0
6.524334650E0,-1.868196249E0,-1.194138145E1,3.811766386E0
6.529110067E0,-1.767099500E0,-1.176790142E1,3.355335474E0
6.533885535E0,-1.599601984E0,-1.142034435E1,2.864208698E0
6.538661004E0,-1.332802176E0,-1.094716358E1,2.349153519E0
6.543436421E0,-1.110867858E0,-1.043091202E1,1.646860242E0
6.548211889E0,-9.122636318E-1,-9.957731247E0,8.775677085E-1
6.552974025E0,-7.525427341E-1,-9.634101868E0,-1.196411322E-3
6.557762775E0,-6.777670383E-1,-9.373284340E0,-9.469595551E-1
6.562538244E0,-7.794619799E-1,-9.161520004E0,-1.853839397E0
6.567300379E0,-9.840483069E-1,-8.968897820E0,-2.563311338E0
6.572089129E0,-1.316650629E0,-8.675178528E0,-3.166302681E0
6.576864598E0,-1.723430514E0,-8.353343964E0,-3.452244759E0
6.581626733E0,-2.009970903E0,-8.036294937E0,-3.388834953E0
6.586415483E0,-2.180459738E0,-7.660621643E0,-3.052045345E0
6.591190952E0,-2.335394859E0,-7.275975227E0,-2.553141832E0
6.595953087E0,-2.466402054E0,-6.896114826E0,-1.990828395E0
6.600741837E0,-2.937788010E0,-6.574280262E0,-1.825125456E0
6.605517306E0,-3.672982693E0,-6.426523209E0,-2.167299032E0
6.610279442E0,-4.298107624E0,-6.567699909E0,-2.499901533E0
6.615068192E0,-4.387838364E0,-6.616154671E0,-2.436491728E0
6.619843660E0,-3.951148272E0,-6.567101955E0,-1.868196249E0
6.624619077E0,-3.538984776E0,-6.489335060E0,-1.255633712E0
6.629394546E0,-3.307479143E0,-6.479165554E0,-7.914260626E-1
6.634170014E0,-3.464209080E0,-6.547360897E0,-7.668996453E-1
6.638945431E0,-3.534797192E0,-6.634698868E0,-6.514459848E-1
6.643720900E0,-3.206980467E0,-6.783652306E0,-7.178468257E-2
6.648496369E0,-3.075375319E0,-6.899106026E0,4.265206456E-1
6.653258504E0,-3.025125980E0,-7.043273449E0,8.578268886E-1
6.658047254E0,-2.912663460E0,-7.173084259E0,1.241874933E0
6.662822723E0,-2.757728100E0,-7.240681171E0,1.552343726E0
6.667584858E0,-2.437089920E0,-7.297510624E0,1.896311998E0
6.672373608E0,-2.045863390E0,-7.316055298E0,2.115853310E0
6.677149077E0,-1.717448473E0,-7.271788120E0,2.099701881E0
6.681911212E0,-1.399801254E0,-7.232306480E0,1.957927108E0
6.686699962E0,-1.206580877E0,-7.164709091E0,1.630708575E0
6.691475431E0,-1.253240824E0,-7.154539585E0,1.070189953E0
6.696250848E0,-1.419542074E0,-7.159923553E0,2.979064286E-1
6.701026317E0,-1.524227977E0,-7.304090977E0,-5.700899959E-1
6.705801785E0,-1.518844128E0,-7.621140003E0,-1.429113269E0
6.710563921E0,-1.357328653E0,-8.035098076E0,-2.456830740E0
6.715352671E0,-1.244866014E0,-8.448458672E0,-3.699902058E0
6.720128139E0,-1.293918848E0,-8.813961983E0,-4.990231514E0
6.724890275E0,-1.403390527E0,-9.132207870E0,-5.910870075E0
6.729679025E0,-1.532602906E0,-9.406784058E0,-6.269793510E0
6.734454442E0,-1.687538147E0,-9.667601585E0,-6.024528980E0
6.739216629E0,-1.682154298E0,-9.942177773E0,-5.270191669E0
6.744005379E0,-1.484746456E0,-1.024128056E1,-4.263411522E0
6.748780848E0,-1.201795220E0,-1.051047325E1,-3.232703447E0
6.753542983E0,-8.536394835E-1,-1.071745300E1,-2.437688112E0
6.758331733E0,-4.408775866E-1,-1.085623646E1,-1.902294040E0
6.763107150E0,-1.004985496E-1,-1.096630573E1,-1.582852125E0
6.767869337E0,1.148554832E-1,-1.111585712E1,-1.344168067E0
6.772658087E0,2.129612118E-1,-1.127438164E1,-1.027119160E0
6.777433504E0,2.536391914E-1,-1.142393398E1,-6.053841114E-1
6.782195692E0,2.380858511E-1,-1.154955673E1,-1.345962733E-1
6.786984442E0,1.459621787E-1,-1.166501045E1,3.266202807E-1
6.791759910E0,9.152546525E-2,-1.168953705E1,7.154539824E-1
6.796522046E0,3.110669367E-2,-1.164168072E1,1.027717352E0
6.801310796E0,-8.195417374E-2,-1.154118156E1,1.205982566E0
6.806086212E0,-2.626122832E-1,-1.143589783E1,1.288534999E0
6.810848400E0,-4.055834413E-1,-1.133480072E1,1.313061476E0
6.815637150E0,-5.670989752E-1,-1.126780224E1,1.332802176E0
6.820412567E0,-7.483552694E-1,-1.124447155E1,1.400997639E0
6.825174754E0,-1.013360381E0,-1.127378368E1,1.584646821E0
6.829963504E0,-1.310668588E0,-1.135633659E1,1.869392633E0
6.834738921E0,-1.551147223E0,-1.144367409E1,2.144567251E0
6.839501108E0,-1.706082582E0,-1.164168072E1,2.380858421E0
6.844289858E0,-1.900499344E0,-1.190728378E1,2.410768747E0
6.849065275E0,-2.091326952E0,-1.218185997E1,2.239083767E0
6.853840744E0,-2.239681959E0,-1.243310642E1,1.884347796E0
6.858616212E0,-2.413161755E0,-1.267418289E1,1.353141189E0
6.863391629E0,-2.492124796E0,-1.286201954E1,7.728816867E-1
6.868167098E0,-2.538186550E0,-1.296251869E1,1.782652885E-1
6.872942567E0,-2.451446772E0,-1.302473164E1,-3.744767308E-1
6.877717983E0,-2.335394859E0,-1.299541950E1,-8.159525394E-1
6.882480171E0,-2.151147604E0,-1.291346550E1,-9.613165259E-1
6.887268921E0,-1.937588096E0,-1.278245831E1,-9.912267923E-1
6.892044337E0,-1.768295884E0,-1.272443295E1,-1.250848055E0
6.896806525E0,-1.674377680E0,-1.294517040E1,-1.688136339E0
6.901595275E0,-1.385444283E0,-1.335434341E1,-2.149951220E0
6.906370692E0,-9.589236975E-1,-1.381555939E1,-2.541177750E0
6.911132879E0,-3.924229145E-1,-1.423310757E1,-2.802593470E0
6.915921629E0,5.024927482E-2,-1.451665688E1,-2.833700180E0
6.920697046E0,2.847459018E-1,-1.466501141E1,-2.724228621E0
6.925459233E0,3.379862010E-1,-1.464108372E1,-2.532802820E0
6.930247983E0,3.248256743E-1,-1.448255920E1,-2.301895380E0
6.935023400E0,3.397808075E-1,-1.416909885E1,-1.976471543E0
6.939798869E0,2.165504545E-1,-1.378923893E1,-1.707278967E0
6.944574337E0,2.632104978E-2,-1.339442253E1,-1.543370605E0
6.949349754E0,-1.842473447E-1,-1.295175076E1,-1.528415442E0
6.954125223E0,-5.246263742E-1,-1.239362526E1,-1.694716692E0
6.958900692E0,-1.055832982E0,-1.165783215E1,-1.687538147E0
6.963676108E0,-1.505683661E0,-1.105125141E1,-1.858624935E0
6.968438296E0,-1.717448473E0,-1.074377346E1,-2.145165443E0
6.973227046E0,-1.937588096E0,-1.055653572E1,-2.173281193E0
6.978002462E0,-2.301895380E0,-1.040339470E1,-1.753939033E0
6.982764650E0,-2.763111830E0,-1.018325520E1,-8.877372146E-1
6.987553400E0,-3.309871912E0,-1.006959629E1,3.649054468E-2
6.992328817E0,-3.751347780E0,-1.003250694E1,1.012762189E0
6.997091004E0,-4.074378967E0,-9.927223206E0,1.969292998E0
7.001879754E0,-4.351347923E0,-9.899106979E0,2.589632273E0
7.006655171E0,-4.662415028E0,-1.003549862E1,3.008974552E0
7.011417358E0,-4.911866665E0,-1.027717304E1,3.255435228E0
7.016206108E0,-5.277370453E0,-1.061994553E1,3.334398270E0
7.020981525E0,-6.036493301E0,-1.093460083E1,3.415156126E0
7.025743712E0,-6.987041950E0,-1.121695423E1,3.468396425E0
7.030532462E0,-8.175676346E0,-1.155673504E1,3.407379389E0
7.035307879E0,-9.470193863E0,-1.195454216E1,3.040081263E0
7.040070067E0,-1.062951660E1,-1.234277725E1,2.316850424E0
7.044858817E0,-1.152383423E1,-1.266760349E1,1.381256819E0
7.049634233E0,-1.236850071E1,-1.290987682E1,1.381855011E-1
7.054396421E0,-1.297089291E1,-1.303549957E1,-1.317248821E0
7.059185171E0,-1.322812176E1,-1.300678539E1,-2.779861689E0
7.063960587E0,-1.303549957E1,-1.281296730E1,-3.817748547E0
7.068722775E0,-1.232004547E1,-1.242592812E1,-4.200600147E0
7.073511525E0,-1.125164986E1,-1.199402332E1,-4.307679176E0
7.078286942E0,-1.018684387E1,-1.154895878E1,-4.260420799E0
7.083049129E0,-9.221938133E0,-1.105962658E1,-4.073780537E0
7.087837879E0,-8.312067986E0,-1.037348461E1,-3.541377544E0
7.092613348E0,-7.606184959E0,-9.842277527E0,-2.902493954E0
7.097375483E0,-6.423532486E0,-9.242277145E0,-2.218146563E0
7.102164233E0,-4.904688358E0,-8.670392990E0,-1.751546144E0
7.106939650E0,-3.231507063E0,-8.377271652E0,-1.760519266E0
7.111701837E0,-2.186441660E0,-8.234899521E0,-1.957927108E0
7.116490587E0,-1.856232166E0,-8.258229256E0,-1.637887120E0
7.121266004E0,-2.237289190E0,-8.197212219E0,-9.349954724E-1
7.126028192E0,-3.055634499E0,-8.054839134E0,-2.871387079E-2
7.130816942E0,-4.052843571E0,-8.033902168E0,1.085145116E0
7.135592410E0,-4.780261517E0,-8.021339417E0,1.846660852E0
7.140354546E0,-4.881956577E0,-8.084749222E0,2.370688915E0
7.145143296E0,-4.681557655E0,-8.030911446E0,2.446063042E0
7.149918764E0,-3.772883177E0,-8.033902168E0,2.422134638E0
7.154680900E0,-1.728216171E0,-8.216354370E0,2.176870346E0
7.159469650E0,4.211367965E-1,-8.408378601E0,1.167697430E0
7.164245119E0,1.768295884E0,-8.447860718E0,3.637090325E-1
7.169007254E0,1.863410592E0,-8.283353806E0,-3.134597540E-1
7.173796004E0,1.503889084E0,-8.134998322E0,-5.611169338E-1
7.178571473E0,1.484746456E0,-8.231309891E0,-6.520441771E-1
7.183333608E0,1.304088354E0,-8.279764175E0,-7.040880919E-1
7.188122358E0,8.997012973E-1,-8.189435959E0,-6.442674994E-1
7.192897827E0,1.621137410E-1,-7.969893932E0,-5.497509837E-1
7.197673244E0,-5.401797295E-1,-7.629515171E0,-1.668993831E-1
7.202448712E0,-7.345965505E-1,-7.264011383E0,2.512463629E-1
7.207224181E0,-1.626521230E0,-6.437291145E0,2.075773627E-1
7.211986317E0,-2.666800737E0,-5.471189022E0,2.171486616E-1
7.216775067E0,-3.031706333E0,-4.518845558E0,2.566302419E-1
7.221550535E0,-2.992822886E0,-3.497110367E0,1.980060786E-1
7.226312671E0,-2.839084148E0,-2.519043922E0,8.135596663E-2
7.231101421E0,-2.713460922E0,-1.651047587E0,8.973085135E-2
7.235876889E0,-2.619542599E0,-8.608179688E-1,3.044866920E-1
7.240639025E0,-2.563311338E0,-1.142572835E-1,6.203392744E-1
7.245427775E0,-2.506481647E0,5.892325640E-1,8.883354068E-1
7.250203244E0,-2.436491728E0,1.171884894E0,1.041476011E0
7.254965379E0,-2.422732830E0,1.485344648E0,1.127617717E0
7.259754129E0,-2.436491728E0,1.543370605E0,1.242473125E0
7.264529598E0,-2.358724833E0,1.341177106E0,1.420140266E0
7.269291733E0,-2.294716835E0,9.840483069E-1,1.573280931E0
7.274080483E0,-2.297109842E0,5.557330847E-1,1.722234130E0
7.278855952E0,-2.132603168E0,4.486542568E-2,1.904088616E0
7.283631369E0,-1.820937991E0,-4.695914388E-1,2.070987940E0
7.288406837E0,-1.613360643E0,-9.505487680E-1,2.171486616E0
7.293182306E0,-1.527219057E0,-1.317248821E0,2.137388945E0
7.297957723E0,-1.622931957E0,-1.543370605E0,1.926222205E0
7.302733192E0,-1.786840320E0,-1.707278967E0,1.529611826E0
7.307508660E0,-1.998006940E0,-1.837687731E0,1.108475089E0
7.312284129E0,-2.295315027E0,-1.996810555E0,6.873382926E-1
7.317059546E0,-2.610569477E0,-2.185843468E0,2.715853751E-1
7.321835014E0,-2.774477959E0,-2.364108801E0,-1.250249892E-1
7.326597150E0,-2.956930637E0,-2.648854733E0,-5.036891699E-1
7.331385900E0,-3.280559778E0,-3.097508907E0,-8.087740541E-1
7.336161369E0,-3.674179077E0,-3.758526087E0,-9.355936646E-1
7.340923504E0,-4.043870449E0,-4.650450706E0,-1.095912814E0
7.345712254E0,-4.213162422E0,-5.754140377E0,-1.406979680E0
7.350487723E0,-4.652843475E0,-7.224529743E0,-1.744367719E0
7.355249858E0,-4.736592293E0,-9.011968613E0,-2.380260229E0
7.360038608E0,-4.282554150E0,-1.084546852E1,-3.768695593E0
7.364814077E0,-3.801596880E0,-1.323290730E1,-5.818746567E0
7.369576212E0,-2.736790895E0,-1.668335724E1,-7.808378696E0
7.374364962E0,1.549352705E-1,-2.181177521E1,-9.873982430E0
7.379140431E0,3.034099102E0,-2.863371277E1,-1.579143333E1
7.383902567E0,6.257829189E0,-3.813142395E1,-2.667638397E1
7.388691317E0,5.554937840E0,-4.539543533E1,-3.265664673E1
7.393466785E0,-9.230313301E-1,-4.594697952E1,-3.099602699E1
7.398228921E0,-6.720840454E0,-4.309952164E1,-3.003710175E1
7.403017671E0,-8.102695465E0,-3.726641846E1,-2.416451836E1
7.407793139E0,-5.871388435E0,-3.017229652E1,-1.644527245E1
7.412555275E0,-5.590830326E0,-2.375654221E1,-1.224706459E1
7.417344025E0,-4.590032101E0,-1.847498322E1,-9.966704369E0
7.422119494E0,-3.516252756E0,-1.390110302E1,-7.805985451E0
7.426881629E0,-2.930011272E0,-9.593423843E0,-5.211567879E0
7.431670379E0,-2.694318295E0,-4.700101852E0,-1.497308731E0
7.436445848E0,-1.318445325E0,1.680957973E-1,1.228116274E0
7.441207983E0,9.888339639E-1,3.453441381E0,2.955734253E0
7.445996785E0,2.213959217E0,5.681757450E0,3.811766386E0
7.450772202E0,2.609373093E0,7.268198967E0,4.019343853E0
7.455534337E0,2.575275421E0,8.606983185E0,4.546961308E0
7.460323139E0,6.364908218E-1,9.059226990E0,5.146961689E0
7.465098556E0,-3.089133978E0,7.966304779E0,5.363512039E0
7.469860744E0,-6.210571289E0,5.911468506E0,5.635695457E0
7.474649494E0,-7.088737011E0,3.770490170E0,5.637490273E0
7.479424910E0,-6.226124287E0,1.594816327E0,5.504688263E0
7.484187098E0,-5.049454212E0,-6.424728632E-1,5.355735302E0
7.488975848E0,-4.088735580E0,-2.711666346E0,5.078765869E0
7.493751264E0,-4.082155228E0,-4.610371113E0,5.065605640E0
7.498513452E0,-4.716851711E0,-6.466004848E0,5.291129112E0
7.503302202E0,-5.441278458E0,-8.434102058E0,5.699703693E0
7.508077671E0,-7.086344242E0,-1.105424213E1,6.016752720E0
7.512839806E0,-9.443274498E0,-1.436471272E1,6.218348026E0
7.517628556E0,-1.111406326E1,-1.756331825E1,6.042475224E0
7.522404025E0,-1.251565838E1,-2.057169533E1,3.085544825E0
7.527166160E0,-9.302696228E0,-2.643949318E1,-2.174238205E1
7.531954910E0,-5.751149178E0,-3.174079323E1,-3.198426247E1
7.536730327E0,-8.299505234E0,-3.092783165E1,-2.108675003E1
7.541492514E0,-1.225424290E1,-2.780220604E1,-7.012764931E0
7.546281264E0,-1.497847176E1,-2.406521606E1,2.304886341E0
7.551056733E0,-1.376889992E1,-1.959781647E1,5.707480431E0
7.555818869E0,-9.814760208E0,-1.512204075E1,5.875576019E0
7.560607619E0,-6.178866386E0,-1.136949635E1,4.836492538E0
7.565383087E0,-3.618546009E0,-8.481359482E0,3.372085333E0
7.570145223E0,-2.164906263E0,-6.337988853E0,1.798206210E0
7.574933973E0,-1.610369682E0,-4.722833633E0,6.472585201E-1
7.579709442E0,-1.520040631E0,-3.522234917E0,-2.751746178E-1
7.584471577E0,-1.871785522E0,-2.641077995E0,-1.166501045E0
7.589260327E0,-2.849851847E0,-2.152343988E0,-1.507478237E0
7.594035796E0,-4.222135544E0,-1.971685886E0,-1.630110383E0
7.598797931E0,-5.346164227E0,-2.162513494E0,-1.926222205E0
7.603586681E0,-5.633302689E0,-2.900100946E0,-1.832902193E0
7.608362150E0,-5.394020557E0,-3.848855257E0,-1.339980721E0
7.613124285E0,-5.033900738E0,-4.802394867E0,-5.491527915E-1
7.617913035E0,-4.801198483E0,-5.727818966E0,4.151547253E-1
7.622688504E0,-4.595416069E0,-6.488138676E0,1.029511929E0
7.627450639E0,-4.351347923E0,-7.234699249E0,1.666600943E0
7.632239389E0,-4.117449760E0,-7.933403492E0,2.208575249E0
7.637014858E0,-3.818944931E0,-8.539385796E0,2.447259426E0
7.641776994E0,-3.650250912E0,-9.069396019E0,2.494517565E0
7.646565744E0,-3.635894060E0,-9.492925644E0,2.303091764E0
7.651341212E0,-3.659224033E0,-9.868598938E0,2.193022013E0
7.656103348E0,-3.635295868E0,-1.020598698E1,2.048854351E0
7.660892150E0,-3.601198196E0,-1.053320503E1,1.957328916E0
7.665667567E0,-3.419343472E0,-1.079282665E1,2.033301115E0
7.670429702E0,-3.226721287E0,-1.104287624E1,2.254039049E0
7.675218452E0,-3.006581545E0,-1.125523949E1,2.401795626E0
7.679993921E0,-2.737987280E0,-1.140838051E1,2.601596355E0
7.684756056E0,-2.479562521E0,-1.159561825E1,2.778067112E0
7.689544858E0,-2.353939295E0,-1.161476135E1,3.122633457E0
7.694320275E0,-2.284547329E0,-1.158604717E1,3.535395384E0
7.699082410E0,-2.517249346E0,-1.143230820E1,3.684946775E0
7.703871212E0,-2.899502754E0,-1.105244732E1,3.720241070E0
7.708646629E0,-2.895913601E0,-1.064327526E1,3.725026608E0
7.713422098E0,-2.650649309E0,-1.027178955E1,3.531806231E0
7.718197567E0,-2.325225353E0,-9.899705887E0,3.222533941E0
7.722972983E0,-1.957328916E0,-9.590433121E0,2.898306370E0
7.727748452E0,-1.636690736E0,-9.410971642E0,2.474776745E0
7.732523921E0,-1.292722464E0,-9.309276581E0,2.045863390E0
7.737299389E0,-9.439685345E-1,-9.298508644E0,1.539781332E0
7.742061525E0,-7.142575383E-1,-9.292527199E0,9.487541914E-1
7.746850275E0,-5.988038778E-1,-9.311071396E0,3.146561682E-1
7.751625744E0,-4.749752879E-1,-9.199805260E0,-3.678964674E-1
7.756387879E0,-5.120640397E-1,-8.992825508E0,-9.529415965E-1
7.761176629E0,-6.155536175E-1,-8.708079338E0,-1.394417405E0
7.765952098E0,-8.518448472E-1,-8.366504669E0,-1.671984792E0
7.770714233E0,-1.125823021E0,-7.967501163E0,-1.891526341E0
7.775502983E0,-1.489532113E0,-7.524828911E0,-2.067398787E0
7.780278452E0,-2.072782516E0,-7.083353043E0,-2.222932339E0
7.785040587E0,-2.678765059E0,-6.718447685E0,-2.349751949E0
7.789829337E0,-3.733999729E0,-6.368497372E0,-2.829512835E0
7.794604806E0,-4.872983456E0,-6.246463299E0,-3.058625460E0
7.799366942E0,-5.424529076E0,-6.146563053E0,-2.916850805E0
7.804155692E0,-5.398207664E0,-6.079564095E0,-2.402992249E0
7.808931160E0,-5.093721390E0,-6.083751678E0,-1.733001828E0
7.813693296E0,-4.785047054E0,-6.165107727E0,-1.028913736E0
7.818482046E0,-4.571487427E0,-6.266204357E0,-4.396811724E-1
7.823257514E0,-4.249652863E0,-6.395416737E0,6.759724021E-2
7.828019650E0,-3.898506403E0,-6.587440968E0,5.455635786E-1
7.832808400E0,-3.771686792E0,-6.852446079E0,8.805587292E-1
7.837583869E0,-3.722035646E0,-7.103094101E0,1.154536963E0
7.842346004E0,-3.591626883E0,-7.444669247E0,1.298106313E0
7.847134754E0,-3.519243956E0,-7.656434059E0,1.355534077E0
7.851910223E0,-3.447459221E0,-7.743772507E0,1.335793257E0
7.856685692E0,-3.252444267E0,-7.752745152E0,1.344766378E0
7.861461108E0,-3.067000389E0,-7.694121361E0,1.405783296E0
7.866236577E0,-2.886940479E0,-7.578069210E0,1.375872970E0
7.871012046E0,-2.845664263E0,-7.418946743E0,1.068993568E0
7.875787462E0,-2.839682341E0,-7.244868755E0,5.641079545E-1
7.880562931E0,-2.787638426E0,-7.158128738E0,-1.316052526E-1
7.885325067E0,-2.560320139E0,-7.267600536E0,-1.154536963E0
7.890113817E0,-2.177468538E0,-7.459026337E0,-2.437688112E0
7.894889285E0,-1.661217093E0,-7.692924976E0,-3.751347780E0
7.899651421E0,-1.295115232E0,-7.990831375E0,-4.765306473E0
7.904440223E0,-1.268794179E0,-8.385048866E0,-5.345565796E0
7.909215639E0,-1.420140266E0,-8.848059654E0,-5.459823132E0
7.913977827E0,-1.564906001E0,-9.334999084E0,-5.242674351E0
7.918766577E0,-1.555932879E0,-9.787840843E0,-4.796412945E0
7.923541994E0,-1.347159147E0,-1.018325520E1,-4.254438877E0
7.928304181E0,-9.625129104E-1,-1.049551868E1,-3.781257868E0
7.933092931E0,-5.066801906E-1,-1.075454140E1,-3.317648649E0
7.937868400E0,-6.520441920E-2,-1.101356411E1,-2.778067112E0
7.942630535E0,2.434697002E-1,-1.122592735E1,-2.212762833E0
7.947419285E0,2.087737769E-1,-1.142333508E1,-1.713859200E0
7.952194754E0,-8.673982322E-2,-1.166022491E1,-1.255633712E0
7.956956889E0,-3.690928817E-1,-1.189232826E1,-8.608179688E-1
7.961745639E0,-5.988038778E-1,-1.215314579E1,-4.851447940E-1
7.966521108E0,-7.728816867E-1,-1.239003563E1,-1.381855011E-1
7.971283244E0,-9.224331379E-1,-1.263649654E1,1.166501045E-1
7.976071994E0,-1.058225870E0,-1.283390427E1,3.672982752E-1
7.980847462E0,-1.127617717E0,-1.296431351E1,5.784648657E-1
7.985609598E0,-1.145563841E0,-1.302233887E1,7.657032609E-1
7.990398348E0,-1.130608678E0,-1.301276779E1,8.955138922E-1
7.995173817E0,-1.087537885E0,-1.297388458E1,9.433703423E-1
7.999935952E0,-1.144965649E0,-1.290209961E1,9.583254457E-1
8.004724702E0,-1.283151150E0,-1.286381435E1,9.302098155E-1
8.009500171E0,-1.467996716E0,-1.284048462E1,9.936196208E-1
8.014275639E0,-1.628913999E0,-1.276869965E1,1.181456208E0
8.019051108E0,-1.780260086E0,-1.273041439E1,1.398006678E0
8.023826525E0,-1.917847395E0,-1.271187019E1,1.518245935E0
8.028601994E0,-2.036292076E0,-1.271187019E1,1.557727575E0
8.033377462E0,-2.104487419E0,-1.267358494E1,1.356132269E0
8.038152879E0,-2.106880426E0,-1.264905834E1,9.343972206E-1
8.042928348E0,-2.163709879E0,-1.256231880E1,2.291127741E-1
8.047703817E0,-2.307279348E0,-1.244207954E1,-6.005984545E-1
8.052479233E0,-2.468794823E0,-1.233619690E1,-1.363310695E0
8.057241421E0,-2.500499725E0,-1.221954727E1,-1.804786444E0
8.062030171E0,-2.478366137E0,-1.223450184E1,-2.092523336E0
8.066805587E0,-2.351546526E0,-1.233500099E1,-2.371287346E0
8.071567775E0,-2.222932339E0,-1.258983612E1,-2.516052961E0
8.076356525E0,-2.106282234E0,-1.306660652E1,-2.343171597E0
8.081131994E0,-1.798206210E0,-1.365882969E1,-2.018345833E0
8.085907410E0,-1.617548108E0,-1.381735420E1,-1.467398524E0
8.090682879E0,-8.261220455E-1,-1.439342594E1,-1.432702541E0
8.095458348E0,-3.314059377E-1,-1.448913956E1,-1.463809252E0
8.100220483E0,-2.422732860E-1,-1.412722492E1,-1.517647743E0
8.105009233E0,-3.206382394E-1,-1.365524101E1,-1.618146300E0
8.109784702E0,-4.235295951E-1,-1.323111248E1,-1.862812400E0
8.114560119E0,-7.070791125E-1,-1.282732391E1,-2.076970100E0
8.119335587E0,-1.078564763E0,-1.236132145E1,-1.984248161E0
8.124111056E0,-1.507478237E0,-1.173081303E1,-1.723430514E0
8.128873192E0,-1.779063582E0,-1.127916813E1,-1.502094388E0
8.133661942E0,-1.916052699E0,-1.095613670E1,-1.189232826E0
8.138437410E0,-2.081157446E0,-1.065822983E1,-7.710871100E-1
8.143199546E0,-2.462812662E0,-1.025025368E1,-1.076770201E-2
8.147988296E0,-2.940180779E0,-9.842277527E0,7.633104324E-1
8.152763764E0,-3.569493294E0,-9.559925079E0,1.419542074E0
8.157525900E0,-4.243072987E0,-9.369096756E0,1.935793519E0
8.162314702E0,-4.810770035E0,-9.336793900E0,2.380858421E0
8.167090119E0,-5.379663467E0,-9.449256897E0,2.695514679E0
8.171852254E0,-5.944369793E0,-9.729815483E0,2.804388046E0
8.176641056E0,-6.618547440E0,-1.006899738E1,2.889333248E0
8.181416473E0,-7.497311592E0,-1.039382362E1,2.932404041E0
8.186178608E0,-8.557332039E0,-1.077667522E1,2.900100946E0
8.190967410E0,-9.926624298E0,-1.127198887E1,2.782852650E0
8.195742827E0,-1.136830044E1,-1.174217892E1,2.522035122E0
8.200505014E0,-1.269153118E1,-1.221236897E1,2.111665964E0
8.205293764E0,-1.358943844E1,-1.256172085E1,1.372882009E0
8.210069233E0,-1.412842083E1,-1.271665573E1,3.678964674E-1
8.214831369E0,-1.406501102E1,-1.264846039E1,-1.057627559E0
8.219620119E0,-1.300080395E1,-1.220160103E1,-2.489133835E0
8.224395587E0,-1.137368393E1,-1.153699398E1,-3.798605919E0
8.229157723E0,-9.872187614E0,-1.089212894E1,-4.540979385E0
8.233946473E0,-9.146564484E0,-1.035135078E1,-4.645665169E0
8.238721942E0,-9.199805260E0,-9.960722923E0,-4.569094658E0
8.243484077E0,-9.527023315E0,-9.701699257E0,-4.255635262E0
8.248272827E0,-9.392427444E0,-9.427123070E0,-3.867997885E0
8.253048296E0,-8.668598175E0,-9.141180992E0,-3.544966698E0
8.257810431E0,-7.947162151E0,-8.720044136E0,-2.906681299E0
8.262599181E0,-6.957131863E0,-8.241478920E0,-1.837089539E0
8.267374650E0,-6.014957905E0,-7.502695560E0,-6.089733839E-1
8.272136785E0,-5.165505886E0,-7.168896675E0,8.261220455E-1
8.276925535E0,-4.542773724E0,-7.168298244E0,2.243271112E0
8.281701004E0,-3.827918053E0,-7.234101295E0,3.180659533E0
8.286463139E0,-2.724228621E0,-7.467401028E0,3.025724173E0
8.291251889E0,-1.162313581E0,-7.872984886E0,2.341377020E0
8.296027358E0,1.052842021E0,-8.652446747E0,1.629512191E0
8.300789494E0,3.516252756E0,-9.647860527E0,1.543370634E-1
8.305578296E0,4.601397991E0,-1.043928719E1,-1.756331801E0
8.310353712E0,4.137190342E0,-1.087837029E1,-2.478366137E0
8.315115848E0,3.528815269E0,-1.113559818E1,-2.528017044E0
8.319904650E0,2.471785784E0,-1.097408295E1,-1.788036704E0
8.324680067E0,1.880758643E0,-1.096211910E1,-4.749752879E-1
8.329442254E0,2.193022013E0,-1.104347515E1,8.141579032E-1
8.334231004E0,2.333600283E0,-1.100997543E1,1.260419369E0
8.339006421E0,1.874776483E0,-1.065464115E1,1.128215909E0
8.343781889E0,7.621139884E-1,-9.828518867E0,8.207381964E-1
8.348557358E0,-6.544370055E-1,-8.531010628E0,2.374876440E-1
8.353332827E0,-1.727019787E0,-7.131209850E0,-2.045863420E-1
8.358094962E0,-2.445464849E0,-5.899504185E0,-2.739782035E-1
8.362883712E0,-2.728415966E0,-4.773082733E0,-1.573280841E-1
8.367659181E0,-2.825923443E0,-3.708875179E0,1.974078640E-2
8.372421317E0,-2.885744095E0,-2.711666346E0,2.159522474E-1
8.377210067E0,-2.882753134E0,-1.801197290E0,4.408775866E-1
8.381985535E0,-2.826521635E0,-9.960124493E-1,5.982056856E-1
8.386747671E0,-2.952743053E0,-2.644068897E-1,7.136593461E-1
8.391536421E0,-3.092125177E0,4.145565331E-1,8.243274093E-1
8.396311889E0,-3.230908871E0,9.870393276E-1,9.690931439E-1
8.401074025E0,-3.302095175E0,1.358525038E0,1.185045362E0
8.405862827E0,-3.433700562E0,1.550549030E0,1.492523074E0
8.410638244E0,-3.404388428E0,1.632503271E0,1.750947952E0
8.415400379E0,-3.212962627E0,1.589432478E0,1.918445587E0
8.420189181E0,-2.978466034E0,1.421336651E0,2.027318954E0
8.424964598E0,-2.610569477E0,1.146760225E0,2.132004976E0
8.429726785E0,-2.233101845E0,7.914260626E-1,2.201995134E0
8.434515535E0,-2.027318954E0,4.067798555E-1,2.206182480E0
8.439290952E0,-1.812563181E0,5.024927482E-2,2.104487419E0
8.444066421E0,-1.679163337E0,-2.572284341E-1,1.916052699E0
8.448841889E0,-1.579861164E0,-5.455635786E-1,1.700100541E0
8.453617358E0,-1.670788407E0,-8.398807645E-1,1.408176184E0
8.458392775E0,-1.801197290E0,-1.167697430E0,1.039681435E0
8.463168244E0,-2.063809633E0,-1.485942841E0,7.148557901E-1
8.467943712E0,-2.282752752E0,-1.770688772E0,5.048855543E-1
8.472719129E0,-2.420340061E0,-2.112862349E0,3.427718580E-1
8.477494598E0,-2.681157827E0,-2.576471806E0,1.764706671E-1
8.482270067E0,-3.026920557E0,-3.270988464E0,1.980060786E-1
8.487032202E0,-3.561716557E0,-4.138985157E0,1.680957973E-1
8.491820952E0,-4.039682865E0,-5.171487808E0,7.537391037E-2
8.496596421E0,-4.645066738E0,-6.574280262E0,-1.076770201E-1
8.501358556E0,-4.998606682E0,-8.247461319E0,-4.893322289E-1
8.506147306E0,-4.688735962E0,-1.006720352E1,-1.348355532E0
8.510922775E0,-4.060021877E0,-1.218425274E1,-3.135195971E0
8.515684910E0,-2.971885681E0,-1.499462318E1,-5.600999832E0
8.520473712E0,-1.706082582E0,-1.920120621E1,-7.898109436E0
8.525249129E0,2.644068897E-1,-2.475494576E1,-1.065464115E1
8.530011264E0,6.035895348E-1,-3.251128006E1,-2.014816475E1
8.534800067E0,-1.590030670E0,-4.030590057E1,-3.295933914E1
8.539575483E0,-1.561915040E0,-4.622335052E1,-4.004807281E1
8.544337671E0,-2.226521492E0,-4.634658051E1,-3.752065659E1
8.549126421E0,-3.741776466E0,-4.206582260E1,-3.020160866E1
8.553901837E0,-3.561716557E0,-3.519004440E1,-2.031685829E1
8.558664025E0,-3.651447296E0,-2.732603455E1,-1.368515110E1
8.563452775E0,-3.745365620E0,-2.115614128E1,-1.020897770E1
8.568228244E0,-3.083152056E0,-1.626581001E1,-7.375277519E0
8.572990379E0,-2.044068813E0,-1.190429306E1,-4.787439823E0
8.577779129E0,-9.308080077E-1,-7.971688747E0,-1.849053741E0
8.582554598E0,1.555334777E-1,-3.697509289E0,2.240878344E0
8.587316733E0,1.936391711E0,5.449653864E-1,5.458626747E0
8.592105483E0,3.302693367E0,3.592823267E0,6.427719593E0
8.596880952E0,4.869992256E0,6.010172367E0,6.509075642E0
8.601643087E0,6.046064377E0,7.804789066E0,6.929016113E0
8.606431837E0,3.519243956E0,8.126624107E0,6.946962357E0
8.611207306E0,-1.510469317E0,6.736393929E0,6.004190445E0
8.615969442E0,-5.181657314E0,4.868795872E0,5.386243820E0
8.620758244E0,-6.583851337E0,3.327818155E0,5.505286694E0
8.625533660E0,-6.070590973E0,1.682154298E0,5.268397331E0
8.630295796E0,-5.287539959E0,-3.349951804E-1,4.756931305E0
8.635084598E0,-4.370490551E0,-2.303091764E0,4.293322086E0
8.639860014E0,-3.925425529E0,-4.064807415E0,4.465006828E0
8.644622202E0,-4.045066833E0,-5.756533146E0,5.099703312E0
8.649410952E0,-4.725226402E0,-7.454240799E0,5.776872158E0
8.654186421E0,-6.017949104E0,-9.538987160E0,6.403791428E0
8.658948556E0,-7.798209190E0,-1.256949711E1,7.067800045E0
8.663737306E0,-1.016530895E1,-1.575972843E1,7.250252724E0
8.668512775E0,-1.291346550E1,-1.858864212E1,5.989833355E0
8.673274910E0,-1.100877857E1,-2.497149658E1,-1.821237183E1
8.678063660E0,-8.194819450E0,-3.244906616E1,-3.445185852E1
8.682839129E0,-1.211306667E1,-3.266322708E1,-1.849891281E1
8.687601264E0,-1.534576988E1,-3.056711197E1,-4.426722050E0
8.692390014E0,-1.606122398E1,-2.564268303E1,1.764108539E0
8.697165483E0,-1.301097298E1,-1.969532394E1,2.012962103E0
8.701927619E0,-9.065208435E0,-1.467518139E1,9.577272534E-1
8.706716369E0,-5.829514027E0,-1.074975586E1,3.529413417E-2
8.711491837E0,-3.634697676E0,-7.728219032E0,-4.630111754E-1
8.716253973E0,-2.285743713E0,-5.431707382E0,-3.613162339E-1
8.721042775E0,-1.798804402E0,-3.604787350E0,1.250249892E-1
8.725818192E0,-2.059023857E0,-2.116451740E0,3.122633696E-1
8.730580379E0,-3.096910715E0,-9.631111026E-1,7.238288224E-2
8.735369129E0,-4.304089546E0,-4.887340367E-1,-2.823530734E-1
8.740144546E0,-5.003392220E0,-8.225327730E-1,-4.941178858E-1
8.744906733E0,-5.318646431E0,-1.661815286E0,-2.763710022E-1
8.749695483E0,-5.318646431E0,-2.726621389E0,-6.400800496E-2
8.754470952E0,-5.217549801E0,-3.810570002E0,3.008974493E-1
8.759233087E0,-4.938187599E0,-4.976472855E0,9.822536707E-1
8.764021837E0,-4.822135925E0,-6.046064377E0,1.529013634E0
8.768797306E0,-5.002793789E0,-6.971488953E0,1.779661894E0
8.773559442E0,-5.094319344E0,-7.767102242E0,1.996810555E0
8.778348192E0,-5.014758110E0,-8.446065903E0,2.175075769E0
8.783123660E0,-5.037489891E0,-8.980861664E0,2.103291035E0
8.787885796E0,-4.960321426E0,-9.471988678E0,1.959123492E0
8.792674546E0,-4.841278553E0,-9.798608780E0,1.814955950E0
8.797450014E0,-4.688735962E0,-1.012164021E1,1.694118381E0
8.802212150E0,-4.593621254E0,-1.037647533E1,1.636092424E0
8.807000952E0,-4.358526230E0,-1.062173939E1,1.783849239E0
8.811776369E0,-3.961317778E0,-1.089511967E1,1.959721804E0
8.816538556E0,-3.589233875E0,-1.112124157E1,2.063809633E0
8.821327306E0,-3.297907829E0,-1.122652531E1,2.191825628E0
8.826102723E0,-2.982055187E0,-1.134138107E1,2.511865616E0
8.830864910E0,-2.831905603E0,-1.140897846E1,2.842075109E0
8.835653660E0,-2.654238462E0,-1.148076344E1,3.066402197E0
8.840429129E0,-2.520240545E0,-1.135035419E1,3.244069338E0
8.845191264E0,-2.278565407E0,-1.114756203E1,3.256631613E0
8.849980014E0,-2.075175524E0,-1.089631653E1,3.139981508E0
8.854755483E0,-1.734198213E0,-1.065464115E1,2.979662418E0
8.859517619E0,-1.426122308E0,-1.040339470E1,2.915654421E0
8.864306369E0,-1.061815023E0,-1.018086243E1,2.798406124E0
8.869081837E0,-7.357929349E-1,-9.972088814E0,2.547159672E0
8.873843973E0,-4.899304509E-1,-9.856036186E0,2.224128723E0
8.878632775E0,-4.271188378E-1,-9.836296082E0,1.657627940E0
8.883408192E0,-3.547359705E-1,-9.753743172E0,1.086341500E0
8.888170327E0,-2.356930375E-1,-9.589835167E0,4.660021961E-1
8.892959129E0,-1.728814393E-1,-9.430113792E0,-1.387837082E-1
8.897734546E0,-2.775674164E-1,-9.175278664E0,-7.334001660E-1
8.902496733E0,-4.528416991E-1,-8.837890625E0,-1.222134113E0
8.907285483E0,-6.807580590E-1,-8.443074226E0,-1.658226132E0
8.912060900E0,-9.690931439E-1,-8.005785942E0,-1.978266120E0
8.916823087E0,-1.271785259E0,-7.509873867E0,-2.207378864E0
8.921611837E0,-1.564906001E0,-7.009773731E0,-2.480160713E0
8.926387306E0,-2.125424623E0,-6.475576401E0,-2.775076151E0
8.931149442E0,-2.954537868E0,-5.957530022E0,-3.418745279E0
8.935938192E0,-3.947559118E0,-5.675177097E0,-3.932604074E0
8.940713660E0,-4.786243439E0,-5.556732178E0,-4.095914364E0
8.945475796E0,-5.077569485E0,-5.553143024E0,-3.537788391E0
8.950264546E0,-4.753940582E0,-5.639284611E0,-2.694916487E0
8.955040014E0,-4.048655987E0,-5.864210129E0,-1.782054663E0
8.959815483E0,-3.471985579E0,-6.205187321E0,-1.107876897E0
8.964590900E0,-3.202194929E0,-6.546762943E0,-6.436693072E-1
8.969366369E0,-3.012563705E0,-6.932007313E0,-1.495514214E-1
8.974128504E0,-2.698505640E0,-7.297510624E0,3.284149170E-1
8.978917306E0,-2.529213428E0,-7.523632526E0,6.490531564E-1
8.983692775E0,-2.441875458E0,-7.610372543E0,9.517452121E-1
8.988454910E0,-2.431107759E0,-7.629515171E0,1.119242787E0
8.993243660E0,-2.459223509E0,-7.615158081E0,1.215553880E0
8.998019129E0,-2.421536446E0,-7.610372543E0,1.172483087E0
9.002794546E0,-2.375474691E0,-7.552346706E0,9.026923180E-1
9.007570014E0,-2.425724030E0,-7.513463020E0,5.383850932E-1
9.012345483E0,-2.561516523E0,-7.388438225E0,1.076770201E-1
9.017120952E0,-2.717648268E0,-7.268198967E0,-4.827519655E-1
9.021896369E0,-2.913261652E0,-7.263412952E0,-1.292124271E0
9.026671837E0,-3.047259569E0,-7.460821152E0,-2.284547329E0
9.031433973E0,-3.081357241E0,-7.734799385E0,-3.378665686E0
9.036222723E0,-3.039483070E0,-8.091329575E0,-4.458426952E0
9.040998192E0,-2.996412039E0,-8.452047348E0,-5.365306377E0
9.045760327E0,-2.717648268E0,-8.793025017E0,-5.942574978E0
9.050549129E0,-2.507079840E0,-9.053244591E0,-5.900700569E0
9.055324546E0,-2.307279348E0,-9.303294182E0,-5.263013363E0
9.060086733E0,-2.067398787E0,-9.644869804E0,-4.308875561E0
9.064875483E0,-1.683948994E0,-1.004506969E1,-3.331407309E0
9.069650952E0,-1.130608678E0,-1.050150013E1,-2.480160713E0
9.074413087E0,-5.874379873E-1,-1.092383385E1,-1.839482427E0
9.079201837E0,-1.459621787E-1,-1.126540947E1,-1.375872970E0
9.083977306E0,8.075776696E-2,-1.156869888E1,-1.021735311E0
9.088739442E0,1.453639716E-1,-1.181874943E1,-6.334998012E-1
9.093528192E0,1.627119333E-1,-1.203589821E1,-2.398804724E-1
9.098303660E0,1.704886109E-1,-1.220937729E1,1.495514214E-1
9.103065796E0,1.543370634E-1,-1.234038448E1,4.995017350E-1
9.107854546E0,7.058826834E-2,-1.238883877E1,7.878368497E-1
9.112630014E0,-1.088734269E-1,-1.236012554E1,1.024726272E0
9.117392150E0,-3.272185028E-1,-1.222074318E1,1.212562919E0
9.122180900E0,-5.413761139E-1,-1.202393341E1,1.290329576E0
9.126956369E0,-7.381857634E-1,-1.181695461E1,1.204786181E0
9.131718556E0,-9.906286001E-1,-1.166860008E1,1.134197950E0
9.136507306E0,-1.313659668E0,-1.158724403E1,1.308275819E0
9.141282723E0,-1.633699656E0,-1.161236858E1,1.761117458E0
9.146044910E0,-1.949552298E0,-1.171466160E1,2.257030010E0
9.150833660E0,-2.294118643E0,-1.187438202E1,2.618944407E0
9.155609129E0,-2.739781857E0,-1.203948689E1,2.712264538E0
9.160371264E0,-3.259024382E0,-1.213699436E1,2.638685226E0
9.165160014E0,-3.845266104E0,-1.217707443E1,2.416152716E0
9.169935483E0,-4.427918434E0,-1.215374470E1,2.050050735E0
9.174697619E0,-4.822135925E0,-1.230927753E1,1.350748420E0
9.179486369E0,-5.050052166E0,-1.229492092E1,6.131607890E-1
9.184261837E0,-4.983053207E0,-1.216391373E1,-5.922235921E-2
9.189023973E0,-4.678566456E0,-1.196531010E1,-7.471588850E-1
9.193812723E0,-4.137190342E0,-1.172782230E1,-1.532602906E0
9.198588192E0,-3.501297712E0,-1.158126163E1,-2.481357098E0
9.203350327E0,-3.069393158E0,-1.165244770E1,-3.443271875E0
9.208139129E0,-2.824727058E0,-1.199342537E1,-4.202394962E0
9.212914546E0,-2.544766903E0,-1.249831104E1,-4.496113777E0
9.217676733E0,-2.032702923E0,-1.304148197E1,-4.292125702E0
9.222465483E0,-1.499103427E0,-1.357567883E1,-3.709473372E0
9.227240952E0,-1.113858938E0,-1.390708542E1,-3.062813044E0
9.232003087E0,-7.573283911E-1,-1.400279808E1,-2.416750908E0
9.236791837E0,-5.880361795E-1,-1.379581928E1,-1.904686809E0
9.241567306E0,-5.641079545E-1,-1.340100288E1,-1.698904037E0
9.246329442E0,-5.419743061E-1,-1.297149181E1,-1.741974831E0
9.251118192E0,-4.253242314E-1,-1.260060406E1,-1.843669891E0
9.255893660E0,-2.793620527E-1,-1.227757263E1,-1.926222205E0
9.260655796E0,-5.623133108E-2,-1.214656639E1,-1.927418590E0
9.265444598E0,9.690931439E-2,-1.209332561E1,-1.779661894E0
9.270220014E0,5.084748194E-2,-1.202572823E1,-1.506281853E0
9.274995483E0,-5.682953820E-2,-1.205504036E1,-1.217348576E0
9.279770952E0,-2.446661144E-1,-1.206999588E1,-8.279166222E-1
9.284546421E0,-7.471588850E-1,-1.196590805E1,-3.601198196E-1
9.289308556E0,-1.371087432E0,-1.155852985E1,3.918247223E-1
9.294097306E0,-2.010569334E0,-1.107338524E1,1.191625714E0
9.298872775E0,-2.682354212E0,-1.052662468E1,2.019542217E0
9.303634910E0,-3.479762316E0,-9.930811882E0,2.738585472E0
9.308423660E0,-4.163511276E0,-9.480362892E0,3.236890793E0
9.313199129E0,-4.785047054E0,-9.323035240E0,3.489333630E0
9.317961264E0,-5.308476925E0,-9.488140106E0,3.453441381E0
9.322750014E0,-5.779264927E0,-9.835697174E0,3.254837036E0
9.327525483E0,-6.517450809E0,-1.021376324E1,3.042474031E0
9.332287619E0,-7.526025295E0,-1.062532902E1,2.837289333E0
9.337076421E0,-8.885746956E0,-1.103749275E1,2.733799934E0
9.341851837E0,-1.047398281E1,-1.147537899E1,2.536391973E0
9.346614025E0,-1.179362488E1,-1.185404301E1,2.087737799E0
9.351402775E0,-1.300140190E1,-1.213101292E1,1.378864050E0
9.356178244E0,-1.373001671E1,-1.235892868E1,2.261217386E-1
9.360940379E0,-1.399980736E1,-1.245524025E1,-1.153938770E0
9.365729129E0,-1.360858059E1,-1.252164078E1,-2.510071039E0
9.370504598E0,-1.257667542E1,-1.245105267E1,-3.412165165E0
9.375266733E0,-1.077428246E1,-1.207478142E1,-3.988237143E0
9.380055483E0,-8.870791435E0,-1.137667561E1,-4.401597023E0
9.384830952E0,-7.313662529E0,-1.063549805E1,-4.630710125E0
9.389593087E0,-6.739983082E0,-1.012881851E1,-4.682155609E0
9.394381837E0,-7.101897717E0,-9.888339996E0,-4.627718925E0
9.399157306E0,-7.813762188E0,-9.822537422E0,-4.221537113E0
9.403932775E0,-8.033304214E0,-9.789635658E0,-3.543172121E0
9.408708244E0,-7.544569969E0,-9.697511673E0,-2.874378204E0
9.413483660E0,-6.888936520E0,-9.363713264E0,-2.114656925E0
9.418245848E0,-5.822933674E0,-9.072985649E0,-1.150947690E0
9.423034598E0,-4.634897232E0,-8.602795601E0,-3.086741269E-1
9.427810067E0,-3.611965895E0,-8.167302132E0,6.508477330E-1
9.432572202E0,-2.799602509E0,-8.030911446E0,1.318445325E0
9.437360952E0,-2.145763636E0,-8.096714020E0,1.660618901E0
9.442136421E0,-1.813161373E0,-8.389834404E0,1.476371527E0
9.446898556E0,-1.257428288E0,-8.720642090E0,1.114457130E0
9.451687306E0,-8.195417374E-2,-9.026325226E0,9.499505758E-1
9.456462775E0,1.468594909E0,-9.301499367E0,8.021938205E-1
9.461224910E0,2.475973129E0,-9.414560318E0,5.144568682E-1
9.466013712E0,3.014956474E0,-9.500103951E0,6.460621357E-1
9.470789129E0,2.985644341E0,-9.524032593E0,4.779663086E-1
9.475551317E0,1.861017823E0,-9.141778946E0,4.408775866E-1
9.480340067E0,9.134600163E-1,-8.815756798E0,4.785645306E-1
9.485115535E0,1.031904817E0,-8.690732002E0,4.779663086E-1
9.489877671E0,2.046461582E0,-9.127422333E0,1.174277663E0
9.494666421E0,2.222334146E0,-9.458827972E0,1.067797065E0
9.499441889E0,1.280758262E0,-9.316454887E0,3.714857101E-1
9.504217306E0,-5.527420044E-1,-8.597412109E0,-3.583251834E-1
9.508992775E0,-2.358126640E0,-7.474579811E0,-8.679963946E-1
9.513768244E0,-3.508476257E0,-6.373881340E0,-9.391828775E-1
9.518530379E0,-4.096512318E0,-5.286343575E0,-7.549355626E-1
9.523319129E0,-4.135395527E0,-4.231706619E0,-3.619144261E-1
9.528094598E0,-3.678964853E0,-3.238087177E0,1.387837082E-1
9.532856733E0,-3.312862873E0,-2.283949137E0,5.874379873E-1
9.537645535E0,-3.157329559E0,-1.339382529E0,9.122636318E-1
9.542420952E0,-3.244069338E0,-4.295116663E-1,1.133001566E0
9.547183139E0,-3.374478102E0,3.942175210E-1,1.315454245E0
9.551971889E0,-3.432504177E0,1.193420291E0,1.579262972E0
9.556747358E0,-3.337389469E0,1.858624935E0,1.851446509E0
9.561509494E0,-3.224328518E0,2.316252232E0,1.994417667E0
9.566298244E0,-3.038286448E0,2.495713949E0,2.109273195E0
9.571073712E0,-2.727817774E0,2.414358139E0,2.212762833E0
9.575835848E0,-2.313261271E0,2.115853310E0,2.254039049E0
9.580624598E0,-2.022533417E0,1.683350682E0,2.152343988E0
9.585400067E0,-1.945963025E0,1.201795220E0,1.907079697E0
9.590175535E0,-1.927418590E0,7.543373108E-1,1.595414519E0
9.594950952E0,-1.875972986E0,3.212364316E-1,1.197607756E0
9.599726421E0,-1.815554142E0,-7.896314561E-2,7.555337548E-1
9.604501889E0,-1.774278045E0,-5.120640397E-1,3.481557071E-1
9.609277358E0,-1.907677889E0,-9.696913958E-1,-1.076770201E-2
9.614052827E0,-2.249253273E0,-1.476371527E0,-1.429711580E-1
9.618814962E0,-2.604587555E0,-2.103291035E0,-2.422732860E-1
9.623603712E0,-2.726621389E0,-2.773281336E0,-2.889333367E-1
9.628379181E0,-2.808575630E0,-3.549752474E0,-1.292124242E-1
9.633141317E0,-2.958127022E0,-4.412364960E0,-9.870393574E-2
9.637930067E0,-3.198007345E0,-5.414359570E0,-1.782652885E-1
9.642705535E0,-3.299104214E0,-6.696912289E0,-2.303091735E-1
9.647467671E0,-3.509672642E0,-8.099106789E0,-4.151547253E-1
9.652256473E0,-3.568894863E0,-9.693324089E0,-8.697910309E-1
9.657031889E0,-3.255435228E0,-1.137428284E1,-1.801197290E0
9.661794077E0,-2.949153900E0,-1.345902920E1,-3.432504177E0
9.666582827E0,-2.501097918E0,-1.651107407E1,-4.983651161E0
9.671358296E0,-2.327019930E0,-2.037368774E1,-7.362117290E0
9.676120431E0,-2.827120066E0,-2.473281288E1,-1.213101292E1
9.680909181E0,-5.531009674E0,-2.876292419E1,-2.078166389E1
9.685684650E0,-5.888138294E0,-3.547838211E1,-3.377529144E1
9.690446785E0,-1.436291814E0,-4.128994751E1,-3.946183395E1
9.695235535E0,2.493919373E0,-4.032025909E1,-3.331646729E1
9.700011004E0,4.479962349E0,-3.719642639E1,-2.591426849E1
9.704773139E0,3.475574970E0,-3.215774155E1,-1.856531334E1
9.709561889E0,-6.245267391E-1,-2.584009171E1,-1.354277802E1
9.714337358E0,-3.421736479E0,-2.053879356E1,-9.851250648E0
9.719099494E0,-4.024727821E0,-1.600379562E1,-6.352943897E0
9.723888296E0,-3.027518749E0,-1.204726410E1,-3.073580742E0
9.728663712E0,-1.312463164E0,-8.233702660E0,1.399801224E-1
9.733425900E0,5.138586760E-1,-3.562912941E0,4.767699242E0
9.738214650E0,2.148156643E0,6.358926296E-1,7.462615490E0
9.742990119E0,4.323232174E0,3.700500250E0,8.500502586E0
