Time (s),Acceleration x (m/s^2),Acceleration y (m/s^2),Acceleration z (m/s^2)
4.003168497,-1794.3330166551345,-32883.66320525285,-60398.05512632343
4.007924122,-1827.657028006565,-32788.35472960997,-60435.164356604466
4.012679747,-1860.7761918979468,-32692.593086853216,-60471.0166108804
4.017435372,-1893.6911146578962,-32596.38364857071,-60505.61785980281
4.022190997,-1926.402399527628,-32499.731765992172,-60538.97400441919
4.026946622,-1958.9106464590423,-32402.6427695467,-60571.09087598321
4.031702247,-1991.216451917658,-32305.121968441243,-60601.97423579279
4.036457872,-2023.3204086905764,-32207.174650260426,-60631.629775056885
4.041213497,-2055.223105699667,-32108.80608058828,-60660.06311479163
4.045969122,-2086.9251278201764,-32010.0215026524,-60687.27980574656
4.050724695,-2118.427055704945,-31910.82613699081,-60713.28532836155
4.05548032,-2149.729465614418,-31811.225181141755,-60738.08509275509
4.060235945,-2180.8329292526323,-31711.223809356154,-60761.6844387444
4.06499157,-2211.738013609339,-31610.827172332458,-60784.08863589717
4.069747195,-2242.4452808084043,-31510.040396973523,-60805.30288361499
4.07450282,-2272.9552879626094,-31408.868586164805,-60825.33231124856
4.079258445,-2303.2685870349646,-31307.31681857335,-60844.18197824514
4.08401407,-2333.3857247066658,-31205.390148467122,-60861.85687432857
4.088769695,-2363.3072422518,-31103.09360555407,-60878.361919712
4.09352532,-2393.03367541892,-31000.432194840196,-60893.701965343695
4.098280945,-2422.565554319616,-30897.410896505626,-60907.88179318651
4.10303657,-2451.903403324199,-30794.034665797317,-60920.906116531514
4.107792195,-2481.04774096462,-30690.308432937356,-60932.77958034672
4.112547768,-2509.9990798447056,-30586.23710304566,-60943.50676166193
4.117303393,-2538.757926557799,-30481.82555607583,-60953.09216999004
4.122059018,-2567.3247816118696,-30377.07864676314,-60961.54024778586
4.126814643,-2595.7001393621736,-30272.001204583863,-60968.85537094298
4.131570268,-2623.8844879515395,-30166.598033725248,-60975.04184932946
4.136325893,-2651.8783092583562,-30060.873913065185,-60980.1039273627
4.141081518,-2679.6820788523137,-29954.833596160763,-60984.04578462489
4.145837143,-2707.2962659579257,-29848.481811244845,-60986.87153651953
4.150592768,-2734.721333425831,-29741.82326122996,-60988.585234969796
4.155348393,-2761.9577377118408,-29634.862623718862,-60989.19086915897
4.160104018,-2789.005928863696,-29527.60455102105,-60988.69236631335
4.164859591,-2815.866350515468,-29420.053670174664,-60987.09359252756
4.169615216,-2842.5394398895533,-29312.214582972978,-60984.39835363217
4.174370841,-2869.025627806202,-29204.091865994906,-60980.61039610347
4.179126466,-2895.3253387005193,-29095.690070639044,-60975.733408015425
4.183882091,-2921.438990646846,-28987.01372316075,-60969.77102003363
4.188637716,-2947.3669953904564,-28878.067324711712,-60962.72680645043
4.193393341,-2973.109758386456,-28768.85535138159,-60954.60428626044
4.198148966,-2998.6676788457617,-28659.382254241445,-60945.406924276
4.202904591,-3024.0411497880527,-28549.652459388602,-60935.13813228201
4.207660216,-3049.230558101589,-28439.670367992483,-60923.801270229196
4.212415841,-3074.2362846097626,-28329.440356341074,-60911.39964746475
4.217171466,-3099.0587041443023,-28218.966775887584,-60897.93652399925
4.221927039,-3123.6981856250495,-28108.253953296946,-60883.415111808936
4.226682664,-3148.1550921462313,-27997.30619049205,-60867.838576172355
4.231438289,-3172.429781069154,-27886.12776469967,-60851.21003704003
4.236193914,-3196.522604121231,-27774.722928496056,-60833.53257043579
4.240949539,-3220.4339075012663,-27663.095909852098,-60814.80920988803
4.245705164,-3244.164031990915,-27551.250912177864,-60795.04294788932
4.250460789,-3267.7133130722364,-27439.19211436632,-60774.23673738323
4.255216414,-3291.0820810512187,-27326.92367083606,-60752.393493276875
4.259972039,-3314.2706611871095,-27214.449711573016,-60729.51609397843
4.264727664,-3337.2793738273745,-27101.774342171135,-60705.60738295886
4.269483289,-3360.1085345480997,-26988.901643871886,-60680.67017033698
4.274238914,-3382.758454299626,-26875.835673602585,-60654.707234487636
4.278994487,-3405.2294395572253,-26762.580464013634,-60627.72132367173
4.283750112,-3427.5217924765993,-26649.140023515007,-60599.715157686805
4.288505737,-3449.6358110539345,-26535.518336312165,-60570.69142953614
4.293261362,-3471.5717892902285,-26421.719362441516,-60540.652807114326
4.298016987,-3493.330017359599,-26307.747037805377,-60509.60193490703
4.302772612,-3514.9107817812824,-26193.605274206097,-60477.541435702566
4.307528237,-3536.3143655950425,-26079.29795937918,-60444.47391231284
4.312283862,-3557.5410485396806,-25964.828957025322,-60410.40194930129
4.317039487,-3578.5911072343347,-25850.20210684155,-60375.32811471572
4.321795112,-3599.464815362271,-25735.421224551465,-60339.25496182421
4.326550737,-3620.162443856834,-25620.490101934847,-60302.1850308523
4.331306362,-3640.6842610892327,-25505.412506856796,-60264.12085071922
4.336061987,-3661.0305330578176,-25390.192183296575,-60225.06494077135
4.34081756,-3681.201523578553,-25274.832851376486,-60185.0198125107
4.345573185,-3701.1974944763874,-25159.338207391007,-60143.98797131642
4.35032881,-3721.018705777232,-25043.711923836225,-60101.97191815742
4.355084435,-3740.665415900258,-24927.95764943978,-60058.9741512943
4.35984006,-3760.1378818502594,-24812.07900919156,-60014.997167968715
4.364595685,-3779.4363594098486,-24696.079604375445,-59970.04346607815
4.36935131,-3798.5611033312457,-24579.963012602377,-59924.11554583464
4.374106935,-3817.5123675274394,-24463.732787845027,-59877.215911406
4.37886256,-3836.290405262498,-24347.392460474595,-59829.347072537625
4.383618185,-3854.89546934082,-24230.945537300213,-59780.51154615364
4.38837381,-3873.327812295128,-24114.395501611554,-59730.71185793591
4.393129435,-3891.587686573018,-23997.74581322501,-59679.950543879466
4.39788506,-3909.675344721858,-23880.999908533657,-59628.230151822805
4.402640685,-3927.591039571819,-23764.16120056121,-59575.553242951726
4.40739631,-3945.3350244167964,-23647.23307902019,-59521.92239327537
4.412151883,-3962.907553192979,-23530.21891037443,-59467.340195073004
4.416907508,-3980.308880654853,-23413.12203790609,-59411.809258310335
4.421663133,-3997.5392625484324,-23295.9457817871,-59355.332212024536
4.426418758,-4014.5989557814937,-23178.693439154995,-59297.911705677696
4.431174383,-4031.4882185905826,-23061.368284192857,-59239.55041047811
4.435930008,-4048.2073107045717,-22943.973568213212,-59180.251020669275
4.440685633,-4064.756493504595,-22826.512519745716,-59120.01625478634
4.445441258,-4081.1360301802288,-22708.98834462846,-59058.848856879864
4.450196883,-4097.346185881834,-22591.404226102608,-58996.751597706825
4.454952508,-4113.387227868968,-22473.763324910255,-58933.727275888516
4.459708133,-4129.259425654823,-22356.068779395202,-58869.77871903553
4.464463758,-4144.963051146617,-22238.323705606606,-58804.90878483948
4.469219383,-4160.498378781917,-22120.53119740552,-58739.120362130794
4.473975008,-4175.865685660847,-22002.69432657461,-58672.4163719018
4.478730581,-4191.06525167415,-21884.81614293137,-58604.79976829432
4.483486206,-4206.097359627138,-21766.899674444983,-58536.273539551476
4.488241831,-4220.962295359488,-21648.947927356967,-58466.840708933014
4.492997456,-4235.660347860893,-21530.96388630553,-58396.50433559326
4.497753081,-4250.191809382472,-21412.950514453547,-58325.26751542144
4.502508706,-4264.556975543879,-21294.91075362007,-58253.13338184339
4.507264331,-4278.756145436094,-21176.8475244152,-58180.10510658368
4.512019956,-4292.789621719875,-21058.76372637819,-58106.18590038729
4.516775581,-4306.657710719863,-20940.662238118788,-58031.379013700345
4.521531206,-4320.360722514283,-20822.54591746167,-57955.68773730924
4.526286831,-4333.8989710202695,-20704.41760159389,-57879.115402937496
4.531042456,-4347.272774074779,-20586.280107215247,-57801.66538379967
4.535798081,-4360.482453511097,-20468.1362306915,-57723.34109511188
4.540553706,-4373.5283352308925,-20349.988748210144,-57644.14599455848
4.545309331,-4386.410749271775,-20231.84041593862,-57564.083582715015
4.550064956,-4399.130029870372,-20113.69397018466,-57483.15740342752
4.554820529,-4411.68651552095,-19995.552127558596,-57401.37104414832
4.559576154,-4424.080549029634,-19877.417585137304,-57318.72813622807
4.564331779,-4436.312477564269,-19759.29302062962,-57235.232355163556
4.569087404,-4448.382652699976,-19641.181092543186,-57150.88742080097
4.573843029,-4460.2914304604565,-19523.084440352697,-57065.69709749442
4.578598654,-4472.0391713551,-19405.005684669464,-56979.665194219575
4.583354279,-4483.626240411954,-19286.947427412255,-56892.795564642875
4.588109904,-4495.053007206659,-19168.91225197958,-56805.09210714649
4.592865529,-4506.319845887405,-19050.902723423416,-56716.55876480953
4.597621154,-4517.427135196018,-18932.921388624396,-56627.19952534605
4.602376779,-4528.3752584852355,-18814.97077646825,-56537.01842100031
4.607132404,-4539.164603732268,-18697.053398023254,-56446.01952839982
4.611888029,-4549.795563548729,-18579.1717467184,-56354.206968366394
4.616643654,-4560.268535187045,-18461.32829852208,-56261.58490568583
4.621399279,-4570.583920543467,-18343.525512121174,-56168.15754883608
4.626154904,-4580.742126157775,-18225.765829100426,-56073.92914967452
4.630910529,-4590.743563209796,-18108.051674121987,-55978.90400308476
4.635666154,-4600.588647512838,-17990.385455105057,-55883.08644658372
4.640421779,-4610.277799504141,-17872.769563405687,-55786.48085988949
4.645177352,-4619.811444232435,-17755.206373996847,-55689.091664450985
4.649932977,-4629.190011342685,-17637.6982456488,-55590.923322940725
4.654688602,-4638.413935058058,-17520.247521109704,-55491.98033871192
4.659444227,-4647.483654159239,-17402.856527286574,-55392.267255221275
4.664199852,-4656.399611961146,-17285.52757542672,-55291.788655418655
4.668955477,-4665.162256287113,-17168.26296129975,-55190.54916110456
4.673711102,-4673.772039440653,-17051.064965380272,-55088.55343225655
4.678466727,-4682.229418174871,-16933.935853031227,-54985.80616632565
4.683222352,-4690.534853659687,-16816.87787468783,-54882.31209750384
4.687977977,-4698.688811446942,-16699.893266042014,-54778.075995963714
4.692733602,-4706.691761433529,-16582.98424822738,-54673.102667071835
4.697489227,-4714.544177822658,-16466.15302800486,-54567.39695057715
4.702244852,-4722.2465390833895,-16349.40179794907,-54460.96371977581
4.707000477,-4729.799327908536,-16232.732736635278,-54353.80788065312
4.711756102,-4737.203031171036,-16116.148008826882,-54245.93437100309
4.716511727,-4744.458139878912,-15999.649765663324,-54137.34815952623
4.721267352,-4751.565149128879,-15883.240144848323,-54028.054244906074
4.726022977,-4758.5245580586625,-15766.921270838337,-53918.05765486489
4.730778602,-4765.336869798063,-15650.695255031063,-53807.36344519916
4.735534174,-4772.002591418788,-15534.564195953875,-53695.97669879606
4.740289799,-4778.522233883054,-15418.530179452022,-53583.90252463182
4.745045424,-4784.896311990951,-15302.595278876386,-53471.14605675337
4.749801049,-4791.125344326617,-15186.761555270488,-53357.712453244654
4.754556674,-4797.209853203233,-15071.031057556464,-53243.606895178804
4.759312299,-4803.150364606899,-14955.40582271977,-53128.834585557735
4.764067924,-4808.947408139419,-14839.88787599239,-53013.400748240594
4.768823549,-4814.601516960072,-14724.47923103436,-52897.3106268622
4.773579174,-4820.113227726348,-14609.181890113457,-52780.569483743
4.778334799,-4825.483080533635,-14493.99784428294,-52663.18259879158
4.783090424,-4830.711618853834,-14378.929073557185,-52545.15526840126
4.787846049,-4835.799389472843,-14263.977547085095,-52426.49280434232
4.792601674,-4840.746942426926,-14149.145223321175,-52307.20053265185
4.797357299,-4845.554830937915,-14034.43405019417,-52187.28379252235
4.802112924,-4850.223611347306,-13919.845965273184,-52066.74793519026
4.806868549,-4854.753843049276,-13805.382895931201,-51945.59832282529
4.811624174,-4859.146088422647,-13691.046759505916,-51823.84032742142
4.816379799,-4863.400912761902,-13576.839463457749,-51701.479329690985
4.821135424,-4867.518884207331,-13462.762905525045,-51578.52071796268
4.825891049,-4871.500573674392,-13348.818973876443,-51454.9698870841
4.830646674,-4875.346554782363,-13235.009547260373,-51330.8322373296
4.835402247,-4879.057403782383,-13121.336495151681,-51206.11317331473
4.840157924,-4882.633699485017,-13007.801677895277,-51080.8181029186
4.844913497,-4886.0760231874665,-12894.406946846775,-50954.95243621589
4.849669122,-4889.384958600526,-12781.154144510167,-50828.52158441934
4.854424747,-4892.561091775401,-12668.04510467265,-50701.53095883394
4.859180372,-4895.605011030474,-12555.081652536674,-50573.98596982359
4.863935997,-4898.517306878159,-12442.265604849235,-50445.89202579042
4.868691622,-4901.298571951953,-12329.598770028511,-50317.25453216679
4.873447247,-4903.949400933787,-12217.082948287847,-50188.07889042022
4.878202872,-4906.470390481748,-12104.719931757129,-50058.37049707152
4.882958497,-4908.862139158257,-11992.511504601527,-49928.134742727
4.887714122,-4911.125247358721,-11880.459443137566,-49797.37701112567
4.892469747,-4913.260317240713,-11768.565515946464,-49666.10267820282
4.897225372,-4915.267952653718,-11656.831483984633,-49534.31711117156
4.901980997,-4917.148759069413,-11545.259100691252,-49402.02566762337
4.906736622,-4918.90334351254,-11433.850112092814,-49269.23369464915
4.911492247,-4920.53231449236,-11322.606256904553,-49135.946527981905
4.916247872,-4922.0362819346665,-11211.52926662861,-49002.16949116239
4.921003497,-4923.41585711435,-11100.620865648834,-48867.90789472856
4.925759122,-4924.671652588498,-10989.882771322089,-48733.16703542998
4.930514747,-4925.804282130066,-10879.316694065854,-48597.95219546777
4.935270372,-4926.814360662096,-10768.924337441904,-48462.26864176032
4.940025997,-4927.702504192493,-10658.70739823576,-48326.121625235035
4.944781622,-4928.469329749384,-10548.667566531578,-48189.516380146386
4.949537195,-4929.11545531711,-10438.806525782196,-48052.4581234203
4.95429282,-4929.641499772858,-10329.125952874176,-47914.95205402472
4.959048445,-4930.048082823966,-10219.627518187654,-47777.003352366475
4.96380407,-4930.3358249458515,-10110.312885650956,-47638.61717971469
4.968559695,-4930.505347320587,-10001.183712789832,-47499.798677650935
4.97331532,-4930.557271776141,-9892.241650771304,-47360.552967546515
4.978070945,-4930.492220726323,-9783.488344442068,-47220.88515006687
4.98282657,-4930.310817111486,-9674.92543236144,-47080.80030470358
4.987582195,-4930.0136843400305,-9566.554546828726,-46940.30348933446
4.99233782,-4929.601446230725,-9458.37731390501,-46799.39973981193
4.997093445,-4929.074726955845,-9350.395353429401,-46658.09406958041
5.00184907,-4928.434150985117,-9242.610279029788,-46516.391469322996
5.006604695,-4927.680343030481,-9135.023698128189,-46374.29690663758
5.01136032,-4926.813927991652,-9027.637211940839,-46231.81532574221
5.016115945,-4925.835530902457,-8920.452415473075,-46088.95164720944
5.02087157,-4924.745776877879,-8813.470897509129,-45945.7107677297
5.025627195,-4923.545291061791,-8706.694240596991,-45802.09755990373
5.03038282,-4922.234698575335,-8600.124021028541,-45658.116872064165
5.035138445,-4920.814624465852,-8493.76180881521,-45513.77352812599
5.03989407,-4919.285693656337,-8387.609167659357,-45369.07232746521
5.044649695,-4917.648530895303,-8281.66765492149,-45224.01804482529
5.04940532,-4915.903760707063,-8175.938821583503,-45078.615430250524
5.054160945,-4914.052007342428,-8070.424212208099,-44932.86920904572
5.05891657,-4912.093894729888,-7965.125364894562,-44786.78408176127
5.063672143,-4910.03004642733,-7860.043811231001,-44640.36472420297
5.06842782,-4907.861085574405,-7755.181076243087,-44493.61578746602
5.073183393,-4905.587634845661,-7650.538678339303,-44346.541897992574
5.077939018,-4903.21031640456,-7546.118129252661,-44199.1476576519
5.082694643,-4900.729751858506,-7441.920933978852,-44051.43764384177
5.087450268,-4898.146562215025,-7337.94859071082,-43903.416409610065
5.092205893,-4895.461367839199,-7234.202590769676,-43755.088483795815
5.096961518,-4892.674788412439,-7130.684418531865,-43606.458371188324
5.101717143,-4889.787442892762,-7027.395551352488,-43457.530552702796
5.106472768,-4886.799949476587,-6924.337459484714,-43308.309485571306
5.111228393,-4883.712925562098,-6821.511605995184,-43158.799603548105
5.115984018,-4880.526987714174,-6718.91944667534,-43009.00531712795
5.120739643,-4877.2427516309635,-6616.562429948606,-42858.93101377585
5.125495268,-4873.860832112105,-6514.441996773425,-42708.581058166616
5.130250893,-4870.381843028636,-6412.559580542113,-42557.95979243266
5.135006518,-4866.806397294668,-6310.916606975552,-42407.07153641892
5.139762143,-4863.135106840866,-6209.514494013694,-42255.920587944274
5.144517768,-4859.368582589719,-6108.354651701932,-42104.51122306916
5.149273393,-4855.507434432632,-6007.438482073437,-41952.84769636928
5.154029018,-4851.552271208815,-5906.767379027553,-41800.93424121483
5.158784643,-4847.50370068592,-5806.342728204393,-41648.775070054115
5.163540268,-4843.362329542372,-5706.165906855778,-41496.37437470066
5.168295893,-4839.128763351287,-5606.238283712737,-41343.73632662319
5.173051518,-4834.803606565853,-5506.561218849798,-41190.86507723807
5.177807143,-4830.387462506033,-5407.136063546387,-41037.76475820417
5.182562768,-4825.8809333464,-5307.964160145641,-40884.43948171992
5.187318393,-4821.284620104959,-5209.046841910986,-40730.89334082277
5.192073966,-4816.599122632735,-5110.385432880815,-40577.130409691476
5.196829591,-4811.825039603932,-5011.981247721599,-40423.15474395231
5.201585216,-4806.962968506475,-4913.835591579736,-40268.97038098952
5.206340841,-4802.013505632737,-4815.949759932413,-40114.581340259785
5.211096466,-4796.977246070248,-4718.32503843777,-39959.99162361045
5.215852091,-4791.854783692191,-4620.962702784615,-39805.20521560085
5.220607716,-4786.64671114757,-4523.864018541958,-39650.22608382627
5.225363341,-4781.353619850902,-4427.0302410085515,-39495.0581792442
5.230118966,-4775.976099971347,-4330.462615062654,-39339.70543650249
5.234874591,-4770.514740421162,-4234.162375012172,-39184.17177426851
5.239630216,-4764.970128843331,-4138.130744445358,-39028.46109555911
5.244385841,-4759.342851598271,-4042.368936082235,-38872.577288070956
5.249141466,-4753.633493749539,-3946.8781516269205,-38716.52422451054
5.253897091,-4747.842639048446,-3851.6595816210215,-38560.30576292348
5.258652716,-4741.970869917512,-3756.7144052982667,-38403.925747022455
5.263408341,-4736.01876743272,-3662.043790440532,-38247.38800651363
5.268163966,-4729.986911304532,-3567.6488932354164,-38090.69635742124
5.272919591,-4723.875879857687,-3473.5308581354925,-37933.85460240986
5.277675216,-4717.686250009777,-3379.690817719361,-37776.86653110403
5.282430841,-4711.418597248667,-3286.129892554612,-37619.735920404695
5.287186466,-4705.0734956088345,-3192.849191062816,-37462.46653480216
5.291942091,-4698.651517646686,-3099.849809386628,-37305.06212668506
5.296697716,-4692.153234414874,-3007.1328312591368,-37147.52643664486
5.301453341,-4685.5792154356395,-2914.6993278755954,-36989.86319377521
5.306208966,-4678.930028673204,-2822.550357767674,-36832.07611596553
5.310964591,-4672.206240505185,-2730.6869666803805,-36674.16891018853
5.315720216,-4665.408415693077,-2639.110187451786,-36516.14527278066
5.320475789,-4658.537117351778,-2547.8210398956644,-36358.00888971494
5.325231414,-4651.592906918143,-2456.8205306871478,-36199.76343686527
5.329987039,-4644.576344118576,-2366.10965325151,-36041.412580262084
5.334742664,-4637.487986935665,-2275.6893876562212,-35882.95997633863
5.339498289,-4630.328391573884,-2185.5607005064303,-35724.40927216749
5.344253914,-4623.098112424425,-2095.724544844038,-35565.76410568662
5.349009539,-4615.797702029191,-2006.1818600505278,-35407.02810591398
5.353765164,-4608.427711043998,-1916.9335717537153,-35248.20489315019
5.358520789,-4600.988688201043,-1827.9805917385609,-35089.29807916851
5.363276414,-4593.481180270708,-1739.3238178621775,-34930.31126739166
5.368032039,-4585.905732022814,-1650.964133973183,-34771.248053055104
5.372787664,-4578.262886187445,-1562.9024098355374,-34612.11202335652
5.377543289,-4570.5531834154735,-1475.1395010570147,-34452.90675759111
5.382298914,-4562.7771622389555,-1387.6762490224487,-34293.63582727221
5.387054539,-4554.935359031539,-1300.513480831885,-34134.30279623695
5.391810164,-4547.028307969074,-1213.6520092437665,-33974.91122073693
5.396565789,-4539.056540990618,-1127.0926326232618,-33815.46464951367
5.401321414,-4531.020587759996,-1040.8361348958563,-33655.966623858905
5.406077039,-4522.920975628102,-954.8832855063189,-33496.42067765951
5.410832664,-4514.758229596052,-869.2348393831514,-33336.830337427135
5.415588289,-4506.532872279344,-783.8915369086142,-33177.199122313206
5.420343914,-4498.245423873128,-698.8541038944072,-33017.53054411006
5.425099539,-4489.896402118685,-614.1232515630818,-32857.828107239075
5.429855112,-4481.486322271169,-529.6996765352518,-32698.095308726806
5.434610737,-4473.01569706871,-445.58406082267345,-32538.3356381699
5.439366362,-4464.485036702933,-361.7770718272556,-32378.552577689486
5.444121987,-4455.894848790952,-278.2793623460527,-32218.749601875294
5.448877612,-4447.245638348872,-195.0915705822909,-32058.930177719874
5.453633237,-4438.537907766797,-112.21432016246632,-31899.097764543487
5.458388862,-4429.772156785296,-29.64822015955146,-31739.255813910302
5.463144487,-4420.948882473274,52.606134877663344,-31579.407769536858
5.467900112,-4412.068579207211,134.54816488907093,-31419.557067193517
5.472655737,-4403.131738651677,216.1773042615748,-31259.707134599863
5.477411362,-4394.138849741084,297.4930017812331,-31099.861391314993
5.482166987,-4385.090398662655,378.4947205792156,-30940.023248623733
5.486922612,-4375.986868840589,459.18193807157735,-30780.196109419485
5.491678237,-4366.828740921435,539.5541458928598,-30620.38336808441
5.496433862,-4357.616492760669,619.610849823536,-30460.588410367487
5.501189487,-4348.350599410443,699.3515697113206,-30300.81461326113
5.505945112,-4339.031533108549,778.7758393863714,-30141.06534487696
5.510700737,-4329.659763268619,857.8832065704158,-29981.343964321404
5.515456362,-4320.2357564715685,936.6732327798381,-29821.653821571745
5.520211987,-4310.759976458349,1015.145493222767,-29661.998257353134
5.524967612,-4301.232884124001,1093.299576690208,-29502.38060301695
5.529723185,-4291.654937512998,1171.1350854412733,-29342.804180420797
5.534478862,-4282.02659181589,1248.6516350825748,-29183.272301810266
5.539234435,-4272.348299367249,1325.848854441856,-29023.788269702556
5.54399006,-4262.620509644921,1402.7263854359483,-28864.355376771844
5.548745685,-4252.843669270622,1479.283882933129,-28704.97690573599
5.55350131,-4243.018222011867,1555.521014609975,-28545.6561292441
5.558256935,-4233.144608785262,1631.4374608027986,-28386.39630976444
5.56301256,-4223.22326766117,1707.0329143537674,-28227.200699472265
5.567768185,-4213.254633869789,1782.307080451815,-28068.072540136993
5.57252381,-4203.239139808642,1857.2596764684615,-27909.015063008523
5.577279435,-4193.17721505151,1931.8904317886827,-27750.03148870264
5.58203506,-4183.069286358839,2006.199087636965,-27591.125027085644
5.586790685,-4172.915777689699,2080.185396898698,-27432.29887715817
5.59154631,-4162.717110215409,2153.849123937056,-27273.55622693806
5.596301935,-4152.473702334961,2227.190044405536,-27114.900253342348
5.60105756,-4142.185969692339,2300.207945056306,-26956.33412206845
5.605813185,-4131.854325195814,2372.9026235445554,-26797.86098747502
5.61056881,-4121.479179039276,2445.273888229029,-26639.483992462905
5.615324435,-4111.060938725664,2517.321557968971,-26481.20626835671
5.62008006,-4100.600009092605,2589.0454619177117,-26323.030934787374
5.624835685,-4090.096792340294,2660.445439313142,-26164.961099575976
5.62959131,-4079.551688061637,2731.5213392653072,-26006.999858618816
5.634346883,-4068.965093274675,2802.2730205413586,-25849.150295773867
5.639102508,-4058.3374024572695,2872.7003513481027,-25691.41548274871
5.643858133,-4047.6690075839974,2942.803209112404,-25533.79847899019
5.648613758,-4036.9602981651938,3012.5814802597156,-25376.302331576106
5.653369383,-4026.211661288055,3082.035059991006,-25218.930075109398
5.658125008,-4015.4234816597123,3151.1638520583456,-25061.684731614994
5.662880633,-4004.5961416521936,3219.9677685394286,-24904.569310439503
5.667636258,-3993.730021349215,3288.4467296113294,-24747.58680815408
5.672391883,-3982.8254985947397,3356.6006633237503,-24590.74020846099
5.677147508,-3971.882949043204,3424.4295053720552,-24434.03248210435
5.681903133,-3960.902746211291,3491.933198870363,-24277.466586785304
5.686658758,-3949.8852615310884,3559.11169412497,-24121.045467081734
5.691414383,-3938.8308644044855,3625.964948408373,-23964.772054372545
5.696170008,-3927.739922258647,3692.492925734162,-23808.64926676639
5.700925633,-3916.6128006024132,3758.6955966330675,-23652.680009034608
5.705681258,-3905.4498630834596,3824.572937930426,-23496.86717254804
5.710436883,-3894.2514715459897,3890.1249325253366,-23341.21363521767
5.715192456,-3883.0179860887533,3955.351569171785,-23185.722261438787
5.719948081,-3871.749765123183,4020.252842262033,-23030.395902038486
5.724703706,-3860.447165431436,4084.8287516125642,-22875.23739422591
5.729459331,-3849.1105422242035,4149.079302252894,-22720.2495615448
5.734214956,-3837.7402491981247,4213.004504217548,-22565.435213828187
5.738970581,-3826.336638592676,4276.604372341482,-22410.797147155048
5.743726206,-3814.9000612464215,4339.8789260592175,-22256.33814380885
5.748481831,-3803.4308666525408,4402.828189207925,-22102.060972237803
5.753237456,-3791.9294030135516,4465.452189834697,-21947.96838701651
5.757993081,-3780.396017295141,4527.750960008214,-21794.06312880889
5.762748706,-3768.8310552790244,4589.724535635016,-21640.347924332385
5.767504331,-3757.234861614744,4651.372956280544,-21486.825486323432
5.772259956,-3745.607779870338,4712.696264995097,-21333.498513504434
5.777015581,-3733.9501525818177,4773.694508144862,-21180.369690552387
5.781771206,-3722.2623213014353,4834.367735248119,-21027.44168806923
5.786526831,-3710.544626644713,4894.715998816738,-20874.71716255383
5.791282456,-3698.7974083362,4954.7393542030795,-20722.198756375492
5.796038029,-3687.0210052539574,5014.437859452438,-20569.889097748877
5.800793654,-3675.2157554727432,5073.81157516116,-20417.790800710212
5.805549279,-3663.3819963059086,5132.860564340585,-20265.906465094748
5.810304904,-3651.520064346035,5191.584892286951,-20114.23867651531
5.815060529,-3639.6302955043298,5249.9846264573935,-19962.79000634185
5.819816154,-3627.713025048812,5308.05983635218,-19811.56301168185
5.824571779,-3615.7685876413207,5365.810593403249,-19660.560235361336
5.829327404,-3603.797317373398,5423.236970869134,-19509.784205906257
5.834083029,-3591.7995478011135,5480.339043736362,-19359.23743752412
5.838838654,-3579.775611978854,5537.116888627389,-19208.922430086044
5.843594279,-3567.72584249212,5593.570583715088,-19058.841669109454
5.848349904,-3555.6505714893437,5649.70020864378,-18908.997625741682
5.853105529,-3543.5501307127442,5705.5058444567685,-18759.392756744917
5.857861154,-3531.4248515282334,5760.987573530336,-18610.02950448298
5.862616779,-3519.2750649543887,5816.1454795140935,-18460.91029691028
5.867372404,-3507.101101690491,5870.979647277604,-18312.03754756314
5.872127977,-3494.9032921436246,5925.4901628632215,-18163.41365555367
5.876883602,-3482.681966454841,5979.6771134450955,-18015.041005566116
5.881639227,-3470.4374545244036,6033.540587294315,-17866.92196785572
5.886394852,-3458.170086036127,6087.080673750158,-17719.058898250234
5.891150477,-3445.880190480835,6140.297463197372,-17571.454138154208
5.895906102,-3433.568097178974,6193.191047049378,-17424.110014556172
5.900661727,-3421.23413530243,6245.761517737336,-17277.028840038754
5.905417352,-3408.8786338955915,6298.008968704996,-17130.21291279163
5.910172977,-3396.5019218956777,6349.933494409202,-16983.664516627214
5.914928602,-3384.1043281523976,6401.53519032603,-16837.38592099896
5.919684227,-3371.6861814469653,6452.814152962532,-16691.379381022263
5.924439852,-3359.24781051049,6503.770479874055,-16545.647137497937
5.929195477,-3346.7895440417306,6554.404269687077,-16400.191416938345
5.933951049,-3334.311710724214,6604.7156221275345,-16255.014431596093
5.938706674,-3321.814639242701,6654.704638054647,-16110.118379495187
5.943462299,-3309.2986582989565,6704.371419500218,-15965.50544446454
5.948217924,-3296.7640966267654,6753.716069713388,-15821.177796173626
5.952973549,-3284.2112830061305,6802.738693210836,-15677.137590170045
5.957729174,-3271.640546276584,6851.439395832353,-15533.386967918763
5.962484799,-3259.0522153495417,6899.818284801746,-15389.928056842977
5.967240424,-3246.44661921963,6947.8754687930395,-15246.76297036645
5.971996049,-3233.8240869748934,6995.611058001964,-15103.893807957293
5.976751674,-3221.1849478058116,7043.025164222692,-14961.322655173164
5.981507299,-3208.529531013029,7090.117900929813,-14819.051583707866
5.986262924,-3195.8581660137224,7136.889383365511,-14677.082651439305
5.991018549,-3183.1711823465257,7183.339728631877,-14535.41790247868
5.995774174,-3170.4689096749576,7229.469055788251,-14394.059367220761
6.000529747,-3157.7516777892943,7275.277485953447,-14253.009062395076
6.005285372,-3145.0198166068476,7320.76514241265,-14112.268991117899
6.010040997,-3132.2736561706133,7365.932150728822,-13971.841142944886
6.014796622,-3119.5135266462858,7410.77863885838,-13831.727493924238
6.019552247,-3106.739758317637,7455.304737270943,-13691.930006650235
6.024307872,-3093.9526815802565,7499.510579072952,-13552.450630316995
6.029063497,-3081.152626933637,7543.396300134914,-13413.291300772305
6.033819122,-3068.3399249715717,7586.962039222049,-13274.453940571422
6.038574747,-3055.514906370826,7630.207938128096,-13135.9404590307
6.043330372,-3042.6779018780535,7673.134141812025,-12997.752752281009
6.048085997,-3029.829242294958,7715.740798537405,-12859.892703320867
6.052841622,-3016.969258461701,7758.0280600142905,-12722.362182069315
6.057597195,-3004.0982812385323,7799.996081543435,-12585.163045418476
6.06235282,-2991.2166414856356,7841.645022162742,-12448.297137285796
6.067108445,-2978.3246700411937,7882.975044795846,-12311.766288665978
6.07186407,-2965.422697697699,7923.986316402735,-12175.572317682645
6.076619695,-2952.511055176517,7964.679008132406,-12039.71702963981
6.08137532,-2939.59007310075,8005.053295477538,-11904.20221707324
6.086130945,-2926.660081966449,8045.109358431081,-11769.029659801754
6.09088657,-2913.7214121122397,8084.847381644763,-11634.201124978637
6.095642195,-2900.7743936874313,8124.267554589467,-11499.718367143227
6.10039782,-2887.8193566186956,8163.370071717481,-11365.583128272694
6.105153445,-2874.8566305753716,8202.155132626607,-11231.797137833848
6.10990907,-2861.88654493345,8240.622942226148,-11098.362112834757
6.114664643,-2848.9094287383027,8278.773710904665,-10965.279757876018
6.119420268,-2835.925610666232,8316.607654699375,-10832.551765201524
6.124175893,-2822.935418984922,8354.124995467064,-10700.179814748633
6.128931518,-2809.9391815129047,8391.325961056422,-10568.165574197546
6.133687143,-2796.937225578149,8428.210785481777,-10436.510699019705
6.138442768,-2783.9298779758683,8464.779709098098,-10305.21683252506
6.143198393,-2770.917464925647,8501.032978777119,-10174.285605908119
6.147954018,-2757.9003120279576,8536.970848084371,-10043.718638292792
6.152709643,-2744.8787442201506,8572.593577456868,-9913.51753677598
6.157465216,-2731.8530857320084,8607.90143438103,-9783.683896469814
6.162220841,-2718.8236600409546,8642.89469357049,-9654.219300542447
6.166976466,-2705.7907898270255,8677.573637143401,-9525.125320257297
6.171732091,-2692.7547969277007,8711.938554798886,-9396.403515010741
6.176487716,-2679.7160022926964,8745.989743992308,-9268.055432368114
6.181243341,-2666.6747259388444,8779.727510109054,-9140.082608097991
6.185998966,-2653.631286905168,8813.152166636452,-9012.486566204672
6.190754591,-2640.586003208266,8846.264035333352,-8885.268818958652
6.195510216,-2627.539191798111,8879.06344639697,-8758.430866924993
6.200265841,-2614.491168514378,8911.550738626633,-8631.974198989481
6.205021466,-2601.442248043398,8943.726259584104,-8505.900292382366
6.209777039,-2588.3927438758337,8975.590365750186,-8380.210612699524
6.214532664,-2575.34296826515,9007.143422677269,-8254.906613920846
6.219288289,-2562.293232186979,9038.385805137561,-8129.989738425719
6.224043914,-2549.243845299464,9069.317897266843,-8005.461417005529
6.228799539,-2536.195115904671,9099.940092703664,-7881.323068873083
6.233555164,-2523.1473509111593,9130.252794723883,-7757.5761016688875
6.238310789,-2510.1008557977707,9160.256416370401,-7634.2219114642685
6.243066414,-2497.0559345787206,9189.951380577839,-7511.261882761306
6.247822039,-2484.012889770002,9219.338120291914,-7388.697388489546
6.252577664,-2470.972022357157,9248.417078583243,-7266.529789999504
6.257333237,-2457.933631764436,9277.188708755379,-7144.760437052999
6.262088862,-2444.898015825338,9305.653474446806,-7023.390667810337
6.266844487,-2431.865470754524,9333.811849726631,-6902.421808814433
6.271600112,-2418.836291121077,9361.664319183732,-6781.855174972054
6.276355737,-2405.810769823113,9389.211378009233,-6661.692069532349
6.281111362,-2392.789198063726,9416.453532072148,-6541.933784062748
6.285866987,-2379.771865328265,9443.391297987979,-6422.581598422326
6.290622612,-2366.7590593629375,9470.0252031801,-6303.636780732717
6.295378237,-2353.7510661547244,9496.355785933789,-6185.100587346669
6.300133862,-2340.748169912561,9522.383595442781,-6066.9742628143895
6.304889435,-2327.750653049773,9548.109191848203,-5949.259039847781
6.30964506,-2314.758796167751,9573.533146269756,-5831.956139282705
6.314400685,-2301.7728780408534,9598.656040828953,-5715.066770039376
6.31915631,-2288.793175602522,9623.478468664278,-5598.592129080995
6.323911935,-2275.8199639326053,9648.001033938113,-5482.533401370675
6.32866756,-2262.8535162458916,9672.224351835326,-5366.891759826697
6.333423185,-2249.894103881837,9696.149048553394,-5251.6683652761685
6.33817881,-2236.941996295481,9719.775761284029,-5136.864366407232
6.342934383,-2223.997461049527,9743.105138186194,-5022.480899719948
6.347690008,-2211.0607638075517,9766.137838350462,-4908.519089475947
6.352445633,-2198.132168328301,9788.87453175463,-4794.980047646983
6.357201258,-2185.2119364610116,9811.315899210596,-4681.864873862521
6.361956883,-2172.3003281417214,9833.462632302395,-4569.1746553565445
6.366712508,-2159.397601390515,9855.315433315418,-4456.9104669137305
6.371468133,-2146.5040123096487,9876.875015156787,-4345.07337081518
6.376223758,-2133.61981508249,9898.142101266978,-4233.664416783858
6.380979383,-2120.745261973226,9919.117425522867,-4122.684641929893
6.385734956,-2107.8806033273327,9939.801732132419,-4012.1350706958688
6.390490581,-2095.0260875727813,9960.19577552123,-3902.0167148022256
6.395246206,-2082.181961221988,9980.300320211256,-3792.3305731928876
6.400001831,-2069.348468874496,10000.116140692027,-3683.0776319811807
6.404757456,-2056.5258532203925,10019.64402128462,-3574.2588643961058
6.409513081,-2043.7143550444398,10038.88475599851,-3465.875230729067
6.414268706,-2030.9142132309196,10057.839148381441,-3357.92767828114
6.419024331,-2018.1256647691498,10076.508011362386,-3250.4171413109734
6.423779904,-2005.3489447596307,10094.892167087726,-3143.344540983425
6.428535529,-1992.5842864207657,10112.992446750768,-3036.7107853190114
6.433291154,-1979.8319210960924,10130.809690414791,-2930.5167691442484
6.438046779,-1967.0920782619585,10148.344746829896,-2824.76337404296
6.442802404,-1954.3649855355766,10165.598473244057,-2719.451468308631
6.447558029,-1941.6508686834138,10182.5717352087,-2614.5819068978844
6.452313654,-1928.949951629889,10199.265406379134,-2510.155531385162
6.457069279,-1916.2624564663417,10215.680368310155,-2406.1731699186416
6.461824904,-1903.5886034602431,10231.817510246978,-2302.6356371774614
6.466580477,-1890.9286110646317,10247.677728911682,-2199.543734330286
6.471336102,-1878.2826959277486,10263.261928285334,-2096.898248995233
6.476091727,-1865.6510729028578,10278.57101938589,-1994.6999552011791
6.480847352,-1853.033955058247,10293.605920042033,-1892.9496133504656
6.485602977,-1840.4315536873946,10308.367554663042,-1791.6479701830242
6.490358602,-1827.8440783192823,10322.8568540049,-1690.7957587419328
6.495114227,-1815.271736728828,10337.074754932759,-1590.3936983404176
6.499869799,-1802.714734947415,10351.022200179845,-1490.4424945303224
6.504625424,-1790.1732772734963,10364.700138102928,-1390.94283907208
6.509381049,-1777.647566283265,10378.10952243453,-1291.8954099062066
6.514136674,-1765.137802841385,10391.251312032027,-1193.3008711263299
6.518892299,-1752.6441861117898,10404.12647062377,-1095.1598729537566
6.523647924,-1740.1669135685472,10416.735966552364,-997.4730517135887
6.528403497,-1727.7061810068035,10429.080772515184,-900.2410298124009
6.533159122,-1715.2621825538065,10441.16186530227,-803.4644157175011
6.537914747,-1702.8351106800078,10452.980225531737,-707.1438039377942
6.542670372,-1690.4251562102277,10464.536837382864,-611.2797750062764
6.547425997,-1678.0325083348723,10475.832688327024,-515.8728954641816
6.552181622,-1665.6573546211753,10486.868768856639,-420.92371784680574
6.556937247,-1653.2998810244271,10497.646072212363,-326.432780671031
6.561692872,-1640.9602718991712,10508.16559410869,-232.40060842457572
6.566448445,-1628.6387100103448,10518.428332458196,-138.82771155698964
6.57120407,-1616.335376544343,10528.435287094671,-45.71458647241278
6.575959695,-1604.0504511199906,10538.1874594954,46.93828447589136
6.58071532,-1591.7841117994099,10547.685852502715,139.13043298921875
6.585470945,-1579.5365350987713,10556.931470045152,230.86140482531803
6.59022657,-1567.3078959989002,10565.925316858624,322.1307597984911
6.594982143,-1555.0983679557085,10574.668398207974,412.9380717779017
6.599737768,-1542.9081229104231,10583.161719609296,503.2829286840966
6.604493393,-1530.7373312995935,10591.406286553323,593.1649324837495
6.609249018,-1518.5861620648636,10599.403104230265,682.5836991826425
6.614004643,-1506.4547826624928,10607.153177256456,771.5388588169076
6.618760268,-1494.3433590725938,10614.657509403189,860.0300554425492
6.623515893,-1482.2520558080553,10621.917103328069,948.0569471232753
6.628271466,-1470.1810359231258,10628.93296030914,1035.6192059166651
6.633027091,-1458.1304610216514,10635.70607998202,1122.716517858695
6.637782716,-1446.10049126498,10642.237460080343,1209.3485829466563
6.642538341,-1434.0912853795494,10648.528096179793,1295.5151151204952
6.647293966,-1422.103000664169,10654.578981446197,1381.2158422426003
6.652049591,-1410.1357929970104,10660.391106388144,1466.4505060760716
6.656805216,-1398.1898168423118,10665.965458614479,1551.2188622615095
6.661560789,-1386.2652252568284,10671.303022596989,1635.5206802923396
6.666316414,-1374.362169896046,10676.404779438542,1719.3557434886984
6.671072039,-1362.48080102018,10681.271706646938,1802.7238489699103
6.675827664,-1350.6212674999833,10685.904777914813,1885.6248076255984
6.680583289,-1338.7837168223716,10690.304962905959,1968.058444085463
6.685338914,-1326.9682950958854,10694.473227048344,2050.0245966877737
6.690094487,-1315.1751470560043,10698.410531334226,2131.523117446629
6.694850112,-1303.4044160703359,10702.117832127755,2212.5538720180307
6.699605737,-1291.6562441437088,10705.596080980444,2293.1167396648257
6.704361362,-1279.930771923185,10708.846224454766,2373.211613220573
6.709116987,-1268.2281387029893,10711.869203956086,2452.8383990523994
6.713872612,-1256.5484824293594,10714.665955573082,2531.997017022898
6.718628185,-1244.8919397053035,10717.237409926838,2610.6874004510855
6.72338381,-1233.2586457952666,10719.584492028775,2688.9094960724556
6.728139435,-1221.648734629703,10721.708121147436,2766.663263998157
6.73289506,-1210.062338809554,10723.609210684112,2843.9486776733456
6.737650685,-1198.4995896106327,10725.288668057385,2920.7657238347583
6.74240631,-1186.960616987922,10726.747394596776,2997.1144024675705
6.747161883,-1175.4455495797997,10727.98628544574,3072.9947267616126
6.751917508,-1163.9545147122221,10729.00622947432,3148.4067230670194
6.756673133,-1152.4876384028837,10729.80810920169,3223.350430849368
6.761428758,-1141.045045365367,10730.392800728945,3297.825902644335
6.766184383,-1129.626859013306,10730.761173682386,3371.8332040118935
6.770939956,-1118.233201464573,10730.91409116746,3445.372413490076
6.775695581,-1106.8641935455007,10730.852409733476,3518.4436225483537
6.780451206,-1095.519954795156,10730.576979349067,3591.0469355406944
6.785206831,-1084.2006034696817,10730.088643388499,3663.1824696583276
6.789962456,-1072.906256546722,10729.388238628964,3734.850354882249
6.794718081,-1061.6370297299575,10728.476595258871,3806.050733935501
6.799473706,-1050.3930374537629,10727.354536897052,3876.7837622352654
6.804229279,-1039.1743928880032,10726.022880622833,3947.049607844814
6.808984904,-1027.981207942977,10724.482437016792,4016.848451425345
6.813740529,-1016.8135932745176,10722.734010211972,4086.180486187755
6.818496154,-1005.671658289245,10720.77839795528,4155.04591784439
6.823251779,-994.5555111499716,10718.616391678717,4223.444964560833
6.828007352,-983.4652587812585,10716.248776580114,4291.377856907802
6.832762977,-972.4010068751228,10713.67633171303,4358.8448378132225
6.837518602,-961.3628598969,10710.899830085431,4425.846162514524
6.842274227,-950.3509210912634,10707.920038766752,4492.382098511174
6.847029852,-939.3652924884041,10704.73771900279,4558.452925517483
6.851785424,-928.4060749103768,10701.353626337961,4624.058935415701
6.856541049,-917.473367977618,10697.768510744409,4689.200432209489
6.861296674,-906.5672701156296,10693.983116757441,4753.877731977861
6.866052299,-895.6878785618345,10689.998183616783,4818.091162829698
6.870807924,-884.8352893726037,10685.814445413092,4881.841064858915
6.875563497,-874.00959743046,10681.432631239235,4945.127790100332
6.880319122,-863.2108964514626,10676.853465345817,5007.951702486282
6.885074747,-852.4392789927729,10672.077667300648,5070.313177803937
6.889830372,-841.6948364603982,10667.105952151689,5132.212603653371
6.894585997,-830.9776591171136,10661.939030593061,5193.650379406314
6.899341622,-820.2878360905561,10656.577609133506,5254.626916165512
6.904097195,-809.6254553814865,10651.02239026686,5315.142636724638
6.90885282,-798.9906038722156,10645.274072644037,5375.197975528655
6.913608445,-788.3833673351787,10639.333351246023,5434.793378634589
6.91836407,-777.8038304416477,10633.200917557424,5493.929303672622
6.923119695,-767.2520767705658,10626.877459740126,5552.606219807377
6.927875268,-756.728188817489,10620.363662806523,5610.824607699368
6.932630893,-746.2322480036261,10613.660208791825,5668.584959466641
6.937386518,-735.7643346849758,10606.76777692503,5725.887778646577
6.942142143,-725.3245281615642,10599.687043798187,5782.733580157861
6.946897768,-714.9129066867813,10592.418683533648,5839.122890262562
6.951653341,-704.5295474768162,10584.963367948882,5895.056246528298
6.956408966,-694.1745267201875,10577.321766718429,5950.534197790427
6.961164591,-683.8479195873632,10569.494547532488,6005.5573041142
6.965920216,-673.5498002404614,10561.48237625164,6060.126136756875
6.970675841,-663.2802418430128,10553.285917057316,6114.241278129816
6.975431414,-653.0393165697767,10544.905832597675,6167.903321760563
6.980187039,-642.8270956165977,10536.342784128698,6221.112872254854
6.984942664,-632.6436492102945,10527.597431650363,6273.870545258507
6.989698289,-622.4890466185684,10518.670434037811,6326.176967419012
6.994453862,-612.3633561599192,10509.562449167383,6378.032776346643
6.999209487,-602.2666452135572,10500.274134037505,6429.438620574905
7.003965112,-592.1989802292995,10490.80614488452,6480.395159520095
7.008720737,-582.1604267374402,10481.159137293613,6530.903063439836
7.013476362,-572.1510493585879,10471.333766304973,6580.963013390411
7.018231935,-562.170911813466,10461.330686515292,6630.575701182794
7.02298756,-552.2200769326686,10451.150552174688,6679.741829337334
7.027743185,-542.2986066663673,10440.794017279162,6728.462111037069
7.03249881,-532.4065620939624,10430.261735658609,6776.737270079674
7.037254435,-522.5440034336759,10419.554361060467,6824.568040828088
7.042010008,-512.7109900520844,10408.672547229105,6871.955168159804
7.046765633,-502.90758047358713,10397.61694798107,6918.899407414858
7.051521258,-493.13383238980595,10386.388217276364,6965.401524342459
7.056276883,-483.3898026689107,10374.987009285944,7011.462295046254
7.061032456,-473.67554736486653,10363.413978455626,7057.082505928179
7.065788081,-463.9911217266003,10351.669779566604,7102.262953630846
7.070543706,-454.3365802070859,10339.755067792727,7147.00444497845
7.075299331,-444.71197647234925,10327.670498754773,7191.307796916175
7.080054904,-435.1173634103945,10315.416728572014,7235.173836448149
7.084810529,-425.55279314005736,10302.994413911414,7278.603400573993
7.089566154,-416.01831701979245,10290.4042120348,7321.597336224029
7.094321779,-406.51398565640017,10277.646780844347,7364.156500193206
7.099077404,-397.0398489136969,10264.722778926729,7406.281759073823
7.103832977,-387.5959559211345,10251.632865596199,7447.97398918712
7.108588602,-378.1823550823756,10238.377700936837,7489.234076513754
7.113344227,-368.79909408383577,10224.957945844162,7530.062916623194
7.118099852,-359.44621990320474,10211.374262066314,7570.461414602027
7.122855477,-350.1237788179602,10197.627312244893,7610.430484981225
7.127611049,-340.83181641388614,10183.717759955573,7649.971051662426
7.132366674,-331.5703775936022,10169.64626974861,7689.084047843247
7.137122299,-322.3395065851113,10155.413507189418,7727.7704159416335
7.141877924,-313.13924695037105,10141.020138899328,7766.031107519173
7.146633497,-303.9696415938936,10126.466832596623,7803.867083203307
7.151389122,-294.83073277137623,10111.754257138085,7841.279312608366
7.156144747,-285.72256209836513,10096.883082561208,7878.268774255349
7.160900372,-276.6451705589525,10081.85398012714,7914.836455490343
7.165655945,-267.59859851450557,10066.667622364374,7950.9833524015285
7.17041157,-258.58288571242605,10051.324683113096,7986.710469734631
7.175167195,-249.59807129493666,10035.825837570152,8022.018820806723
7.17992282,-240.6441938078933,10020.171762334656,8056.9094274182935
7.184678393,-231.7212912096207,10004.363135454349,8091.38331976348
7.189434018,-222.82940087977133,9988.400636472807,8125.441536338331
7.194189643,-213.96855962820825,9972.284946477608,8159.085123847018
7.198945268,-205.13880370391166,9956.016748149434,8192.315137105976
7.203700841,-196.34016880390837,9939.596725812145,8225.132638945997
7.208456466,-187.57269008222192,9923.025565483835,8257.538700112287
7.213212091,-178.83640215884165,9906.303954928831,8289.534399162618
7.217967716,-170.13133912870867,9889.432583710695,8321.120822363631
7.222723289,-161.4575345707173,9872.412143246245,8352.29906358543
7.227478914,-152.81502155673067,9855.243326860626,8383.070224194558
7.232234539,-144.20383266060816,9837.926829843454,8413.435412945375
7.236990164,-135.6239999672407,9820.4633495062,8443.395745869862
7.241745737,-127.07555508159048,9802.853585240859,8472.952346165936
7.246501362,-118.55852913773316,9785.098238579938,8502.106344084299
7.251256987,-110.07295280790055,9767.198013257697,8530.858876813925
7.256012612,-101.61885631152168,9749.153615272558,8559.21108836623
7.260768185,-93.19626942426018,9730.965752950648,8587.164129458124
7.26552381,-84.80522148704506,9712.635137010404,8614.719157394025
7.270279435,-76.4457414150927,9694.162480628198,8641.877335946898
7.27503506,-68.11785770691753,9675.548499504834,8668.63983523847
7.279790633,-59.821598453329926,9656.793911932746,8695.007831618821
7.284546258,-51.55699134641923,9637.899438863798,8720.982507545588
7.289301883,-43.32406368852023,9618.865803977513,8746.565051463007
7.294057508,-35.122842401161044,9599.693733749518,8771.75665768106
7.298813081,-26.95335403399074,9580.383957520044,8796.558526255028
7.303568706,-18.815624773684483,9560.937207562301,8820.971862865643
7.308324331,-10.70968045282407,9541.354219150591,8844.997878700024
7.313079904,-2.6355465587518134,9521.635730627931,8868.63779033351
7.317835529,5.406751757604286,9501.782483473151,8891.892819612402
7.322591154,13.417189672936507,9481.79522236734,8914.764193537625
7.327346779,21.395742682797156,9461.674695259544,8937.253144149372
7.332102352,29.34238659287497,9441.421653431576,8959.360908412677
7.336857977,37.257097510311354,9421.036851561854,8981.088728103918
7.341613602,45.13985183505985,9400.521047788121,9002.437849698244
7.346369227,52.99062625129249,9379.875003768955,9023.409524257846
7.351124799,60.80939771885728,9359.09948474393,9044.00500732101
7.355880424,68.59614346479117,9338.195259592285,9064.225558791984
7.360636049,76.35084097489306,9317.16310088997,9084.072442831752
7.365391622,84.07346798536166,9296.003784965,9103.546927749881
7.370147247,91.76400247450293,9274.718091950948,9122.650285897607
7.374902872,99.42242265451247,9253.306805838505,9141.383793562296
7.379658497,107.0487069633392,9231.770714525072,9159.748730863575
7.38441407,114.64283405663683,9210.110609862355,9177.746381651428
7.389169695,122.20478279980954,9188.327287701888,9195.378033406581
7.39392532,129.734532260158,9166.421547938442,9212.644977143453
7.398680945,137.2320616991329,9144.394194551305,9229.548507315885
7.403436518,144.69735056470353,9122.246035643444,9246.089921725907
7.408192143,152.13037848384818,9099.977883478565,9262.270521435748
7.412947768,159.5311252551745,9077.590554516117,9278.091610683327
7.417703341,166.89957084167952,9055.08486944423,9293.554496801398
7.422458966,174.23569536365966,9032.461653210634,9308.660490140555
7.427214591,181.5394790917797,9009.721735051658,9323.410903996157
7.431970164,188.81090244031083,8986.86594851936,9337.807054539271
7.436725789,196.0499459605461,8963.895131506759,9351.850260751742
7.441481414,203.25659033440144,8940.810126271188,9365.541844365458
7.446237039,210.43081636821123,8917.611779455703,9378.883129805827
7.450992612,217.57260498672724,8894.300942108479,9391.875444139388
7.455748237,224.68193722732983,8870.8784697002,9404.520117025508
7.460503862,231.75879423445804,8847.345222139436,9416.818480672177
7.465259435,238.8031572542663,8823.702063785973,9428.77186979596
7.47001506,245.81500762951464,8799.949863461996,9440.381621586132
7.474770685,252.7943267946993,8776.089494461146,9451.64907567313
7.47952631,259.7410962714295,8752.121834555428,9462.575574101473
7.484281883,266.6552976640573,8728.047766000018,9473.162461307229
7.489037508,273.5369126555659,8703.86817553601,9483.411084100231
7.493793133,280.3859230037243,8679.583954391117,9493.322791651171
7.498548706,287.2023105375151,8655.19599827833,9502.898935483669
7.503304331,293.98605715384303,8630.705207392582,9512.140869471361
7.508059956,300.7371448145307,8606.112486405491,9521.049949840077
7.512815529,307.4555555436067,8581.418744458148,9529.627535175114
7.517571154,314.14127142489116,8556.62489515189,9537.874986433664
7.522326779,320.79427459988307,8531.731856537015,9545.793666962414
7.527082352,327.4145472659508,8506.740551099461,9553.384942520412
7.531837977,334.0020716748259,8481.65190574553,9560.650181307188
7.536593602,340.55683013139895,8456.466851784671,9567.590753996032
7.541349227,347.07880499281345,8431.1863249103,9574.208033772253
7.546104799,353.56797866785416,8405.811265178514,9580.503396376258
7.550860424,360.0243336166244,8380.34261698457,9586.478220151153
7.555616049,366.44785235050733,8354.781329037003,9592.133886094694
7.560371622,372.8385174324091,8329.12835432926,9597.471777915407
7.565127247,379.19631147728245,8303.384650108761,9602.493282092593
7.569882872,385.52121715293055,8277.551177843374,9607.199787939828
7.574638445,391.8132171810873,8251.628903185268,9611.59268767151
7.57939407,398.07229433876654,8225.618795932145,9615.673376472056
7.584149695,404.2984314598724,8199.521829985744,9619.443252567318
7.588905268,410.49161143706465,8173.338983307589,9622.903717297757
7.593660893,416.6518172238774,8147.071237871941,9626.056175192996
7.598416518,422.7790318370864,8120.719579615978,9628.902034047473
7.603172091,428.87323835931613,8094.28499838716,9631.4427049968
7.607927716,434.93441994187674,8067.768487887656,9633.67960259449
7.612683341,440.9625598078209,8041.17104561574,9635.614144888634
7.617438914,446.9576412552094,8014.493672804094,9637.24775349822
7.622194539,452.9196476605754,7987.73737435495,9638.581853688716
7.626950164,458.8485624825767,7960.903158772021,9639.617874446585
7.631705737,464.74436926582393,7933.992038089228,9640.357248552524
7.636461362,470.6070516448735,7907.005027796158,9640.8014126532
7.641216987,476.4365933483762,7879.943146760188,9640.951807331438
7.64597256,482.2329782033773,7852.807417145271,9640.80987717475
7.650728185,487.9961901397623,7825.598864327527,9640.377070842218
7.65548381,493.72621319484875,7798.318516807767,9639.654841129668
7.660239383,499.4230315181236,7770.967406121022,9638.644645032988
7.664995008,505.0866293761278,7743.546566743138,9637.34794380936
7.669750633,510.71699115748714,7716.057035994414,9635.766203036272
7.674506206,516.3141013780844,7688.499853940291,9633.90089266812
7.679261831,521.8779446863705,7660.876063289141,9631.753487090287
7.684017456,527.4085058688103,7633.1867092872335,9629.325465170423
7.688773029,532.9057698554584,7605.432839610994,9626.618310306667
7.693528654,538.3697217256587,7577.615504256628,9623.633510472615
7.698284279,543.8003467138645,7549.735755427195,9620.372558258885
7.703039852,549.1976302155795,7521.794647417165,9616.836950911202
7.707795477,554.5615577934179,7493.793236494479,9613.028190364841
7.712551102,559.892115183287,7465.732580780084,9608.947783275262
7.717306674,565.1892883006893,7437.613740124944,9604.597241044647
7.722062299,570.453063247153,7409.437775984486,9599.978079844086
7.726817924,575.6834263167932,7381.2057512904985,9595.091820631174
7.731573497,580.8803640030133,7352.918730320528,9589.939989162916
7.736329122,586.0438630053517,7324.577778564833,9584.524116003948
7.741084747,591.1739102364837,7296.183962591022,9578.845736529991
7.74584032,596.2704928293856,7267.7383499064235,9572.906390926548
7.750595945,601.3335981446704,7239.242008818211,9566.707624182858
7.755351518,606.3632137781037,7210.696008291284,9560.250986081166
7.760107143,611.359327568308,7182.101417803976,9553.538031181377
7.764862768,616.3219276046644,7153.459307201628,9546.570318801254
7.769618341,621.25100223542,7124.770746548041,9539.349412992304
7.774373966,626.1465400760118,7096.036805974835,9531.876882511408
7.779129591,631.0085300176208,7067.258555528787,9524.154300788196
7.783885164,635.8369612359651,7038.43706501725,9516.18324588812
7.788640789,640.6318232003472,7009.573403851828,9507.965300471209
7.793396414,645.3931056829647,6980.668640890509,9499.502051746464
7.798151987,650.120798768488,6951.7238442784965,9490.795091421825
7.802907612,654.8148928639084,6922.740081287922,9481.846015649657
7.807663185,659.4753787086606,6893.718418156607,9472.656424967668
7.81241881,664.1022473850355,6864.659919926128,9463.227924235345
7.817174435,668.6954903288881,6835.5656502794045,9453.562122566
7.821930008,673.2550993406518,6806.436671377949,9443.66063325463
7.826685633,677.7810665966693,6777.274043698901,9433.525073701767
7.831441258,682.2733846608451,6748.078825871995,9423.157065333491
7.836196831,686.7320464966165,6718.852074516621,9412.558233517912
7.840952456,691.1570454792408,6689.594844079078,9401.730207478247
7.845708081,695.5483754083879,6660.308186670209,9390.674620202632
7.850463654,699.9060305210337,6630.993151903468,9379.393108350732
7.855219279,704.2300055046434,6601.650786733555,9367.887312157243
7.859974852,708.5202955106379,6572.282135295683,9356.158875332254
7.864730477,712.7768961681304,6542.8882387455515,9344.2094449585
7.869486102,716.9998035979222,6513.470135100104,9332.040671385541
7.874241674,721.1890144267503,6484.028859079149,9319.654208120946
7.878997299,725.3445258017736,6454.565441947977,9307.051711718466
7.883752924,729.4663354052849,6425.080911361145,9294.234841663165
7.888508497,733.5544414696359,6395.576291207583,9281.20526025358
7.893264122,737.608842792358,6366.052601457261,9267.964632480958
7.898019695,741.6295387514681,6336.510858009624,9254.514625905565
7.90277532,745.6165293209536,6306.952072544045,9240.85691053015
7.907530893,749.5698150864346,6277.377252372465,9226.993158670632
7.912286518,753.4893972610015,6247.78740029437,9212.925044824118
7.917042143,757.3752777012278,6218.183514454293,9198.654245534342
7.921797716,761.2274589233541,6188.566588201984,9184.182439254713
7.926553341,765.0459441196434,6158.937609955403,9169.511306209113
7.931308966,768.8307371749022,6129.2975630666815,9154.642528250452
7.936064539,772.5818426831639,6099.647425691217,9139.57778871694
7.940820164,776.2992659645333,6069.9881706600845,9124.318772286135
7.945575737,779.9830130821849,6040.320765355992,9108.867164826865
7.950331362,783.6330908595102,6010.646171592965,9093.224653249197
7.955086987,787.2495068973973,5980.965345499989,9077.392925352495
7.95984256,790.8322695916256,5951.279237408847,9061.37366967169
7.964598185,794.3813881503615,5921.588791746433,9045.168575321926
7.969353758,797.8968726117464,5891.8949469317695,9028.779331841755
7.974109383,801.3787338615624,5862.198635277934,9012.207629035109
7.978864956,804.8269836509656,5832.500782899074,8995.455156812162
7.983620581,808.2416346142712,5802.802309622695,8978.52360502919
7.988376206,811.6227002867764,5773.104128907414,8961.41466332758
7.993131779,814.9701951226077,5743.407147766305,8944.13002097213
7.997887404,818.2841345125782,5713.712266695952,8926.671366688724
8.002643029,821.5645348020422,5684.020379611268,8909.040388501435
8.007398602,824.8114133087238,5654.3323737861065,8891.23877356906
8.012154227,828.0247883404955,5624.649129799663,8873.26820802115
8.016909799,831.2046792130807,5594.971521488646,8855.130376793522
8.021665424,834.3511062676546,5565.300415905193,8836.826963463302
8.026420997,837.4640908883185,5535.636673280446,8818.359650083503
8.031176622,840.5436555194118,5505.9811469936685,8799.73011701727
8.035932247,843.5898236826274,5476.3346835467455,8780.940042771956
8.04068782,846.6026199939023,5446.698122543908,8761.99110383316
8.045443445,849.5820701800586,5417.072296676537,8742.884974498842
8.050199018,852.5282010951743,5387.458031712905,8723.623326713636
8.054954643,855.4410407366594,5357.856146492708,8704.20782990336
8.059710216,858.3206182610152,5328.267452926239,8684.640150809797
8.064465841,861.1669639992485,5298.69275599804,8664.921953325767
8.069221466,863.9801094719077,5269.132853774834,8645.054898330536
8.073977039,866.7600874037104,5239.5885374174895,8625.040643525594
8.078732664,869.506931737742,5210.060591196837,8604.880843270888
8.083488237,872.2206776491995,5180.549792513155,8584.57714842157
8.088243862,874.9013615586537,5151.056911919213,8564.131206165339
8.092999435,877.5490211448018,5121.582713146721,8543.544659860503
8.09775506,880.1636953566873,5092.1279531360615,8522.81914887486
8.102510685,882.7454244253544,5062.693382069139,8501.956308425559
8.107266258,885.2942498749096,5033.2797434051745,8480.957769419982
8.112021883,887.8102145329664,5003.887773919247,8459.82515829764
8.116777456,890.2933625404523,4974.5182037433715,8438.56009687308
8.121533081,892.7437393607564,4945.171756409846,8417.164202179683
8.126288654,895.1613917881959,4915.849148896623,8395.63908631429
8.131044279,897.5463679557872,4886.551091674446,8373.986356282525
8.135799904,899.8987173423002,4857.278288755562,8352.207613844826
8.140555477,902.2184907785761,4828.031437743833,8330.304455363177
8.145311102,904.5057404530971,4798.811229886082,8308.27847164858
8.150066674,906.7605199167958,4769.618350124525,8286.131247809339
8.154822299,908.982884087096,4740.4534771501685,8263.864363100281
8.159577872,911.1728892511775,4711.317283457118,8241.479390773122
8.164333497,913.3305930684562,4682.210435397683,8218.977897928144
8.16908907,915.4560545722677,4653.133593238204,8196.361445367414
8.173844695,917.5493341707454,4624.087411215504,8173.6315874497395
8.178600268,919.6104936468938,4595.072537593882,8150.789871947496
8.183355893,921.6395961578559,4566.089614722583,8127.837839905581
8.188111518,923.6367062333758,4537.139279093678,8104.7770255027535
8.192867091,925.6018897734577,4508.22216140026,8081.608955915653
8.197622716,927.5352140452159,4479.3388865948355,8058.335151185734
8.202378289,929.4367476789029,4450.490073947783,8034.957124089324
8.207133914,931.3065606631111,4421.676337105807,8011.476380010941
8.211889487,933.1447243391424,4392.898284150322,7987.894416820055
8.216645112,934.9513113945457,4364.156517655684,7964.21272475149
8.221400685,936.7263958558202,4335.451634747279,7940.432786289636
8.22615631,938.4700530802875,4306.784227159457,7916.556076056563
8.230911935,940.182359747142,4278.15488129331,7892.584060704148
8.235667508,941.8633938476972,4249.564178274228,7868.518198810245
8.240423133,943.5132346748454,4221.012694009218,7844.359940778798
8.245178706,945.1319628117479,4192.500999243938,7820.110728743939
8.249934331,946.7196601197729,4164.029659619439,7795.771996478089
8.254689904,948.2764097256919,4135.5992357286095,7771.345169304078
8.259445529,949.8022960081452,4107.210283172304,7746.831664011382
8.264201102,951.2974045833878,4078.863352615102,7722.2328887765125
8.268956727,952.7618222903358,4050.5589898406156,7697.5502430875695
8.273712299,954.1956371749393,4022.2977358062426,7672.785117672942
8.278467924,955.5989384739182,3994.080126697256,7647.938894434128
8.283223497,956.9718165978907,3965.906693980179,7623.012946382682
8.287979122,958.3143631139247,3937.777964455453,7598.008637581239
8.292734695,959.6266707275402,3909.694460309421,7572.927323088631
8.29749032,960.9088332641866,3881.65669916563,7547.770348909093
8.302245945,962.1609456502273,3853.6651941353966,7522.5390519456205
8.307001518,963.3831038934554,3825.7204538676256,7497.234759957532
8.311757091,964.5754050631617,3797.822982597864,7471.858791522236
8.316512716,965.7379472697776,3769.9732801966056,7446.412456001178
8.321268289,966.8708296441237,3742.1718422168747,7420.897053509956
8.326023914,967.9741523162959,3714.4191599411156,7395.313874892609
8.330779539,969.0480163942284,3686.7157204273944,7369.664201700122
8.335535112,970.0925239419786,3659.0620065549383,7343.949306173177
8.340290737,971.1077779577832,3631.458497069025,7318.1704512291535
8.34504631,972.0938823519413,3603.9056666252404,7292.3288904533765
8.349801935,973.0509419245832,3576.40398583316,7266.425868094624
8.354557508,973.9790623433901,3548.953921299476,7240.462619064897
8.359313133,974.8783501213182,3521.5559356705953,7214.440368943462
8.364068706,975.7489125943848,3494.210487674731,7188.360333985144
8.368824331,976.59085789957,3466.918032163546,7162.223721132806
8.373579904,977.4042949528879,3439.679020153403,7136.03172803399
8.378335529,978.1893334276778,3412.4938988663016,7109.785543061685
8.383091102,978.9460837331698,3385.363111770534,7083.486345339117
8.387846727,979.674656993369,3358.287098621155,7057.1353047685225
8.392602299,980.3751650262926,3331.2662955003193,7030.733582063846
8.397357924,981.0477203236022,3304.30113485754,7004.282328787307
8.402113497,981.6924360306806,3277.3920455499174,6977.782687389751
8.406869122,982.3094259272013,3250.5394528823554,6951.235791254788
8.411624695,982.89880440823,3223.743778647774,6924.6427647466835
8.41638032,983.4606864658867,3197.0054411672577,6898.004723261954
8.421135893,983.9951876715903,3170.3248553301087,6871.322773284542
8.425891518,984.5024241588939,3143.7024326337732,6844.598012444465
8.430647091,984.9825126069246,3117.1385812236335,6817.831529579751
8.435402716,985.4355702244428,3090.6337059326274,6791.02440480144
8.440158289,985.8617147345309,3064.188208320642,6764.1777095613825
8.444913914,986.2610643599205,3037.802486713622,6737.292506722561
8.449669487,986.6337378089587,3011.476936242358,6710.369850631689
8.454425112,986.9798542622141,2985.211948880918,6683.410787193828
8.459180685,987.2995333597245,2959.007913484674,6656.416353948784
8.46393631,987.592895188885,2932.8652158278715,6629.387580149037
8.468691883,987.8600602729666,2906.784238640669,6602.325486839033
8.473447508,988.1011495602472,2880.7653616455923,6575.231086935734
8.478203081,988.3162844137399,2854.808961593316,6548.105385310309
8.482958706,988.5055866015111,2828.915412297713,6520.949378870894
8.487714279,988.6691782875839,2803.0850846701355,6493.764056646412
8.492469904,988.8071820234182,2777.3183467529157,6466.5503998715185
8.497225477,988.9197207399585,2751.6155637520937,6439.309382072672
8.501981049,989.0069177402319,2725.9770980693893,6412.041969155394
8.506736674,989.0688966924846,2700.4033093334388,6384.749119492708
8.511492247,989.1057816238401,2674.894554430327,6357.431784014757
8.516247872,989.1176969144598,2649.4511875334438,6330.0909062995715
8.521003445,989.1047672921851,2624.0735601326924,6302.7274226648615
8.52575907,989.067117827638,2598.7620210630525,6275.342262260716
8.530514643,989.0048739297575,2573.516916532497,6247.936347163117
8.535270268,988.91816134177,2548.3385901492593,6220.510592468134
8.540025841,988.8071061375731,2523.2273829484593,6193.065906386654
8.544781466,988.6718347185189,2498.1836334180866,6165.603190339504
8.549537039,988.5124738105649,2473.2076775243595,6138.1233390528005
8.554292664,988.3291504617717,2448.299848736432,6110.627240653328
8.559048237,988.1219920401304,2423.4604780504146,6083.11577676375
8.563803862,987.8911262317084,2398.689894012671,6055.589822597466
8.568559435,987.6366810390992,2373.9884227423613,6028.050247052908
8.57331506,987.358784780161,2349.356387953203,6000.497912807069
8.578070633,987.0575660870178,2324.7941109744497,5972.933676408118
8.582826206,986.7331539052906,2300.3019107710534,5945.358388366969
8.587581831,986.3856774935163,2275.8801039629952,5917.772893247685
8.592337404,986.0152664227028,2251.5290048437773,5890.178029756638
8.597093029,985.6220505759723,2227.2489253980734,5862.57463083033
8.601848602,985.2061601482461,2203.0401753185242,5834.963523721748
8.606604227,984.7677256459303,2178.903062021648,5807.345530085177
8.611359799,984.3068778865558,2154.837890662853,5779.721466059334
8.616115424,983.8237479983362,2130.84496415054,5752.092142348709
8.620870997,983.3184674196124,2106.9245831592757,5724.458364303026
8.625626622,982.791167898159,2083.0770461420143,5696.820931994756
8.630382195,982.2419814903274,2059.3026493413577,5669.180640294661
8.635137768,981.671040559992,2035.6016867998605,5641.538278945391
8.639893393,981.0784777772587,2011.9744503693832,5613.894632633163
8.644648966,980.4644261169022,1988.4212297195097,5586.250481057559
8.649404591,979.8290188565037,1964.942312345046,5558.606598999419
8.654160164,979.1723895742593,1941.5379835726246,5530.9637563869055
8.658915789,978.4946721464277,1918.2085265664375,5503.322718359808
8.663671362,977.796000744382,1894.9542223331316,5475.684245332074
8.668426987,977.0765098312388,1871.7753497258766,5448.0490930525975
8.67318256,976.3363341580371,1848.6721854476305,5420.418012664276
8.677938133,975.5756087594467,1825.6450040536322,5392.791750761373
8.682693758,974.7944689489891,1802.6940779531342,5365.171049445187
8.687449331,973.9930503137598,1779.8196774103974,5337.556646378044
8.692204956,973.1714887086393,1757.0220705449728,5309.949274835638
8.696960529,972.3299202499818,1734.3015233313085,5282.3496637577155
8.701716154,971.4684813087698,1711.6582995977067,5254.758537797103
8.706471727,970.5873085032193,1689.0926610246684,5227.176617367122
8.711227299,969.6865386908206,1666.6048671426533,5199.604618687473
8.715982924,968.7663089598001,1644.1951753292833,5172.04325382863
8.720738497,967.8267566199908,1621.863840806034,5144.493230754871
8.725494122,966.8680191931069,1599.6111166344433,5116.95525336603
8.730249695,965.8902344024232,1577.4372537118622,5089.43002153816
8.73500532,964.8935401618618,1555.342500766772,5061.918231163222
8.739760893,963.8780745644941,1533.3271043537006,5034.420574187944
8.744516466,962.843975870466,1511.3913088477716,5006.937738651907
8.749272091,961.7913824943554,1489.5353564389093,4979.470408724937
8.754027664,960.7204329919739,1467.7594871257145,4952.01926474386
8.758783289,959.6312660466169,1446.063938709017,4924.584983248676
8.763538862,958.5240204547728,1424.448946785109,4897.168237018177
8.768294487,957.398835111299,1402.9147447386597,4869.769695105021
8.77305006,956.2558489940839,1381.4615637353245,4842.390022870284
8.777805633,955.0952011482095,1360.0896327140556,4815.029882017483
8.782561258,953.9170306696429,1338.799178379135,4787.689930626027
8.787316831,952.7214766884823,1317.5904251919376,4760.37082318401
8.792072456,951.5086783517828,1296.463595362432,4733.073210620284
8.796828029,950.2787748059809,1275.4189088404084,4705.797740335667
8.801583654,949.0319051789348,1254.4565833064369,4678.5450562331625
8.806339227,947.7682085616076,1233.5768341625599,4651.315798747036
8.811094799,946.4878239894125,1212.7798745227178,4624.110604870633
8.815850424,945.1908904232478,1192.065915202906,4596.930108182819
8.820605997,943.8775467302502,1171.4351647110657,4569.77493887296
8.825361622,942.547931664305,1150.8878292367128,4542.645723764359
8.830117195,941.2021838463454,1130.4241126402997,4515.543086336052
8.834872768,939.8404417444659,1110.0442164423146,4488.467646742884
8.839628393,938.4628436538726,1089.748339812116,4461.420021833827
8.844383966,937.0695276766992,1069.536679556498,4434.400825168478
8.849139591,935.6606317017204,1049.4094301079863,4407.410667031731
8.853895164,934.2362933839925,1029.3667835128574,4380.450154446591
8.858650737,932.7966501244499,1009.4089294188708,4353.519891185121
8.863406362,931.3418390494834,989.5360550626849,4326.620477777489
8.868161935,929.8719969905171,969.7483452569328,4299.75251151912
8.87291756,928.3872604635999,950.0459823769401,4272.916586475931
8.877673133,926.8877656490171,930.4291463470812,4246.113293487679
8.882428706,925.373648370941,910.8980146267728,4219.343220169476
8.887184331,923.845044077142,891.4527621961007,4192.60695091149
8.891939904,922.3020878187781,872.0935615410807,4165.905066876884
8.896695529,920.744914230283,852.8205826385565,4139.238145998093
8.901451102,919.1736575093671,833.6339929407353,4112.606762971501
8.906206674,917.5884513971417,814.5339573593666,4086.0114892506863
8.910962299,915.9894291583814,795.5206382495601,4059.4528930383944
8.915717872,914.3767235619357,776.5941953932431,4032.931539277347
8.920473445,912.7504668613064,757.7547859822504,4006.447989640072
8.92522907,911.1107907754064,739.0025646010462,3980.0028025179
8.929984643,909.4578264695078,720.3376832090795,3953.596533009255
8.934740268,907.7917045363897,701.760291122774,3927.2297329073626
8.939495841,906.1125549776879,683.2705349971579,3900.9029506874485
8.944251414,904.420507185459,664.8685588071464,3874.61673149355
8.949007039,902.7156899239595,646.5545038284821,3848.3716171250817
8.953762612,900.9982313116462,628.3285086183439,3822.168146023272
8.958518237,899.2682588034079,610.190708995629,3796.00685325758
8.96327381,897.5258991730416,592.1412380209149,3769.888270512177
8.968029383,895.7712784959862,574.1802259761108,3743.8129260725714
8.972785008,894.0045221323304,556.3078003438193,3717.7813448124416
8.977540581,892.2257547101068,538.524085786421,3691.794048180733
8.982296154,890.4351001088776,520.8292041248991,3665.8515541890856
8.987051779,888.6326814436154,503.2232743174176,3639.95437739962
8.991807352,886.818621048883,485.70641243767017,3614.1030289131077
8.996562924,884.9930404633159,468.27873165301406,3588.298016357525
9.001318549,883.1560604144177,450.94034220240655,3562.5398438770158
9.006074122,881.3078008036853,433.69135137415867,3536.8290121212453
9.010829747,879.4483806920925,416.5318634835216,3511.1660182351043
9.01558532,877.57791828595,399.4619798501204,3485.5513558487373
9.020340893,875.6965309231547,382.4817987752501,3459.985515067866
9.025096518,873.8043350598491,365.59141551904816,3434.4689824643738
9.029852091,871.9014462575127,348.7909222775607,3409.0022410671177
9.034607664,869.9879791705108,332.0804081597181,3383.5857703529114
9.039363289,868.0640475341236,315.4599591642289,3358.2200462376486
9.044118862,866.1297641530798,298.9296581564042,3332.9055410675273
9.048874435,864.1852408906233,282.4895848449243,3307.642723610286
9.05363006,862.2305886581331,266.13981575856076,3282.4320590463767
9.058385633,860.2659174053224,249.8804242228714,3257.2740089600375
9.063141206,858.2913361110387,233.71148033688576,3232.1690313302415
9.067896831,856.3069527746883,217.63305094979754,3207.117580521513
9.072652404,854.3128744082929,201.6451996376827,3182.1201072745644
9.077408029,852.3092070291817,185.74798668026153,3157.1770586966936
9.082163602,850.2960556533272,169.9414690377213,3132.2888782519003
9.086919174,848.2735242893432,154.22570032761897,3107.4560057506883
9.091674799,846.2417159331508,138.60073080188258,3082.67887733954
9.096430372,844.2007325633244,123.06660732393173,3057.957925490018
9.101185945,842.1506751371247,107.62337334593985,3033.293578987423
9.105941518,840.0916435872228,92.2710688862632,3008.6862629189413
9.110697143,838.023736819118,77.00973050706232,2984.1363986612205
9.115452716,835.9470527092546,61.839391292141016,2959.644403867321
9.120208341,833.8616881038503,46.76008082502787,2935.210692453007
9.124963914,831.7677388184492,31.771825167325165,2910.8356745823485
9.129719487,829.6652996382146,16.874646837350323,2886.5197566526267
9.134475112,827.5544643189626,2.068564789094554,2862.263341278545
9.139230685,825.4353255889423,-12.646405608476329,2838.0668272757744
9.143986258,823.3079751513678,-27.27025259175425,2813.9306096438413
9.148741883,821.1725036877039,-41.802968022429745,2789.8550795483734
9.153497456,819.0290008616989,-56.24454740701672,2765.840624302725
9.158253029,816.8775553241564,-70.5949899159363,2741.8876273490173
9.163008654,814.718254718427,-84.85429840213547,2717.996468238639
9.167764227,812.5511856866075,-99.02247941921624,2694.167522612237
9.172519799,810.3764338764335,-113.09954323905163,2670.401162179256
9.177275424,808.1940839488514,-127.08550386886536,2646.6977546970907
9.182030997,806.0042195862496,-140.98037906775156,2623.0576639499245
9.18678657,803.8069235013261,-154.78419036261218,2599.4812497273106
9.191542195,801.6022774465732,-168.49696306349063,2575.968867802544
9.196297768,799.3903622243689,-182.11872627828052,2552.520869910896
9.201053341,797.171257697654,-195.64951292678836,2529.137603727769
9.205808966,794.9450428011828,-209.08935975413036,2505.8194128468417
9.210564539,792.7117955533271,-222.4383073434438,2482.56663675826
9.215320112,790.4715930684209,-235.69640012789336,2459.3796108269503
9.220075685,788.2245115696368,-248.86368640195272,2436.258666271122
9.22483131,785.9706264023822,-261.9402183319422,2413.204130141035
9.229586883,783.7100120482063,-274.9260519658053,2390.2163252981118
9.234342456,781.4427421391999,-287.8212472421069,2367.295570394451
9.239098081,779.1688894728734,-300.6258679982388,2344.44217985279
9.243853654,776.8885260274977,-313.3399819778157,2321.656463846948
9.248609227,774.6017229779004,-325.96366083724536,2298.938728282746
9.253364852,772.3085507117088,-338.4969801514589,2276.289274779423
9.258120424,770.0090788460368,-350.94001941878764,2253.7084006515643
9.262875997,767.7033762446082,-363.29286206497545,2231.1963988915786
9.267631622,765.3915110353029,-375.55559544631456,2208.7535581527623
9.272387195,763.0735506281101,-387.7283108518892,2186.3801627329835
9.277142768,760.7495617334705,-399.81110350490843,2164.076492559018
9.281898393,758.419610380984,-411.804072563108,2141.8428231715616
9.286653966,756.0837619384579,-423.7073211182027,2119.6794257109505
9.291409539,753.7420811312686,-435.52095619436716,2097.5865669036157
9.296165164,751.394632062006,-447.2450887457227,2075.5645090493003
9.300920737,749.0414782303735,-458.8798336528075,2053.613510009072
9.30567631,746.6826825533126,-470.4253097180083,2031.7338231941317
9.310431883,744.3183073853255,-481.88163965992857,2009.9256975554256
9.315187508,741.9484145389617,-493.24895010667245,1988.1893775740352
9.319943081,739.5730653054368,-504.52737158802387,1966.5251032523356
9.324698654,737.1923204753517,-515.7170385265006,1944.933110105908
9.329454279,734.8062403594759,-526.8180892272668,1923.4136291561801
9.334209852,732.4148848095573,-537.830665866887,1901.9668869237562
9.338965424,730.0183132391295,-548.7549144809055,1880.5931054224063
9.343721049,727.6165846442742,-559.5909849502402,1859.292502153694
9.348476622,725.2097576243063,-570.3390309863788,1838.0652901022336
9.353232195,722.7978904023508,-580.9992101153679,1816.9116777315794
9.357987768,720.3810408457828,-591.5716836605874,1795.8318689807393
9.362743393,717.9592664864958,-602.056616724313,1774.8260632613012
9.367498966,715.5326245409751,-612.4541781680714,1753.8944554551697
9.372254539,713.1011719301587,-622.7645405917935,1733.0372359128958
9.377010164,710.6649652990724,-632.9878803117703,1712.2545904525632
9.381765737,708.2240610362285,-643.124377337412,1691.5467003592073
9.38652131,705.7785152927758,-653.1742153468139,1670.913742384754
9.391276883,703.3283840013885,-663.137581661124,1650.3558887484573
9.396032508,700.8737228948796,-673.0146672177186,1629.8733071378224
9.400788081,698.4145875245243,-682.8056665421857,1609.4661607099868
9.405543654,695.9510332780768,-692.5107777191226,1589.1346080935361
9.410299279,693.4831153974611,-702.1302023617559,1568.878803390733
9.415054852,691.010888996117,-711.6641455803904,1548.6988961801433
9.419810424,688.5344090759838,-721.1128159496988,1528.5950315196396
9.424566049,686.053730544108,-730.4764254748633,1508.5673499497639
9.429321622,683.5689082288652,-739.7551895565801,1488.6159874974435
9.434077195,681.079996895781,-748.9493269549288,1468.7410756800557
9.438832768,678.587051262934,-758.0590597521173,1448.94274150984
9.443588393,676.0901260159277,-767.0846133141176,1429.2211074986649
9.448343966,673.5892758224203,-776.0262162512038,1409.576291663158
9.453099539,671.0845553461972,-784.8841003774096,1390.0084075302145
9.457855164,668.5760192607714,-793.6585006689306,1370.5175641428912
9.462610737,666.0637222624936,-802.3496552214989,1351.1038660666918
9.46736631,663.5477190831594,-810.9578052067586,1331.7674133962396
9.472121883,661.028064502097,-819.4831948276689,1312.5083017623272
9.476877508,658.5048133577246,-827.9260712729597,1293.3266223393496
9.481633081,655.9780205585666,-836.2866846706644,1274.2224618531093
9.486388654,653.447741093712,-844.5652880407484,1255.195902588986
9.491144227,650.9140300427057,-852.762137246858,1236.2470224004612
9.495899852,648.3769425848619,-860.877490947216,1217.375894717976
9.500655424,645.8365340079926,-868.9116105446908,1198.5825885580996
9.505410997,643.2928597165474,-876.8647601360573,1179.8671685329978
9.510166622,640.7459752391688,-884.7372064604709,1161.2296948601986
9.514922195,638.1959362356673,-892.5292188471744,1142.6702233726578
9.519677768,635.6427985034163,-900.241069162464,1124.1888055291397
9.524433341,633.0866179831703,-907.8730317559458,1105.7854884249246
9.529188966,630.5274507643032,-915.425383406109,1087.4603148028655
9.533944539,627.9653530894735,-922.8984032652327,1069.2133230648067
9.538700112,625.4003813587167,-930.292372803649,1051.0445472833824
9.543455685,622.8325921329653,-937.6075757533841,1032.9540172142158
9.54821131,620.2620421369899,-944.8442980512069,1014.9417583085408
9.552966883,617.6887882617624,-952.0028277811147,997.0077917262685
9.557722456,615.1128875662516,-959.0834551162916,979.1521343495259
9.562478081,612.5343972786619,-966.0864722605796,961.3747987966927
9.567233654,609.9533747971283,-973.0121733895099,943.6757934369593
9.571989227,607.3698776898823,-979.8608545909461,926.0551224054224
9.576744799,604.7839636949017,-986.6328138053855,908.5127856187232
9.581500424,602.195690719052,-993.3283507659692,891.0487787912302
9.586255997,599.6051168367312,-999.9477669382529,873.6630934517752
9.59101157,597.0123002880309,-1006.4913654597794,856.3557169609602
9.595767143,594.4172994764245,-1012.9594510794924,839.1266325290485
9.600522768,591.8201729659927,-1019.3523300970356,821.9758192344559
9.605278341,589.2209794781946,-1025.6703103019781,804.9032520428544
9.610033914,586.6197778882001,-1031.9137009130186,787.9089018268922
9.614789539,584.0166272207974,-1038.082812517221,770.9927353865331
9.619545112,581.4115866458927,-1044.1779570093279,754.154715470021
9.624300685,578.8047154736236,-1050.1994475311988,737.3948007954742
9.629056258,576.1960731491113,-1056.1475984114225,720.7129460731115
9.633811883,573.5857192468796,-1062.0227251051422,704.109102028111
9.638567456,570.9737134649679,-1067.8251441341363,687.5832154241042
9.643323029,568.3601156187623,-1073.5551730272014,671.1352290873048
9.648078602,565.7449856345704,-1079.2131302608916,654.7650819312763
9.652834227,563.128383542958,-1084.7993352006733,638.4727089823442
9.657589799,560.5103694718638,-1090.3141080425507,622.2580414056466
9.662345372,557.8910036395059,-1095.7577697552208,606.1210065318228
9.667100945,555.2703463470875,-1101.1306420228157,590.0615278843346
9.67185657,552.6484579713152,-1106.4330471882913,574.0795252074215
9.676612143,550.0253989567383,-1111.6653081975164,558.1749144946867
9.681367716,547.401229807915,-1116.8277485441122,542.347608018316
9.686123341,544.7760110814116,-1121.920692215083,526.5975143589277
9.690878914,542.1498033776361,-1126.944463637278,510.92453843605097
9.695634487,539.5226673325054,-1131.8993876247237,495.32858153922837
9.70039006,536.8946636089509,-1136.7857893268597,479.8095413597417
9.705145633,534.2658528882688,-1141.603994177716,464.3673120229616
9.709901258,531.6362958613291,-1146.3543278460702,449.0017841213234
9.714656831,529.0060532196545,-1151.0371161866267,433.7128447479257
9.719412404,526.3751856463924,-1155.6526851922597,418.50037753074776
9.724167977,523.7437538072014,-1160.201360947357,403.3642626674798
9.728923602,521.1118183410738,-1164.6834695823013,388.30437696096146
9.733679174,518.4794398511132,-1169.0993372291273,373.3205938552213
9.738434747,515.8466788952906,-1173.4492899784034,358.41278347211136
9.74319032,513.2135959771938,-1177.7336538373886,343.58081264852547
9.747945945,510.5802515367865,-1181.9527546895072,328.8245449741901
9.752701518,507.9467059411952,-1186.1069182551853,314.14384083001147
9.757457091,505.31301947554556,-1190.1964700540943,299.53855742696305
9.762212664,502.67925233387103,-1194.2217353688354,285.0085488454975
9.766968289,500.04546461011455,-1198.1830392100812,270.5536660754661
9.771723862,497.41171628924263,-1202.080706283186,256.17375705652603
9.776479435,494.77806723849034,-1205.9150609562748,241.86866671901464
9.781235008,492.1445771987558,-1209.6864272298237,227.63823702527083
9.785990633,489.5113057761601,-1213.3951287077389,213.4823070113855
9.790746206,486.87831243378605,-1217.041488569944,199.40071282936313
9.795501779,484.2456564836164,-1220.6258295464743,185.39328778967604
9.800257352,481.613397078685,-1224.1484738930628,171.459862404193
9.805012977,478.9815932054582,-1227.6097433682025,157.60026442946324
9.809768549,476.350303676456,-1231.0099592116592,143.81431891033498
9.814524122,473.71958712312124,-1234.3494421244034,130.10184822388632
9.819279695,471.08950198893865,-1237.6285122499417,116.46267212364842
9.82403532,468.46010652280705,-1240.8474891570143,102.89660778410011
9.828790893,465.8314587726652,-1244.0066918236196,89.40346984541556
9.833546466,463.20361657937036,-1247.1064386223163,75.98307045844555
9.838302039,460.5766375708274,-1250.1470473067604,62.63521932991322
9.843057612,457.9505791563634,-1253.1288349994265,49.35972376780487
9.847813237,455.32549852134036,-1256.0521181804477,36.15638872693706
9.85256881,452.7014526220024,-1258.9172126774977,23.025016854680672
9.857324383,450.07849818054956,-1261.7244336566423,9.965408536823361
9.862079956,447.4566916804292,-1264.4740956140993,-3.022638056448371
9.866835581,444.8360893618401,-1267.1665123688579,-15.939326924466007
9.871591154,442.2167472174453,-1269.8019970561152,-28.784864189913126
9.876346727,439.5987209882947,-1272.3808621214873,-41.55945805259499
9.881102299,436.98206615996224,-1274.9034193159546,-54.263318743161626
9.885857924,434.3668379588988,-1277.3699796915055,-66.89665847680209
9.890613497,431.75309134900493,-1279.7808535974382,-79.45969140692772
9.89536907,429.14088102842567,-1282.1363506772811,-91.95263357886209
9.900124643,426.5302614265677,-1284.4367798663047,-104.3757028835555
9.904880216,423.92128670133724,-1286.6824493895822,-116.72911901134063
9.909635841,421.31401073659964,-1288.8736667605506,-129.0131034057458
9.914391414,418.7084871398568,-1291.0107387800256,-141.2278792173821
9.919146987,416.1047692401364,-1293.0939715356205,-153.3736712579191
9.92390256,413.5029100860876,-1295.123670401523,-165.4507059541639
9.928658185,410.9029624442774,-1297.1001400385908,-177.45921130225793
9.933413758,408.3049787976831,-1299.0236843947312,-189.39941682200472
9.938169331,405.7090113443723,-1300.894606705533,-201.27155351134087
9.942924904,403.11511199636647,-1302.7132094951148,-213.07585380096072
9.947680477,400.5233323786803,-1304.4797945771431,-224.81255150910482
9.952436102,397.93372382853147,-1306.1946630559846,-236.48188179652047
9.957191674,395.3463373947097,-1307.8581153279529,-248.0840811216027
9.961947247,392.76122383709657,-1309.4704510826134,-259.61938719572436
9.96670282,390.178433626324,-1311.0319693041042,-271.08803893876194
9.971458393,387.59801694356025,-1312.5429682724337,-282.49027643482583
9.976214018,385.0200236804141,-1314.003745564724,-293.8263408881997
9.980969591,382.44450343894863,-1315.4145980563771,-305.09647457949313
9.985725164,379.87150553179464,-1316.7758219221375,-316.3009208220112
9.990480737,377.30107898235326,-1318.0877126370453,-327.43992391834036
9.995236362,374.73327252507494,-1319.3505649772626,-338.51372911714753
9.999991935,372.16813460580255,-1320.5646730207618,-349.52258257019105
10.00474751,369.6057133821691,-1321.7303301478578,-360.4667312895399
10.00950308,367.0460567240412,-1322.8478290415712,-371.3464231049988
10.01425865,364.48921221400076,-1323.9174616878288,-382.1619066217339
10.01901428,361.93522714785536,-1324.9395193755065,-392.91343117809936
10.02376985,359.3841485351674,-1325.9142926963377,-403.60124680366465
10.02852542,356.83602309979426,-1326.8420715447085,-414.22560417744216
10.033281,354.2908972804308,-1327.7231451173652,-424.7867545863133
10.03803657,351.74881723114817,-1328.557801913049,-435.2849498836528
10.04279214,349.2098288219255,-1329.346329732065,-445.72044244815004
10.04754777,346.67397763917387,-1330.0890156758003,-456.09348514282067
10.05230334,344.1413089862531,-1330.7861461462035,-466.40433127420454
10.05705891,341.6118678839789,-1331.4380068452383,-476.6532345517447
10.06181449,339.0856990711205,-1332.0448827743023,-486.84044904734617
10.06657006,336.56284700488976,-1332.6070582336026,-496.9662291551181
10.07132569,334.0433558614243,-1333.1248168214884,-507.03082955130367
10.07608126,331.5272695362639,-1333.5984414337377,-517.034505154403
10.08083683,329.01463164482306,-1334.0282142628043,-526.9775110854946
10.0855924,326.50548552286307,-1334.4144167970476,-536.8601026287575
10.09034798,323.9998742269662,-1334.7573298199516,-546.6825351922002
10.0951036,321.4978405350138,-1335.0572334093476,-556.4450642686068
10.09985917,318.99942694666635,-1335.3144069366585,-566.1479453967125
10.10461475,316.5046756838429,-1335.5291290661805,-575.7914341226158
10.10937032,314.013628691197,-1335.7016777544247,-585.3757859614284
10.11412589,311.52632763658727,-1335.8323302495262,-594.9012563591705
10.11888147,309.0428139115353,-1335.9213630907282,-604.3681006549141
10.12363709,306.56312863166846,-1335.9690521079506,-613.7765740431856
10.12839266,304.087312637141,-1335.9756724214524,-623.1269315366325
10.13314824,301.61540649303174,-1335.9414984415887,-632.4194279289549
10.13790381,299.14745048971713,-1335.8668038686571,-641.6543177581037
10.14265938,296.6834846432186,-1335.7518616928292,-650.8318552697434
10.14741501,294.2235486955251,-1335.5969441941415,-659.9522943809809
10.15217058,291.76768211489355,-1335.4023229425202,-669.0158886443664
10.15692615,289.3159240961316,-1335.1682687978132,-678.022891212175
10.16168173,286.86831356086407,-1334.8950519098219,-686.9735548009779
10.1664373,284.42488915778483,-1334.5829417183195,-695.8681316565143
10.17119287,281.9856892628954,-1334.2322069530446,-704.7068735188747
10.1759485,279.5507519797291,-1333.843115633651,-713.49003158801
10.18070407,277.1201151395615,-1333.4159350695898,-722.2178564895808
10.18545964,274.6938163016083,-1332.9509318599153,-730.8905982411584
10.19021522,272.27189275321274,-1332.4483718930203,-739.5085062187858
10.19497079,269.85438151002364,-1331.9085203463028,-748.0718291239137
10.19972641,267.44131931616624,-1331.3316416857606,-756.5808149507299
10.20448199,265.03274264440756,-1330.7179996655136,-765.035710953898
10.20923756,262.62868769632144,-1330.0678573272385,-773.4367636167304
10.21399313,260.2291904024563,-1329.381476999497,-781.7842186198139
10.21874871,257.83428642250936,-1328.659120296943,-790.0783208101171
10.22350428,255.44401114551275,-1327.9010481193932,-798.3193141706039
10.2282599,253.05839969003654,-1327.1075206507462,-806.5074417903825
10.23301548,250.67748690441445,-1326.2787973577495,-814.6429458354137
10.23777105,248.3013073669955,-1325.4151369886115,-822.7260675197969
10.24252662,245.92989538642678,-1324.5167975714505,-830.7570470776454
10.2472822,243.56328500196958,-1323.5840364125604,-838.7361237355634
10.25203777,241.2015099838501,-1322.617110094488,-846.6635356857321
10.25679334,238.844603833647,-1321.6162744739163,-854.5395200596138
10.26154897,236.49259978471636,-1320.5817846793523,-862.3643129022818
10.26630454,234.145530802653,-1319.5138951086133,-870.1381491473836
10.27106011,231.8034295857904,-1318.4128594261197,-877.8612625927394
10.27581569,229.4663285657391,-1317.2789305600036,-885.5338858765767
10.28057126,227.134259907963,-1316.112360699043,-893.1562504543995
10.28532683,224.807255512393,-1314.9134012894262,-900.7285865764875
10.29008246,222.4853470140768,-1313.6823030313471,-908.2511232660306
10.29483803,220.16856578386333,-1312.4193158754285,-915.7240882979023
10.2995936,217.85694292911862,-1311.124689018982,-923.1477081780847
10.30434917,215.55050929447046,-1309.7986709021036,-930.5222081237649
10.30910475,213.24929546257852,-1308.4415092035977,-937.8478120441249
10.31386032,210.9533317549285,-1307.0534508367207,-945.1247425218457
10.31861595,208.66264823265004,-1305.6347419447322,-952.3532207953436
10.32337152,206.377274697358,-1304.1856278962566,-959.5334667417557
10.32812709,204.0972406920194,-1302.7063532804475,-966.6656988606895
10.33288266,201.82257550184906,-1301.1971619019407,-973.7501342587431
10.33763824,199.5533081552373,-1299.6582967755883,-980.7869886348013
10.34239381,197.28946742471226,-1298.090000120983,-987.7764762661153
10.34714938,195.03108182793912,-1296.4925133567842,-994.7188099951726
10.35190496,192.77817962875744,-1294.8660770948582,-1001.6142012173684
10.35666058,190.53078883825847,-1293.2109311342585,-1008.4628598694784
10.36141615,188.28893721590254,-1291.5273144550881,-1015.2649944189361
10.36617173,186.05265227067798,-1289.81546521228,-1022.0208118539191
10.3709273,183.82196126230127,-1288.0756207293437,-1028.7305176742523
10.37568287,181.5968912024565,-1286.308017492118,-1035.3943158831296
10.38043845,179.37746885607208,-1284.5128911425677,-1042.0124089796595
10.38519407,177.1637207426322,-1282.6904764726526,-1048.5849979522466
10.38994964,174.95567313752,-1280.8410074183055,-1055.1122822728312
10.39470522,172.75335207338986,-1278.9647170535359,-1061.594459892008
10.39946079,170.55678334156661,-1277.0618375846832,-1068.0317272350317
10.40421636,168.36599249346878,-1275.1326003448498,-1074.42427919871
10.40897194,166.1810048420535,-1273.17723578853,-1080.7723091491764
10.41372751,164.00184546328097,-1271.1959734864454,-1087.0760089205291
10.41848308,161.82853919759629,-1269.189042120587,-1093.3355688143358
10.42323871,159.66111065142658,-1267.1566694794578,-1099.5511775999978
10.42799428,157.4995841986908,-1265.099082453506,-1105.7230225159717
10.43274985,155.34398398231986,-1263.0165070307196,-1111.8512892718404
10.43750542,153.19433391578502,-1260.909168292352,-1117.9361620512152
10.442261,151.05065768463194,-1258.7772904087476,-1123.9778235154586
10.44701657,148.91297874801813,-1256.6210966352442,-1129.9764548082135
10.45177214,146.78132034025273,-1254.4408093081374,-1135.932235560721
10.45652777,144.6557054723378,-1252.2366498407107,-1141.845343897913
10.46128334,142.53615693351045,-1250.0088387193491,-1147.7159564452593
10.46603891,140.42269729278544,-1247.757595499759,-1153.544248336355
10.47079449,138.31534890049713,-1245.4831388033135,-1159.330393221231
10.47555006,136.21413388984033,-1243.185686313557,-1165.0745632753901
10.48030563,134.11907417840848,-1240.8654547728884,-1170.7769292095788
10.48506121,132.03019146972773,-1238.5226599794332,-1176.4376602803006
10.48981678,129.9475072547859,-1236.1575167841106,-1182.0569243010732
10.4945724,127.87104281355431,-1233.7702390879092,-1187.6348876544353
10.49932798,125.80081921650029,-1231.361039839378,-1193.1717153047036
10.50408355,123.73685732608824,-1228.9301310323228,-1198.6675708114833
10.50883912,121.67917779826695,-1226.477723703695,-1204.1226163439226
10.5135947,119.62780108394107,-1224.0040279316602,-1209.537012695697
10.51835027,117.5827474304259,-1221.5092528338525,-1214.9109193006968
10.52310584,115.54403688288507,-1218.9936065658276,-1220.2444942493994
10.52786147,113.51168928575068,-1216.4572963197302,-1225.5378943059147
10.53261704,111.48572428412533,-1213.9005283231872,-1230.7912749256795
10.53737261,109.46616132516601,-1211.3235078384357,-1236.0047902737665
10.54212819,107.45301965945062,-1208.726439161696,-1241.1785932437601
10.54688376,105.44631834232855,-1206.109525622794,-1246.3128354771288
10.55163933,103.4460762352569,-1203.4729695850256,-1251.4076673830325
10.5563949,101.45231200712163,-1200.816972445258,-1256.4632381584981
10.56115048,99.46504413554364,-1198.1417346342685,-1261.4796958088943
10.56590605,97.48429090816875,-1195.447455617313,-1266.45718716865
10.57066167,95.5100704239406,-1192.734333894913,-1271.3958579221637
10.57541725,93.54240059435432,-1190.0025670038399,-1276.2958526248524
10.58017282,91.58129914469002,-1187.252351518287,-1281.1573147242868
10.58492839,89.62678361522619,-1184.4838830512178,-1285.9803865813512
10.58968397,87.67887136243192,-1181.6973562558721,-1290.765209491385
10.59443954,85.73757956013812,-1178.892964827422,-1295.5119237052609
10.59919511,83.80292520068734,-1176.0709015047585,-1300.2206684503542
10.60395069,81.87492509606209,-1173.2313580723926,-1304.891581951364
10.60870631,79.95359587899142,-1170.3745253624547,-1309.5248014509664
10.61346183,78.03895400403653,-1167.500593256773,-1314.120463230283
10.61821746,76.13101574865553,-1164.6097506890073,-1318.6787026291515
10.62297303,74.22979721424805,-1161.7021856468161,-1323.1996540661876
10.6277286,72.33531432717885,-1158.7780851740345,-1327.6834510586234
10.63248417,70.44758283978017,-1155.8376353728383,-1332.130226241915
10.63723975,68.56661833133253,-1152.8810214058751,-1336.5401113891076
10.64199532,66.69243620902337,-1149.908427498336,-1340.9132374299472
10.64675089,64.82505170888288,-1146.9200369399557,-1345.2497344697304
10.65150647,62.964479896696695,-1143.9160320869191,-1349.549731807882
10.65626209,61.11073566889419,-1140.8965943636704,-1353.8133579562475
10.66101766,59.26383375341183,-1137.86190426461,-1358.0407406570919
10.66577324,57.423788710530495,-1134.8121413556703,-1362.2320069008085
10.67052881,55.5906149336855,-1131.7474842757692,-1366.3872829433533
10.67528438,53.76432665024805,-1128.6681107381507,-1370.5066943234099
10.68003996,51.944937922277084,-1125.574197531612,-1374.5903658792847
10.68479553,50.13246264724034,-1122.4659205216203,-1378.638421765516
10.6895511,48.32691455870335,-1119.3434546512983,-1382.6509854691792
10.69430667,46.52830722698549,-1116.2069739422586,-1386.628179825869
10.69906225,44.73665405978221,-1113.056651495277,-1390.5701270353259
10.70381787,42.95196830275294,-1109.8926594907955,-1394.4769486766825
10.70857344,41.174263040073946,-1106.7151691892475,-1398.3487657232881
10.71332902,39.40355119495564,-1103.5243509311983,-1402.1856985570766
10.71808459,37.63984553012328,-1100.3203741373047,-1405.9878669824543
10.72284016,35.88315864826004,-1097.103407308104,-1409.7553902396958
10.72759574,34.133502992411074,-1093.8736180236333,-1413.4883870178319
10.73235131,32.39089084634788,-1090.631172942884,-1417.186975467017
10.73710688,30.65533433489209,-1087.3762378030935,-1420.8512732103618
10.74186251,28.92684542419798,-1084.1089774188933,-1424.4813973552043
10.74661808,27.205435921993406,-1080.829555681313,-1428.0774645037861
10.75137365,25.49111747777893,-1077.5381355566556,-1431.6395907633048
10.75612923,23.783901582984875,-1074.23487908526,-1435.1678917553245
10.7608848,22.083799571086143,-1070.9199473801668,-1438.6624826245356
10.76564037,20.39082261767502,-1067.5935006257162,-1442.1234780468458
10.77039594,18.704981740492265,-1064.255698076107,-1445.5509922367748
10.77515152,17.026287799417027,-1060.9066980539524,-1448.9451389541325
10.77990709,15.354751496416371,-1057.5466579488605,-1452.3060315099642
10.78466266,13.690383375455337,-1054.175734216066,-1455.633782771757
10.78941824,12.033193822368586,-1050.7940823751414,-1458.928505167901
10.79417386,10.383193064694886,-1047.401857008801,-1462.1903106913794
10.79892944,8.740391171475661,-1043.9992117618121,-1465.4193109026794
10.80368501,7.104798053019095,-1040.5862993400265,-1468.6156169319104
10.80844058,5.476423460631297,-1037.1632715095518,-1471.779339480125
10.81319615,3.855276986316067,-1033.7302790960857,-1474.910588819839
10.81795173,2.241368062444835,-1030.2874719844258,-1478.0094747947626
10.8227073,0.6347059613984203,-1026.8349991181717,-1481.0761068187455
10.82746287,-0.9647002048177727,-1023.3730084996387,-1484.1105938739383
10.83221844,-2.5568414849834293,-1019.9016471899962,-1487.1130445081665
10.83697402,-4.141709089096212,-1016.4210613096478,-1490.0835668315335
10.84172959,-5.719294388826218,-1012.931396038872,-1493.0222685122758
10.84648522,-7.289588917990421,-1009.432795618748,-1495.9292567718865
10.85124079,-8.852584373045563,-1005.9254033523878,-1498.8046383795336
10.85599636,-10.408272613598013,-1002.4093616064888,-1501.6485196457963
10.86075194,-11.956645662929212,-998.8848118132179,-1504.4610064157291
10.86550751,-13.497695708535439,-995.351894472435,-1507.2422040612637
10.87026308,-15.031415102680805,-991.810749154266,-1509.9922174729595
10.87501865,-16.557796362962574,-988.2615145020312,-1512.7111510511186
10.87977423,-18.076832172888007,-984.7043282355376,-1515.3991086962794
10.8845298,-19.588515382462,-981.1393271547324,-1518.0561937991156
10.88928537,-21.092839008784736,-977.5666471437114,-1520.68250922977
10.89404094,-22.589796236658945,-973.9864231750669,-1523.2781573266561
10.89879652,-24.079380419206487,-970.398789314569,-1525.8432398847597
10.90355214,-25.561585078494147,-966.8038787261698,-1528.3778581434735
10.90830772,-27.03640390616864,-963.2018236773275,-1530.8821127740118
10.91306329,-28.503830764101313,-959.5927555446472,-1533.3561038664477
10.91781886,-29.963859685043186,-955.9768048198337,-1535.7999309164245
10.92257444,-31.4164848732913,-952.3541011159447,-1538.2136928115744
10.92733001,-32.861700705367426,-948.7247731739369,-1540.5974878176798
10.93208558,-34.299501730710304,-945.088948869496,-1542.9514135646004
10.93684115,-35.72988267238271,-941.4467552201344,-1545.2755670319839
10.94159673,-37.152838427795096,-937.7983183925395,-1547.5700445347732
10.9463523,-38.56836406944772,-934.1437637101484,-1549.8349417085299
10.95110787,-39.97645484569303,-930.4832156609295,-1552.070353494606
10.95586344,-41.37710618152042,-926.8167979053534,-1554.2763741251924
10.96061907,-42.770313679364705,-923.1446332845345,-1556.45309710827
10.96537459,-44.156073119939855,-919.4668438285222,-1558.6006152124967
10.97013022,-45.53438046309992,-915.7835507647176,-1560.7190204520734
10.97488579,-46.90523184872877,-912.0948745263981,-1562.8084040716362
10.97964136,-48.26862359765997,-908.4009347613317,-1564.8688565312104
10.98439694,-49.62455221262812,-904.701850340465,-1566.9004674912594
10.98915251,-50.97301437925275,-900.9977393666734,-1568.903325797867
10.99390808,-52.31400696705642,-897.2887191835549,-1570.8775194681102
10.99866365,-53.64752703051815,-893.5749063842601,-1572.8231356756792
11.00341923,-54.97357181016335,-889.8564168203496,-1574.7402607367983
11.0081748,-56.292138733690926,-886.1333656106679,-1576.6289800965205
11.01293037,-57.60322541713828,-882.4058671502189,-1578.4893783154546
11.01768594,-58.90682966608527,-878.6740351190391,-1580.321539056988
11.02244152,-60.20294947689772,-874.9379824910516,-1582.1255450750598
11.02719709,-61.491583038010496,-871.1978215428953,-1583.901478202536
11.03195266,-62.772728731249956,-867.4536638627252,-1585.649419340233
11.03670829,-64.04638513319519,-863.7056203589738,-1587.3694484466228
11.04146386,-65.31255101657695,-859.9538012690609,-1589.0616445282474
11.04621944,-66.57122535171291,-856.1983161680362,-1590.7260856308428
11.05097501,-67.82240730797776,-852.4392739771424,-1592.3628488311747
11.05573058,-69.06609625530623,-848.6767829722934,-1593.9720102295748
11.06048615,-70.3022917657269,-844.9109507924552,-1595.55364494317
11.06524173,-71.53099361492367,-841.141884447929,-1597.1078270997834
11.0699973,-72.75220178382234,-837.3696903285401,-1598.6346298324956
11.07475287,-73.96591646019884,-833.594474211742,-1600.1341252748498
11.07950844,-75.17213804030546,-829.8163412706434,-1601.6063845567026
11.08426402,-76.37086713051183,-826.0353960819641,-1603.0514778007155
11.08901959,-77.56210454895779,-822.2517426339248,-1604.469474119489
11.09377516,-78.74585132721438,-818.4654843340796,-1605.860441613331
11.09853074,-79.9221087119501,-814.6767240170955,-1607.2244473686587
11.10328631,-81.09087816660005,-810.8855639524812,-1608.5615574570172
11.10804188,-82.25216137303457,-807.0921058522636,-1609.8718369347082
11.11279751,-83.40596023322321,-803.2964508785985,-1611.155349843024
11.11755308,-84.55227687088912,-799.4986996513043,-1612.412159209091
11.12230865,-85.6911136331491,-795.6989522552997,-1613.6423270473074
11.12706423,-86.82247309213506,-791.8973082479301,-1614.8459143613593
11.1318198,-87.94635804659241,-788.0938666661693,-1616.0229811468105
11.13657537,-89.06277152345162,-784.2887260336762,-1617.1735863942695
11.14133094,-90.17171677936892,-780.4819843676972,-1618.2977880931385
11.14608652,-91.27319730223356,-776.6737391858004,-1619.3956432359498
11.15084209,-92.36721681263884,-772.8640875124247,-1620.4672078233011
11.15559766,-93.45377926531492,-769.0531258852341,-1621.5125368693825
11.16035324,-94.53288885052021,-765.2409503612644,-1622.531684408086
11.16510881,-95.60454999538904,-761.4276565228573,-1623.5247034996812
11.16986438,-96.66876736523265,-757.6133394833763,-1624.4916462380497
11.17461996,-97.72554586479127,-753.7980938926996,-1625.432563758458
11.17937553,-98.77489063943499,-749.9820139424926,-1626.3475062458501
11.1841311,-99.81680707631101,-746.1651933712599,-1627.236522943635
11.18888667,-100.8513008054346,-742.3477254691772,-1628.0996621629504
11.19364225,-101.8783777007209,-738.5297030827063,-1628.936971292392
11.19839782,-102.89804388095477,-734.7112186189952,-1629.748496808189
11.20315339,-103.91030571069649,-730.8923640500726,-1630.5342842848136
11.20790897,-104.91516980111973,-727.0732309168478,-1631.2943784059948
11.21266459,-105.91264301077794,-723.2539103329266,-1632.0288229761031
11.21742016,-106.90273244629525,-719.4344929882474,-1632.7376609318828
11.22217574,-107.88544546297834,-715.6150691525414,-1633.4209343545156
11.22693131,-108.8607896653458,-711.7957286786174,-1634.0786844820043
11.23168688,-109.82877290757241,-707.9765610054711,-1634.7109517218546
11.23644246,-110.78940329384642,-704.1576551612188,-1635.3177756640275
11.24119803,-111.74268917863823,-700.3390997658493,-1635.8991950941443
11.2459536,-112.68863916687876,-696.5209830337936,-1636.4552480068994
11.25070917,-113.62726211404653,-692.7033927763079,-1636.9859716196547
11.25546475,-114.5585671261631,-688.886416403668,-1637.4914023861838
11.26022032,-115.48256355969716,-685.0701409271803,-1637.9715760105498
11.26497589,-116.39926102137832,-681.2546529610003,-1638.426527461103
11.26973147,-117.30866936792047,-677.4400387237564,-1638.8562909845757
11.27448704,-118.21079870565462,-673.6263840399702,-1639.2609001202563
11.27924261,-119.10565939007196,-669.8137743412672,-1639.640387714221
11.28399819,-119.99326202527861,-666.0022946673756,-1639.9947859335982
11.28875376,-120.87361746336433,-662.1920296669083,-1640.3241262808417
11.29350933,-121.74673680368728,-658.3830635979225,-1640.6284396080107
11.2982649,-122.61263139207635,-654.5754803282546,-1640.907756131057
11.30302048,-123.47131281995215,-650.7693633356254,-1641.1621054441307
11.30777605,-124.32279292336915,-646.9647957075128,-1641.3915165339083
11.31253162,-125.16708378198084,-643.161860140793,-1641.5960177939576
11.3172872,-126.00419771792897,-639.3606389411503,-1641.7756370391442
11.32204277,-126.83414729465878,-635.5612140222587,-1641.9304015201033
11.32679834,-127.65694531566166,-631.7636669047348,-1642.0603379377947
11.33155391,-128.47260482314735,-627.9680787148667,-1642.1654724581556
11.33630949,-129.28113909664737,-624.174530183112,-1642.2458307268737
11.34106506,-130.08256165155234,-620.3831016423609,-1642.3014378843018
11.34582063,-130.87688623758714,-616.5938730259572,-1642.3323185805314
11.35057621,-131.66412683722697,-612.8069238654703,-1642.3384969906551
11.35533178,-132.44429766405608,-609.0223332882238,-1642.31999683025
11.36008735,-133.2174131610694,-605.2401800145979,-1642.2768413711224
11.36484292,-133.98348799891636,-601.4605423551119,-1642.2090534573488
11.3695985,-134.74253707408457,-597.6834982073007,-1642.116655521631
11.37435407,-135.494575507022,-593.9091250524001,-1641.9996696019823
11.37910964,-136.23961864019822,-590.1374999518642,-1641.8581173587556
11.38386522,-136.97768203610462,-586.368699543735,-1641.6920200920058
11.38862079,-137.70878147519406,-582.602800038889,-1641.5013987591865
11.39337636,-138.43293295375975,-578.8398772171795,-1641.2862739931782
11.39813199,-139.15015268175557,-575.0800064234941,-1641.046666120658
11.40288756,-139.86045708055894,-571.3232625637472,-1640.782595180814
11.40764313,-140.56386278067754,-567.5697201008287,-1640.4940809444035
11.41239871,-141.2603866193993,-563.8194530505259,-1640.1811429331665
11.41715428,-141.95004563838563,-560.0725349774342,-1639.843800439601
11.42190985,-142.63285708120802,-556.3290389908714,-1639.4820725471156
11.42666542,-143.30883839082784,-552.5890377408112,-1639.0959781505758
11.431421,-143.97800720702026,-548.8526034138528,-1638.6855359772542
11.43617657,-144.6403813637439,-545.1198077292394,-1638.2507646081851
11.44093214,-145.29597888645986,-541.3907219349451,-1637.791682499914
11.44568772,-145.94481798940316,-537.6654168038431,-1637.3083080066187
11.45044324,-146.58691707281153,-533.9439626299694,-1636.800659402574
11.45519886,-147.22229472011722,-530.2264292248967,-1636.2687549049517
11.45995444,-147.85096969510647,-526.5128859142338,-1635.7126126969588
11.46470996,-148.47296093905084,-522.8034015342633,-1635.1322509513109
11.46946558,-149.08828756781492,-519.0980444287319,-1634.527687854031
11.47422115,-149.69696886894468,-515.3968824458032,-1633.8989416285551
11.47897673,-150.29902429874105,-511.6999829351852,-1633.2460305601326
11.4837323,-150.89447347932398,-508.00741274543844,-1632.5689730205067
11.48848787,-151.48333619569146,-504.3192382214671,-1631.8677874928585
11.49324339,-152.0656323927781,-500.635525202201,-1631.1424925970032
11.49799902,-152.64138217251917,-496.95633901847344,-1630.3931071148252
11.50275459,-153.21060579092648,-493.28174449110105,-1629.6196500159226
11.50751011,-153.77332365518097,-489.611805929169,-1628.8221404834303
11.51226574,-154.32955632074882,-485.9465871285242,-1628.000597939986
11.51702131,-154.8793244885268,-482.2861513704796,-1627.1550420737851
11.52177688,-155.4226490020232,-478.6305614207303,-1626.2854928646748
11.5265324,-155.95955084457884,-474.97987952847745,-1625.3919706102388
11.53128798,-156.4900511366315,-471.33416742575525,-1624.4744959518325
11.53604355,-157.01417113302506,-467.693486326955,-1623.5330899005407
11.54079917,-157.53193222036407,-464.0578969285435,-1622.5677738630256
11.5455547,-158.04335591441435,-460.427459408974,-1621.5785696672344
11.55031027,-158.54846385755053,-456.8022334287851,-1620.5654995879402
11.55506584,-159.04727781625363,-453.18227813088623,-1619.5285863720965
11.55982141,-159.5398196786606,-449.56765214102614,-1618.4678532639907
11.56457699,-160.02611145216704,-445.95841356844085,-1617.3833240301908
11.56933256,-160.5061752610841,-442.3546200066809,-1616.2750229842843
11.57408813,-160.98003334435066,-438.75632853461696,-1615.1429750114069
11.57884371,-161.44770805330225,-435.1635957176232,-1613.9872055925457
11.58359928,-161.90922184949704,-431.57647760893497,-1612.807740828604
11.58835485,-162.36459730259753,-427.9950297511782,-1611.6046074642154
11.59311042,-162.81385708830646,-424.4193071780666,-1610.3778329112974
11.597866,-163.25702398635534,-420.84936441626274,-1609.1274452723235
11.60262157,-163.6941208785441,-417.2852554873973,-1607.8534733632998
11.60737714,-164.12517074682967,-413.72703391023765,-1606.5559467364233
11.61213272,-164.5501966714606,-410.1747527029994,-1605.2348957023871
11.61688829,-164.96922182915486,-406.62846438579567,-1603.8903513523192
11.62164386,-165.38226949131538,-403.08822098321826,-1602.5223455793407
11.62639944,-165.78936302228075,-399.55407402704634,-1601.1309110997627
11.63115501,-166.1905258776091,-396.02607455907815,-1599.716081473932
11.63591058,-166.58578160239267,-392.50427313408284,-1598.2778911267292
11.64066615,-166.97515382959887,-388.98871982286965,-1596.8163753677104
11.64542173,-167.35866627843473,-385.4794642154717,-1595.3315704108686
11.6501773,-167.73634275273216,-381.9765554244433,-1593.8235133939938
11.65493287,-168.1082071393518,-378.4800420882669,-1592.2922423976217
11.65968844,-168.47428340660156,-374.9899723748652,-1590.7377964635552
11.66444402,-168.8345956026639,-371.5063939852157,-1589.1602156129334
11.66919959,-169.18916785402794,-368.02935415706315,-1587.559540863813
11.67395516,-169.538024363922,-364.55889966872866,-1585.9358142482276
11.67871074,-169.88118941074242,-361.095076843013,-1584.2890788286888
11.68346631,-170.2186873464748,-357.63793155118765,-1582.6193787140928
11.68822188,-170.55054259510467,-354.1875092170653,-1580.926759075001
11.69297746,-170.87677965101355,-350.743854821142,-1579.2112661582826
11.69773303,-171.19742307735558,-347.3070129048063,-1577.4729473011214
11.70248855,-171.51249750441062,-343.877027574614,-1575.7118509443837
11.70724412,-171.82202762790988,-340.4539425066239,-1573.9280266453393
11.7119997,-172.12603820732872,-337.03780095079253,-1572.121525089737
11.71675527,-172.42455406414354,-333.6286457354228,-1570.2923981032327
11.72151084,-172.71760008004938,-330.22651927166373,-1568.4406986621764
11.72626641,-173.00520119513533,-326.831463558054,-1566.566480903747
11.73102199,-173.2873824060152,-323.44352018510324,-1564.6698001354273
11.73577756,-173.56416876391077,-320.0627303399058,-1562.750712843781
11.74053313,-173.83558537268416,-316.68913481078107,-1560.8092767025087
11.74528871,-174.101657386818,-313.3227739919341,-1558.8455505797406
11.75004428,-174.36241000934092,-309.96368788812975,-1556.8595945445425
11.75479985,-174.61786848969862,-306.6119161193737,-1554.8514698726192
11.75955542,-174.86805812156976,-303.2674979255971,-1552.8212390511937
11.764311,-175.11300424062762,-299.9304721713418,-1550.7689657830338
11.76906657,-175.3527322222487,-296.6008773504431,-1548.6947149895939
11.77382214,-175.58726747916984,-293.27875159070976,-1546.5985528132505
11.77857772,-175.81663545909623,-289.9641326585984,-1544.4805466186174
11.78333329,-176.04086164226237,-286.6570579638775,-1542.3407649929345
11.78808886,-176.2599715389458,-283.35756456427623,-1540.1792777455269
11.79284438,-176.4739906869329,-280.06568917011276,-1537.9961559063295
11.79759996,-176.68294464893586,-276.78146814889834,-1535.791471723479
11.80235553,-176.88685900996109,-273.5049375299124,-1533.5652986599675
11.8071111,-177.08575937463056,-270.2361330087447,-1531.317711389361
11.81186667,-177.27967136445704,-266.9750899517994,-1529.048785790586
11.81662225,-177.46862061507514,-263.72184340075705,-1526.7585989417978
11.82137782,-177.65263277342822,-260.4764280769864,-1524.4472291133393
11.82613339,-177.83173349491258,-257.2388783858989,-1522.114755759792
11.83088897,-178.00594844048123,-254.0092284212384,-1519.7612595111498
11.83564454,-178.17530327370997,-250.78751196930088,-1517.3868221631374
11.84040011,-178.3398236578278,-247.57376251307892,-1514.9915266666917
11.84515568,-178.49953525271226,-244.36801323632872,-1512.5754571166342
11.84991126,-178.6544637118494,-241.1702970275602,-1510.138698739551
11.85466683,-178.80463467925807,-237.9806464839494,-1507.681337880901
11.85942235,-178.95007378638022,-234.79909391517583,-1505.2034619913902
11.86417798,-179.090806648938,-231.6256713471874,-1502.705159612656
11.8689335,-179.22685886376118,-228.46041052589558,-1500.1865203623065
11.87368907,-179.35825600558783,-225.3033429208021,-1497.6476349183788
11.87844464,-179.48502362384227,-222.15449972856027,-1495.0885950032862
11.88320022,-179.60718723939482,-219.0139118764736,-1492.5094933673277
11.88795579,-179.7247723413082,-215.8816100259314,-1489.9104237718293
11.89271136,-179.8378043835735,-212.75762457578278,-1487.291480971987
11.89746694,-179.94630878183884,-209.64198566565085,-1484.652760699473
11.90222251,-180.05031091013288,-206.53472317919116,-1481.9943596448675
11.90697808,-180.14983609758494,-203.43586674729823,-1479.3163754399627
11.91173365,-180.24490962514443,-200.34544575126486,-1476.6189066399893
11.91648923,-180.33555672230366,-197.26348932589843,-1473.9020527058233
11.9212448,-180.42180256382812,-194.19002636259722,-1471.1659139862318
11.92600037,-180.50367226649936,-191.12508551238994,-1468.4105917002119
11.93075589,-180.58119088587475,-188.06869518894229,-1465.6361879194717
11.93551147,-180.65438341306844,-185.0208835715363,-1462.842805551094
11.94026704,-180.72327477155937,-181.98167860802806,-1460.030548320414
11.94502261,-180.7878898140319,-178.9511080177882,-1457.1995207541538
11.94977819,-180.8482533192566,-175.92919929463096,-1454.3498281638394
11.95453376,-180.90438998901715,-172.91597970973868,-1451.4815766295212
11.95928933,-180.9563244450879,-169.9114763145872,-1448.5948729838099
11.9640449,-181.00408122626627,-166.91571594387977,-1445.6898247962472
11.96880048,-181.04768478546364,-163.92872521849495,-1442.7665403580322
11.97355605,-181.08715948685773,-160.9505305484525,-1439.8251286671298
11.97831157,-181.12252960310943,-157.98115813590115,-1436.865699413787
11.98306714,-181.1538193126462,-155.0206339781299,-1433.8883629664756
11.98782272,-181.1810526970157,-152.0689838706038,-1430.8932303582753
11.99257829,-181.2042537383149,-149.12623341002603,-1427.8804132736968
11.99733386,-181.22344631669878,-146.19240799742744,-1424.850024035943
12.00208944,-181.2386542079725,-143.26753284128546,-1421.802175594605
12.00684501,-181.2499010812693,-140.35163296067287,-1418.736981513789
12.01160058,-181.25721049681601,-137.44473318843652,-1415.6545559606484
12.01635615,-181.26060590378805,-134.54685817440463,-1412.5550136942966
12.02111173,-181.26011063825686,-131.65803238862196,-1409.4384700550931
12.02586725,-181.25574792123516,-128.77828012461222,-1406.3050409542723
12.03062282,-181.24754085682235,-125.90762550266751,-1403.1548428638882
12.03537839,-181.23551243045117,-123.04609247316371,-1399.9879928070511
12.04013397,-181.21968550723557,-120.1937048198985,-1396.8046083484148
12.04488954,-181.2000828304207,-117.35048616344825,-1393.6048075848678
12.04964511,-181.1767270199336,-114.5164599645403,-1390.388709136376
12.05440069,-181.14964057103157,-111.69164952743566,-1387.1564321369358
12.05915626,-181.11884585304583,-108.8760780033173,-1383.9080962255946
12.06391183,-181.08436510821682,-106.06976839367941,-1380.6438215375151
12.06866735,-181.046220450619,-103.27274355371274,-1377.3637286950595
12.07342292,-181.00443386517267,-100.48502619568137,-1374.0679387988773
12.0781785,-180.95902720674135,-97.70663889228628,-1370.7565734189805
12.08293407,-180.91002219931494,-94.93760408001194,-1367.429754585795
12.08768964,-180.85744043527967,-92.17794406245226,-1364.0876047811762
12.09244522,-180.80130337477496,-89.42768101361197,-1360.7302469293788
12.09720079,-180.74163234513665,-86.68683698117978,-1357.3578043879932
12.10195636,-180.67844854042713,-83.95543388976925,-1353.9704009388581
12.10671188,-180.61177302105258,-81.23349354412505,-1350.5681607789566
12.11146746,-180.5416267134677,-78.52103763229131,-1347.1512085112813
12.11622303,-180.46803040996792,-75.81808772873944,-1343.7196691356696
12.1209786,-180.39100476856984,-73.1246652974525,-1340.2736680395917
12.12573417,-180.31057031298025,-70.44079169496297,-1336.8133309888813
12.13048975,-180.2267474326541,-67.76648817334006,-1333.3387841184026
12.13524532,-180.1395563829399,-65.1017758831225,-1329.8501539226506
12.14000089,-180.04901728531112,-62.4466758761935,-1326.3475672462773
12.14475647,-179.95515012768192,-59.801209108594584,-1322.8311512745465
12.14951199,-179.85797476480542,-57.165396443274865,-1319.3010335237304
12.15426756,-179.75751091875165,-54.539258652773604,-1315.7573418314457
12.15902313,-179.65377817946438,-51.92281642183388,-1312.2002043469308
12.16377871,-179.54679600539797,-49.31609034994465,-1308.6297495212737
12.16853428,-179.43658372423565,-46.71910095380826,-1305.0461060976177
12.17328985,-179.32316053369027,-44.13186866973003,-1301.4494031013694
12.17804542,-179.20654550238788,-41.55441385592711,-1297.8397698304243
12.18280094,-179.08675757083373,-38.98675679475347,-1294.2173358454281
12.18755652,-178.96381555246163,-36.42891769483802,-1290.5822309600765
12.19231209,-178.8377381347675,-33.88091669313204,-1286.9345852314464
12.19706766,-178.708543880525,-31.34277385686264,-1283.274528950345
12.20182324,-178.57625122907967,-28.814509185388985,-1279.6021926316762
12.20657881,-178.44087849771688,-26.29614261195822,-1275.9177070048222
12.21133438,-178.30244388309913,-23.787694005357814,-1272.2212030040366
12.21608996,-178.16096546276992,-21.28918317146161,-1268.5128117588304
12.22084548,-178.01646119672236,-18.800629854666763,-1264.7926645843438
12.22560105,-177.86894892903248,-16.322053739218784,-1261.0608929716943
12.23035662,-177.71844638955596,-13.85347445042207,-1257.3176285782795
12.2351122,-177.564971195687,-11.39491155573332,-1253.5630032180252
12.23986777,-177.4085408541791,-8.946384565735611,-1249.7971488515625
12.24462334,-177.2491727630277,-6.507912934990923,-1246.0201975763225
12.24937886,-177.08688421341424,-4.079516062768787,-1242.2322816165408
12.25413444,-176.9216923917088,-1.6612132936487598,-1238.4335333131496
12.25889001,-176.7536143815275,0.7469760820056184,-1234.6240851135321
12.26364558,-176.5826671658384,3.145032827703522,-1230.8040695611253
12.26840115,-176.4088676291082,5.532937760616279,-1226.973619284855
12.27315673,-176.2322325594816,7.910671751501479,-1223.132866988396
12.2779123,-176.05277865098404,10.278215724763594,-1219.281945439256
12.28266782,-175.8705225057404,12.635550658652845,-1215.420987457686
12.28742339,-175.68548063620227,14.982657585603922,-1211.5501259054179
12.29217897,-175.49766946737816,17.319517592716206,-1207.669493674238
12.29693454,-175.30710533906168,19.64611182237704,-1203.7792236743976
12.30169011,-175.11380450805143,21.96242147302952,-1199.8794488228643
